Sl_no,image_path,thisN,thisTrialN,thisRepN,key_resp_5.keys,key_resp_5.rt,key_resp_5.duration,key_resp_7.keys,key_resp_9.keys,key_resp_9.rt,key_resp_9.duration,key_resp_8.keys,key_resp_8.rt,key_resp_8.duration,practice.thisRepN,practice.thisTrialN,practice.thisN,practice.thisIndex,trials.thisRepN,trials.thisTrialN,trials.thisN,trials.thisIndex,thisRow.t,notes,welcome_page.started,text.started,key_resp.started,welcome_page.stopped,key_resp.keys,key_resp.rt,key_resp.duration,instructions.started,ins.started,key_resp_2.started,instructions.stopped,key_resp_2.keys,key_resp_2.rt,key_resp_2.duration,instruction_2.started,text_10.started,key_resp_10.started,instruction_2.stopped,key_resp_10.keys,key_resp_10.rt,key_resp_10.duration,objects_only_instruction.started,text_3.started,key_resp_3.started,objects_only_instruction.stopped,key_resp_3.keys,key_resp_3.rt,key_resp_3.duration,ISI.started,text_4.started,text_4.stopped,ISI.stopped,practice_block.started,image.started,text_5.started,key_resp_5.started,image.stopped,text_5.stopped,key_resp_5.stopped,practice_block.stopped,practice.key_resp_5.keys,practice.key_resp_5.rt,practice.key_resp_5.duration,indoor_outdoor.started,indoor_outdoor.stopped,practice.key_resp_7.keys,practice_to_main.started,text_2.started,key_resp_4.started,practice_to_main.stopped,key_resp_4.keys,key_resp_4.rt,key_resp_4.duration,objects.started,image_2.started,text_9.started,key_resp_9.started,objects.stopped,trials.key_resp_9.keys,trials.key_resp_9.rt,trials.key_resp_9.duration,encoding_task.started,encoding_task.stopped,trials.key_resp_8.keys,image_2.stopped,text_9.stopped,key_resp_9.stopped,text_8.started,key_resp_8.started,trials.key_resp_8.rt,trials.key_resp_8.duration,end_experiment.started,text_6.started,key_resp_6.started,end_experiment.stopped,key_resp_6.keys,key_resp_6.rt,key_resp_6.duration,list_of_stimuli,encoding_task_accuracy,participant,session,date,expName,psychopyVersion,frameRate,expStart,
,,,,,,,,,,,,,,,,,,,,,,,,,0.008226699999795528,0.02484349999940605,0.02484349999940605,14.759336999999505,space,14.721924200002832,None,,,,,,,,,,,,,,,,,,,,,,,,,,,,,,,,,,,,,,,,,,,,,,,,,,,,,,,,,,,,,,,,,,,,,,,,,,00001,001,2025-11-08_16h36.47.075,MST_task,2024.2.2,60.008917324028936,2025-11-08 16h36.54.958565 +0530,
,,,,,,,,,,,,,,,,,,,,,,,,,,,,,,,,14.759370600000693,14.774437899999612,14.774437899999612,18.374795299998368,space,3.583770299999742,None,,,,,,,,,,,,,,,,,,,,,,,,,,,,,,,,,,,,,,,,,,,,,,,,,,,,,,,,,,,,,,,,,,,00001,001,2025-11-08_16h36.47.075,MST_task,2024.2.2,60.008917324028936,2025-11-08 16h36.54.958565 +0530,
,,,,,,,,,,,,,,,,,,,,,,,,,,,,,,,,,,,,,,,18.37482199999795,18.39105439999912,18.39105439999912,20.007947800000693,space,1.6006354999990435,None,,,,,,,,,,,,,,,,,,,,,,,,,,,,,,,,,,,,,,,,,,,,,,,,,,,,,,,,,,,,00001,001,2025-11-08_16h36.47.075,MST_task,2024.2.2,60.008917324028936,2025-11-08 16h36.54.958565 +0530,
,,,,,,,,,,,,,,,,,,,,,,,,,,,,,,,,,,,,,,,,,,,,,,20.00797269999748,20.02429149999807,20.02429149999807,21.857831599998462,space,1.819287100002839,None,,,,,,,,,,,,,,,,,,,,,,,,,,,,,,,,,,,,,,,,,,,,,,,,,,,,,00001,001,2025-11-08_16h36.47.075,MST_task,2024.2.2,60.008917324028936,2025-11-08 16h36.54.958565 +0530,
3,practice_images/037a.jpg,0,0,0,f,1.5570851999982551,0.10098830000060843,None,,,,,,,0,0,0,2,,,,,21.874247899999318,,,,,,,,,,,,,,,,,,,,,,,,,,,,,,21.861084399999527,21.874247899999318,22.374279299998307,22.357750499999383,22.36427249999906,22.374279299998307,22.374279299998307,22.374279299998307,25.374191599999904,25.374191599999904,25.374191599999904,25.35768679999819,f,1.5570851999982551,0.10098830000060843,25.35912389999794,25.359138499999972,None,,,,,,,,,,,,,,,,,,,,,,,,,,,,,,,,,,,00001,001,2025-11-08_16h36.47.075,MST_task,2024.2.2,60.008917324028936,2025-11-08 16h36.54.958565 +0530,
1,practice_images/013a.jpg,1,1,0,f,2.1767061999998987,0.11498529999880702,None,,,,,,,0,1,1,0,,,,,25.374191599999904,,,,,,,,,,,,,,,,,,,,,,,,,,,,,,25.359194299999217,25.374191599999904,25.87416630000007,25.857678399999713,25.85914109999794,25.87416630000007,25.87416630000007,25.87416630000007,28.874180899998464,28.874180899998464,28.874180899998464,28.857613899999706,f,2.1767061999998987,0.11498529999880702,28.857657599997765,28.857667099997343,None,,,,,,,,,,,,,,,,,,,,,,,,,,,,,,,,,,,00001,001,2025-11-08_16h36.47.075,MST_task,2024.2.2,60.008917324028936,2025-11-08 16h36.54.958565 +0530,
8,practice_images/178a.jpg,2,2,0,j,1.9877797000008286,0.12582969999857596,None,,,,,,,0,2,2,7,,,,,28.874180899998464,,,,,,,,,,,,,,,,,,,,,,,,,,,,,,28.857748599999468,28.874180899998464,29.374128699997527,29.357785399999557,29.35907809999844,29.374128699997527,29.374128699997527,29.374128699997527,32.37402680000014,32.37402680000014,32.37402680000014,32.357550799999444,j,1.9877797000008286,0.12582969999857596,32.357596699999704,32.35760599999776,None,,,,,,,,,,,,,,,,,,,,,,,,,,,,,,,,,,,00001,001,2025-11-08_16h36.47.075,MST_task,2024.2.2,60.008917324028936,2025-11-08 16h36.54.958565 +0530,
6,practice_images/158a.jpg,3,3,0,j,1.96975139999995,0.11022469999807072,None,,,,,,,0,3,3,5,,,,,32.37402680000014,,,,,,,,,,,,,,,,,,,,,,,,,,,,,,32.35765959999844,32.37402680000014,32.87404719999904,32.8575153999991,32.85869989999992,32.87404719999904,32.87404719999904,32.87404719999904,35.873941800000466,35.873941800000466,35.873941800000466,35.85756019999826,j,1.96975139999995,0.11022469999807072,35.85760769999979,35.857617599998775,None,,,,,,,,,,,,,,,,,,,,,,,,,,,,,,,,,,,00001,001,2025-11-08_16h36.47.075,MST_task,2024.2.2,60.008917324028936,2025-11-08 16h36.54.958565 +0530,
5,practice_images/139a.jpg,4,4,0,j,1.5900388000009116,0.12013239999942016,None,,,,,,,0,4,4,4,,,,,35.873941800000466,,,,,,,,,,,,,,,,,,,,,,,,,,,,,,35.857675799998106,35.873941800000466,36.37396389999776,36.357605900000635,36.35882209999909,36.37396389999776,36.37396389999776,36.37396389999776,39.37387129999843,39.37387129999843,39.37387129999843,39.3573765000001,j,1.5900388000009116,0.12013239999942016,39.357426899998245,39.35744960000011,None,,,,,,,,,,,,,,,,,,,,,,,,,,,,,,,,,,,00001,001,2025-11-08_16h36.47.075,MST_task,2024.2.2,60.008917324028936,2025-11-08 16h36.54.958565 +0530,
7,practice_images/166a.jpg,5,5,0,f,1.7058276000025216,0.10991669999930309,None,,,,,,,0,5,5,6,,,,,39.37387129999843,,,,,,,,,,,,,,,,,,,,,,,,,,,,,,39.35750239999834,39.37387129999843,39.873893100000714,39.857387399999425,39.85864450000008,39.873893100000714,39.873893100000714,39.873893100000714,42.873822499997914,42.873822499997914,42.873822499997914,42.85726609999983,f,1.7058276000025216,0.10991669999930309,42.85731499999747,42.857325000000856,None,,,,,,,,,,,,,,,,,,,,,,,,,,,,,,,,,,,00001,001,2025-11-08_16h36.47.075,MST_task,2024.2.2,60.008917324028936,2025-11-08 16h36.54.958565 +0530,
10,practice_images/182a.jpg,6,6,0,f,0.8299210000004678,0.10639570000057574,None,,,,,,,0,6,6,9,,,,,42.873822499997914,,,,,,,,,,,,,,,,,,,,,,,,,,,,,,42.85737999999765,42.873822499997914,43.37380950000079,43.35736460000044,43.36501859999771,43.37380950000079,43.37380950000079,43.37380950000079,46.3737500999996,46.3737500999996,46.3737500999996,46.35722959999839,f,0.8299210000004678,0.10639570000057574,46.35727430000043,46.357282799999666,None,,,,,,,,,,,,,,,,,,,,,,,,,,,,,,,,,,,00001,001,2025-11-08_16h36.47.075,MST_task,2024.2.2,60.008917324028936,2025-11-08 16h36.54.958565 +0530,
4,practice_images/002b.jpg,7,7,0,f,1.6401623999990989,0.11194280000199797,None,,,,,,,0,7,7,3,,,,,46.3737500999996,,,,,,,,,,,,,,,,,,,,,,,,,,,,,,46.35733459999756,46.3737500999996,46.87370659999942,46.85729889999857,46.858731099997385,46.87370659999942,46.87370659999942,46.87370659999942,49.87367559999984,49.87367559999984,49.87367559999984,49.857195699998556,f,1.6401623999990989,0.11194280000199797,49.857249599997886,49.85725959999763,None,,,,,,,,,,,,,,,,,,,,,,,,,,,,,,,,,,,00001,001,2025-11-08_16h36.47.075,MST_task,2024.2.2,60.008917324028936,2025-11-08 16h36.54.958565 +0530,
2,practice_images/031a.jpg,8,8,0,f,1.5677304000018921,0.11491369999930612,None,,,,,,,0,8,8,1,,,,,49.87367559999984,,,,,,,,,,,,,,,,,,,,,,,,,,,,,,49.857322199997725,49.87367559999984,50.37363750000077,50.357231999998476,50.35852370000066,50.37363750000077,50.37363750000077,50.37363750000077,53.37359519999882,53.37359519999882,53.37359519999882,53.35704369999803,f,1.5677304000018921,0.11491369999930612,53.35711230000015,53.35712109999804,None,,,,,,,,,,,,,,,,,,,,,,,,,,,,,,,,,,,00001,001,2025-11-08_16h36.47.075,MST_task,2024.2.2,60.008917324028936,2025-11-08 16h36.54.958565 +0530,
9,practice_images/180a.jpg,9,9,0,f,1.3384039000011398,0.09544119999918621,None,,,,,,,0,9,9,8,,,,,53.37359519999882,,,,,,,,,,,,,,,,,,,,,,,,,,,,,,53.357174400000076,53.37359519999882,53.87355219999881,53.85721659999763,53.85854619999736,53.87355219999881,53.87355219999881,53.87355219999881,56.87348909999855,56.87348909999855,56.87348909999855,56.856975099999545,f,1.3384039000011398,0.09544119999918621,56.85702289999972,56.857033299998875,None,,,,,,,,,,,,,,,,,,,,,,,,,,,,,,,,,,,00001,001,2025-11-08_16h36.47.075,MST_task,2024.2.2,60.008917324028936,2025-11-08 16h36.54.958565 +0530,
,,,,,,,,,,,,,,,,,,,,,,,,,,,,,,,,,,,,,,,,,,,,,,,,,,,,,,,,,,,,,,,,,,,,,,,56.857068599998456,56.87348909999855,56.87348909999855,81.65674220000074,space,24.779896399999416,None,,,,,,,,,,,,,,,,,,,,,,,,,,,,00001,001,2025-11-08_16h36.47.075,MST_task,2024.2.2,60.008917324028936,2025-11-08 16h36.54.958565 +0530,
,Objects\122a.jpg,0,0,0,,,,,f,1.763380699998379,0.11961910000172793,None,,,,,,,0,0,0,0,81.6729568999981,,,,,,,,,,,,,,,,,,,,,,,,,,,,,,81.65728219999801,81.6729568999981,82.2066296999983,82.15641709999909,,,,,,,,,,,,,,,,,,,,,,82.19810599999983,82.2066296999983,82.2066296999983,82.2066296999983,85.17292409999936,f,1.763380699998379,0.11961910000172793,85.17411060000086,85.17412309999781,None,,,,,,,,,,,,,,,,,00001,001,2025-11-08_16h36.47.075,MST_task,2024.2.2,60.008917324028936,2025-11-08 16h36.54.958565 +0530,
,Objects\088a.jpg,1,0,1,,,,,f,1.629774400000315,0.20250710000254912,None,,,,,,,1,0,1,0,85.18958449999991,,,,,,,,,,,,,,,,,,,,,,,,,,,,,,85.17417940000087,85.18958449999991,85.68958049999856,85.6730662000009,,,,,,,,,,,,,,,,,,,,,,85.6813805999991,85.68958049999856,85.68958049999856,85.68958049999856,88.67311279999922,f,1.629774400000315,0.20250710000254912,88.67315869999948,88.67316879999998,None,88.6894919999977,88.6894919999977,88.6894919999977,,,,,,,,,,,,,,00001,001,2025-11-08_16h36.47.075,MST_task,2024.2.2,60.008917324028936,2025-11-08 16h36.54.958565 +0530,
,Objects\038a.jpg,2,0,2,,,,,f,1.1510969000009936,0.07686109999849577,None,,,,,,,2,0,2,0,88.6894919999977,,,,,,,,,,,,,,,,,,,,,,,,,,,,,,88.67323789999864,88.6894919999977,89.18944969999939,89.17316009999922,,,,,,,,,,,,,,,,,,,,,,89.18101480000041,89.18944969999939,89.18944969999939,89.18944969999939,92.17300649999743,f,1.1510969000009936,0.07686109999849577,92.17305359999955,92.17306520000056,None,92.18940799999837,92.18940799999837,92.18940799999837,,,,,,,,,,,,,,00001,001,2025-11-08_16h36.47.075,MST_task,2024.2.2,60.008917324028936,2025-11-08 16h36.54.958565 +0530,
,Objects\164a.jpg,3,0,3,,,,,None,,,f,0.9002208999991126,None,,,,,3,0,3,0,92.18940799999837,,,,,,,,,,,,,,,,,,,,,,,,,,,,,,92.17313859999922,92.18940799999837,92.70603049999772,92.67302389999895,,,,,,,,,,,,,,,,,,,,,,92.69543909999993,92.70603049999772,92.70603049999772,92.70603049999772,95.68940549999752,None,,,95.68944940000074,96.62293599999975,f,,,,95.70599329999823,95.70599329999823,0.9002208999991126,None,,,,,,,,,,00001,001,2025-11-08_16h36.47.075,MST_task,2024.2.2,60.008917324028936,2025-11-08 16h36.54.958565 +0530,
,Objects\086a.jpg,4,0,4,,,,,None,,,j,0.09425059999921359,None,,,,,4,0,4,0,96.63934420000078,,,,,,,,,,,,,,,,,,,,,,,,,,,,,,96.62304740000036,96.63934420000078,97.13926580000043,97.12279339999805,,,,,,,,,,,,,,,,,,,,,,97.13063379999949,97.13926580000043,97.13926580000043,97.13926580000043,100.12283699999898,None,,,100.12287880000076,100.23962329999995,j,100.13923380000051,100.13923380000051,100.13923380000051,100.13923380000051,100.13923380000051,0.09425059999921359,None,,,,,,,,,,00001,001,2025-11-08_16h36.47.075,MST_task,2024.2.2,60.008917324028936,2025-11-08 16h36.54.958565 +0530,
,Objects\186a.jpg,5,0,5,,,,,f,0.8893315999994229,0.10391150000214111,None,,,,,,,5,0,5,0,100.25592619999952,,,,,,,,,,,,,,,,,,,,,,,,,,,,,,100.2397213999975,100.25592619999952,100.7726092999983,100.7393751999989,,,,,,,,,,,,,,,,,,,,,,100.76171450000038,100.7726092999983,100.7726092999983,100.7726092999983,103.75599679999868,f,0.8893315999994229,0.10391150000214111,103.75604699999894,103.75605789999827,None,,,,,,,,,,,,,,,,,00001,001,2025-11-08_16h36.47.075,MST_task,2024.2.2,60.008917324028936,2025-11-08 16h36.54.958565 +0530,
,Objects\188a.jpg,6,0,6,,,,,f,1.0763301000006322,0.14594810000198777,None,,,,,,,6,0,6,0,103.77249289999963,,,,,,,,,,,,,,,,,,,,,,,,,,,,,,103.7561203999976,103.77249289999963,104.28914050000094,104.25619989999905,,,,,,,,,,,,,,,,,,,,,,104.2735176999995,104.28914050000094,104.28914050000094,104.28914050000094,107.27247920000082,f,1.0763301000006322,0.14594810000198777,107.27252659999795,107.27253709999786,None,,,,,,,,,,,,,,,,,00001,001,2025-11-08_16h36.47.075,MST_task,2024.2.2,60.008917324028936,2025-11-08 16h36.54.958565 +0530,
,Scenes\187a.jpg,7,0,7,,,,,j,0.8894713999980013,0.12166960000104154,None,,,,,,,7,0,7,0,107.28904909999983,,,,,,,,,,,,,,,,,,,,,,,,,,,,,,107.27262669999982,107.28904909999983,107.82285950000005,107.77268299999923,,,,,,,,,,,,,,,,,,,,,,107.81429089999801,107.82285950000005,107.82285950000005,107.82285950000005,110.78907039999831,j,0.8894713999980013,0.12166960000104154,110.78912359999958,110.78913380000085,None,,,,,,,,,,,,,,,,,00001,001,2025-11-08_16h36.47.075,MST_task,2024.2.2,60.008917324028936,2025-11-08 16h36.54.958565 +0530,
,Scenes\151a.jpg,8,0,8,,,,,j,1.009036899999046,0.1334978000013507,None,,,,,,,8,0,8,0,110.8056304999991,,,,,,,,,,,,,,,,,,,,,,,,,,,,,,110.78919590000078,110.8056304999991,111.33897589999833,111.28920759999892,,,,,,,,,,,,,,,,,,,,,,111.31655849999879,111.33897589999833,111.33897589999833,111.33897589999833,114.30561609999859,j,1.009036899999046,0.1334978000013507,114.30566389999876,114.30567449999944,None,,,,,,,,,,,,,,,,,00001,001,2025-11-08_16h36.47.075,MST_task,2024.2.2,60.008917324028936,2025-11-08 16h36.54.958565 +0530,
,Scenes\097a.jpg,9,0,9,,,,,f,2.6609533000009833,0.09389680000094813,None,,,,,,,9,0,9,0,114.32225909999761,,,,,,,,,,,,,,,,,,,,,,,,,,,,,,114.30573279999953,114.32225909999761,114.83910230000038,114.80573209999784,,,,,,,,,,,,,,,,,,,,,,114.82529779999822,114.83910230000038,114.83910230000038,114.83910230000038,117.82231719999982,f,2.6609533000009833,0.09389680000094813,117.82237549999991,117.82238619999771,None,,,,,,,,,,,,,,,,,00001,001,2025-11-08_16h36.47.075,MST_task,2024.2.2,60.008917324028936,2025-11-08 16h36.54.958565 +0530,
,Scenes\149a.jpg,10,0,10,,,,,f,2.865747600000759,None,None,,,,,,,10,0,10,0,117.83884659999967,,,,,,,,,,,,,,,,,,,,,,,,,,,,,,117.82246490000034,117.83884659999967,118.37220099999831,118.32234790000075,,,,,,,,,,,,,,,,,,,,,,118.34942640000008,118.37220099999831,118.37220099999831,118.37220099999831,121.33879850000085,f,2.865747600000759,None,121.33884699999908,121.33886839999832,None,,,,,,,,,,,,,,,,,00001,001,2025-11-08_16h36.47.075,MST_task,2024.2.2,60.008917324028936,2025-11-08 16h36.54.958565 +0530,
,Scenes\018a.jpg,11,0,11,,,,,j,1.9843884000001708,0.14498749999984284,None,,,,,,,11,0,11,0,121.35544079999818,,,,,,,,,,,,,,,,,,,,,,,,,,,,,,121.33892339999875,121.35544079999818,121.87205719999838,121.83901340000011,,,,,,,,,,,,,,,,,,,,,,121.86139399999956,121.87205719999838,121.87205719999838,121.87205719999838,124.8554022999997,j,1.9843884000001708,0.14498749999984284,124.8554492000003,124.85545949999869,None,,,,,,,,,,,,,,,,,00001,001,2025-11-08_16h36.47.075,MST_task,2024.2.2,60.008917324028936,2025-11-08 16h36.54.958565 +0530,
,Scenes\020a.jpg,12,0,12,,,,,f,1.2390057999982673,0.10985620000064955,None,,,,,,,12,0,12,0,124.87202360000083,,,,,,,,,,,,,,,,,,,,,,,,,,,,,,124.85551869999836,124.87202360000083,125.4055535999978,125.35554259999844,,,,,,,,,,,,,,,,,,,,,,125.38740899999902,125.4055535999978,125.4055535999978,125.4055535999978,128.37199789999795,f,1.2390057999982673,0.10985620000064955,128.37204399999973,128.37205379999796,None,,,,,,,,,,,,,,,,,00001,001,2025-11-08_16h36.47.075,MST_task,2024.2.2,60.008917324028936,2025-11-08 16h36.54.958565 +0530,
,Scenes\179a.jpg,13,0,13,,,,,j,1.507849300000089,0.13799339999968652,None,,,,,,,13,0,13,0,128.38859740000044,,,,,,,,,,,,,,,,,,,,,,,,,,,,,,128.37212680000084,128.38859740000044,,128.87210029999915,,,,,,,,,,,,,,,,,,,,,,128.89704250000068,128.9054972999984,128.9054972999984,128.9054972999984,131.88870429999952,j,1.507849300000089,0.13799339999968652,131.88875469999766,131.88876359999995,None,,,,,,,,,,,,,,,,,00001,001,2025-11-08_16h36.47.075,MST_task,2024.2.2,60.008917324028936,2025-11-08 16h36.54.958565 +0530,
,Objects\081a.jpg,14,0,14,,,,,None,,,j,0.7944313000007241,None,,,,,14,0,14,0,131.90519569999742,,,,,,,,,,,,,,,,,,,,,,,,,,,,,,131.88882599999852,131.90519569999742,132.42216049999843,132.3888138000002,,,,,,,,,,,,,,,,,,,,,,132.4049391999979,132.42216049999843,132.42216049999843,132.42216049999843,135.40513350000037,None,,,135.40518729999894,136.22209680000014,j,,,,135.42180240000016,135.42180240000016,0.7944313000007241,None,,,,,,,,,,00001,001,2025-11-08_16h36.47.075,MST_task,2024.2.2,60.008917324028936,2025-11-08 16h36.54.958565 +0530,
,Objects\021a.jpg,15,0,15,,,,,f,1.5089413999994576,0.1301482999988366,None,,,,,,,15,0,15,0,136.23840899999777,,,,,,,,,,,,,,,,,,,,,,,,,,,,,,136.22218000000066,136.23840899999777,136.75507149999976,136.72194449999733,,,,,,,,,,,,,,,,,,,,,,136.73852260000058,136.75507149999976,136.75507149999976,136.75507149999976,139.7384364999998,f,1.5089413999994576,0.1301482999988366,139.73848870000074,139.73850049999965,None,,,,,,,,,,,,,,,,,00001,001,2025-11-08_16h36.47.075,MST_task,2024.2.2,60.008917324028936,2025-11-08 16h36.54.958565 +0530,
,Objects\113a.jpg,16,0,16,,,,,None,,,f,2.6826297999978124,None,,,,,16,0,16,0,139.75502190000043,,,,,,,,,,,,,,,,,,,,,,,,,,,,,,139.7385594999978,139.75502190000043,140.2716978999997,140.23854539999957,,,,,,,,,,,,,,,,,,,,,,140.26335710000058,140.2716978999997,140.2716978999997,140.2716978999997,143.25500439999814,None,,,143.2550529,145.9552365999989,f,,,,143.27162350000071,143.27162350000071,2.6826297999978124,None,,,,,,,,,,00001,001,2025-11-08_16h36.47.075,MST_task,2024.2.2,60.008917324028936,2025-11-08 16h36.54.958565 +0530,
,Objects\049a.jpg,17,0,17,,,,,f,1.6052970999990066,0.0764764000014111,None,,,,,,,17,0,17,0,145.97156130000076,,,,,,,,,,,,,,,,,,,,,,,,,,,,,,145.95532559999992,145.97156130000076,146.4881960999992,146.4551035000004,,,,,,,,,,,,,,,,,,,,,,146.4729011999989,146.4881960999992,146.4881960999992,146.4881960999992,149.47154949999822,f,1.6052970999990066,0.0764764000014111,149.47162919999755,149.4716402999984,None,,,,,,,,,,,,,,,,,00001,001,2025-11-08_16h36.47.075,MST_task,2024.2.2,60.008917324028936,2025-11-08 16h36.54.958565 +0530,
,Objects\072a.jpg,18,0,18,,,,,f,1.81760740000027,0.10683430000062799,None,,,,,,,18,0,18,0,149.4881596999985,,,,,,,,,,,,,,,,,,,,,,,,,,,,,,149.47170279999773,149.4881596999985,150.0047745999982,149.97173359999942,,,,,,,,,,,,,,,,,,,,,,149.9874975999992,150.0047745999982,150.0047745999982,150.0047745999982,152.98809039999833,f,1.81760740000027,0.10683430000062799,152.9881349999996,152.98814499999935,None,,,,,,,,,,,,,,,,,00001,001,2025-11-08_16h36.47.075,MST_task,2024.2.2,60.008917324028936,2025-11-08 16h36.54.958565 +0530,
,Objects\126a.jpg,19,0,19,,,,,j,1.262332799997239,0.11284890000024461,None,,,,,,,19,0,19,0,153.00473969999803,,,,,,,,,,,,,,,,,,,,,,,,,,,,,,152.98820349999733,153.00473969999803,153.52137030000085,153.48825539999962,,,,,,,,,,,,,,,,,,,,,,153.51370509999833,153.52137030000085,153.52137030000085,153.52137030000085,156.50473749999946,j,1.262332799997239,0.11284890000024461,156.50478619999922,156.50479669999913,None,,,,,,,,,,,,,,,,,00001,001,2025-11-08_16h36.47.075,MST_task,2024.2.2,60.008917324028936,2025-11-08 16h36.54.958565 +0530,
,Objects\110a.jpg,20,0,20,,,,,j,2.4701246000004176,0.10011490000033518,None,,,,,,,20,0,20,0,156.52133609999873,,,,,,,,,,,,,,,,,,,,,,,,,,,,,,156.50486109999838,156.52133609999873,157.03795399999944,157.0048872999978,,,,,,,,,,,,,,,,,,,,,,157.03216339999926,157.03795399999944,157.03795399999944,157.03795399999944,160.0212642999977,j,2.4701246000004176,0.10011490000033518,160.0213334,160.02134690000094,None,,,,,,,,,,,,,,,,,00001,001,2025-11-08_16h36.47.075,MST_task,2024.2.2,60.008917324028936,2025-11-08 16h36.54.958565 +0530,
,Scenes\030a.jpg,21,0,21,,,,,j,1.3302889999977197,0.11798660000204109,None,,,,,,,21,0,21,0,160.03792659999817,,,,,,,,,,,,,,,,,,,,,,,,,,,,,,160.02140809999764,160.03792659999817,160.5715304999976,160.52144019999832,,,,,,,,,,,,,,,,,,,,,,160.55278309999994,160.5715304999976,160.5715304999976,160.5715304999976,163.5378619999974,j,1.3302889999977197,0.11798660000204109,163.53790759999902,163.53791799999817,None,,,,,,,,,,,,,,,,,00001,001,2025-11-08_16h36.47.075,MST_task,2024.2.2,60.008917324028936,2025-11-08 16h36.54.958565 +0530,
,Scenes\095a.jpg,22,0,22,,,,,j,1.4637880000009318,0.129896499998722,None,,,,,,,22,0,22,0,163.5545431999999,,,,,,,,,,,,,,,,,,,,,,,,,,,,,,163.53797489999852,163.5545431999999,,164.03799000000072,,,,,,,,,,,,,,,,,,,,,,164.07066249999843,164.0880873999995,164.0880873999995,164.0880873999995,167.05446389999997,j,1.4637880000009318,0.129896499998722,167.0545084000005,167.05451750000066,None,,,,,,,,,,,,,,,,,00001,001,2025-11-08_16h36.47.075,MST_task,2024.2.2,60.008917324028936,2025-11-08 16h36.54.958565 +0530,
,Scenes\167a.jpg,23,0,23,,,,,None,,,f,4.849598799999512,None,,,,,23,0,23,0,167.07109760000094,,,,,,,,,,,,,,,,,,,,,,,,,,,,,,167.0545994999993,167.07109760000094,167.6043881000005,167.55463709999822,,,,,,,,,,,,,,,,,,,,,,167.58525349999763,167.6043881000005,167.6043881000005,167.6043881000005,170.57105919999958,None,,,170.5712270999975,175.43818579999788,f,,,,170.58754279999994,170.58754279999994,4.849598799999512,None,,,,,,,,,,00001,001,2025-11-08_16h36.47.075,MST_task,2024.2.2,60.008917324028936,2025-11-08 16h36.54.958565 +0530,
,Scenes\008a.jpg,24,0,24,,,,,j,1.6049880999999004,0.12588419999883627,None,,,,,,,24,0,24,0,175.45425109999996,,,,,,,,,,,,,,,,,,,,,,,,,,,,,,175.43830639999942,175.45425109999996,175.97111759999825,175.9378719999986,,,,,,,,,,,,,,,,,,,,,,175.9604720999996,175.97111759999825,175.97111759999825,175.97111759999825,178.9543236999998,j,1.6049880999999004,0.12588419999883627,178.95437369999854,178.95438419999846,None,,,,,,,,,,,,,,,,,00001,001,2025-11-08_16h36.47.075,MST_task,2024.2.2,60.008917324028936,2025-11-08 16h36.54.958565 +0530,
,Scenes\117a.jpg,25,0,25,,,,,j,0.9976714000003994,0.12085449999722186,None,,,,,,,25,0,25,0,178.97083740000016,,,,,,,,,,,,,,,,,,,,,,,,,,,,,,178.95445259999906,178.97083740000016,179.48769510000056,179.45439400000032,,,,,,,,,,,,,,,,,,,,,,179.48026129999926,179.48769510000056,179.48769510000056,179.48769510000056,182.47094469999865,j,0.9976714000003994,0.12085449999722186,182.47100990000035,182.4710215999985,None,,,,,,,,,,,,,,,,,00001,001,2025-11-08_16h36.47.075,MST_task,2024.2.2,60.008917324028936,2025-11-08 16h36.54.958565 +0530,
,Scenes\121a.jpg,26,0,26,,,,,j,1.0004298999992898,0.11035290000290843,None,,,,,,,26,0,26,0,182.50411249999888,,,,,,,,,,,,,,,,,,,,,,,,,,,,,,182.47112249999918,182.50411249999888,,182.9875276999992,,,,,,,,,,,,,,,,,,,,,,183.01395100000082,183.02096299999903,183.02096299999903,183.02096299999903,185.98736129999816,j,1.0004298999992898,0.11035290000290843,185.98740949999774,185.98742119999952,None,,,,,,,,,,,,,,,,,00001,001,2025-11-08_16h36.47.075,MST_task,2024.2.2,60.008917324028936,2025-11-08 16h36.54.958565 +0530,
,Scenes\160a.jpg,27,0,27,,,,,j,0.8727509000018472,0.13472759999785922,None,,,,,,,27,0,27,0,186.00401559999955,,,,,,,,,,,,,,,,,,,,,,,,,,,,,,185.9874955999985,186.00401559999955,186.52068149999832,186.48755019999953,,,,,,,,,,,,,,,,,,,,,,186.5098063000005,186.52068149999832,186.52068149999832,186.52068149999832,189.50411489999897,j,0.8727509000018472,0.13472759999785922,189.50416799999948,189.50417879999804,None,,,,,,,,,,,,,,,,,00001,001,2025-11-08_16h36.47.075,MST_task,2024.2.2,60.008917324028936,2025-11-08 16h36.54.958565 +0530,
,Objects\130a.jpg,28,0,28,,,,,f,0.9328329999989364,0.14522539999961737,None,,,,,,,28,0,28,0,189.52056989999983,,,,,,,,,,,,,,,,,,,,,,,,,,,,,,189.5042657999984,189.52056989999983,190.0375079000005,190.0041992999977,,,,,,,,,,,,,,,,,,,,,,190.02276169999823,190.0375079000005,190.0375079000005,190.0375079000005,193.02070959999764,f,0.9328329999989364,0.14522539999961737,193.02075719999993,193.02076749999833,None,,,,,,,,,,,,,,,,,00001,001,2025-11-08_16h36.47.075,MST_task,2024.2.2,60.008917324028936,2025-11-08 16h36.54.958565 +0530,
,Objects\023a.jpg,29,0,29,,,,,f,0.8080506000005698,0.1335120999974606,None,,,,,,,29,0,29,0,193.03719769999952,,,,,,,,,,,,,,,,,,,,,,,,,,,,,,193.0208242000008,193.03719769999952,193.55384929999855,193.52070159999857,,,,,,,,,,,,,,,,,,,,,,193.5366384000008,193.55384929999855,193.55384929999855,193.55384929999855,196.53711599999951,f,0.8080506000005698,0.1335120999974606,196.5371610000002,196.537170399999,None,,,,,,,,,,,,,,,,,00001,001,2025-11-08_16h36.47.075,MST_task,2024.2.2,60.008917324028936,2025-11-08 16h36.54.958565 +0530,
,Objects\145a.jpg,30,0,30,,,,,f,0.9897055000001274,0.09869279999838909,None,,,,,,,30,0,30,0,196.55379510000057,,,,,,,,,,,,,,,,,,,,,,,,,,,,,,196.53722559999733,196.55379510000057,,197.0372399000007,,,,,,,,,,,,,,,,,,,,,,197.06094739999753,197.0704115999979,197.0704115999979,197.0704115999979,200.0539194999983,f,0.9897055000001274,0.09869279999838909,200.0539757000006,200.0539848999979,None,,,,,,,,,,,,,,,,,00001,001,2025-11-08_16h36.47.075,MST_task,2024.2.2,60.008917324028936,2025-11-08 16h36.54.958565 +0530,
,Objects\153a.jpg,31,0,31,,,,,f,0.8928503999995883,0.0935356000009051,None,,,,,,,31,0,31,0,200.07037599999967,,,,,,,,,,,,,,,,,,,,,,,,,,,,,,200.05406030000086,200.07037599999967,200.5870063000002,200.55393299999923,,,,,,,,,,,,,,,,,,,,,,200.57379669999864,200.5870063000002,200.5870063000002,200.5870063000002,203.5703547999983,f,0.8928503999995883,0.0935356000009051,203.57040389999747,203.57041789999857,None,,,,,,,,,,,,,,,,,00001,001,2025-11-08_16h36.47.075,MST_task,2024.2.2,60.008917324028936,2025-11-08 16h36.54.958565 +0530,
,Objects\075a.jpg,32,0,32,,,,,f,1.8041549000008672,0.1149598000010883,None,,,,,,,32,0,32,0,203.5869634999981,,,,,,,,,,,,,,,,,,,,,,,,,,,,,,203.57047450000027,203.5869634999981,204.10362560000067,204.0705319000008,,,,,,,,,,,,,,,,,,,,,,204.08549819999826,204.10362560000067,204.10362560000067,204.10362560000067,207.08705679999912,f,1.8041549000008672,0.1149598000010883,207.08710549999887,207.0871158000009,None,,,,,,,,,,,,,,,,,00001,001,2025-11-08_16h36.47.075,MST_task,2024.2.2,60.008917324028936,2025-11-08 16h36.54.958565 +0530,
,Objects\043a.jpg,33,0,33,,,,,f,1.4986992000012833,0.12514390000069398,None,,,,,,,33,0,33,0,207.10360729999957,,,,,,,,,,,,,,,,,,,,,,,,,,,,,,207.08719930000007,207.10360729999957,207.62018309999985,207.58709950000048,,,,,,,,,,,,,,,,,,,,,,207.6041256999997,207.62018309999985,207.62018309999985,207.62018309999985,210.6034858999992,f,1.4986992000012833,0.12514390000069398,210.60352989999956,210.60353979999854,None,,,,,,,,,,,,,,,,,00001,001,2025-11-08_16h36.47.075,MST_task,2024.2.2,60.008917324028936,2025-11-08 16h36.54.958565 +0530,
,Objects\018a.jpg,34,0,34,,,,,None,,,j,3.1313980000013544,None,,,,,34,0,34,0,210.62015559999782,,,,,,,,,,,,,,,,,,,,,,,,,,,,,,210.60359719999906,210.62015559999782,211.13681480000014,211.10362800000075,,,,,,,,,,,,,,,,,,,,,,211.12052499999845,211.13681480000014,211.13681480000014,211.13681480000014,214.1201220999974,None,,,214.12019099999816,217.2703920999993,j,,,,214.13674009999886,214.13674009999886,3.1313980000013544,None,,,,,,,,,,00001,001,2025-11-08_16h36.47.075,MST_task,2024.2.2,60.008917324028936,2025-11-08 16h36.54.958565 +0530,
,Scenes\114a.jpg,35,0,35,,,,,j,2.883709599998838,None,None,,,,,,,35,0,35,0,217.28666739999971,,,,,,,,,,,,,,,,,,,,,,,,,,,,,,217.27047440000024,217.28666739999971,217.82004589999997,217.77019559999826,,,,,,,,,,,,,,,,,,,,,,217.7977482999995,217.82004589999997,217.82004589999997,217.82004589999997,220.78662619999886,j,2.883709599998838,None,220.78667779999887,220.78668769999786,None,,,,,,,,,,,,,,,,,00001,001,2025-11-08_16h36.47.075,MST_task,2024.2.2,60.008917324028936,2025-11-08 16h36.54.958565 +0530,
,Scenes\112a.jpg,36,0,36,,,,,j,1.8739007000003767,0.11745829999927082,None,,,,,,,36,0,36,0,220.80326069999865,,,,,,,,,,,,,,,,,,,,,,,,,,,,,,220.78677600000083,220.80326069999865,221.32016830000066,221.28672839999854,,,,,,,,,,,,,,,,,,,,,,221.31045289999747,221.32016830000066,221.32016830000066,221.32016830000066,224.30325509999966,j,1.8739007000003767,0.11745829999927082,224.30330459999823,224.30331490000026,None,,,,,,,,,,,,,,,,,00001,001,2025-11-08_16h36.47.075,MST_task,2024.2.2,60.008917324028936,2025-11-08 16h36.54.958565 +0530,
,Scenes\091a.jpg,37,0,37,,,,,j,1.1172250999989046,0.129657400000724,None,,,,,,,37,0,37,0,224.3198483999986,,,,,,,,,,,,,,,,,,,,,,,,,,,,,,224.30337339999824,224.3198483999986,224.8364655999976,224.80335469999773,,,,,,,,,,,,,,,,,,,,,,224.82627850000063,224.8364655999976,224.8364655999976,224.8364655999976,227.81980719999774,j,1.1172250999989046,0.129657400000724,227.81985319999876,227.81986300000062,None,,,,,,,,,,,,,,,,,00001,001,2025-11-08_16h36.47.075,MST_task,2024.2.2,60.008917324028936,2025-11-08 16h36.54.958565 +0530,
,Scenes\029a.jpg,38,0,38,,,,,j,1.0177464000007603,0.12687989999903948,None,,,,,,,38,0,38,0,227.8364464999977,,,,,,,,,,,,,,,,,,,,,,,,,,,,,,227.8199397999997,227.8364464999977,228.36973319999743,228.31992009999885,,,,,,,,,,,,,,,,,,,,,,228.35409419999996,228.36973319999743,228.36973319999743,228.36973319999743,231.33637739999904,j,1.0177464000007603,0.12687989999903948,231.33643519999896,231.33644509999795,None,,,,,,,,,,,,,,,,,00001,001,2025-11-08_16h36.47.075,MST_task,2024.2.2,60.008917324028936,2025-11-08 16h36.54.958565 +0530,
,Scenes\110a.jpg,39,0,39,,,,,j,1.1153731999984302,0.12422639999931562,None,,,,,,,39,0,39,0,231.35304170000018,,,,,,,,,,,,,,,,,,,,,,,,,,,,,,231.33652319999965,231.35304170000018,,231.83653179999965,,,,,,,,,,,,,,,,,,,,,,231.86064690000057,231.86986679999973,231.86986679999973,231.86986679999973,234.85297659999924,j,1.1153731999984302,0.12422639999931562,234.85302039999806,234.85303030000068,None,,,,,,,,,,,,,,,,,00001,001,2025-11-08_16h36.47.075,MST_task,2024.2.2,60.008917324028936,2025-11-08 16h36.54.958565 +0530,
,Scenes\146a.jpg,40,0,40,,,,,j,1.1987786999998207,0.14988159999847994,None,,,,,,,40,0,40,0,234.86957790000088,,,,,,,,,,,,,,,,,,,,,,,,,,,,,,234.85310509999908,234.86957790000088,235.40290839999943,235.35318650000045,,,,,,,,,,,,,,,,,,,,,,235.38343859999804,235.40290839999943,235.40290839999943,235.40290839999943,238.3695934999996,j,1.1987786999998207,0.14988159999847994,238.36964069999885,238.3696624999975,None,,,,,,,,,,,,,,,,,00001,001,2025-11-08_16h36.47.075,MST_task,2024.2.2,60.008917324028936,2025-11-08 16h36.54.958565 +0530,
,Scenes\041a.jpg,41,0,41,,,,,j,0.9822594999968715,0.15011530000265338,None,,,,,,,41,0,41,0,238.38624549999804,,,,,,,,,,,,,,,,,,,,,,,,,,,,,,238.36973859999853,238.38624549999804,,238.86978029999955,,,,,,,,,,,,,,,,,,,,,,238.90444690000004,238.91950150000048,238.91950150000048,238.91950150000048,241.88615890000074,j,0.9822594999968715,0.15011530000265338,241.88621689999854,241.88622599999871,None,,,,,,,,,,,,,,,,,00001,001,2025-11-08_16h36.47.075,MST_task,2024.2.2,60.008917324028936,2025-11-08 16h36.54.958565 +0530,
,Objects\058a.jpg,42,0,42,,,,,f,1.5298012999992352,0.10831110000071931,None,,,,,,,42,0,42,0,241.90276699999959,,,,,,,,,,,,,,,,,,,,,,,,,,,,,,241.88628889999745,241.90276699999959,242.41968550000092,242.38630289999855,,,,,,,,,,,,,,,,,,,,,,242.40315259999988,242.41968550000092,242.41968550000092,242.41968550000092,245.40275829999882,f,1.5298012999992352,0.10831110000071931,245.40280519999942,245.40281559999858,None,,,,,,,,,,,,,,,,,00001,001,2025-11-08_16h36.47.075,MST_task,2024.2.2,60.008917324028936,2025-11-08 16h36.54.958565 +0530,
,Objects\190a.jpg,43,0,43,,,,,f,0.8197465999983251,0.10806670000238228,None,,,,,,,43,0,43,0,245.41935079999894,,,,,,,,,,,,,,,,,,,,,,,,,,,,,,245.4028737999979,245.41935079999894,245.93604480000067,245.902889099998,,,,,,,,,,,,,,,,,,,,,,245.92729340000005,245.93604480000067,245.93604480000067,245.93604480000067,248.9193181999981,f,0.8197465999983251,0.10806670000238228,248.91937150000012,248.91938079999818,None,,,,,,,,,,,,,,,,,00001,001,2025-11-08_16h36.47.075,MST_task,2024.2.2,60.008917324028936,2025-11-08 16h36.54.958565 +0530,
,Objects\160a.jpg,44,0,44,,,,,f,2.15349470000001,0.10626070000216714,None,,,,,,,44,0,44,0,248.9359743999994,,,,,,,,,,,,,,,,,,,,,,,,,,,,,,248.91944149999836,248.9359743999994,249.4525919000007,249.4195820999994,,,,,,,,,,,,,,,,,,,,,,249.43927169999733,249.4525919000007,249.4525919000007,249.4525919000007,252.43593089999922,f,2.15349470000001,0.10626070000216714,252.43597919999957,252.43598890000067,None,,,,,,,,,,,,,,,,,00001,001,2025-11-08_16h36.47.075,MST_task,2024.2.2,60.008917324028936,2025-11-08 16h36.54.958565 +0530,
,Objects\063a.jpg,45,0,45,,,,,f,1.4843885000009323,0.10979019999649609,None,,,,,,,45,0,45,0,252.45257199999833,,,,,,,,,,,,,,,,,,,,,,,,,,,,,,252.43604720000076,252.45257199999833,252.9691927999993,252.9361248999994,,,,,,,,,,,,,,,,,,,,,,252.95163019999745,252.9691927999993,252.9691927999993,252.9691927999993,255.9525317000007,f,1.4843885000009323,0.10979019999649609,255.95257669999773,255.95258679999824,None,,,,,,,,,,,,,,,,,00001,001,2025-11-08_16h36.47.075,MST_task,2024.2.2,60.008917324028936,2025-11-08 16h36.54.958565 +0530,
,Objects\036a.jpg,46,0,46,,,,,None,,,f,0.7540439000003971,None,,,,,46,0,46,0,255.96918919999734,,,,,,,,,,,,,,,,,,,,,,,,,,,,,,255.95268249999936,255.96918919999734,256.4857893999979,256.452767499999,,,,,,,,,,,,,,,,,,,,,,256.4683593000009,256.4857893999979,256.4857893999979,256.4857893999979,259.4692384000009,None,,,259.46928470000057,260.25279659999796,f,,,,259.48574630000076,259.48574630000076,0.7540439000003971,None,,,,,,,,,,00001,001,2025-11-08_16h36.47.075,MST_task,2024.2.2,60.008917324028936,2025-11-08 16h36.54.958565 +0530,
,Objects\020a.jpg,47,0,47,,,,,None,,,f,1.030703699998412,None,,,,,47,0,47,0,260.2690537999988,,,,,,,,,,,,,,,,,,,,,,,,,,,,,,260.25288069999806,260.2690537999988,260.7856790000005,260.7526928999978,,,,,,,,,,,,,,,,,,,,,,260.7684972999996,260.7856790000005,260.7856790000005,260.7856790000005,263.76910289999796,None,,,263.7691539999978,264.81923879999886,f,,,,263.785648699999,263.785648699999,1.030703699998412,None,,,,,,,,,,00001,001,2025-11-08_16h36.47.075,MST_task,2024.2.2,60.008917324028936,2025-11-08 16h36.54.958565 +0530,
,Objects\057a.jpg,48,0,48,,,,,f,0.8945951999994577,0.12080330000026152,None,,,,,,,48,0,48,0,264.8356172999993,,,,,,,,,,,,,,,,,,,,,,,,,,,,,,264.8193509999983,264.8356172999993,265.35225060000084,265.31910309999876,,,,,,,,,,,,,,,,,,,,,,265.33556730000055,265.35225060000084,265.35225060000084,265.35225060000084,268.3355845999977,f,0.8945951999994577,0.12080330000026152,268.33562999999776,268.33564079999996,None,,,,,,,,,,,,,,,,,00001,001,2025-11-08_16h36.47.075,MST_task,2024.2.2,60.008917324028936,2025-11-08 16h36.54.958565 +0530,
,Scenes\026a.jpg,49,0,49,,,,,j,0.7977169000005233,0.14678289999937988,None,,,,,,,49,0,49,0,268.352184899999,,,,,,,,,,,,,,,,,,,,,,,,,,,,,,268.3356987999978,268.352184899999,268.88577299999815,268.83570580000014,,,,,,,,,,,,,,,,,,,,,,268.8651740999994,268.88577299999815,268.88577299999815,268.88577299999815,271.85229649999746,j,0.7977169000005233,0.14678289999937988,271.85235029999967,271.8523614000005,None,,,,,,,,,,,,,,,,,00001,001,2025-11-08_16h36.47.075,MST_task,2024.2.2,60.008917324028936,2025-11-08 16h36.54.958565 +0530,
,Scenes\177a.jpg,50,0,50,,,,,j,1.1139961000008043,0.12772839999888674,None,,,,,,,50,0,50,0,271.8688469999979,,,,,,,,,,,,,,,,,,,,,,,,,,,,,,271.8524249000002,271.8688469999979,272.38572369999747,272.35224559999915,,,,,,,,,,,,,,,,,,,,,,272.37396979999903,272.38572369999747,272.38572369999747,272.38572369999747,275.36887019999995,j,1.1139961000008043,0.12772839999888674,275.3689200000008,275.3689305000007,None,,,,,,,,,,,,,,,,,00001,001,2025-11-08_16h36.47.075,MST_task,2024.2.2,60.008917324028936,2025-11-08 16h36.54.958565 +0530,
,Scenes\169a.jpg,51,0,51,,,,,j,0.719794799999363,0.15023229999860632,None,,,,,,,51,0,51,0,275.38541319999786,,,,,,,,,,,,,,,,,,,,,,,,,,,,,,275.36898870000005,275.38541319999786,275.90202409999984,275.8689716999979,,,,,,,,,,,,,,,,,,,,,,275.88811279999936,275.90202409999984,275.90202409999984,275.90202409999984,278.8853530999986,j,0.719794799999363,0.15023229999860632,278.88540880000073,278.8854191999999,None,,,,,,,,,,,,,,,,,00001,001,2025-11-08_16h36.47.075,MST_task,2024.2.2,60.008917324028936,2025-11-08 16h36.54.958565 +0530,
,Scenes\088a.jpg,52,0,52,,,,,j,0.9259560999998939,0.12420550000024377,None,,,,,,,52,0,52,0,278.9019867999996,,,,,,,,,,,,,,,,,,,,,,,,,,,,,,278.88547859999744,278.9019867999996,,279.38545779999913,,,,,,,,,,,,,,,,,,,,,,279.41416519999984,279.43557019999935,279.43557019999935,279.43557019999935,282.3854644999992,j,0.9259560999998939,0.12420550000024377,282.3855373000006,282.3855464999979,None,,,,,,,,,,,,,,,,,00001,001,2025-11-08_16h36.47.075,MST_task,2024.2.2,60.008917324028936,2025-11-08 16h36.54.958565 +0530,
,Scenes\127a.jpg,53,0,53,,,,,j,0.9038989000000583,0.13420050000058836,None,,,,,,,53,0,53,0,282.40193329999965,,,,,,,,,,,,,,,,,,,,,,,,,,,,,,282.3856812999984,282.40193329999965,282.9355284999983,282.8854629999987,,,,,,,,,,,,,,,,,,,,,,282.9202547999994,282.9355284999983,282.9355284999983,282.9355284999983,285.9019116999989,j,0.9038989000000583,0.13420050000058836,285.90195759999915,285.9019681999998,None,,,,,,,,,,,,,,,,,00001,001,2025-11-08_16h36.47.075,MST_task,2024.2.2,60.008917324028936,2025-11-08 16h36.54.958565 +0530,
,Scenes\044a.jpg,54,0,54,,,,,None,,,j,2.0226817000002484,None,,,,,54,0,54,0,285.9185228999995,,,,,,,,,,,,,,,,,,,,,,,,,,,,,,285.90204409999933,285.9185228999995,286.43536609999865,286.40198269999746,,,,,,,,,,,,,,,,,,,,,,286.4185264000007,286.43536609999865,286.43536609999865,286.43536609999865,289.4185455000006,None,,,289.4185894000002,291.468664,j,,,,289.4350935000002,289.4350935000002,2.0226817000002484,None,,,,,,,,,,00001,001,2025-11-08_16h36.47.075,MST_task,2024.2.2,60.008917324028936,2025-11-08 16h36.54.958565 +0530,
,Scenes\133a.jpg,55,0,55,,,,,j,0.7299721000017598,0.12052739999853657,None,,,,,,,55,0,55,0,291.48500779999813,,,,,,,,,,,,,,,,,,,,,,,,,,,,,,291.4687516999984,291.48500779999813,292.00166589999935,291.9686581999995,,,,,,,,,,,,,,,,,,,,,,291.9908074999985,292.00166589999935,292.00166589999935,292.00166589999935,294.9849919999979,j,0.7299721000017598,0.12052739999853657,294.98504590000084,294.9850557999998,None,,,,,,,,,,,,,,,,,00001,001,2025-11-08_16h36.47.075,MST_task,2024.2.2,60.008917324028936,2025-11-08 16h36.54.958565 +0530,
,Objects\019a.jpg,56,0,56,,,,,f,1.1407952000008663,0.12009939999916242,None,,,,,,,56,0,56,0,295.0016343999996,,,,,,,,,,,,,,,,,,,,,,,,,,,,,,294.98513159999857,295.0016343999996,295.5185999999994,295.4850861999985,,,,,,,,,,,,,,,,,,,,,,295.5018769999988,295.5185999999994,295.5185999999994,295.5185999999994,298.5016149999974,f,1.1407952000008663,0.12009939999916242,298.50166089999766,298.501691999998,None,,,,,,,,,,,,,,,,,00001,001,2025-11-08_16h36.47.075,MST_task,2024.2.2,60.008917324028936,2025-11-08 16h36.54.958565 +0530,
,Objects\013a.jpg,57,0,57,,,,,j,1.7208164000003308,0.1283155999990413,None,,,,,,,57,0,57,0,298.5182559999994,,,,,,,,,,,,,,,,,,,,,,,,,,,,,,298.50175469999886,298.5182559999994,299.0348751999991,299.001777999998,,,,,,,,,,,,,,,,,,,,,,299.0194056,299.0348751999991,299.0348751999991,299.0348751999991,302.01821349999955,j,1.7208164000003308,0.1283155999990413,302.01825889999964,302.0182688999994,None,,,,,,,,,,,,,,,,,00001,001,2025-11-08_16h36.47.075,MST_task,2024.2.2,60.008917324028936,2025-11-08 16h36.54.958565 +0530,
,Objects\066a.jpg,58,0,58,,,,,None,,,f,0.6382862000027671,None,,,,,58,0,58,0,302.034839699998,,,,,,,,,,,,,,,,,,,,,,,,,,,,,,302.0183270999987,302.034839699998,302.55146550000063,302.51839619999737,,,,,,,,,,,,,,,,,,,,,,302.5344970999977,302.55146550000063,302.55146550000063,302.55146550000063,305.53475679999974,None,,,305.5347970999974,306.20174869999755,f,,,,305.5513726999998,305.5513726999998,0.6382862000027671,None,,,,,,,,,,00001,001,2025-11-08_16h36.47.075,MST_task,2024.2.2,60.008917324028936,2025-11-08 16h36.54.958565 +0530,
,Objects\134a.jpg,59,0,59,,,,,f,1.5033775999982026,0.10191120000308729,None,,,,,,,59,0,59,0,306.2180515,,,,,,,,,,,,,,,,,,,,,,,,,,,,,,306.201825199998,306.2180515,306.7346930999993,306.7016540000004,,,,,,,,,,,,,,,,,,,,,,306.72637399999803,306.7346930999993,306.7346930999993,306.7346930999993,309.7179971000005,f,1.5033775999982026,0.10191120000308729,309.71804319999865,309.7180535000007,None,,,,,,,,,,,,,,,,,00001,001,2025-11-08_16h36.47.075,MST_task,2024.2.2,60.008917324028936,2025-11-08 16h36.54.958565 +0530,
,Objects\141a.jpg,60,0,60,,,,,j,2.306450899999618,0.15152590000070632,None,,,,,,,60,0,60,0,309.73464709999826,,,,,,,,,,,,,,,,,,,,,,,,,,,,,,309.7181552000002,309.73464709999826,310.25129509999897,310.21819719999985,,,,,,,,,,,,,,,,,,,,,,310.23851189999914,310.25129509999897,310.25129509999897,310.25129509999897,313.2346257999998,j,2.306450899999618,0.15152590000070632,313.23467080000046,313.2346813000004,None,,,,,,,,,,,,,,,,,00001,001,2025-11-08_16h36.47.075,MST_task,2024.2.2,60.008917324028936,2025-11-08 16h36.54.958565 +0530,
,Objects\001a.jpg,61,0,61,,,,,f,1.6021178000009968,0.12638569999762694,None,,,,,,,61,0,61,0,313.25122869999905,,,,,,,,,,,,,,,,,,,,,,,,,,,,,,313.2347521999982,313.25122869999905,,313.73473509999894,,,,,,,,,,,,,,,,,,,,,,313.7502322,313.76785539999764,313.76785539999764,313.76785539999764,316.7512218999982,f,1.6021178000009968,0.12638569999762694,316.7512729000009,316.75128219999897,None,,,,,,,,,,,,,,,,,00001,001,2025-11-08_16h36.47.075,MST_task,2024.2.2,60.008917324028936,2025-11-08 16h36.54.958565 +0530,
,Objects\108a.jpg,62,0,62,,,,,j,1.1807549000004656,0.13182569999844418,None,,,,,,,62,0,62,0,316.76783839999916,,,,,,,,,,,,,,,,,,,,,,,,,,,,,,316.75134909999906,316.76783839999916,317.30126670000027,317.2512949999982,,,,,,,,,,,,,,,,,,,,,,317.28270939999857,317.30126670000027,317.30126670000027,317.30126670000027,320.2678734000001,j,1.1807549000004656,0.13182569999844418,320.26793779999934,320.26794959999825,None,,,,,,,,,,,,,,,,,00001,001,2025-11-08_16h36.47.075,MST_task,2024.2.2,60.008917324028936,2025-11-08 16h36.54.958565 +0530,
,Scenes\022a.jpg,63,0,63,,,,,j,1.0384955999979866,0.12458070000138832,None,,,,,,,63,0,63,0,320.28450299999895,,,,,,,,,,,,,,,,,,,,,,,,,,,,,,320.26804099999936,320.28450299999895,320.80141039999944,320.76795029999994,,,,,,,,,,,,,,,,,,,,,,320.7947540999994,320.80141039999944,320.80141039999944,320.80141039999944,323.7844617999981,j,1.0384955999979866,0.12458070000138832,323.78450729999895,323.78451759999734,None,,,,,,,,,,,,,,,,,00001,001,2025-11-08_16h36.47.075,MST_task,2024.2.2,60.008917324028936,2025-11-08 16h36.54.958565 +0530,
,Scenes\025a.jpg,64,0,64,,,,,j,0.9169107999987318,0.12035150000156136,None,,,,,,,64,0,64,0,323.8011173999985,,,,,,,,,,,,,,,,,,,,,,,,,,,,,,323.7846191999997,323.8011173999985,324.3346767000003,324.28457459999845,,,,,,,,,,,,,,,,,,,,,,324.3197846999974,324.3346767000003,324.3346767000003,324.3346767000003,327.3010334999999,j,0.9169107999987318,0.12035150000156136,327.3010772999987,327.3010871999977,None,,,,,,,,,,,,,,,,,00001,001,2025-11-08_16h36.47.075,MST_task,2024.2.2,60.008917324028936,2025-11-08 16h36.54.958565 +0530,
,Scenes\128a.jpg,65,0,65,,,,,j,1.7384961000025214,0.13623619999998482,None,,,,,,,65,0,65,0,327.3176855999991,,,,,,,,,,,,,,,,,,,,,,,,,,,,,,327.30114630000025,327.3176855999991,327.851253599998,327.80118129999755,,,,,,,,,,,,,,,,,,,,,,327.8380857999982,327.851253599998,327.851253599998,327.851253599998,330.81765649999943,j,1.7384961000025214,0.13623619999998482,330.8177015000001,330.81771110000045,None,,,,,,,,,,,,,,,,,00001,001,2025-11-08_16h36.47.075,MST_task,2024.2.2,60.008917324028936,2025-11-08 16h36.54.958565 +0530,
,Scenes\145a.jpg,66,0,66,,,,,j,0.7062470000018948,0.13365329999942333,None,,,,,,,66,0,66,0,330.83423889999904,,,,,,,,,,,,,,,,,,,,,,,,,,,,,,330.8177852999979,330.83423889999904,331.36755809999886,331.3177560000004,,,,,,,,,,,,,,,,,,,,,,331.35191999999734,331.36755809999886,331.36755809999886,331.36755809999886,334.33420099999785,j,0.7062470000018948,0.13365329999942333,334.33424589999777,334.3342561999998,None,,,,,,,,,,,,,,,,,00001,001,2025-11-08_16h36.47.075,MST_task,2024.2.2,60.008917324028936,2025-11-08 16h36.54.958565 +0530,
,Scenes\172a.jpg,67,0,67,,,,,j,0.9167172999987088,0.1257036999995762,None,,,,,,,67,0,67,0,334.3508368999974,,,,,,,,,,,,,,,,,,,,,,,,,,,,,,334.3343488999999,334.3508368999974,334.86749670000063,334.8344294999988,,,,,,,,,,,,,,,,,,,,,,334.8593099999998,334.86749670000063,334.86749670000063,334.86749670000063,337.85085959999924,j,0.9167172999987088,0.1257036999995762,337.8509030999994,337.8509133000007,None,,,,,,,,,,,,,,,,,00001,001,2025-11-08_16h36.47.075,MST_task,2024.2.2,60.008917324028936,2025-11-08 16h36.54.958565 +0530,
,Scenes\174a.jpg,68,0,68,,,,,j,1.6556813999995939,0.15709739999874728,None,,,,,,,68,0,68,0,337.8674190999991,,,,,,,,,,,,,,,,,,,,,,,,,,,,,,337.8509854999975,337.8674190999991,338.4007636999995,338.3509417999994,,,,,,,,,,,,,,,,,,,,,,338.3855134000005,338.4007636999995,338.4007636999995,338.4007636999995,341.3675785999985,j,1.6556813999995939,0.15709739999874728,341.3676560999993,341.36766779999743,None,,,,,,,,,,,,,,,,,00001,001,2025-11-08_16h36.47.075,MST_task,2024.2.2,60.008917324028936,2025-11-08 16h36.54.958565 +0530,
,Scenes\039a.jpg,69,0,69,,,,,j,0.8592078000001493,0.12188329999844427,None,,,,,,,69,0,69,0,341.3840823999999,,,,,,,,,,,,,,,,,,,,,,,,,,,,,,341.36773249999897,341.3840823999999,341.9007223999979,341.8676510999976,,,,,,,,,,,,,,,,,,,,,,341.88971669999955,341.9007223999979,341.9007223999979,341.9007223999979,344.88397509999777,j,0.8592078000001493,0.12188329999844427,344.8840237999975,344.8840335999994,None,,,,,,,,,,,,,,,,,00001,001,2025-11-08_16h36.47.075,MST_task,2024.2.2,60.008917324028936,2025-11-08 16h36.54.958565 +0530,
,Objects\077a.jpg,70,0,70,,,,,j,0.9719236999990244,0.13396039999861387,None,,,,,,,70,0,70,0,344.9006625000002,,,,,,,,,,,,,,,,,,,,,,,,,,,,,,344.88412219999736,344.9006625000002,,345.38408929999787,,,,,,,,,,,,,,,,,,,,,,345.3998021999978,345.4175824999984,345.4175824999984,345.4175824999984,348.40058789999966,j,0.9719236999990244,0.13396039999861387,348.40063720000035,348.4006463000005,None,,,,,,,,,,,,,,,,,00001,001,2025-11-08_16h36.47.075,MST_task,2024.2.2,60.008917324028936,2025-11-08 16h36.54.958565 +0530,
,Objects\140a.jpg,71,0,71,,,,,f,2.4683211999981722,0.14131719999932102,None,,,,,,,71,0,71,0,348.4172168999976,,,,,,,,,,,,,,,,,,,,,,,,,,,,,,348.40074449999884,348.4172168999976,348.9338523000006,348.9007034999995,,,,,,,,,,,,,,,,,,,,,,348.92607959999805,348.9338523000006,348.9338523000006,348.9338523000006,351.91733029999887,f,2.4683211999981722,0.14131719999932102,351.9173841999982,351.9173947999989,None,,,,,,,,,,,,,,,,,00001,001,2025-11-08_16h36.47.075,MST_task,2024.2.2,60.008917324028936,2025-11-08 16h36.54.958565 +0530,
,Objects\004a.jpg,72,0,72,,,,,None,,,f,0.36362480000025243,None,,,,,72,0,72,0,351.93377979999786,,,,,,,,,,,,,,,,,,,,,,,,,,,,,,351.9174529999982,351.93377979999786,352.45048060000045,352.4174024999993,,,,,,,,,,,,,,,,,,,,,,352.4333431999985,352.45048060000045,352.45048060000045,352.45048060000045,355.4337329000009,None,,,355.43377429999964,355.81742369999847,f,,,,355.45039929999984,355.45039929999984,0.36362480000025243,None,,,,,,,,,,00001,001,2025-11-08_16h36.47.075,MST_task,2024.2.2,60.008917324028936,2025-11-08 16h36.54.958565 +0530,
,Objects\146a.jpg,73,0,73,,,,,j,1.1339340999984415,0.12758970000140835,None,,,,,,,73,0,73,0,355.8336950999983,,,,,,,,,,,,,,,,,,,,,,,,,,,,,,355.8175010999985,355.8336950999983,356.3503505999979,356.31726999999955,,,,,,,,,,,,,,,,,,,,,,356.3433165999995,356.3503505999979,356.3503505999979,356.3503505999979,359.3337126000006,j,1.1339340999984415,0.12758970000140835,359.3337571999982,359.33376789999966,None,,,,,,,,,,,,,,,,,00001,001,2025-11-08_16h36.47.075,MST_task,2024.2.2,60.008917324028936,2025-11-08 16h36.54.958565 +0530,
,Objects\055a.jpg,74,0,74,,,,,f,1.2192644999995537,0.1174737000001187,None,,,,,,,74,0,74,0,359.350344399998,,,,,,,,,,,,,,,,,,,,,,,,,,,,,,359.33384189999924,359.350344399998,359.8669979999977,359.8338098999993,,,,,,,,,,,,,,,,,,,,,,359.8494398999974,359.8669979999977,359.8669979999977,359.8669979999977,362.85025060000044,f,1.2192644999995537,0.1174737000001187,362.8502962999992,362.85030709999774,None,,,,,,,,,,,,,,,,,00001,001,2025-11-08_16h36.47.075,MST_task,2024.2.2,60.008917324028936,2025-11-08 16h36.54.958565 +0530,
,Objects\158a.jpg,75,0,75,,,,,f,2.9259954000008292,None,None,,,,,,,75,0,75,0,362.86692760000005,,,,,,,,,,,,,,,,,,,,,,,,,,,,,,362.8503806000008,362.86692760000005,363.4001255999974,363.3504537000008,,,,,,,,,,,,,,,,,,,,,,363.3832332999991,363.4001255999974,363.4001255999974,363.4001255999974,366.3667910000004,f,2.9259954000008292,None,366.3668500999993,366.36686069999996,None,,,,,,,,,,,,,,,,,00001,001,2025-11-08_16h36.47.075,MST_task,2024.2.2,60.008917324028936,2025-11-08 16h36.54.958565 +0530,
,Objects\161a.jpg,76,0,76,,,,,j,2.024187900002289,0.13948059999893303,None,,,,,,,76,0,76,0,366.3833983000004,,,,,,,,,,,,,,,,,,,,,,,,,,,,,,366.36693979999836,366.3833983000004,366.9000243999981,366.8668753999991,,,,,,,,,,,,,,,,,,,,,,366.89343799999915,366.9000243999981,366.9000243999981,366.9000243999981,369.88336999999956,j,2.024187900002289,0.13948059999893303,369.88341579999906,369.8834265000005,None,,,,,,,,,,,,,,,,,00001,001,2025-11-08_16h36.47.075,MST_task,2024.2.2,60.008917324028936,2025-11-08 16h36.54.958565 +0530,
,Scenes\104a.jpg,77,0,77,,,,,j,1.3351867999990645,0.11975239999810583,None,,,,,,,77,0,77,0,369.89996840000094,,,,,,,,,,,,,,,,,,,,,,,,,,,,,,369.8834870999999,369.89996840000094,370.4168012000009,370.3834752999974,,,,,,,,,,,,,,,,,,,,,,370.40906689999974,370.4168012000009,370.4168012000009,370.4168012000009,373.3999785999986,j,1.3351867999990645,0.11975239999810583,373.4000223999974,373.40003219999926,None,,,,,,,,,,,,,,,,,00001,001,2025-11-08_16h36.47.075,MST_task,2024.2.2,60.008917324028936,2025-11-08 16h36.54.958565 +0530,
,Scenes\186a.jpg,78,0,78,,,,,j,1.205234000000928,0.11640799999804585,None,,,,,,,78,0,78,0,373.4165788999999,,,,,,,,,,,,,,,,,,,,,,,,,,,,,,373.4001093000006,373.4165788999999,373.9501219999984,373.9000737999995,,,,,,,,,,,,,,,,,,,,,,373.92953040000066,373.9501219999984,373.9501219999984,373.9501219999984,376.9165675999975,j,1.205234000000928,0.11640799999804585,376.9166174999991,376.9166273999981,None,,,,,,,,,,,,,,,,,00001,001,2025-11-08_16h36.47.075,MST_task,2024.2.2,60.008917324028936,2025-11-08 16h36.54.958565 +0530,
,Scenes\013a.jpg,79,0,79,,,,,j,1.0632270999994944,0.12035810000088532,None,,,,,,,79,0,79,0,376.93317019999813,,,,,,,,,,,,,,,,,,,,,,,,,,,,,,376.91668619999837,376.93317019999813,377.46654019999914,377.4164987000004,,,,,,,,,,,,,,,,,,,,,,377.4459496999989,377.46654019999914,377.46654019999914,377.46654019999914,380.4168012000009,j,1.0632270999994944,0.12035810000088532,380.4168485000009,380.41685900000084,None,,,,,,,,,,,,,,,,,00001,001,2025-11-08_16h36.47.075,MST_task,2024.2.2,60.008917324028936,2025-11-08 16h36.54.958565 +0530,
,Scenes\116a.jpg,80,0,80,,,,,j,1.0659311999988859,0.1382731000012427,None,,,,,,,80,0,80,0,380.43305619999956,,,,,,,,,,,,,,,,,,,,,,,,,,,,,,380.41693379999924,380.43305619999956,380.9497138000006,380.91662859999997,,,,,,,,,,,,,,,,,,,,,,380.94295019999845,380.9497138000006,380.9497138000006,380.9497138000006,383.9330416999983,j,1.0659311999988859,0.1382731000012427,383.93310559999736,383.9331161000009,None,,,,,,,,,,,,,,,,,00001,001,2025-11-08_16h36.47.075,MST_task,2024.2.2,60.008917324028936,2025-11-08 16h36.54.958565 +0530,
,Scenes\034a.jpg,81,0,81,,,,,None,,,j,0.5779512999979488,None,,,,,81,0,81,0,383.9496908000001,,,,,,,,,,,,,,,,,,,,,,,,,,,,,,383.93319899999915,383.9496908000001,384.4832098000006,384.43324329999814,,,,,,,,,,,,,,,,,,,,,,384.4717639999981,384.4832098000006,384.4832098000006,384.4832098000006,387.4496354999974,None,,,387.4496762999988,388.0499177999991,j,,,,387.46627389999776,387.46627389999776,0.5779512999979488,None,,,,,,,,,,00001,001,2025-11-08_16h36.47.075,MST_task,2024.2.2,60.008917324028936,2025-11-08 16h36.54.958565 +0530,
,Scenes\063a.jpg,82,0,82,,,,,j,1.0628036000016436,0.11813499999698251,None,,,,,,,82,0,82,0,388.0662687999975,,,,,,,,,,,,,,,,,,,,,,,,,,,,,,388.0500178000002,388.0662687999975,388.58293819999744,388.54978649999975,,,,,,,,,,,,,,,,,,,,,,388.5754175000002,388.58293819999744,388.58293819999744,388.58293819999744,391.5662013000001,j,1.0628036000016436,0.11813499999698251,391.5662661999995,391.56627899999876,None,,,,,,,,,,,,,,,,,00001,001,2025-11-08_16h36.47.075,MST_task,2024.2.2,60.008917324028936,2025-11-08 16h36.54.958565 +0530,
,Scenes\005a.jpg,83,0,83,,,,,None,,,f,0.10621270000046934,None,,,,,83,0,83,0,391.5828483999976,,,,,,,,,,,,,,,,,,,,,,,,,,,,,,391.5663683999992,391.5828483999976,392.0994759999994,392.06644439999945,,,,,,,,,,,,,,,,,,,,,,392.0901601000005,392.0994759999994,392.0994759999994,392.0994759999994,395.0828325000002,None,,,395.08288659999744,395.21637399999963,f,,,,395.0994713,395.0994713,0.10621270000046934,None,,,,,,,,,,00001,001,2025-11-08_16h36.47.075,MST_task,2024.2.2,60.008917324028936,2025-11-08 16h36.54.958565 +0530,
,Objects\109a.jpg,84,0,84,,,,,f,0.9854887000001327,0.12382439999782946,None,,,,,,,84,0,84,0,395.23277139999846,,,,,,,,,,,,,,,,,,,,,,,,,,,,,,395.21644709999964,395.23277139999846,395.76644959999976,395.71628620000047,,,,,,,,,,,,,,,,,,,,,,395.74819019999995,395.76644959999976,395.76644959999976,395.76644959999976,398.73274989999845,f,0.9854887000001327,0.12382439999782946,398.73280819999854,398.7328185000006,None,,,,,,,,,,,,,,,,,00001,001,2025-11-08_16h36.47.075,MST_task,2024.2.2,60.008917324028936,2025-11-08 16h36.54.958565 +0530,
,Objects\070a.jpg,85,0,85,,,,,f,0.6133436000018264,0.1084950000004028,None,,,,,,,85,0,85,0,398.74932759999865,,,,,,,,,,,,,,,,,,,,,,,,,,,,,,398.7328963,398.74932759999865,399.2660976999978,399.23283359999914,,,,,,,,,,,,,,,,,,,,,,399.2495115999991,399.2660976999978,399.2660976999978,399.2660976999978,402.24940720000086,f,0.6133436000018264,0.1084950000004028,402.24947969999994,402.24949019999985,None,,,,,,,,,,,,,,,,,00001,001,2025-11-08_16h36.47.075,MST_task,2024.2.2,60.008917324028936,2025-11-08 16h36.54.958565 +0530,
,Objects\069a.jpg,86,0,86,,,,,j,0.6055899000020872,0.08134689999860711,None,,,,,,,86,0,86,0,402.26591199999893,,,,,,,,,,,,,,,,,,,,,,,,,,,,,,402.24954929999876,402.26591199999893,402.78259740000067,402.74940349999815,,,,,,,,,,,,,,,,,,,,,,402.7658217999997,402.78259740000067,402.78259740000067,402.78259740000067,405.7659155000001,j,0.6055899000020872,0.08134689999860711,405.7659605000008,405.76597069999843,None,,,,,,,,,,,,,,,,,00001,001,2025-11-08_16h36.47.075,MST_task,2024.2.2,60.008917324028936,2025-11-08 16h36.54.958565 +0530,
,Objects\154a.jpg,87,0,87,,,,,f,0.9591304000023229,0.12013039999874309,None,,,,,,,87,0,87,0,405.78254190000007,,,,,,,,,,,,,,,,,,,,,,,,,,,,,,405.7660520999998,405.78254190000007,406.29879169999913,406.26613200000065,,,,,,,,,,,,,,,,,,,,,,406.29529980000007,406.29879169999913,406.29879169999913,406.29879169999913,409.28249940000023,f,0.9591304000023229,0.12013039999874309,409.28256789999796,409.2825783999979,None,,,,,,,,,,,,,,,,,00001,001,2025-11-08_16h36.47.075,MST_task,2024.2.2,60.008917324028936,2025-11-08 16h36.54.958565 +0530,
,Objects\030a.jpg,88,0,88,,,,,f,1.3236952000006568,0.11193859999912092,None,,,,,,,88,0,88,0,409.2991531000007,,,,,,,,,,,,,,,,,,,,,,,,,,,,,,409.2826623000001,409.2991531000007,409.81578479999735,409.7826750999993,,,,,,,,,,,,,,,,,,,,,,409.79795229999945,409.81578479999735,409.81578479999735,409.81578479999735,412.79908579999756,f,1.3236952000006568,0.11193859999912092,412.7991327999989,412.7991430000002,None,,,,,,,,,,,,,,,,,00001,001,2025-11-08_16h36.47.075,MST_task,2024.2.2,60.008917324028936,2025-11-08 16h36.54.958565 +0530,
,Objects\179a.jpg,89,0,89,,,,,f,1.7296024999996007,0.1122629000019515,None,,,,,,,89,0,89,0,412.8157241000008,,,,,,,,,,,,,,,,,,,,,,,,,,,,,,412.79921919999833,412.8157241000008,413.33238469999924,413.2993064000002,,,,,,,,,,,,,,,,,,,,,,413.32844529999784,413.33238469999924,413.33238469999924,413.33238469999924,416.3157018999991,f,1.7296024999996007,0.1122629000019515,416.3157489999976,416.31575969999903,None,,,,,,,,,,,,,,,,,00001,001,2025-11-08_16h36.47.075,MST_task,2024.2.2,60.008917324028936,2025-11-08 16h36.54.958565 +0530,
,Objects\039a.jpg,90,0,90,,,,,j,1.5227154000021983,0.07655610000074375,None,,,,,,,90,0,90,0,416.33231089999754,,,,,,,,,,,,,,,,,,,,,,,,,,,,,,416.31584060000023,416.33231089999754,416.84896989999834,416.8159323,,,,,,,,,,,,,,,,,,,,,,416.8314566000008,416.84896989999834,416.84896989999834,416.84896989999834,419.8322761999989,j,1.5227154000021983,0.07655610000074375,419.8323272999987,419.83234009999796,None,,,,,,,,,,,,,,,,,00001,001,2025-11-08_16h36.47.075,MST_task,2024.2.2,60.008917324028936,2025-11-08 16h36.54.958565 +0530,
,Scenes\075a.jpg,91,0,91,,,,,j,1.1476142999999865,0.11775359999955981,None,,,,,,,91,0,91,0,419.8489233,,,,,,,,,,,,,,,,,,,,,,,,,,,,,,419.83244379999815,419.8489233,,420.3324216000001,,,,,,,,,,,,,,,,,,,,,,420.3619918999975,420.38221559999874,420.38221559999874,420.38221559999874,423.34896749999825,j,1.1476142999999865,0.11775359999955981,423.34904129999995,423.3490509999974,None,,,,,,,,,,,,,,,,,00001,001,2025-11-08_16h36.47.075,MST_task,2024.2.2,60.008917324028936,2025-11-08 16h36.54.958565 +0530,
,Scenes\042a.jpg,92,0,92,,,,,j,1.1076643999986118,0.12021459999959916,None,,,,,,,92,0,92,0,423.36549620000005,,,,,,,,,,,,,,,,,,,,,,,,,,,,,,423.3491372999997,423.36549620000005,423.88211500000034,423.8489785999991,,,,,,,,,,,,,,,,,,,,,,423.87307729999884,423.88211500000034,423.88211500000034,423.88211500000034,426.8654368999996,j,1.1076643999986118,0.12021459999959916,426.8654953999976,426.86550569999963,None,,,,,,,,,,,,,,,,,00001,001,2025-11-08_16h36.47.075,MST_task,2024.2.2,60.008917324028936,2025-11-08 16h36.54.958565 +0530,
,Scenes\068a.jpg,93,0,93,,,,,j,0.6472976999975799,0.0965174000011757,None,,,,,,,93,0,93,0,426.8820816999978,,,,,,,,,,,,,,,,,,,,,,,,,,,,,,426.8655684999976,426.8820816999978,,427.3655890000009,,,,,,,,,,,,,,,,,,,,,,427.3919738000004,427.3985799000002,427.3985799000002,427.3985799000002,430.3820577000006,j,0.6472976999975799,0.0965174000011757,430.3821029999999,430.3821117000007,None,,,,,,,,,,,,,,,,,00001,001,2025-11-08_16h36.47.075,MST_task,2024.2.2,60.008917324028936,2025-11-08 16h36.54.958565 +0530,
,Scenes\185a.jpg,94,0,94,,,,,j,0.7625422999990406,0.09993399999802932,None,,,,,,,94,0,94,0,430.3985422000005,,,,,,,,,,,,,,,,,,,,,,,,,,,,,,430.38218770000094,430.3985422000005,430.91555569999764,430.88219169999866,,,,,,,,,,,,,,,,,,,,,,430.9085649000008,430.91555569999764,430.91555569999764,430.91555569999764,433.89875179999945,j,0.7625422999990406,0.09993399999802932,433.89880469999844,433.8988160000008,None,,,,,,,,,,,,,,,,,00001,001,2025-11-08_16h36.47.075,MST_task,2024.2.2,60.008917324028936,2025-11-08 16h36.54.958565 +0530,
,Scenes\031a.jpg,95,0,95,,,,,f,2.23838650000107,0.11572159999923315,None,,,,,,,95,0,95,0,433.91521889999785,,,,,,,,,,,,,,,,,,,,,,,,,,,,,,433.89887699999963,433.91521889999785,434.43193600000086,434.39892699999837,,,,,,,,,,,,,,,,,,,,,,434.41940469999827,434.43193600000086,434.43193600000086,434.43193600000086,437.41523569999845,f,2.23838650000107,0.11572159999923315,437.41528109999854,437.4152906999989,None,,,,,,,,,,,,,,,,,00001,001,2025-11-08_16h36.47.075,MST_task,2024.2.2,60.008917324028936,2025-11-08 16h36.54.958565 +0530,
,Scenes\156a.jpg,96,0,96,,,,,j,1.1130969999976514,0.10848140000234707,None,,,,,,,96,0,96,0,437.43184589999873,,,,,,,,,,,,,,,,,,,,,,,,,,,,,,437.4153645000006,437.43184589999873,,437.9153355999988,,,,,,,,,,,,,,,,,,,,,,437.9324186999984,437.94847169999775,437.94847169999775,437.94847169999775,440.9319484999978,j,1.1130969999976514,0.10848140000234707,440.9320239999979,440.93203340000036,None,,,,,,,,,,,,,,,,,00001,001,2025-11-08_16h36.47.075,MST_task,2024.2.2,60.008917324028936,2025-11-08 16h36.54.958565 +0530,
,Scenes\134a.jpg,97,0,97,,,,,j,0.7803246000003128,0.0849512999993749,None,,,,,,,97,0,97,0,440.9485012999976,,,,,,,,,,,,,,,,,,,,,,,,,,,,,,440.9321256999974,440.9485012999976,441.48172949999935,441.43195999999807,,,,,,,,,,,,,,,,,,,,,,441.46717440000066,441.48172949999935,441.48172949999935,441.48172949999935,444.4484909999992,j,0.7803246000003128,0.0849512999993749,444.44856620000064,444.44857989999946,None,,,,,,,,,,,,,,,,,00001,001,2025-11-08_16h36.47.075,MST_task,2024.2.2,60.008917324028936,2025-11-08 16h36.54.958565 +0530,
,Objects\037a.jpg,98,0,98,,,,,f,0.5841696000024967,0.12998699999661767,None,,,,,,,98,0,98,0,444.4650268999976,,,,,,,,,,,,,,,,,,,,,,,,,,,,,,444.44866059999913,444.4650268999976,444.98190199999954,444.9486040999982,,,,,,,,,,,,,,,,,,,,,,444.96502979999786,444.98190199999954,444.98190199999954,444.98190199999954,447.9650185999999,f,0.5841696000024967,0.12998699999661767,447.9650655999976,447.96507669999846,None,,,,,,,,,,,,,,,,,00001,001,2025-11-08_16h36.47.075,MST_task,2024.2.2,60.008917324028936,2025-11-08 16h36.54.958565 +0530,
,Objects\090a.jpg,99,0,99,,,,,None,,,j,1.1379127000000153,None,,,,,99,0,99,0,447.98162039999806,,,,,,,,,,,,,,,,,,,,,,,,,,,,,,447.9651524000001,447.98162039999806,448.49824179999996,448.4651015999989,,,,,,,,,,,,,,,,,,,,,,448.4813032999991,448.49824179999996,448.49824179999996,448.49824179999996,451.48156630000085,None,,,451.481625299999,452.6485704000006,j,,,,451.4981799999987,451.4981799999987,1.1379127000000153,None,,,,,,,,,,00001,001,2025-11-08_16h36.47.075,MST_task,2024.2.2,60.008917324028936,2025-11-08 16h36.54.958565 +0530,
,Objects\084a.jpg,100,0,100,,,,,f,0.9220077999998466,0.12290550000034273,None,,,,,,,100,0,100,0,452.66485359999933,,,,,,,,,,,,,,,,,,,,,,,,,,,,,,452.6486530000002,452.66485359999933,453.1814721999981,453.1484281999983,,,,,,,,,,,,,,,,,,,,,,453.1669929999989,453.1814721999981,453.1814721999981,453.1814721999981,456.1648721999991,f,0.9220077999998466,0.12290550000034273,456.1649290999994,456.16494319999765,None,,,,,,,,,,,,,,,,,00001,001,2025-11-08_16h36.47.075,MST_task,2024.2.2,60.008917324028936,2025-11-08 16h36.54.958565 +0530,
,Objects\024a.jpg,101,0,101,,,,,f,0.6042297999993025,0.12116619999869727,None,,,,,,,101,0,101,0,456.1815002999974,,,,,,,,,,,,,,,,,,,,,,,,,,,,,,456.1650214000001,456.1815002999974,456.6980537999989,456.66497289999825,,,,,,,,,,,,,,,,,,,,,,456.6822441999975,456.6980537999989,456.6980537999989,456.6980537999989,459.6813880000009,f,0.6042297999993025,0.12116619999869727,459.6814334999981,459.68144459999894,None,,,,,,,,,,,,,,,,,00001,001,2025-11-08_16h36.47.075,MST_task,2024.2.2,60.008917324028936,2025-11-08 16h36.54.958565 +0530,
,Objects\044a.jpg,102,0,102,,,,,f,1.1749468999987585,0.11631010000201059,None,,,,,,,102,0,102,0,459.6980270999993,,,,,,,,,,,,,,,,,,,,,,,,,,,,,,459.6815242999983,459.6980270999993,460.21464750000086,460.1815886999975,,,,,,,,,,,,,,,,,,,,,,460.19737449999957,460.21464750000086,460.21464750000086,460.21464750000086,463.1980115999977,f,1.1749468999987585,0.11631010000201059,463.1980567999999,463.19806679999965,None,,,,,,,,,,,,,,,,,00001,001,2025-11-08_16h36.47.075,MST_task,2024.2.2,60.008917324028936,2025-11-08 16h36.54.958565 +0530,
,Objects\091a.jpg,103,0,103,,,,,j,1.76703649999763,0.11181860000215238,None,,,,,,,103,0,103,0,463.21463779999976,,,,,,,,,,,,,,,,,,,,,,,,,,,,,,463.198124999999,463.21463779999976,463.73126919999777,463.6981096999989,,,,,,,,,,,,,,,,,,,,,,463.7139944999981,463.73126919999777,463.73126919999777,463.73126919999777,466.7145935999979,j,1.76703649999763,0.11181860000215238,466.7146388000001,466.7146494999979,None,,,,,,,,,,,,,,,,,00001,001,2025-11-08_16h36.47.075,MST_task,2024.2.2,60.008917324028936,2025-11-08 16h36.54.958565 +0530,
,Objects\165a.jpg,104,0,104,,,,,f,0.7030966999991506,0.15253049999955692,None,,,,,,,104,0,104,0,466.73120310000013,,,,,,,,,,,,,,,,,,,,,,,,,,,,,,466.7147258999976,466.73120310000013,467.2478286000005,467.2146911999989,,,,,,,,,,,,,,,,,,,,,,467.24275399999897,467.2478286000005,467.2478286000005,467.2478286000005,470.23119120000047,f,0.7030966999991506,0.15253049999955692,470.2312359999996,470.2312458999986,None,,,,,,,,,,,,,,,,,00001,001,2025-11-08_16h36.47.075,MST_task,2024.2.2,60.008917324028936,2025-11-08 16h36.54.958565 +0530,
,Scenes\182a.jpg,105,0,105,,,,,j,0.7309232000006887,0.11095299999942654,None,,,,,,,105,0,105,0,470.24778660000084,,,,,,,,,,,,,,,,,,,,,,,,,,,,,,470.2313193000009,470.24778660000084,470.7644537999986,470.7313529999992,,,,,,,,,,,,,,,,,,,,,,470.75115079999887,470.7644537999986,470.7644537999986,470.7644537999986,473.7477669,j,0.7309232000006887,0.11095299999942654,473.74781319999965,473.74782330000016,None,,,,,,,,,,,,,,,,,00001,001,2025-11-08_16h36.47.075,MST_task,2024.2.2,60.008917324028936,2025-11-08 16h36.54.958565 +0530,
,Scenes\168a.jpg,106,0,106,,,,,j,0.747737199999392,0.09181010000247625,None,,,,,,,106,0,106,0,473.7644017999992,,,,,,,,,,,,,,,,,,,,,,,,,,,,,,473.7478816999974,473.7644017999992,474.2978371999998,474.2479545999995,,,,,,,,,,,,,,,,,,,,,,474.2757598999997,474.2978371999998,474.2978371999998,474.2978371999998,477.26437179999994,j,0.747737199999392,0.09181010000247625,477.2644236999986,477.2644373000003,None,,,,,,,,,,,,,,,,,00001,001,2025-11-08_16h36.47.075,MST_task,2024.2.2,60.008917324028936,2025-11-08 16h36.54.958565 +0530,
,Scenes\043a.jpg,107,0,107,,,,,j,0.9090610000021115,0.11852779999753693,None,,,,,,,107,0,107,0,477.2809586000003,,,,,,,,,,,,,,,,,,,,,,,,,,,,,,477.26449689999936,477.2809586000003,477.8142994000009,477.7644330000003,,,,,,,,,,,,,,,,,,,,,,477.7975716000001,477.8142994000009,477.8142994000009,477.8142994000009,480.78096189999997,j,0.9090610000021115,0.11852779999753693,480.7810133999992,480.78102339999896,None,,,,,,,,,,,,,,,,,00001,001,2025-11-08_16h36.47.075,MST_task,2024.2.2,60.008917324028936,2025-11-08 16h36.54.958565 +0530,
,Scenes\173a.jpg,108,0,108,,,,,j,0.6914169999981823,0.11977810000098543,None,,,,,,,108,0,108,0,480.79756089999864,,,,,,,,,,,,,,,,,,,,,,,,,,,,,,480.78110319999905,480.79756089999864,481.33089619999737,481.2810836999997,,,,,,,,,,,,,,,,,,,,,,481.30919879999783,481.33089619999737,481.33089619999737,481.33089619999737,484.2975081000004,j,0.6914169999981823,0.11977810000098543,484.29756319999797,484.2975736999979,None,,,,,,,,,,,,,,,,,00001,001,2025-11-08_16h36.47.075,MST_task,2024.2.2,60.008917324028936,2025-11-08 16h36.54.958565 +0530,
,Scenes\028a.jpg,109,0,109,,,,,j,0.7530550999981642,0.11347029999888036,None,,,,,,,109,0,109,0,484.3141504999985,,,,,,,,,,,,,,,,,,,,,,,,,,,,,,484.2976345999996,484.3141504999985,484.83083799999804,484.7976467999979,,,,,,,,,,,,,,,,,,,,,,484.8213484000007,484.83083799999804,484.83083799999804,484.83083799999804,487.81408010000087,j,0.7530550999981642,0.11347029999888036,487.8141379999979,487.81415019999986,None,,,,,,,,,,,,,,,,,00001,001,2025-11-08_16h36.47.075,MST_task,2024.2.2,60.008917324028936,2025-11-08 16h36.54.958565 +0530,
,Scenes\090a.jpg,110,0,110,,,,,j,1.510267699999531,0.129070100003446,None,,,,,,,110,0,110,0,487.8307409000008,,,,,,,,,,,,,,,,,,,,,,,,,,,,,,487.8142259999986,487.8307409000008,,488.314233699999,,,,,,,,,,,,,,,,,,,,,,488.34923139999955,488.3640689999993,488.3640689999993,488.3640689999993,491.3306706999974,j,1.510267699999531,0.129070100003446,491.3307139999997,491.3307223999982,None,,,,,,,,,,,,,,,,,00001,001,2025-11-08_16h36.47.075,MST_task,2024.2.2,60.008917324028936,2025-11-08 16h36.54.958565 +0530,
,Scenes\058a.jpg,111,0,111,,,,,f,1.1297908000015013,0.1304603999997198,None,,,,,,,111,0,111,0,491.3473393999993,,,,,,,,,,,,,,,,,,,,,,,,,,,,,,491.33079609999913,491.3473393999993,491.8639550000007,491.83090639999864,,,,,,,,,,,,,,,,,,,,,,491.8569654999992,491.8639550000007,491.8639550000007,491.8639550000007,494.84727369999746,f,1.1297908000015013,0.1304603999997198,494.8473344999984,494.84734489999755,None,,,,,,,,,,,,,,,,,00001,001,2025-11-08_16h36.47.075,MST_task,2024.2.2,60.008917324028936,2025-11-08 16h36.54.958565 +0530,
,Objects\061a.jpg,112,0,112,,,,,j,1.8705257999972673,0.11551040000267676,None,,,,,,,112,0,112,0,494.8639065999996,,,,,,,,,,,,,,,,,,,,,,,,,,,,,,494.8474266999983,494.8639065999996,495.38088389999757,495.3474649999989,,,,,,,,,,,,,,,,,,,,,,495.3632335000002,495.38088389999757,495.38088389999757,495.38088389999757,498.3638508999975,j,1.8705257999972673,0.11551040000267676,498.3638934999981,498.3639034000007,None,,,,,,,,,,,,,,,,,00001,001,2025-11-08_16h36.47.075,MST_task,2024.2.2,60.008917324028936,2025-11-08 16h36.54.958565 +0530,
,Objects\177a.jpg,113,0,113,,,,,j,1.3269164000012097,0.10177769999791053,None,,,,,,,113,0,113,0,498.3805205999997,,,,,,,,,,,,,,,,,,,,,,,,,,,,,,498.363977099998,498.3805205999997,,498.86401660000047,,,,,,,,,,,,,,,,,,,,,,498.8864111999974,498.8971297999997,498.8971297999997,498.8971297999997,501.8804726999988,j,1.3269164000012097,0.10177769999791053,501.8805303000008,501.88053939999736,None,,,,,,,,,,,,,,,,,00001,001,2025-11-08_16h36.47.075,MST_task,2024.2.2,60.008917324028936,2025-11-08 16h36.54.958565 +0530,
,Objects\137a.jpg,114,0,114,,,,,f,1.1101164000028803,0.12989509999897564,None,,,,,,,114,0,114,0,501.89713239999764,,,,,,,,,,,,,,,,,,,,,,,,,,,,,,501.88062109999737,501.89713239999764,502.4137219000004,502.38057189999745,,,,,,,,,,,,,,,,,,,,,,502.40870079999877,502.4137219000004,502.4137219000004,502.4137219000004,505.39718580000044,f,1.1101164000028803,0.12989509999897564,505.3972341000008,505.3972446999978,None,,,,,,,,,,,,,,,,,00001,001,2025-11-08_16h36.47.075,MST_task,2024.2.2,60.008917324028936,2025-11-08 16h36.54.958565 +0530,
,Objects\170a.jpg,115,0,115,,,,,f,1.5332022000002326,0.11982220000209054,None,,,,,,,115,0,115,0,505.41374820000055,,,,,,,,,,,,,,,,,,,,,,,,,,,,,,505.3973182000009,505.41374820000055,505.93046680000043,505.8973006999986,,,,,,,,,,,,,,,,,,,,,,505.91940690000047,505.93046680000043,505.93046680000043,505.93046680000043,508.91364669999894,f,1.5332022000002326,0.11982220000209054,508.91370259999894,508.9137121999993,None,,,,,,,,,,,,,,,,,00001,001,2025-11-08_16h36.47.075,MST_task,2024.2.2,60.008917324028936,2025-11-08 16h36.54.958565 +0530,
,Objects\029a.jpg,116,0,116,,,,,f,0.8505269999986922,0.14488899999923888,None,,,,,,,116,0,116,0,508.9302432000004,,,,,,,,,,,,,,,,,,,,,,,,,,,,,,508.9137797000003,508.9302432000004,509.4469069000006,509.4138478999994,,,,,,,,,,,,,,,,,,,,,,509.4306398000008,509.4469069000006,509.4469069000006,509.4469069000006,512.4302320999996,f,0.8505269999986922,0.14488899999923888,512.4302968999982,512.4303070999995,None,,,,,,,,,,,,,,,,,00001,001,2025-11-08_16h36.47.075,MST_task,2024.2.2,60.008917324028936,2025-11-08 16h36.54.958565 +0530,
,Objects\114a.jpg,117,0,117,,,,,f,0.7297613999980967,0.11591880000196397,None,,,,,,,117,0,117,0,512.4468715999974,,,,,,,,,,,,,,,,,,,,,,,,,,,,,,512.4303894000004,512.4468715999974,512.9801998000003,512.9304221999992,,,,,,,,,,,,,,,,,,,,,,512.9624081000002,512.9801998000003,512.9801998000003,512.9801998000003,515.946836799998,f,0.7297613999980967,0.11591880000196397,515.9468817999987,515.9468922999986,None,,,,,,,,,,,,,,,,,00001,001,2025-11-08_16h36.47.075,MST_task,2024.2.2,60.008917324028936,2025-11-08 16h36.54.958565 +0530,
,Objects\056a.jpg,118,0,118,,,,,f,2.6056752000004053,0.1255870999993931,None,,,,,,,118,0,118,0,515.963456999998,,,,,,,,,,,,,,,,,,,,,,,,,,,,,,515.9469487999995,515.963456999998,516.4800856000002,516.4470497999973,,,,,,,,,,,,,,,,,,,,,,516.4653858999991,516.4800856000002,516.4800856000002,516.4800856000002,519.4634456999993,f,2.6056752000004053,0.1255870999993931,519.4634927999978,519.4635027999975,None,,,,,,,,,,,,,,,,,00001,001,2025-11-08_16h36.47.075,MST_task,2024.2.2,60.008917324028936,2025-11-08 16h36.54.958565 +0530,
,Scenes\079a.jpg,119,0,119,,,,,j,0.697475700002542,0.0825327999991714,None,,,,,,,119,0,119,0,519.4800579000002,,,,,,,,,,,,,,,,,,,,,,,,,,,,,,519.4635596000007,519.4800579000002,520.0137369000004,519.9635271999978,,,,,,,,,,,,,,,,,,,,,,519.9964935999997,520.0137369000004,520.0137369000004,520.0137369000004,522.9800290999992,j,0.697475700002542,0.0825327999991714,522.9800748999987,522.9800852000008,None,,,,,,,,,,,,,,,,,00001,001,2025-11-08_16h36.47.075,MST_task,2024.2.2,60.008917324028936,2025-11-08 16h36.54.958565 +0530,
,Scenes\078a.jpg,120,0,120,,,,,j,1.3731212000020605,0.10609839999960968,None,,,,,,,120,0,120,0,522.9966448999985,,,,,,,,,,,,,,,,,,,,,,,,,,,,,,522.9801807999975,522.9966448999985,523.5302071999977,523.4801208999997,,,,,,,,,,,,,,,,,,,,,,523.5100788999989,523.5302071999977,523.5302071999977,523.5302071999977,526.4966382999992,j,1.3731212000020605,0.10609839999960968,526.4967090999999,526.4967197999977,None,,,,,,,,,,,,,,,,,00001,001,2025-11-08_16h36.47.075,MST_task,2024.2.2,60.008917324028936,2025-11-08 16h36.54.958565 +0530,
,Scenes\102a.jpg,121,0,121,,,,,f,1.1111791000002995,0.12238770000112709,None,,,,,,,121,0,121,0,526.5132267000008,,,,,,,,,,,,,,,,,,,,,,,,,,,,,,526.4968016999992,526.5132267000008,527.0465523999992,526.9967923000004,,,,,,,,,,,,,,,,,,,,,,527.0296165,527.0465523999992,527.0465523999992,527.0465523999992,530.0132035999995,f,1.1111791000002995,0.12238770000112709,530.0132503999994,530.0132601999976,None,,,,,,,,,,,,,,,,,00001,001,2025-11-08_16h36.47.075,MST_task,2024.2.2,60.008917324028936,2025-11-08 16h36.54.958565 +0530,
,Scenes\161a.jpg,122,0,122,,,,,j,1.003046699999686,0.0969779999977618,None,,,,,,,122,0,122,0,530.0298141999992,,,,,,,,,,,,,,,,,,,,,,,,,,,,,,530.0133347999981,530.0298141999992,,530.5133096999998,,,,,,,,,,,,,,,,,,,,,,530.5354082999984,530.5464403999977,530.5464403999977,530.5464403999977,533.5299341999998,j,1.003046699999686,0.0969779999977618,533.5299865999987,533.529996199999,None,,,,,,,,,,,,,,,,,00001,001,2025-11-08_16h36.47.075,MST_task,2024.2.2,60.008917324028936,2025-11-08 16h36.54.958565 +0530,
,Scenes\037a.jpg,123,0,123,,,,,j,1.3110354999989795,0.10319159999926342,None,,,,,,,123,0,123,0,533.5464119999997,,,,,,,,,,,,,,,,,,,,,,,,,,,,,,533.5300752999974,533.5464119999997,534.0632329,534.030010399998,,,,,,,,,,,,,,,,,,,,,,534.0587873000004,534.0632329,534.0632329,534.0632329,537.0465121999987,j,1.3110354999989795,0.10319159999926342,537.0465579999982,537.0465686999996,None,,,,,,,,,,,,,,,,,00001,001,2025-11-08_16h36.47.075,MST_task,2024.2.2,60.008917324028936,2025-11-08 16h36.54.958565 +0530,
,Scenes\139a.jpg,124,0,124,,,,,j,0.6548989000002621,0.11607870000079856,None,,,,,,,124,0,124,0,537.0628565999978,,,,,,,,,,,,,,,,,,,,,,,,,,,,,,537.0466271000005,537.0628565999978,537.5966188999992,537.5464751,,,,,,,,,,,,,,,,,,,,,,537.574455599999,537.5966188999992,537.5966188999992,537.5966188999992,540.5630904999998,j,0.6548989000002621,0.11607870000079856,540.5631393000003,540.5631498999974,None,,,,,,,,,,,,,,,,,00001,001,2025-11-08_16h36.47.075,MST_task,2024.2.2,60.008917324028936,2025-11-08 16h36.54.958565 +0530,
,Scenes\073a.jpg,125,0,125,,,,,j,0.9263628000007884,0.11991109999871696,None,,,,,,,125,0,125,0,540.579550399998,,,,,,,,,,,,,,,,,,,,,,,,,,,,,,540.5632277000004,540.579550399998,541.1131061999986,541.0630467999981,,,,,,,,,,,,,,,,,,,,,,541.0908706000009,541.1131061999986,541.1131061999986,541.1131061999986,544.079526999998,j,0.9263628000007884,0.11991109999871696,544.0795715999993,544.0795823000008,None,,,,,,,,,,,,,,,,,00001,001,2025-11-08_16h36.47.075,MST_task,2024.2.2,60.008917324028936,2025-11-08 16h36.54.958565 +0530,
,Objects\033a.jpg,126,0,126,,,,,f,0.8663764999982959,0.10809299999891664,None,,,,,,,126,0,126,0,544.0961803999999,,,,,,,,,,,,,,,,,,,,,,,,,,,,,,544.0796644000002,544.0961803999999,544.6131069000003,544.5796955999976,,,,,,,,,,,,,,,,,,,,,,544.5964925000007,544.6131069000003,544.6131069000003,544.6131069000003,547.5961167999994,f,0.8663764999982959,0.10809299999891664,547.596160699999,547.596170599998,None,,,,,,,,,,,,,,,,,00001,001,2025-11-08_16h36.47.075,MST_task,2024.2.2,60.008917324028936,2025-11-08 16h36.54.958565 +0530,
,Objects\136a.jpg,127,0,127,,,,,f,0.8675161999999546,0.11835090000022319,None,,,,,,,127,0,127,0,547.612769899999,,,,,,,,,,,,,,,,,,,,,,,,,,,,,,547.5962273000005,547.612769899999,548.1460576999998,548.0963391999976,,,,,,,,,,,,,,,,,,,,,,548.1295457999986,548.1460576999998,548.1460576999998,548.1460576999998,551.1127558000007,f,0.8675161999999546,0.11835090000022319,551.1128076999994,551.1128181999993,None,,,,,,,,,,,,,,,,,00001,001,2025-11-08_16h36.47.075,MST_task,2024.2.2,60.008917324028936,2025-11-08 16h36.54.958565 +0530,
,Objects\185a.jpg,128,0,128,,,,,f,1.515669100001105,0.09786299999905168,None,,,,,,,128,0,128,0,551.1293545999979,,,,,,,,,,,,,,,,,,,,,,,,,,,,,,551.1129086000001,551.1293545999979,551.6460053999981,551.6128943000003,,,,,,,,,,,,,,,,,,,,,,551.6294000999987,551.6460053999981,551.6460053999981,551.6460053999981,554.6293475999992,f,1.515669100001105,0.09786299999905168,554.6293941000004,554.6294043999987,None,,,,,,,,,,,,,,,,,00001,001,2025-11-08_16h36.47.075,MST_task,2024.2.2,60.008917324028936,2025-11-08 16h36.54.958565 +0530,
,Objects\121a.jpg,129,0,129,,,,,f,1.8598190000011527,0.13578229999984615,None,,,,,,,129,0,129,0,554.6459436999976,,,,,,,,,,,,,,,,,,,,,,,,,,,,,,554.6294821999982,554.6459436999976,555.1625944000007,555.1294277999987,,,,,,,,,,,,,,,,,,,,,,555.1517619999977,555.1625944000007,555.1625944000007,555.1625944000007,558.1460411000007,f,1.8598190000011527,0.13578229999984615,558.1461076999985,558.1461187999994,None,,,,,,,,,,,,,,,,,00001,001,2025-11-08_16h36.47.075,MST_task,2024.2.2,60.008917324028936,2025-11-08 16h36.54.958565 +0530,
,Objects\105a.jpg,130,0,130,,,,,f,0.5942017999987002,0.15010930000062217,None,,,,,,,130,0,130,0,558.1625351000002,,,,,,,,,,,,,,,,,,,,,,,,,,,,,,558.1461821999983,558.1625351000002,558.6791937999988,558.6461123000008,,,,,,,,,,,,,,,,,,,,,,558.6618233000008,558.6791937999988,558.6791937999988,558.6791937999988,561.6624827999985,f,0.5942017999987002,0.15010930000062217,561.6625335999997,561.6625451,None,,,,,,,,,,,,,,,,,00001,001,2025-11-08_16h36.47.075,MST_task,2024.2.2,60.008917324028936,2025-11-08 16h36.54.958565 +0530,
,Objects\111a.jpg,131,0,131,,,,,f,0.5729350000001432,0.1392511000012746,None,,,,,,,131,0,131,0,561.6791252000003,,,,,,,,,,,,,,,,,,,,,,,,,,,,,,561.6626087999975,561.6791252000003,562.2124082000009,562.1626700999986,,,,,,,,,,,,,,,,,,,,,,562.1933959999988,562.2124082000009,562.2124082000009,562.2124082000009,565.1790645000001,f,0.5729350000001432,0.1392511000012746,565.1791120999987,565.1791224999979,None,,,,,,,,,,,,,,,,,00001,001,2025-11-08_16h36.47.075,MST_task,2024.2.2,60.008917324028936,2025-11-08 16h36.54.958565 +0530,
,Objects\176a.jpg,132,0,132,,,,,j,0.6900387000023329,0.10159839999687392,None,,,,,,,132,0,132,0,565.1957145999986,,,,,,,,,,,,,,,,,,,,,,,,,,,,,,565.1792041999979,565.1957145999986,565.7123734999986,565.6792820999981,,,,,,,,,,,,,,,,,,,,,,565.6989648999988,565.7123734999986,565.7123734999986,565.7123734999986,568.6956632000001,j,0.6900387000023329,0.10159839999687392,568.6957115000005,568.6957229,None,,,,,,,,,,,,,,,,,00001,001,2025-11-08_16h36.47.075,MST_task,2024.2.2,60.008917324028936,2025-11-08 16h36.54.958565 +0530,
,Scenes\103a.jpg,133,0,133,,,,,j,0.6238773000004585,0.12281919999804813,None,,,,,,,133,0,133,0,568.7122717999991,,,,,,,,,,,,,,,,,,,,,,,,,,,,,,568.6958080000004,568.7122717999991,569.2455917999978,569.1958588999987,,,,,,,,,,,,,,,,,,,,,,569.2290170999986,569.2455917999978,569.2455917999978,569.2455917999978,572.2122835000009,j,0.6238773000004585,0.12281919999804813,572.2123341999977,572.2123449999999,None,,,,,,,,,,,,,,,,,00001,001,2025-11-08_16h36.47.075,MST_task,2024.2.2,60.008917324028936,2025-11-08 16h36.54.958565 +0530,
,Scenes\107a.jpg,134,0,134,,,,,j,1.1666929999992135,0.10207240000090678,None,,,,,,,134,0,134,0,572.2288692999973,,,,,,,,,,,,,,,,,,,,,,,,,,,,,,572.2124306999976,572.2288692999973,572.7455167000007,572.7123709999978,,,,,,,,,,,,,,,,,,,,,,572.7372179999984,572.7455167000007,572.7455167000007,572.7455167000007,575.7288236999993,j,1.1666929999992135,0.10207240000090678,575.7288789999984,575.7288894999983,None,,,,,,,,,,,,,,,,,00001,001,2025-11-08_16h36.47.075,MST_task,2024.2.2,60.008917324028936,2025-11-08 16h36.54.958565 +0530,
,Scenes\157a.jpg,135,0,135,,,,,j,1.440543799999432,0.10041590000037104,None,,,,,,,135,0,135,0,575.7455130999988,,,,,,,,,,,,,,,,,,,,,,,,,,,,,,575.728948699998,575.7455130999988,576.2790268999997,576.2289950999984,,,,,,,,,,,,,,,,,,,,,,576.2587845999988,576.2790268999997,576.2790268999997,576.2790268999997,579.2454302999977,j,1.440543799999432,0.10041590000037104,579.2454827000001,579.2454942000004,None,,,,,,,,,,,,,,,,,00001,001,2025-11-08_16h36.47.075,MST_task,2024.2.2,60.008917324028936,2025-11-08 16h36.54.958565 +0530,
,Scenes\032a.jpg,136,0,136,,,,,j,0.750784100000601,0.1157948000000033,None,,,,,,,136,0,136,0,579.2620781999976,,,,,,,,,,,,,,,,,,,,,,,,,,,,,,579.2455861999988,579.2620781999976,579.7956006999993,579.7455775999988,,,,,,,,,,,,,,,,,,,,,,579.7805489999992,579.7956006999993,579.7956006999993,579.7956006999993,582.7620217000003,j,0.750784100000601,0.1157948000000033,582.7620668999989,582.7620771000002,None,,,,,,,,,,,,,,,,,00001,001,2025-11-08_16h36.47.075,MST_task,2024.2.2,60.008917324028936,2025-11-08 16h36.54.958565 +0530,
,Scenes\016a.jpg,137,0,137,,,,,j,0.5786756999987119,0.09956009999950766,None,,,,,,,137,0,137,0,582.7786632999996,,,,,,,,,,,,,,,,,,,,,,,,,,,,,,582.7621351999987,582.7786632999996,583.2955774000002,583.2622000999982,,,,,,,,,,,,,,,,,,,,,,583.2904880999995,583.2955774000002,583.2955774000002,583.2955774000002,586.2787578999996,j,0.5786756999987119,0.09956009999950766,586.278811799999,586.2788230999977,None,,,,,,,,,,,,,,,,,00001,001,2025-11-08_16h36.47.075,MST_task,2024.2.2,60.008917324028936,2025-11-08 16h36.54.958565 +0530,
,Scenes\165a.jpg,138,0,138,,,,,f,1.395189200000459,0.12537330000122893,None,,,,,,,138,0,138,0,586.2952688999976,,,,,,,,,,,,,,,,,,,,,,,,,,,,,,586.2789092999992,586.2952688999976,586.8289009,586.7787467999988,,,,,,,,,,,,,,,,,,,,,,586.8076069999988,586.8289009,586.8289009,586.8289009,589.7952120000009,f,1.395189200000459,0.12537330000122893,589.7952622999983,589.795272899999,None,,,,,,,,,,,,,,,,,00001,001,2025-11-08_16h36.47.075,MST_task,2024.2.2,60.008917324028936,2025-11-08 16h36.54.958565 +0530,
,Scenes\159a.jpg,139,0,139,,,,,j,0.9888037000018812,0.1221363000004203,None,,,,,,,139,0,139,0,589.811845799999,,,,,,,,,,,,,,,,,,,,,,,,,,,,,,589.7953347999974,589.811845799999,590.345160599998,590.2954385999983,,,,,,,,,,,,,,,,,,,,,,590.3294247999984,590.345160599998,590.345160599998,590.345160599998,593.3118217999981,j,0.9888037000018812,0.1221363000004203,593.3118677999992,593.3118775999974,None,,,,,,,,,,,,,,,,,00001,001,2025-11-08_16h36.47.075,MST_task,2024.2.2,60.008917324028936,2025-11-08 16h36.54.958565 +0530,
,Objects\083a.jpg,140,0,140,,,,,f,0.7690627000010863,0.10711499999888474,None,,,,,,,140,0,140,0,593.3284286999988,,,,,,,,,,,,,,,,,,,,,,,,,,,,,,593.3119721000003,593.3284286999988,593.8453609999997,593.8120296999987,,,,,,,,,,,,,,,,,,,,,,593.8283493999988,593.8453609999997,593.8453609999997,593.8453609999997,596.8283814999995,f,0.7690627000010863,0.10711499999888474,596.8284305999987,596.8284418999974,None,,,,,,,,,,,,,,,,,00001,001,2025-11-08_16h36.47.075,MST_task,2024.2.2,60.008917324028936,2025-11-08 16h36.54.958565 +0530,
,Objects\124a.jpg,141,0,141,,,,,f,0.6745635999977821,0.11072860000058427,None,,,,,,,141,0,141,0,596.8450212999996,,,,,,,,,,,,,,,,,,,,,,,,,,,,,,596.8285028999999,596.8450212999996,597.3783153000004,597.3285849999993,,,,,,,,,,,,,,,,,,,,,,597.3605893999993,597.3783153000004,597.3783153000004,597.3783153000004,600.3450244999985,f,0.6745635999977821,0.11072860000058427,600.3450722999987,600.345083199998,None,,,,,,,,,,,,,,,,,00001,001,2025-11-08_16h36.47.075,MST_task,2024.2.2,60.008917324028936,2025-11-08 16h36.54.958565 +0530,
,Objects\065a.jpg,142,0,142,,,,,f,2.1820112999994308,0.11808960000053048,None,,,,,,,142,0,142,0,600.361576299998,,,,,,,,,,,,,,,,,,,,,,,,,,,,,,600.3451678999991,600.361576299998,600.8782360000005,600.8451012000005,,,,,,,,,,,,,,,,,,,,,,600.8609805999986,600.8782360000005,600.8782360000005,600.8782360000005,603.8616896999993,f,2.1820112999994308,0.11808960000053048,603.8617391000007,603.8617501999979,None,,,,,,,,,,,,,,,,,00001,001,2025-11-08_16h36.47.075,MST_task,2024.2.2,60.008917324028936,2025-11-08 16h36.54.958565 +0530,
,Objects\138a.jpg,143,0,143,,,,,j,0.7910483999985445,0.08993430000191438,None,,,,,,,143,0,143,0,603.8781651999998,,,,,,,,,,,,,,,,,,,,,,,,,,,,,,603.8618279999973,603.8781651999998,604.3948244999992,604.3618109999989,,,,,,,,,,,,,,,,,,,,,,604.3786976999982,604.3948244999992,604.3948244999992,604.3948244999992,607.378119099998,j,0.7910483999985445,0.08993430000191438,607.3781614,607.3781710000003,None,,,,,,,,,,,,,,,,,00001,001,2025-11-08_16h36.47.075,MST_task,2024.2.2,60.008917324028936,2025-11-08 16h36.54.958565 +0530,
,Objects\181a.jpg,144,0,144,,,,,j,0.5582506999999168,0.10972649999894202,None,,,,,,,144,0,144,0,607.3948103999974,,,,,,,,,,,,,,,,,,,,,,,,,,,,,,607.3782458999995,607.3948103999974,607.9114217999995,607.878261599999,,,,,,,,,,,,,,,,,,,,,,607.9067340000001,607.9114217999995,607.9114217999995,607.9114217999995,610.8947200999974,j,0.5582506999999168,0.10972649999894202,610.8947636999983,610.894773699998,None,,,,,,,,,,,,,,,,,00001,001,2025-11-08_16h36.47.075,MST_task,2024.2.2,60.008917324028936,2025-11-08 16h36.54.958565 +0530,
,Objects\104a.jpg,145,0,145,,,,,f,0.5178913999989163,0.10984749999988708,None,,,,,,,145,0,145,0,610.9113789000003,,,,,,,,,,,,,,,,,,,,,,,,,,,,,,610.894847399999,610.9113789000003,611.4280069999986,611.3949407,,,,,,,,,,,,,,,,,,,,,,611.4122086999996,611.4280069999986,611.4280069999986,611.4280069999986,614.4114294999999,f,0.5178913999989163,0.10984749999988708,614.4114756999988,614.4114862999995,None,,,,,,,,,,,,,,,,,00001,001,2025-11-08_16h36.47.075,MST_task,2024.2.2,60.008917324028936,2025-11-08 16h36.54.958565 +0530,
,Objects\098a.jpg,146,0,146,,,,,f,1.8698001000011573,0.13755110000056447,None,,,,,,,146,0,146,0,614.4279601999988,,,,,,,,,,,,,,,,,,,,,,,,,,,,,,614.4115648000006,614.4279601999988,614.9446141999979,614.9115692999985,,,,,,,,,,,,,,,,,,,,,,614.9270797999998,614.9446141999979,614.9446141999979,614.9446141999979,617.9278962999997,f,1.8698001000011573,0.13755110000056447,617.9279385000009,617.9279485999978,None,,,,,,,,,,,,,,,,,00001,001,2025-11-08_16h36.47.075,MST_task,2024.2.2,60.008917324028936,2025-11-08 16h36.54.958565 +0530,
,Scenes\100a.jpg,147,0,147,,,,,f,1.1487235999993572,0.12376940000103787,None,,,,,,,147,0,147,0,617.9445584999994,,,,,,,,,,,,,,,,,,,,,,,,,,,,,,617.9280265999987,617.9445584999994,618.4614002999988,618.4281255999995,,,,,,,,,,,,,,,,,,,,,,618.4504124999985,618.4614002999988,618.4614002999988,618.4614002999988,621.4445228000004,f,1.1487235999993572,0.12376940000103787,621.4445703999991,621.4445809999997,None,,,,,,,,,,,,,,,,,00001,001,2025-11-08_16h36.47.075,MST_task,2024.2.2,60.008917324028936,2025-11-08 16h36.54.958565 +0530,
,Scenes\106a.jpg,148,0,148,,,,,j,0.9054881999982172,0.11817180000070948,None,,,,,,,148,0,148,0,621.4611555999982,,,,,,,,,,,,,,,,,,,,,,,,,,,,,,621.4446581999982,621.4611555999982,621.9944853999987,621.9446796999982,,,,,,,,,,,,,,,,,,,,,,621.9747968999982,621.9944853999987,621.9944853999987,621.9944853999987,624.9610820999987,j,0.9054881999982172,0.11817180000070948,624.9611260999991,624.9611364999982,None,,,,,,,,,,,,,,,,,00001,001,2025-11-08_16h36.47.075,MST_task,2024.2.2,60.008917324028936,2025-11-08 16h36.54.958565 +0530,
,Scenes\081a.jpg,149,0,149,,,,,j,1.5269470999992336,0.1098959000009927,None,,,,,,,149,0,149,0,624.977736599998,,,,,,,,,,,,,,,,,,,,,,,,,,,,,,624.9612118000005,624.977736599998,625.5110562000009,625.4612777999973,,,,,,,,,,,,,,,,,,,,,,625.4885164000007,625.5110562000009,625.5110562000009,625.5110562000009,628.4776721999988,j,1.5269470999992336,0.1098959000009927,628.4777166999993,628.4777270999984,None,,,,,,,,,,,,,,,,,00001,001,2025-11-08_16h36.47.075,MST_task,2024.2.2,60.008917324028936,2025-11-08 16h36.54.958565 +0530,
,Scenes\152a.jpg,150,0,150,,,,,j,0.7984154999976454,0.11827919999996084,None,,,,,,,150,0,150,0,628.4943201999995,,,,,,,,,,,,,,,,,,,,,,,,,,,,,,628.4778034999981,628.4943201999995,629.0109697000007,628.9778561999992,,,,,,,,,,,,,,,,,,,,,,629.0021555999992,629.0109697000007,629.0109697000007,629.0109697000007,631.9942797999975,j,0.7984154999976454,0.11827919999996084,631.9943261000008,631.9943359999997,None,,,,,,,,,,,,,,,,,00001,001,2025-11-08_16h36.47.075,MST_task,2024.2.2,60.008917324028936,2025-11-08 16h36.54.958565 +0530,
,Scenes\046a.jpg,151,0,151,,,,,j,0.7336204999992333,0.11585080000077141,None,,,,,,,151,0,151,0,632.0109133999977,,,,,,,,,,,,,,,,,,,,,,,,,,,,,,631.9944121999979,632.0109133999977,632.5444725999987,632.4944780999977,,,,,,,,,,,,,,,,,,,,,,632.5259874999974,632.5444725999987,632.5444725999987,632.5444725999987,635.5108689000008,j,0.7336204999992333,0.11585080000077141,635.510922999998,635.5109327999999,None,,,,,,,,,,,,,,,,,00001,001,2025-11-08_16h36.47.075,MST_task,2024.2.2,60.008917324028936,2025-11-08 16h36.54.958565 +0530,
,Scenes\066a.jpg,152,0,152,,,,,j,0.8847234999993816,0.1181246000014653,None,,,,,,,152,0,152,0,635.5274766000002,,,,,,,,,,,,,,,,,,,,,,,,,,,,,,635.5110126,635.5274766000002,636.0610567000003,636.011065499999,,,,,,,,,,,,,,,,,,,,,,636.0392423999983,636.0610567000003,636.0610567000003,636.0610567000003,639.0274325999999,j,0.8847234999993816,0.1181246000014653,639.0274742000001,639.0274839999984,None,,,,,,,,,,,,,,,,,00001,001,2025-11-08_16h36.47.075,MST_task,2024.2.2,60.008917324028936,2025-11-08 16h36.54.958565 +0530,
,Scenes\033a.jpg,153,0,153,,,,,j,0.7467816999997012,0.11134110000057262,None,,,,,,,153,0,153,0,639.044100799998,,,,,,,,,,,,,,,,,,,,,,,,,,,,,,639.0275626000002,639.044100799998,639.5609851000008,639.5275488999978,,,,,,,,,,,,,,,,,,,,,,639.5470428999979,639.5609851000008,639.5609851000008,639.5609851000008,642.5441527999974,j,0.7467816999997012,0.11134110000057262,642.5442011999985,642.5442111999982,None,,,,,,,,,,,,,,,,,00001,001,2025-11-08_16h36.47.075,MST_task,2024.2.2,60.008917324028936,2025-11-08 16h36.54.958565 +0530,
,Objects\117a.jpg,154,0,154,,,,,None,,,f,0.09916969999903813,None,,,,,154,0,154,0,642.5606908000009,,,,,,,,,,,,,,,,,,,,,,,,,,,,,,642.5442712999975,642.5606908000009,643.0773522999989,643.0442124000001,,,,,,,,,,,,,,,,,,,,,,643.0715091999991,643.0773522999989,643.0773522999989,643.0773522999989,646.0606150999993,None,,,646.0606571999997,646.1776867000008,f,,,,646.0772752999983,646.0772752999983,0.09916969999903813,None,,,,,,,,,,00001,001,2025-11-08_16h36.47.075,MST_task,2024.2.2,60.008917324028936,2025-11-08 16h36.54.958565 +0530,
,Objects\052a.jpg,155,0,155,,,,,f,0.7415098000019498,0.11514059999899473,None,,,,,,,155,0,155,0,646.1939373999994,,,,,,,,,,,,,,,,,,,,,,,,,,,,,,646.1777631999976,646.1939373999994,646.7105669999983,646.6774269999987,,,,,,,,,,,,,,,,,,,,,,646.6938439000005,646.7105669999983,646.7105669999983,646.7105669999983,649.6940228999993,f,0.7415098000019498,0.11514059999899473,649.6940805999984,649.6940916999993,None,,,,,,,,,,,,,,,,,00001,001,2025-11-08_16h36.47.075,MST_task,2024.2.2,60.008917324028936,2025-11-08 16h36.54.958565 +0530,
,Objects\155a.jpg,156,0,156,,,,,f,0.6844071999985317,0.07448690000092029,None,,,,,,,156,0,156,0,649.7105267000006,,,,,,,,,,,,,,,,,,,,,,,,,,,,,,649.6941542999994,649.7105267000006,650.2438220999975,650.1941305,,,,,,,,,,,,,,,,,,,,,,650.2246968,650.2438220999975,650.2438220999975,650.2438220999975,653.2104880000006,f,0.6844071999985317,0.07448690000092029,653.2105463000007,653.210558499999,None,,,,,,,,,,,,,,,,,00001,001,2025-11-08_16h36.47.075,MST_task,2024.2.2,60.008917324028936,2025-11-08 16h36.54.958565 +0530,
,Objects\163a.jpg,157,0,157,,,,,j,0.8966096000003745,0.11198460000014165,None,,,,,,,157,0,157,0,653.2271535,,,,,,,,,,,,,,,,,,,,,,,,,,,,,,653.2106361000006,653.2271535,653.7433749999982,653.7108010999982,,,,,,,,,,,,,,,,,,,,,,653.7401497999999,653.7433749999982,653.7433749999982,653.7433749999982,656.7270427000003,j,0.8966096000003745,0.11198460000014165,656.7270871000001,656.7270978999986,None,,,,,,,,,,,,,,,,,00001,001,2025-11-08_16h36.47.075,MST_task,2024.2.2,60.008917324028936,2025-11-08 16h36.54.958565 +0530,
,Objects\026a.jpg,158,0,158,,,,,f,0.815279800001008,0.13778440000169212,None,,,,,,,158,0,158,0,656.743741899998,,,,,,,,,,,,,,,,,,,,,,,,,,,,,,656.7271561999987,656.743741899998,657.2603347999975,657.227235899998,,,,,,,,,,,,,,,,,,,,,,657.2437658999988,657.2603347999975,657.2603347999975,657.2603347999975,660.2436679999992,f,0.815279800001008,0.13778440000169212,660.2437119999995,660.2437227999981,None,,,,,,,,,,,,,,,,,00001,001,2025-11-08_16h36.47.075,MST_task,2024.2.2,60.008917324028936,2025-11-08 16h36.54.958565 +0530,
,Objects\005a.jpg,159,0,159,,,,,f,0.8417829999998503,0.11549279999962891,None,,,,,,,159,0,159,0,660.2602901999999,,,,,,,,,,,,,,,,,,,,,,,,,,,,,,660.2438006999982,660.2602901999999,660.7769430000008,660.7438466999993,,,,,,,,,,,,,,,,,,,,,,660.7607241999976,660.7769430000008,660.7769430000008,660.7769430000008,663.760399499999,f,0.8417829999998503,0.11549279999962891,663.7604465999975,663.7604573999997,None,,,,,,,,,,,,,,,,,00001,001,2025-11-08_16h36.47.075,MST_task,2024.2.2,60.008917324028936,2025-11-08 16h36.54.958565 +0530,
,Objects\189a.jpg,160,0,160,,,,,f,2.1612640999992436,0.11313610000070184,None,,,,,,,160,0,160,0,663.7768475999983,,,,,,,,,,,,,,,,,,,,,,,,,,,,,,663.7605344999974,663.7768475999983,664.2935130999977,664.2603161999978,,,,,,,,,,,,,,,,,,,,,,664.2866700999984,664.2935130999977,664.2935130999977,664.2935130999977,667.276932599998,f,2.1612640999992436,0.11313610000070184,667.2769800999995,667.2769904999986,None,,,,,,,,,,,,,,,,,00001,001,2025-11-08_16h36.47.075,MST_task,2024.2.2,60.008917324028936,2025-11-08 16h36.54.958565 +0530,
,Scenes\004a.jpg,161,0,161,,,,,j,0.6008647000016936,0.11370099999840022,None,,,,,,,161,0,161,0,667.2934749999986,,,,,,,,,,,,,,,,,,,,,,,,,,,,,,667.2770664999989,667.2934749999986,667.8269762999989,667.7770493999997,,,,,,,,,,,,,,,,,,,,,,667.8076206000005,667.8269762999989,667.8269762999989,667.8269762999989,670.7935682999996,j,0.6008647000016936,0.11370099999840022,670.7936168999986,670.7936269999991,None,,,,,,,,,,,,,,,,,00001,001,2025-11-08_16h36.47.075,MST_task,2024.2.2,60.008917324028936,2025-11-08 16h36.54.958565 +0530,
,Scenes\144a.jpg,162,0,162,,,,,j,0.5152940999978455,0.10185769999952754,None,,,,,,,162,0,162,0,670.8100696000001,,,,,,,,,,,,,,,,,,,,,,,,,,,,,,670.793712499999,670.8100696000001,671.3267429999978,671.2936465999992,,,,,,,,,,,,,,,,,,,,,,671.3176559999993,671.3267429999978,671.3267429999978,671.3267429999978,674.3101537999974,j,0.5152940999978455,0.10185769999952754,674.3102041999991,674.3102192999977,None,,,,,,,,,,,,,,,,,00001,001,2025-11-08_16h36.47.075,MST_task,2024.2.2,60.008917324028936,2025-11-08 16h36.54.958565 +0530,
,Scenes\049a.jpg,163,0,163,,,,,j,1.539433600002667,0.11200119999921299,None,,,,,,,163,0,163,0,674.3266565999984,,,,,,,,,,,,,,,,,,,,,,,,,,,,,,674.3103052000006,674.3266565999984,674.8600289999995,674.8102306000001,,,,,,,,,,,,,,,,,,,,,,674.8401328,674.8600289999995,674.8600289999995,674.8600289999995,677.8267176000008,j,1.539433600002667,0.11200119999921299,677.8267756999994,677.826786499998,None,,,,,,,,,,,,,,,,,00001,001,2025-11-08_16h36.47.075,MST_task,2024.2.2,60.008917324028936,2025-11-08 16h36.54.958565 +0530,
,Scenes\137a.jpg,164,0,164,,,,,j,0.6473476999999548,0.11556890000065323,None,,,,,,,164,0,164,0,677.8432431000001,,,,,,,,,,,,,,,,,,,,,,,,,,,,,,677.8268712999998,677.8432431000001,678.3768697999985,678.3268243999992,,,,,,,,,,,,,,,,,,,,,,678.3554800999991,678.3768697999985,678.3768697999985,678.3768697999985,681.3431978999979,j,0.6473476999999548,0.11556890000065323,681.3432422999977,681.3432532000006,None,,,,,,,,,,,,,,,,,00001,001,2025-11-08_16h36.47.075,MST_task,2024.2.2,60.008917324028936,2025-11-08 16h36.54.958565 +0530,
,Scenes\087a.jpg,165,0,165,,,,,j,1.033709400002408,0.12539779999860912,None,,,,,,,165,0,165,0,681.3598385000005,,,,,,,,,,,,,,,,,,,,,,,,,,,,,,681.3433439,681.3598385000005,681.8766085999996,681.8433458,,,,,,,,,,,,,,,,,,,,,,681.8699541999995,681.8766085999996,681.8766085999996,681.8766085999996,684.8597807999977,j,1.033709400002408,0.12539779999860912,684.8598271999981,684.8598373999994,None,,,,,,,,,,,,,,,,,00001,001,2025-11-08_16h36.47.075,MST_task,2024.2.2,60.008917324028936,2025-11-08 16h36.54.958565 +0530,
,Scenes\003a.jpg,166,0,166,,,,,f,1.225428000001557,0.13251519999903394,None,,,,,,,166,0,166,0,684.8764272999979,,,,,,,,,,,,,,,,,,,,,,,,,,,,,,684.8598949999978,684.8764272999979,,685.3598829999974,,,,,,,,,,,,,,,,,,,,,,685.3870466999979,685.4100973999994,685.4100973999994,685.4100973999994,688.3763729999991,f,1.225428000001557,0.13251519999903394,688.3764179999998,688.3764269999992,None,,,,,,,,,,,,,,,,,00001,001,2025-11-08_16h36.47.075,MST_task,2024.2.2,60.008917324028936,2025-11-08 16h36.54.958565 +0530,
,Scenes\190a.jpg,167,0,167,,,,,j,0.5722779000025184,0.10332130000097095,None,,,,,,,167,0,167,0,688.3930122999991,,,,,,,,,,,,,,,,,,,,,,,,,,,,,,688.3765056999982,688.3930122999991,,688.8765094999981,,,,,,,,,,,,,,,,,,,,,,688.8975389000007,688.9097537999987,688.9097537999987,688.9097537999987,691.8929905000005,j,0.5722779000025184,0.10332130000097095,691.8930349999973,691.8930440000004,None,,,,,,,,,,,,,,,,,00001,001,2025-11-08_16h36.47.075,MST_task,2024.2.2,60.008917324028936,2025-11-08 16h36.54.958565 +0530,
,Objects\060a.jpg,168,0,168,,,,,f,2.189756600000692,0.10767459999988205,None,,,,,,,168,0,168,0,691.9095670999995,,,,,,,,,,,,,,,,,,,,,,,,,,,,,,691.8931043999983,691.9095670999995,692.4265171000006,692.3930815999993,,,,,,,,,,,,,,,,,,,,,,692.4089383999999,692.4265171000006,692.4265171000006,692.4265171000006,695.4095878999979,f,2.189756600000692,0.10767459999988205,695.4096376999987,695.4096486999988,None,,,,,,,,,,,,,,,,,00001,001,2025-11-08_16h36.47.075,MST_task,2024.2.2,60.008917324028936,2025-11-08 16h36.54.958565 +0530,
,Objects\046a.jpg,169,0,169,,,,,f,1.4112041000007594,0.12365049999789335,None,,,,,,,169,0,169,0,695.4261585999993,,,,,,,,,,,,,,,,,,,,,,,,,,,,,,695.4097159999983,695.4261585999993,695.9428153999979,695.9097527999984,,,,,,,,,,,,,,,,,,,,,,695.9264517999982,695.9428153999979,695.9428153999979,695.9428153999979,698.9261430000006,f,1.4112041000007594,0.12365049999789335,698.9261938999989,698.9262039999994,None,,,,,,,,,,,,,,,,,00001,001,2025-11-08_16h36.47.075,MST_task,2024.2.2,60.008917324028936,2025-11-08 16h36.54.958565 +0530,
,Objects\067a.jpg,170,0,170,,,,,j,2.004301900000428,0.08781339999768534,None,,,,,,,170,0,170,0,698.942787,,,,,,,,,,,,,,,,,,,,,,,,,,,,,,698.9262896,698.942787,699.4594053000001,699.4262759999983,,,,,,,,,,,,,,,,,,,,,,699.4429256999974,699.4594053000001,699.4594053000001,699.4594053000001,702.4428191000006,j,2.004301900000428,0.08781339999768534,702.4428917000005,702.4429020999996,None,,,,,,,,,,,,,,,,,00001,001,2025-11-08_16h36.47.075,MST_task,2024.2.2,60.008917324028936,2025-11-08 16h36.54.958565 +0530,
,Objects\120a.jpg,171,0,171,,,,,f,1.1795648999977857,0.1255555000025197,None,,,,,,,171,0,171,0,702.4593757000002,,,,,,,,,,,,,,,,,,,,,,,,,,,,,,702.4429608999999,702.4593757000002,702.9759991999999,702.9428762999996,,,,,,,,,,,,,,,,,,,,,,702.9673131999989,702.9759991999999,702.9759991999999,702.9759991999999,705.9593926999987,f,1.1795648999977857,0.1255555000025197,705.9594419999994,705.9594526000001,None,,,,,,,,,,,,,,,,,00001,001,2025-11-08_16h36.47.075,MST_task,2024.2.2,60.008917324028936,2025-11-08 16h36.54.958565 +0530,
