Sl_no,image_path,thisN,thisTrialN,thisRepN,key_resp_5.keys,key_resp_7.keys,key_resp_7.rt,key_resp_7.duration,key_resp_5.rt,key_resp_5.duration,key_resp_9.keys,key_resp_9.rt,key_resp_9.duration,key_resp_8.keys,key_resp_8.rt,key_resp_8.duration,practice.thisRepN,practice.thisTrialN,practice.thisN,practice.thisIndex,trials.thisRepN,trials.thisTrialN,trials.thisN,trials.thisIndex,thisRow.t,notes,welcome_page.started,text.started,key_resp.started,welcome_page.stopped,key_resp.keys,key_resp.rt,key_resp.duration,instructions.started,ins.started,key_resp_2.started,instructions.stopped,key_resp_2.keys,key_resp_2.rt,key_resp_2.duration,objects_only_instruction.started,text_3.started,key_resp_3.started,objects_only_instruction.stopped,key_resp_3.keys,key_resp_3.rt,key_resp_3.duration,ISI.started,text_4.started,text_4.stopped,ISI.stopped,practice_block.started,image.started,text_5.started,key_resp_5.started,image.stopped,text_5.stopped,key_resp_5.stopped,practice_block.stopped,practice.key_resp_5.keys,indoor_outdoor.started,text_7.started,key_resp_7.started,indoor_outdoor.stopped,practice.key_resp_7.keys,practice.key_resp_7.rt,practice.key_resp_7.duration,practice.key_resp_5.rt,practice.key_resp_5.duration,practice_to_main.started,text_2.started,key_resp_4.started,practice_to_main.stopped,key_resp_4.keys,key_resp_4.rt,key_resp_4.duration,objects.started,image_2.started,text_9.started,key_resp_9.started,objects.stopped,trials.key_resp_9.keys,trials.key_resp_9.rt,trials.key_resp_9.duration,encoding_task.started,encoding_task.stopped,trials.key_resp_8.keys,image_2.stopped,text_9.stopped,key_resp_9.stopped,text_8.started,key_resp_8.started,trials.key_resp_8.rt,trials.key_resp_8.duration,end_experiment.started,text_6.started,key_resp_6.started,end_experiment.stopped,key_resp_6.keys,key_resp_6.rt,key_resp_6.duration,list_of_stimuli,encoding_task_accuracy,participant,session,date,expName,psychopyVersion,frameRate,expStart,
,,,,,,,,,,,,,,,,,,,,,,,,,,,0.013725699987844564,0.03036029999202583,0.03036029999202583,1555.3153467999946,space,1555.2816388000065,None,,,,,,,,,,,,,,,,,,,,,,,,,,,,,,,,,,,,,,,,,,,,,,,,,,,,,,,,,,,,,,,,,,,,,,,00005,001,2025-11-09_16h53.39.484,MST_task,2024.2.2,60.00171604817558,2025-11-09 16h53.53.997845 +0530,
,,,,,,,,,,,,,,,,,,,,,,,,,,,,,,,,,,1555.3153863999905,1555.3300410999946,1555.3300410999946,1578.1465386999917,space,22.80604999999923,None,,,,,,,,,,,,,,,,,,,,,,,,,,,,,,,,,,,,,,,,,,,,,,,,,,,,,,,,,,,,,,,,00005,001,2025-11-09_16h53.39.484,MST_task,2024.2.2,60.00171604817558,2025-11-09 16h53.53.997845 +0530,
,,,,,,,,,,,,,,,,,,,,,,,,,,,,,,,,,,,,,,,,,1578.1465661999973,1578.1628597999952,1578.1628597999952,1605.3459417999984,space,27.167151000001468,None,,,,,,,,,,,,,,,,,,,,,,,,,,,,,,,,,,,,,,,,,,,,,,,,,,,,,,,,,00005,001,2025-11-09_16h53.39.484,MST_task,2024.2.2,60.00171604817558,2025-11-09 16h53.53.997845 +0530,
1,practice_images/013a.jpg,0,0,0,None,j,0.4161356000113301,None,,,,,,,,,0,0,0,0,,,,,1605.3622461999912,,,,,,,,,,,,,,,,,,,,,,,1605.3496211999882,1605.3622461999912,1605.862231799998,1605.845833399988,1605.8529577000008,1605.862231799998,1605.862231799998,1605.862231799998,1608.8621775999927,1608.8621775999927,1608.8621775999927,1608.8457217999967,None,1608.84697649999,1608.8621775999927,1608.8621775999927,1609.2792329999938,j,0.4161356000113301,None,,,,,,,,,,,,,,,,,,,,,,,,,,,,,,,,,,,,,00005,001,2025-11-09_16h53.39.484,MST_task,2024.2.2,60.00171604817558,2025-11-09 16h53.53.997845 +0530,
7,practice_images/166a.jpg,1,1,0,f,None,,,1.8763859000027878,0.25388000000384636,,,,,,,0,1,1,6,,,,,1609.2954893999995,,,,,,,,,,,,,,,,,,,,,,,1609.279316,1609.2954893999995,1609.7955027999997,1609.778990299994,1609.7804379000008,1609.7955027999997,1609.7955027999997,1609.7955027999997,1612.7954082999931,1612.7954082999931,1612.7954082999931,1612.7790693999996,f,1612.7791183999943,,,1612.7791274999909,None,,,1.8763859000027878,0.25388000000384636,,,,,,,,,,,,,,,,,,,,,,,,,,,,,,,,,,,00005,001,2025-11-09_16h53.39.484,MST_task,2024.2.2,60.00171604817558,2025-11-09 16h53.53.997845 +0530,
8,practice_images/178a.jpg,2,2,0,j,None,,,2.1431381000002148,0.1736735000013141,,,,,,,0,2,2,7,,,,,1612.7954082999931,,,,,,,,,,,,,,,,,,,,,,,1612.7791837999976,1612.7954082999931,1613.295434300002,1613.2790655999997,1613.280322999999,1613.295434300002,1613.295434300002,1613.295434300002,1616.2953538000002,1616.2953538000002,1616.2953538000002,1616.2788599999913,j,1616.278913199989,,,1616.278921899997,None,,,2.1431381000002148,0.1736735000013141,,,,,,,,,,,,,,,,,,,,,,,,,,,,,,,,,,,00005,001,2025-11-09_16h53.39.484,MST_task,2024.2.2,60.00171604817558,2025-11-09 16h53.53.997845 +0530,
4,practice_images/002b.jpg,3,3,0,f,None,,,2.0479415000008885,0.21687889999884646,,,,,,,0,3,3,3,,,,,1616.2953538000002,,,,,,,,,,,,,,,,,,,,,,,1616.2789788999944,1616.2953538000002,1616.795326499996,1616.7789383999916,1616.7803855999955,1616.795326499996,1616.795326499996,1616.795326499996,1619.7952862999955,1619.7952862999955,1619.7952862999955,1619.7788489999948,f,1619.7789001999918,,,1619.7789092999883,None,,,2.0479415000008885,0.21687889999884646,,,,,,,,,,,,,,,,,,,,,,,,,,,,,,,,,,,00005,001,2025-11-09_16h53.39.484,MST_task,2024.2.2,60.00171604817558,2025-11-09 16h53.53.997845 +0530,
5,practice_images/139a.jpg,4,4,0,j,None,,,1.4767405000020517,0.21368549999897368,,,,,,,0,4,4,4,,,,,1619.7952862999955,,,,,,,,,,,,,,,,,,,,,,,1619.778968499988,1619.7952862999955,1620.295248800001,1620.2788681999955,1620.2802575999958,1620.295248800001,1620.295248800001,1620.295248800001,1623.2952073999913,1623.2952073999913,1623.2952073999913,1623.2786981999961,j,1623.2787424999988,,,1623.2787509999907,None,,,1.4767405000020517,0.21368549999897368,,,,,,,,,,,,,,,,,,,,,,,,,,,,,,,,,,,00005,001,2025-11-09_16h53.39.484,MST_task,2024.2.2,60.00171604817558,2025-11-09 16h53.53.997845 +0530,
10,practice_images/182a.jpg,5,5,0,f,None,,,1.3307812999992166,0.20181199999933597,,,,,,,0,5,5,9,,,,,1623.2952073999913,,,,,,,,,,,,,,,,,,,,,,,1623.278805199996,1623.2952073999913,1623.7951980999933,1623.77876809999,1623.7800376999949,1623.7951980999933,1623.7951980999933,1623.7951980999933,1626.7951360000006,1626.7951360000006,1626.7951360000006,1626.778683299999,f,1626.7787289999978,,,1626.778739100002,None,,,1.3307812999992166,0.20181199999933597,,,,,,,,,,,,,,,,,,,,,,,,,,,,,,,,,,,00005,001,2025-11-09_16h53.39.484,MST_task,2024.2.2,60.00171604817558,2025-11-09 16h53.53.997845 +0530,
6,practice_images/158a.jpg,6,6,0,j,None,,,1.2348488999996334,0.22173180000390857,,,,,,,0,6,6,5,,,,,1626.7951360000006,,,,,,,,,,,,,,,,,,,,,,,1626.7787948999903,1626.7951360000006,1627.2951119999925,1627.2788083999912,1627.2800675999897,1627.2951119999925,1627.2951119999925,1627.2951119999925,1630.2950634000008,1630.2950634000008,1630.2950634000008,1630.2785900000017,j,1630.2786381999904,,,1630.2786474999884,None,,,1.2348488999996334,0.22173180000390857,,,,,,,,,,,,,,,,,,,,,,,,,,,,,,,,,,,00005,001,2025-11-09_16h53.39.484,MST_task,2024.2.2,60.00171604817558,2025-11-09 16h53.53.997845 +0530,
9,practice_images/180a.jpg,7,7,0,f,None,,,1.2772565000050236,0.23889689998759422,,,,,,,0,7,7,8,,,,,1630.2950634000008,,,,,,,,,,,,,,,,,,,,,,,1630.2787032999913,1630.2950634000008,1630.7950358999951,1630.7786516999913,1630.7798878999893,1630.7950358999951,1630.7950358999951,1630.7950358999951,1633.794991799994,1633.794991799994,1633.794991799994,1633.7786602999986,f,1633.7787100999994,,,1633.7787185999914,None,,,1.2772565000050236,0.23889689998759422,,,,,,,,,,,,,,,,,,,,,,,,,,,,,,,,,,,00005,001,2025-11-09_16h53.39.484,MST_task,2024.2.2,60.00171604817558,2025-11-09 16h53.53.997845 +0530,
2,practice_images/031a.jpg,8,8,0,f,None,,,1.075107199998456,0.22964730000239797,,,,,,,0,8,8,1,,,,,1633.794991799994,,,,,,,,,,,,,,,,,,,,,,,1633.7787735999882,1633.794991799994,1634.2949595999962,1634.278536999991,1634.2798387999937,1634.2949595999962,1634.2949595999962,1634.2949595999962,1637.2949059999955,1637.2949059999955,1637.2949059999955,1637.278470899997,f,1637.2785169999988,,,1637.2785302999982,None,,,1.075107199998456,0.22964730000239797,,,,,,,,,,,,,,,,,,,,,,,,,,,,,,,,,,,00005,001,2025-11-09_16h53.39.484,MST_task,2024.2.2,60.00171604817558,2025-11-09 16h53.53.997845 +0530,
3,practice_images/037a.jpg,9,9,0,f,None,,,1.2770192000025418,0.2517379000055371,,,,,,,0,9,9,2,,,,,1637.2949059999955,,,,,,,,,,,,,,,,,,,,,,,1637.278590499991,1637.2949059999955,1637.7948785999906,1637.7786034000019,1637.7799060999969,1637.7948785999906,1637.7948785999906,1637.7948785999906,1640.7948055999877,1640.7948055999877,1640.7948055999877,1640.7784754999884,f,1640.7785238999932,,,1640.7785327999882,None,,,1.2770192000025418,0.2517379000055371,,,,,,,,,,,,,,,,,,,,,,,,,,,,,,,,,,,00005,001,2025-11-09_16h53.39.484,MST_task,2024.2.2,60.00171604817558,2025-11-09 16h53.53.997845 +0530,
,,,,,,,,,,,,,,,,,,,,,,,,,,,,,,,,,,,,,,,,,,,,,,,,,,,,,,,,,,,,,,,,,,,,,,1640.7785748999886,1640.7948055999877,1640.7948055999877,1664.77807629999,space,23.981233300000895,None,,,,,,,,,,,,,,,,,,,,,,,,,,,,00005,001,2025-11-09_16h53.39.484,MST_task,2024.2.2,60.00171604817558,2025-11-09 16h53.53.997845 +0530,
,Objects\152a.jpg,0,0,0,,,,,,,f,0.9449786999903154,0.22198330001265276,None,,,,,,,0,0,0,0,1664.7942889999977,,,,,,,,,,,,,,,,,,,,,,,1664.7786813999992,1664.7942889999977,1665.311165799998,1665.2778331000009,,,,,,,,,,,,,,,,,,,,,,,,,,1665.2937061999983,1665.311165799998,1665.311165799998,1665.311165799998,1668.2942564999976,f,0.9449786999903154,0.22198330001265276,1668.2954610000015,1668.2954744000017,None,,,,,,,,,,,,,,,,,00005,001,2025-11-09_16h53.39.484,MST_task,2024.2.2,60.00171604817558,2025-11-09 16h53.53.997845 +0530,
,Objects\186a.jpg,1,0,1,,,,,,,f,0.9787779000034789,0.27030889999878127,None,,,,,,,1,0,1,0,1668.3108918999933,,,,,,,,,,,,,,,,,,,,,,,1668.2955461999954,1668.3108918999933,1668.8109713000013,1668.7945324999891,,,,,,,,,,,,,,,,,,,,,,,,,,1668.7967075999914,1668.8109713000013,1668.8109713000013,1668.8109713000013,1671.7944700999942,f,0.9787779000034789,0.27030889999878127,1671.794512499997,1671.794521799995,None,1671.8108275999984,1671.8108275999984,1671.8108275999984,,,,,,,,,,,,,,00005,001,2025-11-09_16h53.39.484,MST_task,2024.2.2,60.00171604817558,2025-11-09 16h53.53.997845 +0530,
,Objects\107a.jpg,2,0,2,,,,,,,f,1.881102400002419,0.3563596000021789,None,,,,,,,2,0,2,0,1671.8108275999984,,,,,,,,,,,,,,,,,,,,,,,1671.7945795999985,1671.8108275999984,1672.3107952999999,1672.2944093999977,,,,,,,,,,,,,,,,,,,,,,,,,,1672.296532399996,1672.3107952999999,1672.3107952999999,1672.3107952999999,1675.2944277999923,f,1.881102400002419,0.3563596000021789,1675.2944699999935,1675.29447909999,None,1675.3107536999887,1675.3107536999887,1675.3107536999887,,,,,,,,,,,,,,00005,001,2025-11-09_16h53.39.484,MST_task,2024.2.2,60.00171604817558,2025-11-09 16h53.53.997845 +0530,
,Objects\029a.jpg,3,0,3,,,,,,,f,1.1948893999942811,0.37281190000067,None,,,,,,,3,0,3,0,1675.3107536999887,,,,,,,,,,,,,,,,,,,,,,,1675.2945585999987,1675.3107536999887,1675.8107518999896,1675.7942569000006,,,,,,,,,,,,,,,,,,,,,,,,,,1675.7963553000009,1675.8107518999896,1675.8107518999896,1675.8107518999896,1678.7942635999934,f,1.1948893999942811,0.37281190000067,1678.7943063999992,1678.7943155999965,None,1678.810721499991,1678.810721499991,1678.810721499991,,,,,,,,,,,,,,00005,001,2025-11-09_16h53.39.484,MST_task,2024.2.2,60.00171604817558,2025-11-09 16h53.53.997845 +0530,
,Objects\184a.jpg,4,0,4,,,,,,,j,1.9371623000042746,0.324590200005332,None,,,,,,,4,0,4,0,1678.810721499991,,,,,,,,,,,,,,,,,,,,,,,1678.7943854999903,1678.810721499991,1679.310651599997,1679.294178600001,,,,,,,,,,,,,,,,,,,,,,,,,,1679.296390699994,1679.310651599997,1679.310651599997,1679.310651599997,1682.294213000001,j,1.9371623000042746,0.324590200005332,1682.294257299989,1682.2942673999933,None,1682.310571599999,1682.310571599999,1682.310571599999,,,,,,,,,,,,,,00005,001,2025-11-09_16h53.39.484,MST_task,2024.2.2,60.00171604817558,2025-11-09 16h53.53.997845 +0530,
,Objects\001a.jpg,5,0,5,,,,,,,f,1.604029799986165,0.34402820000832435,None,,,,,,,5,0,5,0,1682.310571599999,,,,,,,,,,,,,,,,,,,,,,,1682.2943406999984,1682.310571599999,1682.8105686999916,1682.7941011999937,,,,,,,,,,,,,,,,,,,,,,,,,,1682.7962360999954,1682.8105686999916,1682.8105686999916,1682.8105686999916,1685.7940843999968,f,1.604029799986165,0.34402820000832435,1685.7941281999956,1685.7941374999937,None,1685.8105021999945,1685.8105021999945,1685.8105021999945,,,,,,,,,,,,,,00005,001,2025-11-09_16h53.39.484,MST_task,2024.2.2,60.00171604817558,2025-11-09 16h53.53.997845 +0530,
,Objects\132a.jpg,6,0,6,,,,,,,j,1.2292955000011716,0.32821209999383427,None,,,,,,,6,0,6,0,1685.8105021999945,,,,,,,,,,,,,,,,,,,,,,,1685.7941947999934,1685.8105021999945,1686.3104852999968,1686.2941300999955,,,,,,,,,,,,,,,,,,,,,,,,,,1686.2963973000005,1686.3104852999968,1686.3104852999968,1686.3104852999968,1689.294172199996,j,1.2292955000011716,0.32821209999383427,1689.294220099997,1689.2942304999888,None,1689.310451799989,1689.310451799989,1689.310451799989,,,,,,,,,,,,,,00005,001,2025-11-09_16h53.39.484,MST_task,2024.2.2,60.00171604817558,2025-11-09 16h53.53.997845 +0530,
,Scenes\122a.jpg,7,0,7,,,,,,,f,1.519252799989772,0.3151462000096217,None,,,,,,,7,0,7,0,1689.310451799989,,,,,,,,,,,,,,,,,,,,,,,1689.2943071999907,1689.310451799989,1689.827395299988,1689.7939381999895,,,,,,,,,,,,,,,,,,,,,,,,,,1689.8071191999916,1689.827395299988,1689.827395299988,1689.827395299988,1692.8104068999965,f,1.519252799989772,0.3151462000096217,1692.8104541999928,1692.810464299997,None,,,,,,,,,,,,,,,,,00005,001,2025-11-09_16h53.39.484,MST_task,2024.2.2,60.00171604817558,2025-11-09 16h53.53.997845 +0530,
,Scenes\107a.jpg,8,0,8,,,,,,,j,1.5166916999878595,0.32106149999890476,None,,,,,,,8,0,8,0,1692.827012499998,,,,,,,,,,,,,,,,,,,,,,,1692.8105361999915,1692.827012499998,,1693.3106267999974,,,,,,,,,,,,,,,,,,,,,,,,,,1693.3212229999917,1693.34378309999,1693.34378309999,1693.34378309999,1696.3271323999943,j,1.5166916999878595,0.32106149999890476,1696.3271837999928,1696.3271932999924,None,,,,,,,,,,,,,,,,,00005,001,2025-11-09_16h53.39.484,MST_task,2024.2.2,60.00171604817558,2025-11-09 16h53.53.997845 +0530,
,Scenes\189a.jpg,9,0,9,,,,,,,j,1.3114126000000397,0.3002559000015026,None,,,,,,,9,0,9,0,1696.3436349999974,,,,,,,,,,,,,,,,,,,,,,,1696.3272527999943,1696.3436349999974,1696.8602612999966,1696.827204199988,,,,,,,,,,,,,,,,,,,,,,,,,,1696.840480999992,1696.8602612999966,1696.8602612999966,1696.8602612999966,1699.8435739999986,j,1.3114126000000397,0.3002559000015026,1699.843621299995,1699.8436317999876,None,,,,,,,,,,,,,,,,,00005,001,2025-11-09_16h53.39.484,MST_task,2024.2.2,60.00171604817558,2025-11-09 16h53.53.997845 +0530,
,Scenes\040a.jpg,10,0,10,,,,,,,f,1.3094321999960812,0.344721200002823,None,,,,,,,10,0,10,0,1699.8602181999886,,,,,,,,,,,,,,,,,,,,,,,1699.843687799992,1699.8602181999886,1700.3601856999885,1700.343810499995,,,,,,,,,,,,,,,,,,,,,,,,,,1700.3509285999899,1700.3601856999885,1700.3601856999885,1700.3601856999885,1703.3437055999966,f,1.3094321999960812,0.344721200002823,1703.3437488999916,1703.3437591999973,None,1703.3601525999984,1703.3601525999984,1703.3601525999984,,,,,,,,,,,,,,00005,001,2025-11-09_16h53.39.484,MST_task,2024.2.2,60.00171604817558,2025-11-09 16h53.53.997845 +0530,
,Scenes\046a.jpg,11,0,11,,,,,,,j,1.1133548999932827,0.3256757000053767,None,,,,,,,11,0,11,0,1703.3601525999984,,,,,,,,,,,,,,,,,,,,,,,1703.3438281999988,1703.3601525999984,1703.8770454999903,1703.8436726999935,,,,,,,,,,,,,,,,,,,,,,,,,,1703.861125299998,1703.8770454999903,1703.8770454999903,1703.8770454999903,1706.8600709999882,j,1.1133548999932827,0.3256757000053767,1706.8601325999916,1706.860142999998,None,,,,,,,,,,,,,,,,,00005,001,2025-11-09_16h53.39.484,MST_task,2024.2.2,60.00171604817558,2025-11-09 16h53.53.997845 +0530,
,Scenes\089a.jpg,12,0,12,,,,,,,j,1.4664709999924526,0.3399984999996377,None,,,,,,,12,0,12,0,1706.8767413999885,,,,,,,,,,,,,,,,,,,,,,,1706.8602234999998,1706.8767413999885,1707.3933682999923,1707.3602850999887,,,,,,,,,,,,,,,,,,,,,,,,,,1707.3809169000015,1707.3933682999923,1707.3933682999923,1707.3933682999923,1710.3767444999976,j,1.4664709999924526,0.3399984999996377,1710.3767930999893,1710.3768032999942,None,,,,,,,,,,,,,,,,,00005,001,2025-11-09_16h53.39.484,MST_task,2024.2.2,60.00171604817558,2025-11-09 16h53.53.997845 +0530,
,Scenes\061a.jpg,13,0,13,,,,,,,j,1.7119776000035927,0.279932599994936,None,,,,,,,13,0,13,0,1710.3933295999886,,,,,,,,,,,,,,,,,,,,,,,1710.3768677999906,1710.3933295999886,1710.9103137999919,1710.8770005999977,,,,,,,,,,,,,,,,,,,,,,,,,,1710.8948118999979,1710.9103137999919,1710.9103137999919,1710.9103137999919,1713.8933905000013,j,1.7119776000035927,0.279932599994936,1713.8934434999974,1713.8934551999992,None,,,,,,,,,,,,,,,,,00005,001,2025-11-09_16h53.39.484,MST_task,2024.2.2,60.00171604817558,2025-11-09 16h53.53.997845 +0530,
,Objects\119a.jpg,14,0,14,,,,,,,f,1.7122477999946568,0.32813230001193006,None,,,,,,,14,0,14,0,1713.9099289000005,,,,,,,,,,,,,,,,,,,,,,,1713.893528399989,1713.9099289000005,1714.4098995999957,1714.3934596999898,,,,,,,,,,,,,,,,,,,,,,,,,,1714.4030230999924,1714.4098995999957,1714.4098995999957,1714.4098995999957,1717.393439499996,f,1.7122477999946568,0.32813230001193006,1717.3934807999904,1717.3934898000007,None,1717.4098500999971,1717.4098500999971,1717.4098500999971,,,,,,,,,,,,,,00005,001,2025-11-09_16h53.39.484,MST_task,2024.2.2,60.00171604817558,2025-11-09 16h53.53.997845 +0530,
,Objects\026a.jpg,15,0,15,,,,,,,f,0.7776719000103185,0.20578910000040196,None,,,,,,,15,0,15,0,1717.4098500999971,,,,,,,,,,,,,,,,,,,,,,,1717.3935568999877,1717.4098500999971,1717.9265008999937,1717.8933972999948,,,,,,,,,,,,,,,,,,,,,,,,,,1717.9095511999913,1717.9265008999937,1717.9265008999937,1717.9265008999937,1720.9098004999978,f,0.7776719000103185,0.20578910000040196,1720.9098450999882,1720.9098560999992,None,,,,,,,,,,,,,,,,,00005,001,2025-11-09_16h53.39.484,MST_task,2024.2.2,60.00171604817558,2025-11-09 16h53.53.997845 +0530,
,Objects\090a.jpg,16,0,16,,,,,,,j,0.9909863000066252,0.28238129999954253,None,,,,,,,16,0,16,0,1720.9264457999961,,,,,,,,,,,,,,,,,,,,,,,1720.909930599999,1720.9264457999961,1721.4430756999936,1721.4099605999945,,,,,,,,,,,,,,,,,,,,,,,,,,1721.426170199993,1721.4430756999936,1721.4430756999936,1721.4430756999936,1724.4265245999995,j,0.9909863000066252,0.28238129999954253,1724.4265727999882,1724.4265831999946,None,,,,,,,,,,,,,,,,,00005,001,2025-11-09_16h53.39.484,MST_task,2024.2.2,60.00171604817558,2025-11-09 16h53.53.997845 +0530,
,Objects\175a.jpg,17,0,17,,,,,,,f,0.9766860000090674,0.3207096999976784,None,,,,,,,17,0,17,0,1724.4430293999903,,,,,,,,,,,,,,,,,,,,,,,1724.4266492999886,1724.4430293999903,1724.9429776999896,1724.9265054999996,,,,,,,,,,,,,,,,,,,,,,,,,,1724.936023199989,1724.9429776999896,1724.9429776999896,1724.9429776999896,1727.9265273999918,f,0.9766860000090674,0.3207096999976784,1727.9265738999966,1727.9265839,None,1727.9429582000012,1727.9429582000012,1727.9429582000012,,,,,,,,,,,,,,00005,001,2025-11-09_16h53.39.484,MST_task,2024.2.2,60.00171604817558,2025-11-09 16h53.53.997845 +0530,
,Objects\185a.jpg,18,0,18,,,,,,,f,1.1752889000053983,0.36813750000146683,None,,,,,,,18,0,18,0,1727.9429582000012,,,,,,,,,,,,,,,,,,,,,,,1727.9266376000014,1727.9429582000012,1728.4429110999918,1728.4264465999877,,,,,,,,,,,,,,,,,,,,,,,,,,1728.4364137999946,1728.4429110999918,1728.4429110999918,1728.4429110999918,1731.4265806999902,f,1.1752889000053983,0.36813750000146683,1731.4266291999957,1731.4266389999975,None,1731.4428598999948,1731.4428598999948,1731.4428598999948,,,,,,,,,,,,,,00005,001,2025-11-09_16h53.39.484,MST_task,2024.2.2,60.00171604817558,2025-11-09 16h53.53.997845 +0530,
,Objects\131a.jpg,19,0,19,,,,,,,j,2.0212724000011804,0.2838519999932032,None,,,,,,,19,0,19,0,1731.4428598999948,,,,,,,,,,,,,,,,,,,,,,,1731.4267188999947,1731.4428598999948,1731.942836999995,1731.926494799991,,,,,,,,,,,,,,,,,,,,,,,,,,1731.9367671999935,1731.942836999995,1731.942836999995,1731.942836999995,1734.9264295999892,j,2.0212724000011804,0.2838519999932032,1734.926477000001,1734.9264866000012,None,1734.9428386999934,1734.9428386999934,1734.9428386999934,,,,,,,,,,,,,,00005,001,2025-11-09_16h53.39.484,MST_task,2024.2.2,60.00171604817558,2025-11-09 16h53.53.997845 +0530,
,Objects\156a.jpg,20,0,20,,,,,,,j,1.1015921000071103,0.28018580000207294,None,,,,,,,20,0,20,0,1734.9428386999934,,,,,,,,,,,,,,,,,,,,,,,1734.9265402999881,1734.9428386999934,1735.4427579999901,1735.4264590999956,,,,,,,,,,,,,,,,,,,,,,,,,,1735.4361766999937,1735.4427579999901,1735.4427579999901,1735.4427579999901,1738.4264320999937,j,1.1015921000071103,0.28018580000207294,1738.4264761999948,1738.4264857999951,None,1738.442719899991,1738.442719899991,1738.442719899991,,,,,,,,,,,,,,00005,001,2025-11-09_16h53.39.484,MST_task,2024.2.2,60.00171604817558,2025-11-09 16h53.53.997845 +0530,
,Scenes\080a.jpg,21,0,21,,,,,,,j,1.6009930000000168,0.26876150000316557,None,,,,,,,21,0,21,0,1738.442719899991,,,,,,,,,,,,,,,,,,,,,,,1738.4265416999988,1738.442719899991,1738.959371799996,1738.9263342999911,,,,,,,,,,,,,,,,,,,,,,,,,,1738.9377755999885,1738.959371799996,1738.959371799996,1738.959371799996,1741.942647799995,j,1.6009930000000168,0.26876150000316557,1741.9427079999878,1741.9427181999927,None,,,,,,,,,,,,,,,,,00005,001,2025-11-09_16h53.39.484,MST_task,2024.2.2,60.00171604817558,2025-11-09 16h53.53.997845 +0530,
,Scenes\035a.jpg,22,0,22,,,,,,,f,2.2065505999926245,0.303830700009712,None,,,,,,,22,0,22,0,1741.9593192999891,,,,,,,,,,,,,,,,,,,,,,,1741.9428057999903,1741.9593192999891,1742.4760091999924,1742.4428790999955,,,,,,,,,,,,,,,,,,,,,,,,,,1742.4558797999925,1742.4760091999924,1742.4760091999924,1742.4760091999924,1745.4593793999957,f,2.2065505999926245,0.303830700009712,1745.4594392,1745.4594546000008,None,,,,,,,,,,,,,,,,,00005,001,2025-11-09_16h53.39.484,MST_task,2024.2.2,60.00171604817558,2025-11-09 16h53.53.997845 +0530,
,Scenes\163a.jpg,23,0,23,,,,,,,j,0.8375227000069572,0.2841768999933265,None,,,,,,,23,0,23,0,1745.4758997999888,,,,,,,,,,,,,,,,,,,,,,,1745.4595189999964,1745.4758997999888,1745.9925234999973,1745.9594499999948,,,,,,,,,,,,,,,,,,,,,,,,,,1745.9704884999956,1745.9925234999973,1745.9925234999973,1745.9925234999973,1748.9759439999907,j,0.8375227000069572,0.2841768999933265,1748.9759964999976,1748.9760114999954,None,,,,,,,,,,,,,,,,,00005,001,2025-11-09_16h53.39.484,MST_task,2024.2.2,60.00171604817558,2025-11-09 16h53.53.997845 +0530,
,Scenes\119a.jpg,24,0,24,,,,,,,j,1.0225273999967612,0.26023450000502635,None,,,,,,,24,0,24,0,1748.9924953000009,,,,,,,,,,,,,,,,,,,,,,,1748.9761011999944,1748.9924953000009,1749.5093639999977,1749.4760436999932,,,,,,,,,,,,,,,,,,,,,,,,,,1749.497490099995,1749.5093639999977,1749.5093639999977,1749.5093639999977,1752.492419199989,j,1.0225273999967612,0.26023450000502635,1752.4924625999993,1752.4924726999889,None,,,,,,,,,,,,,,,,,00005,001,2025-11-09_16h53.39.484,MST_task,2024.2.2,60.00171604817558,2025-11-09 16h53.53.997845 +0530,
,Scenes\186a.jpg,25,0,25,,,,,,,f,2.1295835000055376,0.3113537000026554,None,,,,,,,25,0,25,0,1752.5092855999974,,,,,,,,,,,,,,,,,,,,,,,1752.4925453999895,1752.5092855999974,1753.0260411999916,1752.99263529999,,,,,,,,,,,,,,,,,,,,,,,,,,1753.009475999992,1753.0260411999916,1753.0260411999916,1753.0260411999916,1756.009042199992,f,2.1295835000055376,0.3113537000026554,1756.0091047999886,1756.0091180000018,None,,,,,,,,,,,,,,,,,00005,001,2025-11-09_16h53.39.484,MST_task,2024.2.2,60.00171604817558,2025-11-09 16h53.53.997845 +0530,
,Scenes\188a.jpg,26,0,26,,,,,,,j,1.747958199994173,0.2860077000077581,None,,,,,,,26,0,26,0,1756.0256530999904,,,,,,,,,,,,,,,,,,,,,,,1756.0091777999914,1756.0256530999904,1756.5425931999926,1756.5092363000003,,,,,,,,,,,,,,,,,,,,,,,,,,1756.5212103999947,1756.5425931999926,1756.5425931999926,1756.5425931999926,1759.5256410000002,j,1.747958199994173,0.2860077000077581,1759.5256869000004,1759.5256971999916,None,,,,,,,,,,,,,,,,,00005,001,2025-11-09_16h53.39.484,MST_task,2024.2.2,60.00171604817558,2025-11-09 16h53.53.997845 +0530,
,Scenes\185a.jpg,27,0,27,,,,,,,j,2.386415000000852,0.2797382999997353,None,,,,,,,27,0,27,0,1759.54223929999,,,,,,,,,,,,,,,,,,,,,,,1759.525754199989,1759.54223929999,1760.0422225999937,1760.0257673000015,,,,,,,,,,,,,,,,,,,,,,,,,,1760.0333249999967,1760.0422225999937,1760.0422225999937,1760.0422225999937,1763.025827199992,j,2.386415000000852,0.2797382999997353,1763.0258778999996,1763.0258876000007,None,1763.0421664999885,1763.0421664999885,1763.0421664999885,,,,,,,,,,,,,,00005,001,2025-11-09_16h53.39.484,MST_task,2024.2.2,60.00171604817558,2025-11-09 16h53.53.997845 +0530,
,Objects\031a.jpg,28,0,28,,,,,,,f,2.3159556000027806,0.292126600004849,None,,,,,,,28,0,28,0,1763.0421664999885,,,,,,,,,,,,,,,,,,,,,,,1763.0259406999976,1763.0421664999885,1763.5424606999877,1763.5258175999916,,,,,,,,,,,,,,,,,,,,,,,,,,1763.5359878000017,1763.5424606999877,1763.5424606999877,1763.5424606999877,1766.525919199994,f,2.3159556000027806,0.292126600004849,1766.5259635999973,1766.5259731999977,None,1766.5420844999899,1766.5420844999899,1766.5420844999899,,,,,,,,,,,,,,00005,001,2025-11-09_16h53.39.484,MST_task,2024.2.2,60.00171604817558,2025-11-09 16h53.53.997845 +0530,
,Objects\021a.jpg,29,0,29,,,,,,,f,1.2781499000120675,0.3361344000004465,None,,,,,,,29,0,29,0,1766.5420844999899,,,,,,,,,,,,,,,,,,,,,,,1766.5260506999912,1766.5420844999899,1767.0420744000003,1767.0256565000018,,,,,,,,,,,,,,,,,,,,,,,,,,1767.0356686999876,1767.0420744000003,1767.0420744000003,1767.0420744000003,1770.0255777999992,f,1.2781499000120675,0.3361344000004465,1770.0256181000004,1770.025627199997,None,1770.042007199998,1770.042007199998,1770.042007199998,,,,,,,,,,,,,,00005,001,2025-11-09_16h53.39.484,MST_task,2024.2.2,60.00171604817558,2025-11-09 16h53.53.997845 +0530,
,Objects\136a.jpg,30,0,30,,,,,,,f,0.9745850000035716,0.30358360000536777,None,,,,,,,30,0,30,0,1770.042007199998,,,,,,,,,,,,,,,,,,,,,,,1770.0256790999993,1770.042007199998,1770.5420274999924,1770.5255907999963,,,,,,,,,,,,,,,,,,,,,,,,,,1770.5364206999948,1770.5420274999924,1770.5420274999924,1770.5420274999924,1773.52554029999,f,0.9745850000035716,0.30358360000536777,1773.525589099998,1773.5255995999905,None,1773.541956599991,1773.541956599991,1773.541956599991,,,,,,,,,,,,,,00005,001,2025-11-09_16h53.39.484,MST_task,2024.2.2,60.00171604817558,2025-11-09 16h53.53.997845 +0530,
,Objects\141a.jpg,31,0,31,,,,,,,j,2.74465280000004,None,None,,,,,,,31,0,31,0,1773.541956599991,,,,,,,,,,,,,,,,,,,,,,,1773.5256793000008,1773.541956599991,1774.041917399998,1774.0254600999906,,,,,,,,,,,,,,,,,,,,,,,,,,1774.0362823999894,1774.041917399998,1774.041917399998,1774.041917399998,1777.0254317999934,j,2.74465280000004,None,1777.0254745999991,1777.0254846999887,None,1777.0418883999955,1777.0418883999955,1777.0418883999955,,,,,,,,,,,,,,00005,001,2025-11-09_16h53.39.484,MST_task,2024.2.2,60.00171604817558,2025-11-09 16h53.53.997845 +0530,
,Objects\189a.jpg,32,0,32,,,,,,,f,2.365852699993411,0.33917760000622366,None,,,,,,,32,0,32,0,1777.0418883999955,,,,,,,,,,,,,,,,,,,,,,,1777.0255367999926,1777.0418883999955,1777.5418464999966,1777.5255743999878,,,,,,,,,,,,,,,,,,,,,,,,,,1777.5358288999996,1777.5418464999966,1777.5418464999966,1777.5418464999966,1780.5254457999981,f,2.365852699993411,0.33917760000622366,1780.5254896999977,1780.5254990999965,None,1780.541814199998,1780.541814199998,1780.541814199998,,,,,,,,,,,,,,00005,001,2025-11-09_16h53.39.484,MST_task,2024.2.2,60.00171604817558,2025-11-09 16h53.53.997845 +0530,
,Objects\081a.jpg,33,0,33,,,,,,,j,0.8302178000012645,0.27090999999199994,None,,,,,,,33,0,33,0,1780.541814199998,,,,,,,,,,,,,,,,,,,,,,,1780.5255712999933,1780.541814199998,1781.0417708999885,1781.02526889999,,,,,,,,,,,,,,,,,,,,,,,,,,1781.035120200002,1781.0417708999885,1781.0417708999885,1781.0417708999885,1784.0254017999978,j,0.8302178000012645,0.27090999999199994,1784.0254451999936,1784.0254595000006,None,1784.0417319999979,1784.0417319999979,1784.0417319999979,,,,,,,,,,,,,,00005,001,2025-11-09_16h53.39.484,MST_task,2024.2.2,60.00171604817558,2025-11-09 16h53.53.997845 +0530,
,Objects\067a.jpg,34,0,34,,,,,,,None,,,f,0.006120999998529442,None,,,,,34,0,34,0,1784.0417319999979,,,,,,,,,,,,,,,,,,,,,,,1784.0255154999904,1784.0417319999979,1784.5417001999886,1784.5252581999957,,,,,,,,,,,,,,,,,,,,,,,,,,1784.5349843000004,1784.5417001999886,1784.5417001999886,1784.5417001999886,1787.5254179999902,None,,,1787.5254577000014,1787.558675399996,f,1787.5416546999913,1787.5416546999913,1787.5416546999913,1787.5416546999913,1787.5416546999913,0.006120999998529442,None,,,,,,,,,,00005,001,2025-11-09_16h53.39.484,MST_task,2024.2.2,60.00171604817558,2025-11-09 16h53.53.997845 +0530,
,Scenes\050a.jpg,35,0,35,,,,,,,j,1.8964578000013717,0.2877781999995932,None,,,,,,,35,0,35,0,1787.574973099996,,,,,,,,,,,,,,,,,,,,,,,1787.5587346999964,1787.574973099996,1788.075200899999,1788.0585370999906,,,,,,,,,,,,,,,,,,,,,,,,,,1788.0680390999914,1788.075200899999,1788.075200899999,1788.075200899999,1791.0584796999901,j,1.8964578000013717,0.2877781999995932,1791.0585355999938,1791.058546699991,None,1791.0748862999899,1791.0748862999899,1791.0748862999899,,,,,,,,,,,,,,00005,001,2025-11-09_16h53.39.484,MST_task,2024.2.2,60.00171604817558,2025-11-09 16h53.53.997845 +0530,
,Scenes\019a.jpg,36,0,36,,,,,,,j,1.9447882000094978,0.3420419000030961,None,,,,,,,36,0,36,0,1791.0748862999899,,,,,,,,,,,,,,,,,,,,,,,1791.0586245000013,1791.0748862999899,1791.5915741999925,1791.558455899998,,,,,,,,,,,,,,,,,,,,,,,,,,1791.5765321999934,1791.5915741999925,1791.5915741999925,1791.5915741999925,1794.5748913999996,j,1.9447882000094978,0.3420419000030961,1794.574941999992,1794.5749522999977,None,,,,,,,,,,,,,,,,,00005,001,2025-11-09_16h53.39.484,MST_task,2024.2.2,60.00171604817558,2025-11-09 16h53.53.997845 +0530,
,Scenes\023a.jpg,37,0,37,,,,,,,f,2.6399852999893483,0.30364290000579786,None,,,,,,,37,0,37,0,1794.591499999995,,,,,,,,,,,,,,,,,,,,,,,1794.5750104999897,1794.591499999995,1795.108554099992,1795.0750726999977,,,,,,,,,,,,,,,,,,,,,,,,,,1795.092227000001,1795.108554099992,1795.108554099992,1795.108554099992,1798.0915611999953,f,2.6399852999893483,0.30364290000579786,1798.0916161999921,1798.0916275999916,None,,,,,,,,,,,,,,,,,00005,001,2025-11-09_16h53.39.484,MST_task,2024.2.2,60.00171604817558,2025-11-09 16h53.53.997845 +0530,
,Scenes\079a.jpg,38,0,38,,,,,,,j,0.7574335999961477,0.2878220999991754,None,,,,,,,38,0,38,0,1798.1081055999966,,,,,,,,,,,,,,,,,,,,,,,1798.091711000001,1798.1081055999966,1798.6250105999934,1798.5915630999953,,,,,,,,,,,,,,,,,,,,,,,,,,1798.6034121999983,1798.6250105999934,1798.6250105999934,1798.6250105999934,1801.6081517999992,j,0.7574335999961477,0.2878220999991754,1801.6081999999878,1801.608210499995,None,,,,,,,,,,,,,,,,,00005,001,2025-11-09_16h53.39.484,MST_task,2024.2.2,60.00171604817558,2025-11-09 16h53.53.997845 +0530,
,Scenes\069a.jpg,39,0,39,,,,,,,j,1.4907475000072736,0.3074094000039622,None,,,,,,,39,0,39,0,1801.6246900999977,,,,,,,,,,,,,,,,,,,,,,,1801.6082870999962,1801.6246900999977,1802.1244331999915,1802.108284099988,,,,,,,,,,,,,,,,,,,,,,,,,,1802.1173588999955,1802.1244331999915,1802.1244331999915,1802.1244331999915,1805.1083075999923,j,1.4907475000072736,0.3074094000039622,1805.1083502999973,1805.1083599999984,None,1805.124616199988,1805.124616199988,1805.124616199988,,,,,,,,,,,,,,00005,001,2025-11-09_16h53.39.484,MST_task,2024.2.2,60.00171604817558,2025-11-09 16h53.53.997845 +0530,
,Scenes\182a.jpg,40,0,40,,,,,,,j,1.8834671000076924,0.34727539999585133,None,,,,,,,40,0,40,0,1805.124616199988,,,,,,,,,,,,,,,,,,,,,,,1805.1084362999973,1805.124616199988,1805.6412348000013,1805.608163699988,,,,,,,,,,,,,,,,,,,,,,,,,,1805.6202621999983,1805.6412348000013,1805.6412348000013,1805.6412348000013,1808.6245582999982,j,1.8834671000076924,0.34727539999585133,1808.6246033999923,1808.624614100001,None,,,,,,,,,,,,,,,,,00005,001,2025-11-09_16h53.39.484,MST_task,2024.2.2,60.00171604817558,2025-11-09 16h53.53.997845 +0530,
,Scenes\177a.jpg,41,0,41,,,,,,,j,2.0226221999910194,0.33164400000532623,None,,,,,,,41,0,41,0,1808.6412094999978,,,,,,,,,,,,,,,,,,,,,,,1808.62467189999,1808.6412094999978,1809.1578271999897,1809.1246582999884,,,,,,,,,,,,,,,,,,,,,,,,,,1809.1373934000003,1809.1578271999897,1809.1578271999897,1809.1578271999897,1812.1411316000012,j,2.0226221999910194,0.33164400000532623,1812.1411756000016,1812.1411854999897,None,,,,,,,,,,,,,,,,,00005,001,2025-11-09_16h53.39.484,MST_task,2024.2.2,60.00171604817558,2025-11-09 16h53.53.997845 +0530,
,Objects\024a.jpg,42,0,42,,,,,,,f,0.9001118000014685,0.44851759998709895,None,,,,,,,42,0,42,0,1812.1577997999993,,,,,,,,,,,,,,,,,,,,,,,1812.1412399999972,1812.1577997999993,,1812.6412157999875,,,,,,,,,,,,,,,,,,,,,,,,,,1812.6515641000005,1812.6580834999913,1812.6580834999913,1812.6580834999913,1815.64128299999,f,0.9001118000014685,0.44851759998709895,1815.6413337999984,1815.6413429999957,None,1815.6577317999909,1815.6577317999909,1815.6577317999909,,,,,,,,,,,,,,00005,001,2025-11-09_16h53.39.484,MST_task,2024.2.2,60.00171604817558,2025-11-09 16h53.53.997845 +0530,
,Objects\174a.jpg,43,0,43,,,,,,,f,0.6160163000022294,0.45613579999189824,None,,,,,,,43,0,43,0,1815.6577317999909,,,,,,,,,,,,,,,,,,,,,,,1815.6414230999944,1815.6577317999909,1816.1577319999924,1816.141275099988,,,,,,,,,,,,,,,,,,,,,,,,,,1816.1510122999898,1816.1577319999924,1816.1577319999924,1816.1577319999924,1819.1412125999923,f,0.6160163000022294,0.45613579999189824,1819.141260599994,1819.1412708999997,None,1819.1576447999978,1819.1576447999978,1819.1576447999978,,,,,,,,,,,,,,00005,001,2025-11-09_16h53.39.484,MST_task,2024.2.2,60.00171604817558,2025-11-09 16h53.53.997845 +0530,
,Objects\080a.jpg,44,0,44,,,,,,,f,1.826714399998309,0.40810400000191294,None,,,,,,,44,0,44,0,1819.1576447999978,,,,,,,,,,,,,,,,,,,,,,,1819.141350299993,1819.1576447999978,1819.6576437999902,1819.6412389999896,,,,,,,,,,,,,,,,,,,,,,,,,,1819.6511030999973,1819.6576437999902,1819.6576437999902,1819.6576437999902,1822.641102499998,f,1.826714399998309,0.40810400000191294,1822.6411527000018,1822.6411624999892,None,1822.6575674999913,1822.6575674999913,1822.6575674999913,,,,,,,,,,,,,,00005,001,2025-11-09_16h53.39.484,MST_task,2024.2.2,60.00171604817558,2025-11-09 16h53.53.997845 +0530,
,Objects\046a.jpg,45,0,45,,,,,,,f,1.907992499996908,0.49001890000363346,None,,,,,,,45,0,45,0,1822.6575674999913,,,,,,,,,,,,,,,,,,,,,,,1822.6412206999958,1822.6575674999913,1823.174199999994,1823.1410719999985,,,,,,,,,,,,,,,,,,,,,,,,,,1823.1588760000013,1823.174199999994,1823.174199999994,1823.174199999994,1826.157560199994,f,1.907992499996908,0.49001890000363346,1826.1576145,1826.1576264999894,None,,,,,,,,,,,,,,,,,00005,001,2025-11-09_16h53.39.484,MST_task,2024.2.2,60.00171604817558,2025-11-09 16h53.53.997845 +0530,
,Objects\192a.jpg,46,0,46,,,,,,,j,1.0898351999931037,0.3664683000097284,None,,,,,,,46,0,46,0,1826.1741609000019,,,,,,,,,,,,,,,,,,,,,,,1826.157689300002,1826.1741609000019,1826.674157299989,1826.6577440999972,,,,,,,,,,,,,,,,,,,,,,,,,,1826.6680172999913,1826.674157299989,1826.674157299989,1826.674157299989,1829.6577131999948,j,1.0898351999931037,0.3664683000097284,1829.6577622999903,1829.6577723999944,None,1829.6740860999998,1829.6740860999998,1829.6740860999998,,,,,,,,,,,,,,00005,001,2025-11-09_16h53.39.484,MST_task,2024.2.2,60.00171604817558,2025-11-09 16h53.53.997845 +0530,
,Objects\027a.jpg,47,0,47,,,,,,,j,2.0316103999939514,0.36363510000228416,None,,,,,,,47,0,47,0,1829.6740860999998,,,,,,,,,,,,,,,,,,,,,,,1829.657828299998,1829.6740860999998,1830.1907539999956,1830.1576788999955,,,,,,,,,,,,,,,,,,,,,,,,,,1830.173303299991,1830.1907539999956,1830.1907539999956,1830.1907539999956,1833.1740419999987,j,2.0316103999939514,0.36363510000228416,1833.174085199993,1833.1740957000002,None,,,,,,,,,,,,,,,,,00005,001,2025-11-09_16h53.39.484,MST_task,2024.2.2,60.00171604817558,2025-11-09 16h53.53.997845 +0530,
,Objects\064a.jpg,48,0,48,,,,,,,j,1.6245313999970676,0.32247460000508,None,,,,,,,48,0,48,0,1833.190677599996,,,,,,,,,,,,,,,,,,,,,,,1833.1741538999922,1833.190677599996,,1833.6741598999943,,,,,,,,,,,,,,,,,,,,,,,,,,1833.6839987999992,1833.6906954000005,1833.6906954000005,1833.6906954000005,1836.6743590999977,j,1.6245313999970676,0.32247460000508,1836.6744053000002,1836.6744136999914,None,1836.690624499999,1836.690624499999,1836.690624499999,,,,,,,,,,,,,,00005,001,2025-11-09_16h53.39.484,MST_task,2024.2.2,60.00171604817558,2025-11-09 16h53.53.997845 +0530,
,Scenes\018a.jpg,49,0,49,,,,,,,j,2.5829720000037923,0.3358408999920357,None,,,,,,,49,0,49,0,1836.690624499999,,,,,,,,,,,,,,,,,,,,,,,1836.6744972999877,1836.690624499999,1837.2072285999893,1837.1742057999945,,,,,,,,,,,,,,,,,,,,,,,,,,1837.1862009999895,1837.2072285999893,1837.2072285999893,1837.2072285999893,1840.1905666999955,j,2.5829720000037923,0.3358408999920357,1840.1906158999918,1840.1906267999875,None,,,,,,,,,,,,,,,,,00005,001,2025-11-09_16h53.39.484,MST_task,2024.2.2,60.00171604817558,2025-11-09 16h53.53.997845 +0530,
,Scenes\086a.jpg,50,0,50,,,,,,,j,2.1808400000008987,0.3790272000042023,None,,,,,,,50,0,50,0,1840.2071885999903,,,,,,,,,,,,,,,,,,,,,,,1840.1906879000016,1840.2071885999903,1840.7238144000003,1840.6907613999938,,,,,,,,,,,,,,,,,,,,,,,,,,1840.7042930999887,1840.7238144000003,1840.7238144000003,1840.7238144000003,1843.707116199992,j,2.1808400000008987,0.3790272000042023,1843.7071641999937,1843.707174700001,None,,,,,,,,,,,,,,,,,00005,001,2025-11-09_16h53.39.484,MST_task,2024.2.2,60.00171604817558,2025-11-09 16h53.53.997845 +0530,
,Scenes\008a.jpg,51,0,51,,,,,,,f,1.7197945000079926,0.3923824999947101,None,,,,,,,51,0,51,0,1843.7237836999993,,,,,,,,,,,,,,,,,,,,,,,1843.707233699999,1843.7237836999993,1844.2405710999883,1844.207248199993,,,,,,,,,,,,,,,,,,,,,,,,,,1844.223513399993,1844.2405710999883,1844.2405710999883,1844.2405710999883,1847.2238440999936,f,1.7197945000079926,0.3923824999947101,1847.2239216999878,1847.223936800001,None,,,,,,,,,,,,,,,,,00005,001,2025-11-09_16h53.39.484,MST_task,2024.2.2,60.00171604817558,2025-11-09 16h53.53.997845 +0530,
,Scenes\130a.jpg,52,0,52,,,,,,,j,1.3023180000018328,0.29060649999883026,None,,,,,,,52,0,52,0,1847.2403616999945,,,,,,,,,,,,,,,,,,,,,,,1847.2239990999951,1847.2403616999945,1847.7572274999984,1847.7239974999975,,,,,,,,,,,,,,,,,,,,,,,,,,1847.7389489999914,1847.7572274999984,1847.7572274999984,1847.7572274999984,1850.7402880000009,j,1.3023180000018328,0.29060649999883026,1850.740336799994,1850.7403468999983,None,,,,,,,,,,,,,,,,,00005,001,2025-11-09_16h53.39.484,MST_task,2024.2.2,60.00171604817558,2025-11-09 16h53.53.997845 +0530,
,Scenes\045a.jpg,53,0,53,,,,,,,j,0.7139395000122022,0.2808418999920832,None,,,,,,,53,0,53,0,1850.756958699989,,,,,,,,,,,,,,,,,,,,,,,1850.7404034999927,1850.756958699989,1851.2737971999886,1851.2404026000004,,,,,,,,,,,,,,,,,,,,,,,,,,1851.2627554999926,1851.2737971999886,1851.2737971999886,1851.2737971999886,1854.2569280999887,j,0.7139395000122022,0.2808418999920832,1854.256972999996,1854.2569832000008,None,,,,,,,,,,,,,,,,,00005,001,2025-11-09_16h53.39.484,MST_task,2024.2.2,60.00171604817558,2025-11-09 16h53.53.997845 +0530,
,Scenes\129a.jpg,54,0,54,,,,,,,j,0.8086564999975963,0.2913361000100849,None,,,,,,,54,0,54,0,1854.2735172999965,,,,,,,,,,,,,,,,,,,,,,,1854.2570437999966,1854.2735172999965,1854.7737019999913,1854.757010100002,,,,,,,,,,,,,,,,,,,,,,,,,,1854.7657972999878,1854.7737019999913,1854.7737019999913,1854.7737019999913,1857.7570363999985,j,0.8086564999975963,0.2913361000100849,1857.7570822999987,1857.7570959000004,None,1857.773480399992,1857.773480399992,1857.773480399992,,,,,,,,,,,,,,00005,001,2025-11-09_16h53.39.484,MST_task,2024.2.2,60.00171604817558,2025-11-09 16h53.53.997845 +0530,
,Scenes\154a.jpg,55,0,55,,,,,,,j,1.768330099992454,0.28822720001335256,None,,,,,,,55,0,55,0,1857.773480399992,,,,,,,,,,,,,,,,,,,,,,,1857.7571510999987,1857.773480399992,1858.2901033999951,1858.2569411000004,,,,,,,,,,,,,,,,,,,,,,,,,,1858.2717227999965,1858.2901033999951,1858.2901033999951,1858.2901033999951,1861.273564099989,j,1.768330099992454,0.28822720001335256,1861.2736368999904,1861.2736473999976,None,,,,,,,,,,,,,,,,,00005,001,2025-11-09_16h53.39.484,MST_task,2024.2.2,60.00171604817558,2025-11-09 16h53.53.997845 +0530,
,Objects\161a.jpg,56,0,56,,,,,,,j,0.943355800001882,0.31436910000047646,None,,,,,,,56,0,56,0,1861.2900369999988,,,,,,,,,,,,,,,,,,,,,,,1861.2737297999993,1861.2900369999988,1861.7902534999885,1861.7736568999971,,,,,,,,,,,,,,,,,,,,,,,,,,1861.7840555000002,1861.7902534999885,1861.7902534999885,1861.7902534999885,1864.7735409999877,j,0.943355800001882,0.31436910000047646,1864.773586700001,1864.7735964999883,None,1864.7899589000008,1864.7899589000008,1864.7899589000008,,,,,,,,,,,,,,00005,001,2025-11-09_16h53.39.484,MST_task,2024.2.2,60.00171604817558,2025-11-09 16h53.53.997845 +0530,
,Objects\099a.jpg,57,0,57,,,,,,,f,1.966023100001621,0.4037021999974968,None,,,,,,,57,0,57,0,1864.7899589000008,,,,,,,,,,,,,,,,,,,,,,,1864.7736520999897,1864.7899589000008,1865.2899390999955,1865.2734889999992,,,,,,,,,,,,,,,,,,,,,,,,,,1865.285188599999,1865.2899390999955,1865.2899390999955,1865.2899390999955,1868.2735212999978,f,1.966023100001621,0.4037021999974968,1868.2735685999942,1868.2735786999983,None,1868.2899128999998,1868.2899128999998,1868.2899128999998,,,,,,,,,,,,,,00005,001,2025-11-09_16h53.39.484,MST_task,2024.2.2,60.00171604817558,2025-11-09 16h53.53.997845 +0530,
,Objects\091a.jpg,58,0,58,,,,,,,j,1.7913990000088234,0.3204163999907905,None,,,,,,,58,0,58,0,1868.2899128999998,,,,,,,,,,,,,,,,,,,,,,,1868.273640799991,1868.2899128999998,1868.806543300001,1868.7734349999955,,,,,,,,,,,,,,,,,,,,,,,,,,1868.7901042000012,1868.806543300001,1868.806543300001,1868.806543300001,1871.7898612999998,j,1.7913990000088234,0.3204163999907905,1871.789920299998,1871.7899310999928,None,,,,,,,,,,,,,,,,,00005,001,2025-11-09_16h53.39.484,MST_task,2024.2.2,60.00171604817558,2025-11-09 16h53.53.997845 +0530,
,Objects\040a.jpg,59,0,59,,,,,,,f,0.8921496999973897,0.3955007000040496,None,,,,,,,59,0,59,0,1871.8064789999917,,,,,,,,,,,,,,,,,,,,,,,1871.7900110999908,1871.8064789999917,1872.306457499988,1872.2900817999907,,,,,,,,,,,,,,,,,,,,,,,,,,1872.3014720999927,1872.306457499988,1872.306457499988,1872.306457499988,1875.2899818000005,f,0.8921496999973897,0.3955007000040496,1875.2900255999994,1875.290035500002,None,1875.3064007999928,1875.3064007999928,1875.3064007999928,,,,,,,,,,,,,,00005,001,2025-11-09_16h53.39.484,MST_task,2024.2.2,60.00171604817558,2025-11-09 16h53.53.997845 +0530,
,Objects\003a.jpg,60,0,60,,,,,,,j,1.3913746000034735,0.3135366999922553,None,,,,,,,60,0,60,0,1875.3064007999928,,,,,,,,,,,,,,,,,,,,,,,1875.2900916999934,1875.3064007999928,1875.8065025999967,1875.7899623999983,,,,,,,,,,,,,,,,,,,,,,,,,,1875.800959100001,1875.8065025999967,1875.8065025999967,1875.8065025999967,1878.7899017000018,j,1.3913746000034735,0.3135366999922553,1878.789946399993,1878.7899572999886,None,1878.8063468999899,1878.8063468999899,1878.8063468999899,,,,,,,,,,,,,,00005,001,2025-11-09_16h53.39.484,MST_task,2024.2.2,60.00171604817558,2025-11-09 16h53.53.997845 +0530,
,Objects\089a.jpg,61,0,61,,,,,,,f,1.5575806999986526,0.2958585000014864,None,,,,,,,61,0,61,0,1878.8063468999899,,,,,,,,,,,,,,,,,,,,,,,1878.7900100999977,1878.8063468999899,1879.3231019999948,1879.2898075999983,,,,,,,,,,,,,,,,,,,,,,,,,,1879.3088081999886,1879.3231019999948,1879.3231019999948,1879.3231019999948,1882.3063062,f,1.5575806999986526,0.2958585000014864,1882.3063533999957,1882.3063632999983,None,,,,,,,,,,,,,,,,,00005,001,2025-11-09_16h53.39.484,MST_task,2024.2.2,60.00171604817558,2025-11-09 16h53.53.997845 +0530,
,Objects\047a.jpg,62,0,62,,,,,,,f,0.7761547999980394,0.36676350000198,None,,,,,,,62,0,62,0,1882.3229084999912,,,,,,,,,,,,,,,,,,,,,,,1882.3064372999943,1882.3229084999912,1882.8229100999888,1882.8064654999907,,,,,,,,,,,,,,,,,,,,,,,,,,1882.817049099991,1882.8229100999888,1882.8229100999888,1882.8229100999888,1885.8064697999944,f,0.7761547999980394,0.36676350000198,1885.8065170999907,1885.8065268999926,None,1885.8228621999879,1885.8228621999879,1885.8228621999879,,,,,,,,,,,,,,00005,001,2025-11-09_16h53.39.484,MST_task,2024.2.2,60.00171604817558,2025-11-09 16h53.53.997845 +0530,
,Scenes\147a.jpg,63,0,63,,,,,,,j,0.9985252000042237,0.3020332000014605,None,,,,,,,63,0,63,0,1885.8228621999879,,,,,,,,,,,,,,,,,,,,,,,1885.8066027999885,1885.8228621999879,1886.3395339999988,1886.306425799994,,,,,,,,,,,,,,,,,,,,,,,,,,1886.3221580999962,1886.3395339999988,1886.3395339999988,1886.3395339999988,1889.3228483999992,j,0.9985252000042237,0.3020332000014605,1889.322891799995,1889.3229019999999,None,,,,,,,,,,,,,,,,,00005,001,2025-11-09_16h53.39.484,MST_task,2024.2.2,60.00171604817558,2025-11-09 16h53.53.997845 +0530,
,Scenes\134a.jpg,64,0,64,,,,,,,j,1.343537799999467,0.3330112000112422,None,,,,,,,64,0,64,0,1889.3394229999976,,,,,,,,,,,,,,,,,,,,,,,1889.3229766000004,1889.3394229999976,1889.8562801999942,1889.8229509999946,,,,,,,,,,,,,,,,,,,,,,,,,,1889.835638199991,1889.8562801999942,1889.8562801999942,1889.8562801999942,1892.8393882999953,j,1.343537799999467,0.3330112000112422,1892.8394310000003,1892.8394413999922,None,,,,,,,,,,,,,,,,,00005,001,2025-11-09_16h53.39.484,MST_task,2024.2.2,60.00171604817558,2025-11-09 16h53.53.997845 +0530,
,Scenes\092a.jpg,65,0,65,,,,,,,j,1.9879068000009283,0.3090439000079641,None,,,,,,,65,0,65,0,1892.856043599997,,,,,,,,,,,,,,,,,,,,,,,1892.839516699998,1892.856043599997,1893.3726928999968,1893.3394617000013,,,,,,,,,,,,,,,,,,,,,,,,,,1893.3570182999974,1893.3726928999968,1893.3726928999968,1893.3726928999968,1896.3560002000013,j,1.9879068000009283,0.3090439000079641,1896.3560613000009,1896.356071199989,None,,,,,,,,,,,,,,,,,00005,001,2025-11-09_16h53.39.484,MST_task,2024.2.2,60.00171604817558,2025-11-09 16h53.53.997845 +0530,
,Scenes\166a.jpg,66,0,66,,,,,,,j,1.1879312000091886,0.29187269999238197,None,,,,,,,66,0,66,0,1896.372646399992,,,,,,,,,,,,,,,,,,,,,,,1896.3561309999932,1896.372646399992,1896.8722512999957,1896.8561875000014,,,,,,,,,,,,,,,,,,,,,,,,,,1896.8651912999921,1896.8722512999957,1896.8722512999957,1896.8722512999957,1899.8561271999934,j,1.1879312000091886,0.29187269999238197,1899.8561685999885,1899.856178099988,None,1899.8725638999895,1899.8725638999895,1899.8725638999895,,,,,,,,,,,,,,00005,001,2025-11-09_16h53.39.484,MST_task,2024.2.2,60.00171604817558,2025-11-09 16h53.53.997845 +0530,
,Scenes\120a.jpg,67,0,67,,,,,,,j,1.2902443999919342,0.21889220000593923,None,,,,,,,67,0,67,0,1899.8725638999895,,,,,,,,,,,,,,,,,,,,,,,1899.8562304999941,1899.8725638999895,1900.3894341999985,1900.356100799996,,,,,,,,,,,,,,,,,,,,,,,,,,1900.37384629999,1900.3894341999985,1900.3894341999985,1900.3894341999985,1903.3725083999889,j,1.2902443999919342,0.21889220000593923,1903.3725782999973,1903.3725935999973,None,,,,,,,,,,,,,,,,,00005,001,2025-11-09_16h53.39.484,MST_task,2024.2.2,60.00171604817558,2025-11-09 16h53.53.997845 +0530,
,Scenes\071a.jpg,68,0,68,,,,,,,f,2.741848299992853,None,None,,,,,,,68,0,68,0,1903.389148000002,,,,,,,,,,,,,,,,,,,,,,,1903.3726715999946,1903.389148000002,1903.9059704999963,1903.8728068999917,,,,,,,,,,,,,,,,,,,,,,,,,,1903.885890599995,1903.9059704999963,1903.9059704999963,1903.9059704999963,1906.8892092999886,f,2.741848299992853,None,1906.8892874000012,1906.8892980999954,None,,,,,,,,,,,,,,,,,00005,001,2025-11-09_16h53.39.484,MST_task,2024.2.2,60.00171604817558,2025-11-09 16h53.53.997845 +0530,
,Scenes\001a.jpg,69,0,69,,,,,,,f,0.9817615999927511,0.3762764000130119,None,,,,,,,69,0,69,0,1906.9057407999935,,,,,,,,,,,,,,,,,,,,,,,1906.8893582000019,1906.9057407999935,1907.4226089000003,1907.389284399993,,,,,,,,,,,,,,,,,,,,,,,,,,1907.4126850999892,1907.4226089000003,1907.4226089000003,1907.4226089000003,1910.4057392999966,f,0.9817615999927511,0.3762764000130119,1910.4057843999908,1910.4057949999988,None,,,,,,,,,,,,,,,,,00005,001,2025-11-09_16h53.39.484,MST_task,2024.2.2,60.00171604817558,2025-11-09 16h53.53.997845 +0530,
,Objects\172a.jpg,70,0,70,,,,,,,j,0.7993680000072345,0.2998035000055097,None,,,,,,,70,0,70,0,1910.4223297999997,,,,,,,,,,,,,,,,,,,,,,,1910.4058722999907,1910.4223297999997,1910.922581699997,1910.9059056999977,,,,,,,,,,,,,,,,,,,,,,,,,,1910.9162527000008,1910.922581699997,1910.922581699997,1910.922581699997,1913.9059781999968,j,0.7993680000072345,0.2998035000055097,1913.9060197999934,1913.9060294999945,None,1913.9222632999881,1913.9222632999881,1913.9222632999881,,,,,,,,,,,,,,00005,001,2025-11-09_16h53.39.484,MST_task,2024.2.2,60.00171604817558,2025-11-09 16h53.53.997845 +0530,
,Objects\155a.jpg,71,0,71,,,,,,,None,,,j,0.09698960000241641,None,,,,,71,0,71,0,1913.9222632999881,,,,,,,,,,,,,,,,,,,,,,,1913.9060983999952,1913.9222632999881,1914.4388947999978,1914.405743299998,,,,,,,,,,,,,,,,,,,,,,,,,,1914.4216994000017,1914.4388947999978,1914.4388947999978,1914.4388947999978,1917.42224059999,None,,,1917.4222831999941,1917.5391354999883,j,,,,1917.4389244999911,1917.4389244999911,0.09698960000241641,None,,,,,,,,,,00005,001,2025-11-09_16h53.39.484,MST_task,2024.2.2,60.00171604817558,2025-11-09 16h53.53.997845 +0530,
,Objects\011a.jpg,72,0,72,,,,,,,f,1.78844589999062,0.3405271000083303,None,,,,,,,72,0,72,0,1917.5555236999935,,,,,,,,,,,,,,,,,,,,,,,1917.5392349999893,1917.5555236999935,1918.0554966999916,1918.0389723999979,,,,,,,,,,,,,,,,,,,,,,,,,,1918.0487543999916,1918.0554966999916,1918.0554966999916,1918.0554966999916,1921.038981699996,f,1.78844589999062,0.3405271000083303,1921.039024400001,1921.039034299989,None,1921.0554354999913,1921.0554354999913,1921.0554354999913,,,,,,,,,,,,,,00005,001,2025-11-09_16h53.39.484,MST_task,2024.2.2,60.00171604817558,2025-11-09 16h53.53.997845 +0530,
,Objects\163a.jpg,73,0,73,,,,,,,j,1.3465580999909434,0.3206044000107795,None,,,,,,,73,0,73,0,1921.0554354999913,,,,,,,,,,,,,,,,,,,,,,,1921.0390874000004,1921.0554354999913,1921.5553957999946,1921.5390192999912,,,,,,,,,,,,,,,,,,,,,,,,,,1921.548985699992,1921.5553957999946,1921.5553957999946,1921.5553957999946,1924.538945399996,j,1.3465580999909434,0.3206044000107795,1924.5389891999948,1924.5389983999921,None,1924.5553658999997,1924.5553658999997,1924.5553658999997,,,,,,,,,,,,,,00005,001,2025-11-09_16h53.39.484,MST_task,2024.2.2,60.00171604817558,2025-11-09 16h53.53.997845 +0530,
,Objects\125a.jpg,74,0,74,,,,,,,j,0.9712407000042731,0.3126744999899529,None,,,,,,,74,0,74,0,1924.5553658999997,,,,,,,,,,,,,,,,,,,,,,,1924.539055199988,1924.5553658999997,1925.055320799991,1925.0388358999917,,,,,,,,,,,,,,,,,,,,,,,,,,1925.0485872999998,1925.055320799991,1925.055320799991,1925.055320799991,1928.0388562000007,j,0.9712407000042731,0.3126744999899529,1928.038903499997,1928.0389124999929,None,1928.0552948999975,1928.0552948999975,1928.0552948999975,,,,,,,,,,,,,,00005,001,2025-11-09_16h53.39.484,MST_task,2024.2.2,60.00171604817558,2025-11-09 16h53.53.997845 +0530,
,Objects\160a.jpg,75,0,75,,,,,,,j,1.5883700999984285,0.3874729999952251,None,,,,,,,75,0,75,0,1928.0552948999975,,,,,,,,,,,,,,,,,,,,,,,1928.0389840999997,1928.0552948999975,1928.5719648999948,1928.5387844999932,,,,,,,,,,,,,,,,,,,,,,,,,,1928.554676899992,1928.5719648999948,1928.5719648999948,1928.5719648999948,1931.5552721999993,j,1.5883700999984285,0.3874729999952251,1931.5553215999971,1931.555332799995,None,,,,,,,,,,,,,,,,,00005,001,2025-11-09_16h53.39.484,MST_task,2024.2.2,60.00171604817558,2025-11-09 16h53.53.997845 +0530,
,Objects\052a.jpg,76,0,76,,,,,,,f,2.1300476000033086,0.4382731999940006,None,,,,,,,76,0,76,0,1931.5719086999889,,,,,,,,,,,,,,,,,,,,,,,1931.5553904999979,1931.5719086999889,1932.0718293999962,1932.0553585999878,,,,,,,,,,,,,,,,,,,,,,,,,,1932.0649583999912,1932.0718293999962,1932.0718293999962,1932.0718293999962,1935.055417999989,f,2.1300476000033086,0.4382731999940006,1935.0554635000008,1935.055472699998,None,1935.0718005999952,1935.0718005999952,1935.0718005999952,,,,,,,,,,,,,,00005,001,2025-11-09_16h53.39.484,MST_task,2024.2.2,60.00171604817558,2025-11-09 16h53.53.997845 +0530,
,Scenes\104a.jpg,77,0,77,,,,,,,j,1.7709170000016456,0.3326704999926733,None,,,,,,,77,0,77,0,1935.0718005999952,,,,,,,,,,,,,,,,,,,,,,,1935.0555324000015,1935.0718005999952,1935.5887790999986,1935.5552785999898,,,,,,,,,,,,,,,,,,,,,,,,,,1935.5734802999941,1935.5887790999986,1935.5887790999986,1935.5887790999986,1938.571915499997,j,1.7709170000016456,0.3326704999926733,1938.5719627999933,1938.571976399995,None,,,,,,,,,,,,,,,,,00005,001,2025-11-09_16h53.39.484,MST_task,2024.2.2,60.00171604817558,2025-11-09 16h53.53.997845 +0530,
,Scenes\065a.jpg,78,0,78,,,,,,,j,1.2314225000009174,0.32788300000538584,None,,,,,,,78,0,78,0,1938.5884741999907,,,,,,,,,,,,,,,,,,,,,,,1938.5720352999924,1938.5884741999907,1939.1051907999936,1939.0718639999977,,,,,,,,,,,,,,,,,,,,,,,,,,1939.0839553999976,1939.1051907999936,1939.1051907999936,1939.1051907999936,1942.088343899988,j,1.2314225000009174,0.32788300000538584,1942.0883983999956,1942.088407999996,None,,,,,,,,,,,,,,,,,00005,001,2025-11-09_16h53.39.484,MST_task,2024.2.2,60.00171604817558,2025-11-09 16h53.53.997845 +0530,
,Scenes\058a.jpg,79,0,79,,,,,,,f,0.9864788999984739,0.38832189999811817,None,,,,,,,79,0,79,0,1942.104975299997,,,,,,,,,,,,,,,,,,,,,,,1942.0884904999984,1942.104975299997,1942.6216107999935,1942.5884699000017,,,,,,,,,,,,,,,,,,,,,,,,,,1942.6004268999968,1942.6216107999935,1942.6216107999935,1942.6216107999935,1945.604964099999,f,0.9864788999984739,0.38832189999811817,1945.6050139,1945.6050244999933,None,,,,,,,,,,,,,,,,,00005,001,2025-11-09_16h53.39.484,MST_task,2024.2.2,60.00171604817558,2025-11-09 16h53.53.997845 +0530,
,Scenes\004a.jpg,80,0,80,,,,,,,j,0.8208293000061531,0.32751800000551157,None,,,,,,,80,0,80,0,1945.621540299995,,,,,,,,,,,,,,,,,,,,,,,1945.6051081999904,1945.621540299995,1946.1382015999989,1946.105056100001,,,,,,,,,,,,,,,,,,,,,,,,,,1946.1179753999895,1946.1382015999989,1946.1382015999989,1946.1382015999989,1949.1215669999947,j,0.8208293000061531,0.32751800000551157,1949.1216200999916,1949.1216340999963,None,,,,,,,,,,,,,,,,,00005,001,2025-11-09_16h53.39.484,MST_task,2024.2.2,60.00171604817558,2025-11-09 16h53.53.997845 +0530,
,Scenes\127a.jpg,81,0,81,,,,,,,j,1.0067168999958085,0.35435720000532456,None,,,,,,,81,0,81,0,1949.1381306999974,,,,,,,,,,,,,,,,,,,,,,,1949.1217218999955,1949.1381306999974,1949.6549272999982,1949.6217742000008,,,,,,,,,,,,,,,,,,,,,,,,,,1949.63379539999,1949.6549272999982,1949.6549272999982,1949.6549272999982,1952.6382314999937,j,1.0067168999958085,0.35435720000532456,1952.6383052999881,1952.6383159999968,None,,,,,,,,,,,,,,,,,00005,001,2025-11-09_16h53.39.484,MST_task,2024.2.2,60.00171604817558,2025-11-09 16h53.53.997845 +0530,
,Scenes\150a.jpg,82,0,82,,,,,,,j,2.1929374000028474,0.33142670000961516,None,,,,,,,82,0,82,0,1952.6547528999945,,,,,,,,,,,,,,,,,,,,,,,1952.6383932999888,1952.6547528999945,1953.1714121999976,1953.138235899998,,,,,,,,,,,,,,,,,,,,,,,,,,1953.1509822999942,1953.1714121999976,1953.1714121999976,1953.1714121999976,1956.1547713999898,j,2.1929374000028474,0.33142670000961516,1956.1548404999921,1956.1548504999955,None,,,,,,,,,,,,,,,,,00005,001,2025-11-09_16h53.39.484,MST_task,2024.2.2,60.00171604817558,2025-11-09 16h53.53.997845 +0530,
,Scenes\100a.jpg,83,0,83,,,,,,,f,1.3338975999940885,0.4827676999993855,None,,,,,,,83,0,83,0,1956.1713416999992,,,,,,,,,,,,,,,,,,,,,,,1956.1549296000012,1956.1713416999992,1956.687996099994,1956.6548252999928,,,,,,,,,,,,,,,,,,,,,,,,,,1956.667734799994,1956.687996099994,1956.687996099994,1956.687996099994,1959.6712951999943,f,1.3338975999940885,0.4827676999993855,1959.6713401999878,1959.6713505999942,None,,,,,,,,,,,,,,,,,00005,001,2025-11-09_16h53.39.484,MST_task,2024.2.2,60.00171604817558,2025-11-09 16h53.53.997845 +0530,
,Objects\102a.jpg,84,0,84,,,,,,,f,0.8355101000051945,0.40949159998854157,None,,,,,,,84,0,84,0,1959.6879303999885,,,,,,,,,,,,,,,,,,,,,,,1959.6714280000015,1959.6879303999885,1960.1883262999909,1960.171405599991,,,,,,,,,,,,,,,,,,,,,,,,,,1960.1820745000005,1960.1883262999909,1960.1883262999909,1960.1883262999909,1963.1715280999924,f,0.8355101000051945,0.40949159998854157,1963.1715706999967,1963.1715795999917,None,1963.18786179999,1963.18786179999,1963.18786179999,,,,,,,,,,,,,,00005,001,2025-11-09_16h53.39.484,MST_task,2024.2.2,60.00171604817558,2025-11-09 16h53.53.997845 +0530,
,Objects\075a.jpg,85,0,85,,,,,,,f,0.7217988000047626,0.3687489000003552,None,,,,,,,85,0,85,0,1963.18786179999,,,,,,,,,,,,,,,,,,,,,,,1963.1716326999885,1963.18786179999,1963.6878567999956,1963.6713702999987,,,,,,,,,,,,,,,,,,,,,,,,,,1963.6812166000018,1963.6878567999956,1963.6878567999956,1963.6878567999956,1966.6713549999986,f,0.7217988000047626,0.3687489000003552,1966.671398999999,1966.6714080999955,None,1966.6877814999898,1966.6877814999898,1966.6877814999898,,,,,,,,,,,,,,00005,001,2025-11-09_16h53.39.484,MST_task,2024.2.2,60.00171604817558,2025-11-09 16h53.53.997845 +0530,
,Objects\044a.jpg,86,0,86,,,,,,,j,2.635487600011402,0.32264779999968596,None,,,,,,,86,0,86,0,1966.6877814999898,,,,,,,,,,,,,,,,,,,,,,,1966.6714790999977,1966.6877814999898,1967.204406799996,1967.1713736999955,,,,,,,,,,,,,,,,,,,,,,,,,,1967.1894160999946,1967.204406799996,1967.204406799996,1967.204406799996,1970.1878024999896,j,2.635487600011402,0.32264779999968596,1970.1878474999976,1970.1878583999933,None,,,,,,,,,,,,,,,,,00005,001,2025-11-09_16h53.39.484,MST_task,2024.2.2,60.00171604817558,2025-11-09 16h53.53.997845 +0530,
,Objects\190a.jpg,87,0,87,,,,,,,j,1.872190900001442,0.3236774999968475,None,,,,,,,87,0,87,0,1970.2044376999984,,,,,,,,,,,,,,,,,,,,,,,1970.1879155999923,1970.2044376999984,1970.7043794999918,1970.6878761999978,,,,,,,,,,,,,,,,,,,,,,,,,,1970.6974898999906,1970.7043794999918,1970.7043794999918,1970.7043794999918,1973.6879317999992,j,1.872190900001442,0.3236774999968475,1973.687976000001,1973.6879856999876,None,1973.7043011999922,1973.7043011999922,1973.7043011999922,,,,,,,,,,,,,,00005,001,2025-11-09_16h53.39.484,MST_task,2024.2.2,60.00171604817558,2025-11-09 16h53.53.997845 +0530,
,Objects\188a.jpg,88,0,88,,,,,,,f,1.2493526000034763,0.451671200004057,None,,,,,,,88,0,88,0,1973.7043011999922,,,,,,,,,,,,,,,,,,,,,,,1973.6880400999944,1973.7043011999922,1974.220927199989,1974.187785000002,,,,,,,,,,,,,,,,,,,,,,,,,,1974.2069540999946,1974.220927199989,1974.220927199989,1974.220927199989,1977.2043135999993,f,1.2493526000034763,0.451671200004057,1977.2043578000012,1977.2043680999923,None,,,,,,,,,,,,,,,,,00005,001,2025-11-09_16h53.39.484,MST_task,2024.2.2,60.00171604817558,2025-11-09 16h53.53.997845 +0530,
,Objects\104a.jpg,89,0,89,,,,,,,f,0.8224048999982188,0.44631110000773333,None,,,,,,,89,0,89,0,1977.2208905000007,,,,,,,,,,,,,,,,,,,,,,,1977.204444099989,1977.2208905000007,1977.7375277999963,1977.7043589999957,,,,,,,,,,,,,,,,,,,,,,,,,,1977.719810900002,1977.7375277999963,1977.7375277999963,1977.7375277999963,1980.7208694,f,0.8224048999982188,0.44631110000773333,1980.7209180999926,1980.7209288000013,None,,,,,,,,,,,,,,,,,00005,001,2025-11-09_16h53.39.484,MST_task,2024.2.2,60.00171604817558,2025-11-09 16h53.53.997845 +0530,
,Objects\055a.jpg,90,0,90,,,,,,,f,0.8727773999999044,0.39232739999715704,None,,,,,,,90,0,90,0,1980.7374780999962,,,,,,,,,,,,,,,,,,,,,,,1980.7210030999995,1980.7374780999962,1981.2375094000017,1981.2210863999935,,,,,,,,,,,,,,,,,,,,,,,,,,1981.2311309999932,1981.2375094000017,1981.2375094000017,1981.2375094000017,1984.2209979999898,f,0.8727773999999044,0.39232739999715704,1984.2210418999894,1984.2210516999912,None,1984.237448999993,1984.237448999993,1984.237448999993,,,,,,,,,,,,,,00005,001,2025-11-09_16h53.39.484,MST_task,2024.2.2,60.00171604817558,2025-11-09 16h53.53.997845 +0530,
,Scenes\036a.jpg,91,0,91,,,,,,,j,0.9023250000027474,0.40410119999432936,None,,,,,,,91,0,91,0,1984.237448999993,,,,,,,,,,,,,,,,,,,,,,,1984.2211091999925,1984.237448999993,1984.7376513999916,1984.7208759999921,,,,,,,,,,,,,,,,,,,,,,,,,,1984.7283712999924,1984.7376513999916,1984.7376513999916,1984.7376513999916,1987.720876499996,j,0.9023250000027474,0.40410119999432936,1987.7209214999893,1987.7209316999943,None,1987.7373360999918,1987.7373360999918,1987.7373360999918,,,,,,,,,,,,,,00005,001,2025-11-09_16h53.39.484,MST_task,2024.2.2,60.00171604817558,2025-11-09 16h53.53.997845 +0530,
,Scenes\103a.jpg,92,0,92,,,,,,,j,1.0259089000028325,0.36432540000532754,None,,,,,,,92,0,92,0,1987.7373360999918,,,,,,,,,,,,,,,,,,,,,,,1987.7209871999949,1987.7373360999918,1988.2542161999882,1988.2208454999927,,,,,,,,,,,,,,,,,,,,,,,,,,1988.2343580000015,1988.2542161999882,1988.2542161999882,1988.2542161999882,1991.2372960999928,j,1.0259089000028325,0.36432540000532754,1991.2373439999938,1991.2373546000017,None,,,,,,,,,,,,,,,,,00005,001,2025-11-09_16h53.39.484,MST_task,2024.2.2,60.00171604817558,2025-11-09 16h53.53.997845 +0530,
,Scenes\172a.jpg,93,0,93,,,,,,,j,0.8015544999943813,0.3362656999961473,None,,,,,,,93,0,93,0,1991.2539327999984,,,,,,,,,,,,,,,,,,,,,,,1991.2374334999913,1991.2539327999984,1991.7705467999913,1991.737466199993,,,,,,,,,,,,,,,,,,,,,,,,,,1991.749404000002,1991.7705467999913,1991.7705467999913,1991.7705467999913,1994.7538728999934,j,0.8015544999943813,0.3362656999961473,1994.753919099996,1994.7539290999994,None,,,,,,,,,,,,,,,,,00005,001,2025-11-09_16h53.39.484,MST_task,2024.2.2,60.00171604817558,2025-11-09 16h53.53.997845 +0530,
,Scenes\142a.jpg,94,0,94,,,,,,,j,0.8594271000038134,0.3406613999977708,None,,,,,,,94,0,94,0,1994.7705117000005,,,,,,,,,,,,,,,,,,,,,,,1994.7539860999968,1994.7705117000005,1995.2871605999972,1995.2540154999879,,,,,,,,,,,,,,,,,,,,,,,,,,1995.2672636999923,1995.2871605999972,1995.2871605999972,1995.2871605999972,1998.2704946000013,j,0.8594271000038134,0.3406613999977708,1998.2705637999898,1998.2705744999985,None,,,,,,,,,,,,,,,,,00005,001,2025-11-09_16h53.39.484,MST_task,2024.2.2,60.00171604817558,2025-11-09 16h53.53.997845 +0530,
,Scenes\027a.jpg,95,0,95,,,,,,,f,0.8863246999972034,0.3516492000053404,None,,,,,,,95,0,95,0,1998.2870946999901,,,,,,,,,,,,,,,,,,,,,,,1998.270649500002,1998.2870946999901,1998.804014399997,1998.770603099998,,,,,,,,,,,,,,,,,,,,,,,,,,1998.7813344999886,1998.804014399997,1998.804014399997,1998.804014399997,2001.7870740999933,f,0.8863246999972034,0.3516492000053404,2001.7871433999971,2001.7871534000005,None,,,,,,,,,,,,,,,,,00005,001,2025-11-09_16h53.39.484,MST_task,2024.2.2,60.00171604817558,2025-11-09 16h53.53.997845 +0530,
,Scenes\055a.jpg,96,0,96,,,,,,,j,1.2477674999972805,0.3158003999997163,None,,,,,,,96,0,96,0,2001.8036980999896,,,,,,,,,,,,,,,,,,,,,,,2001.7872105999995,2001.8036980999896,2002.3203569999896,2002.2871804999886,,,,,,,,,,,,,,,,,,,,,,,,,,2002.3045612999995,2002.3203569999896,2002.3203569999896,2002.3203569999896,2005.303683399994,j,1.2477674999972805,0.3158003999997163,2005.303734599991,2005.3037449999974,None,,,,,,,,,,,,,,,,,00005,001,2025-11-09_16h53.39.484,MST_task,2024.2.2,60.00171604817558,2025-11-09 16h53.53.997845 +0530,
,Scenes\105a.jpg,97,0,97,,,,,,,j,0.7671955000114394,0.2863206999900285,None,,,,,,,97,0,97,0,2005.3202778999985,,,,,,,,,,,,,,,,,,,,,,,2005.3038076999946,2005.3202778999985,2005.836923499999,2005.8038629999937,,,,,,,,,,,,,,,,,,,,,,,,,,2005.8176071999915,2005.836923499999,2005.836923499999,2005.836923499999,2008.8202649999876,j,0.7671955000114394,0.2863206999900285,2008.8203146000014,2008.8203261000017,None,,,,,,,,,,,,,,,,,00005,001,2025-11-09_16h53.39.484,MST_task,2024.2.2,60.00171604817558,2025-11-09 16h53.53.997845 +0530,
,Objects\048a.jpg,98,0,98,,,,,,,j,0.6570502999966266,0.30207940000400413,None,,,,,,,98,0,98,0,2008.8368679999985,,,,,,,,,,,,,,,,,,,,,,,2008.8204183999915,2008.8368679999985,2009.3370959999884,2009.3203281999886,,,,,,,,,,,,,,,,,,,,,,,,,,2009.3306635999907,2009.3370959999884,2009.3370959999884,2009.3370959999884,2012.3203483999969,j,0.6570502999966266,0.30207940000400413,2012.3203904999973,2012.3203995999938,None,2012.3367609999987,2012.3367609999987,2012.3367609999987,,,,,,,,,,,,,,00005,001,2025-11-09_16h53.39.484,MST_task,2024.2.2,60.00171604817558,2025-11-09 16h53.53.997845 +0530,
,Objects\142a.jpg,99,0,99,,,,,,,f,1.0991263000032632,0.36873029998969287,None,,,,,,,99,0,99,0,2012.3367609999987,,,,,,,,,,,,,,,,,,,,,,,2012.320454899993,2012.3367609999987,2012.8367527999944,2012.8204081000003,,,,,,,,,,,,,,,,,,,,,,,,,,2012.8301633999945,2012.8367527999944,2012.8367527999944,2012.8367527999944,2015.8202886999934,f,1.0991263000032632,0.36873029998969287,2015.8203305999923,2015.820339400001,None,2015.8367029999936,2015.8367029999936,2015.8367029999936,,,,,,,,,,,,,,00005,001,2025-11-09_16h53.39.484,MST_task,2024.2.2,60.00171604817558,2025-11-09 16h53.53.997845 +0530,
,Objects\045a.jpg,100,0,100,,,,,,,j,1.6638338000047952,0.32355879999522585,None,,,,,,,100,0,100,0,2015.8367029999936,,,,,,,,,,,,,,,,,,,,,,,2015.820408200001,2015.8367029999936,2016.3366771,2016.3203470000008,,,,,,,,,,,,,,,,,,,,,,,,,,2016.3305112999951,2016.3366771,2016.3366771,2016.3366771,2019.3203304999915,j,1.6638338000047952,0.32355879999522585,2019.320372199989,2019.3203866999975,None,2019.3366164999898,2019.3366164999898,2019.3366164999898,,,,,,,,,,,,,,00005,001,2025-11-09_16h53.39.484,MST_task,2024.2.2,60.00171604817558,2025-11-09 16h53.53.997845 +0530,
,Objects\147a.jpg,101,0,101,,,,,,,f,0.8656805999926291,0.4658444000087911,None,,,,,,,101,0,101,0,2019.3366164999898,,,,,,,,,,,,,,,,,,,,,,,2019.3204663999932,2019.3366164999898,2019.8366017999942,2019.8201166999934,,,,,,,,,,,,,,,,,,,,,,,,,,2019.8317855999921,2019.8366017999942,2019.8366017999942,2019.8366017999942,2022.820137799994,f,0.8656805999926291,0.4658444000087911,2022.8201822999981,2022.8201914999954,None,2022.8365706999903,2022.8365706999903,2022.8365706999903,,,,,,,,,,,,,,00005,001,2025-11-09_16h53.39.484,MST_task,2024.2.2,60.00171604817558,2025-11-09 16h53.53.997845 +0530,
,Objects\176a.jpg,102,0,102,,,,,,,j,1.0080194999900414,0.31192590000864584,None,,,,,,,102,0,102,0,2022.8365706999903,,,,,,,,,,,,,,,,,,,,,,,2022.8202464999922,2022.8365706999903,2023.336530200002,2023.3201697999903,,,,,,,,,,,,,,,,,,,,,,,,,,2023.331225899994,2023.336530200002,2023.336530200002,2023.336530200002,2026.3200454999896,j,1.0080194999900414,0.31192590000864584,2026.3200873999886,2026.3200966000004,None,2026.3364933999983,2026.3364933999983,2026.3364933999983,,,,,,,,,,,,,,00005,001,2025-11-09_16h53.39.484,MST_task,2024.2.2,60.00171604817558,2025-11-09 16h53.53.997845 +0530,
,Objects\100a.jpg,103,0,103,,,,,,,j,1.5358244999952149,0.36711710000236053,None,,,,,,,103,0,103,0,2026.3364933999983,,,,,,,,,,,,,,,,,,,,,,,2026.320166999998,2026.3364933999983,2026.8531421999942,2026.8199916000012,,,,,,,,,,,,,,,,,,,,,,,,,,2026.8369022999977,2026.8531421999942,2026.8531421999942,2026.8531421999942,2029.8366264999931,j,1.5358244999952149,0.36711710000236053,2029.8366838999937,2029.8366955999954,None,,,,,,,,,,,,,,,,,00005,001,2025-11-09_16h53.39.484,MST_task,2024.2.2,60.00171604817558,2025-11-09 16h53.53.997845 +0530,
,Objects\065a.jpg,104,0,104,,,,,,,f,1.7700436000013724,0.39220519999798853,None,,,,,,,104,0,104,0,2029.8530480999907,,,,,,,,,,,,,,,,,,,,,,,2029.8367623999948,2029.8530480999907,2030.3697057999962,2030.3366188999935,,,,,,,,,,,,,,,,,,,,,,,,,,2030.3535509999929,2030.3697057999962,2030.3697057999962,2030.3697057999962,2033.3530672999914,f,1.7700436000013724,0.39220519999798853,2033.3531113999925,2033.3531210999936,None,,,,,,,,,,,,,,,,,00005,001,2025-11-09_16h53.39.484,MST_task,2024.2.2,60.00171604817558,2025-11-09 16h53.53.997845 +0530,
,Scenes\137a.jpg,105,0,105,,,,,,,j,0.6474698000092758,0.32405029999790713,None,,,,,,,105,0,105,0,2033.3696385999938,,,,,,,,,,,,,,,,,,,,,,,2033.353206899992,2033.3696385999938,2033.8866194000002,2033.8531814000016,,,,,,,,,,,,,,,,,,,,,,,,,,2033.8634000999882,2033.8866194000002,2033.8866194000002,2033.8866194000002,2036.8697284999944,j,0.6474698000092758,0.32405029999790713,2036.8697753999877,2036.869786299998,None,,,,,,,,,,,,,,,,,00005,001,2025-11-09_16h53.39.484,MST_task,2024.2.2,60.00171604817558,2025-11-09 16h53.53.997845 +0530,
,Scenes\054a.jpg,106,0,106,,,,,,,j,1.0145639999973355,0.3716868000046816,None,,,,,,,106,0,106,0,2036.8862613999954,,,,,,,,,,,,,,,,,,,,,,,2036.8698690999881,2036.8862613999954,2037.4198791999952,2037.3698426999908,,,,,,,,,,,,,,,,,,,,,,,,,,2037.4048867999954,2037.4198791999952,2037.4198791999952,2037.4198791999952,2040.3862228999933,j,1.0145639999973355,0.3716868000046816,2040.3862674999982,2040.3862780999916,None,,,,,,,,,,,,,,,,,00005,001,2025-11-09_16h53.39.484,MST_task,2024.2.2,60.00171604817558,2025-11-09 16h53.53.997845 +0530,
,Scenes\052a.jpg,107,0,107,,,,,,,j,1.3137333000049694,0.3479033000039635,None,,,,,,,107,0,107,0,2040.4028596999997,,,,,,,,,,,,,,,,,,,,,,,2040.3863555999997,2040.4028596999997,2040.9028819999949,2040.8863619999902,,,,,,,,,,,,,,,,,,,,,,,,,,2040.8928038000013,2040.9028819999949,2040.9028819999949,2040.9028819999949,2043.8863955999987,j,1.3137333000049694,0.3479033000039635,2043.886440999995,2043.8864504999947,None,2043.9027773999987,2043.9027773999987,2043.9027773999987,,,,,,,,,,,,,,00005,001,2025-11-09_16h53.39.484,MST_task,2024.2.2,60.00171604817558,2025-11-09 16h53.53.997845 +0530,
,Scenes\126a.jpg,108,0,108,,,,,,,j,0.948570299995481,0.36386810000112746,None,,,,,,,108,0,108,0,2043.9027773999987,,,,,,,,,,,,,,,,,,,,,,,2043.8865068999876,2043.9027773999987,2044.4194399999978,2044.3863808999886,,,,,,,,,,,,,,,,,,,,,,,,,,2044.3978382999921,2044.4194399999978,2044.4194399999978,2044.4194399999978,2047.4028515999962,j,0.948570299995481,0.36386810000112746,2047.4029083999922,2047.4029187999986,None,,,,,,,,,,,,,,,,,00005,001,2025-11-09_16h53.39.484,MST_task,2024.2.2,60.00171604817558,2025-11-09 16h53.53.997845 +0530,
,Scenes\016a.jpg,109,0,109,,,,,,,j,0.9031194999988656,0.31705610000062734,None,,,,,,,109,0,109,0,2047.4193664999912,,,,,,,,,,,,,,,,,,,,,,,2047.4029979999905,2047.4193664999912,2047.9196436999919,2047.9030065999978,,,,,,,,,,,,,,,,,,,,,,,,,,2047.9132933999936,2047.9196436999919,2047.9196436999919,2047.9196436999919,2050.9028733999876,j,0.9031194999988656,0.31705610000062734,2050.902916699997,2050.902925999995,None,2050.9193319999904,2050.9193319999904,2050.9193319999904,,,,,,,,,,,,,,00005,001,2025-11-09_16h53.39.484,MST_task,2024.2.2,60.00171604817558,2025-11-09 16h53.53.997845 +0530,
,Scenes\006a.jpg,110,0,110,,,,,,,f,2.1949631000024965,0.3566706999990856,None,,,,,,,110,0,110,0,2050.9193319999904,,,,,,,,,,,,,,,,,,,,,,,2050.9029998999904,2050.9193319999904,2051.4188749999885,2051.4027868999983,,,,,,,,,,,,,,,,,,,,,,,,,,2051.412747399998,2051.4188749999885,2051.4188749999885,2051.4188749999885,2054.4027720000013,f,2.1949631000024965,0.3566706999990856,2054.4028118999995,2054.4028212999983,None,2054.419213999994,2054.419213999994,2054.419213999994,,,,,,,,,,,,,,00005,001,2025-11-09_16h53.39.484,MST_task,2024.2.2,60.00171604817558,2025-11-09 16h53.53.997845 +0530,
,Scenes\024a.jpg,111,0,111,,,,,,,j,0.8520884000026854,0.31865870000910945,None,,,,,,,111,0,111,0,2054.419213999994,,,,,,,,,,,,,,,,,,,,,,,2054.4028738999914,2054.419213999994,2054.9358400999918,2054.9027852,,,,,,,,,,,,,,,,,,,,,,,,,,2054.9165114999923,2054.9358400999918,2054.9358400999918,2054.9358400999918,2057.919190399989,j,0.8520884000026854,0.31865870000910945,2057.919238199989,2057.9192489999987,None,,,,,,,,,,,,,,,,,00005,001,2025-11-09_16h53.39.484,MST_task,2024.2.2,60.00171604817558,2025-11-09 16h53.53.997845 +0530,
,Objects\033a.jpg,112,0,112,,,,,,,f,0.7043899999989662,0.4077108999917982,None,,,,,,,112,0,112,0,2057.9358131999907,,,,,,,,,,,,,,,,,,,,,,,2057.919329600001,2057.9358131999907,2058.4359731000004,2058.419282399991,,,,,,,,,,,,,,,,,,,,,,,,,,2058.4298031999933,2058.4359731000004,2058.4359731000004,2058.4359731000004,2061.4193057999946,f,0.7043899999989662,0.4077108999917982,2061.4193498999957,2061.4193593999953,None,2061.4357351999934,2061.4357351999934,2061.4357351999934,,,,,,,,,,,,,,00005,001,2025-11-09_16h53.39.484,MST_task,2024.2.2,60.00171604817558,2025-11-09 16h53.53.997845 +0530,
,Objects\061a.jpg,113,0,113,,,,,,,j,1.3060701000067638,0.331972300002235,None,,,,,,,113,0,113,0,2061.4357351999934,,,,,,,,,,,,,,,,,,,,,,,2061.419415700002,2061.4357351999934,2061.9357305000012,2061.919348899988,,,,,,,,,,,,,,,,,,,,,,,,,,2061.9294859999936,2061.9357305000012,2061.9357305000012,2061.9357305000012,2064.919193199996,j,1.3060701000067638,0.331972300002235,2064.9192369999946,2064.919246099991,None,2064.9356547999923,2064.9356547999923,2064.9356547999923,,,,,,,,,,,,,,00005,001,2025-11-09_16h53.39.484,MST_task,2024.2.2,60.00171604817558,2025-11-09 16h53.53.997845 +0530,
,Objects\145a.jpg,114,0,114,,,,,,,j,1.5581600999867078,0.37189070000022184,None,,,,,,,114,0,114,0,2064.9356547999923,,,,,,,,,,,,,,,,,,,,,,,2064.919313599996,2064.9356547999923,2065.4356226999953,2065.4191361999983,,,,,,,,,,,,,,,,,,,,,,,,,,2065.4291727999953,2065.4356226999953,2065.4356226999953,2065.4356226999953,2068.419271199993,j,1.5581600999867078,0.37189070000022184,2068.4193177999987,2068.4193276000005,None,2068.435586199994,2068.435586199994,2068.435586199994,,,,,,,,,,,,,,00005,001,2025-11-09_16h53.39.484,MST_task,2024.2.2,60.00171604817558,2025-11-09 16h53.53.997845 +0530,
,Objects\006a.jpg,115,0,115,,,,,,,f,1.842540800003917,0.5219453999889083,None,,,,,,,115,0,115,0,2068.435586199994,,,,,,,,,,,,,,,,,,,,,,,2068.419402300002,2068.435586199994,2068.9355422999943,2068.9190250999964,,,,,,,,,,,,,,,,,,,,,,,,,,2068.928729399995,2068.9355422999943,2068.9355422999943,2068.9355422999943,2071.919192000001,f,1.842540800003917,0.5219453999889083,2071.9192396,2071.9192496999895,None,2071.9355035999906,2071.9355035999906,2071.9355035999906,,,,,,,,,,,,,,00005,001,2025-11-09_16h53.39.484,MST_task,2024.2.2,60.00171604817558,2025-11-09 16h53.53.997845 +0530,
,Objects\010a.jpg,116,0,116,,,,,,,f,0.7680251999991015,0.47442130000854377,None,,,,,,,116,0,116,0,2071.9355035999906,,,,,,,,,,,,,,,,,,,,,,,2071.9193106999883,2071.9355035999906,2072.452134799998,2072.4190640000015,,,,,,,,,,,,,,,,,,,,,,,,,,2072.435967199999,2072.452134799998,2072.452134799998,2072.452134799998,2075.435452299993,f,0.7680251999991015,0.47442130000854377,2075.435498299994,2075.435508999988,None,,,,,,,,,,,,,,,,,00005,001,2025-11-09_16h53.39.484,MST_task,2024.2.2,60.00171604817558,2025-11-09 16h53.53.997845 +0530,
,Objects\015a.jpg,117,0,117,,,,,,,f,0.7838673999940511,0.5662532999995165,None,,,,,,,117,0,117,0,2075.4520932000014,,,,,,,,,,,,,,,,,,,,,,,2075.4355679,2075.4520932000014,2075.952052199995,2075.9355799999903,,,,,,,,,,,,,,,,,,,,,,,,,,2075.9458801,2075.952052199995,2075.952052199995,2075.952052199995,2078.935584599996,f,0.7838673999940511,0.5662532999995165,2078.935628899999,2078.935638099996,None,2078.952025099992,2078.952025099992,2078.952025099992,,,,,,,,,,,,,,00005,001,2025-11-09_16h53.39.484,MST_task,2024.2.2,60.00171604817558,2025-11-09 16h53.53.997845 +0530,
,Objects\133a.jpg,118,0,118,,,,,,,j,1.4242533999931766,0.3056388000113657,None,,,,,,,118,0,118,0,2078.952025099992,,,,,,,,,,,,,,,,,,,,,,,2078.9357119999913,2078.952025099992,2079.451976899989,2079.435489999989,,,,,,,,,,,,,,,,,,,,,,,,,,2079.445806299991,2079.451976899989,2079.451976899989,2079.451976899989,2082.435540499995,j,1.4242533999931766,0.3056388000113657,2082.4355813,2082.435590199995,None,2082.4519104999927,2082.4519104999927,2082.4519104999927,,,,,,,,,,,,,,00005,001,2025-11-09_16h53.39.484,MST_task,2024.2.2,60.00171604817558,2025-11-09 16h53.53.997845 +0530,
,Scenes\178a.jpg,119,0,119,,,,,,,j,0.8521333999960916,0.3676795000064885,None,,,,,,,119,0,119,0,2082.4519104999927,,,,,,,,,,,,,,,,,,,,,,,2082.4356439999974,2082.4519104999927,2082.968573399994,2082.93541369999,,,,,,,,,,,,,,,,,,,,,,,,,,2082.951754499998,2082.968573399994,2082.968573399994,2082.968573399994,2085.9518984999886,j,0.8521333999960916,0.3676795000064885,2085.9519431999943,2085.9519532999984,None,,,,,,,,,,,,,,,,,00005,001,2025-11-09_16h53.39.484,MST_task,2024.2.2,60.00171604817558,2025-11-09 16h53.53.997845 +0530,
,Scenes\124a.jpg,120,0,120,,,,,,,j,1.3821286000020336,0.3790199000068242,None,,,,,,,120,0,120,0,2085.968533399995,,,,,,,,,,,,,,,,,,,,,,,2085.9520114999905,2085.968533399995,2086.48517439999,2086.452049300002,,,,,,,,,,,,,,,,,,,,,,,,,,2086.4638451999926,2086.48517439999,2086.48517439999,2086.48517439999,2089.468482199998,j,1.3821286000020336,0.3790199000068242,2089.468559599991,2089.4685717999964,None,,,,,,,,,,,,,,,,,00005,001,2025-11-09_16h53.39.484,MST_task,2024.2.2,60.00171604817558,2025-11-09 16h53.53.997845 +0530,
,Scenes\181a.jpg,121,0,121,,,,,,,f,1.6021620999963488,0.38459590000275057,None,,,,,,,121,0,121,0,2089.4851292999956,,,,,,,,,,,,,,,,,,,,,,,2089.468657999998,2089.4851292999956,2090.0017904999986,2089.9686033999897,,,,,,,,,,,,,,,,,,,,,,,,,,2089.98235939999,2090.0017904999986,2090.0017904999986,2090.0017904999986,2092.9850822000008,f,1.6021620999963488,0.38459590000275057,2092.985124899991,2092.985134799994,None,,,,,,,,,,,,,,,,,00005,001,2025-11-09_16h53.39.484,MST_task,2024.2.2,60.00171604817558,2025-11-09 16h53.53.997845 +0530,
,Scenes\011a.jpg,122,0,122,,,,,,,j,1.6973126999946544,0.34010220000345726,None,,,,,,,122,0,122,0,2093.0017190999934,,,,,,,,,,,,,,,,,,,,,,,2092.9852171999955,2093.0017190999934,2093.5187382000004,2093.4852162999887,,,,,,,,,,,,,,,,,,,,,,,,,,2093.5011639000004,2093.5187382000004,2093.5187382000004,2093.5187382000004,2096.5016902999923,j,1.6973126999946544,0.34010220000345726,2096.5017369999987,2096.5017478999944,None,,,,,,,,,,,,,,,,,00005,001,2025-11-09_16h53.39.484,MST_task,2024.2.2,60.00171604817558,2025-11-09 16h53.53.997845 +0530,
,Scenes\078a.jpg,123,0,123,,,,,,,j,1.1028413999883924,0.3681032000022242,None,,,,,,,123,0,123,0,2096.5183263999934,,,,,,,,,,,,,,,,,,,,,,,2096.5018304999976,2096.5183263999934,2097.035215099997,2097.0017848999996,,,,,,,,,,,,,,,,,,,,,,,,,,2097.014844599995,2097.035215099997,2097.035215099997,2097.035215099997,2100.0182594999933,j,1.1028413999883924,0.3681032000022242,2100.018304600002,2100.018315299996,None,,,,,,,,,,,,,,,,,00005,001,2025-11-09_16h53.39.484,MST_task,2024.2.2,60.00171604817558,2025-11-09 16h53.53.997845 +0530,
,Scenes\067a.jpg,124,0,124,,,,,,,f,1.237064000000828,0.42055429999891203,None,,,,,,,124,0,124,0,2100.0348946000013,,,,,,,,,,,,,,,,,,,,,,,2100.018391299993,2100.0348946000013,2100.5515524999937,2100.5185200999986,,,,,,,,,,,,,,,,,,,,,,,,,,2100.5299330999987,2100.5515524999937,2100.5515524999937,2100.5515524999937,2103.5348569999915,f,1.237064000000828,0.42055429999891203,2103.534932399998,2103.534943699997,None,,,,,,,,,,,,,,,,,00005,001,2025-11-09_16h53.39.484,MST_task,2024.2.2,60.00171604817558,2025-11-09 16h53.53.997845 +0530,
,Scenes\042a.jpg,125,0,125,,,,,,,j,0.5945944000122836,0.31637749999936204,None,,,,,,,125,0,125,0,2103.55151569999,,,,,,,,,,,,,,,,,,,,,,,2103.53502499999,2103.55151569999,2104.0514384999988,2104.035163499997,,,,,,,,,,,,,,,,,,,,,,,,,,2104.040105799999,2104.0514384999988,2104.0514384999988,2104.0514384999988,2107.0350828999944,j,0.5945944000122836,0.31637749999936204,2107.0351316999877,2107.0351446999994,None,2107.051409099993,2107.051409099993,2107.051409099993,,,,,,,,,,,,,,00005,001,2025-11-09_16h53.39.484,MST_task,2024.2.2,60.00171604817558,2025-11-09 16h53.53.997845 +0530,
,Objects\146a.jpg,126,0,126,,,,,,,f,1.7102974000008544,0.33193869999377057,None,,,,,,,126,0,126,0,2107.051409099993,,,,,,,,,,,,,,,,,,,,,,,2107.0352074999973,2107.051409099993,2107.5516333999985,2107.5349461000005,,,,,,,,,,,,,,,,,,,,,,,,,,2107.544760699995,2107.5516333999985,2107.5516333999985,2107.5516333999985,2110.5349108999944,f,1.7102974000008544,0.33193869999377057,2110.5349535999994,2110.534962699996,None,2110.5513322999905,2110.5513322999905,2110.5513322999905,,,,,,,,,,,,,,00005,001,2025-11-09_16h53.39.484,MST_task,2024.2.2,60.00171604817558,2025-11-09 16h53.53.997845 +0530,
,Objects\062a.jpg,127,0,127,,,,,,,f,0.982546100000036,0.4795406999910483,None,,,,,,,127,0,127,0,2110.5513322999905,,,,,,,,,,,,,,,,,,,,,,,2110.5350155999913,2110.5513322999905,2111.0512885999924,2111.034932499999,,,,,,,,,,,,,,,,,,,,,,,,,,2111.044703599997,2111.0512885999924,2111.0512885999924,2111.0512885999924,2114.0349609999976,f,0.982546100000036,0.4795406999910483,2114.0350032999995,2114.0350125999976,None,2114.0512981999927,2114.0512981999927,2114.0512981999927,,,,,,,,,,,,,,00005,001,2025-11-09_16h53.39.484,MST_task,2024.2.2,60.00171604817558,2025-11-09 16h53.53.997845 +0530,
,Objects\108a.jpg,128,0,128,,,,,,,j,1.0580048999981955,0.3187906999955885,None,,,,,,,128,0,128,0,2114.0512981999927,,,,,,,,,,,,,,,,,,,,,,,2114.035063999996,2114.0512981999927,2114.5512182999955,2114.534808299999,,,,,,,,,,,,,,,,,,,,,,,,,,2114.5451285000017,2114.5512182999955,2114.5512182999955,2114.5512182999955,2117.5347649999894,j,1.0580048999981955,0.3187906999955885,2117.5348128999904,2117.5348228999937,None,2117.55118699999,2117.55118699999,2117.55118699999,,,,,,,,,,,,,,00005,001,2025-11-09_16h53.39.484,MST_task,2024.2.2,60.00171604817558,2025-11-09 16h53.53.997845 +0530,
,Objects\078a.jpg,129,0,129,,,,,,,j,1.0610933999996632,0.2555976000003284,None,,,,,,,129,0,129,0,2117.55118699999,,,,,,,,,,,,,,,,,,,,,,,2117.534900300001,2117.55118699999,2118.051139599993,2118.034774999993,,,,,,,,,,,,,,,,,,,,,,,,,,2118.0450869999913,2118.051139599993,2118.051139599993,2118.051139599993,2121.034816200001,j,1.0610933999996632,0.2555976000003284,2121.0348562,2121.0348655999987,None,2121.0511060999997,2121.0511060999997,2121.0511060999997,,,,,,,,,,,,,,00005,001,2025-11-09_16h53.39.484,MST_task,2024.2.2,60.00171604817558,2025-11-09 16h53.53.997845 +0530,
,Objects\143a.jpg,130,0,130,,,,,,,j,1.933902599994326,0.3191532000055304,None,,,,,,,130,0,130,0,2121.0511060999997,,,,,,,,,,,,,,,,,,,,,,,2121.034922699997,2121.0511060999997,2121.551061499995,2121.534691599998,,,,,,,,,,,,,,,,,,,,,,,,,,2121.544352699988,2121.551061499995,2121.551061499995,2121.551061499995,2124.5345780999924,j,1.933902599994326,0.3191532000055304,2124.5346224999957,2124.534631699993,None,2124.55103409999,2124.55103409999,2124.55103409999,,,,,,,,,,,,,,00005,001,2025-11-09_16h53.39.484,MST_task,2024.2.2,60.00171604817558,2025-11-09 16h53.53.997845 +0530,
,Objects\179a.jpg,131,0,131,,,,,,,f,1.1082861999893794,0.4002682999998797,None,,,,,,,131,0,131,0,2124.55103409999,,,,,,,,,,,,,,,,,,,,,,,2124.534683699996,2124.55103409999,2125.0676599,2125.034625699991,,,,,,,,,,,,,,,,,,,,,,,,,,2125.0503810999944,2125.0676599,2125.0676599,2125.0676599,2128.0509778999985,f,1.1082861999893794,0.4002682999998797,2128.051021799998,2128.05103219999,None,,,,,,,,,,,,,,,,,00005,001,2025-11-09_16h53.39.484,MST_task,2024.2.2,60.00171604817558,2025-11-09 16h53.53.997845 +0530,
,Objects\034a.jpg,132,0,132,,,,,,,f,0.8050424999964889,0.49339489999692887,None,,,,,,,132,0,132,0,2128.0676373999886,,,,,,,,,,,,,,,,,,,,,,,2128.0511071999936,2128.0676373999886,,2128.5511173999985,,,,,,,,,,,,,,,,,,,,,,,,,,2128.56128129999,2128.567594399996,2128.567594399996,2128.567594399996,2131.551218499997,f,0.8050424999964889,0.49339489999692887,2131.5512606999982,2131.551268700001,None,2131.5675529,2131.5675529,2131.5675529,,,,,,,,,,,,,,00005,001,2025-11-09_16h53.39.484,MST_task,2024.2.2,60.00171604817558,2025-11-09 16h53.53.997845 +0530,
,Scenes\021a.jpg,133,0,133,,,,,,,j,1.0057645999913802,0.37619660000200383,None,,,,,,,133,0,133,0,2131.5675529,,,,,,,,,,,,,,,,,,,,,,,2131.55134559999,2131.5675529,2132.084169199996,2132.0510977999947,,,,,,,,,,,,,,,,,,,,,,,,,,2132.0634068999934,2132.084169199996,2132.084169199996,2132.084169199996,2135.0675169999886,j,1.0057645999913802,0.37619660000200383,2135.0675604999997,2135.06757069999,None,,,,,,,,,,,,,,,,,00005,001,2025-11-09_16h53.39.484,MST_task,2024.2.2,60.00171604817558,2025-11-09 16h53.53.997845 +0530,
,Scenes\158a.jpg,134,0,134,,,,,,,j,2.247322900002473,0.3398245999997016,None,,,,,,,134,0,134,0,2135.0841434999893,,,,,,,,,,,,,,,,,,,,,,,2135.06764519999,2135.0841434999893,2135.600790899989,2135.5677129999967,,,,,,,,,,,,,,,,,,,,,,,,,,2135.580494099995,2135.600790899989,2135.600790899989,2135.600790899989,2138.584118499988,j,2.247322900002473,0.3398245999997016,2138.5841772999993,2138.5841879999934,None,,,,,,,,,,,,,,,,,00005,001,2025-11-09_16h53.39.484,MST_task,2024.2.2,60.00171604817558,2025-11-09 16h53.53.997845 +0530,
,Scenes\007a.jpg,135,0,135,,,,,,,f,1.3062054999900283,0.45221840000886004,None,,,,,,,135,0,135,0,2138.600729999991,,,,,,,,,,,,,,,,,,,,,,,2138.5842544999905,2138.600729999991,,2139.0842514999968,,,,,,,,,,,,,,,,,,,,,,,,,,2139.0960701000004,2139.11763339999,2139.11763339999,2139.11763339999,2142.100798200001,f,1.3062054999900283,0.45221840000886004,2142.100849800001,2142.100858699996,None,,,,,,,,,,,,,,,,,00005,001,2025-11-09_16h53.39.484,MST_task,2024.2.2,60.00171604817558,2025-11-09 16h53.53.997845 +0530,
,Scenes\059a.jpg,136,0,136,,,,,,,j,1.0563668999966467,0.3358615000033751,None,,,,,,,136,0,136,0,2142.1173211999994,,,,,,,,,,,,,,,,,,,,,,,2142.100920699988,2142.1173211999994,2142.6340154999925,2142.600810499993,,,,,,,,,,,,,,,,,,,,,,,,,,2142.6153676999966,2142.6340154999925,2142.6340154999925,2142.6340154999925,2145.6172710999963,j,1.0563668999966467,0.3358615000033751,2145.617322899998,2145.6173356999934,None,,,,,,,,,,,,,,,,,00005,001,2025-11-09_16h53.39.484,MST_task,2024.2.2,60.00171604817558,2025-11-09 16h53.53.997845 +0530,
,Scenes\009a.jpg,137,0,137,,,,,,,f,1.3834471000009216,0.5061093999975128,None,,,,,,,137,0,137,0,2145.6339332999923,,,,,,,,,,,,,,,,,,,,,,,2145.617415899993,2145.6339332999923,2146.1509496999934,2146.1173980999883,,,,,,,,,,,,,,,,,,,,,,,,,,2146.1403579999896,2146.1509496999934,2146.1509496999934,2146.1509496999934,2149.1340016999893,f,1.3834471000009216,0.5061093999975128,2149.1340503999963,2149.134060799988,None,,,,,,,,,,,,,,,,,00005,001,2025-11-09_16h53.39.484,MST_task,2024.2.2,60.00171604817558,2025-11-09 16h53.53.997845 +0530,
,Scenes\037a.jpg,138,0,138,,,,,,,f,1.6953069000010146,0.3315967999951681,None,,,,,,,138,0,138,0,2149.150500699994,,,,,,,,,,,,,,,,,,,,,,,2149.1341213999985,2149.150500699994,2149.6673792999936,2149.634163900002,,,,,,,,,,,,,,,,,,,,,,,,,,2149.6482764999964,2149.6673792999936,2149.6673792999936,2149.6673792999936,2152.6504623999936,f,1.6953069000010146,0.3315967999951681,2152.6505136999913,2152.65052499999,None,,,,,,,,,,,,,,,,,00005,001,2025-11-09_16h53.39.484,MST_task,2024.2.2,60.00171604817558,2025-11-09 16h53.53.997845 +0530,
,Scenes\132a.jpg,139,0,139,,,,,,,j,1.7080466000043089,0.3564290000067558,None,,,,,,,139,0,139,0,2152.667093600001,,,,,,,,,,,,,,,,,,,,,,,2152.650588599994,2152.667093600001,2153.1840446999995,2153.1506647999922,,,,,,,,,,,,,,,,,,,,,,,,,,2153.1600480999914,2153.1840446999995,2153.1840446999995,2153.1840446999995,2156.167051899989,j,1.7080466000043089,0.3564290000067558,2156.1671002999938,2156.167112299998,None,,,,,,,,,,,,,,,,,00005,001,2025-11-09_16h53.39.484,MST_task,2024.2.2,60.00171604817558,2025-11-09 16h53.53.997845 +0530,
,Objects\154a.jpg,140,0,140,,,,,,,f,0.9406505999941146,0.4775435000046855,None,,,,,,,140,0,140,0,2156.1836836,,,,,,,,,,,,,,,,,,,,,,,2156.167171699999,2156.1836836,,2156.667220099989,,,,,,,,,,,,,,,,,,,,,,,,,,2156.68320639999,2156.7003344999976,2156.7003344999976,2156.7003344999976,2159.683667099991,f,0.9406505999941146,0.4775435000046855,2159.6837105000013,2159.683719499997,None,,,,,,,,,,,,,,,,,00005,001,2025-11-09_16h53.39.484,MST_task,2024.2.2,60.00171604817558,2025-11-09 16h53.53.997845 +0530,
,Objects\039a.jpg,141,0,141,,,,,,,j,0.8776791999989655,0.30000650000874884,None,,,,,,,141,0,141,0,2159.7002685999905,,,,,,,,,,,,,,,,,,,,,,,2159.6837960999983,2159.7002685999905,2160.2002684999898,2160.1838785,,,,,,,,,,,,,,,,,,,,,,,,,,2160.193991799999,2160.2002684999898,2160.2002684999898,2160.2002684999898,2163.1839121999947,j,0.8776791999989655,0.30000650000874884,2163.183955299988,2163.1839647000015,None,2163.2002011000004,2163.2002011000004,2163.2002011000004,,,,,,,,,,,,,,00005,001,2025-11-09_16h53.39.484,MST_task,2024.2.2,60.00171604817558,2025-11-09 16h53.53.997845 +0530,
,Objects\042a.jpg,142,0,142,,,,,,,f,1.911570299998857,0.5441673000023002,None,,,,,,,142,0,142,0,2163.2002011000004,,,,,,,,,,,,,,,,,,,,,,,2163.1840569999913,2163.2002011000004,2163.716824899995,2163.6837319999904,,,,,,,,,,,,,,,,,,,,,,,,,,2163.699133099988,2163.716824899995,2163.716824899995,2163.716824899995,2166.700148899996,f,1.911570299998857,0.5441673000023002,2166.7002210999926,2166.7002323999914,None,,,,,,,,,,,,,,,,,00005,001,2025-11-09_16h53.39.484,MST_task,2024.2.2,60.00171604817558,2025-11-09 16h53.53.997845 +0530,
,Objects\097a.jpg,143,0,143,,,,,,,j,0.9948921999894083,0.34073770001123194,None,,,,,,,143,0,143,0,2166.7167917999905,,,,,,,,,,,,,,,,,,,,,,,2166.7002968999877,2166.7167917999905,2167.21678219999,2167.200263199993,,,,,,,,,,,,,,,,,,,,,,,,,,2167.2100958999945,2167.21678219999,2167.21678219999,2167.21678219999,2170.2002987999876,j,0.9948921999894083,0.34073770001123194,2170.200342700002,2170.2003516999976,None,2170.216709100001,2170.216709100001,2170.216709100001,,,,,,,,,,,,,,00005,001,2025-11-09_16h53.39.484,MST_task,2024.2.2,60.00171604817558,2025-11-09 16h53.53.997845 +0530,
,Objects\019a.jpg,144,0,144,,,,,,,f,1.3906463000021176,0.423311399994418,None,,,,,,,144,0,144,0,2170.216709100001,,,,,,,,,,,,,,,,,,,,,,,2170.2004058999883,2170.216709100001,2170.7167219999974,2170.7003675000014,,,,,,,,,,,,,,,,,,,,,,,,,,2170.7105385999894,2170.7167219999974,2170.7167219999974,2170.7167219999974,2173.70019589999,f,1.3906463000021176,0.423311399994418,2173.7002391999995,2173.7002490000013,None,2173.7166350999905,2173.7166350999905,2173.7166350999905,,,,,,,,,,,,,,00005,001,2025-11-09_16h53.39.484,MST_task,2024.2.2,60.00171604817558,2025-11-09 16h53.53.997845 +0530,
,Objects\088a.jpg,145,0,145,,,,,,,f,0.8534332999988692,0.4059241000068141,None,,,,,,,145,0,145,0,2173.7166350999905,,,,,,,,,,,,,,,,,,,,,,,2173.700304099999,2173.7166350999905,2174.216645499997,2174.200237699988,,,,,,,,,,,,,,,,,,,,,,,,,,2174.210249999989,2174.216645499997,2174.216645499997,2174.216645499997,2177.2002281999885,f,0.8534332999988692,0.4059241000068141,2177.2002697999997,2177.2002795000008,None,2177.216550500001,2177.216550500001,2177.216550500001,,,,,,,,,,,,,,00005,001,2025-11-09_16h53.39.484,MST_task,2024.2.2,60.00171604817558,2025-11-09 16h53.53.997845 +0530,
,Objects\169a.jpg,146,0,146,,,,,,,j,1.3505080999893835,0.35202489999937825,None,,,,,,,146,0,146,0,2177.216550500001,,,,,,,,,,,,,,,,,,,,,,,2177.200348899991,2177.216550500001,2177.7331847999885,2177.700026899998,,,,,,,,,,,,,,,,,,,,,,,,,,2177.716323399989,2177.7331847999885,2177.7331847999885,2177.7331847999885,2180.7165170999942,j,1.3505080999893835,0.35202489999937825,2180.7165671999974,2180.7165778999915,None,,,,,,,,,,,,,,,,,00005,001,2025-11-09_16h53.39.484,MST_task,2024.2.2,60.00171604817558,2025-11-09 16h53.53.997845 +0530,
,Scenes\051a.jpg,147,0,147,,,,,,,j,0.8775426999927731,0.3690580999973463,None,,,,,,,147,0,147,0,2180.73314869999,,,,,,,,,,,,,,,,,,,,,,,2180.7166347999882,2180.73314869999,2181.250167899998,2181.216635799996,,,,,,,,,,,,,,,,,,,,,,,,,,2181.227398999996,2181.250167899998,2181.250167899998,2181.250167899998,2184.2332315999956,j,0.8775426999927731,0.3690580999973463,2184.2332808999927,2184.2332917999884,None,,,,,,,,,,,,,,,,,00005,001,2025-11-09_16h53.39.484,MST_task,2024.2.2,60.00171604817558,2025-11-09 16h53.53.997845 +0530,
,Scenes\170a.jpg,148,0,148,,,,,,,j,0.8983320999977877,0.3792198000010103,None,,,,,,,148,0,148,0,2184.2497458,,,,,,,,,,,,,,,,,,,,,,,2184.2333672999957,2184.2497458,2184.7667771999986,2184.733306299997,,,,,,,,,,,,,,,,,,,,,,,,,,2184.7467416,2184.7667771999986,2184.7667771999986,2184.7667771999986,2187.7498236999963,j,0.8983320999977877,0.3792198000010103,2187.7498761999886,2187.749887599988,None,,,,,,,,,,,,,,,,,00005,001,2025-11-09_16h53.39.484,MST_task,2024.2.2,60.00171604817558,2025-11-09 16h53.53.997845 +0530,
,Scenes\192a.jpg,149,0,149,,,,,,,j,0.9793399999907706,0.3570012999989558,None,,,,,,,149,0,149,0,2187.7663575999904,,,,,,,,,,,,,,,,,,,,,,,2187.7499515999953,2187.7663575999904,2188.282956199997,2188.249921900002,,,,,,,,,,,,,,,,,,,,,,,,,,2188.267338699996,2188.282956199997,2188.282956199997,2188.282956199997,2191.2663086999964,j,0.9793399999907706,0.3570012999989558,2191.2663546999975,2191.2663718999975,None,,,,,,,,,,,,,,,,,00005,001,2025-11-09_16h53.39.484,MST_task,2024.2.2,60.00171604817558,2025-11-09 16h53.53.997845 +0530,
,Scenes\010a.jpg,150,0,150,,,,,,,j,0.7811810999992304,0.3738205999979982,None,,,,,,,150,0,150,0,2191.2829169999895,,,,,,,,,,,,,,,,,,,,,,,2191.2664304999926,2191.2829169999895,2191.7995785999956,2191.7664393999876,,,,,,,,,,,,,,,,,,,,,,,,,,2191.7800990999967,2191.7995785999956,2191.7995785999956,2191.7995785999956,2194.7828762999998,j,0.7811810999992304,0.3738205999979982,2194.7829249999922,2194.7829350999964,None,,,,,,,,,,,,,,,,,00005,001,2025-11-09_16h53.39.484,MST_task,2024.2.2,60.00171604817558,2025-11-09 16h53.53.997845 +0530,
,Scenes\062a.jpg,151,0,151,,,,,,,j,0.848290599999018,0.32143840000208,None,,,,,,,151,0,151,0,2194.79951099999,,,,,,,,,,,,,,,,,,,,,,,2194.7830094999954,2194.79951099999,2195.299469699996,2195.283104000002,,,,,,,,,,,,,,,,,,,,,,,,,,2195.2908534000017,2195.299469699996,2195.299469699996,2195.299469699996,2198.2829922999954,j,0.848290599999018,0.32143840000208,2198.2830336999905,2198.283043299991,None,2198.2994359000004,2198.2994359000004,2198.2994359000004,,,,,,,,,,,,,,00005,001,2025-11-09_16h53.39.484,MST_task,2024.2.2,60.00171604817558,2025-11-09 16h53.53.997845 +0530,
,Scenes\145a.jpg,152,0,152,,,,,,,j,0.6265894999960437,0.3322263000009116,None,,,,,,,152,0,152,0,2198.2994359000004,,,,,,,,,,,,,,,,,,,,,,,2198.2831163999945,2198.2994359000004,2198.7993949999945,2198.7829121999966,,,,,,,,,,,,,,,,,,,,,,,,,,2198.790226500001,2198.7993949999945,2198.7993949999945,2198.7993949999945,2201.7829624000005,j,0.6265894999960437,0.3322263000009116,2201.78300689999,2201.7830178000004,None,2201.799359299999,2201.799359299999,2201.799359299999,,,,,,,,,,,,,,00005,001,2025-11-09_16h53.39.484,MST_task,2024.2.2,60.00171604817558,2025-11-09 16h53.53.997845 +0530,
,Scenes\184a.jpg,153,0,153,,,,,,,j,1.0079364999983227,0.32474730000831187,None,,,,,,,153,0,153,0,2201.799359299999,,,,,,,,,,,,,,,,,,,,,,,2201.7830983999884,2201.799359299999,2202.3160064999975,2202.2829256999976,,,,,,,,,,,,,,,,,,,,,,,,,,2202.3006730999914,2202.3160064999975,2202.3160064999975,2202.3160064999975,2205.2993123999913,j,1.0079364999983227,0.32474730000831187,2205.299360799996,2205.2993713999895,None,,,,,,,,,,,,,,,,,00005,001,2025-11-09_16h53.39.484,MST_task,2024.2.2,60.00171604817558,2025-11-09 16h53.53.997845 +0530,
,Objects\018a.jpg,154,0,154,,,,,,,j,1.2482832000096096,0.2852375999937067,None,,,,,,,154,0,154,0,2205.3160168999893,,,,,,,,,,,,,,,,,,,,,,,2205.2994334999967,2205.3160168999893,2205.816244299989,2205.799419099989,,,,,,,,,,,,,,,,,,,,,,,,,,2205.8100336999923,2205.816244299989,2205.816244299989,2205.816244299989,2208.7994256999955,j,1.2482832000096096,0.2852375999937067,2208.799467699995,2208.7994768999924,None,2208.8159139999916,2208.8159139999916,2208.8159139999916,,,,,,,,,,,,,,00005,001,2025-11-09_16h53.39.484,MST_task,2024.2.2,60.00171604817558,2025-11-09 16h53.53.997845 +0530,
,Objects\123a.jpg,155,0,155,,,,,,,j,0.8642893000069307,0.34781439999642316,None,,,,,,,155,0,155,0,2208.8159139999916,,,,,,,,,,,,,,,,,,,,,,,2208.799530199991,2208.8159139999916,2209.3158269999985,2209.299379399992,,,,,,,,,,,,,,,,,,,,,,,,,,2209.3091647999972,2209.3158269999985,2209.3158269999985,2209.3158269999985,2212.299431499996,j,0.8642893000069307,0.34781439999642316,2212.2994727999903,2212.2994820999884,None,2212.3157968999876,2212.3157968999876,2212.3157968999876,,,,,,,,,,,,,,00005,001,2025-11-09_16h53.39.484,MST_task,2024.2.2,60.00171604817558,2025-11-09 16h53.53.997845 +0530,
,Objects\072a.jpg,156,0,156,,,,,,,f,1.8442574000073364,0.3878541000012774,None,,,,,,,156,0,156,0,2212.3157968999876,,,,,,,,,,,,,,,,,,,,,,,2212.2995348999975,2212.3157968999876,2212.8157543999987,2212.7993051999947,,,,,,,,,,,,,,,,,,,,,,,,,,2212.809454000002,2212.8157543999987,2212.8157543999987,2212.8157543999987,2215.799318499994,f,1.8442574000073364,0.3878541000012774,2215.7993594,2215.7993713999895,None,2215.8157412,2215.8157412,2215.8157412,,,,,,,,,,,,,,00005,001,2025-11-09_16h53.39.484,MST_task,2024.2.2,60.00171604817558,2025-11-09 16h53.53.997845 +0530,
,Objects\159a.jpg,157,0,157,,,,,,,f,0.8481481999915559,0.3928617000055965,None,,,,,,,157,0,157,0,2215.8157412,,,,,,,,,,,,,,,,,,,,,,,2215.799429299994,2215.8157412,2216.3156749999907,2216.2993410999916,,,,,,,,,,,,,,,,,,,,,,,,,,2216.3092799000005,2216.3156749999907,2216.3156749999907,2216.3156749999907,2219.2992514999933,f,0.8481481999915559,0.3928617000055965,2219.299292999989,2219.29930269999,None,2219.3156512999994,2219.3156512999994,2219.3156512999994,,,,,,,,,,,,,,00005,001,2025-11-09_16h53.39.484,MST_task,2024.2.2,60.00171604817558,2025-11-09 16h53.53.997845 +0530,
,Objects\120a.jpg,158,0,158,,,,,,,j,0.7986739000043599,0.2961162999999942,None,,,,,,,158,0,158,0,2219.3156512999994,,,,,,,,,,,,,,,,,,,,,,,2219.2993726999994,2219.3156512999994,2219.8156172000017,2219.7992295000004,,,,,,,,,,,,,,,,,,,,,,,,,,2219.809018999993,2219.8156172000017,2219.8156172000017,2219.8156172000017,2222.7991424999927,j,0.7986739000043599,0.2961162999999942,2222.7991843999916,2222.799193499988,None,2222.8156439000013,2222.8156439000013,2222.8156439000013,,,,,,,,,,,,,,00005,001,2025-11-09_16h53.39.484,MST_task,2024.2.2,60.00171604817558,2025-11-09 16h53.53.997845 +0530,
,Objects\129a.jpg,159,0,159,,,,,,,f,2.513694299996132,0.38046939999912865,None,,,,,,,159,0,159,0,2222.8156439000013,,,,,,,,,,,,,,,,,,,,,,,2222.799247499992,2222.8156439000013,2223.3322281,2223.299143600001,,,,,,,,,,,,,,,,,,,,,,,,,,2223.3226750999893,2223.3322281,2223.3322281,2223.3322281,2226.315535499991,f,2.513694299996132,0.38046939999912865,2226.3155880999984,2226.315598999994,None,,,,,,,,,,,,,,,,,00005,001,2025-11-09_16h53.39.484,MST_task,2024.2.2,60.00171604817558,2025-11-09 16h53.53.997845 +0530,
,Objects\168a.jpg,160,0,160,,,,,,,f,1.8406102000008104,0.4628547000029357,None,,,,,,,160,0,160,0,2226.3321653999883,,,,,,,,,,,,,,,,,,,,,,,2226.3156870999956,2226.3321653999883,2226.8321238999924,2226.8157569999894,,,,,,,,,,,,,,,,,,,,,,,,,,2226.8257973,2226.8321238999924,2226.8321238999924,2226.8321238999924,2229.815772899994,f,1.8406102000008104,0.4628547000029357,2229.815817099996,2229.8158265999955,None,2229.8320925000007,2229.8320925000007,2229.8320925000007,,,,,,,,,,,,,,00005,001,2025-11-09_16h53.39.484,MST_task,2024.2.2,60.00171604817558,2025-11-09 16h53.53.997845 +0530,
,Scenes\128a.jpg,161,0,161,,,,,,,j,0.8071370999969076,0.3563880000001518,None,,,,,,,161,0,161,0,2229.8320925000007,,,,,,,,,,,,,,,,,,,,,,,2229.815896699991,2229.8320925000007,2230.348733299994,2230.3155996999994,,,,,,,,,,,,,,,,,,,,,,,,,,2230.3295948000014,2230.348733299994,2230.348733299994,2230.348733299994,2233.3320385999978,j,0.8071370999969076,0.3563880000001518,2233.3320945999876,2233.332104599991,None,,,,,,,,,,,,,,,,,00005,001,2025-11-09_16h53.39.484,MST_task,2024.2.2,60.00171604817558,2025-11-09 16h53.53.997845 +0530,
,Scenes\033a.jpg,162,0,162,,,,,,,j,0.7615230999945197,0.319360699999379,None,,,,,,,162,0,162,0,2233.3486804999993,,,,,,,,,,,,,,,,,,,,,,,2233.332183599996,2233.3486804999993,2233.8488808999973,2233.832295699991,,,,,,,,,,,,,,,,,,,,,,,,,,2233.841499000002,2233.8488808999973,2233.8488808999973,2233.8488808999973,2236.832168299996,j,0.7615230999945197,0.319360699999379,2236.832211999994,2236.832221599994,None,2236.848597499993,2236.848597499993,2236.848597499993,,,,,,,,,,,,,,00005,001,2025-11-09_16h53.39.484,MST_task,2024.2.2,60.00171604817558,2025-11-09 16h53.53.997845 +0530,
,Scenes\112a.jpg,163,0,163,,,,,,,j,1.2242856999946525,0.3162838999996893,None,,,,,,,163,0,163,0,2236.848597499993,,,,,,,,,,,,,,,,,,,,,,,2236.8322748999926,2236.848597499993,2237.3654745999957,2237.3321343999996,,,,,,,,,,,,,,,,,,,,,,,,,,2237.345129299996,2237.3654745999957,2237.3654745999957,2237.3654745999957,2240.34857609999,j,1.2242856999946525,0.3162838999996893,2240.3486282999947,2240.3486391999904,None,,,,,,,,,,,,,,,,,00005,001,2025-11-09_16h53.39.484,MST_task,2024.2.2,60.00171604817558,2025-11-09 16h53.53.997845 +0530,
