thisN,thisTrialN,thisRepN,key_resp_3.keys,key_resp_3.rt,key_resp_3.duration,trials.thisRepN,trials.thisTrialN,trials.thisN,trials.thisIndex,thisRow.t,notes,intro_page.started,text.started,key_resp.started,intro_page.stopped,key_resp.keys,key_resp.rt,key_resp.duration,instructions.started,text_2.started,key_resp_2.started,instructions.stopped,key_resp_2.keys,key_resp_2.rt,key_resp_2.duration,demo1.started,image_1.started,image_2.started,text_7.started,key_resp_6.started,text_9.started,demo1.stopped,key_resp_6.keys,key_resp_6.rt,key_resp_6.duration,demo2.started,image_5.started,image_6.started,text_11.started,text_12.started,key_resp_8.started,demo2.stopped,key_resp_8.keys,key_resp_8.rt,key_resp_8.duration,demo_conclusion.started,text_13.started,key_resp_9.started,demo_conclusion.stopped,key_resp_9.keys,key_resp_9.rt,key_resp_9.duration,start_test.started,text_6.started,key_resp_5.started,start_test.stopped,key_resp_5.keys,key_resp_5.rt,key_resp_5.duration,ISI.started,text_4.started,text_4.stopped,ISI.stopped,routine_1.started,image.started,text_3.started,key_resp_3.started,routine_1.stopped,image_path,position_of_stimuli,trials.key_resp_3.keys,trials.key_resp_3.rt,trials.key_resp_3.duration,End_page.started,text_5.started,key_resp_4.started,End_page.stopped,key_resp_4.keys,key_resp_4.rt,key_resp_4.duration,participant,session,date,expName,psychopyVersion,frameRate,expStart,
,,,,,,,,,,,,0.014850200001092162,0.031260400002793176,0.031260400002793176,3.7329034000031243,space,3.6981157999980496,None,,,,,,,,,,,,,,,,,,,,,,,,,,,,,,,,,,,,,,,,,,,,,,,,,,,,,,,,,,,,,,,00002,001,2025-11-08_19h19.48.470,MST_test,2024.2.2,60.005820563508934,2025-11-08 19h19.55.557007 +0530,
,,,,,,,,,,,,,,,,,,,3.7329290000016044,3.747861700001522,3.747861700001522,14.09811620000255,space,10.338083999999071,None,,,,,,,,,,,,,,,,,,,,,,,,,,,,,,,,,,,,,,,,,,,,,,,,,,,,,,,,00002,001,2025-11-08_19h19.48.470,MST_test,2024.2.2,60.005820563508934,2025-11-08 19h19.55.557007 +0530,
,,,,,,,,,,,,,,,,,,,,,,,,,,14.098139699999592,14.114215000001423,14.114215000001423,14.114215000001423,14.114215000001423,14.114215000001423,20.247697300001164,space,6.125571900000068,None,,,,,,,,,,,,,,,,,,,,,,,,,,,,,,,,,,,,,,,,,,,,,,00002,001,2025-11-08_19h19.48.470,MST_test,2024.2.2,60.005820563508934,2025-11-08 19h19.55.557007 +0530,
,,,,,,,,,,,,,,,,,,,,,,,,,,,,,,,,,,,,20.247719400002097,20.264078700001846,20.264078700001846,20.264078700001846,20.264078700001846,20.264078700001846,23.36435800000254,space,3.0991924999980256,None,,,,,,,,,,,,,,,,,,,,,,,,,,,,,,,,,,,,00002,001,2025-11-08_19h19.48.470,MST_test,2024.2.2,60.005820563508934,2025-11-08 19h19.55.557007 +0530,
,,,,,,,,,,,,,,,,,,,,,,,,,,,,,,,,,,,,,,,,,,,,,,23.36438579999958,23.38069639999958,23.38069639999958,39.28062900000077,space,15.887340599998424,None,,,,,,,,,,,,,,,,,,,,,,,,,,,,,00002,001,2025-11-08_19h19.48.470,MST_test,2024.2.2,60.005820563508934,2025-11-08 19h19.55.557007 +0530,
,,,,,,,,,,,,,,,,,,,,,,,,,,,,,,,,,,,,,,,,,,,,,,,,,,,,,39.2806539000012,39.29706350000197,39.29706350000197,139.01188080000065,space,99.69890250000026,None,,,,,,,,,,,,,,,,,,,,,,00002,001,2025-11-08_19h19.48.470,MST_test,2024.2.2,60.005820563508934,2025-11-08 19h19.55.557007 +0530,
0,0,0,o,9.491047499999695,None,0,0,0,0,139.02829050000219,,,,,,,,,,,,,,,,,,,,,,,,,,,,,,,,,,,,,,,,,,,,,,,,,,139.01470900000277,139.02829050000219,139.52844430000187,139.51172020000013,139.51933810000264,139.52844430000187,139.52844430000187,139.52844430000187,149.02833300000202,Objects\029a.jpg,mid,o,9.491047499999695,None,,,,,,,,00002,001,2025-11-08_19h19.48.470,MST_test,2024.2.2,60.005820563508934,2025-11-08 19h19.55.557007 +0530,
1,0,1,s,38.00480550000066,None,1,0,1,0,149.04469040000185,,,,,,,,,,,,,,,,,,,,,,,,,,,,,,,,,,,,,,,,,,,,,,,,,,149.0284283000001,149.04469040000185,149.5446527000022,149.5282831000004,149.53049250000186,149.5446527000022,149.5446527000022,149.5446527000022,187.56080620000284,Objects\121a.jpg,pre,s,38.00480550000066,None,,,,,,,,00002,001,2025-11-08_19h19.48.470,MST_test,2024.2.2,60.005820563508934,2025-11-08 19h19.55.557007 +0530,
2,0,2,s,10.591576200000418,None,2,0,2,0,187.57721270000184,,,,,,,,,,,,,,,,,,,,,,,,,,,,,,,,,,,,,,,,,,,,,,,,,,187.5609070999999,187.57721270000184,188.077165900002,188.06079540000064,188.0633052000012,188.077165900002,188.077165900002,188.077165900002,198.67716800000198,Objects\063a.jpg,pre,s,10.591576200000418,None,,,,,,,,00002,001,2025-11-08_19h19.48.470,MST_test,2024.2.2,60.005820563508934,2025-11-08 19h19.55.557007 +0530,
3,0,3,s,29.791029200001503,None,3,0,3,0,198.6935145000025,,,,,,,,,,,,,,,,,,,,,,,,,,,,,,,,,,,,,,,,,,,,,,,,,,198.67725320000318,198.6935145000025,199.21041810000315,199.17702610000197,199.1931489000017,199.21041810000315,199.21041810000315,199.21041810000315,229.00994550000178,Scenes\088a.jpg,post,s,29.791029200001503,None,,,,,,,,00002,001,2025-11-08_19h19.48.470,MST_test,2024.2.2,60.005820563508934,2025-11-08 19h19.55.557007 +0530,
4,0,4,o,8.977870599999733,None,4,0,4,0,229.026178600001,,,,,,,,,,,,,,,,,,,,,,,,,,,,,,,,,,,,,,,,,,,,,,,,,,229.0100510000011,229.026178600001,229.5258782000019,229.50981940000202,229.52047289999973,229.5258782000019,229.5258782000019,229.5258782000019,238.5097633000005,Scenes\166a.jpg,mid,o,8.977870599999733,None,,,,,,,,00002,001,2025-11-08_19h19.48.470,MST_test,2024.2.2,60.005820563508934,2025-11-08 19h19.55.557007 +0530,
5,0,5,o,16.720707799999218,None,5,0,5,0,238.52597900000183,,,,,,,,,,,,,,,,,,,,,,,,,,,,,,,,,,,,,,,,,,,,,,,,,,238.50988169999982,238.52597900000183,239.0262027000026,239.0094710000012,239.0199304000016,239.0262027000026,239.0262027000026,239.0262027000026,255.75928790000034,Objects\112a.jpg,mid,o,16.720707799999218,None,,,,,,,,00002,001,2025-11-08_19h19.48.470,MST_test,2024.2.2,60.005820563508934,2025-11-08 19h19.55.557007 +0530,
6,0,6,o,21.264846999998554,None,6,0,6,0,255.7755889,,,,,,,,,,,,,,,,,,,,,,,,,,,,,,,,,,,,,,,,,,,,,,,,,,255.7593807000012,255.7755889,256.3088811000016,256.2590909000028,256.29398720000245,256.3088811000016,256.3088811000016,256.3088811000016,277.5754354000019,Scenes\003b.jpg,mid,o,21.264846999998554,None,,,,,,,,00002,001,2025-11-08_19h19.48.470,MST_test,2024.2.2,60.005820563508934,2025-11-08 19h19.55.557007 +0530,
7,0,7,s,27.504894399997283,None,7,0,7,0,277.5917453000002,,,,,,,,,,,,,,,,,,,,,,,,,,,,,,,,,,,,,,,,,,,,,,,,,,277.5755172999998,277.5917453000002,278.10842160000175,278.07523030000084,278.09945880000305,278.10842160000175,278.10842160000175,278.10842160000175,305.6248680000026,Objects\114b.jpg,post,s,27.504894399997283,None,,,,,,,,00002,001,2025-11-08_19h19.48.470,MST_test,2024.2.2,60.005820563508934,2025-11-08 19h19.55.557007 +0530,
8,0,8,s,7.230704600002355,None,8,0,8,0,305.6411689000015,,,,,,,,,,,,,,,,,,,,,,,,,,,,,,,,,,,,,,,,,,,,,,,,,,305.6249578999996,305.6411689000015,306.15805890000047,306.124606100002,306.13852640000187,306.15805890000047,306.15805890000047,306.15805890000047,313.3912952999999,Scenes\037a.jpg,mid,s,7.230704600002355,None,,,,,,,,00002,001,2025-11-08_19h19.48.470,MST_test,2024.2.2,60.005820563508934,2025-11-08 19h19.55.557007 +0530,
9,0,9,n,17.293577899999946,None,9,0,9,0,313.407650000001,,,,,,,,,,,,,,,,,,,,,,,,,,,,,,,,,,,,,,,,,,,,,,,,,,313.3913764000026,313.407650000001,313.9245067000011,313.8911289000025,313.9166980000009,313.9245067000011,313.9245067000011,313.9245067000011,331.2244522000001,Scenes\077b.jpg,post,n,17.293577899999946,None,,,,,,,,00002,001,2025-11-08_19h19.48.470,MST_test,2024.2.2,60.005820563508934,2025-11-08 19h19.55.557007 +0530,
10,0,10,s,14.612868800002616,None,10,0,10,0,331.24062960000083,,,,,,,,,,,,,,,,,,,,,,,,,,,,,,,,,,,,,,,,,,,,,,,,,,331.2245628000019,331.24062960000083,331.75726230000146,331.72413210000013,331.74157170000035,331.75726230000146,331.75726230000146,331.75726230000146,346.3738897000003,Objects\109b.jpg,pre,s,14.612868800002616,None,,,,,,,,00002,001,2025-11-08_19h19.48.470,MST_test,2024.2.2,60.005820563508934,2025-11-08 19h19.55.557007 +0530,
11,0,11,n,6.921117199999571,None,11,0,11,0,346.3902307999997,,,,,,,,,,,,,,,,,,,,,,,,,,,,,,,,,,,,,,,,,,,,,,,,,,346.3739671000003,346.3902307999997,346.906894300002,346.8738439000008,346.8903728000005,346.906894300002,346.906894300002,346.906894300002,353.8405034000025,Foils\018a.jpg,none,n,6.921117199999571,None,,,,,,,,00002,001,2025-11-08_19h19.48.470,MST_test,2024.2.2,60.005820563508934,2025-11-08 19h19.55.557007 +0530,
12,0,12,s,9.012122599997383,None,12,0,12,0,353.85676930000045,,,,,,,,,,,,,,,,,,,,,,,,,,,,,,,,,,,,,,,,,,,,,,,,,,353.8405988000013,353.85676930000045,354.37341860000015,354.340337200003,354.35137450000184,354.37341860000015,354.37341860000015,354.37341860000015,363.3902084000001,Scenes\027a.jpg,post,s,9.012122599997383,None,,,,,,,,00002,001,2025-11-08_19h19.48.470,MST_test,2024.2.2,60.005820563508934,2025-11-08 19h19.55.557007 +0530,
13,0,13,s,18.151522500000283,None,13,0,13,0,363.40656030000173,,,,,,,,,,,,,,,,,,,,,,,,,,,,,,,,,,,,,,,,,,,,,,,,,,363.3902983000007,363.40656030000173,363.93994450000173,363.89016090000223,363.9227002000007,363.93994450000173,363.93994450000173,363.93994450000173,382.10651900000084,Objects\128b.jpg,mid,s,18.151522500000283,None,,,,,,,,00002,001,2025-11-08_19h19.48.470,MST_test,2024.2.2,60.005820563508934,2025-11-08 19h19.55.557007 +0530,
14,0,14,n,3.753798199999437,None,14,0,14,0,382.12289910000254,,,,,,,,,,,,,,,,,,,,,,,,,,,,,,,,,,,,,,,,,,,,,,,,,,382.10660570000255,382.12289910000254,382.6398353000004,382.6063473000031,382.623933400002,382.6398353000004,382.6398353000004,382.6398353000004,386.40639790000205,Foils\106a.jpg,none,n,3.753798199999437,None,,,,,,,,00002,001,2025-11-08_19h19.48.470,MST_test,2024.2.2,60.005820563508934,2025-11-08 19h19.55.557007 +0530,
15,0,15,n,4.401494699999603,None,15,0,15,0,386.42284199999995,,,,,,,,,,,,,,,,,,,,,,,,,,,,,,,,,,,,,,,,,,,,,,,,,,386.4064754000028,386.42284199999995,386.9227608000001,386.906257300001,386.91602440000133,386.9227608000001,386.9227608000001,386.9227608000001,391.3396783999997,Objects\110b.jpg,mid,n,4.401494699999603,None,,,,,,,,00002,001,2025-11-08_19h19.48.470,MST_test,2024.2.2,60.005820563508934,2025-11-08 19h19.55.557007 +0530,
16,0,16,s,35.03125980000186,None,16,0,16,0,391.35602690000087,,,,,,,,,,,,,,,,,,,,,,,,,,,,,,,,,,,,,,,,,,,,,,,,,,391.3397736000006,391.35602690000087,391.87266100000124,391.8396425000028,391.8569748000009,391.87266100000124,391.87266100000124,391.87266100000124,426.9054941000031,Foils\026a.jpg,none,s,35.03125980000186,None,,,,,,,,00002,001,2025-11-08_19h19.48.470,MST_test,2024.2.2,60.005820563508934,2025-11-08 19h19.55.557007 +0530,
17,0,17,o,7.193451600000117,None,17,0,17,0,426.92179770000075,,,,,,,,,,,,,,,,,,,,,,,,,,,,,,,,,,,,,,,,,,,,,,,,,,426.9055907000002,426.92179770000075,427.42178700000295,427.40530370000124,427.4156064000017,427.42178700000295,427.42178700000295,427.42178700000295,434.6219717000022,Objects\023a.jpg,post,o,7.193451600000117,None,,,,,,,,00002,001,2025-11-08_19h19.48.470,MST_test,2024.2.2,60.005820563508934,2025-11-08 19h19.55.557007 +0530,
18,0,18,o,11.187021599998843,None,18,0,18,0,434.6383517000031,,,,,,,,,,,,,,,,,,,,,,,,,,,,,,,,,,,,,,,,,,,,,,,,,,434.6220644000023,434.6383517000031,435.1552941000009,435.12183619999996,435.13455410000097,435.1552941000009,435.1552941000009,435.1552941000009,446.3550083000009,Scenes\161a.jpg,post,o,11.187021599998843,None,,,,,,,,00002,001,2025-11-08_19h19.48.470,MST_test,2024.2.2,60.005820563508934,2025-11-08 19h19.55.557007 +0530,
19,0,19,s,8.419536900000821,None,19,0,19,0,446.371401700002,,,,,,,,,,,,,,,,,,,,,,,,,,,,,,,,,,,,,,,,,,,,,,,,,,446.35509660000025,446.371401700002,446.888028100002,446.8548585999997,446.8734031000022,446.888028100002,446.888028100002,446.888028100002,455.32169310000245,Objects\032b.jpg,pre,s,8.419536900000821,None,,,,,,,,00002,001,2025-11-08_19h19.48.470,MST_test,2024.2.2,60.005820563508934,2025-11-08 19h19.55.557007 +0530,
20,0,20,n,7.974454100000003,None,20,0,20,0,455.337871300002,,,,,,,,,,,,,,,,,,,,,,,,,,,,,,,,,,,,,,,,,,,,,,,,,,455.321785600001,455.337871300002,455.85487400000056,455.82136190000165,455.8342272000009,455.85487400000056,455.85487400000056,455.85487400000056,463.83812820000094,Scenes\127a.jpg,mid,n,7.974454100000003,None,,,,,,,,00002,001,2025-11-08_19h19.48.470,MST_test,2024.2.2,60.005820563508934,2025-11-08 19h19.55.557007 +0530,
21,0,21,o,7.605057599997963,None,21,0,21,0,463.85438440000144,,,,,,,,,,,,,,,,,,,,,,,,,,,,,,,,,,,,,,,,,,,,,,,,,,463.8382137000008,463.85438440000144,464.3543000999998,464.3378795999997,464.34743490000255,464.3543000999998,464.3543000999998,464.3543000999998,471.9712651000009,Scenes\123a.jpg,pre,o,7.605057599997963,None,,,,,,,,00002,001,2025-11-08_19h19.48.470,MST_test,2024.2.2,60.005820563508934,2025-11-08 19h19.55.557007 +0530,
22,0,22,n,5.908073600003263,None,22,0,22,0,471.98756180000055,,,,,,,,,,,,,,,,,,,,,,,,,,,,,,,,,,,,,,,,,,,,,,,,,,471.9713612000014,471.98756180000055,472.4874729000003,472.47110760000214,472.48304180000196,472.4874729000003,472.4874729000003,472.4874729000003,478.4043191000019,Foils\034a.jpg,none,n,5.908073600003263,None,,,,,,,,00002,001,2025-11-08_19h19.48.470,MST_test,2024.2.2,60.005820563508934,2025-11-08 19h19.55.557007 +0530,
23,0,23,n,8.971418700002687,None,23,0,23,0,478.42069940000147,,,,,,,,,,,,,,,,,,,,,,,,,,,,,,,,,,,,,,,,,,,,,,,,,,478.4043939000003,478.42069940000147,478.9206587000008,478.9042401000006,478.9137522000019,478.9206587000008,478.9206587000008,478.9206587000008,487.9043606000014,Foils\050a.jpg,none,n,8.971418700002687,None,,,,,,,,00002,001,2025-11-08_19h19.48.470,MST_test,2024.2.2,60.005820563508934,2025-11-08 19h19.55.557007 +0530,
24,0,24,o,4.7378275000010035,None,24,0,24,0,487.9205505000027,,,,,,,,,,,,,,,,,,,,,,,,,,,,,,,,,,,,,,,,,,,,,,,,,,487.9044532000007,487.9205505000027,488.420114200002,488.40403549999974,488.4144761999996,488.420114200002,488.420114200002,488.420114200002,493.170695300003,Scenes\007a.jpg,mid,o,4.7378275000010035,None,,,,,,,,00002,001,2025-11-08_19h19.48.470,MST_test,2024.2.2,60.005820563508934,2025-11-08 19h19.55.557007 +0530,
25,0,25,s,7.002639600003022,None,25,0,25,0,493.18713520000165,,,,,,,,,,,,,,,,,,,,,,,,,,,,,,,,,,,,,,,,,,,,,,,,,,493.170777000003,493.18713520000165,493.7037844000006,493.6706926000006,493.68795030000183,493.7037844000006,493.7037844000006,493.7037844000006,500.7207457000004,Objects\011b.jpg,pre,s,7.002639600003022,None,,,,,,,,00002,001,2025-11-08_19h19.48.470,MST_test,2024.2.2,60.005820563508934,2025-11-08 19h19.55.557007 +0530,
26,0,26,n,4.026744399998279,None,26,0,26,0,500.736935500001,,,,,,,,,,,,,,,,,,,,,,,,,,,,,,,,,,,,,,,,,,,,,,,,,,500.7208268000031,500.736935500001,501.2538854000013,501.2204612000023,501.24019130000306,501.2538854000013,501.2538854000013,501.2538854000013,505.28714820000096,Foils\scenes28.jpg,none,n,4.026744399998279,None,,,,,,,,00002,001,2025-11-08_19h19.48.470,MST_test,2024.2.2,60.005820563508934,2025-11-08 19h19.55.557007 +0530,
27,0,27,o,4.574521799997456,None,27,0,27,0,505.3035707000017,,,,,,,,,,,,,,,,,,,,,,,,,,,,,,,,,,,,,,,,,,,,,,,,,,505.2872314000015,505.3035707000017,505.82039000000077,505.78705080000145,505.80221620000157,505.82039000000077,505.82039000000077,505.82039000000077,510.4037696000014,Scenes\130a.jpg,pre,o,4.574521799997456,None,,,,,,,,00002,001,2025-11-08_19h19.48.470,MST_test,2024.2.2,60.005820563508934,2025-11-08 19h19.55.557007 +0530,
28,0,28,o,7.134706000000733,None,28,0,28,0,510.42012180000165,,,,,,,,,,,,,,,,,,,,,,,,,,,,,,,,,,,,,,,,,,,,,,,,,,510.40384819999963,510.42012180000165,510.9369336000018,510.9035457000027,510.91466140000193,510.9369336000018,510.9369336000018,510.9369336000018,518.0869200000016,Scenes\177a.jpg,mid,o,7.134706000000733,None,,,,,,,,00002,001,2025-11-08_19h19.48.470,MST_test,2024.2.2,60.005820563508934,2025-11-08 19h19.55.557007 +0530,
29,0,29,n,5.445525099999941,None,29,0,29,0,518.103245600003,,,,,,,,,,,,,,,,,,,,,,,,,,,,,,,,,,,,,,,,,,,,,,,,,,518.0870174000011,518.103245600003,518.6201926000031,518.5867269000009,518.6002829999998,518.6201926000031,518.6201926000031,518.6201926000031,524.0700797000027,Foils\scenes6.jpg,none,n,5.445525099999941,None,,,,,,,,00002,001,2025-11-08_19h19.48.470,MST_test,2024.2.2,60.005820563508934,2025-11-08 19h19.55.557007 +0530,
30,0,30,s,8.297964299999876,None,30,0,30,0,524.0864266000026,,,,,,,,,,,,,,,,,,,,,,,,,,,,,,,,,,,,,,,,,,,,,,,,,,524.0701665000015,524.0864266000026,524.6034338999998,524.5699241000002,524.5872301000018,524.6034338999998,524.6034338999998,524.6034338999998,532.9032260000022,Objects\099b.jpg,pre,s,8.297964299999876,None,,,,,,,,00002,001,2025-11-08_19h19.48.470,MST_test,2024.2.2,60.005820563508934,2025-11-08 19h19.55.557007 +0530,
31,0,31,o,6.60745240000324,None,31,0,31,0,532.9195909000009,,,,,,,,,,,,,,,,,,,,,,,,,,,,,,,,,,,,,,,,,,,,,,,,,,532.9033242000005,532.9195909000009,533.4528817999999,533.4031565000005,533.4324788000013,533.4528817999999,533.4528817999999,533.4528817999999,540.0697336000012,Scenes\143b.jpg,mid,o,6.60745240000324,None,,,,,,,,00002,001,2025-11-08_19h19.48.470,MST_test,2024.2.2,60.005820563508934,2025-11-08 19h19.55.557007 +0530,
32,0,32,o,3.9775368999980856,None,32,0,32,0,540.0861062000004,,,,,,,,,,,,,,,,,,,,,,,,,,,,,,,,,,,,,,,,,,,,,,,,,,540.0698115000014,540.0861062000004,540.5860683999999,540.5695836000014,540.5804024999998,540.5860683999999,540.5860683999999,540.5860683999999,544.5696188000002,Objects\187a.jpg,pre,o,3.9775368999980856,None,,,,,,,,00002,001,2025-11-08_19h19.48.470,MST_test,2024.2.2,60.005820563508934,2025-11-08 19h19.55.557007 +0530,
33,0,33,o,6.681199300001026,None,33,0,33,0,544.5859823999999,,,,,,,,,,,,,,,,,,,,,,,,,,,,,,,,,,,,,,,,,,,,,,,,,,544.5697149000007,544.5859823999999,545.1025584000017,545.0694585000019,545.0813417000027,545.1025584000017,545.1025584000017,545.1025584000017,551.7861678000008,Scenes\137b.jpg,pre,o,6.681199300001026,None,,,,,,,,00002,001,2025-11-08_19h19.48.470,MST_test,2024.2.2,60.005820563508934,2025-11-08 19h19.55.557007 +0530,
34,0,34,s,7.780136800000037,None,34,0,34,0,551.8024203000023,,,,,,,,,,,,,,,,,,,,,,,,,,,,,,,,,,,,,,,,,,,,,,,,,,551.7862572000013,551.8024203000023,552.3357195000026,552.2860184000019,552.3179278999996,552.3357195000026,552.3357195000026,552.3357195000026,560.1193908000023,Scenes\136b.jpg,pre,s,7.780136800000037,None,,,,,,,,00002,001,2025-11-08_19h19.48.470,MST_test,2024.2.2,60.005820563508934,2025-11-08 19h19.55.557007 +0530,
35,0,35,n,7.251615500001208,None,35,0,35,0,560.1355448000031,,,,,,,,,,,,,,,,,,,,,,,,,,,,,,,,,,,,,,,,,,,,,,,,,,560.1194877000016,560.1355448000031,560.6524935000016,560.6191595000018,560.6431364000018,560.6524935000016,560.6524935000016,560.6524935000016,567.9191167000026,Scenes\191b.jpg,pre,n,7.251615500001208,None,,,,,,,,00002,001,2025-11-08_19h19.48.470,MST_test,2024.2.2,60.005820563508934,2025-11-08 19h19.55.557007 +0530,
36,0,36,n,10.494203300000663,None,36,0,36,0,567.9354087000029,,,,,,,,,,,,,,,,,,,,,,,,,,,,,,,,,,,,,,,,,,,,,,,,,,567.9191965000027,567.9354087000029,568.4520272000009,568.4189434,568.4311242000003,568.4520272000009,568.4520272000009,568.4520272000009,578.9521789999999,Scenes\189a.jpg,mid,n,10.494203300000663,None,,,,,,,,00002,001,2025-11-08_19h19.48.470,MST_test,2024.2.2,60.005820563508934,2025-11-08 19h19.55.557007 +0530,
37,0,37,o,16.8143768000009,None,37,0,37,0,578.9684763000005,,,,,,,,,,,,,,,,,,,,,,,,,,,,,,,,,,,,,,,,,,,,,,,,,,578.9522558999997,578.9684763000005,579.4851178000026,579.4520037000002,579.4764195999996,579.4851178000026,579.4851178000026,579.4851178000026,596.3018188000024,Scenes\149b.jpg,mid,o,16.8143768000009,None,,,,,,,,00002,001,2025-11-08_19h19.48.470,MST_test,2024.2.2,60.005820563508934,2025-11-08 19h19.55.557007 +0530,
38,0,38,n,4.414475699999457,None,38,0,38,0,596.3181162000001,,,,,,,,,,,,,,,,,,,,,,,,,,,,,,,,,,,,,,,,,,,,,,,,,,596.3018940000002,596.3181162000001,597.0851421000007,596.8016910000006,597.0593909000017,597.0851421000007,597.0851421000007,597.0851421000007,601.5017395000032,Foils\scenes26.jpg,none,n,4.414475699999457,None,,,,,,,,00002,001,2025-11-08_19h19.48.470,MST_test,2024.2.2,60.005820563508934,2025-11-08 19h19.55.557007 +0530,
39,0,39,s,5.228175499996723,None,39,0,39,0,601.5179962000002,,,,,,,,,,,,,,,,,,,,,,,,,,,,,,,,,,,,,,,,,,,,,,,,,,601.5018176000012,601.5179962000002,602.051546900002,602.0015859000014,602.0363668999998,602.051546900002,602.051546900002,602.051546900002,607.2850476000021,Objects\161b.jpg,pre,s,5.228175499996723,None,,,,,,,,00002,001,2025-11-08_19h19.48.470,MST_test,2024.2.2,60.005820563508934,2025-11-08 19h19.55.557007 +0530,
40,0,40,n,8.509020999998029,None,40,0,40,0,607.3010630000026,,,,,,,,,,,,,,,,,,,,,,,,,,,,,,,,,,,,,,,,,,,,,,,,,,607.2851372000005,607.3010630000026,607.8011622000013,607.784811700003,607.7959389999996,607.8011622000013,607.8011622000013,607.8011622000013,616.3179815000003,Foils\066a.jpg,none,n,8.509020999998029,None,,,,,,,,00002,001,2025-11-08_19h19.48.470,MST_test,2024.2.2,60.005820563508934,2025-11-08 19h19.55.557007 +0530,
41,0,41,o,12.297477199997957,None,41,0,41,0,616.3343382000021,,,,,,,,,,,,,,,,,,,,,,,,,,,,,,,,,,,,,,,,,,,,,,,,,,616.3180759000024,616.3343382000021,616.8342991000027,616.8179802000013,616.8280505000002,616.8342991000027,616.8342991000027,616.8342991000027,629.1343839000001,Objects\014a.jpg,mid,o,12.297477199997957,None,,,,,,,,00002,001,2025-11-08_19h19.48.470,MST_test,2024.2.2,60.005820563508934,2025-11-08 19h19.55.557007 +0530,
42,0,42,s,5.5448481000021275,None,42,0,42,0,629.1507290000009,,,,,,,,,,,,,,,,,,,,,,,,,,,,,,,,,,,,,,,,,,,,,,,,,,629.1344722000031,629.1507290000009,629.6673590000028,629.634267700003,629.6515887000023,629.6673590000028,629.6673590000028,629.6673590000028,635.2175611000021,Objects\054b.jpg,post,s,5.5448481000021275,None,,,,,,,,00002,001,2025-11-08_19h19.48.470,MST_test,2024.2.2,60.005820563508934,2025-11-08 19h19.55.557007 +0530,
43,0,43,o,12.85571820000041,None,43,0,43,0,635.2339281000022,,,,,,,,,,,,,,,,,,,,,,,,,,,,,,,,,,,,,,,,,,,,,,,,,,635.2176376000025,635.2339281000022,635.7339219000023,635.7173989000003,635.729141900003,635.7339219000023,635.7339219000023,635.7339219000023,648.6006058000021,Objects\072a.jpg,post,o,12.85571820000041,None,,,,,,,,00002,001,2025-11-08_19h19.48.470,MST_test,2024.2.2,60.005820563508934,2025-11-08 19h19.55.557007 +0530,
44,0,44,n,4.483975399998599,None,44,0,44,0,648.6169738999997,,,,,,,,,,,,,,,,,,,,,,,,,,,,,,,,,,,,,,,,,,,,,,,,,,648.6006902000008,648.6169738999997,649.1339315000005,649.1004964000022,649.1217257999997,649.1339315000005,649.1339315000005,649.1339315000005,653.6337600000006,Scenes\085a.jpg,pre,n,4.483975399998599,None,,,,,,,,00002,001,2025-11-08_19h19.48.470,MST_test,2024.2.2,60.005820563508934,2025-11-08 19h19.55.557007 +0530,
45,0,45,o,14.829978099998698,None,45,0,45,0,653.6501961000031,,,,,,,,,,,,,,,,,,,,,,,,,,,,,,,,,,,,,,,,,,,,,,,,,,653.6338434000027,653.6501961000031,654.1669772000023,654.133662100001,654.1539322000026,654.1669772000023,654.1669772000023,654.1669772000023,669.0000990000008,Scenes\005b.jpg,mid,o,14.829978099998698,None,,,,,,,,00002,001,2025-11-08_19h19.48.470,MST_test,2024.2.2,60.005820563508934,2025-11-08 19h19.55.557007 +0530,
46,0,46,s,11.647250099998928,None,46,0,46,0,669.0165276000007,,,,,,,,,,,,,,,,,,,,,,,,,,,,,,,,,,,,,,,,,,,,,,,,,,669.0001860000011,669.0165276000007,669.5498951000009,669.5000403000013,669.5392860000029,669.5498951000009,669.5498951000009,669.5498951000009,681.2000193000022,Scenes\121b.jpg,post,s,11.647250099998928,None,,,,,,,,00002,001,2025-11-08_19h19.48.470,MST_test,2024.2.2,60.005820563508934,2025-11-08 19h19.55.557007 +0530,
47,0,47,s,25.771649199999956,None,47,0,47,0,681.216226200002,,,,,,,,,,,,,,,,,,,,,,,,,,,,,,,,,,,,,,,,,,,,,,,,,,681.2001056000008,681.216226200002,681.7498028000009,681.6998474000029,681.7319437000006,681.7498028000009,681.7498028000009,681.7498028000009,707.5327784000001,Objects\158b.jpg,post,s,25.771649199999956,None,,,,,,,,00002,001,2025-11-08_19h19.48.470,MST_test,2024.2.2,60.005820563508934,2025-11-08 19h19.55.557007 +0530,
48,0,48,s,7.858342300001823,None,48,0,48,0,707.5490052000023,,,,,,,,,,,,,,,,,,,,,,,,,,,,,,,,,,,,,,,,,,,,,,,,,,707.5328706,707.5490052000023,708.0656388000025,708.0326086000023,708.0491806999999,708.0656388000025,708.0656388000025,708.0656388000025,715.9325998000022,Objects\040b.jpg,pre,s,7.858342300001823,None,,,,,,,,00002,001,2025-11-08_19h19.48.470,MST_test,2024.2.2,60.005820563508934,2025-11-08 19h19.55.557007 +0530,
49,0,49,s,3.34677770000053,None,49,0,49,0,715.9488222,,,,,,,,,,,,,,,,,,,,,,,,,,,,,,,,,,,,,,,,,,,,,,,,,,715.9326851000005,715.9488222,716.4654627000018,716.4323451000018,716.4556308000028,716.4654627000018,716.4654627000018,716.4654627000018,719.8157266000017,Objects\107b.jpg,post,s,3.34677770000053,None,,,,,,,,00002,001,2025-11-08_19h19.48.470,MST_test,2024.2.2,60.005820563508934,2025-11-08 19h19.55.557007 +0530,
50,0,50,n,7.369328200002201,None,50,0,50,0,719.8320770000028,,,,,,,,,,,,,,,,,,,,,,,,,,,,,,,,,,,,,,,,,,,,,,,,,,719.815817900002,719.8320770000028,720.3487258000023,720.3155463000003,720.3317701000014,720.3487258000023,720.3487258000023,720.3487258000023,727.7323174000012,Scenes\069a.jpg,pre,n,7.369328200002201,None,,,,,,,,00002,001,2025-11-08_19h19.48.470,MST_test,2024.2.2,60.005820563508934,2025-11-08 19h19.55.557007 +0530,
51,0,51,n,2.1376629999977013,None,51,0,51,0,727.7485796000001,,,,,,,,,,,,,,,,,,,,,,,,,,,,,,,,,,,,,,,,,,,,,,,,,,727.732415800001,727.7485796000001,728.2818707000006,728.2320517000007,728.271385,728.2818707000006,728.2818707000006,728.2818707000006,730.432251000002,Scenes\114b.jpg,mid,n,2.1376629999977013,None,,,,,,,,00002,001,2025-11-08_19h19.48.470,MST_test,2024.2.2,60.005820563508934,2025-11-08 19h19.55.557007 +0530,
52,0,52,n,2.862555700001394,None,52,0,52,0,730.4485090000016,,,,,,,,,,,,,,,,,,,,,,,,,,,,,,,,,,,,,,,,,,,,,,,,,,730.4323463000001,730.4485090000016,730.9652356000006,730.9319824000013,730.9497345000018,730.9652356000006,730.9652356000006,730.9652356000006,733.8321776000012,Foils\098a.jpg,none,n,2.862555700001394,None,,,,,,,,00002,001,2025-11-08_19h19.48.470,MST_test,2024.2.2,60.005820563508934,2025-11-08 19h19.55.557007 +0530,
53,0,53,n,1.3369361999975808,None,53,0,53,0,733.8484639000017,,,,,,,,,,,,,,,,,,,,,,,,,,,,,,,,,,,,,,,,,,,,,,,,,,733.8322590000025,733.8484639000017,734.3817248000014,734.331919100001,734.3690795000002,734.3817248000014,734.3817248000014,734.3817248000014,735.732006000002,Scenes\168b.jpg,mid,n,1.3369361999975808,None,,,,,,,,00002,001,2025-11-08_19h19.48.470,MST_test,2024.2.2,60.005820563508934,2025-11-08 19h19.55.557007 +0530,
54,0,54,n,8.706978399997752,None,54,0,54,0,735.7483892000018,,,,,,,,,,,,,,,,,,,,,,,,,,,,,,,,,,,,,,,,,,,,,,,,,,735.7320820000023,735.7483892000018,736.2484065000026,736.2318394000031,736.2419618000022,736.2484065000026,736.2484065000026,736.2484065000026,744.9651549000009,Objects\060a.jpg,mid,n,8.706978399997752,None,,,,,,,,00002,001,2025-11-08_19h19.48.470,MST_test,2024.2.2,60.005820563508934,2025-11-08 19h19.55.557007 +0530,
55,0,55,s,6.717006300001231,None,55,0,55,0,744.9815250000029,,,,,,,,,,,,,,,,,,,,,,,,,,,,,,,,,,,,,,,,,,,,,,,,,,744.965240700003,744.9815250000029,745.5148814000022,745.4649893000023,745.496661000001,745.5148814000022,745.5148814000022,745.5148814000022,752.2483828000004,Scenes\068b.jpg,pre,s,6.717006300001231,None,,,,,,,,00002,001,2025-11-08_19h19.48.470,MST_test,2024.2.2,60.005820563508934,2025-11-08 19h19.55.557007 +0530,
56,0,56,n,6.50597259999995,None,56,0,56,0,752.2647115,,,,,,,,,,,,,,,,,,,,,,,,,,,,,,,,,,,,,,,,,,,,,,,,,,752.2484621000003,752.2647115,752.7980262000019,752.7482047000012,752.7782872999996,752.7980262000019,752.7980262000019,752.7980262000019,759.3149384999997,Scenes\124b.jpg,mid,n,6.50597259999995,None,,,,,,,,00002,001,2025-11-08_19h19.48.470,MST_test,2024.2.2,60.005820563508934,2025-11-08 19h19.55.557007 +0530,
57,0,57,n,6.297565599998052,None,57,0,57,0,759.3312076000002,,,,,,,,,,,,,,,,,,,,,,,,,,,,,,,,,,,,,,,,,,,,,,,,,,759.3150305000017,759.3312076000002,759.831164700001,759.8147480000007,759.8258274,759.831164700001,759.831164700001,759.831164700001,766.1313984000008,Foils\090a.jpg,none,n,6.297565599998052,None,,,,,,,,00002,001,2025-11-08_19h19.48.470,MST_test,2024.2.2,60.005820563508934,2025-11-08 19h19.55.557007 +0530,
58,0,58,n,4.455410599999595,None,58,0,58,0,766.1477310000009,,,,,,,,,,,,,,,,,,,,,,,,,,,,,,,,,,,,,,,,,,,,,,,,,,766.1314738000001,766.1477310000009,766.6646314999998,766.6312599000012,766.6473775000013,766.6646314999998,766.6646314999998,766.6646314999998,771.1312625000028,Scenes\175a.jpg,post,n,4.455410599999595,None,,,,,,,,00002,001,2025-11-08_19h19.48.470,MST_test,2024.2.2,60.005820563508934,2025-11-08 19h19.55.557007 +0530,
59,0,59,o,4.846490600000834,None,59,0,59,0,771.1476192000009,,,,,,,,,,,,,,,,,,,,,,,,,,,,,,,,,,,,,,,,,,,,,,,,,,771.1313549000006,771.1476192000009,771.6475782000016,771.6311064000001,771.6424951000008,771.6475782000016,771.6475782000016,771.6475782000016,776.497821500001,Objects\118a.jpg,post,o,4.846490600000834,None,,,,,,,,00002,001,2025-11-08_19h19.48.470,MST_test,2024.2.2,60.005820563508934,2025-11-08 19h19.55.557007 +0530,
60,0,60,s,5.911576000002242,None,60,0,60,0,776.5141699000014,,,,,,,,,,,,,,,,,,,,,,,,,,,,,,,,,,,,,,,,,,,,,,,,,,776.4979026000001,776.5141699000014,,776.9984196000005,777.0081464000032,777.014176800003,777.014176800003,777.014176800003,782.9310170000026,Foils\097a.jpg,none,s,5.911576000002242,None,,,,,,,,00002,001,2025-11-08_19h19.48.470,MST_test,2024.2.2,60.005820563508934,2025-11-08 19h19.55.557007 +0530,
61,0,61,o,20.52437060000011,None,61,0,61,0,782.9473605000021,,,,,,,,,,,,,,,,,,,,,,,,,,,,,,,,,,,,,,,,,,,,,,,,,,782.9310956000008,782.9473605000021,783.4473136000015,783.430934,783.4408899000009,783.4473136000015,783.4473136000015,783.4473136000015,803.9806817000026,Objects\031a.jpg,mid,o,20.52437060000011,None,,,,,,,,00002,001,2025-11-08_19h19.48.470,MST_test,2024.2.2,60.005820563508934,2025-11-08 19h19.55.557007 +0530,
62,0,62,n,14.040699900000618,None,62,0,62,0,803.9969058000024,,,,,,,,,,,,,,,,,,,,,,,,,,,,,,,,,,,,,,,,,,,,,,,,,,803.9807628000017,803.9969058000024,804.4971216000013,804.4803820000016,804.4866198000018,804.4971216000013,804.4971216000013,804.4971216000013,818.546855800003,Foils\scenes13.jpg,none,n,14.040699900000618,None,,,,,,,,00002,001,2025-11-08_19h19.48.470,MST_test,2024.2.2,60.005820563508934,2025-11-08 19h19.55.557007 +0530,
63,0,63,o,2.4857145999994827,None,63,0,63,0,818.5633145000029,,,,,,,,,,,,,,,,,,,,,,,,,,,,,,,,,,,,,,,,,,,,,,,,,,818.5469506000009,818.5633145000029,819.0801032000018,819.0467297000032,819.0629359000013,819.0801032000018,819.0801032000018,819.0801032000018,821.5802613000014,Scenes\042a.jpg,pre,o,2.4857145999994827,None,,,,,,,,00002,001,2025-11-08_19h19.48.470,MST_test,2024.2.2,60.005820563508934,2025-11-08 19h19.55.557007 +0530,
64,0,64,o,2.316072900001018,None,64,0,64,0,821.5965167000031,,,,,,,,,,,,,,,,,,,,,,,,,,,,,,,,,,,,,,,,,,,,,,,,,,821.5803457000002,821.5965167000031,822.0964784000025,822.0800718999999,822.0905837000028,822.0964784000025,822.0964784000025,822.0964784000025,824.4135483999999,Objects\178a.jpg,post,o,2.316072900001018,None,,,,,,,,00002,001,2025-11-08_19h19.48.470,MST_test,2024.2.2,60.005820563508934,2025-11-08 19h19.55.557007 +0530,
65,0,65,n,2.6501238999990164,None,65,0,65,0,824.4297680000018,,,,,,,,,,,,,,,,,,,,,,,,,,,,,,,,,,,,,,,,,,,,,,,,,,824.4136232000019,824.4297680000018,824.9801359000012,824.913393400002,824.9628033000008,824.9801359000012,824.9801359000012,824.9801359000012,827.6468000000023,Foils\scenes22.jpg,none,n,2.6501238999990164,None,,,,,,,,00002,001,2025-11-08_19h19.48.470,MST_test,2024.2.2,60.005820563508934,2025-11-08 19h19.55.557007 +0530,
66,0,66,o,3.221635800000513,None,66,0,66,0,827.6630116000015,,,,,,,,,,,,,,,,,,,,,,,,,,,,,,,,,,,,,,,,,,,,,,,,,,827.6468901000007,827.6630116000015,828.196559,828.1465900000003,828.1866607000011,828.196559,828.196559,828.196559,831.4300412000011,Scenes\104b.jpg,post,o,3.221635800000513,None,,,,,,,,00002,001,2025-11-08_19h19.48.470,MST_test,2024.2.2,60.005820563508934,2025-11-08 19h19.55.557007 +0530,
67,0,67,o,10.231040300001041,None,67,0,67,0,831.4463013000022,,,,,,,,,,,,,,,,,,,,,,,,,,,,,,,,,,,,,,,,,,,,,,,,,,831.4301239000015,831.4463013000022,831.9966106000029,831.9297434,831.9789818000027,831.9966106000029,831.9966106000029,831.9966106000029,842.2298625000003,Scenes\034b.jpg,mid,o,10.231040300001041,None,,,,,,,,00002,001,2025-11-08_19h19.48.470,MST_test,2024.2.2,60.005820563508934,2025-11-08 19h19.55.557007 +0530,
68,0,68,s,9.11507089999941,None,68,0,68,0,842.2460630000023,,,,,,,,,,,,,,,,,,,,,,,,,,,,,,,,,,,,,,,,,,,,,,,,,,842.229967000003,842.2460630000023,842.7794423000014,842.7297532000011,842.7614726000029,842.7794423000014,842.7794423000014,842.7794423000014,851.8961960000015,Scenes\169b.jpg,pre,s,9.11507089999941,None,,,,,,,,00002,001,2025-11-08_19h19.48.470,MST_test,2024.2.2,60.005820563508934,2025-11-08 19h19.55.557007 +0530,
69,0,69,o,1.9753625000012107,None,69,0,69,0,851.9126527000008,,,,,,,,,,,,,,,,,,,,,,,,,,,,,,,,,,,,,,,,,,,,,,,,,,851.8962775,851.9126527000008,852.4129779000032,852.3960865000008,852.4058401000002,852.4129779000032,852.4129779000032,852.4129779000032,854.3962812999998,Objects\073b.jpg,pre,o,1.9753625000012107,None,,,,,,,,00002,001,2025-11-08_19h19.48.470,MST_test,2024.2.2,60.005820563508934,2025-11-08 19h19.55.557007 +0530,
70,0,70,o,1.762398500002746,None,70,0,70,0,854.4125509000005,,,,,,,,,,,,,,,,,,,,,,,,,,,,,,,,,,,,,,,,,,,,,,,,,,854.3963675000014,854.4125509000005,854.9291911,854.8960374000017,854.9144256,854.9291911,854.9291911,854.9291911,856.6961987000032,Scenes\107a.jpg,pre,o,1.762398500002746,None,,,,,,,,00002,001,2025-11-08_19h19.48.470,MST_test,2024.2.2,60.005820563508934,2025-11-08 19h19.55.557007 +0530,
71,0,71,o,8.907097300001624,None,71,0,71,0,856.7124991000019,,,,,,,,,,,,,,,,,,,,,,,,,,,,,,,,,,,,,,,,,,,,,,,,,,856.6962899000027,856.7124991000019,857.2291385999997,857.1960328000023,857.2177402000016,857.2291385999997,857.2291385999997,857.2291385999997,866.145955400003,Objects\166b.jpg,post,o,8.907097300001624,None,,,,,,,,00002,001,2025-11-08_19h19.48.470,MST_test,2024.2.2,60.005820563508934,2025-11-08 19h19.55.557007 +0530,
72,0,72,n,11.481088600001385,None,72,0,72,0,866.1623327000016,,,,,,,,,,,,,,,,,,,,,,,,,,,,,,,,,,,,,,,,,,,,,,,,,,866.1460423999997,866.1623327000016,866.6789537000004,866.6457867999998,866.6618438000005,866.6789537000004,866.6789537000004,866.6789537000004,878.1622504000006,Objects\019b.jpg,pre,n,11.481088600001385,None,,,,,,,,00002,001,2025-11-08_19h19.48.470,MST_test,2024.2.2,60.005820563508934,2025-11-08 19h19.55.557007 +0530,
73,0,73,o,4.793434900002467,None,73,0,73,0,878.1786447000013,,,,,,,,,,,,,,,,,,,,,,,,,,,,,,,,,,,,,,,,,,,,,,,,,,878.1623314999997,878.1786447000013,878.711969400003,878.6621042000006,878.6716620000007,878.711969400003,878.711969400003,878.711969400003,883.5123949000008,Objects\125a.jpg,mid,o,4.793434900002467,None,,,,,,,,00002,001,2025-11-08_19h19.48.470,MST_test,2024.2.2,60.005820563508934,2025-11-08 19h19.55.557007 +0530,
74,0,74,o,4.271489000002475,None,74,0,74,0,883.5285395000028,,,,,,,,,,,,,,,,,,,,,,,,,,,,,,,,,,,,,,,,,,,,,,,,,,883.5124821999998,883.5285395000028,884.0284480000009,884.0119603000021,884.0220761000019,884.0284480000009,884.0284480000009,884.0284480000009,888.3120630000012,Objects\094a.jpg,pre,o,4.271489000002475,None,,,,,,,,00002,001,2025-11-08_19h19.48.470,MST_test,2024.2.2,60.005820563508934,2025-11-08 19h19.55.557007 +0530,
75,0,75,o,0.8264196000018273,None,75,0,75,0,888.3283901000032,,,,,,,,,,,,,,,,,,,,,,,,,,,,,,,,,,,,,,,,,,,,,,,,,,888.3121406999999,888.3283901000032,888.8450689000019,888.8119016000019,888.8288906000016,888.8450689000019,888.8450689000019,888.8450689000019,889.6787951000006,Scenes\080a.jpg,post,o,0.8264196000018273,None,,,,,,,,00002,001,2025-11-08_19h19.48.470,MST_test,2024.2.2,60.005820563508934,2025-11-08 19h19.55.557007 +0530,
76,0,76,n,3.435492200002045,None,76,0,76,0,889.6950327000013,,,,,,,,,,,,,,,,,,,,,,,,,,,,,,,,,,,,,,,,,,,,,,,,,,889.6788754000008,889.6950327000013,890.2119361000005,890.1786525000025,890.1983959000027,890.2119361000005,890.2119361000005,890.2119361000005,893.6619968000014,Scenes\053b.jpg,pre,n,3.435492200002045,None,,,,,,,,00002,001,2025-11-08_19h19.48.470,MST_test,2024.2.2,60.005820563508934,2025-11-08 19h19.55.557007 +0530,
77,0,77,o,1.7561224000019138,None,77,0,77,0,893.6782802000016,,,,,,,,,,,,,,,,,,,,,,,,,,,,,,,,,,,,,,,,,,,,,,,,,,893.6620860000003,893.6782802000016,894.2115621000012,894.1617490000026,894.1978159999999,894.2115621000012,894.2115621000012,894.2115621000012,895.9784839000022,Scenes\091b.jpg,post,o,1.7561224000019138,None,,,,,,,,00002,001,2025-11-08_19h19.48.470,MST_test,2024.2.2,60.005820563508934,2025-11-08 19h19.55.557007 +0530,
78,0,78,n,1.7509305999992648,None,78,0,78,0,895.9948848000022,,,,,,,,,,,,,,,,,,,,,,,,,,,,,,,,,,,,,,,,,,,,,,,,,,895.9785604999997,895.9948848000022,896.4948433000027,896.478383200003,896.485306300001,896.4948433000027,896.4948433000027,896.4948433000027,898.2617501000022,Foils\scenes18.jpg,none,n,1.7509305999992648,None,,,,,,,,00002,001,2025-11-08_19h19.48.470,MST_test,2024.2.2,60.005820563508934,2025-11-08 19h19.55.557007 +0530,
79,0,79,o,4.174617200002103,None,79,0,79,0,898.2781914000007,,,,,,,,,,,,,,,,,,,,,,,,,,,,,,,,,,,,,,,,,,,,,,,,,,898.2618300000031,898.2781914000007,898.8115083000012,898.7617405000019,898.8061751000023,898.8115083000012,898.8115083000012,898.8115083000012,902.9950787000016,Scenes\082b.jpg,post,o,4.174617200002103,None,,,,,,,,00002,001,2025-11-08_19h19.48.470,MST_test,2024.2.2,60.005820563508934,2025-11-08 19h19.55.557007 +0530,
80,0,80,n,4.2905389000006835,None,80,0,80,0,903.011398300001,,,,,,,,,,,,,,,,,,,,,,,,,,,,,,,,,,,,,,,,,,,,,,,,,,902.9951655000004,903.011398300001,903.5113603000027,903.4948833000017,903.5026470000012,903.5113603000027,903.5113603000027,903.5113603000027,907.8115900000012,Foils\scenes7.jpg,none,n,4.2905389000006835,None,,,,,,,,00002,001,2025-11-08_19h19.48.470,MST_test,2024.2.2,60.005820563508934,2025-11-08 19h19.55.557007 +0530,
81,0,81,s,6.363707399999839,None,81,0,81,0,907.827970600003,,,,,,,,,,,,,,,,,,,,,,,,,,,,,,,,,,,,,,,,,,,,,,,,,,907.8116661000022,907.827970600003,908.3450317000024,908.3115736,908.3279841000003,908.3450317000024,908.3450317000024,908.3450317000024,914.711478600002,Objects\104b.jpg,post,s,6.363707399999839,None,,,,,,,,00002,001,2025-11-08_19h19.48.470,MST_test,2024.2.2,60.005820563508934,2025-11-08 19h19.55.557007 +0530,
82,0,82,n,3.754676099997596,None,82,0,82,0,914.7278102000018,,,,,,,,,,,,,,,,,,,,,,,,,,,,,,,,,,,,,,,,,,,,,,,,,,914.7115657000031,914.7278102000018,915.2611244,915.2112754000009,915.2559336000013,915.2611244,915.2611244,915.2611244,919.0280941000019,Scenes\060b.jpg,post,n,3.754676099997596,None,,,,,,,,00002,001,2025-11-08_19h19.48.470,MST_test,2024.2.2,60.005820563508934,2025-11-08 19h19.55.557007 +0530,
83,0,83,o,3.11770080000133,None,83,0,83,0,919.0443814000027,,,,,,,,,,,,,,,,,,,,,,,,,,,,,,,,,,,,,,,,,,,,,,,,,,919.0281804000006,919.0443814000027,919.5443405000005,919.5278596999997,919.5377428000029,919.5443405000005,919.5443405000005,919.5443405000005,922.6779838000002,Objects\123a.jpg,post,o,3.11770080000133,None,,,,,,,,00002,001,2025-11-08_19h19.48.470,MST_test,2024.2.2,60.005820563508934,2025-11-08 19h19.55.557007 +0530,
84,0,84,s,13.205643500001315,None,84,0,84,0,922.6942779000019,,,,,,,,,,,,,,,,,,,,,,,,,,,,,,,,,,,,,,,,,,,,,,,,,,922.678061300001,922.6942779000019,923.1942540000018,923.1778658000003,923.1890923000028,923.1942540000018,923.1942540000018,923.1942540000018,936.4109862000005,Objects\078a.jpg,pre,s,13.205643500001315,None,,,,,,,,00002,001,2025-11-08_19h19.48.470,MST_test,2024.2.2,60.005820563508934,2025-11-08 19h19.55.557007 +0530,
85,0,85,n,1.6428981000026397,None,85,0,85,0,936.4273363000029,,,,,,,,,,,,,,,,,,,,,,,,,,,,,,,,,,,,,,,,,,,,,,,,,,936.4110759000032,936.4273363000029,936.9272926000012,936.9108292000019,936.9211644000025,936.9272926000012,936.9272926000012,936.9272926000012,938.5776430000005,Objects\192b.jpg,post,n,1.6428981000026397,None,,,,,,,,00002,001,2025-11-08_19h19.48.470,MST_test,2024.2.2,60.005820563508934,2025-11-08 19h19.55.557007 +0530,
86,0,86,o,3.6760125999971933,None,86,0,86,0,938.5939870000002,,,,,,,,,,,,,,,,,,,,,,,,,,,,,,,,,,,,,,,,,,,,,,,,,,938.5777340000022,938.5939870000002,939.0939031000016,939.0775497000031,939.0871366000029,939.0939031000016,939.0939031000016,939.0939031000016,942.7775715000025,Objects\087a.jpg,post,o,3.6760125999971933,None,,,,,,,,00002,001,2025-11-08_19h19.48.470,MST_test,2024.2.2,60.005820563508934,2025-11-08 19h19.55.557007 +0530,
87,0,87,s,11.857433000001038,None,87,0,87,0,942.7938638000014,,,,,,,,,,,,,,,,,,,,,,,,,,,,,,,,,,,,,,,,,,,,,,,,,,942.7776551000024,942.7938638000014,943.3105194000018,943.2773321000022,943.2956558000005,943.3105194000018,943.3105194000018,943.3105194000018,955.1771807000005,Scenes\178a.jpg,post,s,11.857433000001038,None,,,,,,,,00002,001,2025-11-08_19h19.48.470,MST_test,2024.2.2,60.005820563508934,2025-11-08 19h19.55.557007 +0530,
88,0,88,s,4.726934899998014,None,88,0,88,0,955.1935937000017,,,,,,,,,,,,,,,,,,,,,,,,,,,,,,,,,,,,,,,,,,,,,,,,,,955.1772833000032,955.1935937000017,955.7268776000019,955.677107200001,955.7151464000017,955.7268776000019,955.7268776000019,955.7268776000019,960.4605961000016,Scenes\163b.jpg,post,s,4.726934899998014,None,,,,,,,,00002,001,2025-11-08_19h19.48.470,MST_test,2024.2.2,60.005820563508934,2025-11-08 19h19.55.557007 +0530,
89,0,89,n,7.91201319999891,None,89,0,89,0,960.4768743000022,,,,,,,,,,,,,,,,,,,,,,,,,,,,,,,,,,,,,,,,,,,,,,,,,,960.4606733,960.4768743000022,961.0105118000029,960.9602881000028,961.001046100002,961.0105118000029,961.0105118000029,961.0105118000029,968.9270665000004,Scenes\079b.jpg,mid,n,7.91201319999891,None,,,,,,,,00002,001,2025-11-08_19h19.48.470,MST_test,2024.2.2,60.005820563508934,2025-11-08 19h19.55.557007 +0530,
90,0,90,s,4.211767299999337,None,90,0,90,0,968.9433043999998,,,,,,,,,,,,,,,,,,,,,,,,,,,,,,,,,,,,,,,,,,,,,,,,,,968.927141600001,968.9433043999998,969.4603031000006,969.4269026000002,969.4428454000008,969.4603031000006,969.4603031000006,969.4603031000006,973.676824000002,Objects\062b.jpg,mid,s,4.211767299999337,None,,,,,,,,00002,001,2025-11-08_19h19.48.470,MST_test,2024.2.2,60.005820563508934,2025-11-08 19h19.55.557007 +0530,
91,0,91,s,4.563171999998303,None,91,0,91,0,973.6931576000025,,,,,,,,,,,,,,,,,,,,,,,,,,,,,,,,,,,,,,,,,,,,,,,,,,973.6769104000014,973.6931576000025,974.1931417000014,974.1767642000013,974.1869110000007,974.1931417000014,974.1931417000014,974.1931417000014,978.7601079000015,Objects\039a.jpg,mid,s,4.563171999998303,None,,,,,,,,00002,001,2025-11-08_19h19.48.470,MST_test,2024.2.2,60.005820563508934,2025-11-08 19h19.55.557007 +0530,
92,0,92,o,23.883577000000514,None,92,0,92,0,978.7764120000029,,,,,,,,,,,,,,,,,,,,,,,,,,,,,,,,,,,,,,,,,,,,,,,,,,978.7602041999999,978.7764120000029,979.2767502000024,979.2599965000009,979.2706854999997,979.2767502000024,979.2767502000024,979.2767502000024,1003.1762756000026,Scenes\033b.jpg,mid,o,23.883577000000514,None,,,,,,,,00002,001,2025-11-08_19h19.48.470,MST_test,2024.2.2,60.005820563508934,2025-11-08 19h19.55.557007 +0530,
93,0,93,o,2.224790000000212,None,93,0,93,0,1003.1925363000009,,,,,,,,,,,,,,,,,,,,,,,,,,,,,,,,,,,,,,,,,,,,,,,,,,1003.1763688999999,1003.1925363000009,1003.709400900003,1003.6760255000008,1003.695410100001,1003.709400900003,1003.709400900003,1003.709400900003,1005.9428834999999,Scenes\182a.jpg,pre,o,2.224790000000212,None,,,,,,,,00002,001,2025-11-08_19h19.48.470,MST_test,2024.2.2,60.005820563508934,2025-11-08 19h19.55.557007 +0530,
94,0,94,n,5.493045600000187,None,94,0,94,0,1005.9591547000018,,,,,,,,,,,,,,,,,,,,,,,,,,,,,,,,,,,,,,,,,,,,,,,,,,1005.9429711000012,1005.9591547000018,1006.4593309000011,1006.4426571000004,1006.450169900003,1006.4593309000011,1006.4593309000011,1006.4593309000011,1011.9592798000012,Foils\scenes30.jpg,none,n,5.493045600000187,None,,,,,,,,00002,001,2025-11-08_19h19.48.470,MST_test,2024.2.2,60.005820563508934,2025-11-08 19h19.55.557007 +0530,
95,0,95,o,13.131111599999713,None,95,0,95,0,1011.9756828999998,,,,,,,,,,,,,,,,,,,,,,,,,,,,,,,,,,,,,,,,,,,,,,,,,,1011.9593567000011,1011.9756828999998,1012.4923106000024,1012.4592780000021,1012.4772953000029,1012.4923106000024,1012.4923106000024,1012.4923106000024,1025.6256990000002,Scenes\067a.jpg,mid,o,13.131111599999713,None,,,,,,,,00002,001,2025-11-08_19h19.48.470,MST_test,2024.2.2,60.005820563508934,2025-11-08 19h19.55.557007 +0530,
96,0,96,s,7.9035979000000225,None,96,0,96,0,1025.6420547000016,,,,,,,,,,,,,,,,,,,,,,,,,,,,,,,,,,,,,,,,,,,,,,,,,,1025.6257848000023,1025.6420547000016,1026.1423499000011,1026.1256028999996,1026.1361160000015,1026.1423499000011,1026.1423499000011,1026.1423499000011,1034.0587692000008,Foils\057a.jpg,none,s,7.9035979000000225,None,,,,,,,,00002,001,2025-11-08_19h19.48.470,MST_test,2024.2.2,60.005820563508934,2025-11-08 19h19.55.557007 +0530,
97,0,97,s,15.449171399999614,None,97,0,97,0,1034.0751658000008,,,,,,,,,,,,,,,,,,,,,,,,,,,,,,,,,,,,,,,,,,,,,,,,,,1034.0588594,1034.0751658000008,1034.6086716999998,1034.5586804000013,1034.5874657000022,1034.6086716999998,1034.6086716999998,1034.6086716999998,1050.058728400003,Scenes\036b.jpg,pre,s,15.449171399999614,None,,,,,,,,00002,001,2025-11-08_19h19.48.470,MST_test,2024.2.2,60.005820563508934,2025-11-08 19h19.55.557007 +0530,
98,0,98,n,4.342451299999084,None,98,0,98,0,1050.0748574999998,,,,,,,,,,,,,,,,,,,,,,,,,,,,,,,,,,,,,,,,,,,,,,,,,,1050.0588261000012,1050.0748574999998,1050.5916797999998,1050.5583432000021,1050.5770172000011,1050.5916797999998,1050.5916797999998,1050.5916797999998,1054.9417183000005,Scenes\050a.jpg,mid,n,4.342451299999084,None,,,,,,,,00002,001,2025-11-08_19h19.48.470,MST_test,2024.2.2,60.005820563508934,2025-11-08 19h19.55.557007 +0530,
99,0,99,n,3.767966000003071,None,99,0,99,0,1054.9580754000017,,,,,,,,,,,,,,,,,,,,,,,,,,,,,,,,,,,,,,,,,,,,,,,,,,1054.941794800001,1054.9580754000017,1055.4578148,1055.4415436000018,1055.454263800002,1055.4578148,1055.4578148,1055.4578148,1059.241589600002,Foils\scenes19.jpg,none,n,3.767966000003071,None,,,,,,,,00002,001,2025-11-08_19h19.48.470,MST_test,2024.2.2,60.005820563508934,2025-11-08 19h19.55.557007 +0530,
100,0,100,n,3.837418199997046,None,100,0,100,0,1059.2579810999996,,,,,,,,,,,,,,,,,,,,,,,,,,,,,,,,,,,,,,,,,,,,,,,,,,1059.241674300003,1059.2579810999996,1059.7746129000006,1059.7416529000002,1059.7627831999998,1059.7746129000006,1059.7746129000006,1059.7746129000006,1063.6414949000027,Scenes\004a.jpg,post,n,3.837418199997046,None,,,,,,,,00002,001,2025-11-08_19h19.48.470,MST_test,2024.2.2,60.005820563508934,2025-11-08 19h19.55.557007 +0530,
101,0,101,o,4.816992899999605,None,101,0,101,0,1063.657897600002,,,,,,,,,,,,,,,,,,,,,,,,,,,,,,,,,,,,,,,,,,,,,,,,,,1063.6415702000013,1063.657897600002,1064.174719300001,1064.1414833000017,1064.1667092000025,1064.174719300001,1064.174719300001,1064.174719300001,1069.0080773000009,Objects\181b.jpg,mid,o,4.816992899999605,None,,,,,,,,00002,001,2025-11-08_19h19.48.470,MST_test,2024.2.2,60.005820563508934,2025-11-08 19h19.55.557007 +0530,
102,0,102,n,19.3362621999986,None,102,0,102,0,1069.024437600001,,,,,,,,,,,,,,,,,,,,,,,,,,,,,,,,,,,,,,,,,,,,,,,,,,1069.0081522,1069.024437600001,1069.5411021,1069.5079105000004,1069.5321046999998,1069.5411021,1069.5411021,1069.5411021,1088.890970700002,Objects\119b.jpg,mid,n,19.3362621999986,None,,,,,,,,00002,001,2025-11-08_19h19.48.470,MST_test,2024.2.2,60.005820563508934,2025-11-08 19h19.55.557007 +0530,
103,0,103,s,5.166343200002302,None,103,0,103,0,1088.9073347000012,,,,,,,,,,,,,,,,,,,,,,,,,,,,,,,,,,,,,,,,,,,,,,,,,,1088.8910652000013,1088.9073347000012,1089.4239638,1089.3907851000004,1089.4069477000012,1089.4239638,1089.4239638,1089.4239638,1094.5909341000006,Objects\043b.jpg,pre,s,5.166343200002302,None,,,,,,,,00002,001,2025-11-08_19h19.48.470,MST_test,2024.2.2,60.005820563508934,2025-11-08 19h19.55.557007 +0530,
104,0,104,n,2.066669499999989,None,104,0,104,0,1094.6072174,,,,,,,,,,,,,,,,,,,,,,,,,,,,,,,,,,,,,,,,,,,,,,,,,,1094.591011800003,1094.6072174,,1095.091436300001,1095.1102317000004,1095.1238355000023,1095.1238355000023,1095.1238355000023,1097.190804400001,Foils\121a.jpg,none,n,2.066669499999989,None,,,,,,,,00002,001,2025-11-08_19h19.48.470,MST_test,2024.2.2,60.005820563508934,2025-11-08 19h19.55.557007 +0530,
105,0,105,o,4.848777100000007,None,105,0,105,0,1097.2071536000003,,,,,,,,,,,,,,,,,,,,,,,,,,,,,,,,,,,,,,,,,,,,,,,,,,1097.190883000003,1097.2071536000003,1097.7071627000005,1097.6906507000022,1097.7002132000016,1097.7071627000005,1097.7071627000005,1097.7071627000005,1102.5574900000029,Objects\020a.jpg,pre,o,4.848777100000007,None,,,,,,,,00002,001,2025-11-08_19h19.48.470,MST_test,2024.2.2,60.005820563508934,2025-11-08 19h19.55.557007 +0530,
106,0,106,n,6.167325400001573,None,106,0,106,0,1102.5737447000029,,,,,,,,,,,,,,,,,,,,,,,,,,,,,,,,,,,,,,,,,,,,,,,,,,1102.5575663000018,1102.5737447000029,1103.0905759000016,1103.0572017000013,1103.0810496000013,1103.0905759000016,1103.0905759000016,1103.0905759000016,1109.2738387000027,Foils\scenes4.jpg,none,n,6.167325400001573,None,,,,,,,,00002,001,2025-11-08_19h19.48.470,MST_test,2024.2.2,60.005820563508934,2025-11-08 19h19.55.557007 +0530,
107,0,107,n,3.7942597000001115,None,107,0,107,0,1109.2902552000014,,,,,,,,,,,,,,,,,,,,,,,,,,,,,,,,,,,,,,,,,,,,,,,,,,1109.273932,1109.2902552000014,1109.8237098999998,1109.773775200003,1109.8066738000016,1109.8237098999998,1109.8237098999998,1109.8237098999998,1113.6238802000007,Scenes\110b.jpg,post,n,3.7942597000001115,None,,,,,,,,00002,001,2025-11-08_19h19.48.470,MST_test,2024.2.2,60.005820563508934,2025-11-08 19h19.55.557007 +0530,
108,0,108,s,30.65149680000104,None,108,0,108,0,1113.6401430000005,,,,,,,,,,,,,,,,,,,,,,,,,,,,,,,,,,,,,,,,,,,,,,,,,,1113.6239572000013,1113.6401430000005,1114.1401132000028,1114.123618200003,1114.1334860999996,1114.1401132000028,1114.1401132000028,1114.1401132000028,1144.8064989000013,Foils\042a.jpg,none,s,30.65149680000104,None,,,,,,,,00002,001,2025-11-08_19h19.48.470,MST_test,2024.2.2,60.005820563508934,2025-11-08 19h19.55.557007 +0530,
109,0,109,o,11.087850899999466,None,109,0,109,0,1144.822773400003,,,,,,,,,,,,,,,,,,,,,,,,,,,,,,,,,,,,,,,,,,,,,,,,,,1144.806600900003,1144.822773400003,1145.3227361000027,1145.3063188000015,1145.3167090999996,1145.3227361000027,1145.3227361000027,1145.3227361000027,1156.4228220000005,Objects\045a.jpg,mid,o,11.087850899999466,None,,,,,,,,00002,001,2025-11-08_19h19.48.470,MST_test,2024.2.2,60.005820563508934,2025-11-08 19h19.55.557007 +0530,
110,0,110,n,2.471595499999239,None,110,0,110,0,1156.4391896000016,,,,,,,,,,,,,,,,,,,,,,,,,,,,,,,,,,,,,,,,,,,,,,,,,,1156.4229177000016,1156.4391896000016,1156.9558458000029,1156.9226839000003,1156.940281500003,1156.9558458000029,1156.9558458000029,1156.9558458000029,1159.4394406000029,Objects\065b.jpg,pre,n,2.471595499999239,None,,,,,,,,00002,001,2025-11-08_19h19.48.470,MST_test,2024.2.2,60.005820563508934,2025-11-08 19h19.55.557007 +0530,
111,0,111,o,4.388827500002662,None,111,0,111,0,1159.455793000001,,,,,,,,,,,,,,,,,,,,,,,,,,,,,,,,,,,,,,,,,,,,,,,,,,1159.4395256000025,1159.455793000001,1159.9727088,1159.939349700002,1159.9625498000023,1159.9727088,1159.9727088,1159.9727088,1164.3726679000029,Scenes\072a.jpg,post,o,4.388827500002662,None,,,,,,,,00002,001,2025-11-08_19h19.48.470,MST_test,2024.2.2,60.005820563508934,2025-11-08 19h19.55.557007 +0530,
112,0,112,o,9.94382190000033,None,112,0,112,0,1164.3891011000014,,,,,,,,,,,,,,,,,,,,,,,,,,,,,,,,,,,,,,,,,,,,,,,,,,1164.3727529999996,1164.3891011000014,1164.9057391000024,1164.872594700002,1164.8902383000022,1164.9057391000024,1164.9057391000024,1164.9057391000024,1174.855913000003,Scenes\164a.jpg,pre,o,9.94382190000033,None,,,,,,,,00002,001,2025-11-08_19h19.48.470,MST_test,2024.2.2,60.005820563508934,2025-11-08 19h19.55.557007 +0530,
113,0,113,s,10.735602200002177,None,113,0,113,0,1174.8722121000028,,,,,,,,,,,,,,,,,,,,,,,,,,,,,,,,,,,,,,,,,,,,,,,,,,1174.8559915000005,1174.8722121000028,1175.3888659000004,1175.355793300001,1175.3725021000027,1175.3888659000004,1175.3888659000004,1175.3888659000004,1186.1389457000005,Foils\101b.jpg,none,s,10.735602200002177,None,,,,,,,,00002,001,2025-11-08_19h19.48.470,MST_test,2024.2.2,60.005820563508934,2025-11-08 19h19.55.557007 +0530,
114,0,114,s,10.51216740000018,None,114,0,114,0,1186.155297100002,,,,,,,,,,,,,,,,,,,,,,,,,,,,,,,,,,,,,,,,,,,,,,,,,,1186.1390315000026,1186.155297100002,1186.6719501000007,1186.638784400002,1186.654485500003,1186.6719501000007,1186.6719501000007,1186.6719501000007,1197.1888334000032,Objects\010b.jpg,post,s,10.51216740000018,None,,,,,,,,00002,001,2025-11-08_19h19.48.470,MST_test,2024.2.2,60.005820563508934,2025-11-08 19h19.55.557007 +0530,
115,0,115,s,8.615245500001038,None,115,0,115,0,1197.205052100002,,,,,,,,,,,,,,,,,,,,,,,,,,,,,,,,,,,,,,,,,,,,,,,,,,1197.1889142,1197.205052100002,1197.7050221999998,1197.6885148000001,1197.6982863000012,1197.7050221999998,1197.7050221999998,1197.7050221999998,1206.3218153000016,Objects\124a.jpg,post,s,8.615245500001038,None,,,,,,,,00002,001,2025-11-08_19h19.48.470,MST_test,2024.2.2,60.005820563508934,2025-11-08 19h19.55.557007 +0530,
116,0,116,n,2.609714999998687,None,116,0,116,0,1206.3381878,,,,,,,,,,,,,,,,,,,,,,,,,,,,,,,,,,,,,,,,,,,,,,,,,,1206.3218908000017,1206.3381878,1206.8381492000008,1206.8217242000028,1206.8326413000032,1206.8381492000008,1206.8381492000008,1206.8381492000008,1209.4550861000025,Foils\017a.jpg,none,n,2.609714999998687,None,,,,,,,,00002,001,2025-11-08_19h19.48.470,MST_test,2024.2.2,60.005820563508934,2025-11-08 19h19.55.557007 +0530,
117,0,117,s,4.899027200001001,None,117,0,117,0,1209.471454800001,,,,,,,,,,,,,,,,,,,,,,,,,,,,,,,,,,,,,,,,,,,,,,,,,,1209.4551654000024,1209.471454800001,1209.971479300002,1209.9549067000007,1209.9645175000005,1209.971479300002,1209.971479300002,1209.971479300002,1214.8716343000015,Objects\157a.jpg,pre,s,4.899027200001001,None,,,,,,,,00002,001,2025-11-08_19h19.48.470,MST_test,2024.2.2,60.005820563508934,2025-11-08 19h19.55.557007 +0530,
118,0,118,o,15.656258099999832,None,118,0,118,0,1214.8880043000026,,,,,,,,,,,,,,,,,,,,,,,,,,,,,,,,,,,,,,,,,,,,,,,,,,1214.8717164000009,1214.8880043000026,1215.404634800001,1215.3714755,1215.3906425000023,1215.404634800001,1215.404634800001,1215.404634800001,1231.0712891000003,Scenes\173a.jpg,mid,o,15.656258099999832,None,,,,,,,,00002,001,2025-11-08_19h19.48.470,MST_test,2024.2.2,60.005820563508934,2025-11-08 19h19.55.557007 +0530,
119,0,119,o,1.3784486000004108,None,119,0,119,0,1231.0876330000028,,,,,,,,,,,,,,,,,,,,,,,,,,,,,,,,,,,,,,,,,,,,,,,,,,1231.0713847000006,1231.0876330000028,1231.5876064000004,1231.5712166000012,1231.5812291000002,1231.5876064000004,1231.5876064000004,1231.5876064000004,1232.9711870000028,Objects\139a.jpg,mid,o,1.3784486000004108,None,,,,,,,,00002,001,2025-11-08_19h19.48.470,MST_test,2024.2.2,60.005820563508934,2025-11-08 19h19.55.557007 +0530,
120,0,120,s,4.959754100000282,None,120,0,120,0,1232.987487100003,,,,,,,,,,,,,,,,,,,,,,,,,,,,,,,,,,,,,,,,,,,,,,,,,,1232.971264900003,1232.987487100003,1233.4880286000007,1233.4710311000017,1233.4815535000016,1233.4880286000007,1233.4880286000007,1233.4880286000007,1238.4544110000024,Scenes\022b.jpg,post,s,4.959754100000282,None,,,,,,,,00002,001,2025-11-08_19h19.48.470,MST_test,2024.2.2,60.005820563508934,2025-11-08 19h19.55.557007 +0530,
121,0,121,s,6.700018100000307,None,121,0,121,0,1238.4707393999997,,,,,,,,,,,,,,,,,,,,,,,,,,,,,,,,,,,,,,,,,,,,,,,,,,1238.4544867000004,1238.4707393999997,1238.9706893000002,1238.9543424000003,1238.9640204000025,1238.9706893000002,1238.9706893000002,1238.9706893000002,1245.6710510000012,Objects\185a.jpg,post,s,6.700018100000307,None,,,,,,,,00002,001,2025-11-08_19h19.48.470,MST_test,2024.2.2,60.005820563508934,2025-11-08 19h19.55.557007 +0530,
122,0,122,s,8.271636400000716,None,122,0,122,0,1245.6872793000002,,,,,,,,,,,,,,,,,,,,,,,,,,,,,,,,,,,,,,,,,,,,,,,,,,1245.6711269000007,1245.6872793000002,1246.2041285000014,1246.1707104000016,1246.1976235000002,1246.2041285000014,1246.2041285000014,1246.2041285000014,1254.4873236000021,Scenes\186b.jpg,mid,s,8.271636400000716,None,,,,,,,,00002,001,2025-11-08_19h19.48.470,MST_test,2024.2.2,60.005820563508934,2025-11-08 19h19.55.557007 +0530,
123,0,123,o,5.771575300001132,None,123,0,123,0,1254.5037159000021,,,,,,,,,,,,,,,,,,,,,,,,,,,,,,,,,,,,,,,,,,,,,,,,,,1254.4874075000007,1254.5037159000021,1255.0206225000002,1254.9873380000026,1255.0088834000017,1255.0206225000002,1255.0206225000002,1255.0206225000002,1260.8041096000015,Scenes\119a.jpg,pre,o,5.771575300001132,None,,,,,,,,00002,001,2025-11-08_19h19.48.470,MST_test,2024.2.2,60.005820563508934,2025-11-08 19h19.55.557007 +0530,
124,0,124,n,1.759485799997492,None,124,0,124,0,1260.8202495000005,,,,,,,,,,,,,,,,,,,,,,,,,,,,,,,,,,,,,,,,,,,,,,,,,,1260.8041979000009,1260.8202495000005,1261.336901900002,1261.3037643999996,1261.3233596999999,1261.336901900002,1261.336901900002,1261.336901900002,1263.1038233,Scenes\183a.jpg,post,n,1.759485799997492,None,,,,,,,,00002,001,2025-11-08_19h19.48.470,MST_test,2024.2.2,60.005820563508934,2025-11-08 19h19.55.557007 +0530,
125,0,125,n,3.8840695999970194,None,125,0,125,0,1263.1202015000017,,,,,,,,,,,,,,,,,,,,,,,,,,,,,,,,,,,,,,,,,,,,,,,,,,1263.103908000001,1263.1202015000017,1263.6538102000013,1263.6037216000004,1263.636139600003,1263.6538102000013,1263.6538102000013,1263.6538102000013,1267.5537019000003,Objects\155b.jpg,post,n,3.8840695999970194,None,,,,,,,,00002,001,2025-11-08_19h19.48.470,MST_test,2024.2.2,60.005820563508934,2025-11-08 19h19.55.557007 +0530,
126,0,126,s,10.893723299999692,None,126,0,126,0,1267.5700966000004,,,,,,,,,,,,,,,,,,,,,,,,,,,,,,,,,,,,,,,,,,,,,,,,,,1267.5537863000027,1267.5700966000004,1268.0700547000015,1268.0535934,1268.0637315000022,1268.0700547000015,1268.0700547000015,1268.0700547000015,1278.9701703000028,Objects\003a.jpg,pre,s,10.893723299999692,None,,,,,,,,00002,001,2025-11-08_19h19.48.470,MST_test,2024.2.2,60.005820563508934,2025-11-08 19h19.55.557007 +0530,
127,0,127,o,2.6356989000014437,None,127,0,127,0,1278.986538000001,,,,,,,,,,,,,,,,,,,,,,,,,,,,,,,,,,,,,,,,,,,,,,,,,,1278.9702646000005,1278.986538000001,1279.4864690000031,1279.4699835000029,1279.4798424,1279.4864690000031,1279.4864690000031,1279.4864690000031,1282.1367667000013,Foils\065a.jpg,none,o,2.6356989000014437,None,,,,,,,,00002,001,2025-11-08_19h19.48.470,MST_test,2024.2.2,60.005820563508934,2025-11-08 19h19.55.557007 +0530,
128,0,128,s,2.8771973000002617,None,128,0,128,0,1282.1531071999998,,,,,,,,,,,,,,,,,,,,,,,,,,,,,,,,,,,,,,,,,,,,,,,,,,1282.1368597,1282.1531071999998,1282.686694600001,1282.6365966000012,1282.669919,1282.686694600001,1282.686694600001,1282.686694600001,1285.569981200002,Scenes\074b.jpg,pre,s,2.8771973000002617,None,,,,,,,,00002,001,2025-11-08_19h19.48.470,MST_test,2024.2.2,60.005820563508934,2025-11-08 19h19.55.557007 +0530,
129,0,129,o,1.6869335000010324,None,129,0,129,0,1285.5863430999998,,,,,,,,,,,,,,,,,,,,,,,,,,,,,,,,,,,,,,,,,,,,,,,,,,1285.570063500003,1285.5863430999998,1286.1029951000019,1286.0698272000009,1286.0865036000032,1286.1029951000019,1286.1029951000019,1286.1029951000019,1287.803365900003,Objects\033b.jpg,mid,o,1.6869335000010324,None,,,,,,,,00002,001,2025-11-08_19h19.48.470,MST_test,2024.2.2,60.005820563508934,2025-11-08 19h19.55.557007 +0530,
130,0,130,n,2.7667215000001306,None,130,0,130,0,1287.8196549000022,,,,,,,,,,,,,,,,,,,,,,,,,,,,,,,,,,,,,,,,,,,,,,,,,,1287.8034479000016,1287.8196549000022,1288.3196634000014,1288.303206200002,1288.3135978000028,1288.3196634000014,1288.3196634000014,1288.3196634000014,1291.0867340000004,Objects\173a.jpg,pre,n,2.7667215000001306,None,,,,,,,,00002,001,2025-11-08_19h19.48.470,MST_test,2024.2.2,60.005820563508934,2025-11-08 19h19.55.557007 +0530,
131,0,131,s,9.447915400000056,None,131,0,131,0,1291.1029646000025,,,,,,,,,,,,,,,,,,,,,,,,,,,,,,,,,,,,,,,,,,,,,,,,,,1291.0868179999998,1291.1029646000025,1291.6362404000029,1291.586474300002,1291.616588300003,1291.6362404000029,1291.6362404000029,1291.6362404000029,1301.086351500002,Objects\183b.jpg,post,s,9.447915400000056,None,,,,,,,,00002,001,2025-11-08_19h19.48.470,MST_test,2024.2.2,60.005820563508934,2025-11-08 19h19.55.557007 +0530,
132,0,132,n,5.562322800000402,None,132,0,132,0,1301.1026678000017,,,,,,,,,,,,,,,,,,,,,,,,,,,,,,,,,,,,,,,,,,,,,,,,,,1301.0864422000013,1301.1026678000017,1301.6195958000026,1301.586167100002,1301.6067838000017,1301.6195958000026,1301.6195958000026,1301.6195958000026,1307.1863030000022,Scenes\125a.jpg,pre,n,5.562322800000402,None,,,,,,,,00002,001,2025-11-08_19h19.48.470,MST_test,2024.2.2,60.005820563508934,2025-11-08 19h19.55.557007 +0530,
133,0,133,n,0.832362799999828,None,133,0,133,0,1307.2025825000019,,,,,,,,,,,,,,,,,,,,,,,,,,,,,,,,,,,,,,,,,,,,,,,,,,1307.1863871000023,1307.2025825000019,1307.7192176000026,1307.6860620000007,1307.7032394000016,1307.7192176000026,1307.7192176000026,1307.7192176000026,1308.5530058000004,Objects\004b.jpg,mid,n,0.832362799999828,None,,,,,,,,00002,001,2025-11-08_19h19.48.470,MST_test,2024.2.2,60.005820563508934,2025-11-08 19h19.55.557007 +0530,
134,0,134,n,0.7738795000004757,None,134,0,134,0,1308.5691958000025,,,,,,,,,,,,,,,,,,,,,,,,,,,,,,,,,,,,,,,,,,,,,,,,,,1308.5530900000012,1308.5691958000025,1309.0861700000023,1309.0527272,1309.0806599999996,1309.0861700000023,1309.0861700000023,1309.0861700000023,1309.8695564000009,Foils\scenes3.jpg,none,n,0.7738795000004757,None,,,,,,,,00002,001,2025-11-08_19h19.48.470,MST_test,2024.2.2,60.005820563508934,2025-11-08 19h19.55.557007 +0530,
135,0,135,o,1.7332347000010486,None,135,0,135,0,1309.8858378000004,,,,,,,,,,,,,,,,,,,,,,,,,,,,,,,,,,,,,,,,,,,,,,,,,,1309.8696388000026,1309.8858378000004,1310.4026899000019,1310.3694455000004,1310.3931845000006,1310.4026899000019,1310.4026899000019,1310.4026899000019,1312.1363990999998,Scenes\002a.jpg,post,o,1.7332347000010486,None,,,,,,,,00002,001,2025-11-08_19h19.48.470,MST_test,2024.2.2,60.005820563508934,2025-11-08 19h19.55.557007 +0530,
136,0,136,n,1.115409299996827,None,136,0,136,0,1312.1524553000017,,,,,,,,,,,,,,,,,,,,,,,,,,,,,,,,,,,,,,,,,,,,,,,,,,1312.1364825000019,1312.1524553000017,1312.6859530000002,1312.6359376,1312.6784933000017,1312.6859530000002,1312.6859530000002,1312.6859530000002,1313.8028016000026,Scenes\190b.jpg,pre,n,1.115409299996827,None,,,,,,,,00002,001,2025-11-08_19h19.48.470,MST_test,2024.2.2,60.005820563508934,2025-11-08 19h19.55.557007 +0530,
137,0,137,n,0.7277222000011534,None,137,0,137,0,1313.8190544000026,,,,,,,,,,,,,,,,,,,,,,,,,,,,,,,,,,,,,,,,,,,,,,,,,,1313.8028866000022,1313.8190544000026,1314.3361729000026,1314.3025809000028,1314.3253489000017,1314.3361729000026,1314.3361729000026,1314.3361729000026,1315.0694174000018,Objects\151b.jpg,post,n,0.7277222000011534,None,,,,,,,,00002,001,2025-11-08_19h19.48.470,MST_test,2024.2.2,60.005820563508934,2025-11-08 19h19.55.557007 +0530,
138,0,138,n,0.6494511000018974,None,138,0,138,0,1315.0857233000024,,,,,,,,,,,,,,,,,,,,,,,,,,,,,,,,,,,,,,,,,,,,,,,,,,1315.0694905000018,1315.0857233000024,1315.5859837000025,1315.5693434000023,1315.576546700002,1315.5859837000025,1315.5859837000025,1315.5859837000025,1316.2359631,Foils\scenes20.jpg,none,n,0.6494511000018974,None,,,,,,,,00002,001,2025-11-08_19h19.48.470,MST_test,2024.2.2,60.005820563508934,2025-11-08 19h19.55.557007 +0530,
139,0,139,o,3.5940245000019786,None,139,0,139,0,1316.2523632000011,,,,,,,,,,,,,,,,,,,,,,,,,,,,,,,,,,,,,,,,,,,,,,,,,,1316.2360318000028,1316.2523632000011,1316.7523521000003,1316.7358372000017,1316.7452860000012,1316.7523521000003,1316.7523521000003,1316.7523521000003,1320.3525684000015,Objects\049a.jpg,pre,o,3.5940245000019786,None,,,,,,,,00002,001,2025-11-08_19h19.48.470,MST_test,2024.2.2,60.005820563508934,2025-11-08 19h19.55.557007 +0530,
140,0,140,o,1.6251824999999371,None,140,0,140,0,1320.3689459000016,,,,,,,,,,,,,,,,,,,,,,,,,,,,,,,,,,,,,,,,,,,,,,,,,,1320.3526592000017,1320.3689459000016,1320.8689348000007,1320.8525635000005,1320.8629468,1320.8689348000007,1320.8689348000007,1320.8689348000007,1322.502531000002,Objects\013a.jpg,mid,o,1.6251824999999371,None,,,,,,,,00002,001,2025-11-08_19h19.48.470,MST_test,2024.2.2,60.005820563508934,2025-11-08 19h19.55.557007 +0530,
141,0,141,n,1.1827457999970648,None,141,0,141,0,1322.518923800002,,,,,,,,,,,,,,,,,,,,,,,,,,,,,,,,,,,,,,,,,,,,,,,,,,1322.502620000003,1322.518923800002,1323.0189447000012,1323.0024335000016,1323.0132114000007,1323.0189447000012,1323.0189447000012,1323.0189447000012,1324.2026735,Foils\033a.jpg,none,n,1.1827457999970648,None,,,,,,,,00002,001,2025-11-08_19h19.48.470,MST_test,2024.2.2,60.005820563508934,2025-11-08 19h19.55.557007 +0530,
142,0,142,o,6.654723199997534,None,142,0,142,0,1324.2189526000002,,,,,,,,,,,,,,,,,,,,,,,,,,,,,,,,,,,,,,,,,,,,,,,,,,1324.202753700003,1324.2189526000002,1324.7358645000022,1324.7024348000014,1324.718351800002,1324.7358645000022,1324.7358645000022,1324.7358645000022,1331.4024812999996,Scenes\049a.jpg,post,o,6.654723199997534,None,,,,,,,,00002,001,2025-11-08_19h19.48.470,MST_test,2024.2.2,60.005820563508934,2025-11-08 19h19.55.557007 +0530,
143,0,143,n,1.1821865999991132,None,143,0,143,0,1331.4187939000003,,,,,,,,,,,,,,,,,,,,,,,,,,,,,,,,,,,,,,,,,,,,,,,,,,1331.4025825000026,1331.4187939000003,1331.9354494,1331.902410300001,1331.9180659000012,1331.9354494,1331.9354494,1331.9354494,1333.1190008000012,Objects\101b.jpg,mid,n,1.1821865999991132,None,,,,,,,,00002,001,2025-11-08_19h19.48.470,MST_test,2024.2.2,60.005820563508934,2025-11-08 19h19.55.557007 +0530,
144,0,144,n,0.8557481999996526,None,144,0,144,0,1333.1354624000014,,,,,,,,,,,,,,,,,,,,,,,,,,,,,,,,,,,,,,,,,,,,,,,,,,1333.119082600002,1333.1354624000014,1333.6520616000016,1333.6189035999996,1333.635205900002,1333.6520616000016,1333.6520616000016,1333.6520616000016,1334.5191384999998,Objects\002b.jpg,mid,n,0.8557481999996526,None,,,,,,,,00002,001,2025-11-08_19h19.48.470,MST_test,2024.2.2,60.005820563508934,2025-11-08 19h19.55.557007 +0530,
145,0,145,s,2.401027799998701,None,145,0,145,0,1334.5353896000015,,,,,,,,,,,,,,,,,,,,,,,,,,,,,,,,,,,,,,,,,,,,,,,,,,1334.5192189000009,1334.5353896000015,1335.0353484000007,1335.0188581000002,1335.0286104000006,1335.0353484000007,1335.0353484000007,1335.0353484000007,1337.4524313000002,Objects\028a.jpg,post,s,2.401027799998701,None,,,,,,,,00002,001,2025-11-08_19h19.48.470,MST_test,2024.2.2,60.005820563508934,2025-11-08 19h19.55.557007 +0530,
146,0,146,n,1.1239394000003813,None,146,0,146,0,1337.4686378000006,,,,,,,,,,,,,,,,,,,,,,,,,,,,,,,,,,,,,,,,,,,,,,,,,,1337.4525095000026,1337.4686378000006,1337.9686217000017,1337.9521133000017,1337.9617620000026,1337.9686217000017,1337.9686217000017,1337.9686217000017,1339.1023411000024,Objects\080a.jpg,mid,n,1.1239394000003813,None,,,,,,,,00002,001,2025-11-08_19h19.48.470,MST_test,2024.2.2,60.005820563508934,2025-11-08 19h19.55.557007 +0530,
147,0,147,n,0.8391516000010597,None,147,0,147,0,1339.1187690000006,,,,,,,,,,,,,,,,,,,,,,,,,,,,,,,,,,,,,,,,,,,,,,,,,,1339.1024279000012,1339.1187690000006,1339.6352759000001,1339.6021339,1339.6171802999997,1339.6352759000001,1339.6352759000001,1339.6352759000001,1340.4856897999998,Foils\093b.jpg,none,n,0.8391516000010597,None,,,,,,,,00002,001,2025-11-08_19h19.48.470,MST_test,2024.2.2,60.005820563508934,2025-11-08 19h19.55.557007 +0530,
148,0,148,n,1.8299742000017432,None,148,0,148,0,1340.5019767000013,,,,,,,,,,,,,,,,,,,,,,,,,,,,,,,,,,,,,,,,,,,,,,,,,,1340.4857604999997,1340.5019767000013,1341.0188174000032,1340.985443200003,1341.0009520000021,1341.0188174000032,1341.0188174000032,1341.0188174000032,1342.8521650000002,Scenes\185b.jpg,pre,n,1.8299742000017432,None,,,,,,,,00002,001,2025-11-08_19h19.48.470,MST_test,2024.2.2,60.005820563508934,2025-11-08 19h19.55.557007 +0530,
149,0,149,n,0.6256874999999127,None,149,0,149,0,1342.8685154000013,,,,,,,,,,,,,,,,,,,,,,,,,,,,,,,,,,,,,,,,,,,,,,,,,,1342.8522462,1342.8685154000013,1343.502031,1343.352029400001,1343.4892707,1343.502031,1343.502031,1343.502031,1344.1355436000013,Foils\scenes25.jpg,none,n,0.6256874999999127,None,,,,,,,,00002,001,2025-11-08_19h19.48.470,MST_test,2024.2.2,60.005820563508934,2025-11-08 19h19.55.557007 +0530,
,,,,,,,,,,,,,,,,,,,,,,,,,,,,,,,,,,,,,,,,,,,,,,,,,,,,,,,,,,,,,,,,,,,,,,,,,,1344.135614400002,1344.1518851,1344.1518851,1345.9355006000005,space,1.7759194999998726,None,00002,001,2025-11-08_19h19.48.470,MST_test,2024.2.2,60.005820563508934,2025-11-08 19h19.55.557007 +0530,
