thisN,thisTrialN,thisRepN,key_resp_3.keys,key_resp_3.rt,key_resp_3.duration,trials.thisRepN,trials.thisTrialN,trials.thisN,trials.thisIndex,thisRow.t,notes,intro_page.started,text.started,key_resp.started,intro_page.stopped,key_resp.keys,key_resp.rt,key_resp.duration,instructions.started,text_2.started,key_resp_2.started,instructions.stopped,key_resp_2.keys,key_resp_2.rt,key_resp_2.duration,demo1.started,image_1.started,image_2.started,text_7.started,key_resp_6.started,text_9.started,demo1.stopped,key_resp_6.keys,key_resp_6.rt,key_resp_6.duration,demo2.started,image_5.started,image_6.started,text_11.started,text_12.started,key_resp_8.started,demo2.stopped,key_resp_8.keys,key_resp_8.rt,key_resp_8.duration,demo_conclusion.started,text_13.started,key_resp_9.started,demo_conclusion.stopped,key_resp_9.keys,key_resp_9.rt,key_resp_9.duration,start_test.started,text_6.started,key_resp_5.started,start_test.stopped,key_resp_5.keys,key_resp_5.rt,key_resp_5.duration,ISI.started,text_4.started,text_4.stopped,ISI.stopped,routine_1.started,image.started,text_3.started,key_resp_3.started,routine_1.stopped,image_path,position_of_stimuli,trials.key_resp_3.keys,trials.key_resp_3.rt,trials.key_resp_3.duration,End_page.started,text_5.started,key_resp_4.started,End_page.stopped,key_resp_4.keys,key_resp_4.rt,key_resp_4.duration,participant,session,date,expName,psychopyVersion,frameRate,expStart,
,,,,,,,,,,,,0.005193299992242828,0.021522499999264255,0.021522499999264255,21.67287270000088,space,21.643744599990896,None,,,,,,,,,,,,,,,,,,,,,,,,,,,,,,,,,,,,,,,,,,,,,,,,,,,,,,,,,,,,,,,00006,001,2025-11-09_19h53.31.018,MST_test,2024.2.2,60.00470436971664,2025-11-09 19h53.48.735054 +0530,
,,,,,,,,,,,,,,,,,,,21.67290299999877,21.687809499999275,21.687809499999275,38.404463900005794,space,16.710155799999484,None,,,,,,,,,,,,,,,,,,,,,,,,,,,,,,,,,,,,,,,,,,,,,,,,,,,,,,,,00006,001,2025-11-09_19h53.31.018,MST_test,2024.2.2,60.00470436971664,2025-11-09 19h53.48.735054 +0530,
,,,,,,,,,,,,,,,,,,,,,,,,,,38.40449159999844,38.42079679999733,38.42079679999733,38.42079679999733,38.42079679999733,38.42079679999733,44.37112049999996,space,5.944459999998799,None,,,,,,,,,,,,,,,,,,,,,,,,,,,,,,,,,,,,,,,,,,,,,,00006,001,2025-11-09_19h53.31.018,MST_test,2024.2.2,60.00470436971664,2025-11-09 19h53.48.735054 +0530,
,,,,,,,,,,,,,,,,,,,,,,,,,,,,,,,,,,,,44.37114400000428,44.387340200002654,44.387340200002654,44.387340200002654,44.387340200002654,44.387340200002654,50.35441759999958,space,5.957602599999518,None,,,,,,,,,,,,,,,,,,,,,,,,,,,,,,,,,,,,00006,001,2025-11-09_19h53.31.018,MST_test,2024.2.2,60.00470436971664,2025-11-09 19h53.48.735054 +0530,
,,,,,,,,,,,,,,,,,,,,,,,,,,,,,,,,,,,,,,,,,,,,,,50.35444169999391,50.37052549999498,50.37052549999498,72.48691680000047,space,22.111686499993084,None,,,,,,,,,,,,,,,,,,,,,,,,,,,,,00006,001,2025-11-09_19h53.31.018,MST_test,2024.2.2,60.00470436971664,2025-11-09 19h53.48.735054 +0530,
,,,,,,,,,,,,,,,,,,,,,,,,,,,,,,,,,,,,,,,,,,,,,,,,,,,,,72.48694570000225,72.50329360000615,72.50329360000615,106.8028420000046,space,34.2830563000025,None,,,,,,,,,,,,,,,,,,,,,,00006,001,2025-11-09_19h53.31.018,MST_test,2024.2.2,60.00470436971664,2025-11-09 19h53.48.735054 +0530,
0,0,0,o,4.837650200002827,None,0,0,0,0,106.81921790000342,,,,,,,,,,,,,,,,,,,,,,,,,,,,,,,,,,,,,,,,,,,,,,,,,,106.80562389999977,106.81921790000342,107.31937860000471,107.30282969999826,107.3107103999937,107.31937860000471,107.31937860000471,107.31937860000471,112.16950580000412,Objects\156b.jpg,post,o,4.837650200002827,None,,,,,,,,00006,001,2025-11-09_19h53.31.018,MST_test,2024.2.2,60.00470436971664,2025-11-09 19h53.48.735054 +0530,
1,0,1,o,4.852855399993132,None,1,0,1,0,112.18579230000614,,,,,,,,,,,,,,,,,,,,,,,,,,,,,,,,,,,,,,,,,,,,,,,,,,112.16960409999592,112.18579230000614,112.68576750000648,112.66927509999368,112.67134679999435,112.68576750000648,112.68576750000648,112.68576750000648,117.55259950000618,Objects\107a.jpg,post,o,4.852855399993132,None,,,,,,,,00006,001,2025-11-09_19h53.31.018,MST_test,2024.2.2,60.00470436971664,2025-11-09 19h53.48.735054 +0530,
2,0,2,o,4.121747199998936,None,2,0,2,0,117.56897999999637,,,,,,,,,,,,,,,,,,,,,,,,,,,,,,,,,,,,,,,,,,,,,,,,,,117.55267839999578,117.56897999999637,118.06899240000348,118.05257329999586,118.05451770000218,118.06899240000348,118.06899240000348,118.06899240000348,122.20268719999876,Objects\191a.jpg,mid,o,4.121747199998936,None,,,,,,,,00006,001,2025-11-09_19h53.31.018,MST_test,2024.2.2,60.00470436971664,2025-11-09 19h53.48.735054 +0530,
3,0,3,o,5.589884399989387,None,3,0,3,0,122.21893410000484,,,,,,,,,,,,,,,,,,,,,,,,,,,,,,,,,,,,,,,,,,,,,,,,,,122.20278180000605,122.21893410000484,122.71887050000078,122.70255079999333,122.70478309999453,122.71887050000078,122.71887050000078,122.71887050000078,128.3191824999958,Objects\137a.jpg,mid,o,5.589884399989387,None,,,,,,,,00006,001,2025-11-09_19h53.31.018,MST_test,2024.2.2,60.00470436971664,2025-11-09 19h53.48.735054 +0530,
4,0,4,s,9.142831899996963,None,4,0,4,0,128.33543750000536,,,,,,,,,,,,,,,,,,,,,,,,,,,,,,,,,,,,,,,,,,,,,,,,,,128.31926580000436,128.33543750000536,128.85224789999484,128.8190398000006,128.83127799999784,128.85224789999484,128.85224789999484,128.85224789999484,138.00225059999502,Scenes\126b.jpg,post,s,9.142831899996963,None,,,,,,,,00006,001,2025-11-09_19h53.31.018,MST_test,2024.2.2,60.00470436971664,2025-11-09 19h53.48.735054 +0530,
5,0,5,s,7.7188278999965405,None,5,0,5,0,138.0186004999996,,,,,,,,,,,,,,,,,,,,,,,,,,,,,,,,,,,,,,,,,,,,,,,,,,138.0023494000052,138.0186004999996,138.5352053999959,138.50200569999288,138.51479220000328,138.5352053999959,138.5352053999959,138.5352053999959,146.26875689999724,Scenes\121a.jpg,post,s,7.7188278999965405,None,,,,,,,,00006,001,2025-11-09_19h53.31.018,MST_test,2024.2.2,60.00470436971664,2025-11-09 19h53.48.735054 +0530,
6,0,6,o,1.6801794999919366,None,6,0,6,0,146.28507860000536,,,,,,,,,,,,,,,,,,,,,,,,,,,,,,,,,,,,,,,,,,,,,,,,,,146.2688327999931,146.28507860000536,146.78500950000307,146.76869779999834,146.77921039999637,146.78500950000307,146.78500950000307,146.78500950000307,148.46869700000389,Objects\129a.jpg,post,o,1.6801794999919366,None,,,,,,,,00006,001,2025-11-09_19h53.31.018,MST_test,2024.2.2,60.00470436971664,2025-11-09 19h53.48.735054 +0530,
7,0,7,s,4.900043500005268,None,7,0,7,0,148.48500339999737,,,,,,,,,,,,,,,,,,,,,,,,,,,,,,,,,,,,,,,,,,,,,,,,,,148.46877140000288,148.48500339999737,149.01833019999322,148.96859109999787,149.00253300000622,149.01833019999322,149.01833019999322,149.01833019999322,153.91869920000318,Scenes\072b.jpg,mid,s,4.900043500005268,None,,,,,,,,00006,001,2025-11-09_19h53.31.018,MST_test,2024.2.2,60.00470436971664,2025-11-09 19h53.48.735054 +0530,
8,0,8,s,16.084061600005953,None,8,0,8,0,153.9348566999979,,,,,,,,,,,,,,,,,,,,,,,,,,,,,,,,,,,,,,,,,,,,,,,,,,153.9187757000036,153.9348566999979,154.45155889999296,154.41834550000203,154.4322600000014,154.45155889999296,154.45155889999296,154.45155889999296,170.55157549999421,Scenes\004a.jpg,mid,s,16.084061600005953,None,,,,,,,,00006,001,2025-11-09_19h53.31.018,MST_test,2024.2.2,60.00470436971664,2025-11-09 19h53.48.735054 +0530,
9,0,9,o,2.019597699996666,None,9,0,9,0,170.56786779999675,,,,,,,,,,,,,,,,,,,,,,,,,,,,,,,,,,,,,,,,,,,,,,,,,,170.5516726999922,170.56786779999675,171.0845174999995,171.0514159000013,171.06787610000174,171.0845174999995,171.0845174999995,171.0845174999995,173.11805239999376,Objects\078b.jpg,post,o,2.019597699996666,None,,,,,,,,00006,001,2025-11-09_19h53.31.018,MST_test,2024.2.2,60.00470436971664,2025-11-09 19h53.48.735054 +0530,
10,0,10,o,1.484669400000712,None,10,0,10,0,173.13446610000392,,,,,,,,,,,,,,,,,,,,,,,,,,,,,,,,,,,,,,,,,,,,,,,,,,173.11813729999994,173.13446610000392,173.63442529999884,173.617971700005,173.62757969999802,173.63442529999884,173.63442529999884,173.63442529999884,175.13470389999566,Objects\043b.jpg,mid,o,1.484669400000712,None,,,,,,,,00006,001,2025-11-09_19h53.31.018,MST_test,2024.2.2,60.00470436971664,2025-11-09 19h53.48.735054 +0530,
11,0,11,s,7.777058199993917,None,11,0,11,0,175.15109420000226,,,,,,,,,,,,,,,,,,,,,,,,,,,,,,,,,,,,,,,,,,,,,,,,,,175.13478959999338,175.15109420000226,175.66774829999486,175.63458860000537,175.65121189999627,175.66774829999486,175.66774829999486,175.66774829999486,183.45144560000335,Objects\026b.jpg,post,s,7.777058199993917,None,,,,,,,,00006,001,2025-11-09_19h53.31.018,MST_test,2024.2.2,60.00470436971664,2025-11-09 19h53.48.735054 +0530,
12,0,12,o,1.7294976999983191,None,12,0,12,0,183.46755109999503,,,,,,,,,,,,,,,,,,,,,,,,,,,,,,,,,,,,,,,,,,,,,,,,,,183.45153639999626,183.46755109999503,183.96754389999842,183.9510741999984,183.96154609999212,183.96754389999842,183.96754389999842,183.96754389999842,185.70130659999268,Objects\098a.jpg,post,o,1.7294976999983191,None,,,,,,,,00006,001,2025-11-09_19h53.31.018,MST_test,2024.2.2,60.00470436971664,2025-11-09 19h53.48.735054 +0530,
13,0,13,n,2.3737204000062775,None,13,0,13,0,185.7175586999947,,,,,,,,,,,,,,,,,,,,,,,,,,,,,,,,,,,,,,,,,,,,,,,,,,185.70139099999506,185.7175586999947,186.2175453999953,186.20101940000313,186.2109449999989,186.2175453999953,186.2175453999953,186.2175453999953,188.60117270000046,Foils\082a.jpg,none,n,2.3737204000062775,None,,,,,,,,00006,001,2025-11-09_19h53.31.018,MST_test,2024.2.2,60.00470436971664,2025-11-09 19h53.48.735054 +0530,
14,0,14,o,3.5161587000038708,None,14,0,14,0,188.617465000003,,,,,,,,,,,,,,,,,,,,,,,,,,,,,,,,,,,,,,,,,,,,,,,,,,188.60125259999768,188.617465000003,189.13451740000164,189.1010077999963,189.11316069999884,189.13451740000164,189.13451740000164,189.13451740000164,192.65111760000582,Scenes\007a.jpg,mid,o,3.5161587000038708,None,,,,,,,,00006,001,2025-11-09_19h53.31.018,MST_test,2024.2.2,60.00470436971664,2025-11-09 19h53.48.735054 +0530,
15,0,15,o,4.758719999997993,None,15,0,15,0,192.6673812999943,,,,,,,,,,,,,,,,,,,,,,,,,,,,,,,,,,,,,,,,,,,,,,,,,,192.65120279999974,192.6673812999943,193.18422159999318,193.15091019999818,193.16360759999952,193.18422159999318,193.18422159999318,193.18422159999318,197.95093959999213,Scenes\176a.jpg,mid,o,4.758719999997993,None,,,,,,,,00006,001,2025-11-09_19h53.31.018,MST_test,2024.2.2,60.00470436971664,2025-11-09 19h53.48.735054 +0530,
16,0,16,o,1.493525799989584,None,16,0,16,0,197.96726760000456,,,,,,,,,,,,,,,,,,,,,,,,,,,,,,,,,,,,,,,,,,,,,,,,,,197.951023600006,197.96726760000456,198.46750569999858,198.45084750000387,198.4605440000014,198.46750569999858,198.46750569999858,198.46750569999858,199.96764529999928,Objects\076a.jpg,post,o,1.493525799989584,None,,,,,,,,00006,001,2025-11-09_19h53.31.018,MST_test,2024.2.2,60.00470436971664,2025-11-09 19h53.48.735054 +0530,
17,0,17,o,5.5913704999984475,None,17,0,17,0,199.98389360000147,,,,,,,,,,,,,,,,,,,,,,,,,,,,,,,,,,,,,,,,,,,,,,,,,,199.96773619999294,199.98389360000147,200.48385099999723,200.46743750000314,200.47715740000422,200.48385099999723,200.48385099999723,200.48385099999723,206.08409309999843,Scenes\178a.jpg,mid,o,5.5913704999984475,None,,,,,,,,00006,001,2025-11-09_19h53.31.018,MST_test,2024.2.2,60.00470436971664,2025-11-09 19h53.48.735054 +0530,
18,0,18,o,3.2154352000070503,None,18,0,18,0,206.100425800003,,,,,,,,,,,,,,,,,,,,,,,,,,,,,,,,,,,,,,,,,,,,,,,,,,206.0841725999926,206.100425800003,206.63371619999816,206.58395869999367,206.61173580000468,206.63371619999816,206.63371619999816,206.63371619999816,209.8506955000048,Scenes\028b.jpg,mid,o,3.2154352000070503,None,,,,,,,,00006,001,2025-11-09_19h53.31.018,MST_test,2024.2.2,60.00470436971664,2025-11-09 19h53.48.735054 +0530,
19,0,19,s,5.5214302999957,None,19,0,19,0,209.86702170000353,,,,,,,,,,,,,,,,,,,,,,,,,,,,,,,,,,,,,,,,,,,,,,,,,,209.85078900000372,209.86702170000353,210.38366629999655,210.3505501000036,210.36820409999928,210.38366629999655,210.38366629999655,210.38366629999655,215.91722109999682,Objects\118b.jpg,post,s,5.5214302999957,None,,,,,,,,00006,001,2025-11-09_19h53.31.018,MST_test,2024.2.2,60.00470436971664,2025-11-09 19h53.48.735054 +0530,
20,0,20,o,2.6782849000010174,None,20,0,20,0,215.93355169999995,,,,,,,,,,,,,,,,,,,,,,,,,,,,,,,,,,,,,,,,,,,,,,,,,,215.91730709999683,215.93355169999995,216.450170600001,216.41707919999317,216.43263369999477,216.450170600001,216.450170600001,216.450170600001,219.1339300999971,Objects\086b.jpg,pre,o,2.6782849000010174,None,,,,,,,,00006,001,2025-11-09_19h53.31.018,MST_test,2024.2.2,60.00470436971664,2025-11-09 19h53.48.735054 +0530,
21,0,21,o,5.434135100003914,None,21,0,21,0,219.15014719999454,,,,,,,,,,,,,,,,,,,,,,,,,,,,,,,,,,,,,,,,,,,,,,,,,,219.1340169000032,219.15014719999454,219.6667701999977,219.63366269999824,219.64692479999212,219.6667701999977,219.6667701999977,219.6667701999977,225.11710350000067,Scenes\159a.jpg,pre,o,5.434135100003914,None,,,,,,,,00006,001,2025-11-09_19h53.31.018,MST_test,2024.2.2,60.00470436971664,2025-11-09 19h53.48.735054 +0530,
22,0,22,o,1.7011582999984967,None,22,0,22,0,225.1333483000053,,,,,,,,,,,,,,,,,,,,,,,,,,,,,,,,,,,,,,,,,,,,,,,,,,225.11718640000618,225.1333483000053,225.63330909999786,225.61688410000352,225.62683639999887,225.63330909999786,225.63330909999786,225.63330909999786,227.3503922999953,Objects\122a.jpg,post,o,1.7011582999984967,None,,,,,,,,00006,001,2025-11-09_19h53.31.018,MST_test,2024.2.2,60.00470436971664,2025-11-09 19h53.48.735054 +0530,
23,0,23,s,2.6157027000008384,None,23,0,23,0,227.36663560000306,,,,,,,,,,,,,,,,,,,,,,,,,,,,,,,,,,,,,,,,,,,,,,,,,,227.35047869999835,227.36663560000306,227.8832803999976,227.85016649999307,227.86589679999452,227.8832803999976,227.8832803999976,227.8832803999976,230.50034589999996,Scenes\091b.jpg,mid,s,2.6157027000008384,None,,,,,,,,00006,001,2025-11-09_19h53.31.018,MST_test,2024.2.2,60.00470436971664,2025-11-09 19h53.48.735054 +0530,
24,0,24,n,7.31981889999588,None,24,0,24,0,230.5165876999963,,,,,,,,,,,,,,,,,,,,,,,,,,,,,,,,,,,,,,,,,,,,,,,,,,230.5004375999997,230.5165876999963,231.0168593999988,231.00010239999392,231.0073790000024,231.0168593999988,231.0168593999988,231.0168593999988,238.3501671999984,Foils\scenes20.jpg,none,n,7.31981889999588,None,,,,,,,,00006,001,2025-11-09_19h53.31.018,MST_test,2024.2.2,60.00470436971664,2025-11-09 19h53.48.735054 +0530,
25,0,25,s,5.5979055000061635,None,25,0,25,0,238.36636980000185,,,,,,,,,,,,,,,,,,,,,,,,,,,,,,,,,,,,,,,,,,,,,,,,,,238.35026570000628,238.36636980000185,238.86663930000213,238.84991770000488,238.85951749999367,238.86663930000213,238.86663930000213,238.86663930000213,244.4666098000016,Objects\123a.jpg,mid,s,5.5979055000061635,None,,,,,,,,00006,001,2025-11-09_19h53.31.018,MST_test,2024.2.2,60.00470436971664,2025-11-09 19h53.48.735054 +0530,
26,0,26,n,11.459106299997075,None,26,0,26,0,244.4829205999995,,,,,,,,,,,,,,,,,,,,,,,,,,,,,,,,,,,,,,,,,,,,,,,,,,244.46668969999882,244.4829205999995,244.9995828999963,244.9664843000064,244.98362899999483,244.9995828999963,244.9995828999963,244.9995828999963,256.46646700000565,Scenes\073b.jpg,mid,n,11.459106299997075,None,,,,,,,,00006,001,2025-11-09_19h53.31.018,MST_test,2024.2.2,60.00470436971664,2025-11-09 19h53.48.735054 +0530,
27,0,27,s,4.9040467999875546,None,27,0,27,0,256.482640599992,,,,,,,,,,,,,,,,,,,,,,,,,,,,,,,,,,,,,,,,,,,,,,,,,,256.46655610000016,256.482640599992,256.98262510000495,256.96626289999404,256.97056459999294,256.98262510000495,256.98262510000495,256.98262510000495,261.8996507999982,Scenes\166b.jpg,post,s,4.9040467999875546,None,,,,,,,,00006,001,2025-11-09_19h53.31.018,MST_test,2024.2.2,60.00470436971664,2025-11-09 19h53.48.735054 +0530,
28,0,28,n,2.286695399991004,None,28,0,28,0,261.9158879000024,,,,,,,,,,,,,,,,,,,,,,,,,,,,,,,,,,,,,,,,,,,,,,,,,,261.89972919999855,261.9158879000024,262.41584420000436,262.3994814000034,262.4094299999997,262.41584420000436,262.41584420000436,262.41584420000436,264.71616929999436,Foils\093b.jpg,none,n,2.286695399991004,None,,,,,,,,00006,001,2025-11-09_19h53.31.018,MST_test,2024.2.2,60.00470436971664,2025-11-09 19h53.48.735054 +0530,
29,0,29,n,1.126804200001061,None,29,0,29,0,264.7324874000042,,,,,,,,,,,,,,,,,,,,,,,,,,,,,,,,,,,,,,,,,,,,,,,,,,264.7162513999938,264.7324874000042,265.2324770999985,265.2160273000045,265.2255836999975,265.2324770999985,265.2324770999985,265.2324770999985,266.3661495999986,Foils\058a.jpg,none,n,1.126804200001061,None,,,,,,,,00006,001,2025-11-09_19h53.31.018,MST_test,2024.2.2,60.00470436971664,2025-11-09 19h53.48.735054 +0530,
30,0,30,n,5.402430399990408,None,30,0,30,0,266.3824598999927,,,,,,,,,,,,,,,,,,,,,,,,,,,,,,,,,,,,,,,,,,,,,,,,,,266.3662425999937,266.3824598999927,266.88241580000613,266.8659282000008,266.87563670000236,266.88241580000613,266.88241580000613,266.88241580000613,272.2994852999982,Foils\018a.jpg,none,n,5.402430399990408,None,,,,,,,,00006,001,2025-11-09_19h53.31.018,MST_test,2024.2.2,60.00470436971664,2025-11-09 19h53.48.735054 +0530,
31,0,31,n,3.614934800003539,None,31,0,31,0,272.31568650000554,,,,,,,,,,,,,,,,,,,,,,,,,,,,,,,,,,,,,,,,,,,,,,,,,,272.29956679999304,272.31568650000554,272.81600730000355,272.79919629999495,272.80530340000405,272.81600730000355,272.81600730000355,272.81600730000355,276.4327026999963,Foils\scenes4.jpg,none,n,3.614934800003539,None,,,,,,,,00006,001,2025-11-09_19h53.31.018,MST_test,2024.2.2,60.00470436971664,2025-11-09 19h53.48.735054 +0530,
32,0,32,n,13.310739499996998,None,32,0,32,0,276.44891140000254,,,,,,,,,,,,,,,,,,,,,,,,,,,,,,,,,,,,,,,,,,,,,,,,,,276.4327881999925,276.44891140000254,276.9655363000056,276.9324495000037,276.9460410000029,276.9655363000056,276.9655363000056,276.9655363000056,290.2823114000057,Foils\scenes6.jpg,none,n,13.310739499996998,None,,,,,,,,00006,001,2025-11-09_19h53.31.018,MST_test,2024.2.2,60.00470436971664,2025-11-09 19h53.48.735054 +0530,
33,0,33,o,1.8077976000058698,None,33,0,33,0,290.29860579999513,,,,,,,,,,,,,,,,,,,,,,,,,,,,,,,,,,,,,,,,,,,,,,,,,,290.28239150000445,290.29860579999513,290.83215469999413,290.7821513999952,290.8203194999951,290.83215469999413,290.83215469999413,290.83215469999413,292.64902759999677,Scenes\054b.jpg,mid,o,1.8077976000058698,None,,,,,,,,00006,001,2025-11-09_19h53.31.018,MST_test,2024.2.2,60.00470436971664,2025-11-09 19h53.48.735054 +0530,
34,0,34,s,3.5431575999973575,None,34,0,34,0,292.6652202999976,,,,,,,,,,,,,,,,,,,,,,,,,,,,,,,,,,,,,,,,,,,,,,,,,,292.6491152999952,292.6652202999976,293.1654209999979,293.14874269999564,293.1554718999978,293.1654209999979,293.1654209999979,293.1654209999979,296.71551069999987,Scenes\022a.jpg,post,s,3.5431575999973575,None,,,,,,,,00006,001,2025-11-09_19h53.31.018,MST_test,2024.2.2,60.00470436971664,2025-11-09 19h53.48.735054 +0530,
35,0,35,o,2.2424353000096744,None,35,0,35,0,296.7318002999964,,,,,,,,,,,,,,,,,,,,,,,,,,,,,,,,,,,,,,,,,,,,,,,,,,296.71559379999235,296.7318002999964,297.2319681999943,297.215294499998,297.22505629999796,297.2319681999943,297.2319681999943,297.2319681999943,299.4821382999944,Objects\084a.jpg,pre,o,2.2424353000096744,None,,,,,,,,00006,001,2025-11-09_19h53.31.018,MST_test,2024.2.2,60.00470436971664,2025-11-09 19h53.48.735054 +0530,
36,0,36,n,1.6601525000005495,None,36,0,36,0,299.4984071999934,,,,,,,,,,,,,,,,,,,,,,,,,,,,,,,,,,,,,,,,,,,,,,,,,,299.4822240999929,299.4984071999934,299.99842059999355,299.9820256999956,299.9917415999953,299.99842059999355,299.99842059999355,299.99842059999355,301.66530310000235,Foils\113a.jpg,none,n,1.6601525000005495,None,,,,,,,,00006,001,2025-11-09_19h53.31.018,MST_test,2024.2.2,60.00470436971664,2025-11-09 19h53.48.735054 +0530,
37,0,37,o,2.254492299995036,None,37,0,37,0,301.6816969999927,,,,,,,,,,,,,,,,,,,,,,,,,,,,,,,,,,,,,,,,,,,,,,,,,,301.6653825999965,301.6816969999927,302.181665600001,302.16528929999913,302.1748144000012,302.181665600001,302.181665600001,302.181665600001,304.4486772999953,Objects\181a.jpg,post,o,2.254492299995036,None,,,,,,,,00006,001,2025-11-09_19h53.31.018,MST_test,2024.2.2,60.00470436971664,2025-11-09 19h53.48.735054 +0530,
38,0,38,n,2.8268556999973953,None,38,0,38,0,304.4649405999953,,,,,,,,,,,,,,,,,,,,,,,,,,,,,,,,,,,,,,,,,,,,,,,,,,304.4487638999999,304.4649405999953,304.9653130999941,304.9486384000047,304.95480849999876,304.9653130999941,304.9653130999941,304.9653130999941,307.7985219999973,Foils\scenes29.jpg,none,n,2.8268556999973953,None,,,,,,,,00006,001,2025-11-09_19h53.31.018,MST_test,2024.2.2,60.00470436971664,2025-11-09 19h53.48.735054 +0530,
39,0,39,n,1.0631799999973737,None,39,0,39,0,307.8148871000012,,,,,,,,,,,,,,,,,,,,,,,,,,,,,,,,,,,,,,,,,,,,,,,,,,307.79861480000545,307.8148871000012,308.41533410000557,308.29849159999867,308.38768990000244,308.41533410000557,308.41533410000557,308.41533410000557,309.48186729999725,Foils\scenes25.jpg,none,n,1.0631799999973737,None,,,,,,,,00006,001,2025-11-09_19h53.31.018,MST_test,2024.2.2,60.00470436971664,2025-11-09 19h53.48.735054 +0530,
40,0,40,s,2.6448984000016935,None,40,0,40,0,309.4981956999982,,,,,,,,,,,,,,,,,,,,,,,,,,,,,,,,,,,,,,,,,,,,,,,,,,309.48195159999887,309.4981956999982,309.9980496000062,309.9817919000052,309.9935015999945,309.9980496000062,309.9980496000062,309.9980496000062,312.6485609999945,Objects\165a.jpg,pre,s,2.6448984000016935,None,,,,,,,,00006,001,2025-11-09_19h53.31.018,MST_test,2024.2.2,60.00470436971664,2025-11-09 19h53.48.735054 +0530,
41,0,41,o,4.674337899996317,None,41,0,41,0,312.66478520000237,,,,,,,,,,,,,,,,,,,,,,,,,,,,,,,,,,,,,,,,,,,,,,,,,,312.64865499999723,312.66478520000237,313.1647527000023,313.14841100000194,313.15898160000506,313.1647527000023,313.1647527000023,313.1647527000023,317.8483636000019,Objects\186a.jpg,mid,o,4.674337899996317,None,,,,,,,,00006,001,2025-11-09_19h53.31.018,MST_test,2024.2.2,60.00470436971664,2025-11-09 19h53.48.735054 +0530,
42,0,42,s,1.944865800003754,None,42,0,42,0,317.8646829999925,,,,,,,,,,,,,,,,,,,,,,,,,,,,,,,,,,,,,,,,,,,,,,,,,,317.84845000000496,317.8646829999925,318.38162040000316,318.34821830000146,318.37039450000157,318.38162040000316,318.38162040000316,318.38162040000316,320.33164239999314,Scenes\114b.jpg,pre,s,1.944865800003754,None,,,,,,,,00006,001,2025-11-09_19h53.31.018,MST_test,2024.2.2,60.00470436971664,2025-11-09 19h53.48.735054 +0530,
43,0,43,s,3.66202340000018,None,43,0,43,0,320.3479551000055,,,,,,,,,,,,,,,,,,,,,,,,,,,,,,,,,,,,,,,,,,,,,,,,,,320.33172449999256,320.3479551000055,320.86461269999563,320.83156520000193,320.847603599992,320.86461269999563,320.86461269999563,320.86461269999563,324.53154310000536,Objects\038b.jpg,pre,s,3.66202340000018,None,,,,,,,,00006,001,2025-11-09_19h53.31.018,MST_test,2024.2.2,60.00470436971664,2025-11-09 19h53.48.735054 +0530,
44,0,44,s,4.447209699996165,None,44,0,44,0,324.54786979999335,,,,,,,,,,,,,,,,,,,,,,,,,,,,,,,,,,,,,,,,,,,,,,,,,,324.5316229000018,324.54786979999335,325.04782720000367,325.0314065999992,325.04085390000546,325.04782720000367,325.04782720000367,325.04782720000367,329.49816360000113,Objects\184a.jpg,pre,s,4.447209699996165,None,,,,,,,,00006,001,2025-11-09_19h53.31.018,MST_test,2024.2.2,60.00470436971664,2025-11-09 19h53.48.735054 +0530,
45,0,45,o,1.2005085999990115,None,45,0,45,0,329.51443070000096,,,,,,,,,,,,,,,,,,,,,,,,,,,,,,,,,,,,,,,,,,,,,,,,,,329.4982525999949,329.51443070000096,330.014380099994,329.9980496999924,330.00806370000646,330.014380099994,330.014380099994,330.014380099994,331.23142650000227,Objects\099a.jpg,post,o,1.2005085999990115,None,,,,,,,,00006,001,2025-11-09_19h53.31.018,MST_test,2024.2.2,60.00470436971664,2025-11-09 19h53.48.735054 +0530,
46,0,46,s,6.034001799998805,None,46,0,46,0,331.24773269999423,,,,,,,,,,,,,,,,,,,,,,,,,,,,,,,,,,,,,,,,,,,,,,,,,,331.2315105000016,331.24773269999423,331.78105119999964,331.73129999999946,331.7608179999952,331.78105119999964,331.78105119999964,331.78105119999964,337.8312808000046,Scenes\172b.jpg,mid,s,6.034001799998805,None,,,,,,,,00006,001,2025-11-09_19h53.31.018,MST_test,2024.2.2,60.00470436971664,2025-11-09 19h53.48.735054 +0530,
47,0,47,o,1.1685530999966431,None,47,0,47,0,337.8475769999932,,,,,,,,,,,,,,,,,,,,,,,,,,,,,,,,,,,,,,,,,,,,,,,,,,337.8313785999926,337.8475769999932,338.3477456999972,338.3310579999961,338.3397582000034,338.3477456999972,338.3477456999972,338.3477456999972,339.5312081000011,Scenes\033a.jpg,pre,o,1.1685530999966431,None,,,,,,,,00006,001,2025-11-09_19h53.31.018,MST_test,2024.2.2,60.00470436971664,2025-11-09 19h53.48.735054 +0530,
48,0,48,o,2.4194535999995423,None,48,0,48,0,339.5475488999946,,,,,,,,,,,,,,,,,,,,,,,,,,,,,,,,,,,,,,,,,,,,,,,,,,339.53129299999273,339.5475488999946,340.08108839999477,340.03114859999914,340.0657460999937,340.08108839999477,340.08108839999477,340.08108839999477,342.514425500005,Scenes\034a.jpg,mid,o,2.4194535999995423,None,,,,,,,,00006,001,2025-11-09_19h53.31.018,MST_test,2024.2.2,60.00470436971664,2025-11-09 19h53.48.735054 +0530,
49,0,49,n,3.0860766999976477,None,49,0,49,0,342.5307793999964,,,,,,,,,,,,,,,,,,,,,,,,,,,,,,,,,,,,,,,,,,,,,,,,,,342.51450950000435,342.5307793999964,343.0310892999987,343.01437380000425,343.0244972999935,343.0310892999987,343.0310892999987,343.0310892999987,346.13108259999717,Foils\081a.jpg,none,n,3.0860766999976477,None,,,,,,,,00006,001,2025-11-09_19h53.31.018,MST_test,2024.2.2,60.00470436971664,2025-11-09 19h53.48.735054 +0530,
50,0,50,o,1.4020602999953553,None,50,0,50,0,346.14740449999226,,,,,,,,,,,,,,,,,,,,,,,,,,,,,,,,,,,,,,,,,,,,,,,,,,346.1311710000009,346.14740449999226,346.66432189999614,346.63097969999944,346.65296249999665,346.66432189999614,346.66432189999614,346.66432189999614,348.08110199999646,Scenes\021a.jpg,pre,o,1.4020602999953553,None,,,,,,,,00006,001,2025-11-09_19h53.31.018,MST_test,2024.2.2,60.00470436971664,2025-11-09 19h53.48.735054 +0530,
51,0,51,n,1.7383414000069024,None,51,0,51,0,348.0973563000007,,,,,,,,,,,,,,,,,,,,,,,,,,,,,,,,,,,,,,,,,,,,,,,,,,348.0811890000041,348.0973563000007,348.61401629999455,348.5808904000005,348.59845819999464,348.61401629999455,348.61401629999455,348.61401629999455,350.36438980000094,Foils\033a.jpg,none,n,1.7383414000069024,None,,,,,,,,00006,001,2025-11-09_19h53.31.018,MST_test,2024.2.2,60.00470436971664,2025-11-09 19h53.48.735054 +0530,
52,0,52,s,6.389258399998653,None,52,0,52,0,350.3807560999994,,,,,,,,,,,,,,,,,,,,,,,,,,,,,,,,,,,,,,,,,,,,,,,,,,350.3644765000063,350.3807560999994,350.9139301999967,350.8641110000026,350.90388499999244,350.9139301999967,350.9139301999967,350.9139301999967,357.31417909999436,Scenes\146b.jpg,post,s,6.389258399998653,None,,,,,,,,00006,001,2025-11-09_19h53.31.018,MST_test,2024.2.2,60.00470436971664,2025-11-09 19h53.48.735054 +0530,
53,0,53,s,2.100051600005827,None,53,0,53,0,357.33048869999766,,,,,,,,,,,,,,,,,,,,,,,,,,,,,,,,,,,,,,,,,,,,,,,,,,357.31425890000537,357.33048869999766,357.8471724999981,357.8140287999995,357.82961709999654,357.8471724999981,357.8471724999981,357.8471724999981,359.9641086000047,Objects\091b.jpg,post,s,2.100051600005827,None,,,,,,,,00006,001,2025-11-09_19h53.31.018,MST_test,2024.2.2,60.00470436971664,2025-11-09 19h53.48.735054 +0530,
54,0,54,s,3.359001699995133,None,54,0,54,0,359.9804528999957,,,,,,,,,,,,,,,,,,,,,,,,,,,,,,,,,,,,,,,,,,,,,,,,,,359.96419280000555,359.9804528999957,360.4973234000063,360.46400999999605,360.48608230000536,360.4973234000063,360.4973234000063,360.4973234000063,363.8641435000027,Scenes\104b.jpg,pre,s,3.359001699995133,None,,,,,,,,00006,001,2025-11-09_19h53.31.018,MST_test,2024.2.2,60.00470436971664,2025-11-09 19h53.48.735054 +0530,
55,0,55,o,1.5838898999936646,None,55,0,55,0,363.88035059999675,,,,,,,,,,,,,,,,,,,,,,,,,,,,,,,,,,,,,,,,,,,,,,,,,,363.8642305999965,363.88035059999675,364.3969764999929,364.3639306999976,364.3836381000001,364.3969764999929,364.3969764999929,364.3969764999929,365.9972926000046,Scenes\158a.jpg,mid,o,1.5838898999936646,None,,,,,,,,00006,001,2025-11-09_19h53.31.018,MST_test,2024.2.2,60.00470436971664,2025-11-09 19h53.48.735054 +0530,
56,0,56,s,4.2204881999932695,None,56,0,56,0,366.0136377000017,,,,,,,,,,,,,,,,,,,,,,,,,,,,,,,,,,,,,,,,,,,,,,,,,,365.9973806000053,366.0136377000017,366.51385180000216,366.4972007000033,366.5042422999977,366.51385180000216,366.51385180000216,366.51385180000216,370.747219900004,Foils\scenes8.jpg,none,s,4.2204881999932695,None,,,,,,,,00006,001,2025-11-09_19h53.31.018,MST_test,2024.2.2,60.00470436971664,2025-11-09 19h53.48.735054 +0530,
57,0,57,o,2.3044618000130868,None,57,0,57,0,370.7635195000039,,,,,,,,,,,,,,,,,,,,,,,,,,,,,,,,,,,,,,,,,,,,,,,,,,370.74729749999824,370.7635195000039,371.280379200005,371.24701219999406,371.2627108000015,371.280379200005,371.280379200005,371.280379200005,373.59705919999396,Objects\030b.jpg,mid,o,2.3044618000130868,None,,,,,,,,00006,001,2025-11-09_19h53.31.018,MST_test,2024.2.2,60.00470436971664,2025-11-09 19h53.48.735054 +0530,
58,0,58,o,2.6571444000001065,None,58,0,58,0,373.61347500000556,,,,,,,,,,,,,,,,,,,,,,,,,,,,,,,,,,,,,,,,,,,,,,,,,,373.597136700002,373.61347500000556,374.11348149999685,374.0969616999937,374.1065387999988,374.11348149999685,374.11348149999685,374.11348149999685,376.78043260000413,Objects\087a.jpg,mid,o,2.6571444000001065,None,,,,,,,,00006,001,2025-11-09_19h53.31.018,MST_test,2024.2.2,60.00470436971664,2025-11-09 19h53.48.735054 +0530,
59,0,59,s,1.339097000003676,None,59,0,59,0,376.7967628000042,,,,,,,,,,,,,,,,,,,,,,,,,,,,,,,,,,,,,,,,,,,,,,,,,,376.7805118999968,376.7967628000042,377.3300301999989,377.2801831999968,377.3192005000019,377.3300301999989,377.3300301999989,377.3300301999989,378.68032400000084,Scenes\107b.jpg,pre,s,1.339097000003676,None,,,,,,,,00006,001,2025-11-09_19h53.31.018,MST_test,2024.2.2,60.00470436971664,2025-11-09 19h53.48.735054 +0530,
60,0,60,s,2.689871399998083,None,60,0,60,0,378.6966969000059,,,,,,,,,,,,,,,,,,,,,,,,,,,,,,,,,,,,,,,,,,,,,,,,,,378.6804138000007,378.6966969000059,379.2133568999998,379.18013910000445,379.20589889999246,379.2133568999998,379.2133568999998,379.2133568999998,381.91369380000106,Scenes\149b.jpg,pre,s,2.689871399998083,None,,,,,,,,00006,001,2025-11-09_19h53.31.018,MST_test,2024.2.2,60.00470436971664,2025-11-09 19h53.48.735054 +0530,
61,0,61,o,2.8044375000026776,None,61,0,61,0,381.9299628000008,,,,,,,,,,,,,,,,,,,,,,,,,,,,,,,,,,,,,,,,,,,,,,,,,,381.91377840000496,381.9299628000008,382.4465976999927,382.4134602999984,382.4343472000037,382.4465976999927,382.4465976999927,382.4465976999927,385.26369720000366,Scenes\062a.jpg,post,o,2.8044375000026776,None,,,,,,,,00006,001,2025-11-09_19h53.31.018,MST_test,2024.2.2,60.00470436971664,2025-11-09 19h53.48.735054 +0530,
62,0,62,o,5.04453199999989,None,62,0,62,0,385.2798899000045,,,,,,,,,,,,,,,,,,,,,,,,,,,,,,,,,,,,,,,,,,,,,,,,,,385.2637897999957,385.2798899000045,385.77996460000577,385.7633930000011,385.7739650000003,385.77996460000577,385.77996460000577,385.77996460000577,390.8300401000015,Objects\002b.jpg,mid,o,5.04453199999989,None,,,,,,,,00006,001,2025-11-09_19h53.31.018,MST_test,2024.2.2,60.00470436971664,2025-11-09 19h53.48.735054 +0530,
63,0,63,o,1.3818461000046227,None,63,0,63,0,390.8464595999976,,,,,,,,,,,,,,,,,,,,,,,,,,,,,,,,,,,,,,,,,,,,,,,,,,390.8301152000058,390.8464595999976,391.3464335000026,391.3299471000064,391.34015059999365,391.3464335000026,391.3464335000026,391.3464335000026,392.73011229999247,Objects\036a.jpg,post,o,1.3818461000046227,None,,,,,,,,00006,001,2025-11-09_19h53.31.018,MST_test,2024.2.2,60.00470436971664,2025-11-09 19h53.48.735054 +0530,
64,0,64,s,3.4369162999937544,None,64,0,64,0,392.7463912999956,,,,,,,,,,,,,,,,,,,,,,,,,,,,,,,,,,,,,,,,,,,,,,,,,,392.73018749999756,392.7463912999956,393.27971410000464,393.2299781000038,393.2630039999931,393.27971410000464,393.27971410000464,393.27971410000464,396.7300755000033,Scenes\150b.jpg,pre,s,3.4369162999937544,None,,,,,,,,00006,001,2025-11-09_19h53.31.018,MST_test,2024.2.2,60.00470436971664,2025-11-09 19h53.48.735054 +0530,
65,0,65,o,1.4919100999977672,None,65,0,65,0,396.7463507999928,,,,,,,,,,,,,,,,,,,,,,,,,,,,,,,,,,,,,,,,,,,,,,,,,,396.7301740999974,396.7463507999928,397.2629381000006,397.22978009999497,397.2503077000001,397.2629381000006,397.2629381000006,397.2629381000006,398.763288999995,Scenes\068a.jpg,mid,o,1.4919100999977672,None,,,,,,,,00006,001,2025-11-09_19h53.31.018,MST_test,2024.2.2,60.00470436971664,2025-11-09 19h53.48.735054 +0530,
66,0,66,o,3.3661424000019906,None,66,0,66,0,398.7796890000027,,,,,,,,,,,,,,,,,,,,,,,,,,,,,,,,,,,,,,,,,,,,,,,,,,398.7633663000015,398.7796890000027,399.29624820000026,399.2633077999926,399.27964310000243,399.29624820000026,399.29624820000026,399.29624820000026,402.663123499995,Objects\045b.jpg,mid,o,3.3661424000019906,None,,,,,,,,00006,001,2025-11-09_19h53.31.018,MST_test,2024.2.2,60.00470436971664,2025-11-09 19h53.48.735054 +0530,
67,0,67,s,2.1505811999959406,None,67,0,67,0,402.6795093999972,,,,,,,,,,,,,,,,,,,,,,,,,,,,,,,,,,,,,,,,,,,,,,,,,,402.6632135999971,402.6795093999972,403.1961695999926,403.16316719999304,403.17888170000515,403.1961695999926,403.1961695999926,403.1961695999926,405.36304470000323,Objects\143b.jpg,post,s,2.1505811999959406,None,,,,,,,,00006,001,2025-11-09_19h53.31.018,MST_test,2024.2.2,60.00470436971664,2025-11-09 19h53.48.735054 +0530,
68,0,68,o,2.8726894999999786,None,68,0,68,0,405.37945199999376,,,,,,,,,,,,,,,,,,,,,,,,,,,,,,,,,,,,,,,,,,,,,,,,,,405.36313430000155,405.37945199999376,405.8963411000004,405.86293560000195,405.88122500000463,405.8963411000004,405.8963411000004,405.8963411000004,408.7797774000064,Scenes\008a.jpg,pre,o,2.8726894999999786,None,,,,,,,,00006,001,2025-11-09_19h53.31.018,MST_test,2024.2.2,60.00470436971664,2025-11-09 19h53.48.735054 +0530,
69,0,69,s,1.4763413000036962,None,69,0,69,0,408.796061999994,,,,,,,,,,,,,,,,,,,,,,,,,,,,,,,,,,,,,,,,,,,,,,,,,,408.7798694999947,408.796061999994,409.29600149999897,409.2796346999967,409.29008520000207,409.29600149999897,409.29600149999897,409.29600149999897,410.7796970000054,Objects\054a.jpg,pre,s,1.4763413000036962,None,,,,,,,,00006,001,2025-11-09_19h53.31.018,MST_test,2024.2.2,60.00470436971664,2025-11-09 19h53.48.735054 +0530,
70,0,70,o,2.662647899996955,None,70,0,70,0,410.79600129999744,,,,,,,,,,,,,,,,,,,,,,,,,,,,,,,,,,,,,,,,,,,,,,,,,,410.77978329999314,410.79600129999744,411.2959608999954,411.27948460000334,411.28924050000205,411.2959608999954,411.2959608999954,411.2959608999954,413.96292900000117,Objects\168a.jpg,mid,o,2.662647899996955,None,,,,,,,,00006,001,2025-11-09_19h53.31.018,MST_test,2024.2.2,60.00470436971664,2025-11-09 19h53.48.735054 +0530,
71,0,71,s,1.693920599995181,None,71,0,71,0,413.9792669000017,,,,,,,,,,,,,,,,,,,,,,,,,,,,,,,,,,,,,,,,,,,,,,,,,,413.96302209999703,413.9792669000017,414.4792255999928,414.46284350000496,414.47212190000573,414.4792255999928,414.4792255999928,414.4792255999928,416.17956689999846,Objects\155a.jpg,pre,s,1.693920599995181,None,,,,,,,,00006,001,2025-11-09_19h53.31.018,MST_test,2024.2.2,60.00470436971664,2025-11-09 19h53.48.735054 +0530,
72,0,72,n,1.2666877000010572,None,72,0,72,0,416.19602429999213,,,,,,,,,,,,,,,,,,,,,,,,,,,,,,,,,,,,,,,,,,,,,,,,,,416.17964159999974,416.19602429999213,416.71251309999207,416.6793595000054,416.6969189999945,416.71251309999207,416.71251309999207,416.71251309999207,417.97979789999954,Foils\010a.jpg,none,n,1.2666877000010572,None,,,,,,,,00006,001,2025-11-09_19h53.31.018,MST_test,2024.2.2,60.00470436971664,2025-11-09 19h53.48.735054 +0530,
73,0,73,n,2.992953099994338,None,73,0,73,0,417.9958939000062,,,,,,,,,,,,,,,,,,,,,,,,,,,,,,,,,,,,,,,,,,,,,,,,,,417.97989000000234,417.9958939000062,418.57938809999905,418.4794387000002,418.5299049000023,418.57938809999905,418.57938809999905,418.57938809999905,421.5793909000058,Foils\scenes15.jpg,none,n,2.992953099994338,None,,,,,,,,00006,001,2025-11-09_19h53.31.018,MST_test,2024.2.2,60.00470436971664,2025-11-09 19h53.48.735054 +0530,
74,0,74,o,1.3927373999904376,None,74,0,74,0,421.595776999995,,,,,,,,,,,,,,,,,,,,,,,,,,,,,,,,,,,,,,,,,,,,,,,,,,421.57946779999475,421.595776999995,422.09575710000354,422.0793432000064,422.090876000002,422.09575710000354,422.09575710000354,422.09575710000354,423.4960168999969,Objects\157a.jpg,mid,o,1.3927373999904376,None,,,,,,,,00006,001,2025-11-09_19h53.31.018,MST_test,2024.2.2,60.00470436971664,2025-11-09 19h53.48.735054 +0530,
75,0,75,o,6.146086300010211,None,75,0,75,0,423.51240300000063,,,,,,,,,,,,,,,,,,,,,,,,,,,,,,,,,,,,,,,,,,,,,,,,,,423.496098100004,423.51240300000063,424.0123598000064,423.9959130999923,424.006263400006,424.0123598000064,424.0123598000064,424.0123598000064,430.1625473000022,Objects\142a.jpg,mid,o,6.146086300010211,None,,,,,,,,00006,001,2025-11-09_19h53.31.018,MST_test,2024.2.2,60.00470436971664,2025-11-09 19h53.48.735054 +0530,
76,0,76,o,1.7023533000028692,None,76,0,76,0,430.1789201999927,,,,,,,,,,,,,,,,,,,,,,,,,,,,,,,,,,,,,,,,,,,,,,,,,,430.1626268999971,430.1789201999927,430.6788704000064,430.6624123999936,430.6726125999994,430.6788704000064,430.6788704000064,430.6788704000064,432.39595170000393,Objects\065a.jpg,mid,o,1.7023533000028692,None,,,,,,,,00006,001,2025-11-09_19h53.31.018,MST_test,2024.2.2,60.00470436971664,2025-11-09 19h53.48.735054 +0530,
77,0,77,n,2.1321975000028033,None,77,0,77,0,432.41221130000486,,,,,,,,,,,,,,,,,,,,,,,,,,,,,,,,,,,,,,,,,,,,,,,,,,432.39604099999997,432.41221130000486,432.912393000006,432.89588809999987,432.902792199995,432.912393000006,432.912393000006,432.912393000006,435.04588639999565,Foils\scenes11.jpg,none,n,2.1321975000028033,None,,,,,,,,00006,001,2025-11-09_19h53.31.018,MST_test,2024.2.2,60.00470436971664,2025-11-09 19h53.48.735054 +0530,
78,0,78,n,2.432731999986572,None,78,0,78,0,435.0621250999975,,,,,,,,,,,,,,,,,,,,,,,,,,,,,,,,,,,,,,,,,,,,,,,,,,435.0459689999989,435.0621250999975,435.59562639999785,435.54574180000054,435.5839539000008,435.59562639999785,435.59562639999785,435.59562639999785,438.0290442999976,Scenes\092b.jpg,mid,n,2.432731999986572,None,,,,,,,,00006,001,2025-11-09_19h53.31.018,MST_test,2024.2.2,60.00470436971664,2025-11-09 19h53.48.735054 +0530,
79,0,79,o,5.37974010000471,None,79,0,79,0,438.04543569999805,,,,,,,,,,,,,,,,,,,,,,,,,,,,,,,,,,,,,,,,,,,,,,,,,,438.0291406000033,438.04543569999805,438.54537579999305,438.5289391999977,438.5388016999932,438.54537579999305,438.54537579999305,438.54537579999305,443.92905999999493,Objects\180a.jpg,mid,o,5.37974010000471,None,,,,,,,,00006,001,2025-11-09_19h53.31.018,MST_test,2024.2.2,60.00470436971664,2025-11-09 19h53.48.735054 +0530,
80,0,80,o,1.5019617000070866,None,80,0,80,0,443.94529180000245,,,,,,,,,,,,,,,,,,,,,,,,,,,,,,,,,,,,,,,,,,,,,,,,,,443.9291402999952,443.94529180000245,444.44524689999525,444.4289325999998,444.4387360999972,444.44524689999525,444.44524689999525,444.44524689999525,445.96231350000016,Objects\083a.jpg,pre,o,1.5019617000070866,None,,,,,,,,00006,001,2025-11-09_19h53.31.018,MST_test,2024.2.2,60.00470436971664,2025-11-09 19h53.48.735054 +0530,
81,0,81,s,3.3996039000048768,None,81,0,81,0,445.97857659999863,,,,,,,,,,,,,,,,,,,,,,,,,,,,,,,,,,,,,,,,,,,,,,,,,,445.9624029999977,445.97857659999863,446.4952301000012,446.4622357000044,446.47857969999313,446.4952301000012,446.4952301000012,446.4952301000012,449.89553340000566,Objects\004b.jpg,mid,s,3.3996039000048768,None,,,,,,,,00006,001,2025-11-09_19h53.31.018,MST_test,2024.2.2,60.00470436971664,2025-11-09 19h53.48.735054 +0530,
82,0,82,o,6.9707466999971075,None,82,0,82,0,449.91185479999695,,,,,,,,,,,,,,,,,,,,,,,,,,,,,,,,,,,,,,,,,,,,,,,,,,449.8956201999972,449.91185479999695,450.42845350000425,450.39535279999836,450.4138155999972,450.42845350000425,450.42845350000425,450.42845350000425,457.4120152999967,Scenes\133a.jpg,mid,o,6.9707466999971075,None,,,,,,,,00006,001,2025-11-09_19h53.31.018,MST_test,2024.2.2,60.00470436971664,2025-11-09 19h53.48.735054 +0530,
83,0,83,o,2.8484817999997176,None,83,0,83,0,457.42833729999256,,,,,,,,,,,,,,,,,,,,,,,,,,,,,,,,,,,,,,,,,,,,,,,,,,457.4121044000058,457.42833729999256,457.9283085000061,457.9119057999924,457.92155410000123,457.9283085000061,457.9283085000061,457.9283085000061,460.77872590000334,Objects\017a.jpg,pre,o,2.8484817999997176,None,,,,,,,,00006,001,2025-11-09_19h53.31.018,MST_test,2024.2.2,60.00470436971664,2025-11-09 19h53.48.735054 +0530,
84,0,84,s,2.192813200003002,None,84,0,84,0,460.7949362999934,,,,,,,,,,,,,,,,,,,,,,,,,,,,,,,,,,,,,,,,,,,,,,,,,,460.77881139999954,460.7949362999934,461.31185490000644,461.27846390000195,461.29457450000336,461.31185490000644,461.31185490000644,461.31185490000644,463.51189239999803,Scenes\154b.jpg,pre,s,2.192813200003002,None,,,,,,,,00006,001,2025-11-09_19h53.31.018,MST_test,2024.2.2,60.00470436971664,2025-11-09 19h53.48.735054 +0530,
85,0,85,n,1.0995554000110133,None,85,0,85,0,463.5282231000019,,,,,,,,,,,,,,,,,,,,,,,,,,,,,,,,,,,,,,,,,,,,,,,,,,463.5119699000061,463.5282231000019,464.044833699998,464.011748799996,464.0287038999959,464.044833699998,464.044833699998,464.044833699998,465.1452127999946,Foils\121a.jpg,none,n,1.0995554000110133,None,,,,,,,,00006,001,2025-11-09_19h53.31.018,MST_test,2024.2.2,60.00470436971664,2025-11-09 19h53.48.735054 +0530,
86,0,86,s,2.2870836000074632,None,86,0,86,0,465.16152650000004,,,,,,,,,,,,,,,,,,,,,,,,,,,,,,,,,,,,,,,,,,,,,,,,,,465.14530150000064,465.16152650000004,465.66150180000113,465.64510890000383,465.65501050000603,465.66150180000113,465.66150180000113,465.66150180000113,467.9617819999985,Objects\041b.jpg,pre,s,2.2870836000074632,None,,,,,,,,00006,001,2025-11-09_19h53.31.018,MST_test,2024.2.2,60.00470436971664,2025-11-09 19h53.48.735054 +0530,
87,0,87,o,1.5955384999979287,None,87,0,87,0,467.9781057999935,,,,,,,,,,,,,,,,,,,,,,,,,,,,,,,,,,,,,,,,,,,,,,,,,,467.96186280000256,467.9781057999935,468.4947567000054,468.46167639999476,468.47729500000423,468.4947567000054,468.4947567000054,468.4947567000054,470.0949993999966,Objects\106b.jpg,pre,o,1.5955384999979287,None,,,,,,,,00006,001,2025-11-09_19h53.31.018,MST_test,2024.2.2,60.00470436971664,2025-11-09 19h53.48.735054 +0530,
88,0,88,s,5.4746812999947,None,88,0,88,0,470.1113869999972,,,,,,,,,,,,,,,,,,,,,,,,,,,,,,,,,,,,,,,,,,,,,,,,,,470.09507999999914,470.1113869999972,470.6113483999943,470.5948841000063,470.6057151999994,470.6113483999943,470.6113483999943,470.6113483999943,476.0948858000047,Objects\125b.jpg,post,s,5.4746812999947,None,,,,,,,,00006,001,2025-11-09_19h53.31.018,MST_test,2024.2.2,60.00470436971664,2025-11-09 19h53.48.735054 +0530,
89,0,89,s,11.774520599996322,None,89,0,89,0,476.11140069999965,,,,,,,,,,,,,,,,,,,,,,,,,,,,,,,,,,,,,,,,,,,,,,,,,,476.0949599000014,476.11140069999965,476.62813050000113,476.59488319999946,476.6133009000041,476.62813050000113,476.62813050000113,476.62813050000113,488.4114702999941,Scenes\051b.jpg,mid,s,11.774520599996322,None,,,,,,,,00006,001,2025-11-09_19h53.31.018,MST_test,2024.2.2,60.00470436971664,2025-11-09 19h53.48.735054 +0530,
90,0,90,n,1.6968595000071218,None,90,0,90,0,488.4276480999979,,,,,,,,,,,,,,,,,,,,,,,,,,,,,,,,,,,,,,,,,,,,,,,,,,488.4115480000037,488.4276480999979,488.94431589999294,488.9111530999944,488.92828789999476,488.94431589999294,488.94431589999294,488.94431589999294,490.6446001000004,Objects\050b.jpg,mid,n,1.6968595000071218,None,,,,,,,,00006,001,2025-11-09_19h53.31.018,MST_test,2024.2.2,60.00470436971664,2025-11-09 19h53.48.735054 +0530,
91,0,91,n,0.8934579999913694,None,91,0,91,0,490.66092290000233,,,,,,,,,,,,,,,,,,,,,,,,,,,,,,,,,,,,,,,,,,,,,,,,,,490.6446786000015,490.66092290000233,491.1611586999934,491.14452309999615,491.15012469999783,491.1611586999934,491.1611586999934,491.1611586999934,492.0612279000052,Foils\scenes2.jpg,none,n,0.8934579999913694,None,,,,,,,,00006,001,2025-11-09_19h53.31.018,MST_test,2024.2.2,60.00470436971664,2025-11-09 19h53.48.735054 +0530,
92,0,92,s,1.941503299996839,None,92,0,92,0,492.0775799999974,,,,,,,,,,,,,,,,,,,,,,,,,,,,,,,,,,,,,,,,,,,,,,,,,,492.0613037000003,492.0775799999974,492.594210700001,492.5611312999972,492.57784129999345,492.594210700001,492.594210700001,492.594210700001,494.54475580000144,Objects\108b.jpg,mid,s,1.941503299996839,None,,,,,,,,00006,001,2025-11-09_19h53.31.018,MST_test,2024.2.2,60.00470436971664,2025-11-09 19h53.48.735054 +0530,
93,0,93,n,5.231063800005359,None,93,0,93,0,494.56086060000234,,,,,,,,,,,,,,,,,,,,,,,,,,,,,,,,,,,,,,,,,,,,,,,,,,494.54484439999214,494.56086060000234,495.07769809999445,495.04447100000107,495.0652582000039,495.07769809999445,495.07769809999445,495.07769809999445,500.31117089999316,Scenes\103a.jpg,post,n,5.231063800005359,None,,,,,,,,00006,001,2025-11-09_19h53.31.018,MST_test,2024.2.2,60.00470436971664,2025-11-09 19h53.48.735054 +0530,
94,0,94,o,5.75243120000232,None,94,0,94,0,500.3273981999955,,,,,,,,,,,,,,,,,,,,,,,,,,,,,,,,,,,,,,,,,,,,,,,,,,500.31126960000256,500.3273981999955,500.84406040000613,500.8109969999932,500.83250899999985,500.84406040000613,500.84406040000613,500.84406040000613,506.61097670000163,Scenes\029b.jpg,post,o,5.75243120000232,None,,,,,,,,00006,001,2025-11-09_19h53.31.018,MST_test,2024.2.2,60.00470436971664,2025-11-09 19h53.48.735054 +0530,
95,0,95,s,1.5344259999983478,None,95,0,95,0,506.62726540000585,,,,,,,,,,,,,,,,,,,,,,,,,,,,,,,,,,,,,,,,,,,,,,,,,,506.6110636999947,506.62726540000585,507.16058599999815,507.1109853999951,507.14820209999743,507.16058599999815,507.16058599999815,507.16058599999815,508.7109741000022,Scenes\076b.jpg,pre,s,1.5344259999983478,None,,,,,,,,00006,001,2025-11-09_19h53.31.018,MST_test,2024.2.2,60.00470436971664,2025-11-09 19h53.48.735054 +0530,
96,0,96,s,2.833063600002788,None,96,0,96,0,508.727226300005,,,,,,,,,,,,,,,,,,,,,,,,,,,,,,,,,,,,,,,,,,,,,,,,,,508.71106289999443,508.727226300005,509.2438589999947,509.2108300999971,509.22698910000327,509.2438589999947,509.2438589999947,509.2438589999947,512.0775936999999,Objects\080b.jpg,pre,s,2.833063600002788,None,,,,,,,,00006,001,2025-11-09_19h53.31.018,MST_test,2024.2.2,60.00470436971664,2025-11-09 19h53.48.735054 +0530,
97,0,97,n,1.0467292999965139,None,97,0,97,0,512.093787299993,,,,,,,,,,,,,,,,,,,,,,,,,,,,,,,,,,,,,,,,,,,,,,,,,,512.0776858000027,512.093787299993,512.6104468999984,512.577298499993,512.5940613999992,512.6104468999984,512.6104468999984,512.6104468999984,513.6608598000021,Scenes\177b.jpg,mid,n,1.0467292999965139,None,,,,,,,,00006,001,2025-11-09_19h53.31.018,MST_test,2024.2.2,60.00470436971664,2025-11-09 19h53.48.735054 +0530,
98,0,98,s,4.78301550001197,None,98,0,98,0,513.6771155000024,,,,,,,,,,,,,,,,,,,,,,,,,,,,,,,,,,,,,,,,,,,,,,,,,,513.6609403000039,513.6771155000024,514.1941290999966,514.1606782000017,514.1845374999975,514.1941290999966,514.1941290999966,514.1941290999966,518.9774896000017,Scenes\002b.jpg,mid,s,4.78301550001197,None,,,,,,,,00006,001,2025-11-09_19h53.31.018,MST_test,2024.2.2,60.00470436971664,2025-11-09 19h53.48.735054 +0530,
99,0,99,o,2.9361480999941705,None,99,0,99,0,518.9936768000043,,,,,,,,,,,,,,,,,,,,,,,,,,,,,,,,,,,,,,,,,,,,,,,,,,518.9775729999965,518.9936768000043,519.5105653999926,519.4772929000028,519.4983585000009,519.5105653999926,519.5105653999926,519.5105653999926,522.4605101000052,Objects\112b.jpg,post,o,2.9361480999941705,None,,,,,,,,00006,001,2025-11-09_19h53.31.018,MST_test,2024.2.2,60.00470436971664,2025-11-09 19h53.48.735054 +0530,
100,0,100,s,3.017615199991269,None,100,0,100,0,522.4769318000035,,,,,,,,,,,,,,,,,,,,,,,,,,,,,,,,,,,,,,,,,,,,,,,,,,522.4605913999985,522.4769318000035,522.9935834999924,522.9604139000003,522.9760368999996,522.9935834999924,522.9935834999924,522.9935834999924,526.0271230999933,Objects\011b.jpg,mid,s,3.017615199991269,None,,,,,,,,00006,001,2025-11-09_19h53.31.018,MST_test,2024.2.2,60.00470436971664,2025-11-09 19h53.48.735054 +0530,
101,0,101,n,4.370245199999772,None,101,0,101,0,526.0435477999999,,,,,,,,,,,,,,,,,,,,,,,,,,,,,,,,,,,,,,,,,,,,,,,,,,526.0272138,526.0435477999999,526.5772683999967,526.5270067999954,526.567701699998,526.5772683999967,526.5772683999967,526.5772683999967,530.9604749999999,Scenes\139b.jpg,post,n,4.370245199999772,None,,,,,,,,00006,001,2025-11-09_19h53.31.018,MST_test,2024.2.2,60.00470436971664,2025-11-09 19h53.48.735054 +0530,
102,0,102,o,1.610097400000086,None,102,0,102,0,530.9767602999927,,,,,,,,,,,,,,,,,,,,,,,,,,,,,,,,,,,,,,,,,,,,,,,,,,530.9605532999994,530.9767602999927,531.4767027000053,531.4603606000019,531.4703608999989,531.4767027000053,531.4767027000053,531.4767027000053,533.093710000001,Objects\115a.jpg,post,o,1.610097400000086,None,,,,,,,,00006,001,2025-11-09_19h53.31.018,MST_test,2024.2.2,60.00470436971664,2025-11-09 19h53.48.735054 +0530,
103,0,103,s,7.003601100004744,None,103,0,103,0,533.1100234000041,,,,,,,,,,,,,,,,,,,,,,,,,,,,,,,,,,,,,,,,,,,,,,,,,,533.0937900999998,533.1100234000041,533.6266586999991,533.5935399000009,533.6201775999943,533.6266586999991,533.6266586999991,533.6266586999991,540.6434592000005,Scenes\058b.jpg,pre,s,7.003601100004744,None,,,,,,,,00006,001,2025-11-09_19h53.31.018,MST_test,2024.2.2,60.00470436971664,2025-11-09 19h53.48.735054 +0530,
104,0,104,o,2.246574899996631,None,104,0,104,0,540.6598700000031,,,,,,,,,,,,,,,,,,,,,,,,,,,,,,,,,,,,,,,,,,,,,,,,,,540.6435499999934,540.6598700000031,541.1765279999963,541.1433603000041,541.1620569999941,541.1765279999963,541.1765279999963,541.1765279999963,543.4270858999953,Scenes\116a.jpg,post,o,2.246574899996631,None,,,,,,,,00006,001,2025-11-09_19h53.31.018,MST_test,2024.2.2,60.00470436971664,2025-11-09 19h53.48.735054 +0530,
105,0,105,n,7.405873199997586,None,105,0,105,0,543.4431106999982,,,,,,,,,,,,,,,,,,,,,,,,,,,,,,,,,,,,,,,,,,,,,,,,,,543.4271731000044,543.4431106999982,543.9766464999993,543.9266153000062,543.9662624000048,543.9766464999993,543.9766464999993,543.9766464999993,551.3932484999968,Scenes\047b.jpg,post,n,7.405873199997586,None,,,,,,,,00006,001,2025-11-09_19h53.31.018,MST_test,2024.2.2,60.00470436971664,2025-11-09 19h53.48.735054 +0530,
106,0,106,n,46.49016029998893,None,106,0,106,0,551.4096653000015,,,,,,,,,,,,,,,,,,,,,,,,,,,,,,,,,,,,,,,,,,,,,,,,,,551.3933338999923,551.4096653000015,551.9266230999929,551.8931566999963,551.910632500003,551.9266230999929,551.9266230999929,551.9266230999929,598.4255490999931,Foils\065a.jpg,none,n,46.49016029998893,None,,,,,,,,00006,001,2025-11-09_19h53.31.018,MST_test,2024.2.2,60.00470436971664,2025-11-09 19h53.48.735054 +0530,
107,0,107,n,1.41719049999665,None,107,0,107,0,598.4419596999942,,,,,,,,,,,,,,,,,,,,,,,,,,,,,,,,,,,,,,,,,,,,,,,,,,598.4256326000032,598.4419596999942,598.9419116000063,598.9255482000008,598.9361171000055,598.9419116000063,598.9419116000063,598.9419116000063,600.3756348000024,Foils\002a.jpg,none,n,1.41719049999665,None,,,,,,,,00006,001,2025-11-09_19h53.31.018,MST_test,2024.2.2,60.00470436971664,2025-11-09 19h53.48.735054 +0530,
108,0,108,s,10.799174100000528,None,108,0,108,0,600.3919182999962,,,,,,,,,,,,,,,,,,,,,,,,,,,,,,,,,,,,,,,,,,,,,,,,,,600.3757097000052,600.3919182999962,600.8918659000046,600.8755032000045,600.8853994999954,600.8918659000046,600.8918659000046,600.8918659000046,611.6921659999934,Objects\060a.jpg,post,s,10.799174100000528,None,,,,,,,,00006,001,2025-11-09_19h53.31.018,MST_test,2024.2.2,60.00470436971664,2025-11-09 19h53.48.735054 +0530,
109,0,109,o,10.364364699998987,None,109,0,109,0,611.7084585999983,,,,,,,,,,,,,,,,,,,,,,,,,,,,,,,,,,,,,,,,,,,,,,,,,,611.692257799994,611.7084585999983,612.2083775000065,612.1918990999984,612.2016639999929,612.2083775000065,612.2083775000065,612.2083775000065,622.5750912999938,Objects\032a.jpg,pre,o,10.364364699998987,None,,,,,,,,00006,001,2025-11-09_19h53.31.018,MST_test,2024.2.2,60.00470436971664,2025-11-09 19h53.48.735054 +0530,
110,0,110,o,5.457184099999722,None,110,0,110,0,622.5914327000064,,,,,,,,,,,,,,,,,,,,,,,,,,,,,,,,,,,,,,,,,,,,,,,,,,622.5751672000042,622.5914327000064,623.0914095000044,623.0750055999961,623.0847005999967,623.0914095000044,623.0914095000044,623.0914095000044,628.5583882999927,Objects\185a.jpg,pre,o,5.457184099999722,None,,,,,,,,00006,001,2025-11-09_19h53.31.018,MST_test,2024.2.2,60.00470436971664,2025-11-09 19h53.48.735054 +0530,
111,0,111,n,1.4957211000000825,None,111,0,111,0,628.5746359000041,,,,,,,,,,,,,,,,,,,,,,,,,,,,,,,,,,,,,,,,,,,,,,,,,,628.558477700004,628.5746359000041,629.0745934000006,629.0581048000022,629.0682006999996,629.0745934000006,629.0745934000006,629.0745934000006,630.5749605000019,Foils\020b.jpg,none,n,1.4957211000000825,None,,,,,,,,00006,001,2025-11-09_19h53.31.018,MST_test,2024.2.2,60.00470436971664,2025-11-09 19h53.48.735054 +0530,
112,0,112,n,1.372481800004607,None,112,0,112,0,630.5912589999934,,,,,,,,,,,,,,,,,,,,,,,,,,,,,,,,,,,,,,,,,,,,,,,,,,630.5750374000054,630.5912589999934,631.1245443999942,631.074715900002,631.1133673000004,631.1245443999942,631.1245443999942,631.1245443999942,632.5081674999965,Scenes\162b.jpg,pre,n,1.372481800004607,None,,,,,,,,00006,001,2025-11-09_19h53.31.018,MST_test,2024.2.2,60.00470436971664,2025-11-09 19h53.48.735054 +0530,
113,0,113,o,5.477789800002938,None,113,0,113,0,632.5245503000042,,,,,,,,,,,,,,,,,,,,,,,,,,,,,,,,,,,,,,,,,,,,,,,,,,632.5082470000052,632.5245503000042,633.0245620999922,633.0080460000027,633.0181882000034,633.0245620999922,633.0245620999922,633.0245620999922,638.5081461999944,Objects\028a.jpg,post,o,5.477789800002938,None,,,,,,,,00006,001,2025-11-09_19h53.31.018,MST_test,2024.2.2,60.00470436971664,2025-11-09 19h53.48.735054 +0530,
114,0,114,n,4.236107599994284,None,114,0,114,0,638.5244231999968,,,,,,,,,,,,,,,,,,,,,,,,,,,,,,,,,,,,,,,,,,,,,,,,,,638.5082341999951,638.5244231999968,639.0246921999933,639.0080200999946,639.0140100999997,639.0246921999933,639.0246921999933,639.0246921999933,643.2747240000026,Foils\scenes14.jpg,none,n,4.236107599994284,None,,,,,,,,00006,001,2025-11-09_19h53.31.018,MST_test,2024.2.2,60.00470436971664,2025-11-09 19h53.48.735054 +0530,
115,0,115,s,6.704686099998071,None,115,0,115,0,643.2909820999921,,,,,,,,,,,,,,,,,,,,,,,,,,,,,,,,,,,,,,,,,,,,,,,,,,643.2748131999979,643.2909820999921,643.8079125999939,643.774450500001,643.7947794000065,643.8079125999939,643.8079125999939,643.8079125999939,650.5245643999951,Scenes\085b.jpg,pre,s,6.704686099998071,None,,,,,,,,00006,001,2025-11-09_19h53.31.018,MST_test,2024.2.2,60.00470436971664,2025-11-09 19h53.48.735054 +0530,
116,0,116,s,5.2656130000104895,None,116,0,116,0,650.5408254999929,,,,,,,,,,,,,,,,,,,,,,,,,,,,,,,,,,,,,,,,,,,,,,,,,,650.5246591000032,650.5408254999929,651.0574686000036,651.0242925000057,651.0460415999987,651.0574686000036,651.0574686000036,651.0574686000036,656.3245109999989,Scenes\010b.jpg,post,s,5.2656130000104895,None,,,,,,,,00006,001,2025-11-09_19h53.31.018,MST_test,2024.2.2,60.00470436971664,2025-11-09 19h53.48.735054 +0530,
117,0,117,o,2.4956245999928797,None,117,0,117,0,656.340706300005,,,,,,,,,,,,,,,,,,,,,,,,,,,,,,,,,,,,,,,,,,,,,,,,,,656.3245887999947,656.340706300005,656.8575794000062,656.8241886000033,656.8449161000026,656.8575794000062,656.8575794000062,656.8575794000062,659.3577168000047,Scenes\110a.jpg,post,o,2.4956245999928797,None,,,,,,,,00006,001,2025-11-09_19h53.31.018,MST_test,2024.2.2,60.00470436971664,2025-11-09 19h53.48.735054 +0530,
118,0,118,o,4.049101700002211,None,118,0,118,0,659.3739714999974,,,,,,,,,,,,,,,,,,,,,,,,,,,,,,,,,,,,,,,,,,,,,,,,,,659.3577995999949,659.3739714999974,659.9074817999935,659.8574354000011,659.8869855999947,659.9074817999935,659.9074817999935,659.9074817999935,663.9575474000012,Scenes\087b.jpg,pre,o,4.049101700002211,None,,,,,,,,00006,001,2025-11-09_19h53.31.018,MST_test,2024.2.2,60.00470436971664,2025-11-09 19h53.48.735054 +0530,
119,0,119,o,1.1496053000009852,None,119,0,119,0,663.9739471999928,,,,,,,,,,,,,,,,,,,,,,,,,,,,,,,,,,,,,,,,,,,,,,,,,,663.957636399995,663.9739471999928,664.4747524999984,664.4573763999942,664.4667954000033,664.4747524999984,664.4747524999984,664.4747524999984,665.6408236999996,Objects\068a.jpg,pre,o,1.1496053000009852,None,,,,,,,,00006,001,2025-11-09_19h53.31.018,MST_test,2024.2.2,60.00470436971664,2025-11-09 19h53.48.735054 +0530,
120,0,120,o,0.8653886999964016,None,120,0,120,0,665.6571722999943,,,,,,,,,,,,,,,,,,,,,,,,,,,,,,,,,,,,,,,,,,,,,,,,,,665.6409015999961,665.6571722999943,666.1571389000019,666.1406429000053,666.150389500006,666.1571389000019,666.1571389000019,666.1571389000019,667.0241653999983,Objects\040a.jpg,mid,o,0.8653886999964016,None,,,,,,,,00006,001,2025-11-09_19h53.31.018,MST_test,2024.2.2,60.00470436971664,2025-11-09 19h53.48.735054 +0530,
121,0,121,o,2.8165146999963326,None,121,0,121,0,667.0404428000038,,,,,,,,,,,,,,,,,,,,,,,,,,,,,,,,,,,,,,,,,,,,,,,,,,667.0242493999976,667.0404428000038,667.5568617999961,667.5239541000046,667.5524348000035,667.5568617999961,667.5568617999961,667.5568617999961,670.374043200005,Scenes\025b.jpg,post,o,2.8165146999963326,None,,,,,,,,00006,001,2025-11-09_19h53.31.018,MST_test,2024.2.2,60.00470436971664,2025-11-09 19h53.48.735054 +0530,
122,0,122,n,2.547372400003951,None,122,0,122,0,670.3904331999947,,,,,,,,,,,,,,,,,,,,,,,,,,,,,,,,,,,,,,,,,,,,,,,,,,670.3741193000023,670.3904331999947,670.8903597000026,670.8740052999929,670.8835414999921,670.8903597000026,670.8903597000026,670.8903597000026,673.440763000006,Foils\073a.jpg,none,n,2.547372400003951,None,,,,,,,,00006,001,2025-11-09_19h53.31.018,MST_test,2024.2.2,60.00470436971664,2025-11-09 19h53.48.735054 +0530,
123,0,123,n,1.0793119000009028,None,123,0,123,0,673.4570095999952,,,,,,,,,,,,,,,,,,,,,,,,,,,,,,,,,,,,,,,,,,,,,,,,,,673.4408410000033,673.4570095999952,673.9569602999982,673.9404700000014,673.9504987999971,673.9569602999982,673.9569602999982,673.9569602999982,675.0407278000057,Foils\009a.jpg,none,n,1.0793119000009028,None,,,,,,,,00006,001,2025-11-09_19h53.31.018,MST_test,2024.2.2,60.00470436971664,2025-11-09 19h53.48.735054 +0530,
124,0,124,o,1.7505227000074228,None,124,0,124,0,675.0569498999976,,,,,,,,,,,,,,,,,,,,,,,,,,,,,,,,,,,,,,,,,,,,,,,,,,675.0408160999941,675.0569498999976,675.5569172999967,675.5405256999948,675.5502511999948,675.5569172999967,675.5569172999967,675.5569172999967,677.323911200001,Objects\069a.jpg,pre,o,1.7505227000074228,None,,,,,,,,00006,001,2025-11-09_19h53.31.018,MST_test,2024.2.2,60.00470436971664,2025-11-09 19h53.48.735054 +0530,
125,0,125,s,1.289097100001527,None,125,0,125,0,677.3402550000028,,,,,,,,,,,,,,,,,,,,,,,,,,,,,,,,,,,,,,,,,,,,,,,,,,677.3239854999993,677.3402550000028,677.8572255000036,677.8238018999982,677.8413425000035,677.8572255000036,677.8572255000036,677.8572255000036,679.157206399992,Scenes\140b.jpg,mid,s,1.289097100001527,None,,,,,,,,00006,001,2025-11-09_19h53.31.018,MST_test,2024.2.2,60.00470436971664,2025-11-09 19h53.48.735054 +0530,
126,0,126,n,3.5441016999975545,None,126,0,126,0,679.1735460000054,,,,,,,,,,,,,,,,,,,,,,,,,,,,,,,,,,,,,,,,,,,,,,,,,,679.1572856999992,679.1735460000054,679.6905192999984,679.657083099999,679.6805179999938,679.6905192999984,679.6905192999984,679.6905192999984,683.2405294000055,Scenes\105a.jpg,post,n,3.5441016999975545,None,,,,,,,,00006,001,2025-11-09_19h53.31.018,MST_test,2024.2.2,60.00470436971664,2025-11-09 19h53.48.735054 +0530,
127,0,127,n,1.2675722999993013,None,127,0,127,0,683.2567634000006,,,,,,,,,,,,,,,,,,,,,,,,,,,,,,,,,,,,,,,,,,,,,,,,,,683.2406136999925,683.2567634000006,683.7734547,683.7403755999985,683.7602674999944,683.7734547,683.7734547,683.7734547,685.0571165000001,Scenes\161b.jpg,post,n,1.2675722999993013,None,,,,,,,,00006,001,2025-11-09_19h53.31.018,MST_test,2024.2.2,60.00470436971664,2025-11-09 19h53.48.735054 +0530,
128,0,128,n,1.2640086000028532,None,128,0,128,0,685.0733863999922,,,,,,,,,,,,,,,,,,,,,,,,,,,,,,,,,,,,,,,,,,,,,,,,,,685.0572019999963,685.0733863999922,685.6070602999971,685.5569300000061,685.5907450999948,685.6070602999971,685.6070602999971,685.6070602999971,686.8737181000033,Foils\scenes22.jpg,none,n,1.2640086000028532,None,,,,,,,,00006,001,2025-11-09_19h53.31.018,MST_test,2024.2.2,60.00470436971664,2025-11-09 19h53.48.735054 +0530,
129,0,129,s,2.8826576999999816,None,129,0,129,0,686.8900473999965,,,,,,,,,,,,,,,,,,,,,,,,,,,,,,,,,,,,,,,,,,,,,,,,,,686.873806699994,686.8900473999965,687.4066659999953,687.3735815999971,687.3917224000033,687.4066659999953,687.4066659999953,687.4066659999953,690.290294099992,Scenes\147a.jpg,post,s,2.8826576999999816,None,,,,,,,,00006,001,2025-11-09_19h53.31.018,MST_test,2024.2.2,60.00470436971664,2025-11-09 19h53.48.735054 +0530,
130,0,130,o,4.002644300009706,None,130,0,130,0,690.3066625999927,,,,,,,,,,,,,,,,,,,,,,,,,,,,,,,,,,,,,,,,,,,,,,,,,,690.2903752999991,690.3066625999927,690.8068506999989,690.7901580000034,690.8004739000025,690.8068506999989,690.8068506999989,690.8068506999989,694.8236258999968,Objects\164a.jpg,pre,o,4.002644300009706,None,,,,,,,,00006,001,2025-11-09_19h53.31.018,MST_test,2024.2.2,60.00470436971664,2025-11-09 19h53.48.735054 +0530,
131,0,131,n,0.9312508000002708,None,131,0,131,0,694.8398772999935,,,,,,,,,,,,,,,,,,,,,,,,,,,,,,,,,,,,,,,,,,,,,,,,,,694.8237064999994,694.8398772999935,695.3398292000056,695.3234219000005,695.3335812000005,695.3398292000056,695.3398292000056,695.3398292000056,696.2735080999992,Foils\090a.jpg,none,n,0.9312508000002708,None,,,,,,,,00006,001,2025-11-09_19h53.31.018,MST_test,2024.2.2,60.00470436971664,2025-11-09 19h53.48.735054 +0530,
132,0,132,n,0.9100021999911405,None,132,0,132,0,696.2898037999985,,,,,,,,,,,,,,,,,,,,,,,,,,,,,,,,,,,,,,,,,,,,,,,,,,696.2735905000009,696.2898037999985,696.8228878999944,696.7734856000025,696.8183984000061,696.8228878999944,696.8228878999944,696.8228878999944,697.740201099994,Foils\scenes28.jpg,none,n,0.9100021999911405,None,,,,,,,,00006,001,2025-11-09_19h53.31.018,MST_test,2024.2.2,60.00470436971664,2025-11-09 19h53.48.735054 +0530,
133,0,133,o,2.3769402999896556,None,133,0,133,0,697.7564707999991,,,,,,,,,,,,,,,,,,,,,,,,,,,,,,,,,,,,,,,,,,,,,,,,,,697.7402939000021,697.7564707999991,698.2734065999975,698.2400847999961,698.2587755999994,698.2734065999975,698.2734065999975,698.2734065999975,700.6568202000053,Scenes\124a.jpg,mid,o,2.3769402999896556,None,,,,,,,,00006,001,2025-11-09_19h53.31.018,MST_test,2024.2.2,60.00470436971664,2025-11-09 19h53.48.735054 +0530,
134,0,134,o,2.4637212000088766,None,134,0,134,0,700.6730794000032,,,,,,,,,,,,,,,,,,,,,,,,,,,,,,,,,,,,,,,,,,,,,,,,,,700.6569123999943,700.6730794000032,701.2233465000027,701.1566804000031,701.2111249000009,701.2233465000027,701.2233465000027,701.2233465000027,703.6899574999989,Scenes\065b.jpg,pre,o,2.4637212000088766,None,,,,,,,,00006,001,2025-11-09_19h53.31.018,MST_test,2024.2.2,60.00470436971664,2025-11-09 19h53.48.735054 +0530,
135,0,135,s,1.6277233000000706,None,135,0,135,0,703.7063496000046,,,,,,,,,,,,,,,,,,,,,,,,,,,,,,,,,,,,,,,,,,,,,,,,,,703.6900330000062,703.7063496000046,704.2065968999959,704.1898925999994,704.200307799998,704.2065968999959,704.2065968999959,704.2065968999959,705.8401231000025,Foils\042a.jpg,none,s,1.6277233000000706,None,,,,,,,,00006,001,2025-11-09_19h53.31.018,MST_test,2024.2.2,60.00470436971664,2025-11-09 19h53.48.735054 +0530,
136,0,136,n,1.4504907999944407,None,136,0,136,0,705.8563649999996,,,,,,,,,,,,,,,,,,,,,,,,,,,,,,,,,,,,,,,,,,,,,,,,,,705.8401999000052,705.8563649999996,706.3565945000009,706.3397913999943,706.3519328999973,706.3565945000009,706.3565945000009,706.3565945000009,707.8232080000016,Foils\scenes1.jpg,none,n,1.4504907999944407,None,,,,,,,,00006,001,2025-11-09_19h53.31.018,MST_test,2024.2.2,60.00470436971664,2025-11-09 19h53.48.735054 +0530,
137,0,137,o,4.228032600003644,None,137,0,137,0,707.8396263000031,,,,,,,,,,,,,,,,,,,,,,,,,,,,,,,,,,,,,,,,,,,,,,,,,,707.8232968999946,707.8396263000031,708.3565049000026,708.3231788999983,708.3435859000019,708.3565049000026,708.3565049000026,708.3565049000026,712.5898868999939,Scenes\184b.jpg,pre,o,4.228032600003644,None,,,,,,,,00006,001,2025-11-09_19h53.31.018,MST_test,2024.2.2,60.00470436971664,2025-11-09 19h53.48.735054 +0530,
138,0,138,s,2.967846899991855,None,138,0,138,0,712.6061292999948,,,,,,,,,,,,,,,,,,,,,,,,,,,,,,,,,,,,,,,,,,,,,,,,,,712.5899783999921,712.6061292999948,713.122812200003,713.0896463999961,713.1111999999994,713.122812200003,713.122812200003,713.122812200003,716.106332299998,Scenes\128a.jpg,pre,s,2.967846899991855,None,,,,,,,,00006,001,2025-11-09_19h53.31.018,MST_test,2024.2.2,60.00470436971664,2025-11-09 19h53.48.735054 +0530,
139,0,139,o,2.033824799989816,None,139,0,139,0,716.1227191999933,,,,,,,,,,,,,,,,,,,,,,,,,,,,,,,,,,,,,,,,,,,,,,,,,,716.1064086999977,716.1227191999933,716.6393908000027,716.6062436999928,716.6273905999988,716.6393908000027,716.6393908000027,716.6393908000027,718.6897710000048,Scenes\189a.jpg,pre,o,2.033824799989816,None,,,,,,,,00006,001,2025-11-09_19h53.31.018,MST_test,2024.2.2,60.00470436971664,2025-11-09 19h53.48.735054 +0530,
140,0,140,n,1.002785300006508,None,140,0,140,0,718.7060568000015,,,,,,,,,,,,,,,,,,,,,,,,,,,,,,,,,,,,,,,,,,,,,,,,,,718.6898557999957,718.7060568000015,719.2062756999949,719.1895258000004,719.1953658999992,719.2062756999949,719.2062756999949,719.2062756999949,720.2230286999984,Foils\scenes17.jpg,none,n,1.002785300006508,None,,,,,,,,00006,001,2025-11-09_19h53.31.018,MST_test,2024.2.2,60.00470436971664,2025-11-09 19h53.48.735054 +0530,
141,0,141,o,2.859854800000903,None,141,0,141,0,720.2393160999927,,,,,,,,,,,,,,,,,,,,,,,,,,,,,,,,,,,,,,,,,,,,,,,,,,720.2231141999946,720.2393160999927,720.7394841999921,720.7229069000023,720.7325928000064,720.7394841999921,720.7394841999921,720.7394841999921,723.606260799992,Objects\147a.jpg,pre,o,2.859854800000903,None,,,,,,,,00006,001,2025-11-09_19h53.31.018,MST_test,2024.2.2,60.00470436971664,2025-11-09 19h53.48.735054 +0530,
142,0,142,o,8.361356800000067,None,142,0,142,0,723.6226472999988,,,,,,,,,,,,,,,,,,,,,,,,,,,,,,,,,,,,,,,,,,,,,,,,,,723.6063425000029,723.6226472999988,724.1395854000002,724.1063185999956,724.1338531999936,724.1395854000002,724.1395854000002,724.1395854000002,732.5061331000034,Scenes\031b.jpg,post,o,8.361356800000067,None,,,,,,,,00006,001,2025-11-09_19h53.31.018,MST_test,2024.2.2,60.00470436971664,2025-11-09 19h53.48.735054 +0530,
143,0,143,o,2.046154800002114,None,143,0,143,0,732.5225103999983,,,,,,,,,,,,,,,,,,,,,,,,,,,,,,,,,,,,,,,,,,,,,,,,,,732.506217999995,732.5225103999983,733.0224432999967,733.0061205999955,733.0171029000048,733.0224432999967,733.0224432999967,733.0224432999967,735.0728381999943,Objects\082b.jpg,pre,o,2.046154800002114,None,,,,,,,,00006,001,2025-11-09_19h53.31.018,MST_test,2024.2.2,60.00470436971664,2025-11-09 19h53.48.735054 +0530,
144,0,144,s,3.5927908000012394,None,144,0,144,0,735.0891093999962,,,,,,,,,,,,,,,,,,,,,,,,,,,,,,,,,,,,,,,,,,,,,,,,,,735.0729300999956,735.0891093999962,735.6062111000065,735.5726700999949,735.5924449000013,735.6062111000065,735.6062111000065,735.6062111000065,739.2060131000035,Scenes\123a.jpg,pre,s,3.5927908000012394,None,,,,,,,,00006,001,2025-11-09_19h53.31.018,MST_test,2024.2.2,60.00470436971664,2025-11-09 19h53.48.735054 +0530,
145,0,145,n,3.406951500001014,None,145,0,145,0,739.2224870000064,,,,,,,,,,,,,,,,,,,,,,,,,,,,,,,,,,,,,,,,,,,,,,,,,,739.2061061999993,739.2224870000064,739.7390232000034,739.7060472000012,739.7220445999992,739.7390232000034,739.7390232000034,739.7390232000034,743.1558826999972,Objects\048b.jpg,pre,n,3.406951500001014,None,,,,,,,,00006,001,2025-11-09_19h53.31.018,MST_test,2024.2.2,60.00470436971664,2025-11-09 19h53.48.735054 +0530,
146,0,146,s,1.9582565000018803,None,146,0,146,0,743.1722496000002,,,,,,,,,,,,,,,,,,,,,,,,,,,,,,,,,,,,,,,,,,,,,,,,,,743.1559594999999,743.1722496000002,743.6891065999953,743.655737299996,743.6756788000057,743.6891065999953,743.6891065999953,743.6891065999953,745.6560216999933,Scenes\042b.jpg,post,s,1.9582565000018803,None,,,,,,,,00006,001,2025-11-09_19h53.31.018,MST_test,2024.2.2,60.00470436971664,2025-11-09 19h53.48.735054 +0530,
147,0,147,o,4.469177100007073,None,147,0,147,0,745.6721989999933,,,,,,,,,,,,,,,,,,,,,,,,,,,,,,,,,,,,,,,,,,,,,,,,,,745.6561027999996,745.6721989999933,746.1721636000002,746.155753900006,746.1660707999981,746.1721636000002,746.1721636000002,746.1721636000002,750.6557483999932,Objects\072b.jpg,mid,o,4.469177100007073,None,,,,,,,,00006,001,2025-11-09_19h53.31.018,MST_test,2024.2.2,60.00470436971664,2025-11-09 19h53.48.735054 +0530,
148,0,148,o,3.6623323999956483,None,148,0,148,0,750.6720663000015,,,,,,,,,,,,,,,,,,,,,,,,,,,,,,,,,,,,,,,,,,,,,,,,,,750.6558383999945,750.6720663000015,751.1887836999958,751.1555191999942,751.1770297000039,751.1887836999958,751.1887836999958,751.1887836999958,754.8556020999968,Scenes\024b.jpg,post,o,3.6623323999956483,None,,,,,,,,00006,001,2025-11-09_19h53.31.018,MST_test,2024.2.2,60.00470436971664,2025-11-09 19h53.48.735054 +0530,
149,0,149,o,4.025287700002082,None,149,0,149,0,754.8719703999959,,,,,,,,,,,,,,,,,,,,,,,,,,,,,,,,,,,,,,,,,,,,,,,,,,754.8556787999987,754.8719703999959,755.3719677000045,755.3554645999975,755.3656800000026,755.3719677000045,755.3719677000045,755.3719677000045,759.4055908000009,Objects\024a.jpg,post,o,4.025287700002082,None,,,,,,,,00006,001,2025-11-09_19h53.31.018,MST_test,2024.2.2,60.00470436971664,2025-11-09 19h53.48.735054 +0530,
,,,,,,,,,,,,,,,,,,,,,,,,,,,,,,,,,,,,,,,,,,,,,,,,,,,,,,,,,,,,,,,,,,,,,,,,,,759.4056458999985,759.4219292000053,759.4219292000053,761.488760799999,space,2.060517500009155,None,00006,001,2025-11-09_19h53.31.018,MST_test,2024.2.2,60.00470436971664,2025-11-09 19h53.48.735054 +0530,
