thisN,thisTrialN,thisRepN,key_resp_3.keys,key_resp_3.rt,key_resp_3.duration,trials.thisRepN,trials.thisTrialN,trials.thisN,trials.thisIndex,thisRow.t,notes,intro_page.started,text.started,key_resp.started,intro_page.stopped,key_resp.keys,key_resp.rt,key_resp.duration,instructions.started,text_2.started,key_resp_2.started,instructions.stopped,key_resp_2.keys,key_resp_2.rt,key_resp_2.duration,demo1.started,image_1.started,image_2.started,text_7.started,key_resp_6.started,text_9.started,demo1.stopped,key_resp_6.keys,key_resp_6.rt,key_resp_6.duration,demo2.started,image_5.started,image_6.started,text_11.started,text_12.started,key_resp_8.started,demo2.stopped,key_resp_8.keys,key_resp_8.rt,key_resp_8.duration,demo_conclusion.started,text_13.started,key_resp_9.started,demo_conclusion.stopped,key_resp_9.keys,key_resp_9.rt,key_resp_9.duration,start_test.started,text_6.started,key_resp_5.started,start_test.stopped,key_resp_5.keys,key_resp_5.rt,key_resp_5.duration,ISI.started,text_4.started,text_4.stopped,ISI.stopped,routine_1.started,image.started,text_3.started,key_resp_3.started,routine_1.stopped,image_path,position_of_stimuli,trials.key_resp_3.keys,trials.key_resp_3.rt,trials.key_resp_3.duration,End_page.started,text_5.started,key_resp_4.started,End_page.stopped,key_resp_4.keys,key_resp_4.rt,key_resp_4.duration,participant,session,date,expName,psychopyVersion,frameRate,expStart,
,,,,,,,,,,,,0.018919900000582857,0.03533690000040224,0.03533690000040224,3.053487099999984,space,3.0077667999994446,None,,,,,,,,,,,,,,,,,,,,,,,,,,,,,,,,,,,,,,,,,,,,,,,,,,,,,,,,,,,,,,,00009,001,2025-11-11_06h27.17.578,MST_test,2024.2.2,59.995416350101486,2025-11-11 06h27.22.524080 +0530,
,,,,,,,,,,,,,,,,,,,3.0535137000006216,3.068634700000075,3.068634700000075,10.952022400000715,space,7.874702399999478,None,,,,,,,,,,,,,,,,,,,,,,,,,,,,,,,,,,,,,,,,,,,,,,,,,,,,,,,,00009,001,2025-11-11_06h27.17.578,MST_test,2024.2.2,59.995416350101486,2025-11-11 06h27.22.524080 +0530,
,,,,,,,,,,,,,,,,,,,,,,,,,,10.952045800000633,10.968363700000737,10.968363700000737,10.968363700000737,10.968363700000737,10.968363700000737,16.435131700000056,space,5.451967000000877,None,,,,,,,,,,,,,,,,,,,,,,,,,,,,,,,,,,,,,,,,,,,,,,00009,001,2025-11-11_06h27.17.578,MST_test,2024.2.2,59.995416350101486,2025-11-11 06h27.22.524080 +0530,
,,,,,,,,,,,,,,,,,,,,,,,,,,,,,,,,,,,,16.435155300000588,16.451575800000683,16.451575800000683,16.451575800000683,16.451575800000683,16.451575800000683,20.851740800000698,space,4.392293200000495,None,,,,,,,,,,,,,,,,,,,,,,,,,,,,,,,,,,,,00009,001,2025-11-11_06h27.17.578,MST_test,2024.2.2,59.995416350101486,2025-11-11 06h27.22.524080 +0530,
,,,,,,,,,,,,,,,,,,,,,,,,,,,,,,,,,,,,,,,,,,,,,,20.851762400000553,20.86813979999988,20.86813979999988,35.08486470000025,space,14.212336499999765,None,,,,,,,,,,,,,,,,,,,,,,,,,,,,,00009,001,2025-11-11_06h27.17.578,MST_test,2024.2.2,59.995416350101486,2025-11-11 06h27.22.524080 +0530,
,,,,,,,,,,,,,,,,,,,,,,,,,,,,,,,,,,,,,,,,,,,,,,,,,,,,,35.08488810000017,35.101217200000065,35.101217200000065,83.85036690000015,space,48.7471015000001,None,,,,,,,,,,,,,,,,,,,,,,00009,001,2025-11-11_06h27.17.578,MST_test,2024.2.2,59.995416350101486,2025-11-11 06h27.22.524080 +0530,
0,0,0,o,3.6007676999997784,None,0,0,0,0,83.8666731000003,,,,,,,,,,,,,,,,,,,,,,,,,,,,,,,,,,,,,,,,,,,,,,,,,,83.85328440000012,83.8666731000003,84.38357330000053,84.35027990000071,84.37201280000045,84.38357330000053,84.38357330000053,84.38357330000053,88.00024699999994,Objects\040b.jpg,pre,o,3.6007676999997784,None,,,,,,,,00009,001,2025-11-11_06h27.17.578,MST_test,2024.2.2,59.995416350101486,2025-11-11 06h27.22.524080 +0530,
1,0,1,n,4.422145600000476,None,1,0,1,0,88.01659070000005,,,,,,,,,,,,,,,,,,,,,,,,,,,,,,,,,,,,,,,,,,,,,,,,,,88.00032590000046,88.01659070000005,88.5165465,88.5001299000005,88.50251019999996,88.5165465,88.5165465,88.5165465,92.95006960000046,Objects\045a.jpg,post,n,4.422145600000476,None,,,,,,,,00009,001,2025-11-11_06h27.17.578,MST_test,2024.2.2,59.995416350101486,2025-11-11 06h27.22.524080 +0530,
2,0,2,s,2.6691698999993605,None,2,0,2,0,92.96647780000058,,,,,,,,,,,,,,,,,,,,,,,,,,,,,,,,,,,,,,,,,,,,,,,,,,92.95014560000072,92.96647780000058,93.49994800000059,93.44994120000047,93.48377940000046,93.49994800000059,93.49994800000059,93.49994800000059,96.1834830000007,Scenes\109b.jpg,mid,s,2.6691698999993605,None,,,,,,,,00009,001,2025-11-11_06h27.17.578,MST_test,2024.2.2,59.995416350101486,2025-11-11 06h27.22.524080 +0530,
3,0,3,s,1.7082253999997192,None,3,0,3,0,96.19974170000023,,,,,,,,,,,,,,,,,,,,,,,,,,,,,,,,,,,,,,,,,,,,,,,,,,96.18357060000017,96.19974170000023,96.71635109999988,96.68321070000002,96.70356150000043,96.71635109999988,96.71635109999988,96.71635109999988,98.43329210000047,Foils\066a.jpg,none,s,1.7082253999997192,None,,,,,,,,00009,001,2025-11-11_06h27.17.578,MST_test,2024.2.2,59.995416350101486,2025-11-11 06h27.22.524080 +0530,
4,0,4,n,2.8812567999993917,None,4,0,4,0,98.44968190000054,,,,,,,,,,,,,,,,,,,,,,,,,,,,,,,,,,,,,,,,,,,,,,,,,,98.43337130000054,98.44968190000054,99.08348600000045,98.93315410000014,99.06237710000005,99.08348600000045,99.08348600000045,99.08348600000045,101.96655850000025,Foils\scenes25.jpg,none,n,2.8812567999993917,None,,,,,,,,00009,001,2025-11-11_06h27.17.578,MST_test,2024.2.2,59.995416350101486,2025-11-11 06h27.22.524080 +0530,
5,0,5,n,3.0430937999999514,None,5,0,5,0,101.9830179999999,,,,,,,,,,,,,,,,,,,,,,,,,,,,,,,,,,,,,,,,,,,,,,,,,,101.96664300000066,101.9830179999999,102.49994570000035,102.46647540000049,102.48960350000016,102.49994570000035,102.49994570000035,102.49994570000035,105.54999390000012,Scenes\029a.jpg,pre,n,3.0430937999999514,None,,,,,,,,00009,001,2025-11-11_06h27.17.578,MST_test,2024.2.2,59.995416350101486,2025-11-11 06h27.22.524080 +0530,
6,0,6,n,1.4335773999991943,None,6,0,6,0,105.56619150000006,,,,,,,,,,,,,,,,,,,,,,,,,,,,,,,,,,,,,,,,,,,,,,,,,,105.55007810000006,105.56619150000006,106.08283070000016,106.04977409999992,106.07033820000015,106.08283070000016,106.08283070000016,106.08283070000016,107.53313590000016,Scenes\041a.jpg,post,n,1.4335773999991943,None,,,,,,,,00009,001,2025-11-11_06h27.17.578,MST_test,2024.2.2,59.995416350101486,2025-11-11 06h27.22.524080 +0530,
7,0,7,o,3.1403158000002804,None,7,0,7,0,107.54946590000054,,,,,,,,,,,,,,,,,,,,,,,,,,,,,,,,,,,,,,,,,,,,,,,,,,107.53321180000057,107.54946590000054,108.06612450000011,108.03310310000052,108.0541991,108.06612450000011,108.06612450000011,108.06612450000011,111.21642280000015,Scenes\085a.jpg,mid,o,3.1403158000002804,None,,,,,,,,00009,001,2025-11-11_06h27.17.578,MST_test,2024.2.2,59.995416350101486,2025-11-11 06h27.22.524080 +0530,
8,0,8,o,3.299502699999721,None,8,0,8,0,111.23270899999989,,,,,,,,,,,,,,,,,,,,,,,,,,,,,,,,,,,,,,,,,,,,,,,,,,111.21650940000018,111.23270899999989,111.74959050000052,111.71618510000008,111.73446100000001,111.74959050000052,111.74959050000052,111.74959050000052,115.04961100000037,Scenes\185a.jpg,mid,o,3.299502699999721,None,,,,,,,,00009,001,2025-11-11_06h27.17.578,MST_test,2024.2.2,59.995416350101486,2025-11-11 06h27.22.524080 +0530,
9,0,9,o,1.5508992999994007,None,9,0,9,0,115.06593650000013,,,,,,,,,,,,,,,,,,,,,,,,,,,,,,,,,,,,,,,,,,,,,,,,,,115.04970039999989,115.06593650000013,115.5660781000006,115.54943619999995,115.55960770000002,115.5660781000006,115.5660781000006,115.5660781000006,117.13285950000045,Objects\104a.jpg,pre,o,1.5508992999994007,None,,,,,,,,00009,001,2025-11-11_06h27.17.578,MST_test,2024.2.2,59.995416350101486,2025-11-11 06h27.22.524080 +0530,
10,0,10,o,1.6216559999993478,None,10,0,10,0,117.14924490000067,,,,,,,,,,,,,,,,,,,,,,,,,,,,,,,,,,,,,,,,,,,,,,,,,,117.13293000000067,117.14924490000067,117.69950770000014,117.63271010000062,117.68704980000075,117.69950770000014,117.69950770000014,117.69950770000014,119.33281850000003,Scenes\046b.jpg,pre,o,1.6216559999993478,None,,,,,,,,00009,001,2025-11-11_06h27.17.578,MST_test,2024.2.2,59.995416350101486,2025-11-11 06h27.22.524080 +0530,
11,0,11,o,1.241600400000607,None,11,0,11,0,119.34921860000031,,,,,,,,,,,,,,,,,,,,,,,,,,,,,,,,,,,,,,,,,,,,,,,,,,119.33290490000036,119.34921860000031,119.84915460000047,119.83266090000052,119.84259980000024,119.84915460000047,119.84915460000047,119.84915460000047,121.09956080000029,Objects\153a.jpg,mid,o,1.241600400000607,None,,,,,,,,00009,001,2025-11-11_06h27.17.578,MST_test,2024.2.2,59.995416350101486,2025-11-11 06h27.22.524080 +0530,
12,0,12,o,1.4717994000002363,None,12,0,12,0,121.11582160000034,,,,,,,,,,,,,,,,,,,,,,,,,,,,,,,,,,,,,,,,,,,,,,,,,,121.09964290000062,121.11582160000034,121.63275630000044,121.59946750000017,121.61662060000072,121.63275630000044,121.63275630000044,121.63275630000044,123.11623140000029,Scenes\077a.jpg,mid,o,1.4717994000002363,None,,,,,,,,00009,001,2025-11-11_06h27.17.578,MST_test,2024.2.2,59.995416350101486,2025-11-11 06h27.22.524080 +0530,
13,0,13,s,1.7436804999997548,None,13,0,13,0,123.13250400000015,,,,,,,,,,,,,,,,,,,,,,,,,,,,,,,,,,,,,,,,,,,,,,,,,,123.11631360000047,123.13250400000015,123.64906410000003,123.6160002000006,123.64147360000061,123.64906410000003,123.64906410000003,123.64906410000003,125.39940530000058,Objects\163b.jpg,mid,s,1.7436804999997548,None,,,,,,,,00009,001,2025-11-11_06h27.17.578,MST_test,2024.2.2,59.995416350101486,2025-11-11 06h27.22.524080 +0530,
14,0,14,o,1.7414928999996846,None,14,0,14,0,125.41572600000018,,,,,,,,,,,,,,,,,,,,,,,,,,,,,,,,,,,,,,,,,,,,,,,,,,125.39949140000044,125.41572600000018,125.91567579999992,125.8991687000007,125.90917210000043,125.91567579999992,125.91567579999992,125.91567579999992,127.66588870000032,Objects\069a.jpg,pre,o,1.7414928999996846,None,,,,,,,,00009,001,2025-11-11_06h27.17.578,MST_test,2024.2.2,59.995416350101486,2025-11-11 06h27.22.524080 +0530,
15,0,15,s,1.4405580999991798,None,15,0,15,0,127.68233520000013,,,,,,,,,,,,,,,,,,,,,,,,,,,,,,,,,,,,,,,,,,,,,,,,,,127.66596710000067,127.68233520000013,128.1822886,128.16588990000037,128.1755094,128.1822886,128.1822886,128.1822886,129.63261440000042,Objects\183a.jpg,pre,s,1.4405580999991798,None,,,,,,,,00009,001,2025-11-11_06h27.17.578,MST_test,2024.2.2,59.995416350101486,2025-11-11 06h27.22.524080 +0530,
16,0,16,s,1.5299915999994482,None,16,0,16,0,129.64908540000033,,,,,,,,,,,,,,,,,,,,,,,,,,,,,,,,,,,,,,,,,,,,,,,,,,129.6326839000003,129.64908540000033,130.18227819999993,130.13245780000034,130.16395379999994,130.18227819999993,130.18227819999993,130.18227819999993,131.71597790000033,Foils\098a.jpg,none,s,1.5299915999994482,None,,,,,,,,00009,001,2025-11-11_06h27.17.578,MST_test,2024.2.2,59.995416350101486,2025-11-11 06h27.22.524080 +0530,
17,0,17,s,1.5603173999998035,None,17,0,17,0,131.73228199999994,,,,,,,,,,,,,,,,,,,,,,,,,,,,,,,,,,,,,,,,,,,,,,,,,,131.7160604999999,131.73228199999994,132.24886070000048,132.21568690000004,132.23681190000025,132.24886070000048,132.24886070000048,132.24886070000048,133.81587459999992,Scenes\035a.jpg,post,s,1.5603173999998035,None,,,,,,,,00009,001,2025-11-11_06h27.17.578,MST_test,2024.2.2,59.995416350101486,2025-11-11 06h27.22.524080 +0530,
18,0,18,n,3.765561800000796,None,18,0,18,0,133.83222580000074,,,,,,,,,,,,,,,,,,,,,,,,,,,,,,,,,,,,,,,,,,,,,,,,,,133.81595780000043,133.83222580000074,134.34886570000072,134.31578740000077,134.34304530000009,134.34886570000072,134.34886570000072,134.34886570000072,138.11576349999996,Foils\106a.jpg,none,n,3.765561800000796,None,,,,,,,,00009,001,2025-11-11_06h27.17.578,MST_test,2024.2.2,59.995416350101486,2025-11-11 06h27.22.524080 +0530,
19,0,19,o,2.642801099999815,None,19,0,19,0,138.13206030000038,,,,,,,,,,,,,,,,,,,,,,,,,,,,,,,,,,,,,,,,,,,,,,,,,,138.11583770000016,138.13206030000038,138.64834770000016,138.61552440000014,138.64572279999993,138.64834770000016,138.64834770000016,138.64834770000016,141.2989430000007,Objects\172b.jpg,mid,o,2.642801099999815,None,,,,,,,,00009,001,2025-11-11_06h27.17.578,MST_test,2024.2.2,59.995416350101486,2025-11-11 06h27.22.524080 +0530,
20,0,20,s,2.818745900000067,None,20,0,20,0,141.31535760000043,,,,,,,,,,,,,,,,,,,,,,,,,,,,,,,,,,,,,,,,,,,,,,,,,,141.2990262000003,141.31535760000043,141.83200810000017,141.79883289999998,141.82008029999997,141.83200810000017,141.83200810000017,141.83200810000017,144.66564160000053,Scenes\102a.jpg,pre,s,2.818745900000067,None,,,,,,,,00009,001,2025-11-11_06h27.17.578,MST_test,2024.2.2,59.995416350101486,2025-11-11 06h27.22.524080 +0530,
21,0,21,n,2.076648700000078,None,21,0,21,0,144.68194810000023,,,,,,,,,,,,,,,,,,,,,,,,,,,,,,,,,,,,,,,,,,,,,,,,,,144.66571810000005,144.68194810000023,145.23216130000037,145.16552310000043,145.21459920000052,145.23216130000037,145.23216130000037,145.23216130000037,147.31549790000008,Foils\scenes28.jpg,none,n,2.076648700000078,None,,,,,,,,00009,001,2025-11-11_06h27.17.578,MST_test,2024.2.2,59.995416350101486,2025-11-11 06h27.22.524080 +0530,
22,0,22,s,1.2932921000001443,None,22,0,22,0,147.33185690000028,,,,,,,,,,,,,,,,,,,,,,,,,,,,,,,,,,,,,,,,,,,,,,,,,,147.31557789999988,147.33185690000028,147.8653602000004,147.81535609999992,147.84660820000045,147.8653602000004,147.8653602000004,147.8653602000004,149.16554619999988,Scenes\014b.jpg,post,s,1.2932921000001443,None,,,,,,,,00009,001,2025-11-11_06h27.17.578,MST_test,2024.2.2,59.995416350101486,2025-11-11 06h27.22.524080 +0530,
23,0,23,n,1.2348198999998203,None,23,0,23,0,149.1818105000002,,,,,,,,,,,,,,,,,,,,,,,,,,,,,,,,,,,,,,,,,,,,,,,,,,149.16563000000042,149.1818105000002,149.71535120000044,149.66527150000002,149.70221440000023,149.71535120000044,149.71535120000044,149.71535120000044,150.96539890000076,Foils\065a.jpg,none,n,1.2348198999998203,None,,,,,,,,00009,001,2025-11-11_06h27.17.578,MST_test,2024.2.2,59.995416350101486,2025-11-11 06h27.22.524080 +0530,
24,0,24,n,1.5935858000002554,None,24,0,24,0,150.98176010000043,,,,,,,,,,,,,,,,,,,,,,,,,,,,,,,,,,,,,,,,,,,,,,,,,,150.9654816000002,150.98176010000043,151.4987160999999,151.4652745000003,151.4875774000002,151.4987160999999,151.4987160999999,151.4987160999999,153.09872540000015,Foils\scenes12.jpg,none,n,1.5935858000002554,None,,,,,,,,00009,001,2025-11-11_06h27.17.578,MST_test,2024.2.2,59.995416350101486,2025-11-11 06h27.22.524080 +0530,
25,0,25,s,3.8604747999997926,None,25,0,25,0,153.11507490000076,,,,,,,,,,,,,,,,,,,,,,,,,,,,,,,,,,,,,,,,,,,,,,,,,,153.09882150000067,153.11507490000076,153.6483644,153.5985666000006,153.62911070000064,153.6483644,153.6483644,153.6483644,157.5153889000003,Foils\086a.jpg,none,s,3.8604747999997926,None,,,,,,,,00009,001,2025-11-11_06h27.17.578,MST_test,2024.2.2,59.995416350101486,2025-11-11 06h27.22.524080 +0530,
26,0,26,n,1.7510647999997673,None,26,0,26,0,157.5316545000005,,,,,,,,,,,,,,,,,,,,,,,,,,,,,,,,,,,,,,,,,,,,,,,,,,157.51547030000074,157.5316545000005,158.04827569999998,158.01512739999998,158.04272720000063,158.04827569999998,158.04827569999998,158.04827569999998,159.81519329999992,Foils\scenes1.jpg,none,n,1.7510647999997673,None,,,,,,,,00009,001,2025-11-11_06h27.17.578,MST_test,2024.2.2,59.995416350101486,2025-11-11 06h27.22.524080 +0530,
27,0,27,o,1.71069609999995,None,27,0,27,0,159.83158730000014,,,,,,,,,,,,,,,,,,,,,,,,,,,,,,,,,,,,,,,,,,,,,,,,,,159.8152684000006,159.83158730000014,160.33154270000068,160.31505460000062,160.3244738000003,160.33154270000068,160.33154270000068,160.33154270000068,162.04846980000002,Objects\100a.jpg,pre,o,1.71069609999995,None,,,,,,,,00009,001,2025-11-11_06h27.17.578,MST_test,2024.2.2,59.995416350101486,2025-11-11 06h27.22.524080 +0530,
28,0,28,s,1.290515300000152,None,28,0,28,0,162.06483840000055,,,,,,,,,,,,,,,,,,,,,,,,,,,,,,,,,,,,,,,,,,,,,,,,,,162.0485419000006,162.06483840000055,162.59838630000013,162.5482179999999,162.58931670000038,162.59838630000013,162.59838630000013,162.59838630000013,163.8984405000001,Scenes\164b.jpg,pre,s,1.290515300000152,None,,,,,,,,00009,001,2025-11-11_06h27.17.578,MST_test,2024.2.2,59.995416350101486,2025-11-11 06h27.22.524080 +0530,
29,0,29,s,2.6960590999997294,None,29,0,29,0,163.91489490000004,,,,,,,,,,,,,,,,,,,,,,,,,,,,,,,,,,,,,,,,,,,,,,,,,,163.89851960000033,163.91489490000004,164.44811970000046,164.39831720000075,164.4280079,164.44811970000046,164.44811970000046,164.44811970000046,167.1484199000006,Foils\057a.jpg,none,s,2.6960590999997294,None,,,,,,,,00009,001,2025-11-11_06h27.17.578,MST_test,2024.2.2,59.995416350101486,2025-11-11 06h27.22.524080 +0530,
30,0,30,s,1.1494621000001644,None,30,0,30,0,167.1647937000007,,,,,,,,,,,,,,,,,,,,,,,,,,,,,,,,,,,,,,,,,,,,,,,,,,167.14850090000073,167.1647937000007,167.68137640000077,167.64828800000032,167.67433700000038,167.68137640000077,167.68137640000077,167.68137640000077,168.83167589999994,Objects\171b.jpg,post,s,1.1494621000001644,None,,,,,,,,00009,001,2025-11-11_06h27.17.578,MST_test,2024.2.2,59.995416350101486,2025-11-11 06h27.22.524080 +0530,
31,0,31,s,1.2753457999997408,None,31,0,31,0,168.84802149999996,,,,,,,,,,,,,,,,,,,,,,,,,,,,,,,,,,,,,,,,,,,,,,,,,,168.83175699999993,168.84802149999996,169.38138860000072,169.33154730000024,169.36743960000058,169.38138860000072,169.38138860000072,169.38138860000072,170.66494330000023,Scenes\004b.jpg,pre,s,1.2753457999997408,None,,,,,,,,00009,001,2025-11-11_06h27.17.578,MST_test,2024.2.2,59.995416350101486,2025-11-11 06h27.22.524080 +0530,
32,0,32,s,1.5598633999998128,None,32,0,32,0,170.68130800000017,,,,,,,,,,,,,,,,,,,,,,,,,,,,,,,,,,,,,,,,,,,,,,,,,,170.66501580000022,170.68130800000017,171.21462229999997,171.16478710000047,171.2051867,171.21462229999997,171.21462229999997,171.21462229999997,172.78162940000038,Scenes\101b.jpg,post,s,1.5598633999998128,None,,,,,,,,00009,001,2025-11-11_06h27.17.578,MST_test,2024.2.2,59.995416350101486,2025-11-11 06h27.22.524080 +0530,
33,0,33,n,2.255621600000268,None,33,0,33,0,172.79795920000015,,,,,,,,,,,,,,,,,,,,,,,,,,,,,,,,,,,,,,,,,,,,,,,,,,172.7817141000005,172.79795920000015,173.3145783,173.2814140999999,173.30465980000008,173.3145783,173.3145783,173.3145783,175.58146970000053,Foils\026a.jpg,none,n,2.255621600000268,None,,,,,,,,00009,001,2025-11-11_06h27.17.578,MST_test,2024.2.2,59.995416350101486,2025-11-11 06h27.22.524080 +0530,
34,0,34,s,1.2328889999998864,None,34,0,34,0,175.59789480000018,,,,,,,,,,,,,,,,,,,,,,,,,,,,,,,,,,,,,,,,,,,,,,,,,,175.58154530000047,175.59789480000018,176.0979857000002,176.0814005000002,176.09097090000068,176.0979857000002,176.0979857000002,176.0979857000002,177.33146900000065,Objects\017a.jpg,post,s,1.2328889999998864,None,,,,,,,,00009,001,2025-11-11_06h27.17.578,MST_test,2024.2.2,59.995416350101486,2025-11-11 06h27.22.524080 +0530,
35,0,35,n,1.9800861000003351,None,35,0,35,0,177.34782890000042,,,,,,,,,,,,,,,,,,,,,,,,,,,,,,,,,,,,,,,,,,,,,,,,,,177.3315364,177.34782890000042,177.86451430000034,177.83132269999987,177.85283770000024,177.86451430000034,177.86451430000034,177.86451430000034,179.84808630000043,Objects\009b.jpg,pre,n,1.9800861000003351,None,,,,,,,,00009,001,2025-11-11_06h27.17.578,MST_test,2024.2.2,59.995416350101486,2025-11-11 06h27.22.524080 +0530,
36,0,36,s,1.0250170999997863,None,36,0,36,0,179.8644576000006,,,,,,,,,,,,,,,,,,,,,,,,,,,,,,,,,,,,,,,,,,,,,,,,,,179.8481597,179.8644576000006,180.38108730000022,180.34790630000043,180.3726460000007,180.38108730000022,180.38108730000022,180.38108730000022,181.4146782000007,Objects\024b.jpg,mid,s,1.0250170999997863,None,,,,,,,,00009,001,2025-11-11_06h27.17.578,MST_test,2024.2.2,59.995416350101486,2025-11-11 06h27.22.524080 +0530,
37,0,37,o,2.054939900000136,None,37,0,37,0,181.43109410000034,,,,,,,,,,,,,,,,,,,,,,,,,,,,,,,,,,,,,,,,,,,,,,,,,,181.41474990000006,181.43109410000034,181.94789949999995,181.91455850000057,181.9343942000005,181.94789949999995,181.94789949999995,181.94789949999995,184.01461820000077,Scenes\007a.jpg,mid,o,2.054939900000136,None,,,,,,,,00009,001,2025-11-11_06h27.17.578,MST_test,2024.2.2,59.995416350101486,2025-11-11 06h27.22.524080 +0530,
38,0,38,o,1.2495662000001175,None,38,0,38,0,184.0310330000002,,,,,,,,,,,,,,,,,,,,,,,,,,,,,,,,,,,,,,,,,,,,,,,,,,184.01469989999987,184.0310330000002,184.56461040000067,184.51452700000027,184.54974430000038,184.56461040000067,184.56461040000067,184.56461040000067,185.81476530000054,Scenes\076b.jpg,post,o,1.2495662000001175,None,,,,,,,,00009,001,2025-11-11_06h27.17.578,MST_test,2024.2.2,59.995416350101486,2025-11-11 06h27.22.524080 +0530,
39,0,39,o,0.677310000000034,None,39,0,39,0,185.83105160000014,,,,,,,,,,,,,,,,,,,,,,,,,,,,,,,,,,,,,,,,,,,,,,,,,,185.81484679999994,185.83105160000014,186.33127530000002,186.31448,186.3247406999999,186.33127530000002,186.33127530000002,186.33127530000002,187.01463970000077,Objects\182a.jpg,mid,o,0.677310000000034,None,,,,,,,,00009,001,2025-11-11_06h27.17.578,MST_test,2024.2.2,59.995416350101486,2025-11-11 06h27.22.524080 +0530,
40,0,40,s,1.5692974000003233,None,40,0,40,0,187.0309625,,,,,,,,,,,,,,,,,,,,,,,,,,,,,,,,,,,,,,,,,,,,,,,,,,187.01470880000034,187.0309625,187.5475892000004,187.51443650000056,187.5358408000002,187.5475892000004,187.5475892000004,187.5475892000004,189.13117560000046,Foils\020b.jpg,none,s,1.5692974000003233,None,,,,,,,,00009,001,2025-11-11_06h27.17.578,MST_test,2024.2.2,59.995416350101486,2025-11-11 06h27.22.524080 +0530,
41,0,41,o,1.0047059999997145,None,41,0,41,0,189.14755740000055,,,,,,,,,,,,,,,,,,,,,,,,,,,,,,,,,,,,,,,,,,,,,,,,,,189.13124860000062,189.14755740000055,189.6642184000002,189.63100920000034,189.6522975000007,189.6642184000002,189.6642184000002,189.6642184000002,190.68124870000065,Scenes\094a.jpg,pre,o,1.0047059999997145,None,,,,,,,,00009,001,2025-11-11_06h27.17.578,MST_test,2024.2.2,59.995416350101486,2025-11-11 06h27.22.524080 +0530,
42,0,42,o,1.4593224000000191,None,42,0,42,0,190.69767219999994,,,,,,,,,,,,,,,,,,,,,,,,,,,,,,,,,,,,,,,,,,,,,,,,,,190.68132539999988,190.69767219999994,191.2308305000006,191.18100630000026,191.21334360000037,191.2308305000006,191.2308305000006,191.2308305000006,192.69778980000046,Objects\125b.jpg,pre,o,1.4593224000000191,None,,,,,,,,00009,001,2025-11-11_06h27.17.578,MST_test,2024.2.2,59.995416350101486,2025-11-11 06h27.22.524080 +0530,
43,0,43,s,0.9915565999999671,None,43,0,43,0,192.71415290000004,,,,,,,,,,,,,,,,,,,,,,,,,,,,,,,,,,,,,,,,,,,,,,,,,,192.6978611000004,192.71415290000004,193.24745650000023,193.19768170000043,193.23857100000077,193.24745650000023,193.24745650000023,193.24745650000023,194.24783939999998,Objects\092b.jpg,pre,s,0.9915565999999671,None,,,,,,,,00009,001,2025-11-11_06h27.17.578,MST_test,2024.2.2,59.995416350101486,2025-11-11 06h27.22.524080 +0530,
44,0,44,n,1.5233632999998008,None,44,0,44,0,194.2641346999999,,,,,,,,,,,,,,,,,,,,,,,,,,,,,,,,,,,,,,,,,,,,,,,,,,194.2479213000006,194.2641346999999,194.7974520000007,194.7475897000004,194.7852573,194.7974520000007,194.7974520000007,194.7974520000007,196.33111890000055,Scenes\159b.jpg,pre,n,1.5233632999998008,None,,,,,,,,00009,001,2025-11-11_06h27.17.578,MST_test,2024.2.2,59.995416350101486,2025-11-11 06h27.22.524080 +0530,
45,0,45,n,2.2300869999999122,None,45,0,45,0,196.3474444000003,,,,,,,,,,,,,,,,,,,,,,,,,,,,,,,,,,,,,,,,,,,,,,,,,,196.33120060000056,196.3474444000003,196.86404660000062,196.83094710000023,196.84915810000075,196.86404660000062,196.86404660000062,196.86404660000062,199.09774890000062,Foils\042a.jpg,none,n,2.2300869999999122,None,,,,,,,,00009,001,2025-11-11_06h27.17.578,MST_test,2024.2.2,59.995416350101486,2025-11-11 06h27.22.524080 +0530,
46,0,46,n,1.01969199999985,None,46,0,46,0,199.11401100000057,,,,,,,,,,,,,,,,,,,,,,,,,,,,,,,,,,,,,,,,,,,,,,,,,,199.09784130000025,199.11401100000057,199.6139831999999,199.59768059999988,199.60932670000057,199.6139831999999,199.6139831999999,199.6139831999999,200.6476317000006,Objects\133a.jpg,pre,n,1.01969199999985,None,,,,,,,,00009,001,2025-11-11_06h27.17.578,MST_test,2024.2.2,59.995416350101486,2025-11-11 06h27.22.524080 +0530,
47,0,47,o,1.3163187000000107,None,47,0,47,0,200.6639877000007,,,,,,,,,,,,,,,,,,,,,,,,,,,,,,,,,,,,,,,,,,,,,,,,,,200.64771440000004,200.6639877000007,201.16399750000073,201.1474328000004,201.15708770000037,201.16399750000073,201.16399750000073,201.16399750000073,202.48090279999997,Objects\142a.jpg,mid,o,1.3163187000000107,None,,,,,,,,00009,001,2025-11-11_06h27.17.578,MST_test,2024.2.2,59.995416350101486,2025-11-11 06h27.22.524080 +0530,
48,0,48,s,5.221718499999952,None,48,0,48,0,202.49727630000052,,,,,,,,,,,,,,,,,,,,,,,,,,,,,,,,,,,,,,,,,,,,,,,,,,202.48098600000048,202.49727630000052,203.0138925000001,202.98086930000045,203.00381199999993,203.0138925000001,203.0138925000001,203.0138925000001,208.2474241,Objects\185b.jpg,mid,s,5.221718499999952,None,,,,,,,,00009,001,2025-11-11_06h27.17.578,MST_test,2024.2.2,59.995416350101486,2025-11-11 06h27.22.524080 +0530,
49,0,49,n,4.490742200000568,None,49,0,49,0,208.26377300000058,,,,,,,,,,,,,,,,,,,,,,,,,,,,,,,,,,,,,,,,,,,,,,,,,,208.2475146000006,208.26377300000058,208.79711880000013,208.74738100000013,208.78140059999987,208.79711880000013,208.79711880000013,208.79711880000013,213.29729970000062,Scenes\083b.jpg,mid,n,4.490742200000568,None,,,,,,,,00009,001,2025-11-11_06h27.17.578,MST_test,2024.2.2,59.995416350101486,2025-11-11 06h27.22.524080 +0530,
50,0,50,o,1.5266979999996693,None,50,0,50,0,213.3136858000007,,,,,,,,,,,,,,,,,,,,,,,,,,,,,,,,,,,,,,,,,,,,,,,,,,213.29738799999996,213.3136858000007,213.81364080000003,213.79727970000022,213.80730270000004,213.81364080000003,213.81364080000003,213.81364080000003,215.34723340000073,Objects\188a.jpg,pre,o,1.5266979999996693,None,,,,,,,,00009,001,2025-11-11_06h27.17.578,MST_test,2024.2.2,59.995416350101486,2025-11-11 06h27.22.524080 +0530,
51,0,51,o,0.8607986999995774,None,51,0,51,0,215.3636462000004,,,,,,,,,,,,,,,,,,,,,,,,,,,,,,,,,,,,,,,,,,,,,,,,,,215.34731460000057,215.3636462000004,215.86362660000032,215.84707180000078,215.85718830000042,215.86362660000032,215.86362660000032,215.86362660000032,216.73055290000048,Objects\018a.jpg,post,o,0.8607986999995774,None,,,,,,,,00009,001,2025-11-11_06h27.17.578,MST_test,2024.2.2,59.995416350101486,2025-11-11 06h27.22.524080 +0530,
52,0,52,s,1.590951799999857,None,52,0,52,0,216.74691080000048,,,,,,,,,,,,,,,,,,,,,,,,,,,,,,,,,,,,,,,,,,,,,,,,,,216.73062200000004,216.74691080000048,,217.2305881000002,217.25791850000041,217.26355870000043,217.26355870000043,217.26355870000043,218.8639645000003,Objects\065b.jpg,mid,s,1.590951799999857,None,,,,,,,,00009,001,2025-11-11_06h27.17.578,MST_test,2024.2.2,59.995416350101486,2025-11-11 06h27.22.524080 +0530,
53,0,53,s,2.8192354000002524,None,53,0,53,0,218.8802583000006,,,,,,,,,,,,,,,,,,,,,,,,,,,,,,,,,,,,,,,,,,,,,,,,,,218.86404760000005,218.8802583000006,219.3968789999999,219.36371469999995,219.37945370000034,219.3968789999999,219.3968789999999,219.3968789999999,222.23054800000045,Objects\041b.jpg,mid,s,2.8192354000002524,None,,,,,,,,00009,001,2025-11-11_06h27.17.578,MST_test,2024.2.2,59.995416350101486,2025-11-11 06h27.22.524080 +0530,
54,0,54,o,1.0934144000002561,None,54,0,54,0,222.24688510000033,,,,,,,,,,,,,,,,,,,,,,,,,,,,,,,,,,,,,,,,,,,,,,,,,,222.2306410000001,222.24688510000033,222.7467768000006,222.73026050000044,222.74018610000076,222.7467768000006,222.7467768000006,222.7467768000006,223.84714440000062,Objects\177a.jpg,mid,o,1.0934144000002561,None,,,,,,,,00009,001,2025-11-11_06h27.17.578,MST_test,2024.2.2,59.995416350101486,2025-11-11 06h27.22.524080 +0530,
55,0,55,s,1.5614089999999123,None,55,0,55,0,223.86341290000018,,,,,,,,,,,,,,,,,,,,,,,,,,,,,,,,,,,,,,,,,,,,,,,,,,223.8472195000004,223.86341290000018,224.39676930000041,224.34692730000006,224.37702900000022,224.39676930000041,224.39676930000041,224.39676930000041,225.96375650000027,Objects\189b.jpg,post,s,1.5614089999999123,None,,,,,,,,00009,001,2025-11-11_06h27.17.578,MST_test,2024.2.2,59.995416350101486,2025-11-11 06h27.22.524080 +0530,
56,0,56,s,1.323964999999589,None,56,0,56,0,225.98006130000067,,,,,,,,,,,,,,,,,,,,,,,,,,,,,,,,,,,,,,,,,,,,,,,,,,225.96382500000072,225.98006130000067,226.49673410000014,226.46353790000012,226.48785570000018,226.49673410000014,226.49673410000014,226.49673410000014,227.8302474000002,Objects\033b.jpg,post,s,1.323964999999589,None,,,,,,,,00009,001,2025-11-11_06h27.17.578,MST_test,2024.2.2,59.995416350101486,2025-11-11 06h27.22.524080 +0530,
57,0,57,s,2.386929500000406,None,57,0,57,0,227.8466945,,,,,,,,,,,,,,,,,,,,,,,,,,,,,,,,,,,,,,,,,,,,,,,,,,227.83031670000037,227.8466945,228.37997470000028,228.33015380000052,228.36000070000046,228.37997470000028,228.37997470000028,228.37997470000028,230.7801610000006,Foils\002a.jpg,none,s,2.386929500000406,None,,,,,,,,00009,001,2025-11-11_06h27.17.578,MST_test,2024.2.2,59.995416350101486,2025-11-11 06h27.22.524080 +0530,
58,0,58,n,2.072723500000393,None,58,0,58,0,230.7966210000004,,,,,,,,,,,,,,,,,,,,,,,,,,,,,,,,,,,,,,,,,,,,,,,,,,230.78023680000024,230.7966210000004,231.32978290000028,231.28012200000012,231.32639110000036,231.32978290000028,231.32978290000028,231.32978290000028,233.41350020000027,Foils\010a.jpg,none,n,2.072723500000393,None,,,,,,,,00009,001,2025-11-11_06h27.17.578,MST_test,2024.2.2,59.995416350101486,2025-11-11 06h27.22.524080 +0530,
59,0,59,o,2.28426380000019,None,59,0,59,0,233.42986560000008,,,,,,,,,,,,,,,,,,,,,,,,,,,,,,,,,,,,,,,,,,,,,,,,,,233.41357680000056,233.42986560000008,233.94654770000034,233.91340029999992,233.93615200000022,233.94654770000034,233.94654770000034,233.94654770000034,236.2468886000006,Scenes\084a.jpg,post,o,2.28426380000019,None,,,,,,,,00009,001,2025-11-11_06h27.17.578,MST_test,2024.2.2,59.995416350101486,2025-11-11 06h27.22.524080 +0530,
60,0,60,o,2.1072638999994524,None,60,0,60,0,236.26316300000053,,,,,,,,,,,,,,,,,,,,,,,,,,,,,,,,,,,,,,,,,,,,,,,,,,236.2469742000003,236.26316300000053,236.81348620000063,236.7466140000006,236.7957675000007,236.81348620000063,236.81348620000063,236.81348620000063,238.93008989999998,Scenes\026b.jpg,post,o,2.1072638999994524,None,,,,,,,,00009,001,2025-11-11_06h27.17.578,MST_test,2024.2.2,59.995416350101486,2025-11-11 06h27.22.524080 +0530,
61,0,61,s,1.8768910999997388,None,61,0,61,0,238.9464164000001,,,,,,,,,,,,,,,,,,,,,,,,,,,,,,,,,,,,,,,,,,,,,,,,,,238.9301701000004,238.9464164000001,239.46337889999995,239.42986760000076,239.4533062999999,239.46337889999995,239.46337889999995,239.46337889999995,241.34670470000037,Objects\148b.jpg,post,s,1.8768910999997388,None,,,,,,,,00009,001,2025-11-11_06h27.17.578,MST_test,2024.2.2,59.995416350101486,2025-11-11 06h27.22.524080 +0530,
62,0,62,s,6.314735899999505,None,62,0,62,0,241.36306250000052,,,,,,,,,,,,,,,,,,,,,,,,,,,,,,,,,,,,,,,,,,,,,,,,,,241.34678260000055,241.36306250000052,241.8799536000006,241.84666620000007,241.8657404000005,241.8799536000006,241.8799536000006,241.8799536000006,248.19648850000067,Foils\scenes8.jpg,none,s,6.314735899999505,None,,,,,,,,00009,001,2025-11-11_06h27.17.578,MST_test,2024.2.2,59.995416350101486,2025-11-11 06h27.22.524080 +0530,
63,0,63,s,4.136633699999948,None,63,0,63,0,248.2129085000006,,,,,,,,,,,,,,,,,,,,,,,,,,,,,,,,,,,,,,,,,,,,,,,,,,248.19657630000074,248.2129085000006,248.7297776000005,248.69631890000073,248.71972910000022,248.7297776000005,248.7297776000005,248.7297776000005,252.8797168000001,Scenes\119a.jpg,mid,s,4.136633699999948,None,,,,,,,,00009,001,2025-11-11_06h27.17.578,MST_test,2024.2.2,59.995416350101486,2025-11-11 06h27.22.524080 +0530,
64,0,64,n,1.3102703999993537,None,64,0,64,0,252.89610930000072,,,,,,,,,,,,,,,,,,,,,,,,,,,,,,,,,,,,,,,,,,,,,,,,,,252.8797985000001,252.89610930000072,253.4127627000007,253.3796465000005,253.3989285000007,253.4127627000007,253.4127627000007,253.4127627000007,254.72965420000037,Scenes\131a.jpg,pre,n,1.3102703999993537,None,,,,,,,,00009,001,2025-11-11_06h27.17.578,MST_test,2024.2.2,59.995416350101486,2025-11-11 06h27.22.524080 +0530,
65,0,65,s,1.9067255999998451,None,65,0,65,0,254.7460340000007,,,,,,,,,,,,,,,,,,,,,,,,,,,,,,,,,,,,,,,,,,,,,,,,,,254.72973860000002,254.7460340000007,255.2793586000007,255.2295847000005,255.2678134000007,255.2793586000007,255.2793586000007,255.2793586000007,257.1962759000007,Scenes\171b.jpg,post,s,1.9067255999998451,None,,,,,,,,00009,001,2025-11-11_06h27.17.578,MST_test,2024.2.2,59.995416350101486,2025-11-11 06h27.22.524080 +0530,
66,0,66,o,1.5876553999996759,None,66,0,66,0,257.21263960000033,,,,,,,,,,,,,,,,,,,,,,,,,,,,,,,,,,,,,,,,,,,,,,,,,,257.19636059999993,257.21263960000033,257.7126257,257.6961433000006,257.7062145,257.7126257,257.7126257,257.7126257,259.3129736000001,Objects\191a.jpg,pre,o,1.5876553999996759,None,,,,,,,,00009,001,2025-11-11_06h27.17.578,MST_test,2024.2.2,59.995416350101486,2025-11-11 06h27.22.524080 +0530,
67,0,67,n,1.9294128999999884,None,67,0,67,0,259.3292955000006,,,,,,,,,,,,,,,,,,,,,,,,,,,,,,,,,,,,,,,,,,,,,,,,,,259.31305539999994,259.3292955000006,259.8629019,259.8127420999999,259.8534135,259.8629019,259.8629019,259.8629019,261.7962846999999,Scenes\045b.jpg,mid,n,1.9294128999999884,None,,,,,,,,00009,001,2025-11-11_06h27.17.578,MST_test,2024.2.2,59.995416350101486,2025-11-11 06h27.22.524080 +0530,
68,0,68,n,2.5372275999998237,None,68,0,68,0,261.8125393,,,,,,,,,,,,,,,,,,,,,,,,,,,,,,,,,,,,,,,,,,,,,,,,,,261.79636759999994,261.8125393,262.32942530000037,262.29602890000024,262.31171970000014,262.32942530000037,262.32942530000037,262.32942530000037,264.87956790000044,Foils\scenes2.jpg,none,n,2.5372275999998237,None,,,,,,,,00009,001,2025-11-11_06h27.17.578,MST_test,2024.2.2,59.995416350101486,2025-11-11 06h27.22.524080 +0530,
69,0,69,o,2.184692800000448,None,69,0,69,0,264.8958332000002,,,,,,,,,,,,,,,,,,,,,,,,,,,,,,,,,,,,,,,,,,,,,,,,,,264.87966060000053,264.8958332000002,265.3959622000002,265.3793020000003,265.38905370000066,265.3959622000002,265.3959622000002,265.3959622000002,267.5960229000002,Objects\103a.jpg,mid,o,2.184692800000448,None,,,,,,,,00009,001,2025-11-11_06h27.17.578,MST_test,2024.2.2,59.995416350101486,2025-11-11 06h27.22.524080 +0530,
70,0,70,s,1.6365003999999317,None,70,0,70,0,267.6122862000002,,,,,,,,,,,,,,,,,,,,,,,,,,,,,,,,,,,,,,,,,,,,,,,,,,267.59609830000045,267.6122862000002,268.1624296,268.09607490000053,268.1213645000007,268.1624296,268.1624296,268.1624296,269.81262590000006,Objects\031b.jpg,post,s,1.6365003999999317,None,,,,,,,,00009,001,2025-11-11_06h27.17.578,MST_test,2024.2.2,59.995416350101486,2025-11-11 06h27.22.524080 +0530,
71,0,71,o,1.213582100000167,None,71,0,71,0,269.8290520999999,,,,,,,,,,,,,,,,,,,,,,,,,,,,,,,,,,,,,,,,,,,,,,,,,,269.8126994000004,269.8290520999999,270.3290014000004,270.3125092999999,270.3228501000003,270.3290014000004,270.3290014000004,270.3290014000004,271.54598460000034,Objects\081a.jpg,pre,o,1.213582100000167,None,,,,,,,,00009,001,2025-11-11_06h27.17.578,MST_test,2024.2.2,59.995416350101486,2025-11-11 06h27.22.524080 +0530,
72,0,72,s,2.5475334000002476,None,72,0,72,0,271.5623470999999,,,,,,,,,,,,,,,,,,,,,,,,,,,,,,,,,,,,,,,,,,,,,,,,,,271.5460645000003,271.5623470999999,272.07902020000074,272.0458163000003,272.07231219999994,272.07902020000074,272.07902020000074,272.07902020000074,274.62929350000013,Objects\025b.jpg,mid,s,2.5475334000002476,None,,,,,,,,00009,001,2025-11-11_06h27.17.578,MST_test,2024.2.2,59.995416350101486,2025-11-11 06h27.22.524080 +0530,
73,0,73,n,2.6760887000000366,None,73,0,73,0,274.64557930000046,,,,,,,,,,,,,,,,,,,,,,,,,,,,,,,,,,,,,,,,,,,,,,,,,,274.6293746000001,274.64557930000046,275.1622812000005,275.12904620000063,275.1525005000003,275.1622812000005,275.1622812000005,275.1622812000005,277.8459588000005,Objects\122b.jpg,post,n,2.6760887000000366,None,,,,,,,,00009,001,2025-11-11_06h27.17.578,MST_test,2024.2.2,59.995416350101486,2025-11-11 06h27.22.524080 +0530,
74,0,74,o,1.5284937999995236,None,74,0,74,0,277.8621989000003,,,,,,,,,,,,,,,,,,,,,,,,,,,,,,,,,,,,,,,,,,,,,,,,,,277.84604650000074,277.8621989000003,278.36214629999995,278.3457046000003,278.35557270000027,278.36214629999995,278.36214629999995,278.36214629999995,279.89578280000023,Objects\049a.jpg,mid,o,1.5284937999995236,None,,,,,,,,00009,001,2025-11-11_06h27.17.578,MST_test,2024.2.2,59.995416350101486,2025-11-11 06h27.22.524080 +0530,
75,0,75,s,1.1635392999996839,None,75,0,75,0,279.9121249,,,,,,,,,,,,,,,,,,,,,,,,,,,,,,,,,,,,,,,,,,,,,,,,,,279.89585720000014,279.9121249,280.5955354000007,280.3956504000007,280.5866653000003,280.5955354000007,280.5955354000007,280.5955354000007,281.7625142000006,Objects\029b.jpg,pre,s,1.1635392999996839,None,,,,,,,,00009,001,2025-11-11_06h27.17.578,MST_test,2024.2.2,59.995416350101486,2025-11-11 06h27.22.524080 +0530,
76,0,76,n,1.5927599999995437,None,76,0,76,0,281.7788588000003,,,,,,,,,,,,,,,,,,,,,,,,,,,,,,,,,,,,,,,,,,,,,,,,,,281.76259650000065,281.7788588000003,282.3123886000003,282.26252420000037,282.2963520000003,282.3123886000003,282.3123886000003,282.3123886000003,283.9125625000006,Scenes\122b.jpg,pre,n,1.5927599999995437,None,,,,,,,,00009,001,2025-11-11_06h27.17.578,MST_test,2024.2.2,59.995416350101486,2025-11-11 06h27.22.524080 +0530,
77,0,77,n,2.44094320000022,None,77,0,77,0,283.92883990000064,,,,,,,,,,,,,,,,,,,,,,,,,,,,,,,,,,,,,,,,,,,,,,,,,,283.91264970000066,283.92883990000064,284.4454682000005,284.41235770000003,284.4310834000007,284.4454682000005,284.4454682000005,284.4454682000005,286.8957108000004,Scenes\050a.jpg,post,n,2.44094320000022,None,,,,,,,,00009,001,2025-11-11_06h27.17.578,MST_test,2024.2.2,59.995416350101486,2025-11-11 06h27.22.524080 +0530,
78,0,78,s,1.2895286999992095,None,78,0,78,0,286.91207340000074,,,,,,,,,,,,,,,,,,,,,,,,,,,,,,,,,,,,,,,,,,,,,,,,,,286.8957850000006,286.91207340000074,287.44542960000035,287.39556510000057,287.42615000000023,287.44542960000035,287.44542960000035,287.44542960000035,288.74583560000065,Objects\192b.jpg,post,s,1.2895286999992095,None,,,,,,,,00009,001,2025-11-11_06h27.17.578,MST_test,2024.2.2,59.995416350101486,2025-11-11 06h27.22.524080 +0530,
79,0,79,s,2.7222680000004402,None,79,0,79,0,288.76200360000075,,,,,,,,,,,,,,,,,,,,,,,,,,,,,,,,,,,,,,,,,,,,,,,,,,288.7459140000001,288.76200360000075,289.2786087000004,289.2456294000003,289.2745519,289.2786087000004,289.2786087000004,289.2786087000004,292.0122093,Foils\034a.jpg,none,s,2.7222680000004402,None,,,,,,,,00009,001,2025-11-11_06h27.17.578,MST_test,2024.2.2,59.995416350101486,2025-11-11 06h27.22.524080 +0530,
80,0,80,n,0.9159202999999252,None,80,0,80,0,292.02866859999995,,,,,,,,,,,,,,,,,,,,,,,,,,,,,,,,,,,,,,,,,,,,,,,,,,292.01228270000047,292.02866859999995,292.5789805000004,292.5120579000004,292.56458720000046,292.5789805000004,292.5789805000004,292.5789805000004,293.49548290000075,Scenes\088b.jpg,mid,n,0.9159202999999252,None,,,,,,,,00009,001,2025-11-11_06h27.17.578,MST_test,2024.2.2,59.995416350101486,2025-11-11 06h27.22.524080 +0530,
81,0,81,n,1.077877300000182,None,81,0,81,0,293.5119164000007,,,,,,,,,,,,,,,,,,,,,,,,,,,,,,,,,,,,,,,,,,,,,,,,,,293.49555280000004,293.5119164000007,294.02875889999996,293.99531000000025,294.01821090000067,294.02875889999996,294.02875889999996,294.02875889999996,295.1122552000006,Foils\scenes3.jpg,none,n,1.077877300000182,None,,,,,,,,00009,001,2025-11-11_06h27.17.578,MST_test,2024.2.2,59.995416350101486,2025-11-11 06h27.22.524080 +0530,
82,0,82,n,1.0563005000003614,None,82,0,82,0,295.1286327000007,,,,,,,,,,,,,,,,,,,,,,,,,,,,,,,,,,,,,,,,,,,,,,,,,,295.11232520000067,295.1286327000007,295.6620561,295.61203230000046,295.64170020000074,295.6620561,295.6620561,295.6620561,296.7287495999999,Foils\121a.jpg,none,n,1.0563005000003614,None,,,,,,,,00009,001,2025-11-11_06h27.17.578,MST_test,2024.2.2,59.995416350101486,2025-11-11 06h27.22.524080 +0530,
83,0,83,o,2.7121389000003546,None,83,0,83,0,296.74521260000074,,,,,,,,,,,,,,,,,,,,,,,,,,,,,,,,,,,,,,,,,,,,,,,,,,296.72882389999995,296.74521260000074,297.26207969999996,297.2287868000003,297.24988870000016,297.26207969999996,297.26207969999996,297.26207969999996,299.9786773000005,Scenes\170a.jpg,mid,o,2.7121389000003546,None,,,,,,,,00009,001,2025-11-11_06h27.17.578,MST_test,2024.2.2,59.995416350101486,2025-11-11 06h27.22.524080 +0530,
84,0,84,o,2.9194216000005326,None,84,0,84,0,299.99514910000016,,,,,,,,,,,,,,,,,,,,,,,,,,,,,,,,,,,,,,,,,,,,,,,,,,299.9787532,299.99514910000016,300.51173350000045,300.47872390000066,300.49690270000065,300.51173350000045,300.51173350000045,300.51173350000045,303.44542120000006,Scenes\044a.jpg,mid,o,2.9194216000005326,None,,,,,,,,00009,001,2025-11-11_06h27.17.578,MST_test,2024.2.2,59.995416350101486,2025-11-11 06h27.22.524080 +0530,
85,0,85,n,2.3603966000000582,None,85,0,85,0,303.46172509999997,,,,,,,,,,,,,,,,,,,,,,,,,,,,,,,,,,,,,,,,,,,,,,,,,,303.4455022000002,303.46172509999997,303.9783262000001,303.9453099000002,303.96691230000033,303.9783262000001,303.9783262000001,303.9783262000001,306.34520580000026,Objects\038b.jpg,post,n,2.3603966000000582,None,,,,,,,,00009,001,2025-11-11_06h27.17.578,MST_test,2024.2.2,59.995416350101486,2025-11-11 06h27.22.524080 +0530,
86,0,86,o,0.9676021999994191,None,86,0,86,0,306.3616615000001,,,,,,,,,,,,,,,,,,,,,,,,,,,,,,,,,,,,,,,,,,,,,,,,,,306.3452766999999,306.3616615000001,306.8784688000005,306.84518000000025,306.87149620000037,306.8784688000005,306.8784688000005,306.8784688000005,307.86196440000003,Scenes\020a.jpg,post,o,0.9676021999994191,None,,,,,,,,00009,001,2025-11-11_06h27.17.578,MST_test,2024.2.2,59.995416350101486,2025-11-11 06h27.22.524080 +0530,
87,0,87,n,1.3731602000007115,None,87,0,87,0,307.87826080000013,,,,,,,,,,,,,,,,,,,,,,,,,,,,,,,,,,,,,,,,,,,,,,,,,,307.8620369,307.87826080000013,308.39509160000034,308.36183640000036,308.3792667000007,308.39509160000034,308.39509160000034,308.39509160000034,309.77860280000004,Scenes\051a.jpg,post,n,1.3731602000007115,None,,,,,,,,00009,001,2025-11-11_06h27.17.578,MST_test,2024.2.2,59.995416350101486,2025-11-11 06h27.22.524080 +0530,
88,0,88,o,0.9563520000001517,None,88,0,88,0,309.7948538999999,,,,,,,,,,,,,,,,,,,,,,,,,,,,,,,,,,,,,,,,,,,,,,,,,,309.77868430000035,309.7948538999999,310.3283879999999,310.2784775,310.3180428000005,310.3283879999999,310.3283879999999,310.3283879999999,311.29507580000063,Scenes\017b.jpg,pre,o,0.9563520000001517,None,,,,,,,,00009,001,2025-11-11_06h27.17.578,MST_test,2024.2.2,59.995416350101486,2025-11-11 06h27.22.524080 +0530,
89,0,89,n,1.0577251000004253,None,89,0,89,0,311.31154830000014,,,,,,,,,,,,,,,,,,,,,,,,,,,,,,,,,,,,,,,,,,,,,,,,,,311.2951514000006,311.31154830000014,311.82845180000004,311.79492759999994,311.8183031000008,311.82845180000004,311.82845180000004,311.82845180000004,312.8952908000001,Scenes\068a.jpg,post,n,1.0577251000004253,None,,,,,,,,00009,001,2025-11-11_06h27.17.578,MST_test,2024.2.2,59.995416350101486,2025-11-11 06h27.22.524080 +0530,
90,0,90,s,1.5495762000000468,None,90,0,90,0,312.91144410000015,,,,,,,,,,,,,,,,,,,,,,,,,,,,,,,,,,,,,,,,,,,,,,,,,,312.8953605000006,312.91144410000015,313.4450839000001,313.3950319000005,313.4368322,313.4450839000001,313.4450839000001,313.4450839000001,314.9951688000001,Scenes\067b.jpg,pre,s,1.5495762000000468,None,,,,,,,,00009,001,2025-11-11_06h27.17.578,MST_test,2024.2.2,59.995416350101486,2025-11-11 06h27.22.524080 +0530,
91,0,91,o,1.505327799999577,None,91,0,91,0,315.0114011000005,,,,,,,,,,,,,,,,,,,,,,,,,,,,,,,,,,,,,,,,,,,,,,,,,,314.99525130000075,315.0114011000005,315.51160660000005,315.49498889999995,315.5048729,315.51160660000005,315.51160660000005,315.51160660000005,317.02829610000026,Objects\055a.jpg,mid,o,1.505327799999577,None,,,,,,,,00009,001,2025-11-11_06h27.17.578,MST_test,2024.2.2,59.995416350101486,2025-11-11 06h27.22.524080 +0530,
92,0,92,o,1.092270500000268,None,92,0,92,0,317.04474560000017,,,,,,,,,,,,,,,,,,,,,,,,,,,,,,,,,,,,,,,,,,,,,,,,,,317.0283642000004,317.04474560000017,317.5782896999999,317.52831810000043,317.5673523000005,317.5782896999999,317.5782896999999,317.5782896999999,318.6783759,Scenes\021b.jpg,post,o,1.092270500000268,None,,,,,,,,00009,001,2025-11-11_06h27.17.578,MST_test,2024.2.2,59.995416350101486,2025-11-11 06h27.22.524080 +0530,
93,0,93,o,0.9363578000002235,None,93,0,93,0,318.6946760999999,,,,,,,,,,,,,,,,,,,,,,,,,,,,,,,,,,,,,,,,,,,,,,,,,,318.67845990000023,318.6946760999999,319.19463560000077,319.1782798000004,319.1894912000007,319.19463560000077,319.19463560000077,319.19463560000077,320.1450153000005,Objects\114a.jpg,pre,o,0.9363578000002235,None,,,,,,,,00009,001,2025-11-11_06h27.17.578,MST_test,2024.2.2,59.995416350101486,2025-11-11 06h27.22.524080 +0530,
94,0,94,o,3.8329949999997552,None,94,0,94,0,320.16133230000014,,,,,,,,,,,,,,,,,,,,,,,,,,,,,,,,,,,,,,,,,,,,,,,,,,320.14508380000007,320.16133230000014,320.67793040000015,320.6449169000007,320.66563550000046,320.67793040000015,320.67793040000015,320.67793040000015,324.5114271000002,Scenes\062a.jpg,mid,o,3.8329949999997552,None,,,,,,,,00009,001,2025-11-11_06h27.17.578,MST_test,2024.2.2,59.995416350101486,2025-11-11 06h27.22.524080 +0530,
95,0,95,n,0.7720802000003459,None,95,0,95,0,324.52775230000043,,,,,,,,,,,,,,,,,,,,,,,,,,,,,,,,,,,,,,,,,,,,,,,,,,324.5115110000006,324.52775230000043,325.0444041999999,325.01122510000005,325.0298885000002,325.0444041999999,325.0444041999999,325.0444041999999,325.82816679999996,Scenes\138a.jpg,post,n,0.7720802000003459,None,,,,,,,,00009,001,2025-11-11_06h27.17.578,MST_test,2024.2.2,59.995416350101486,2025-11-11 06h27.22.524080 +0530,
96,0,96,n,1.5933039999999892,None,96,0,96,0,325.8444207000002,,,,,,,,,,,,,,,,,,,,,,,,,,,,,,,,,,,,,,,,,,,,,,,,,,325.82823330000065,325.8444207000002,326.36130720000074,326.3278971,326.3532421,326.36130720000074,326.36130720000074,326.36130720000074,327.96142360000067,Foils\scenes13.jpg,none,n,1.5933039999999892,None,,,,,,,,00009,001,2025-11-11_06h27.17.578,MST_test,2024.2.2,59.995416350101486,2025-11-11 06h27.22.524080 +0530,
97,0,97,s,1.0659832000001188,None,97,0,97,0,327.9777124000002,,,,,,,,,,,,,,,,,,,,,,,,,,,,,,,,,,,,,,,,,,,,,,,,,,327.9615020000001,327.9777124000002,328.4945222000006,328.4611743000005,328.48039700000027,328.4945222000006,328.4945222000006,328.4945222000006,329.56140830000004,Scenes\079a.jpg,post,s,1.0659832000001188,None,,,,,,,,00009,001,2025-11-11_06h27.17.578,MST_test,2024.2.2,59.995416350101486,2025-11-11 06h27.22.524080 +0530,
98,0,98,n,1.1865735000001223,None,98,0,98,0,329.57765910000035,,,,,,,,,,,,,,,,,,,,,,,,,,,,,,,,,,,,,,,,,,,,,,,,,,329.5614796,329.57765910000035,330.0945300000003,330.06113650000043,330.0777016000002,330.0945300000003,330.0945300000003,330.0945300000003,331.2945305000003,Foils\073a.jpg,none,n,1.1865735000001223,None,,,,,,,,00009,001,2025-11-11_06h27.17.578,MST_test,2024.2.2,59.995416350101486,2025-11-11 06h27.22.524080 +0530,
99,0,99,o,1.2746041999998852,None,99,0,99,0,331.31096830000024,,,,,,,,,,,,,,,,,,,,,,,,,,,,,,,,,,,,,,,,,,,,,,,,,,331.29460070000005,331.31096830000024,331.8278278000007,331.79454200000055,331.80867730000045,331.8278278000007,331.8278278000007,331.8278278000007,333.11117020000074,Scenes\036a.jpg,mid,o,1.2746041999998852,None,,,,,,,,00009,001,2025-11-11_06h27.17.578,MST_test,2024.2.2,59.995416350101486,2025-11-11 06h27.22.524080 +0530,
100,0,100,n,1.8718313999997918,None,100,0,100,0,333.1275602000005,,,,,,,,,,,,,,,,,,,,,,,,,,,,,,,,,,,,,,,,,,,,,,,,,,333.1112412000002,333.1275602000005,333.64423760000045,333.6111890000002,333.6344816000001,333.64423760000045,333.64423760000045,333.64423760000045,335.52806280000004,Foils\009a.jpg,none,n,1.8718313999997918,None,,,,,,,,00009,001,2025-11-11_06h27.17.578,MST_test,2024.2.2,59.995416350101486,2025-11-11 06h27.22.524080 +0530,
101,0,101,o,1.532351199999539,None,101,0,101,0,335.5441589000002,,,,,,,,,,,,,,,,,,,,,,,,,,,,,,,,,,,,,,,,,,,,,,,,,,335.5281451000001,335.5441589000002,336.0441430999999,336.0276317000007,336.0374314999999,336.0441430999999,336.0441430999999,336.0441430999999,337.57777410000017,Objects\067a.jpg,mid,o,1.532351199999539,None,,,,,,,,00009,001,2025-11-11_06h27.17.578,MST_test,2024.2.2,59.995416350101486,2025-11-11 06h27.22.524080 +0530,
102,0,102,n,3.1225433000008707,None,102,0,102,0,337.5941517000001,,,,,,,,,,,,,,,,,,,,,,,,,,,,,,,,,,,,,,,,,,,,,,,,,,337.5778471000003,337.5941517000001,338.1443485,338.0777367999999,338.1302744000004,338.1443485,338.1443485,338.1443485,341.2778078000001,Scenes\025b.jpg,mid,n,3.1225433000008707,None,,,,,,,,00009,001,2025-11-11_06h27.17.578,MST_test,2024.2.2,59.995416350101486,2025-11-11 06h27.22.524080 +0530,
103,0,103,n,1.390420499999891,None,103,0,103,0,341.2947991000001,,,,,,,,,,,,,,,,,,,,,,,,,,,,,,,,,,,,,,,,,,,,,,,,,,341.2778973000004,341.2947991000001,341.7940201000001,341.7775330000004,341.78709810000055,341.7940201000001,341.7940201000001,341.7940201000001,343.1942665000006,Objects\165a.jpg,post,n,1.390420499999891,None,,,,,,,,00009,001,2025-11-11_06h27.17.578,MST_test,2024.2.2,59.995416350101486,2025-11-11 06h27.22.524080 +0530,
104,0,104,o,2.4177094000006036,None,104,0,104,0,343.2106952000004,,,,,,,,,,,,,,,,,,,,,,,,,,,,,,,,,,,,,,,,,,,,,,,,,,343.19433710000067,343.2106952000004,343.7442622000008,343.6943234999999,343.7312090000005,343.7442622000008,343.7442622000008,343.7442622000008,346.17750780000006,Scenes\123b.jpg,pre,o,2.4177094000006036,None,,,,,,,,00009,001,2025-11-11_06h27.17.578,MST_test,2024.2.2,59.995416350101486,2025-11-11 06h27.22.524080 +0530,
105,0,105,s,5.229896400000143,None,105,0,105,0,346.1939273000007,,,,,,,,,,,,,,,,,,,,,,,,,,,,,,,,,,,,,,,,,,,,,,,,,,346.17758370000047,346.1939273000007,346.71057610000025,346.67737970000053,346.70020100000056,346.71057610000025,346.71057610000025,346.71057610000025,351.9441517000005,Objects\006b.jpg,mid,s,5.229896400000143,None,,,,,,,,00009,001,2025-11-11_06h27.17.578,MST_test,2024.2.2,59.995416350101486,2025-11-11 06h27.22.524080 +0530,
106,0,106,o,1.7634482000003118,None,106,0,106,0,351.9604723000002,,,,,,,,,,,,,,,,,,,,,,,,,,,,,,,,,,,,,,,,,,,,,,,,,,351.94424210000034,351.9604723000002,352.4606386000005,352.4439720999999,352.4503007000003,352.4606386000005,352.4606386000005,352.4606386000005,354.2273829000005,Scenes\053a.jpg,pre,o,1.7634482000003118,None,,,,,,,,00009,001,2025-11-11_06h27.17.578,MST_test,2024.2.2,59.995416350101486,2025-11-11 06h27.22.524080 +0530,
107,0,107,o,2.668547600000238,None,107,0,107,0,354.2437933000001,,,,,,,,,,,,,,,,,,,,,,,,,,,,,,,,,,,,,,,,,,,,,,,,,,354.2274593000002,354.2437933000001,354.74372630000016,354.7272202000004,354.7366572000001,354.74372630000016,354.74372630000016,354.74372630000016,357.42739900000015,Objects\075a.jpg,post,o,2.668547600000238,None,,,,,,,,00009,001,2025-11-11_06h27.17.578,MST_test,2024.2.2,59.995416350101486,2025-11-11 06h27.22.524080 +0530,
108,0,108,s,1.4488498000000618,None,108,0,108,0,357.44369240000015,,,,,,,,,,,,,,,,,,,,,,,,,,,,,,,,,,,,,,,,,,,,,,,,,,357.4274770000002,357.44369240000015,357.97718690000056,357.9271730999999,357.96444900000006,357.97718690000056,357.97718690000056,357.97718690000056,359.42736539999987,Scenes\037b.jpg,mid,s,1.4488498000000618,None,,,,,,,,00009,001,2025-11-11_06h27.17.578,MST_test,2024.2.2,59.995416350101486,2025-11-11 06h27.22.524080 +0530,
109,0,109,o,1.1063762000003408,None,109,0,109,0,359.44368639999993,,,,,,,,,,,,,,,,,,,,,,,,,,,,,,,,,,,,,,,,,,,,,,,,,,359.4274473000005,359.44368639999993,359.9603351000005,359.9271454,359.9485198000002,359.9603351000005,359.9603351000005,359.9603351000005,361.0772194000001,Scenes\149a.jpg,post,o,1.1063762000003408,None,,,,,,,,00009,001,2025-11-11_06h27.17.578,MST_test,2024.2.2,59.995416350101486,2025-11-11 06h27.22.524080 +0530,
110,0,110,n,1.0938789000001634,None,110,0,110,0,361.0936087,,,,,,,,,,,,,,,,,,,,,,,,,,,,,,,,,,,,,,,,,,,,,,,,,,361.07730470000024,361.0936087,361.6102399000001,361.5770624000006,361.59783810000044,361.6102399000001,361.6102399000001,361.6102399000001,362.7106704000007,Scenes\074a.jpg,mid,n,1.0938789000001634,None,,,,,,,,00009,001,2025-11-11_06h27.17.578,MST_test,2024.2.2,59.995416350101486,2025-11-11 06h27.22.524080 +0530,
111,0,111,o,1.221408500000507,None,111,0,111,0,362.7269154000005,,,,,,,,,,,,,,,,,,,,,,,,,,,,,,,,,,,,,,,,,,,,,,,,,,362.7107566000004,362.7269154000005,363.2293358000006,363.21047700000054,363.2208663000001,363.2293358000006,363.2293358000006,363.2293358000006,364.4604982999999,Objects\178a.jpg,mid,o,1.221408500000507,None,,,,,,,,00009,001,2025-11-11_06h27.17.578,MST_test,2024.2.2,59.995416350101486,2025-11-11 06h27.22.524080 +0530,
112,0,112,n,0.8011943000001338,None,112,0,112,0,364.4768425000002,,,,,,,,,,,,,,,,,,,,,,,,,,,,,,,,,,,,,,,,,,,,,,,,,,364.46057800000017,364.4768425000002,364.99349340000026,364.9603732000005,364.9771982000002,364.99349340000026,364.99349340000026,364.99349340000026,365.8106456000005,Scenes\111a.jpg,pre,n,0.8011943000001338,None,,,,,,,,00009,001,2025-11-11_06h27.17.578,MST_test,2024.2.2,59.995416350101486,2025-11-11 06h27.22.524080 +0530,
113,0,113,o,1.0590102000005572,None,113,0,113,0,365.8268295000007,,,,,,,,,,,,,,,,,,,,,,,,,,,,,,,,,,,,,,,,,,,,,,,,,,365.81072760000006,365.8268295000007,366.3436777000006,366.3103191,366.33882750000066,366.3436777000006,366.3436777000006,366.3436777000006,367.4104253000005,Scenes\009a.jpg,post,o,1.0590102000005572,None,,,,,,,,00009,001,2025-11-11_06h27.17.578,MST_test,2024.2.2,59.995416350101486,2025-11-11 06h27.22.524080 +0530,
114,0,114,n,3.6477938999996695,None,114,0,114,0,367.42679769999995,,,,,,,,,,,,,,,,,,,,,,,,,,,,,,,,,,,,,,,,,,,,,,,,,,367.4105075000007,367.42679769999995,367.94372400000066,367.9104575000001,367.92721789999996,367.94372400000066,367.94372400000066,367.94372400000066,371.59362039999996,Scenes\186a.jpg,pre,n,3.6477938999996695,None,,,,,,,,00009,001,2025-11-11_06h27.17.578,MST_test,2024.2.2,59.995416350101486,2025-11-11 06h27.22.524080 +0530,
115,0,115,n,1.1619369000000006,None,115,0,115,0,371.61003470000014,,,,,,,,,,,,,,,,,,,,,,,,,,,,,,,,,,,,,,,,,,,,,,,,,,371.5936978,371.61003470000014,372.1767129,372.0934694000007,372.16036950000034,372.1767129,372.1767129,372.1767129,373.3436345,Foils\scenes15.jpg,none,n,1.1619369000000006,None,,,,,,,,00009,001,2025-11-11_06h27.17.578,MST_test,2024.2.2,59.995416350101486,2025-11-11 06h27.22.524080 +0530,
116,0,116,s,2.9101356000001033,None,116,0,116,0,373.35999080000056,,,,,,,,,,,,,,,,,,,,,,,,,,,,,,,,,,,,,,,,,,,,,,,,,,373.3437068000003,373.35999080000056,373.9102197000002,373.8434633000006,373.8906127,373.9102197000002,373.9102197000002,373.9102197000002,376.8268372000002,Foils\scenes27.jpg,none,s,2.9101356000001033,None,,,,,,,,00009,001,2025-11-11_06h27.17.578,MST_test,2024.2.2,59.995416350101486,2025-11-11 06h27.22.524080 +0530,
117,0,117,n,0.8625191000000996,None,117,0,117,0,376.8433087000003,,,,,,,,,,,,,,,,,,,,,,,,,,,,,,,,,,,,,,,,,,,,,,,,,,376.82691330000034,376.8433087000003,377.36012180000034,377.3267682000005,377.3524299999999,377.36012180000034,377.36012180000034,377.36012180000034,378.22703189999993,Objects\112b.jpg,pre,n,0.8625191000000996,None,,,,,,,,00009,001,2025-11-11_06h27.17.578,MST_test,2024.2.2,59.995416350101486,2025-11-11 06h27.22.524080 +0530,
118,0,118,s,1.4415367000001424,None,118,0,118,0,378.2432826000004,,,,,,,,,,,,,,,,,,,,,,,,,,,,,,,,,,,,,,,,,,,,,,,,,,378.2271090000004,378.2432826000004,378.7765263000001,378.7266414000005,378.7567187000004,378.7765263000001,378.7765263000001,378.7765263000001,380.2267829000002,Objects\170b.jpg,post,s,1.4415367000001424,None,,,,,,,,00009,001,2025-11-11_06h27.17.578,MST_test,2024.2.2,59.995416350101486,2025-11-11 06h27.22.524080 +0530,
119,0,119,s,1.3182364000003872,None,119,0,119,0,380.2431581000001,,,,,,,,,,,,,,,,,,,,,,,,,,,,,,,,,,,,,,,,,,,,,,,,,,380.22685920000004,380.2431581000001,380.7597867000004,380.7266573000006,380.75164920000043,380.7597867000004,380.7597867000004,380.7597867000004,382.0935104,Objects\107b.jpg,post,s,1.3182364000003872,None,,,,,,,,00009,001,2025-11-11_06h27.17.578,MST_test,2024.2.2,59.995416350101486,2025-11-11 06h27.22.524080 +0530,
120,0,120,n,1.0769095000005109,None,120,0,120,0,382.1097649000003,,,,,,,,,,,,,,,,,,,,,,,,,,,,,,,,,,,,,,,,,,,,,,,,,,382.0935847999999,382.1097649000003,382.6097427000004,382.5932751,382.6035548,382.6097427000004,382.6097427000004,382.6097427000004,383.6934871000003,Objects\102a.jpg,pre,n,1.0769095000005109,None,,,,,,,,00009,001,2025-11-11_06h27.17.578,MST_test,2024.2.2,59.995416350101486,2025-11-11 06h27.22.524080 +0530,
121,0,121,n,0.9253440000002229,None,121,0,121,0,383.7097235000001,,,,,,,,,,,,,,,,,,,,,,,,,,,,,,,,,,,,,,,,,,,,,,,,,,383.6935607000005,383.7097235000001,384.22654710000006,384.19323350000013,384.2125455000005,384.22654710000006,384.22654710000006,384.22654710000006,385.1600352000005,Foils\scenes20.jpg,none,n,0.9253440000002229,None,,,,,,,,00009,001,2025-11-11_06h27.17.578,MST_test,2024.2.2,59.995416350101486,2025-11-11 06h27.22.524080 +0530,
122,0,122,n,1.7142984000001888,None,122,0,122,0,385.1763879,,,,,,,,,,,,,,,,,,,,,,,,,,,,,,,,,,,,,,,,,,,,,,,,,,385.16010540000025,385.1763879,385.6763424999999,385.65996950000044,385.66943100000026,385.6763424999999,385.6763424999999,385.6763424999999,387.3932850000001,Objects\076a.jpg,post,n,1.7142984000001888,None,,,,,,,,00009,001,2025-11-11_06h27.17.578,MST_test,2024.2.2,59.995416350101486,2025-11-11 06h27.22.524080 +0530,
123,0,123,s,2.740469600000324,None,123,0,123,0,387.40964040000017,,,,,,,,,,,,,,,,,,,,,,,,,,,,,,,,,,,,,,,,,,,,,,,,,,387.39335870000014,387.40964040000017,387.9262883000001,387.8931429000004,387.9186150000005,387.9262883000001,387.9262883000001,387.9262883000001,390.6764995000003,Objects\176b.jpg,post,s,2.740469600000324,None,,,,,,,,00009,001,2025-11-11_06h27.17.578,MST_test,2024.2.2,59.995416350101486,2025-11-11 06h27.22.524080 +0530,
124,0,124,s,1.1729998000000705,None,124,0,124,0,390.6929404000002,,,,,,,,,,,,,,,,,,,,,,,,,,,,,,,,,,,,,,,,,,,,,,,,,,390.67657190000045,390.6929404000002,391.1928791999999,391.1763686000004,391.1857319999999,391.1928791999999,391.1928791999999,391.1928791999999,392.3765491000004,Objects\155a.jpg,post,s,1.1729998000000705,None,,,,,,,,00009,001,2025-11-11_06h27.17.578,MST_test,2024.2.2,59.995416350101486,2025-11-11 06h27.22.524080 +0530,
125,0,125,n,0.9425752000006469,None,125,0,125,0,392.3928855000004,,,,,,,,,,,,,,,,,,,,,,,,,,,,,,,,,,,,,,,,,,,,,,,,,,392.37661860000026,392.3928855000004,392.92627059999995,392.87632329999997,392.9172543000004,392.92627059999995,392.92627059999995,392.92627059999995,393.87646610000047,Foils\scenes4.jpg,none,n,0.9425752000006469,None,,,,,,,,00009,001,2025-11-11_06h27.17.578,MST_test,2024.2.2,59.995416350101486,2025-11-11 06h27.22.524080 +0530,
126,0,126,n,2.0938349999996717,None,126,0,126,0,393.8928644000007,,,,,,,,,,,,,,,,,,,,,,,,,,,,,,,,,,,,,,,,,,,,,,,,,,393.87653390000014,393.8928644000007,394.40946650000024,394.37629860000015,394.4025728000006,394.40946650000024,394.40946650000024,394.40946650000024,396.5097910000004,Objects\064b.jpg,mid,n,2.0938349999996717,None,,,,,,,,00009,001,2025-11-11_06h27.17.578,MST_test,2024.2.2,59.995416350101486,2025-11-11 06h27.22.524080 +0530,
127,0,127,s,1.191948699999557,None,127,0,127,0,396.52608670000063,,,,,,,,,,,,,,,,,,,,,,,,,,,,,,,,,,,,,,,,,,,,,,,,,,396.50986600000033,396.52608670000063,397.0427460000001,397.009626,397.0383470000006,397.0427460000001,397.0427460000001,397.0427460000001,398.24329730000045,Objects\108b.jpg,pre,s,1.191948699999557,None,,,,,,,,00009,001,2025-11-11_06h27.17.578,MST_test,2024.2.2,59.995416350101486,2025-11-11 06h27.22.524080 +0530,
128,0,128,n,2.6517783999997846,None,128,0,128,0,398.25938360000055,,,,,,,,,,,,,,,,,,,,,,,,,,,,,,,,,,,,,,,,,,,,,,,,,,398.2433793,398.25938360000055,398.7929615000003,398.7429043000002,398.77291220000006,398.7929615000003,398.7929615000003,398.7929615000003,401.45956060000026,Scenes\139b.jpg,mid,n,2.6517783999997846,None,,,,,,,,00009,001,2025-11-11_06h27.17.578,MST_test,2024.2.2,59.995416350101486,2025-11-11 06h27.22.524080 +0530,
129,0,129,n,2.2091976000001523,None,129,0,129,0,401.4760019000005,,,,,,,,,,,,,,,,,,,,,,,,,,,,,,,,,,,,,,,,,,,,,,,,,,401.4596371000007,401.4760019000005,402.0093360999999,401.9594814000002,401.99207970000043,402.0093360999999,402.0093360999999,402.0093360999999,404.22628820000045,Scenes\091b.jpg,mid,n,2.2091976000001523,None,,,,,,,,00009,001,2025-11-11_06h27.17.578,MST_test,2024.2.2,59.995416350101486,2025-11-11 06h27.22.524080 +0530,
130,0,130,s,2.263615099999697,None,130,0,130,0,404.24257770000077,,,,,,,,,,,,,,,,,,,,,,,,,,,,,,,,,,,,,,,,,,,,,,,,,,404.22636950000015,404.24257770000077,404.7763147000005,404.72620050000023,404.77045570000064,404.7763147000005,404.7763147000005,404.7763147000005,407.04276070000014,Scenes\100b.jpg,mid,s,2.263615099999697,None,,,,,,,,00009,001,2025-11-11_06h27.17.578,MST_test,2024.2.2,59.995416350101486,2025-11-11 06h27.22.524080 +0530,
131,0,131,o,1.184672800000044,None,131,0,131,0,407.0592198000004,,,,,,,,,,,,,,,,,,,,,,,,,,,,,,,,,,,,,,,,,,,,,,,,,,407.0428316000007,407.0592198000004,407.57583780000004,407.5427825000006,407.5628867000005,407.57583780000004,407.57583780000004,407.57583780000004,408.77627440000015,Scenes\028a.jpg,post,o,1.184672800000044,None,,,,,,,,00009,001,2025-11-11_06h27.17.578,MST_test,2024.2.2,59.995416350101486,2025-11-11 06h27.22.524080 +0530,
132,0,132,s,3.118429600000127,None,132,0,132,0,408.79251100000056,,,,,,,,,,,,,,,,,,,,,,,,,,,,,,,,,,,,,,,,,,,,,,,,,,408.77635960000043,408.79251100000056,409.32605520000016,409.27598260000013,409.3055916000003,409.32605520000016,409.32605520000016,409.32605520000016,412.4593050000003,Objects\036b.jpg,pre,s,3.118429600000127,None,,,,,,,,00009,001,2025-11-11_06h27.17.578,MST_test,2024.2.2,59.995416350101486,2025-11-11 06h27.22.524080 +0530,
133,0,133,n,0.96681290000015,None,133,0,133,0,412.47576130000016,,,,,,,,,,,,,,,,,,,,,,,,,,,,,,,,,,,,,,,,,,,,,,,,,,412.45937700000013,412.47576130000016,412.9757432000006,412.9591752000006,412.9685376000007,412.9757432000006,412.9757432000006,412.9757432000006,413.94284940000034,Objects\106a.jpg,pre,n,0.96681290000015,None,,,,,,,,00009,001,2025-11-11_06h27.17.578,MST_test,2024.2.2,59.995416350101486,2025-11-11 06h27.22.524080 +0530,
134,0,134,n,1.2827203999995618,None,134,0,134,0,413.95903670000007,,,,,,,,,,,,,,,,,,,,,,,,,,,,,,,,,,,,,,,,,,,,,,,,,,413.9429175000005,413.95903670000007,414.5092024000005,414.44264060000023,414.4997774000003,414.5092024000005,414.5092024000005,414.5092024000005,415.7927152000002,Foils\scenes22.jpg,none,n,1.2827203999995618,None,,,,,,,,00009,001,2025-11-11_06h27.17.578,MST_test,2024.2.2,59.995416350101486,2025-11-11 06h27.22.524080 +0530,
135,0,135,o,2.7591358999998192,None,135,0,135,0,415.8090120000006,,,,,,,,,,,,,,,,,,,,,,,,,,,,,,,,,,,,,,,,,,,,,,,,,,415.7927926000002,415.8090120000006,416.3256508000004,416.2925539000007,416.3133865,416.3256508000004,416.3256508000004,416.3256508000004,419.09262600000056,Objects\027b.jpg,pre,o,2.7591358999998192,None,,,,,,,,00009,001,2025-11-11_06h27.17.578,MST_test,2024.2.2,59.995416350101486,2025-11-11 06h27.22.524080 +0530,
136,0,136,n,1.2860671999997066,None,136,0,136,0,419.10893770000075,,,,,,,,,,,,,,,,,,,,,,,,,,,,,,,,,,,,,,,,,,,,,,,,,,419.0926984000007,419.10893770000075,419.6426360000005,419.59243349999997,419.63549740000053,419.6426360000005,419.6426360000005,419.6426360000005,420.94249300000047,Scenes\015b.jpg,pre,n,1.2860671999997066,None,,,,,,,,00009,001,2025-11-11_06h27.17.578,MST_test,2024.2.2,59.995416350101486,2025-11-11 06h27.22.524080 +0530,
137,0,137,o,1.149606500000118,None,137,0,137,0,420.9588985999999,,,,,,,,,,,,,,,,,,,,,,,,,,,,,,,,,,,,,,,,,,,,,,,,,,420.9425673000005,420.9588985999999,421.4588416000006,421.44237990000056,421.4539670000004,421.4588416000006,421.4588416000006,421.4588416000006,422.60926090000066,Objects\053a.jpg,post,o,1.149606500000118,None,,,,,,,,00009,001,2025-11-11_06h27.17.578,MST_test,2024.2.2,59.995416350101486,2025-11-11 06h27.22.524080 +0530,
138,0,138,s,1.3915944999998828,None,138,0,138,0,422.6255252000001,,,,,,,,,,,,,,,,,,,,,,,,,,,,,,,,,,,,,,,,,,,,,,,,,,422.60933980000027,422.6255252000001,423.1588859000003,423.1091980000001,423.1436269000005,423.1588859000003,423.1588859000003,423.1588859000003,424.55919750000066,Scenes\104b.jpg,post,s,1.3915944999998828,None,,,,,,,,00009,001,2025-11-11_06h27.17.578,MST_test,2024.2.2,59.995416350101486,2025-11-11 06h27.22.524080 +0530,
139,0,139,n,4.713806000000659,None,139,0,139,0,424.5754399000007,,,,,,,,,,,,,,,,,,,,,,,,,,,,,,,,,,,,,,,,,,,,,,,,,,424.5592793000005,424.5754399000007,425.10896219999995,425.05879970000024,425.09848930000044,425.10896219999995,425.10896219999995,425.10896219999995,429.8257428000006,Scenes\117b.jpg,post,n,4.713806000000659,None,,,,,,,,00009,001,2025-11-11_06h27.17.578,MST_test,2024.2.2,59.995416350101486,2025-11-11 06h27.22.524080 +0530,
140,0,140,o,1.08324839999932,None,140,0,140,0,429.84201740000026,,,,,,,,,,,,,,,,,,,,,,,,,,,,,,,,,,,,,,,,,,,,,,,,,,429.8258181000001,429.84201740000026,430.3587533,430.3255200000003,430.3480741000003,430.3587533,430.3587533,430.3587533,431.44230850000076,Scenes\070a.jpg,pre,o,1.08324839999932,None,,,,,,,,00009,001,2025-11-11_06h27.17.578,MST_test,2024.2.2,59.995416350101486,2025-11-11 06h27.22.524080 +0530,
141,0,141,s,3.3171308000000863,None,141,0,141,0,431.4586242000005,,,,,,,,,,,,,,,,,,,,,,,,,,,,,,,,,,,,,,,,,,,,,,,,,,431.4423893000003,431.4586242000005,431.9756081000005,431.94225390000065,431.9590914999999,431.9756081000005,431.9756081000005,431.9756081000005,435.3088396000003,Foils\scenes17.jpg,none,s,3.3171308000000863,None,,,,,,,,00009,001,2025-11-11_06h27.17.578,MST_test,2024.2.2,59.995416350101486,2025-11-11 06h27.22.524080 +0530,
142,0,142,o,1.061158599999544,None,142,0,142,0,435.32521930000075,,,,,,,,,,,,,,,,,,,,,,,,,,,,,,,,,,,,,,,,,,,,,,,,,,435.3089144000005,435.32521930000075,435.82541410000067,435.8087036000006,435.81855429999996,435.82541410000067,435.82541410000067,435.82541410000067,436.89208920000056,Objects\105a.jpg,mid,o,1.061158599999544,None,,,,,,,,00009,001,2025-11-11_06h27.17.578,MST_test,2024.2.2,59.995416350101486,2025-11-11 06h27.22.524080 +0530,
143,0,143,o,1.9468704000000798,None,143,0,143,0,436.90854110000055,,,,,,,,,,,,,,,,,,,,,,,,,,,,,,,,,,,,,,,,,,,,,,,,,,436.89215719999993,436.90854110000055,437.44181350000053,437.39196770000035,437.42960550000043,437.44181350000053,437.44181350000053,437.44181350000053,439.39207440000064,Scenes\124b.jpg,pre,o,1.9468704000000798,None,,,,,,,,00009,001,2025-11-11_06h27.17.578,MST_test,2024.2.2,59.995416350101486,2025-11-11 06h27.22.524080 +0530,
144,0,144,s,2.372633300000416,None,144,0,144,0,439.40843660000064,,,,,,,,,,,,,,,,,,,,,,,,,,,,,,,,,,,,,,,,,,,,,,,,,,439.3921450000007,439.40843660000064,439.9419647000004,439.89190730000064,439.9237054000005,439.9419647000004,439.9419647000004,439.9419647000004,442.32533370000056,Objects\051b.jpg,post,s,2.372633300000416,None,,,,,,,,00009,001,2025-11-11_06h27.17.578,MST_test,2024.2.2,59.995416350101486,2025-11-11 06h27.22.524080 +0530,
145,0,145,s,2.457416400000511,None,145,0,145,0,442.3417358000006,,,,,,,,,,,,,,,,,,,,,,,,,,,,,,,,,,,,,,,,,,,,,,,,,,442.3254130000005,442.3417358000006,442.87505240000064,442.8251995999999,442.8591965000005,442.87505240000064,442.87505240000064,442.87505240000064,445.34203570000045,Scenes\073b.jpg,pre,s,2.457416400000511,None,,,,,,,,00009,001,2025-11-11_06h27.17.578,MST_test,2024.2.2,59.995416350101486,2025-11-11 06h27.22.524080 +0530,
146,0,146,n,0.9728820999998788,None,146,0,146,0,445.3583288,,,,,,,,,,,,,,,,,,,,,,,,,,,,,,,,,,,,,,,,,,,,,,,,,,445.34211440000036,445.3583288,445.87523020000026,445.8417982000001,445.86113750000004,445.87523020000026,445.87523020000026,445.87523020000026,446.85872870000003,Foils\scenes29.jpg,none,n,0.9728820999998788,None,,,,,,,,00009,001,2025-11-11_06h27.17.578,MST_test,2024.2.2,59.995416350101486,2025-11-11 06h27.22.524080 +0530,
147,0,147,o,1.0537584000003335,None,147,0,147,0,446.8749710000002,,,,,,,,,,,,,,,,,,,,,,,,,,,,,,,,,,,,,,,,,,,,,,,,,,446.8587995000007,446.8749710000002,447.40825180000047,447.35848350000015,447.40095780000047,447.40825180000047,447.40825180000047,447.40825180000047,448.4752846000001,Scenes\010b.jpg,mid,o,1.0537584000003335,None,,,,,,,,00009,001,2025-11-11_06h27.17.578,MST_test,2024.2.2,59.995416350101486,2025-11-11 06h27.22.524080 +0530,
148,0,148,s,1.6099486999992223,None,148,0,148,0,448.49163540000063,,,,,,,,,,,,,,,,,,,,,,,,,,,,,,,,,,,,,,,,,,,,,,,,,,448.4753627,448.49163540000063,449.0084735999999,448.9751941000004,448.9996325000002,449.0084735999999,449.0084735999999,449.0084735999999,450.62524870000016,Objects\184b.jpg,mid,s,1.6099486999992223,None,,,,,,,,00009,001,2025-11-11_06h27.17.578,MST_test,2024.2.2,59.995416350101486,2025-11-11 06h27.22.524080 +0530,
149,0,149,o,0.9444492000002356,None,149,0,149,0,450.64154020000024,,,,,,,,,,,,,,,,,,,,,,,,,,,,,,,,,,,,,,,,,,,,,,,,,,450.6253335000001,450.64154020000024,451.1581734000001,451.1250912000005,451.1419276000006,451.1581734000001,451.1581734000001,451.1581734000001,452.10859470000014,Scenes\160a.jpg,pre,o,0.9444492000002356,None,,,,,,,,00009,001,2025-11-11_06h27.17.578,MST_test,2024.2.2,59.995416350101486,2025-11-11 06h27.22.524080 +0530,
,,,,,,,,,,,,,,,,,,,,,,,,,,,,,,,,,,,,,,,,,,,,,,,,,,,,,,,,,,,,,,,,,,,,,,,,,,452.1086494000001,452.1248174000002,452.1248174000002,453.60838650000005,space,1.473758799999814,None,00009,001,2025-11-11_06h27.17.578,MST_test,2024.2.2,59.995416350101486,2025-11-11 06h27.22.524080 +0530,
