Sl_no,image_path,thisN,thisTrialN,thisRepN,key_resp_5.keys,key_resp_7.keys,key_resp_7.rt,key_resp_7.duration,key_resp_5.rt,key_resp_5.duration,key_resp_9.keys,key_resp_8.keys,key_resp_8.rt,key_resp_8.duration,key_resp_9.rt,key_resp_9.duration,practice.thisRepN,practice.thisTrialN,practice.thisN,practice.thisIndex,trials.thisRepN,trials.thisTrialN,trials.thisN,trials.thisIndex,thisRow.t,notes,welcome_page.started,text.started,key_resp.started,welcome_page.stopped,key_resp.keys,key_resp.rt,key_resp.duration,instructions.started,ins.started,key_resp_2.started,instructions.stopped,key_resp_2.keys,key_resp_2.rt,key_resp_2.duration,objects_only_instruction.started,text_3.started,key_resp_3.started,objects_only_instruction.stopped,key_resp_3.keys,key_resp_3.rt,key_resp_3.duration,ISI.started,text_4.started,text_4.stopped,ISI.stopped,practice_block.started,image.started,text_5.started,key_resp_5.started,image.stopped,text_5.stopped,key_resp_5.stopped,practice_block.stopped,practice.key_resp_5.keys,indoor_outdoor.started,text_7.started,key_resp_7.started,indoor_outdoor.stopped,practice.key_resp_7.keys,practice.key_resp_7.rt,practice.key_resp_7.duration,practice.key_resp_5.rt,practice.key_resp_5.duration,practice_to_main.started,text_2.started,key_resp_4.started,practice_to_main.stopped,key_resp_4.keys,key_resp_4.rt,key_resp_4.duration,objects.started,image_2.started,text_9.started,key_resp_9.started,objects.stopped,trials.key_resp_9.keys,encoding_task.started,text_8.started,key_resp_8.started,encoding_task.stopped,trials.key_resp_8.keys,trials.key_resp_8.rt,trials.key_resp_8.duration,image_2.stopped,text_9.stopped,key_resp_9.stopped,trials.key_resp_9.rt,trials.key_resp_9.duration,end_experiment.started,text_6.started,key_resp_6.started,end_experiment.stopped,key_resp_6.keys,key_resp_6.rt,key_resp_6.duration,list_of_stimuli,encoding_task_accuracy,participant,session,date,expName,psychopyVersion,frameRate,expStart,
,,,,,,,,,,,,,,,,,,,,,,,,,,,0.010968800001137424,0.027569300000322983,0.027569300000322983,9.278934599999047,space,9.24168389999977,None,,,,,,,,,,,,,,,,,,,,,,,,,,,,,,,,,,,,,,,,,,,,,,,,,,,,,,,,,,,,,,,,,,,,,,,00002,001,2025-11-08_18h50.56.769,MST_task,2024.2.2,60.01604829211748,2025-11-08 18h51.02.235495 +0530,
,,,,,,,,,,,,,,,,,,,,,,,,,,,,,,,,,,9.278961100000743,9.293998400000419,9.293998400000419,33.143941400001495,space,23.83818539999993,None,,,,,,,,,,,,,,,,,,,,,,,,,,,,,,,,,,,,,,,,,,,,,,,,,,,,,,,,,,,,,,,,00002,001,2025-11-08_18h50.56.769,MST_task,2024.2.2,60.01604829211748,2025-11-08 18h51.02.235495 +0530,
,,,,,,,,,,,,,,,,,,,,,,,,,,,,,,,,,,,,,,,,,33.14397090000057,33.16022950000115,33.16022950000115,71.59298449999915,space,38.42670609999914,None,,,,,,,,,,,,,,,,,,,,,,,,,,,,,,,,,,,,,,,,,,,,,,,,,,,,,,,,,00002,001,2025-11-08_18h50.56.769,MST_task,2024.2.2,60.01604829211748,2025-11-08 18h51.02.235495 +0530,
10,practice_images/182a.jpg,0,0,0,None,f,5.309333699999115,None,,,,,,,,,0,0,0,9,,,,,71.60944360000212,,,,,,,,,,,,,,,,,,,,,,,71.59873929999958,71.60944360000212,72.10943250000128,72.09308600000077,72.09999520000201,72.10943250000128,72.10943250000128,72.10943250000128,75.10931609999898,75.10931609999898,75.10931609999898,75.09286300000167,None,75.09403780000139,75.10931609999898,75.10931609999898,80.42626989999917,f,5.309333699999115,None,,,,,,,,,,,,,,,,,,,,,,,,,,,,,,,,,,,,,00002,001,2025-11-08_18h50.56.769,MST_task,2024.2.2,60.01604829211748,2025-11-08 18h51.02.235495 +0530,
8,practice_images/178a.jpg,1,1,0,None,j,2.729915300002176,None,,,,,,,,,0,1,1,7,,,,,80.44254080000246,,,,,,,,,,,,,,,,,,,,,,,80.42634560000079,80.44254080000246,80.94250760000068,80.9260901000016,80.92760730000009,80.94250760000068,80.94250760000068,80.94250760000068,83.94251140000051,83.94251140000051,83.94251140000051,83.92604230000143,None,83.92608800000016,83.94251140000051,83.94251140000051,86.67604740000024,j,2.729915300002176,None,,,,,,,,,,,,,,,,,,,,,,,,,,,,,,,,,,,,,00002,001,2025-11-08_18h50.56.769,MST_task,2024.2.2,60.01604829211748,2025-11-08 18h51.02.235495 +0530,
4,practice_images/002b.jpg,2,2,0,None,f,1.312128000001394,None,,,,,,,,,0,2,2,3,,,,,86.69243439999991,,,,,,,,,,,,,,,,,,,,,,,86.67612369999915,86.69243439999991,87.19236689999889,87.17590109999946,87.17732270000124,87.19236689999889,87.19236689999889,87.19236689999889,90.19232330000159,90.19232330000159,90.19232330000159,90.17585840000174,None,90.17590439999913,90.19232330000159,90.19232330000159,91.50936849999925,f,1.312128000001394,None,,,,,,,,,,,,,,,,,,,,,,,,,,,,,,,,,,,,,00002,001,2025-11-08_18h50.56.769,MST_task,2024.2.2,60.01604829211748,2025-11-08 18h51.02.235495 +0530,
5,practice_images/139a.jpg,3,3,0,None,j,9.857034799999383,None,,,,,,,,,0,3,3,4,,,,,91.52576120000231,,,,,,,,,,,,,,,,,,,,,,,91.5094437000007,91.52576120000231,92.0256483000012,92.00907619999998,92.01034830000208,92.0256483000012,92.0256483000012,92.0256483000012,95.0255146999989,95.0255146999989,95.0255146999989,95.00915460000033,None,95.00919540000177,95.0255146999989,95.0255146999989,104.89239280000038,j,9.857034799999383,None,,,,,,,,,,,,,,,,,,,,,,,,,,,,,,,,,,,,,00002,001,2025-11-08_18h50.56.769,MST_task,2024.2.2,60.01604829211748,2025-11-08 18h51.02.235495 +0530,
3,practice_images/037a.jpg,4,4,0,f,None,,,2.845877499999915,0.10233560000051511,,,,,,,0,4,4,2,,,,,104.90868690000207,,,,,,,,,,,,,,,,,,,,,,,104.89247310000064,104.90868690000207,105.40863270000045,105.39209119999941,105.39335030000075,105.40863270000045,105.40863270000045,105.40863270000045,108.40860819999943,108.40860819999943,108.40860819999943,108.3920575000011,f,108.39210150000144,,,108.39211040000009,None,,,2.845877499999915,0.10233560000051511,,,,,,,,,,,,,,,,,,,,,,,,,,,,,,,,,,,00002,001,2025-11-08_18h50.56.769,MST_task,2024.2.2,60.01604829211748,2025-11-08 18h51.02.235495 +0530,
2,practice_images/031a.jpg,5,5,0,j,None,,,2.878608000002714,None,,,,,,,0,5,5,1,,,,,108.40860819999943,,,,,,,,,,,,,,,,,,,,,,,108.39216220000162,108.40860819999943,108.90857450000112,108.89209250000204,108.89335969999956,108.90857450000112,108.90857450000112,108.90857450000112,111.90850580000188,111.90850580000188,111.90850580000188,111.89204679999966,j,111.89209710000068,,,111.89210660000026,None,,,2.878608000002714,None,,,,,,,,,,,,,,,,,,,,,,,,,,,,,,,,,,,00002,001,2025-11-08_18h50.56.769,MST_task,2024.2.2,60.01604829211748,2025-11-08 18h51.02.235495 +0530,
6,practice_images/158a.jpg,6,6,0,None,j,0.3627295000005688,None,,,,,,,,,0,6,6,5,,,,,111.90850580000188,,,,,,,,,,,,,,,,,,,,,,,111.89216410000154,111.90850580000188,112.40847489999942,112.39217970000027,112.39347230000203,112.40847489999942,112.40847489999942,112.40847489999942,115.4084326000011,115.4084326000011,115.4084326000011,115.39191510000092,None,115.39197280000008,115.4084326000011,115.4084326000011,115.77556829999958,j,0.3627295000005688,None,,,,,,,,,,,,,,,,,,,,,,,,,,,,,,,,,,,,,00002,001,2025-11-08_18h50.56.769,MST_task,2024.2.2,60.01604829211748,2025-11-08 18h51.02.235495 +0530,
7,practice_images/166a.jpg,7,7,0,f,None,,,1.7850264000007883,0.13417769999796292,,,,,,,0,7,7,6,,,,,115.791795000001,,,,,,,,,,,,,,,,,,,,,,,115.77563759999975,115.791795000001,116.29162659999929,116.27523139999903,116.27651820000028,116.29162659999929,116.29162659999929,116.29162659999929,119.29159690000233,119.29159690000233,119.29159690000233,119.27517029999944,f,119.27521980000165,,,119.27522940000199,None,,,1.7850264000007883,0.13417769999796292,,,,,,,,,,,,,,,,,,,,,,,,,,,,,,,,,,,00002,001,2025-11-08_18h50.56.769,MST_task,2024.2.2,60.01604829211748,2025-11-08 18h51.02.235495 +0530,
9,practice_images/180a.jpg,8,8,0,None,f,0.3293303999998898,None,,,,,,,,,0,8,8,8,,,,,119.29159690000233,,,,,,,,,,,,,,,,,,,,,,,119.27528230000098,119.29159690000233,119.7915780000003,119.77514990000054,119.77642000000196,119.7915780000003,119.7915780000003,119.7915780000003,122.7915075000019,122.7915075000019,122.7915075000019,122.7750687000007,None,122.77511190000223,122.7915075000019,122.7915075000019,123.12526979999893,f,0.3293303999998898,None,,,,,,,,,,,,,,,,,,,,,,,,,,,,,,,,,,,,,00002,001,2025-11-08_18h50.56.769,MST_task,2024.2.2,60.01604829211748,2025-11-08 18h51.02.235495 +0530,
1,practice_images/013a.jpg,9,9,0,j,None,,,2.237624899997172,0.1633393000010983,,,,,,,0,9,9,0,,,,,123.14152169999943,,,,,,,,,,,,,,,,,,,,,,,123.12534740000046,123.14152169999943,123.64153040000019,123.6250086,123.62631709999914,123.64153040000019,123.64153040000019,123.64153040000019,126.6414036999995,126.6414036999995,126.6414036999995,126.62494860000152,j,126.62499260000186,,,126.62500170000203,None,,,2.237624899997172,0.1633393000010983,,,,,,,,,,,,,,,,,,,,,,,,,,,,,,,,,,,00002,001,2025-11-08_18h50.56.769,MST_task,2024.2.2,60.01604829211748,2025-11-08 18h51.02.235495 +0530,
,,,,,,,,,,,,,,,,,,,,,,,,,,,,,,,,,,,,,,,,,,,,,,,,,,,,,,,,,,,,,,,,,,,,,,126.62503730000026,126.6414036999995,126.6414036999995,151.2079350999993,space,24.555787799999962,None,,,,,,,,,,,,,,,,,,,,,,,,,,,,00002,001,2025-11-08_18h50.56.769,MST_task,2024.2.2,60.01604829211748,2025-11-08 18h51.02.235495 +0530,
,Scenes\183a.jpg,0,0,0,,,,,,,None,f,0.23266890000013518,None,,,,,,,0,0,0,0,151.22427990000142,,,,,,,,,,,,,,,,,,,,,,,151.2086010999992,151.22427990000142,151.74126109999997,151.70776829999886,,,,,,,,,,,,,,,,,,,,,,,,,,151.72163160000127,151.74126109999997,151.74126109999997,151.74126109999997,154.72425139999905,None,154.7254075000019,154.7408886000012,154.7408886000012,154.97458729999926,f,0.23266890000013518,None,,,,,,,,,,,,,,,00002,001,2025-11-08_18h50.56.769,MST_task,2024.2.2,60.01604829211748,2025-11-08 18h51.02.235495 +0530,
,Scenes\151a.jpg,1,0,1,,,,,,,j,None,,,2.950531599999522,None,,,,,1,0,1,0,154.9908886000012,,,,,,,,,,,,,,,,,,,,,,,154.97468220000155,154.9908886000012,155.49085109999942,155.4744885,,,,,,,,,,,,,,,,,,,,,,,,,,155.48350530000243,155.49085109999942,155.49085109999942,155.49085109999942,158.47434989999965,j,158.47439420000228,,,158.47440379999898,None,,,158.49094419999892,158.49094419999892,158.49094419999892,2.950531599999522,None,,,,,,,,,,00002,001,2025-11-08_18h50.56.769,MST_task,2024.2.2,60.01604829211748,2025-11-08 18h51.02.235495 +0530,
,Scenes\150a.jpg,2,0,2,,,,,,,None,j,None,None,,,,,,,2,0,2,0,158.49094419999892,,,,,,,,,,,,,,,,,,,,,,,158.47445399999924,158.49094419999892,159.00749590000123,158.9742647000021,,,,,,,,,,,,,,,,,,,,,,,,,,158.9859691999991,159.00749590000123,159.00749590000123,159.00749590000123,161.99075860000085,None,161.99080120000144,162.0074244000025,162.0074244000025,162.14101780000055,j,None,None,,,,,,,,,,,,,,,00002,001,2025-11-08_18h50.56.769,MST_task,2024.2.2,60.01604829211748,2025-11-08 18h51.02.235495 +0530,
,Scenes\034a.jpg,3,0,3,,,,,,,f,None,,,2.7506289000011748,0.1157853000004252,,,,,3,0,3,0,162.15739219999887,,,,,,,,,,,,,,,,,,,,,,,162.1411064999993,162.15739219999887,162.67433309999979,162.6410309999992,,,,,,,,,,,,,,,,,,,,,,,,,,162.66241140000056,162.67433309999979,162.67433309999979,162.67433309999979,165.65732779999962,f,165.65737140000056,,,165.65738160000183,None,,,,,,2.7506289000011748,0.1157853000004252,,,,,,,,,,00002,001,2025-11-08_18h50.56.769,MST_task,2024.2.2,60.01604829211748,2025-11-08 18h51.02.235495 +0530,
,Scenes\117a.jpg,4,0,4,,,,,,,j,None,,,1.4987559000001056,0.15449169999919832,,,,,4,0,4,0,165.67398200000025,,,,,,,,,,,,,,,,,,,,,,,165.6574666000015,165.67398200000025,166.17421079999986,166.15747580000243,,,,,,,,,,,,,,,,,,,,,,,,,,166.1669471000023,166.17421079999986,166.17421079999986,166.17421079999986,169.15753600000244,j,169.15758600000117,,,169.15759620000244,None,,,169.17390499999965,169.17390499999965,169.17390499999965,1.4987559000001056,0.15449169999919832,,,,,,,,,,00002,001,2025-11-08_18h50.56.769,MST_task,2024.2.2,60.01604829211748,2025-11-08 18h51.02.235495 +0530,
,Scenes\147a.jpg,5,0,5,,,,,,,j,None,,,2.319504600000073,0.15831830000024638,,,,,5,0,5,0,169.17390499999965,,,,,,,,,,,,,,,,,,,,,,,169.15766480000093,169.17390499999965,169.69102009999915,169.6573986000003,,,,,,,,,,,,,,,,,,,,,,,,,,169.6821888000013,169.69102009999915,169.69102009999915,169.69102009999915,172.67384660000243,j,172.67389360000016,,,172.67390440000236,None,,,,,,2.319504600000073,0.15831830000024638,,,,,,,,,,00002,001,2025-11-08_18h50.56.769,MST_task,2024.2.2,60.01604829211748,2025-11-08 18h51.02.235495 +0530,
,Scenes\130a.jpg,6,0,6,,,,,,,j,None,,,2.0411946999993233,0.1492072000000917,,,,,6,0,6,0,172.6905794000013,,,,,,,,,,,,,,,,,,,,,,,172.67397880000135,172.6905794000013,173.22408450000148,173.1739860000016,,,,,,,,,,,,,,,,,,,,,,,,,,173.2046659000007,173.22408450000148,173.22408450000148,173.22408450000148,176.1904237000017,j,176.19048219999968,,,176.1904926999996,None,,,,,,2.0411946999993233,0.1492072000000917,,,,,,,,,,00002,001,2025-11-08_18h50.56.769,MST_task,2024.2.2,60.01604829211748,2025-11-08 18h51.02.235495 +0530,
,Objects\151a.jpg,7,0,7,,,,,,,None,f,1.0514342000024044,None,,,,,,,7,0,7,0,176.20712080000158,,,,,,,,,,,,,,,,,,,,,,,176.19055070000104,176.20712080000158,176.74063920000117,176.69063610000012,,,,,,,,,,,,,,,,,,,,,,,,,,176.72023470000204,176.74063920000117,176.74063920000117,176.74063920000117,179.70707820000098,None,179.70712730000014,179.72367400000076,179.72367400000076,180.79065529999934,f,1.0514342000024044,None,,,,,,,,,,,,,,,00002,001,2025-11-08_18h50.56.769,MST_task,2024.2.2,60.01604829211748,2025-11-08 18h51.02.235495 +0530,
,Objects\081a.jpg,8,0,8,,,,,,,None,f,1.4285498999997799,None,,,,,,,8,0,8,0,180.80700870000146,,,,,,,,,,,,,,,,,,,,,,,180.7907378000018,180.80700870000146,181.306947699999,181.29048890000195,,,,,,,,,,,,,,,,,,,,,,,,,,181.30002869999953,181.306947699999,181.306947699999,181.306947699999,184.29054879999967,None,184.29059079999934,184.30704920000062,184.30704920000062,185.74062590000176,f,1.4285498999997799,None,184.30704920000062,184.30704920000062,184.30704920000062,,,,,,,,,,,,00002,001,2025-11-08_18h50.56.769,MST_task,2024.2.2,60.01604829211748,2025-11-08 18h51.02.235495 +0530,
,Objects\038a.jpg,9,0,9,,,,,,,None,f,0.09182770000188611,None,,,,,,,9,0,9,0,185.75679970000056,,,,,,,,,,,,,,,,,,,,,,,185.74069880000025,185.75679970000056,186.25678560000233,186.2403505000002,,,,,,,,,,,,,,,,,,,,,,,,,,186.25117619999946,186.25678560000233,186.25678560000233,186.25678560000233,189.24034790000223,None,189.24038970000038,189.2568238999993,189.2568238999993,189.35717590000058,f,0.09182770000188611,None,189.2568238999993,189.2568238999993,189.2568238999993,,,,,,,,,,,,00002,001,2025-11-08_18h50.56.769,MST_task,2024.2.2,60.01604829211748,2025-11-08 18h51.02.235495 +0530,
,Objects\119a.jpg,10,0,10,,,,,,,None,j,3.3408066000010876,None,,,,,,,10,0,10,0,189.37343070000134,,,,,,,,,,,,,,,,,,,,,,,189.35726609999983,189.37343070000134,189.90676069999972,189.85704840000108,,,,,,,,,,,,,,,,,,,,,,,,,,189.8888678000003,189.90676069999972,189.90676069999972,189.90676069999972,192.87342490000083,None,192.87346850000176,192.89003760000196,192.89003760000196,196.24036930000148,j,3.3408066000010876,None,,,,,,,,,,,,,,,00002,001,2025-11-08_18h50.56.769,MST_task,2024.2.2,60.01604829211748,2025-11-08 18h51.02.235495 +0530,
,Objects\071a.jpg,11,0,11,,,,,,,f,None,,,1.6765255999998772,0.16940089999843622,,,,,11,0,11,0,196.2566994000008,,,,,,,,,,,,,,,,,,,,,,,196.24047430000064,196.2566994000008,196.75660749999952,196.74012159999984,,,,,,,,,,,,,,,,,,,,,,,,,,196.7499553000016,196.75660749999952,196.75660749999952,196.75660749999952,199.74010350000026,f,199.74014549999993,,,199.74015480000162,None,,,199.75654130000112,199.75654130000112,199.75654130000112,1.6765255999998772,0.16940089999843622,,,,,,,,,,00002,001,2025-11-08_18h50.56.769,MST_task,2024.2.2,60.01604829211748,2025-11-08 18h51.02.235495 +0530,
,Objects\165a.jpg,12,0,12,,,,,,,None,f,0.10697330000039074,None,,,,,,,12,0,12,0,199.75654130000112,,,,,,,,,,,,,,,,,,,,,,,199.74022310000146,199.75654130000112,200.25659330000053,200.24010940000153,,,,,,,,,,,,,,,,,,,,,,,,,,200.2496026000008,200.25659330000053,200.25659330000053,200.25659330000053,203.24024149999968,None,203.2402847000012,203.256489899999,203.256489899999,203.37346120000075,f,0.10697330000039074,None,203.256489899999,203.256489899999,203.256489899999,,,,,,,,,,,,00002,001,2025-11-08_18h50.56.769,MST_task,2024.2.2,60.01604829211748,2025-11-08 18h51.02.235495 +0530,
,Objects\099a.jpg,13,0,13,,,,,,,None,f,0.3109364000010828,None,,,,,,,13,0,13,0,203.38979029999973,,,,,,,,,,,,,,,,,,,,,,,203.3735482000011,203.38979029999973,203.9064505000024,203.87327200000072,,,,,,,,,,,,,,,,,,,,,,,,,,203.89049779999914,203.9064505000024,203.9064505000024,203.9064505000024,206.8898138000004,None,206.88985630000025,206.90638410000247,206.90638410000247,207.22339460000148,f,0.3109364000010828,None,,,,,,,,,,,,,,,00002,001,2025-11-08_18h50.56.769,MST_task,2024.2.2,60.01604829211748,2025-11-08 18h51.02.235495 +0530,
,Scenes\091a.jpg,14,0,14,,,,,,,j,None,,,2.4927094000013312,0.12179359999936423,,,,,14,0,14,0,207.23973549999937,,,,,,,,,,,,,,,,,,,,,,,207.22347010000158,207.23973549999937,207.7566618000019,207.72318480000104,,,,,,,,,,,,,,,,,,,,,,,,,,207.73490850000235,207.7566618000019,207.7566618000019,207.7566618000019,210.73966320000181,j,210.7397086000019,,,210.73971950000123,None,,,,,,2.4927094000013312,0.12179359999936423,,,,,,,,,,00002,001,2025-11-08_18h50.56.769,MST_task,2024.2.2,60.01604829211748,2025-11-08 18h51.02.235495 +0530,
,Scenes\031a.jpg,15,0,15,,,,,,,None,j,0.25836830000116606,None,,,,,,,15,0,15,0,210.75636640000084,,,,,,,,,,,,,,,,,,,,,,,210.73980900000242,210.75636640000084,211.27321250000023,211.2399903000005,,,,,,,,,,,,,,,,,,,,,,,,,,211.253227600002,211.27321250000023,211.27321250000023,211.27321250000023,214.25626940000075,None,214.25632570000016,214.27294880000045,214.27294880000045,214.5399964999997,j,0.25836830000116606,None,,,,,,,,,,,,,,,00002,001,2025-11-08_18h50.56.769,MST_task,2024.2.2,60.01604829211748,2025-11-08 18h51.02.235495 +0530,
,Scenes\145a.jpg,16,0,16,,,,,,,j,None,,,2.09202180000284,0.19789059999675374,,,,,16,0,16,0,214.5562353000023,,,,,,,,,,,,,,,,,,,,,,,214.54009190000215,214.5562353000023,215.07287010000073,215.03968850000092,,,,,,,,,,,,,,,,,,,,,,,,,,215.0518458000006,215.07287010000073,215.07287010000073,215.07287010000073,218.0562157000022,j,218.05625969999892,,,218.05627060000188,None,,,,,,2.09202180000284,0.19789059999675374,,,,,,,,,,00002,001,2025-11-08_18h50.56.769,MST_task,2024.2.2,60.01604829211748,2025-11-08 18h51.02.235495 +0530,
,Scenes\168a.jpg,17,0,17,,,,,,,j,None,,,1.97335540000131,0.1773527000004833,,,,,17,0,17,0,218.07291120000082,,,,,,,,,,,,,,,,,,,,,,,218.0563629999997,218.07291120000082,218.58977420000156,218.5564149999991,,,,,,,,,,,,,,,,,,,,,,,,,,218.56729590000032,218.58977420000156,218.58977420000156,218.58977420000156,221.57278489999953,j,221.57286220000242,,,221.57287319999887,None,,,,,,1.97335540000131,0.1773527000004833,,,,,,,,,,00002,001,2025-11-08_18h50.56.769,MST_task,2024.2.2,60.01604829211748,2025-11-08 18h51.02.235495 +0530,
,Scenes\134a.jpg,18,0,18,,,,,,,None,j,0.6911645000000135,None,,,,,,,18,0,18,0,221.58944859999974,,,,,,,,,,,,,,,,,,,,,,,221.57293339999887,221.58944859999974,222.1061176000003,222.07291410000107,,,,,,,,,,,,,,,,,,,,,,,,,,222.08587869999974,222.1061176000003,222.1061176000003,222.1061176000003,225.0894799000016,None,225.08954910000102,225.10600329999943,225.10600329999943,225.80637720000232,j,0.6911645000000135,None,,,,,,,,,,,,,,,00002,001,2025-11-08_18h50.56.769,MST_task,2024.2.2,60.01604829211748,2025-11-08 18h51.02.235495 +0530,
,Scenes\156a.jpg,19,0,19,,,,,,,j,None,,,1.691724800002703,0.16937379999944824,,,,,19,0,19,0,225.82264810000197,,,,,,,,,,,,,,,,,,,,,,,225.80649429999903,225.82264810000197,226.339282500001,226.30616120000195,,,,,,,,,,,,,,,,,,,,,,,,,,226.31681450000178,226.339282500001,226.339282500001,226.339282500001,229.3226477999997,j,229.32269180000003,,,229.3227024000007,None,,,,,,1.691724800002703,0.16937379999944824,,,,,,,,,,00002,001,2025-11-08_18h50.56.769,MST_task,2024.2.2,60.01604829211748,2025-11-08 18h51.02.235495 +0530,
,Scenes\123a.jpg,20,0,20,,,,,,,j,None,,,2.8393810000015947,None,,,,,20,0,20,0,229.33922499999971,,,,,,,,,,,,,,,,,,,,,,,229.32278769999903,229.33922499999971,229.85593860000154,229.82276700000148,,,,,,,,,,,,,,,,,,,,,,,,,,229.84788870000193,229.85593860000154,229.85593860000154,229.85593860000154,232.83905439999944,j,232.83910160000232,,,232.8391111000019,None,,,,,,2.8393810000015947,None,,,,,,,,,,00002,001,2025-11-08_18h50.56.769,MST_task,2024.2.2,60.01604829211748,2025-11-08 18h51.02.235495 +0530,
,Objects\155a.jpg,21,0,21,,,,,,,f,None,,,2.4032063000013295,0.11344459999963874,,,,,21,0,21,0,232.85585759999958,,,,,,,,,,,,,,,,,,,,,,,232.83919819999937,232.85585759999958,233.35603009999977,233.33918389999963,,,,,,,,,,,,,,,,,,,,,,,,,,233.3491619000015,233.35603009999977,233.35603009999977,233.35603009999977,236.33921770000234,f,236.3392621000021,,,236.33927179999955,None,,,236.35563489999913,236.35563489999913,236.35563489999913,2.4032063000013295,0.11344459999963874,,,,,,,,,,00002,001,2025-11-08_18h50.56.769,MST_task,2024.2.2,60.01604829211748,2025-11-08 18h51.02.235495 +0530,
,Objects\180a.jpg,22,0,22,,,,,,,None,f,0.4448886999998649,None,,,,,,,22,0,22,0,236.35563489999913,,,,,,,,,,,,,,,,,,,,,,,236.3393419999993,236.35563489999913,236.87229640000078,236.83900970000104,,,,,,,,,,,,,,,,,,,,,,,,,,236.86105289999978,236.87229640000078,236.87229640000078,236.87229640000078,239.8555965000014,None,239.85565240000142,239.8722615000006,239.8722615000006,240.3226883999996,f,0.4448886999998649,None,,,,,,,,,,,,,,,00002,001,2025-11-08_18h50.56.769,MST_task,2024.2.2,60.01604829211748,2025-11-08 18h51.02.235495 +0530,
,Objects\122a.jpg,23,0,23,,,,,,,f,None,,,2.775033699999767,None,,,,,23,0,23,0,240.33893010000247,,,,,,,,,,,,,,,,,,,,,,,240.32277140000224,240.33893010000247,240.83886770000026,240.82236340000236,,,,,,,,,,,,,,,,,,,,,,,,,,240.8331203000016,240.83886770000026,240.83886770000026,240.83886770000026,243.82252420000077,f,243.8225691000007,,,243.82257910000044,None,,,243.83884730000136,243.83884730000136,243.83884730000136,2.775033699999767,None,,,,,,,,,,00002,001,2025-11-08_18h50.56.769,MST_task,2024.2.2,60.01604829211748,2025-11-08 18h51.02.235495 +0530,
,Objects\080a.jpg,24,0,24,,,,,,,j,None,,,2.7912953999984893,0.16259730000092532,,,,,24,0,24,0,243.83884730000136,,,,,,,,,,,,,,,,,,,,,,,243.8226340000001,243.83884730000136,244.35546199999953,244.32239290000143,,,,,,,,,,,,,,,,,,,,,,,,,,244.33801669999957,244.35546199999953,244.35546199999953,244.35546199999953,247.33877869999924,j,247.33883770000102,,,247.33885050000026,None,,,,,,2.7912953999984893,0.16259730000092532,,,,,,,,,,00002,001,2025-11-08_18h50.56.769,MST_task,2024.2.2,60.01604829211748,2025-11-08 18h51.02.235495 +0530,
,Objects\143a.jpg,25,0,25,,,,,,,None,j,1.3488901999990048,None,,,,,,,25,0,25,0,247.35543320000215,,,,,,,,,,,,,,,,,,,,,,,247.33890930000052,247.35543320000215,247.8720878000022,247.8388863,,,,,,,,,,,,,,,,,,,,,,,,,,247.86340910000217,247.8720878000022,247.8720878000022,247.8720878000022,250.85538029999952,None,250.8554394999992,250.87199560000226,250.87199560000226,252.22234129999924,j,1.3488901999990048,None,,,,,,,,,,,,,,,00002,001,2025-11-08_18h50.56.769,MST_task,2024.2.2,60.01604829211748,2025-11-08 18h51.02.235495 +0530,
,Objects\030a.jpg,26,0,26,,,,,,,f,None,,,2.493839399998251,0.17481899999984307,,,,,26,0,26,0,252.2386217000021,,,,,,,,,,,,,,,,,,,,,,,252.22242489999917,252.2386217000021,252.73860210000203,252.72227740000017,,,,,,,,,,,,,,,,,,,,,,,,,,252.7322177999995,252.73860210000203,252.73860210000203,252.73860210000203,255.72221210000134,f,255.72226460000093,,,255.72227530000237,None,,,255.73857789999965,255.73857789999965,255.73857789999965,2.493839399998251,0.17481899999984307,,,,,,,,,,00002,001,2025-11-08_18h50.56.769,MST_task,2024.2.2,60.01604829211748,2025-11-08 18h51.02.235495 +0530,
,Objects\157a.jpg,27,0,27,,,,,,,None,f,0.1995279999973718,None,,,,,,,27,0,27,0,255.73857789999965,,,,,,,,,,,,,,,,,,,,,,,255.72235440000077,255.73857789999965,256.25519310000163,256.222042100002,,,,,,,,,,,,,,,,,,,,,,,,,,256.2508065000002,256.25519310000163,256.25519310000163,256.25519310000163,259.238545799999,None,259.2385902999995,259.2551654000017,259.2551654000017,259.4555919000013,f,0.1995279999973718,None,,,,,,,,,,,,,,,00002,001,2025-11-08_18h50.56.769,MST_task,2024.2.2,60.01604829211748,2025-11-08 18h51.02.235495 +0530,
,Scenes\072a.jpg,28,0,28,,,,,,,j,None,,,2.384146899999905,0.12106370000037714,,,,,28,0,28,0,259.4718329999996,,,,,,,,,,,,,,,,,,,,,,,259.45568099999946,259.4718329999996,260.0053826000003,259.9554329999992,,,,,,,,,,,,,,,,,,,,,,,,,,259.983207199999,260.0053826000003,260.0053826000003,260.0053826000003,262.97179510000205,j,262.971852900002,,,262.97186320000037,None,,,,,,2.384146899999905,0.12106370000037714,,,,,,,,,,00002,001,2025-11-08_18h50.56.769,MST_task,2024.2.2,60.01604829211748,2025-11-08 18h51.02.235495 +0530,
,Scenes\106a.jpg,29,0,29,,,,,,,j,None,,,2.964059999998426,None,,,,,29,0,29,0,262.9883762999998,,,,,,,,,,,,,,,,,,,,,,,262.97196579999945,262.9883762999998,263.5050451999996,263.4720161000005,,,,,,,,,,,,,,,,,,,,,,,,,,263.4847195000002,263.5050451999996,263.5050451999996,263.5050451999996,266.4885073000005,j,266.4885850999999,,,266.4886002000021,None,,,,,,2.964059999998426,None,,,,,,,,,,00002,001,2025-11-08_18h50.56.769,MST_task,2024.2.2,60.01604829211748,2025-11-08 18h51.02.235495 +0530,
,Scenes\035a.jpg,30,0,30,,,,,,,j,None,,,2.650015800001711,0.13428429999839864,,,,,30,0,30,0,266.50497220000034,,,,,,,,,,,,,,,,,,,,,,,266.4886848000024,266.50497220000034,267.0383259000009,266.9884725000011,,,,,,,,,,,,,,,,,,,,,,,,,,267.0189624000013,267.0383259000009,267.0383259000009,267.0383259000009,270.00497840000025,j,270.00502419999975,,,270.00503430000026,None,,,,,,2.650015800001711,0.13428429999839864,,,,,,,,,,00002,001,2025-11-08_18h50.56.769,MST_task,2024.2.2,60.01604829211748,2025-11-08 18h51.02.235495 +0530,
,Scenes\079a.jpg,31,0,31,,,,,,,j,None,,,1.6739980000020296,0.13893710000047577,,,,,31,0,31,0,270.02158730000156,,,,,,,,,,,,,,,,,,,,,,,270.0050938000022,270.02158730000156,270.5384307000022,270.50510159999976,,,,,,,,,,,,,,,,,,,,,,,,,,270.5168642999997,270.5384307000022,270.5384307000022,270.5384307000022,273.5215194000011,j,273.52156359999935,,,273.52157440000155,None,,,,,,1.6739980000020296,0.13893710000047577,,,,,,,,,,00002,001,2025-11-08_18h50.56.769,MST_task,2024.2.2,60.01604829211748,2025-11-08 18h51.02.235495 +0530,
,Scenes\012a.jpg,32,0,32,,,,,,,None,j,0.7762111999982153,None,,,,,,,32,0,32,0,273.5381782000004,,,,,,,,,,,,,,,,,,,,,,,273.5216489000013,273.5381782000004,274.07147460000124,274.0216848000018,,,,,,,,,,,,,,,,,,,,,,,,,,274.05128740000146,274.07147460000124,274.07147460000124,274.07147460000124,277.03810010000234,None,277.03813979999904,277.05479040000137,277.05479040000137,277.83846760000233,j,0.7762111999982153,None,,,,,,,,,,,,,,,00002,001,2025-11-08_18h50.56.769,MST_task,2024.2.2,60.01604829211748,2025-11-08 18h51.02.235495 +0530,
,Scenes\142a.jpg,33,0,33,,,,,,,j,None,,,2.17321549999906,0.16574730000138516,,,,,33,0,33,0,277.85475439999936,,,,,,,,,,,,,,,,,,,,,,,277.83857179999904,277.85475439999936,278.388045300002,278.33830370000214,,,,,,,,,,,,,,,,,,,,,,,,,,278.3733030000003,278.388045300002,278.388045300002,278.388045300002,281.3547873999996,j,281.35483730000124,,,281.3548465999993,None,,,,,,2.17321549999906,0.16574730000138516,,,,,,,,,,00002,001,2025-11-08_18h50.56.769,MST_task,2024.2.2,60.01604829211748,2025-11-08 18h51.02.235495 +0530,
,Scenes\053a.jpg,34,0,34,,,,,,,j,None,,,2.6049143000018375,0.14993419999882462,,,,,34,0,34,0,281.37134810000134,,,,,,,,,,,,,,,,,,,,,,,281.35492069999964,281.37134810000134,281.87150920000204,281.85487990000183,,,,,,,,,,,,,,,,,,,,,,,,,,281.8622362999995,281.87150920000204,281.87150920000204,281.87150920000204,284.8548203999999,j,284.85486220000166,,,284.854871800002,None,,,284.8712670999994,284.8712670999994,284.8712670999994,2.6049143000018375,0.14993419999882462,,,,,,,,,,00002,001,2025-11-08_18h50.56.769,MST_task,2024.2.2,60.01604829211748,2025-11-08 18h51.02.235495 +0530,
,Objects\010a.jpg,35,0,35,,,,,,,None,j,0.4215771000017412,None,,,,,,,35,0,35,0,284.8712670999994,,,,,,,,,,,,,,,,,,,,,,,284.85494069999913,284.8712670999994,285.3714215,285.3548269000021,,,,,,,,,,,,,,,,,,,,,,,,,,285.3646206000012,285.3714215,285.3714215,285.3714215,288.3547722000003,None,288.354815900002,288.371188000001,288.371188000001,288.804919000002,j,0.4215771000017412,None,288.371188000001,288.371188000001,288.371188000001,,,,,,,,,,,,00002,001,2025-11-08_18h50.56.769,MST_task,2024.2.2,60.01604829211748,2025-11-08 18h51.02.235495 +0530,
,Objects\097a.jpg,36,0,36,,,,,,,j,None,,,2.8380104999996547,None,,,,,36,0,36,0,288.8211740000006,,,,,,,,,,,,,,,,,,,,,,,288.8050034000007,288.8211740000006,289.3211443,289.30471070000203,,,,,,,,,,,,,,,,,,,,,,,,,,289.315540399999,289.3211443,289.3211443,289.3211443,292.3048252000008,j,292.3048756999997,,,292.3048858000002,None,,,292.3210966000006,292.3210966000006,292.3210966000006,2.8380104999996547,None,,,,,,,,,,00002,001,2025-11-08_18h50.56.769,MST_task,2024.2.2,60.01604829211748,2025-11-08 18h51.02.235495 +0530,
,Objects\009a.jpg,37,0,37,,,,,,,f,None,,,2.935349100000167,None,,,,,37,0,37,0,292.3210966000006,,,,,,,,,,,,,,,,,,,,,,,292.3049386999992,292.3210966000006,292.8210555000005,292.804664700001,,,,,,,,,,,,,,,,,,,,,,,,,,292.8160735999991,292.8210555000005,292.8210555000005,292.8210555000005,295.80454920000193,f,295.8045953000001,,,295.8046046999989,None,,,295.82102470000245,295.82102470000245,295.82102470000245,2.935349100000167,None,,,,,,,,,,00002,001,2025-11-08_18h50.56.769,MST_task,2024.2.2,60.01604829211748,2025-11-08 18h51.02.235495 +0530,
,Objects\128a.jpg,38,0,38,,,,,,,None,f,0.8602050000008603,None,,,,,,,38,0,38,0,295.82102470000245,,,,,,,,,,,,,,,,,,,,,,,295.8046570000006,295.82102470000245,296.3209773000017,296.30452060000243,,,,,,,,,,,,,,,,,,,,,,,,,,296.3142920999999,296.3209773000017,296.3209773000017,296.3209773000017,299.30453150000176,None,299.30457390000083,299.3209444999993,299.3209444999993,300.18798310000057,f,0.8602050000008603,None,299.3209444999993,299.3209444999993,299.3209444999993,,,,,,,,,,,,00002,001,2025-11-08_18h50.56.769,MST_task,2024.2.2,60.01604829211748,2025-11-08 18h51.02.235495 +0530,
,Objects\061a.jpg,39,0,39,,,,,,,f,None,,,1.7623433000007935,0.201957900000707,,,,,39,0,39,0,300.2042414999996,,,,,,,,,,,,,,,,,,,,,,,300.18806029999905,300.2042414999996,300.70421400000123,300.68782270000156,,,,,,,,,,,,,,,,,,,,,,,,,,300.6975965999991,300.70421400000123,300.70421400000123,300.70421400000123,303.68791780000174,f,303.68796199999997,,,303.6879724999999,None,,,303.70422250000047,303.70422250000047,303.70422250000047,1.7623433000007935,0.201957900000707,,,,,,,,,,00002,001,2025-11-08_18h50.56.769,MST_task,2024.2.2,60.01604829211748,2025-11-08 18h51.02.235495 +0530,
,Objects\133a.jpg,40,0,40,,,,,,,j,None,,,2.1573210999995354,0.3275024000031408,,,,,40,0,40,0,303.70422250000047,,,,,,,,,,,,,,,,,,,,,,,303.68804929999897,303.70422250000047,304.2041792000018,304.18777310000223,,,,,,,,,,,,,,,,,,,,,,,,,,304.19795950000116,304.2041792000018,304.2041792000018,304.2041792000018,307.18783990000156,j,307.18788309999945,,,307.1878929000013,None,,,307.20410130000164,307.20410130000164,307.20410130000164,2.1573210999995354,0.3275024000031408,,,,,,,,,,00002,001,2025-11-08_18h50.56.769,MST_task,2024.2.2,60.01604829211748,2025-11-08 18h51.02.235495 +0530,
,Objects\011a.jpg,41,0,41,,,,,,,j,None,,,1.6374327999983507,0.24289490000228398,,,,,41,0,41,0,307.20410130000164,,,,,,,,,,,,,,,,,,,,,,,307.1879547999997,307.20410130000164,307.7207315000014,307.6876534000003,,,,,,,,,,,,,,,,,,,,,,,,,,307.7039100000002,307.7207315000014,307.7207315000014,307.7207315000014,310.70410320000155,j,310.70415409999987,,,310.7041696000015,None,,,,,,1.6374327999983507,0.24289490000228398,,,,,,,,,,00002,001,2025-11-08_18h50.56.769,MST_task,2024.2.2,60.01604829211748,2025-11-08 18h51.02.235495 +0530,
,Scenes\110a.jpg,42,0,42,,,,,,,j,None,,,2.007582199999888,0.22521360000246204,,,,,42,0,42,0,310.72069380000175,,,,,,,,,,,,,,,,,,,,,,,310.7042328999996,310.72069380000175,311.23759549999886,311.2042383000007,,,,,,,,,,,,,,,,,,,,,,,,,,311.21578760000193,311.23759549999886,311.23759549999886,311.23759549999886,314.22061530000065,j,314.2206776000021,,,314.2206879000005,None,,,,,,2.007582199999888,0.22521360000246204,,,,,,,,,,00002,001,2025-11-08_18h50.56.769,MST_task,2024.2.2,60.01604829211748,2025-11-08 18h51.02.235495 +0530,
,Scenes\116a.jpg,43,0,43,,,,,,,j,None,,,2.4650204999998095,0.17112709999855724,,,,,43,0,43,0,314.2372832000001,,,,,,,,,,,,,,,,,,,,,,,314.22076319999906,314.2372832000001,314.73744330000045,314.7207593999992,,,,,,,,,,,,,,,,,,,,,,,,,,314.7296454999996,314.73744330000045,314.73744330000045,314.73744330000045,317.7207712999989,j,317.72081980000075,,,317.72082969999974,None,,,317.7372095999999,317.7372095999999,317.7372095999999,2.4650204999998095,0.17112709999855724,,,,,,,,,,00002,001,2025-11-08_18h50.56.769,MST_task,2024.2.2,60.01604829211748,2025-11-08 18h51.02.235495 +0530,
,Scenes\017a.jpg,44,0,44,,,,,,,f,None,,,2.61329570000089,None,,,,,44,0,44,0,317.7372095999999,,,,,,,,,,,,,,,,,,,,,,,317.7209079999993,317.7372095999999,318.2707369999989,318.2206836000005,,,,,,,,,,,,,,,,,,,,,,,,,,318.25424829999974,318.2707369999989,318.2707369999989,318.2707369999989,321.2371669000022,f,321.2372127000017,,,321.2372224999999,None,,,,,,2.61329570000089,None,,,,,,,,,,00002,001,2025-11-08_18h50.56.769,MST_task,2024.2.2,60.01604829211748,2025-11-08 18h51.02.235495 +0530,
,Scenes\143a.jpg,45,0,45,,,,,,,j,None,,,2.030484599999909,0.4360780999995768,,,,,45,0,45,0,321.25379890000113,,,,,,,,,,,,,,,,,,,,,,,321.23729490000187,321.25379890000113,321.77045329999964,321.7373684000013,,,,,,,,,,,,,,,,,,,,,,,,,,321.75044419999904,321.77045329999964,321.77045329999964,321.77045329999964,324.7537166000002,j,324.7537596000002,,,324.75376959999994,None,,,,,,2.030484599999909,0.4360780999995768,,,,,,,,,,00002,001,2025-11-08_18h50.56.769,MST_task,2024.2.2,60.01604829211748,2025-11-08 18h51.02.235495 +0530,
,Scenes\087a.jpg,46,0,46,,,,,,,j,None,,,1.6538298000014038,0.2823350999969989,,,,,46,0,46,0,324.77037140000175,,,,,,,,,,,,,,,,,,,,,,,324.7538421999998,324.77037140000175,325.27060220000203,325.2539254000003,,,,,,,,,,,,,,,,,,,,,,,,,,325.26335720000134,325.27060220000203,325.27060220000203,325.27060220000203,328.25399870000183,j,328.25404210000124,,,328.2540516000008,None,,,328.27039270000023,328.27039270000023,328.27039270000023,1.6538298000014038,0.2823350999969989,,,,,,,,,,00002,001,2025-11-08_18h50.56.769,MST_task,2024.2.2,60.01604829211748,2025-11-08 18h51.02.235495 +0530,
,Scenes\092a.jpg,47,0,47,,,,,,,f,None,,,2.550417300000845,0.20925480000005336,,,,,47,0,47,0,328.27039270000023,,,,,,,,,,,,,,,,,,,,,,,328.25410510000074,328.27039270000023,328.78702859999976,328.75394040000174,,,,,,,,,,,,,,,,,,,,,,,,,,328.7659359999998,328.78702859999976,328.78702859999976,328.78702859999976,331.7703314999999,f,331.7703767000021,,,331.77038729999913,None,,,,,,2.550417300000845,0.20925480000005336,,,,,,,,,,00002,001,2025-11-08_18h50.56.769,MST_task,2024.2.2,60.01604829211748,2025-11-08 18h51.02.235495 +0530,
,Scenes\119a.jpg,48,0,48,,,,,,,j,None,,,1.1126819999990403,0.24779190000117524,,,,,48,0,48,0,331.7869847000002,,,,,,,,,,,,,,,,,,,,,,,331.7704414,331.7869847000002,332.3204943000019,332.2704472000005,,,,,,,,,,,,,,,,,,,,,,,,,,332.2991064000016,332.3204943000019,332.3204943000019,332.3204943000019,335.28705600000103,j,335.28711100000146,,,335.2871225000017,None,,,,,,1.1126819999990403,0.24779190000117524,,,,,,,,,,00002,001,2025-11-08_18h50.56.769,MST_task,2024.2.2,60.01604829211748,2025-11-08 18h51.02.235495 +0530,
,Objects\114a.jpg,49,0,49,,,,,,,f,None,,,2.1612984999992477,0.2856666000006953,,,,,49,0,49,0,335.3034626000008,,,,,,,,,,,,,,,,,,,,,,,335.2872062000024,335.3034626000008,335.803762800002,335.7870507000007,,,,,,,,,,,,,,,,,,,,,,,,,,335.79723039999953,335.803762800002,335.803762800002,335.803762800002,338.7871049999994,f,338.7871473000014,,,338.7871594999997,None,,,338.8034575999991,338.8034575999991,338.8034575999991,2.1612984999992477,0.2856666000006953,,,,,,,,,,00002,001,2025-11-08_18h50.56.769,MST_task,2024.2.2,60.01604829211748,2025-11-08 18h51.02.235495 +0530,
,Objects\006a.jpg,50,0,50,,,,,,,None,f,0.42877729999963776,None,,,,,,,50,0,50,0,338.8034575999991,,,,,,,,,,,,,,,,,,,,,,,338.7872129999996,338.8034575999991,339.30345730000045,339.2870126000016,,,,,,,,,,,,,,,,,,,,,,,,,,339.29706590000205,339.30345730000045,339.30345730000045,339.30345730000045,342.2870161999999,None,342.28705660000196,342.3034496,342.3034496,342.7370664000009,f,0.42877729999963776,None,342.3034496,342.3034496,342.3034496,,,,,,,,,,,,00002,001,2025-11-08_18h50.56.769,MST_task,2024.2.2,60.01604829211748,2025-11-08 18h51.02.235495 +0530,
,Objects\160a.jpg,51,0,51,,,,,,,None,f,0.17998050000096555,None,,,,,,,51,0,51,0,342.7533590000021,,,,,,,,,,,,,,,,,,,,,,,342.7371404000005,342.7533590000021,343.2533848000021,343.2369280000021,,,,,,,,,,,,,,,,,,,,,,,,,,343.2469756999999,343.2533848000021,343.2533848000021,343.2533848000021,346.2368733000003,None,346.236912700002,346.2533637000015,346.2533637000015,346.43694080000205,f,0.17998050000096555,None,346.2533637000015,346.2533637000015,346.2533637000015,,,,,,,,,,,,00002,001,2025-11-08_18h50.56.769,MST_task,2024.2.2,60.01604829211748,2025-11-08 18h51.02.235495 +0530,
,Objects\004a.jpg,52,0,52,,,,,,,f,None,,,2.459622100002889,0.11157259999890812,,,,,52,0,52,0,346.45332509999935,,,,,,,,,,,,,,,,,,,,,,,346.4370071000012,346.45332509999935,346.9532985000005,346.93694550000146,,,,,,,,,,,,,,,,,,,,,,,,,,346.946688,346.9532985000005,346.9532985000005,346.9532985000005,349.9368515000024,f,349.9368964000023,,,349.9369062000005,None,,,349.95319740000195,349.95319740000195,349.95319740000195,2.459622100002889,0.11157259999890812,,,,,,,,,,00002,001,2025-11-08_18h50.56.769,MST_task,2024.2.2,60.01604829211748,2025-11-08 18h51.02.235495 +0530,
,Objects\068a.jpg,53,0,53,,,,,,,f,None,,,2.7257561000005808,0.207019900000887,,,,,53,0,53,0,349.95319740000195,,,,,,,,,,,,,,,,,,,,,,,349.93696230000205,349.95319740000195,350.4532341000013,350.4367863000007,,,,,,,,,,,,,,,,,,,,,,,,,,350.4464177000009,350.4532341000013,350.4532341000013,350.4532341000013,353.436682399999,f,353.436729699999,,,353.4367392999993,None,,,353.45309460000135,353.45309460000135,353.45309460000135,2.7257561000005808,0.207019900000887,,,,,,,,,,00002,001,2025-11-08_18h50.56.769,MST_task,2024.2.2,60.01604829211748,2025-11-08 18h51.02.235495 +0530,
,Objects\117a.jpg,54,0,54,,,,,,,None,f,0.18990360000316286,None,,,,,,,54,0,54,0,353.45309460000135,,,,,,,,,,,,,,,,,,,,,,,353.43679709999924,353.45309460000135,353.95312560000093,353.9366136999997,,,,,,,,,,,,,,,,,,,,,,,,,,353.9466527000004,353.95312560000093,353.95312560000093,353.95312560000093,356.9365398000009,None,356.9365820999992,356.9530296000012,356.9530296000012,357.153384600002,f,0.18990360000316286,None,356.9530296000012,356.9530296000012,356.9530296000012,,,,,,,,,,,,00002,001,2025-11-08_18h50.56.769,MST_task,2024.2.2,60.01604829211748,2025-11-08 18h51.02.235495 +0530,
,Objects\121a.jpg,55,0,55,,,,,,,f,None,,,2.7085805000024266,0.17234439999811002,,,,,55,0,55,0,357.1696718000021,,,,,,,,,,,,,,,,,,,,,,,357.1534539000022,357.1696718000021,357.6696671999998,357.65325120000125,,,,,,,,,,,,,,,,,,,,,,,,,,357.66307230000166,357.6696671999998,357.6696671999998,357.6696671999998,360.6531596999994,f,360.65320470000006,,,360.65321440000116,None,,,360.66958460000023,360.66958460000023,360.66958460000023,2.7085805000024266,0.17234439999811002,,,,,,,,,,00002,001,2025-11-08_18h50.56.769,MST_task,2024.2.2,60.01604829211748,2025-11-08 18h51.02.235495 +0530,
,Scenes\088a.jpg,56,0,56,,,,,,,j,None,,,1.82067829999869,0.19977730000027805,,,,,56,0,56,0,360.66958460000023,,,,,,,,,,,,,,,,,,,,,,,360.65326650000134,360.66958460000023,361.1865524999994,361.15313249999963,,,,,,,,,,,,,,,,,,,,,,,,,,361.1690763000006,361.1865524999994,361.1865524999994,361.1865524999994,364.16953640000065,j,364.1695942000006,,,364.16960760000075,None,,,,,,1.82067829999869,0.19977730000027805,,,,,,,,,,00002,001,2025-11-08_18h50.56.769,MST_task,2024.2.2,60.01604829211748,2025-11-08 18h51.02.235495 +0530,
,Scenes\113a.jpg,57,0,57,,,,,,,None,f,0.8777432999995654,None,,,,,,,57,0,57,0,364.18618060000153,,,,,,,,,,,,,,,,,,,,,,,364.1696895000023,364.18618060000153,364.7195810000012,364.6697367000015,,,,,,,,,,,,,,,,,,,,,,,,,,364.70130300000164,364.7195810000012,364.7195810000012,364.7195810000012,367.6861071000021,None,367.68615200000204,367.7027732000024,367.7027732000024,368.58668659999967,f,0.8777432999995654,None,,,,,,,,,,,,,,,00002,001,2025-11-08_18h50.56.769,MST_task,2024.2.2,60.01604829211748,2025-11-08 18h51.02.235495 +0530,
,Scenes\065a.jpg,58,0,58,,,,,,,None,j,0.05861189999995986,None,,,,,,,58,0,58,0,368.60275230000116,,,,,,,,,,,,,,,,,,,,,,,368.586800699999,368.60275230000116,369.1196798000019,369.08652119999897,,,,,,,,,,,,,,,,,,,,,,,,,,369.0979198000023,369.1196798000019,369.1196798000019,369.1196798000019,372.1028374000016,None,372.10288090000176,372.11934459999975,372.11934459999975,372.18641760000173,j,0.05861189999995986,None,,,,,,,,,,,,,,,00002,001,2025-11-08_18h50.56.769,MST_task,2024.2.2,60.01604829211748,2025-11-08 18h51.02.235495 +0530,
,Scenes\177a.jpg,59,0,59,,,,,,,j,None,,,2.3299012999996194,0.1006995999996434,,,,,59,0,59,0,372.202668599999,,,,,,,,,,,,,,,,,,,,,,,372.1865073000008,372.202668599999,372.7024276000011,372.686308700002,,,,,,,,,,,,,,,,,,,,,,,,,,372.69567800000004,372.7024276000011,372.7024276000011,372.7024276000011,375.68622759999926,j,375.68627370000104,,,375.6862843000017,None,,,375.70258979999926,375.70258979999926,375.70258979999926,2.3299012999996194,0.1006995999996434,,,,,,,,,,00002,001,2025-11-08_18h50.56.769,MST_task,2024.2.2,60.01604829211748,2025-11-08 18h51.02.235495 +0530,
,Scenes\129a.jpg,60,0,60,,,,,,,j,None,,,2.8662110999975994,None,,,,,60,0,60,0,375.70258979999926,,,,,,,,,,,,,,,,,,,,,,,375.686338800002,375.70258979999926,376.21921529999963,376.1861874000024,,,,,,,,,,,,,,,,,,,,,,,,,,376.2073053999993,376.21921529999963,376.21921529999963,376.21921529999963,379.2025151000016,j,379.20256000000154,,,379.20256979999976,None,,,,,,2.8662110999975994,None,,,,,,,,,,00002,001,2025-11-08_18h50.56.769,MST_task,2024.2.2,60.01604829211748,2025-11-08 18h51.02.235495 +0530,
,Scenes\180a.jpg,61,0,61,,,,,,,j,None,,,1.8813094999968598,0.13942860000315704,,,,,61,0,61,0,379.2191791000005,,,,,,,,,,,,,,,,,,,,,,,379.20262229999935,379.2191791000005,379.73580220000076,379.7027345000024,,,,,,,,,,,,,,,,,,,,,,,,,,379.713760300001,379.73580220000076,379.73580220000076,379.73580220000076,382.71912860000157,j,382.7191864000015,,,382.71919640000124,None,,,,,,1.8813094999968598,0.13942860000315704,,,,,,,,,,00002,001,2025-11-08_18h50.56.769,MST_task,2024.2.2,60.01604829211748,2025-11-08 18h51.02.235495 +0530,
,Scenes\137a.jpg,62,0,62,,,,,,,j,None,,,2.037986600000295,0.1990877999996883,,,,,62,0,62,0,382.73576550000143,,,,,,,,,,,,,,,,,,,,,,,382.7192513000009,382.73576550000143,383.25275039999906,383.21931120000227,,,,,,,,,,,,,,,,,,,,,,,,,,383.2305011999997,383.25275039999906,383.25275039999906,383.25275039999906,386.23573000000033,j,386.23578310000084,,,386.2357942000017,None,,,,,,2.037986600000295,0.1990877999996883,,,,,,,,,,00002,001,2025-11-08_18h50.56.769,MST_task,2024.2.2,60.01604829211748,2025-11-08 18h51.02.235495 +0530,
,Objects\104a.jpg,63,0,63,,,,,,,None,f,0.19480299999850104,None,,,,,,,63,0,63,0,386.2523575000014,,,,,,,,,,,,,,,,,,,,,,,386.2358716000017,386.2523575000014,386.75259619999997,386.7360117999997,,,,,,,,,,,,,,,,,,,,,,,,,,386.74636029999965,386.75259619999997,386.75259619999997,386.75259619999997,389.735835200001,None,389.735873900001,389.75227900000027,389.75227900000027,389.95268679999936,f,0.19480299999850104,None,389.75227900000027,389.75227900000027,389.75227900000027,,,,,,,,,,,,00002,001,2025-11-08_18h50.56.769,MST_task,2024.2.2,60.01604829211748,2025-11-08 18h51.02.235495 +0530,
,Objects\156a.jpg,64,0,64,,,,,,,f,None,,,2.737695399999211,0.1678578999999445,,,,,64,0,64,0,389.9689431000006,,,,,,,,,,,,,,,,,,,,,,,389.95278210000106,389.9689431000006,390.4689244000001,390.4525620000022,,,,,,,,,,,,,,,,,,,,,,,,,,390.4623458999995,390.4689244000001,390.4689244000001,390.4689244000001,393.4525269000005,f,393.4525782000019,,,393.4525876000007,None,,,393.4688649999989,393.4688649999989,393.4688649999989,2.737695399999211,0.1678578999999445,,,,,,,,,,00002,001,2025-11-08_18h50.56.769,MST_task,2024.2.2,60.01604829211748,2025-11-08 18h51.02.235495 +0530,
,Objects\035a.jpg,65,0,65,,,,,,,None,f,0.22177360000205226,None,,,,,,,65,0,65,0,393.4688649999989,,,,,,,,,,,,,,,,,,,,,,,393.4526423000025,393.4688649999989,393.9854895999997,393.95242209999924,,,,,,,,,,,,,,,,,,,,,,,,,,393.9704767000003,393.9854895999997,393.9854895999997,393.9854895999997,396.968789999999,None,396.9688458000019,396.9854642999999,396.9854642999999,397.2192087000003,f,0.22177360000205226,None,,,,,,,,,,,,,,,00002,001,2025-11-08_18h50.56.769,MST_task,2024.2.2,60.01604829211748,2025-11-08 18h51.02.235495 +0530,
,Objects\062a.jpg,66,0,66,,,,,,,f,None,,,2.854252199998882,None,,,,,66,0,66,0,397.2364736999989,,,,,,,,,,,,,,,,,,,,,,,397.21927460000006,397.2364736999989,,397.7356046999994,,,,,,,,,,,,,,,,,,,,,,,,,,397.7517617000012,397.76874150000003,397.76874150000003,397.76874150000003,400.7354051000002,f,400.7354492000013,,,400.7354582000007,None,,,,,,2.854252199998882,None,,,,,,,,,,00002,001,2025-11-08_18h50.56.769,MST_task,2024.2.2,60.01604829211748,2025-11-08 18h51.02.235495 +0530,
,Objects\015a.jpg,67,0,67,,,,,,,f,None,,,2.3638966999969853,0.21414330000334303,,,,,67,0,67,0,400.75204640000084,,,,,,,,,,,,,,,,,,,,,,,400.73551059999954,400.75204640000084,,401.23551940000107,,,,,,,,,,,,,,,,,,,,,,,,,,401.2519589000003,401.2686715999989,401.2686715999989,401.2686715999989,404.2519876000006,f,404.25203189999957,,,404.2520407000011,None,,,,,,2.3638966999969853,0.21414330000334303,,,,,,,,,,00002,001,2025-11-08_18h50.56.769,MST_task,2024.2.2,60.01604829211748,2025-11-08 18h51.02.235495 +0530,
,Objects\149a.jpg,68,0,68,,,,,,,f,None,,,1.636124500000733,0.21769359999962035,,,,,68,0,68,0,404.2686242999989,,,,,,,,,,,,,,,,,,,,,,,404.2521149999993,404.2686242999989,404.76868000000104,404.7521584999995,,,,,,,,,,,,,,,,,,,,,,,,,,404.76206319999983,404.76868000000104,404.76868000000104,404.76868000000104,407.75220040000204,f,407.7522448000018,,,407.7522542000006,None,,,407.76854620000086,407.76854620000086,407.76854620000086,1.636124500000733,0.21769359999962035,,,,,,,,,,00002,001,2025-11-08_18h50.56.769,MST_task,2024.2.2,60.01604829211748,2025-11-08 18h51.02.235495 +0530,
,Objects\187a.jpg,69,0,69,,,,,,,j,None,,,2.3668462999994517,0.1786437000009755,,,,,69,0,69,0,407.76854620000086,,,,,,,,,,,,,,,,,,,,,,,407.7523239000002,407.76854620000086,408.26850679999916,408.2520818000012,,,,,,,,,,,,,,,,,,,,,,,,,,408.261993600001,408.26850679999916,408.26850679999916,408.26850679999916,411.25210739999966,j,411.2521534000007,,,411.2521635000012,None,,,411.268493399999,411.268493399999,411.268493399999,2.3668462999994517,0.1786437000009755,,,,,,,,,,00002,001,2025-11-08_18h50.56.769,MST_task,2024.2.2,60.01604829211748,2025-11-08 18h51.02.235495 +0530,
,Scenes\082a.jpg,70,0,70,,,,,,,f,None,,,2.299092200002633,0.298384999998234,,,,,70,0,70,0,411.268493399999,,,,,,,,,,,,,,,,,,,,,,,411.25223840000035,411.268493399999,411.8020021000011,411.75201840000227,,,,,,,,,,,,,,,,,,,,,,,,,,411.788973900002,411.8020021000011,411.8020021000011,411.8020021000011,414.768420700002,f,414.76846999999907,,,414.7684810999999,None,,,,,,2.299092200002633,0.298384999998234,,,,,,,,,,00002,001,2025-11-08_18h50.56.769,MST_task,2024.2.2,60.01604829211748,2025-11-08 18h51.02.235495 +0530,
,Scenes\138a.jpg,71,0,71,,,,,,,j,None,,,2.9007783999986714,None,,,,,71,0,71,0,414.78505750000113,,,,,,,,,,,,,,,,,,,,,,,414.7685644000012,414.78505750000113,415.30171300000075,415.268634,,,,,,,,,,,,,,,,,,,,,,,,,,415.27913550000085,415.30171300000075,415.30171300000075,415.30171300000075,418.28499250000095,j,418.2850349,,,418.28504450000037,None,,,,,,2.9007783999986714,None,,,,,,,,,,00002,001,2025-11-08_18h50.56.769,MST_task,2024.2.2,60.01604829211748,2025-11-08 18h51.02.235495 +0530,
,Scenes\105a.jpg,72,0,72,,,,,,,j,None,,,2.4659928000000946,0.17343020000043907,,,,,72,0,72,0,418.3016456000005,,,,,,,,,,,,,,,,,,,,,,,418.28511730000173,418.3016456000005,418.8349507999992,418.78521810000166,,,,,,,,,,,,,,,,,,,,,,,,,,418.8149733999999,418.8349507999992,418.8349507999992,418.8349507999992,421.78520720000233,j,421.78525499999887,,,421.78526500000225,None,,,,,,2.4659928000000946,0.17343020000043907,,,,,,,,,,00002,001,2025-11-08_18h50.56.769,MST_task,2024.2.2,60.01604829211748,2025-11-08 18h51.02.235495 +0530,
,Scenes\003a.jpg,73,0,73,,,,,,,f,None,,,2.3450120000015886,0.2213592999978573,,,,,73,0,73,0,421.80157260000124,,,,,,,,,,,,,,,,,,,,,,,421.78534070000023,421.80157260000124,422.3184590000019,422.2851511000008,,,,,,,,,,,,,,,,,,,,,,,,,,422.2988590999994,422.3184590000019,422.3184590000019,422.3184590000019,425.301538300002,f,425.30158500000107,,,425.30159569999887,None,,,,,,2.3450120000015886,0.2213592999978573,,,,,,,,,,00002,001,2025-11-08_18h50.56.769,MST_task,2024.2.2,60.01604829211748,2025-11-08 18h51.02.235495 +0530,
,Scenes\018a.jpg,74,0,74,,,,,,,f,None,,,2.9620815999987826,None,,,,,74,0,74,0,425.318159800001,,,,,,,,,,,,,,,,,,,,,,,425.30166850000023,425.318159800001,425.83483609999894,425.8017242999995,,,,,,,,,,,,,,,,,,,,,,,,,,425.813161500002,425.83483609999894,425.83483609999894,425.83483609999894,428.81808210000236,f,428.81813630000033,,,428.8181461999993,None,,,,,,2.9620815999987826,None,,,,,,,,,,00002,001,2025-11-08_18h50.56.769,MST_task,2024.2.2,60.01604829211748,2025-11-08 18h51.02.235495 +0530,
,Scenes\023a.jpg,75,0,75,,,,,,,f,None,,,2.4933664000018325,0.15045850000024075,,,,,75,0,75,0,428.8347480000011,,,,,,,,,,,,,,,,,,,,,,,428.81820030000017,428.8347480000011,429.3517248999997,429.3182839000001,,,,,,,,,,,,,,,,,,,,,,,,,,429.3354935000025,429.3517248999997,429.3517248999997,429.3517248999997,432.33467980000205,f,432.3347219000025,,,432.33473159999994,None,,,,,,2.4933664000018325,0.15045850000024075,,,,,,,,,,00002,001,2025-11-08_18h50.56.769,MST_task,2024.2.2,60.01604829211748,2025-11-08 18h51.02.235495 +0530,
,Scenes\169a.jpg,76,0,76,,,,,,,None,j,0.5496070999979565,None,,,,,,,76,0,76,0,432.3513020999999,,,,,,,,,,,,,,,,,,,,,,,432.3348005000007,432.3513020999999,432.8512918000015,432.8348968999999,,,,,,,,,,,,,,,,,,,,,,,,,,432.8445146000013,432.8512918000015,432.8512918000015,432.8512918000015,435.83485180000207,None,435.8348947000013,435.8512680999993,435.8512680999993,436.4016374999992,j,0.5496070999979565,None,435.8512680999993,435.8512680999993,435.8512680999993,,,,,,,,,,,,00002,001,2025-11-08_18h50.56.769,MST_task,2024.2.2,60.01604829211748,2025-11-08 18h51.02.235495 +0530,
,Objects\124a.jpg,77,0,77,,,,,,,j,None,,,2.864903300000151,None,,,,,77,0,77,0,436.41791849999936,,,,,,,,,,,,,,,,,,,,,,,436.40170910000234,436.41791849999936,436.918187700001,436.90145219999977,,,,,,,,,,,,,,,,,,,,,,,,,,436.91132950000247,436.918187700001,436.918187700001,436.918187700001,439.90139740000086,j,439.90144359999977,,,439.90145380000104,None,,,439.9178342000014,439.9178342000014,439.9178342000014,2.864903300000151,None,,,,,,,,,,00002,001,2025-11-08_18h50.56.769,MST_task,2024.2.2,60.01604829211748,2025-11-08 18h51.02.235495 +0530,
,Objects\021a.jpg,78,0,78,,,,,,,j,None,,,2.5981339999998454,0.20144879999861587,,,,,78,0,78,0,439.9178342000014,,,,,,,,,,,,,,,,,,,,,,,439.9015231000012,439.9178342000014,440.4177918000023,440.4013859000006,,,,,,,,,,,,,,,,,,,,,,,,,,440.4113753999991,440.4177918000023,440.4177918000023,440.4177918000023,443.4014191000024,j,443.4014657000007,,,443.4014754000018,None,,,443.4177665999996,443.4177665999996,443.4177665999996,2.5981339999998454,0.20144879999861587,,,,,,,,,,00002,001,2025-11-08_18h50.56.769,MST_task,2024.2.2,60.01604829211748,2025-11-08 18h51.02.235495 +0530,
,Objects\132a.jpg,79,0,79,,,,,,,j,None,,,2.6599793000023055,0.15676049999819952,,,,,79,0,79,0,443.4177665999996,,,,,,,,,,,,,,,,,,,,,,,443.4015345000007,443.4177665999996,443.9177786,443.9012905000018,,,,,,,,,,,,,,,,,,,,,,,,,,443.9108100000012,443.9177786,443.9177786,443.9177786,446.9012318000023,j,446.90127500000017,,,446.90128430000186,None,,,446.91768819999925,446.91768819999925,446.91768819999925,2.6599793000023055,0.15676049999819952,,,,,,,,,,00002,001,2025-11-08_18h50.56.769,MST_task,2024.2.2,60.01604829211748,2025-11-08 18h51.02.235495 +0530,
,Objects\033a.jpg,80,0,80,,,,,,,j,None,,,2.7667354000004707,0.17405710000093677,,,,,80,0,80,0,446.91768819999925,,,,,,,,,,,,,,,,,,,,,,,446.9013550000018,446.91768819999925,447.4176851000011,447.40117309999914,,,,,,,,,,,,,,,,,,,,,,,,,,447.41132610000204,447.4176851000011,447.4176851000011,447.4176851000011,450.4011845999994,j,450.4012346999989,,,450.4012444,None,,,450.41761079999924,450.41761079999924,450.41761079999924,2.7667354000004707,0.17405710000093677,,,,,,,,,,00002,001,2025-11-08_18h50.56.769,MST_task,2024.2.2,60.01604829211748,2025-11-08 18h51.02.235495 +0530,
,Objects\057a.jpg,81,0,81,,,,,,,f,None,,,2.5171073999990767,0.18588739999904647,,,,,81,0,81,0,450.41761079999924,,,,,,,,,,,,,,,,,,,,,,,450.4013006999994,450.41761079999924,450.9176101000012,450.90116860000126,,,,,,,,,,,,,,,,,,,,,,,,,,450.9111008,450.9176101000012,450.9176101000012,450.9176101000012,453.90109669999947,f,453.90114470000117,,,453.9011543000015,None,,,453.9175314000022,453.9175314000022,453.9175314000022,2.5171073999990767,0.18588739999904647,,,,,,,,,,00002,001,2025-11-08_18h50.56.769,MST_task,2024.2.2,60.01604829211748,2025-11-08 18h51.02.235495 +0530,
,Objects\152a.jpg,82,0,82,,,,,,,f,None,,,2.7367670000021462,0.1674405999983719,,,,,82,0,82,0,453.9175314000022,,,,,,,,,,,,,,,,,,,,,,,453.90120939999906,453.9175314000022,454.4508256000008,454.4010749000008,,,,,,,,,,,,,,,,,,,,,,,,,,454.43460050000067,454.4508256000008,454.4508256000008,454.4508256000008,457.41752690000067,f,457.41757770000186,,,457.4175885000004,None,,,,,,2.7367670000021462,0.1674405999983719,,,,,,,,,,00002,001,2025-11-08_18h50.56.769,MST_task,2024.2.2,60.01604829211748,2025-11-08 18h51.02.235495 +0530,
,Objects\003a.jpg,83,0,83,,,,,,,j,None,,,2.1140177999986918,0.2338065000003553,,,,,83,0,83,0,457.4341182999997,,,,,,,,,,,,,,,,,,,,,,,457.4176664000006,457.4341182999997,457.95077820000006,457.9176167000005,,,,,,,,,,,,,,,,,,,,,,,,,,457.93420329999935,457.95077820000006,457.95077820000006,457.95077820000006,460.93412270000044,j,460.93417110000155,,,460.9341819000001,None,,,,,,2.1140177999986918,0.2338065000003553,,,,,,,,,,00002,001,2025-11-08_18h50.56.769,MST_task,2024.2.2,60.01604829211748,2025-11-08 18h51.02.235495 +0530,
,Scenes\080a.jpg,84,0,84,,,,,,,j,None,,,2.1097620999971696,0.19032390000211308,,,,,84,0,84,0,460.95070940000005,,,,,,,,,,,,,,,,,,,,,,,460.9342590000015,460.95070940000005,461.467328499999,461.4341851999998,,,,,,,,,,,,,,,,,,,,,,,,,,461.445737500002,461.467328499999,461.467328499999,461.467328499999,464.4506618000014,j,464.45070810000107,,,464.4507192000019,None,,,,,,2.1097620999971696,0.19032390000211308,,,,,,,,,,00002,001,2025-11-08_18h50.56.769,MST_task,2024.2.2,60.01604829211748,2025-11-08 18h51.02.235495 +0530,
,Scenes\051a.jpg,85,0,85,,,,,,,j,None,,,2.7535876000001736,None,,,,,85,0,85,0,464.46729760000017,,,,,,,,,,,,,,,,,,,,,,,464.45081890000074,464.46729760000017,,464.95077070000116,,,,,,,,,,,,,,,,,,,,,,,,,,464.9800814000009,465.00084020000213,465.00084020000213,465.00084020000213,467.96722000000227,j,467.9672634000017,,,467.96727309999915,None,,,,,,2.7535876000001736,None,,,,,,,,,,00002,001,2025-11-08_18h50.56.769,MST_task,2024.2.2,60.01604829211748,2025-11-08 18h51.02.235495 +0530,
,Scenes\159a.jpg,86,0,86,,,,,,,j,None,,,2.1182435999980953,0.2215451000010944,,,,,86,0,86,0,467.98388519999935,,,,,,,,,,,,,,,,,,,,,,,467.9673471999995,467.98388519999935,468.500546700001,468.46737829999984,,,,,,,,,,,,,,,,,,,,,,,,,,468.480851100001,468.500546700001,468.500546700001,468.500546700001,471.4838521999991,j,471.48389680000037,,,471.48390740000104,None,,,,,,2.1182435999980953,0.2215451000010944,,,,,,,,,,00002,001,2025-11-08_18h50.56.769,MST_task,2024.2.2,60.01604829211748,2025-11-08 18h51.02.235495 +0530,
,Scenes\149a.jpg,87,0,87,,,,,,,f,None,,,2.688833500000328,0.251083799998014,,,,,87,0,87,0,471.50048009999955,,,,,,,,,,,,,,,,,,,,,,,471.48398649999945,471.50048009999955,472.01709870000195,471.984055500001,,,,,,,,,,,,,,,,,,,,,,,,,,471.99636330000067,472.01709870000195,472.01709870000195,472.01709870000195,475.0004028000003,f,475.00044809999963,,,475.00045800000225,None,,,,,,2.688833500000328,0.251083799998014,,,,,,,,,,00002,001,2025-11-08_18h50.56.769,MST_task,2024.2.2,60.01604829211748,2025-11-08 18h51.02.235495 +0530,
,Scenes\059a.jpg,88,0,88,,,,,,,j,None,,,2.4158198999975866,0.32265000000188593,,,,,88,0,88,0,475.01703160000034,,,,,,,,,,,,,,,,,,,,,,,475.0005129000019,475.01703160000034,,475.5005486000009,,,,,,,,,,,,,,,,,,,,,,,,,,475.5315367000003,475.5503600000011,475.5503600000011,475.5503600000011,478.5170171999998,j,478.51706249999916,,,478.5170715999993,None,,,,,,2.4158198999975866,0.32265000000188593,,,,,,,,,,00002,001,2025-11-08_18h50.56.769,MST_task,2024.2.2,60.01604829211748,2025-11-08 18h51.02.235495 +0530,
,Scenes\009a.jpg,89,0,89,,,,,,,f,None,,,2.943971100001363,None,,,,,89,0,89,0,478.5336414000012,,,,,,,,,,,,,,,,,,,,,,,478.51714640000137,478.5336414000012,479.06726720000006,479.01718840000103,,,,,,,,,,,,,,,,,,,,,,,,,,479.049421300002,479.06726720000006,479.06726720000006,479.06726720000006,482.03359590000036,f,482.03364240000155,,,482.0336532000001,None,,,,,,2.943971100001363,None,,,,,,,,,,00002,001,2025-11-08_18h50.56.769,MST_task,2024.2.2,60.01604829211748,2025-11-08 18h51.02.235495 +0530,
,Scenes\182a.jpg,90,0,90,,,,,,,j,None,,,2.909870299998147,None,,,,,90,0,90,0,482.05023930000243,,,,,,,,,,,,,,,,,,,,,,,482.0337098000018,482.05023930000243,,482.53369680000105,,,,,,,,,,,,,,,,,,,,,,,,,,482.54559620000146,482.5669005999989,482.5669005999989,482.5669005999989,485.5501683000002,j,485.5502163000019,,,485.5502250999998,None,,,,,,2.909870299998147,None,,,,,,,,,,00002,001,2025-11-08_18h50.56.769,MST_task,2024.2.2,60.01604829211748,2025-11-08 18h51.02.235495 +0530,
,Objects\192a.jpg,91,0,91,,,,,,,j,None,,,2.0933633999993617,0.22252379999918048,,,,,91,0,91,0,485.5668269000016,,,,,,,,,,,,,,,,,,,,,,,485.55027960000007,485.5668269000016,486.0670562000014,486.05035730000236,,,,,,,,,,,,,,,,,,,,,,,,,,486.06053760000214,486.0670562000014,486.0670562000014,486.0670562000014,489.05030540000007,j,489.05034929999965,,,489.0503592000023,None,,,489.0667566000011,489.0667566000011,489.0667566000011,2.0933633999993617,0.22252379999918048,,,,,,,,,,00002,001,2025-11-08_18h50.56.769,MST_task,2024.2.2,60.01604829211748,2025-11-08 18h51.02.235495 +0530,
,Objects\055a.jpg,92,0,92,,,,,,,None,f,0.1743646999966586,None,,,,,,,92,0,92,0,489.0667566000011,,,,,,,,,,,,,,,,,,,,,,,489.0504113999996,489.0667566000011,489.56671189999906,489.5502658000005,,,,,,,,,,,,,,,,,,,,,,,,,,489.56015200000184,489.56671189999906,489.56671189999906,489.56671189999906,492.5503984999996,None,492.55044590000034,492.5667246000012,492.5667246000012,492.75034660000165,f,0.1743646999966586,None,492.5667246000012,492.5667246000012,492.5667246000012,,,,,,,,,,,,00002,001,2025-11-08_18h50.56.769,MST_task,2024.2.2,60.01604829211748,2025-11-08 18h51.02.235495 +0530,
,Objects\163a.jpg,93,0,93,,,,,,,f,None,,,2.7541620999982115,0.1384591999994882,,,,,93,0,93,0,492.76667140000063,,,,,,,,,,,,,,,,,,,,,,,492.7504119000005,492.76667140000063,493.2666274000003,493.2501731000011,,,,,,,,,,,,,,,,,,,,,,,,,,493.25970830000006,493.2666274000003,493.2666274000003,493.2666274000003,496.25022589999935,f,496.25027240000054,,,496.25028210000164,None,,,496.2665568000011,496.2665568000011,496.2665568000011,2.7541620999982115,0.1384591999994882,,,,,,,,,,00002,001,2025-11-08_18h50.56.769,MST_task,2024.2.2,60.01604829211748,2025-11-08 18h51.02.235495 +0530,
,Objects\060a.jpg,94,0,94,,,,,,,None,j,0.7944807999992918,None,,,,,,,94,0,94,0,496.2665568000011,,,,,,,,,,,,,,,,,,,,,,,496.25033579999945,496.2665568000011,496.76655310000206,496.7500385000021,,,,,,,,,,,,,,,,,,,,,,,,,,496.7600769000019,496.76655310000206,496.76655310000206,496.76655310000206,499.75021600000036,None,499.75025800000003,499.7664901999997,499.7664901999997,500.566816999999,j,0.7944807999992918,None,499.7664901999997,499.7664901999997,499.7664901999997,,,,,,,,,,,,00002,001,2025-11-08_18h50.56.769,MST_task,2024.2.2,60.01604829211748,2025-11-08 18h51.02.235495 +0530,
,Objects\135a.jpg,95,0,95,,,,,,,f,None,,,1.6217819999983476,0.1968821000009484,,,,,95,0,95,0,500.58316900000136,,,,,,,,,,,,,,,,,,,,,,,500.56689130000086,500.58316900000136,501.0998350000009,501.066739599999,,,,,,,,,,,,,,,,,,,,,,,,,,501.0925494000003,501.0998350000009,501.0998350000009,501.0998350000009,504.0831222000015,f,504.0831701999996,,,504.0831810000018,None,,,,,,1.6217819999983476,0.1968821000009484,,,,,,,,,,00002,001,2025-11-08_18h50.56.769,MST_task,2024.2.2,60.01604829211748,2025-11-08 18h51.02.235495 +0530,
,Objects\044a.jpg,96,0,96,,,,,,,f,None,,,2.380585199996858,0.12885040000037407,,,,,96,0,96,0,504.09976200000165,,,,,,,,,,,,,,,,,,,,,,,504.0832599999994,504.09976200000165,504.59977140000046,504.58330430000206,,,,,,,,,,,,,,,,,,,,,,,,,,504.59311159999925,504.59977140000046,504.59977140000046,504.59977140000046,507.58322110000154,f,507.58326769999985,,,507.5832771000023,None,,,507.599678999999,507.599678999999,507.599678999999,2.380585199996858,0.12885040000037407,,,,,,,,,,00002,001,2025-11-08_18h50.56.769,MST_task,2024.2.2,60.01604829211748,2025-11-08 18h51.02.235495 +0530,
,Objects\020a.jpg,97,0,97,,,,,,,f,None,,,2.357543199999782,0.37155150000035064,,,,,97,0,97,0,507.599678999999,,,,,,,,,,,,,,,,,,,,,,,507.5833301999992,507.599678999999,508.0996563000008,508.0832655000013,,,,,,,,,,,,,,,,,,,,,,,,,,508.0930499999995,508.0996563000008,508.0996563000008,508.0996563000008,511.08312769999975,f,511.08317180000086,,,511.0831820000021,None,,,511.0996057000011,511.0996057000011,511.0996057000011,2.357543199999782,0.37155150000035064,,,,,,,,,,00002,001,2025-11-08_18h50.56.769,MST_task,2024.2.2,60.01604829211748,2025-11-08 18h51.02.235495 +0530,
,Scenes\022a.jpg,98,0,98,,,,,,,j,None,,,2.5167562999995425,0.20221260000107577,,,,,98,0,98,0,511.0996057000011,,,,,,,,,,,,,,,,,,,,,,,511.0832507000014,511.0996057000011,511.59995790000175,511.58309139999983,,,,,,,,,,,,,,,,,,,,,,,,,,511.58976020000046,511.59995790000175,511.59995790000175,511.59995790000175,514.5831395000023,j,514.5831885000007,,,514.5831983999997,None,,,514.5995356999993,514.5995356999993,514.5995356999993,2.5167562999995425,0.20221260000107577,,,,,,,,,,00002,001,2025-11-08_18h50.56.769,MST_task,2024.2.2,60.01604829211748,2025-11-08 18h51.02.235495 +0530,
,Scenes\016a.jpg,99,0,99,,,,,,,None,j,4.438965500001359,None,,,,,,,99,0,99,0,514.5995356999993,,,,,,,,,,,,,,,,,,,,,,,514.5832778000004,514.5995356999993,515.1000810000005,515.083072100002,,,,,,,,,,,,,,,,,,,,,,,,,,515.0932993000024,515.1000810000005,515.1000810000005,515.1000810000005,518.0831546000009,None,518.0831928000007,518.099417100002,518.099417100002,522.5496825000009,j,4.438965500001359,None,518.099417100002,518.099417100002,518.099417100002,,,,,,,,,,,,00002,001,2025-11-08_18h50.56.769,MST_task,2024.2.2,60.01604829211748,2025-11-08 18h51.02.235495 +0530,
,Scenes\014a.jpg,100,0,100,,,,,,,f,None,,,2.5300793000023987,0.16888149999795132,,,,,100,0,100,0,522.5660229000023,,,,,,,,,,,,,,,,,,,,,,,522.5497966000003,522.5660229000023,523.082673500001,523.0495221000019,,,,,,,,,,,,,,,,,,,,,,,,,,523.0640328000009,523.082673500001,523.082673500001,523.082673500001,526.0659384999999,f,526.0659804999996,,,526.0659902000007,None,,,,,,2.5300793000023987,0.16888149999795132,,,,,,,,,,00002,001,2025-11-08_18h50.56.769,MST_task,2024.2.2,60.01604829211748,2025-11-08 18h51.02.235495 +0530,
,Scenes\166a.jpg,101,0,101,,,,,,,j,None,,,2.62791560000187,0.17430869999952847,,,,,101,0,101,0,526.0826106000022,,,,,,,,,,,,,,,,,,,,,,,526.0660466000008,526.0826106000022,526.5828220000003,526.5660648000012,,,,,,,,,,,,,,,,,,,,,,,,,,526.5750989000007,526.5828220000003,526.5828220000003,526.5828220000003,529.5661504000018,j,529.5661934000018,,,529.5662035999994,None,,,529.5825253000003,529.5825253000003,529.5825253000003,2.62791560000187,0.17430869999952847,,,,,,,,,,00002,001,2025-11-08_18h50.56.769,MST_task,2024.2.2,60.01604829211748,2025-11-08 18h51.02.235495 +0530,
,Scenes\044a.jpg,102,0,102,,,,,,,f,None,,,2.40810749999946,0.22874460000093677,,,,,102,0,102,0,529.5825253000003,,,,,,,,,,,,,,,,,,,,,,,529.5662540000012,529.5825253000003,530.0824792000021,530.066068600001,,,,,,,,,,,,,,,,,,,,,,,,,,530.0714284999995,530.0824792000021,530.0824792000021,530.0824792000021,533.066144700002,f,533.0661884000001,,,533.066197600001,None,,,533.0824582999994,533.0824582999994,533.0824582999994,2.40810749999946,0.22874460000093677,,,,,,,,,,00002,001,2025-11-08_18h50.56.769,MST_task,2024.2.2,60.01604829211748,2025-11-08 18h51.02.235495 +0530,
,Scenes\006a.jpg,103,0,103,,,,,,,j,None,,,2.7822369000023173,None,,,,,103,0,103,0,533.0824582999994,,,,,,,,,,,,,,,,,,,,,,,533.0662498999991,533.0824582999994,533.582448000001,533.5660341000003,,,,,,,,,,,,,,,,,,,,,,,,,,533.5716957000004,533.582448000001,533.582448000001,533.582448000001,536.5659292000018,j,536.5659725000005,,,536.5659817000014,None,,,536.5823686000003,536.5823686000003,536.5823686000003,2.7822369000023173,None,,,,,,,,,,00002,001,2025-11-08_18h50.56.769,MST_task,2024.2.2,60.01604829211748,2025-11-08 18h51.02.235495 +0530,
,Scenes\191a.jpg,104,0,104,,,,,,,j,None,,,2.5741884000017308,0.1870718999998644,,,,,104,0,104,0,536.5823686000003,,,,,,,,,,,,,,,,,,,,,,,536.5660344999997,536.5823686000003,537.0992263000007,537.0658537000018,,,,,,,,,,,,,,,,,,,,,,,,,,537.0911169999999,537.0992263000007,537.0992263000007,537.0992263000007,540.0823246,j,540.0823691000005,,,540.0823789999995,None,,,,,,2.5741884000017308,0.1870718999998644,,,,,,,,,,00002,001,2025-11-08_18h50.56.769,MST_task,2024.2.2,60.01604829211748,2025-11-08 18h51.02.235495 +0530,
,Objects\054a.jpg,105,0,105,,,,,,,None,f,0.027040900000429247,None,,,,,,,105,0,105,0,540.098969900002,,,,,,,,,,,,,,,,,,,,,,,540.0824481999989,540.098969900002,540.6161200000024,540.5826818999994,,,,,,,,,,,,,,,,,,,,,,,,,,540.6006242000003,540.6161200000024,540.6161200000024,540.6161200000024,543.5989157000004,None,543.598958300001,543.6155552000018,543.6155552000018,543.6491765999999,f,0.027040900000429247,None,,,,,,,,,,,,,,,00002,001,2025-11-08_18h50.56.769,MST_task,2024.2.2,60.01604829211748,2025-11-08 18h51.02.235495 +0530,
,Objects\164a.jpg,106,0,106,,,,,,,None,j,1.4237174999980198,None,,,,,,,106,0,106,0,543.665555399999,,,,,,,,,,,,,,,,,,,,,,,543.649266299999,543.665555399999,544.1655525000024,544.1491647000003,,,,,,,,,,,,,,,,,,,,,,,,,,544.1590286999999,544.1655525000024,544.1655525000024,544.1655525000024,547.1490655000016,None,547.1491031000005,547.1654861000025,547.1654861000025,548.5991651000004,j,1.4237174999980198,None,547.1654861000025,547.1654861000025,547.1654861000025,,,,,,,,,,,,00002,001,2025-11-08_18h50.56.769,MST_task,2024.2.2,60.01604829211748,2025-11-08 18h51.02.235495 +0530,
,Objects\069a.jpg,107,0,107,,,,,,,None,j,0.43949870000142255,None,,,,,,,107,0,107,0,548.6154490000008,,,,,,,,,,,,,,,,,,,,,,,548.5992652999994,548.6154490000008,549.1154643000009,549.0989703000014,,,,,,,,,,,,,,,,,,,,,,,,,,549.1090413999991,549.1154643000009,549.1154643000009,549.1154643000009,552.0989542000025,None,552.0989986999994,552.1153669000014,552.1153669000014,552.5656282000018,j,0.43949870000142255,None,552.1153669000014,552.1153669000014,552.1153669000014,,,,,,,,,,,,00002,001,2025-11-08_18h50.56.769,MST_task,2024.2.2,60.01604829211748,2025-11-08 18h51.02.235495 +0530,
,Objects\014a.jpg,108,0,108,,,,,,,f,None,,,2.96534039999824,None,,,,,108,0,108,0,552.5820304000008,,,,,,,,,,,,,,,,,,,,,,,552.5657279000006,552.5820304000008,553.0820239999994,553.0656851000022,,,,,,,,,,,,,,,,,,,,,,,,,,553.0755267000022,553.0820239999994,553.0820239999994,553.0820239999994,556.0655401000004,f,556.0655875000011,,,556.0655970000007,None,,,556.0819479999991,556.0819479999991,556.0819479999991,2.96534039999824,None,,,,,,,,,,00002,001,2025-11-08_18h50.56.769,MST_task,2024.2.2,60.01604829211748,2025-11-08 18h51.02.235495 +0530,
,Objects\113a.jpg,109,0,109,,,,,,,j,None,,,2.5729204999988724,0.14574010000069393,,,,,109,0,109,0,556.0819479999991,,,,,,,,,,,,,,,,,,,,,,,556.0656660999994,556.0819479999991,556.5819278000017,556.5654159000005,,,,,,,,,,,,,,,,,,,,,,,,,,556.5755355000001,556.5819278000017,556.5819278000017,556.5819278000017,559.5654160000013,j,559.5654605999989,,,559.5654699000006,None,,,559.5818686999992,559.5818686999992,559.5818686999992,2.5729204999988724,0.14574010000069393,,,,,,,,,,00002,001,2025-11-08_18h50.56.769,MST_task,2024.2.2,60.01604829211748,2025-11-08 18h51.02.235495 +0530,
,Objects\170a.jpg,110,0,110,,,,,,,None,j,2.5226927999974578,None,,,,,,,110,0,110,0,559.5818686999992,,,,,,,,,,,,,,,,,,,,,,,559.5655237999999,559.5818686999992,560.0818677999996,560.065349200002,,,,,,,,,,,,,,,,,,,,,,,,,,560.0754841000016,560.0818677999996,560.0818677999996,560.0818677999996,563.065467700002,None,563.0655177000008,563.0817915000007,563.0817915000007,565.6155988999999,j,2.5226927999974578,None,563.0817915000007,563.0817915000007,563.0817915000007,,,,,,,,,,,,00002,001,2025-11-08_18h50.56.769,MST_task,2024.2.2,60.01604829211748,2025-11-08 18h51.02.235495 +0530,
,Objects\032a.jpg,111,0,111,,,,,,,None,f,0.20210670000233222,None,,,,,,,111,0,111,0,565.6317329000012,,,,,,,,,,,,,,,,,,,,,,,565.6156769000008,565.6317329000012,566.1483842000016,566.1152065000024,,,,,,,,,,,,,,,,,,,,,,,,,,566.1313559000009,566.1483842000016,566.1483842000016,566.1483842000016,569.1317397000021,None,569.1317944000002,569.1483245999989,569.1483245999989,569.3652342999994,f,0.20210670000233222,None,,,,,,,,,,,,,,,00002,001,2025-11-08_18h50.56.769,MST_task,2024.2.2,60.01604829211748,2025-11-08 18h51.02.235495 +0530,
,Scenes\178a.jpg,112,0,112,,,,,,,None,f,0.34866750000219326,None,,,,,,,112,0,112,0,569.3816475999993,,,,,,,,,,,,,,,,,,,,,,,569.3653350000022,569.3816475999993,569.8985355000004,569.8650985000022,,,,,,,,,,,,,,,,,,,,,,,,,,569.8907986000013,569.8985355000004,569.8985355000004,569.8985355000004,572.8816528000025,None,572.8816929000022,572.8982634000022,572.8982634000022,573.2486525999993,f,0.34866750000219326,None,,,,,,,,,,,,,,,00002,001,2025-11-08_18h50.56.769,MST_task,2024.2.2,60.01604829211748,2025-11-08 18h51.02.235495 +0530,
,Scenes\052a.jpg,113,0,113,,,,,,,j,None,,,2.7333609000015713,0.14666639999995823,,,,,113,0,113,0,573.2648998000004,,,,,,,,,,,,,,,,,,,,,,,573.2487269000012,573.2648998000004,573.798187700002,573.7485163999991,,,,,,,,,,,,,,,,,,,,,,,,,,573.7828926000002,573.798187700002,573.798187700002,573.798187700002,576.7648773000001,j,576.7649348000014,,,576.7649448000011,None,,,,,,2.7333609000015713,0.14666639999995823,,,,,,,,,,00002,001,2025-11-08_18h50.56.769,MST_task,2024.2.2,60.01604829211748,2025-11-08 18h51.02.235495 +0530,
,Scenes\028a.jpg,114,0,114,,,,,,,j,None,,,1.5550603000010597,0.16804919999776757,,,,,114,0,114,0,576.781466700002,,,,,,,,,,,,,,,,,,,,,,,576.7650033999998,576.781466700002,577.2981433999994,577.2650467000021,,,,,,,,,,,,,,,,,,,,,,,,,,577.2758357000021,577.2981433999994,577.2981433999994,577.2981433999994,580.281468600002,j,580.2815149000016,,,580.2815250000021,None,,,,,,1.5550603000010597,0.16804919999776757,,,,,,,,,,00002,001,2025-11-08_18h50.56.769,MST_task,2024.2.2,60.01604829211748,2025-11-08 18h51.02.235495 +0530,
,Scenes\173a.jpg,115,0,115,,,,,,,j,None,,,1.5891736000012315,0.20990919999894686,,,,,115,0,115,0,580.2980491000017,,,,,,,,,,,,,,,,,,,,,,,580.281598900001,580.2980491000017,580.7980291000022,580.7815475000025,,,,,,,,,,,,,,,,,,,,,,,,,,580.7909459000002,580.7980291000022,580.7980291000022,580.7980291000022,583.7816411999993,j,583.7816850999989,,,583.7816942999998,None,,,583.7979746000019,583.7979746000019,583.7979746000019,1.5891736000012315,0.20990919999894686,,,,,,,,,,00002,001,2025-11-08_18h50.56.769,MST_task,2024.2.2,60.01604829211748,2025-11-08 18h51.02.235495 +0530,
,Scenes\103a.jpg,116,0,116,,,,,,,j,None,,,2.786367500000779,0.09340479999809759,,,,,116,0,116,0,583.7979746000019,,,,,,,,,,,,,,,,,,,,,,,583.7817488000001,583.7979746000019,584.314614400002,584.2815701,,,,,,,,,,,,,,,,,,,,,,,,,,584.2941663999991,584.314614400002,584.314614400002,584.314614400002,587.2979489999998,j,587.2979940000005,,,587.2980052000021,None,,,,,,2.786367500000779,0.09340479999809759,,,,,,,,,,00002,001,2025-11-08_18h50.56.769,MST_task,2024.2.2,60.01604829211748,2025-11-08 18h51.02.235495 +0530,
,Scenes\167a.jpg,117,0,117,,,,,,,f,None,,,1.9696627000012086,0.2421265000011772,,,,,117,0,117,0,587.3145870000008,,,,,,,,,,,,,,,,,,,,,,,587.2980783000021,587.3145870000008,587.8314455,587.798138099999,,,,,,,,,,,,,,,,,,,,,,,,,,587.8122432000018,587.8314455,587.8314455,587.8314455,590.8146304000002,f,590.8146785999998,,,590.8146892000004,None,,,,,,1.9696627000012086,0.2421265000011772,,,,,,,,,,00002,001,2025-11-08_18h50.56.769,MST_task,2024.2.2,60.01604829211748,2025-11-08 18h51.02.235495 +0530,
,Scenes\107a.jpg,118,0,118,,,,,,,j,None,,,0.8289196000005177,0.1817401999978756,,,,,118,0,118,0,590.8312092000015,,,,,,,,,,,,,,,,,,,,,,,590.8147730000019,590.8312092000015,591.3478063000002,591.3146575999999,,,,,,,,,,,,,,,,,,,,,,,,,,591.3263847000017,591.3478063000002,591.3478063000002,591.3478063000002,594.331159100002,j,594.3312126000019,,,594.3312229000003,None,,,,,,0.8289196000005177,0.1817401999978756,,,,,,,,,,00002,001,2025-11-08_18h50.56.769,MST_task,2024.2.2,60.01604829211748,2025-11-08 18h51.02.235495 +0530,
,Objects\023a.jpg,119,0,119,,,,,,,f,None,,,2.5243182000012894,0.1590459999970335,,,,,119,0,119,0,594.347736300002,,,,,,,,,,,,,,,,,,,,,,,594.3312862999992,594.347736300002,594.8481896000012,594.8312403999989,,,,,,,,,,,,,,,,,,,,,,,,,,594.8414744000002,594.8481896000012,594.8481896000012,594.8481896000012,597.8312905999992,f,597.8313391000011,,,597.831349,None,,,597.8476959,597.8476959,597.8476959,2.5243182000012894,0.1590459999970335,,,,,,,,,,00002,001,2025-11-08_18h50.56.769,MST_task,2024.2.2,60.01604829211748,2025-11-08 18h51.02.235495 +0530,
,Objects\141a.jpg,120,0,120,,,,,,,None,j,2.1070557000020926,None,,,,,,,120,0,120,0,597.8476959,,,,,,,,,,,,,,,,,,,,,,,597.831403799999,597.8476959,598.3477131,598.3311888999997,,,,,,,,,,,,,,,,,,,,,,,,,,598.3409328000016,598.3477131,598.3477131,598.3477131,601.3311663999993,None,601.3312084999998,601.3476101000015,601.3476101000015,603.4646121000005,j,2.1070557000020926,None,601.3476101000015,601.3476101000015,601.3476101000015,,,,,,,,,,,,00002,001,2025-11-08_18h50.56.769,MST_task,2024.2.2,60.01604829211748,2025-11-08 18h51.02.235495 +0530,
,Objects\145a.jpg,121,0,121,,,,,,,None,j,0.16979630000059842,None,,,,,,,121,0,121,0,603.4808952999992,,,,,,,,,,,,,,,,,,,,,,,603.4646945999993,603.4808952999992,603.9808761999993,603.9644090000002,,,,,,,,,,,,,,,,,,,,,,,,,,603.9745925000025,603.9808761999993,603.9808761999993,603.9808761999993,606.964506100001,None,606.9645497999991,606.9808192000019,606.9808192000019,607.164571199999,j,0.16979630000059842,None,606.9808192000019,606.9808192000019,606.9808192000019,,,,,,,,,,,,00002,001,2025-11-08_18h50.56.769,MST_task,2024.2.2,60.01604829211748,2025-11-08 18h51.02.235495 +0530,
,Objects\110a.jpg,122,0,122,,,,,,,None,j,0.16390440000031958,None,,,,,,,122,0,122,0,607.1808232000003,,,,,,,,,,,,,,,,,,,,,,,607.1646755000002,607.1808232000003,607.6807919999992,607.6643484000015,,,,,,,,,,,,,,,,,,,,,,,,,,607.6742742999995,607.6807919999992,607.6807919999992,607.6807919999992,610.6643316000009,None,610.6643719999993,610.6807687,610.6807687,610.8476652999998,j,0.16390440000031958,None,610.6807687,610.6807687,610.6807687,,,,,,,,,,,,00002,001,2025-11-08_18h50.56.769,MST_task,2024.2.2,60.01604829211748,2025-11-08 18h51.02.235495 +0530,
,Objects\051a.jpg,123,0,123,,,,,,,None,f,0.2003636000008555,None,,,,,,,123,0,123,0,610.8640739000002,,,,,,,,,,,,,,,,,,,,,,,610.8477242000008,610.8640739000002,611.3640463000011,611.3475475000014,,,,,,,,,,,,,,,,,,,,,,,,,,611.3574593000012,611.3640463000011,611.3640463000011,611.3640463000011,614.3475607,None,614.3476040000023,614.3640145999998,614.3640145999998,614.5810419000009,f,0.2003636000008555,None,614.3640145999998,614.3640145999998,614.3640145999998,,,,,,,,,,,,00002,001,2025-11-08_18h50.56.769,MST_task,2024.2.2,60.01604829211748,2025-11-08 18h51.02.235495 +0530,
,Objects\024a.jpg,124,0,124,,,,,,,j,None,,,2.897467399998277,None,,,,,124,0,124,0,614.5973255999997,,,,,,,,,,,,,,,,,,,,,,,614.5811257000023,614.5973255999997,615.0972843000018,615.0809627000017,,,,,,,,,,,,,,,,,,,,,,,,,,615.0910885000012,615.0972843000018,615.0972843000018,615.0972843000018,618.0808214999997,j,618.0808648999991,,,618.0808742000008,None,,,618.0972514000023,618.0972514000023,618.0972514000023,2.897467399998277,None,,,,,,,,,,00002,001,2025-11-08_18h50.56.769,MST_task,2024.2.2,60.01604829211748,2025-11-08 18h51.02.235495 +0530,
,Objects\173a.jpg,125,0,125,,,,,,,None,f,0.20004189999963273,None,,,,,,,125,0,125,0,618.0972514000023,,,,,,,,,,,,,,,,,,,,,,,618.0809429000001,618.0972514000023,618.5972545000004,618.5807335999998,,,,,,,,,,,,,,,,,,,,,,,,,,618.5910070999998,618.5972545000004,618.5972545000004,618.5972545000004,621.5808495000019,None,621.5808883999998,621.597192199999,621.597192199999,621.7975957000017,f,0.20004189999963273,None,621.597192199999,621.597192199999,621.597192199999,,,,,,,,,,,,00002,001,2025-11-08_18h50.56.769,MST_task,2024.2.2,60.01604829211748,2025-11-08 18h51.02.235495 +0530,
,Scenes\163a.jpg,126,0,126,,,,,,,None,j,0.03222249999816995,None,,,,,,,126,0,126,0,621.8137956999999,,,,,,,,,,,,,,,,,,,,,,,621.797684600002,621.8137956999999,622.3304470000003,622.2974724000014,,,,,,,,,,,,,,,,,,,,,,,,,,622.3186375000005,622.3304470000003,622.3304470000003,622.3304470000003,625.3138747000012,None,625.3139222999998,625.3304205999993,625.3304205999993,625.3640682000005,j,0.03222249999816995,None,,,,,,,,,,,,,,,00002,001,2025-11-08_18h50.56.769,MST_task,2024.2.2,60.01604829211748,2025-11-08 18h51.02.235495 +0530,
,Scenes\063a.jpg,127,0,127,,,,,,,j,None,,,2.8262737999975798,0.09728500000346685,,,,,127,0,127,0,625.3804168000024,,,,,,,,,,,,,,,,,,,,,,,625.3641545999999,625.3804168000024,625.8803933000017,625.8639710000025,,,,,,,,,,,,,,,,,,,,,,,,,,625.872674000002,625.8803933000017,625.8803933000017,625.8803933000017,628.8638801000016,j,628.8639232999994,,,628.8639335000007,None,,,628.8803411000008,628.8803411000008,628.8803411000008,2.8262737999975798,0.09728500000346685,,,,,,,,,,00002,001,2025-11-08_18h50.56.769,MST_task,2024.2.2,60.01604829211748,2025-11-08 18h51.02.235495 +0530,
,Scenes\165a.jpg,128,0,128,,,,,,,None,f,0.360117000000173,None,,,,,,,128,0,128,0,628.8803411000008,,,,,,,,,,,,,,,,,,,,,,,628.8640076000011,628.8803411000008,629.3969629000021,629.3638926999993,,,,,,,,,,,,,,,,,,,,,,,,,,629.3769974000024,629.3969629000021,629.3969629000021,629.3969629000021,632.3803875000012,None,632.3804400000008,632.3969260000013,632.3969260000013,632.7639148000017,f,0.360117000000173,None,,,,,,,,,,,,,,,00002,001,2025-11-08_18h50.56.769,MST_task,2024.2.2,60.01604829211748,2025-11-08 18h51.02.235495 +0530,
,Scenes\050a.jpg,129,0,129,,,,,,,j,None,,,1.9721491999989667,0.2020072999985132,,,,,129,0,129,0,632.7802539000004,,,,,,,,,,,,,,,,,,,,,,,632.7639976999999,632.7802539000004,633.2965007999992,633.263693500001,,,,,,,,,,,,,,,,,,,,,,,,,,633.290435400002,633.2965007999992,633.2965007999992,633.2965007999992,636.2803032000011,j,636.280352400001,,,636.2803628000001,None,,,,,,1.9721491999989667,0.2020072999985132,,,,,,,,,,00002,001,2025-11-08_18h50.56.769,MST_task,2024.2.2,60.01604829211748,2025-11-08 18h51.02.235495 +0530,
,Scenes\062a.jpg,130,0,130,,,,,,,j,None,,,0.03740749999997206,0.11741269999765791,,,,,130,0,130,0,636.2968428000022,,,,,,,,,,,,,,,,,,,,,,,636.2804412000005,636.2968428000022,636.8135389000017,636.7802994000012,,,,,,,,,,,,,,,,,,,,,,,,,,636.7935398000009,636.8135389000017,636.8135389000017,636.8135389000017,639.7968521000003,j,639.7968975000003,,,639.7969078000024,None,,,,,,0.03740749999997206,0.11741269999765791,,,,,,,,,,00002,001,2025-11-08_18h50.56.769,MST_task,2024.2.2,60.01604829211748,2025-11-08 18h51.02.235495 +0530,
,Scenes\157a.jpg,131,0,131,,,,,,,j,None,,,2.9106658000018797,None,,,,,131,0,131,0,639.8134360000004,,,,,,,,,,,,,,,,,,,,,,,639.796984200002,639.8134360000004,640.3303440999989,640.2970882000009,,,,,,,,,,,,,,,,,,,,,,,,,,640.3083581999999,640.3303440999989,640.3303440999989,640.3303440999989,643.313363600002,j,643.3134100000025,,,643.3134202000001,None,,,,,,2.9106658000018797,None,,,,,,,,,,00002,001,2025-11-08_18h50.56.769,MST_task,2024.2.2,60.01604829211748,2025-11-08 18h51.02.235495 +0530,
,Scenes\068a.jpg,132,0,132,,,,,,,j,None,,,2.5154519000025175,0.11038439999902039,,,,,132,0,132,0,643.3300641000023,,,,,,,,,,,,,,,,,,,,,,,643.3134941999997,643.3300641000023,643.8466762999997,643.8135168000008,,,,,,,,,,,,,,,,,,,,,,,,,,643.8270075,643.8466762999997,643.8466762999997,643.8466762999997,646.8300786,j,646.8301315999997,,,646.8301423000012,None,,,,,,2.5154519000025175,0.11038439999902039,,,,,,,,,,00002,001,2025-11-08_18h50.56.769,MST_task,2024.2.2,60.01604829211748,2025-11-08 18h51.02.235495 +0530,
,Objects\087a.jpg,133,0,133,,,,,,,j,None,,,2.3832972000018344,0.14605049999954645,,,,,133,0,133,0,646.846612100002,,,,,,,,,,,,,,,,,,,,,,,646.8302160000021,646.846612100002,647.3634225000023,647.3301229999997,,,,,,,,,,,,,,,,,,,,,,,,,,647.346506599999,647.3634225000023,647.3634225000023,647.3634225000023,650.3465777999991,j,650.346639899999,,,650.3466503999989,None,,,,,,2.3832972000018344,0.14605049999954645,,,,,,,,,,00002,001,2025-11-08_18h50.56.769,MST_task,2024.2.2,60.01604829211748,2025-11-08 18h51.02.235495 +0530,
,Objects\126a.jpg,134,0,134,,,,,,,j,None,,,2.379921200001263,0.18930969999928493,,,,,134,0,134,0,650.3632693,,,,,,,,,,,,,,,,,,,,,,,650.3467383999996,650.3632693,650.8631514000008,650.8466845000003,,,,,,,,,,,,,,,,,,,,,,,,,,650.8570127999992,650.8631514000008,650.8631514000008,650.8631514000008,653.8466912000004,j,653.8467369999998,,,653.8467464999994,None,,,653.8631247000012,653.8631247000012,653.8631247000012,2.379921200001263,0.18930969999928493,,,,,,,,,,00002,001,2025-11-08_18h50.56.769,MST_task,2024.2.2,60.01604829211748,2025-11-08 18h51.02.235495 +0530,
,Objects\083a.jpg,135,0,135,,,,,,,f,None,,,2.873375800001668,None,,,,,135,0,135,0,653.8631247000012,,,,,,,,,,,,,,,,,,,,,,,653.846803299999,653.8631247000012,654.3630912000008,654.3465974999999,,,,,,,,,,,,,,,,,,,,,,,,,,654.3564828000017,654.3630912000008,654.3630912000008,654.3630912000008,657.346764599999,f,657.3468118000019,,,657.3468219000024,None,,,657.3630431999991,657.3630431999991,657.3630431999991,2.873375800001668,None,,,,,,,,,,00002,001,2025-11-08_18h50.56.769,MST_task,2024.2.2,60.01604829211748,2025-11-08 18h51.02.235495 +0530,
,Objects\181a.jpg,136,0,136,,,,,,,None,f,0.024377400000958005,None,,,,,,,136,0,136,0,657.3630431999991,,,,,,,,,,,,,,,,,,,,,,,657.346876399999,657.3630431999991,657.8630042000004,657.8465294000016,,,,,,,,,,,,,,,,,,,,,,,,,,657.8563056999992,657.8630042000004,657.8630042000004,657.8630042000004,660.846659400002,None,660.8467000000019,660.8629662000021,660.8629662000021,660.8966022999994,f,0.024377400000958005,None,660.8629662000021,660.8629662000021,660.8629662000021,,,,,,,,,,,,00002,001,2025-11-08_18h50.56.769,MST_task,2024.2.2,60.01604829211748,2025-11-08 18h51.02.235495 +0530,
,Objects\076a.jpg,137,0,137,,,,,,,j,None,,,1.7557505000004312,0.22612189999927068,,,,,137,0,137,0,660.9129304000016,,,,,,,,,,,,,,,,,,,,,,,660.8966590000018,660.9129304000016,661.4129424999992,661.3964591000004,,,,,,,,,,,,,,,,,,,,,,,,,,661.4069211999995,661.4129424999992,661.4129424999992,661.4129424999992,664.3965090999991,j,664.3965520999991,,,664.396561900001,None,,,664.4128918000024,664.4128918000024,664.4128918000024,1.7557505000004312,0.22612189999927068,,,,,,,,,,00002,001,2025-11-08_18h50.56.769,MST_task,2024.2.2,60.01604829211748,2025-11-08 18h51.02.235495 +0530,
,Objects\085a.jpg,138,0,138,,,,,,,f,None,,,2.8561654000004637,None,,,,,138,0,138,0,664.4128918000024,,,,,,,,,,,,,,,,,,,,,,,664.3966356000019,664.4128918000024,664.9128428000004,664.8963590999992,,,,,,,,,,,,,,,,,,,,,,,,,,664.9063523000004,664.9128428000004,664.9128428000004,664.9128428000004,667.8964040999999,f,667.8964453000008,,,667.896454400001,None,,,667.9128177999992,667.9128177999992,667.9128177999992,2.8561654000004637,None,,,,,,,,,,00002,001,2025-11-08_18h50.56.769,MST_task,2024.2.2,60.01604829211748,2025-11-08 18h51.02.235495 +0530,
,Objects\078a.jpg,139,0,139,,,,,,,None,f,0.2293392000028689,None,,,,,,,139,0,139,0,667.9128177999992,,,,,,,,,,,,,,,,,,,,,,,667.8965223000014,667.9128177999992,668.4127683000006,668.3962943000006,,,,,,,,,,,,,,,,,,,,,,,,,,668.4074946000001,668.4127683000006,668.4127683000006,668.4127683000006,671.3964288999996,None,671.3964717000017,671.4127411000009,671.4127411000009,671.6464118000004,f,0.2293392000028689,None,671.4127411000009,671.4127411000009,671.4127411000009,,,,,,,,,,,,00002,001,2025-11-08_18h50.56.769,MST_task,2024.2.2,60.01604829211748,2025-11-08 18h51.02.235495 +0530,
,Scenes\161a.jpg,140,0,140,,,,,,,j,None,,,2.083648899999389,0.2055772000021534,,,,,140,0,140,0,671.6627341999992,,,,,,,,,,,,,,,,,,,,,,,671.6464818000022,671.6627341999992,672.1793892000023,672.1463026999991,,,,,,,,,,,,,,,,,,,,,,,,,,672.1589444000019,672.1793892000023,672.1793892000023,672.1793892000023,675.1627179000025,j,675.162761800002,,,675.1627719999997,None,,,,,,2.083648899999389,0.2055772000021534,,,,,,,,,,00002,001,2025-11-08_18h50.56.769,MST_task,2024.2.2,60.01604829211748,2025-11-08 18h51.02.235495 +0530,
,Scenes\153a.jpg,141,0,141,,,,,,,j,None,,,2.3013726999997743,0.20993799999996554,,,,,141,0,141,0,675.1793178000007,,,,,,,,,,,,,,,,,,,,,,,675.1628707999989,675.1793178000007,675.6959592999992,675.6629001000001,,,,,,,,,,,,,,,,,,,,,,,,,,675.673647399999,675.6959592999992,675.6959592999992,675.6959592999992,678.6792683999993,j,678.6793414000022,,,678.6793529999995,None,,,,,,2.3013726999997743,0.20993799999996554,,,,,,,,,,00002,001,2025-11-08_18h50.56.769,MST_task,2024.2.2,60.01604829211748,2025-11-08 18h51.02.235495 +0530,
,Scenes\058a.jpg,142,0,142,,,,,,,None,f,0.3060592000001634,None,,,,,,,142,0,142,0,678.695911499999,,,,,,,,,,,,,,,,,,,,,,,678.6794330000012,678.695911499999,679.2125331999996,679.1793867000015,,,,,,,,,,,,,,,,,,,,,,,,,,679.1920969999992,679.2125331999996,679.2125331999996,679.2125331999996,682.1958785999996,None,682.1959205000021,682.2125006999995,682.2125006999995,682.5294479000004,f,0.3060592000001634,None,,,,,,,,,,,,,,,00002,001,2025-11-08_18h50.56.769,MST_task,2024.2.2,60.01604829211748,2025-11-08 18h51.02.235495 +0530,
,Scenes\114a.jpg,143,0,143,,,,,,,None,f,0.14500910000060685,None,,,,,,,143,0,143,0,682.5457926000017,,,,,,,,,,,,,,,,,,,,,,,682.5295423999996,682.5457926000017,683.0457921000016,683.0293945000012,,,,,,,,,,,,,,,,,,,,,,,,,,683.0376121000008,683.0457921000016,683.0457921000016,683.0457921000016,686.0293361000004,None,686.0293778000014,686.0457558000016,686.0457558000016,686.1960758000023,f,0.14500910000060685,None,686.0457558000016,686.0457558000016,686.0457558000016,,,,,,,,,,,,00002,001,2025-11-08_18h50.56.769,MST_task,2024.2.2,60.01604829211748,2025-11-08 18h51.02.235495 +0530,
,Scenes\093a.jpg,144,0,144,,,,,,,f,None,,,2.3663040999999794,0.17821009999897797,,,,,144,0,144,0,686.2124199999998,,,,,,,,,,,,,,,,,,,,,,,686.1961721000007,686.2124199999998,686.7123744000019,686.6959081000023,,,,,,,,,,,,,,,,,,,,,,,,,,686.7025696000019,686.7123744000019,686.7123744000019,686.7123744000019,689.6959473999996,f,689.6959906000011,,,689.6960002000014,None,,,689.7123745999997,689.7123745999997,689.7123745999997,2.3663040999999794,0.17821009999897797,,,,,,,,,,00002,001,2025-11-08_18h50.56.769,MST_task,2024.2.2,60.01604829211748,2025-11-08 18h51.02.235495 +0530,
,Scenes\078a.jpg,145,0,145,,,,,,,j,None,,,2.75389290000021,0.13255860000208486,,,,,145,0,145,0,689.7123745999997,,,,,,,,,,,,,,,,,,,,,,,689.6960725999998,689.7123745999997,690.2291841000006,690.1957995000012,,,,,,,,,,,,,,,,,,,,,,,,,,690.2087361000013,690.2291841000006,690.2291841000006,690.2291841000006,693.2123786000011,j,693.2124248,,,693.2124350000013,None,,,,,,2.75389290000021,0.13255860000208486,,,,,,,,,,00002,001,2025-11-08_18h50.56.769,MST_task,2024.2.2,60.01604829211748,2025-11-08 18h51.02.235495 +0530,
,Scenes\069a.jpg,146,0,146,,,,,,,j,None,,,2.2388180999987526,0.24206749999939348,,,,,146,0,146,0,693.2289249999994,,,,,,,,,,,,,,,,,,,,,,,693.2125149000021,693.2289249999994,693.7455750000008,693.712395999999,,,,,,,,,,,,,,,,,,,,,,,,,,693.7232473000004,693.7455750000008,693.7455750000008,693.7455750000008,696.7288774000008,j,696.7289347000005,,,696.7289449999989,None,,,,,,2.2388180999987526,0.24206749999939348,,,,,,,,,,00002,001,2025-11-08_18h50.56.769,MST_task,2024.2.2,60.01604829211748,2025-11-08 18h51.02.235495 +0530,
,Objects\183a.jpg,147,0,147,,,,,,,None,f,1.1130313999965438,None,,,,,,,147,0,147,0,696.7455162000006,,,,,,,,,,,,,,,,,,,,,,,696.729024799999,696.7455162000006,697.2456999000024,697.2289779000021,,,,,,,,,,,,,,,,,,,,,,,,,,697.2393539000004,697.2456999000024,697.2456999000024,697.2456999000024,700.2290030000004,None,700.2290510000021,700.2454337999989,700.2454337999989,701.3624087999997,f,1.1130313999965438,None,700.2454337999989,700.2454337999989,700.2454337999989,,,,,,,,,,,,00002,001,2025-11-08_18h50.56.769,MST_task,2024.2.2,60.01604829211748,2025-11-08 18h51.02.235495 +0530,
,Objects\137a.jpg,148,0,148,,,,,,,f,None,,,2.398473599998397,0.21828169999935199,,,,,148,0,148,0,701.3787107999997,,,,,,,,,,,,,,,,,,,,,,,701.3625227000011,701.3787107999997,701.8787000000011,701.8623609000024,,,,,,,,,,,,,,,,,,,,,,,,,,701.8739532,701.8787000000011,701.8787000000011,701.8787000000011,704.8623293000019,f,704.8623721000004,,,704.8623815999999,None,,,704.8786313000019,704.8786313000019,704.8786313000019,2.398473599998397,0.21828169999935199,,,,,,,,,,00002,001,2025-11-08_18h50.56.769,MST_task,2024.2.2,60.01604829211748,2025-11-08 18h51.02.235495 +0530,
,Objects\042a.jpg,149,0,149,,,,,,,None,f,0.011860599999636179,None,,,,,,,149,0,149,0,704.8786313000019,,,,,,,,,,,,,,,,,,,,,,,704.8624367000011,704.8786313000019,705.3952829000009,705.3621303,,,,,,,,,,,,,,,,,,,,,,,,,,705.3790394999996,705.3952829000009,705.3952829000009,705.3952829000009,708.3786715999995,None,708.3787135999992,708.3952152999991,708.3952152999991,708.4123319999999,f,0.011860599999636179,None,,,,,,,,,,,,,,,00002,001,2025-11-08_18h50.56.769,MST_task,2024.2.2,60.01604829211748,2025-11-08 18h51.02.235495 +0530,
,Objects\002a.jpg,150,0,150,,,,,,,f,None,,,2.3343036999976903,0.1614728999993531,,,,,150,0,150,0,708.4285903000018,,,,,,,,,,,,,,,,,,,,,,,708.4124054999993,708.4285903000018,708.9285934,708.9120872000021,,,,,,,,,,,,,,,,,,,,,,,,,,708.9222019000008,708.9285934,708.9285934,708.9285934,711.9121931000009,f,711.9122376000014,,,711.9122473000025,None,,,711.9285120999994,711.9285120999994,711.9285120999994,2.3343036999976903,0.1614728999993531,,,,,,,,,,00002,001,2025-11-08_18h50.56.769,MST_task,2024.2.2,60.01604829211748,2025-11-08 18h51.02.235495 +0530,
,Objects\017a.jpg,151,0,151,,,,,,,f,None,,,2.1726492999987386,0.24524360000214074,,,,,151,0,151,0,711.9285120999994,,,,,,,,,,,,,,,,,,,,,,,711.9123199999995,711.9285120999994,712.4285143000016,712.4120015000008,,,,,,,,,,,,,,,,,,,,,,,,,,712.4217841999998,712.4285143000016,712.4285143000016,712.4285143000016,715.4121087999993,f,715.4121660000019,,,715.4121765999989,None,,,715.4284379000019,715.4284379000019,715.4284379000019,2.1726492999987386,0.24524360000214074,,,,,,,,,,00002,001,2025-11-08_18h50.56.769,MST_task,2024.2.2,60.01604829211748,2025-11-08 18h51.02.235495 +0530,
,Objects\056a.jpg,152,0,152,,,,,,,f,None,,,2.7644279999985883,None,,,,,152,0,152,0,715.4284379000019,,,,,,,,,,,,,,,,,,,,,,,715.4122367999989,715.4284379000019,715.9284211000013,715.9119586000015,,,,,,,,,,,,,,,,,,,,,,,,,,715.9215661000017,715.9284211000013,715.9284211000013,715.9284211000013,718.9119707999998,f,718.912011700002,,,718.9120212000016,None,,,718.9283599000009,718.9283599000009,718.9283599000009,2.7644279999985883,None,,,,,,,,,,00002,001,2025-11-08_18h50.56.769,MST_task,2024.2.2,60.01604829211748,2025-11-08 18h51.02.235495 +0530,
,Objects\040a.jpg,153,0,153,,,,,,,None,f,0.31497590000071796,None,,,,,,,153,0,153,0,718.9283599000009,,,,,,,,,,,,,,,,,,,,,,,718.9120720999999,718.9283599000009,719.4450386999997,719.4119480000008,,,,,,,,,,,,,,,,,,,,,,,,,,719.4287872999994,719.4450386999997,719.4450386999997,719.4450386999997,722.4283074000014,None,722.4283504000014,722.4449487999991,722.4449487999991,722.7619312000024,f,0.31497590000071796,None,,,,,,,,,,,,,,,00002,001,2025-11-08_18h50.56.769,MST_task,2024.2.2,60.01604829211748,2025-11-08 18h51.02.235495 +0530,
,Scenes\077a.jpg,154,0,154,,,,,,,j,None,,,2.1896056000005046,0.25104970000029425,,,,,154,0,154,0,722.7782735000001,,,,,,,,,,,,,,,,,,,,,,,722.7619941000012,722.7782735000001,723.2947693000024,723.2617696000016,,,,,,,,,,,,,,,,,,,,,,,,,,723.2886722000003,723.2947693000024,723.2947693000024,723.2947693000024,726.2782351999995,j,726.2782855000005,,,726.2782962000019,None,,,,,,2.1896056000005046,0.25104970000029425,,,,,,,,,,00002,001,2025-11-08_18h50.56.769,MST_task,2024.2.2,60.01604829211748,2025-11-08 18h51.02.235495 +0530,
,Scenes\094a.jpg,155,0,155,,,,,,,j,None,,,2.9509528999988106,None,,,,,155,0,155,0,726.2956484999995,,,,,,,,,,,,,,,,,,,,,,,726.2783521000019,726.2956484999995,726.8115235000005,726.7783364000024,,,,,,,,,,,,,,,,,,,,,,,,,,726.7919428000023,726.8115235000005,726.8115235000005,726.8115235000005,729.7947798000023,j,729.7948241000013,,,729.794834100001,None,,,,,,2.9509528999988106,None,,,,,,,,,,00002,001,2025-11-08_18h50.56.769,MST_task,2024.2.2,60.01604829211748,2025-11-08 18h51.02.235495 +0530,
,Scenes\026a.jpg,156,0,156,,,,,,,j,None,,,2.6546238000009907,0.28150129999994533,,,,,156,0,156,0,729.8114461000005,,,,,,,,,,,,,,,,,,,,,,,729.7948902999997,729.8114461000005,730.3283702000008,730.2949575999992,,,,,,,,,,,,,,,,,,,,,,,,,,730.311881900001,730.3283702000008,730.3283702000008,730.3283702000008,733.311428500001,j,733.3114748000007,,,733.3114853000006,None,,,,,,2.6546238000009907,0.28150129999994533,,,,,,,,,,00002,001,2025-11-08_18h50.56.769,MST_task,2024.2.2,60.01604829211748,2025-11-08 18h51.02.235495 +0530,
,Scenes\067a.jpg,157,0,157,,,,,,,f,None,,,1.3048233000008622,0.24333009999827482,,,,,157,0,157,0,733.3280025000022,,,,,,,,,,,,,,,,,,,,,,,733.3115531000003,733.3280025000022,733.8278678999995,733.811533600001,,,,,,,,,,,,,,,,,,,,,,,,,,733.8218180000003,733.8278678999995,733.8278678999995,733.8278678999995,736.8115309999994,f,736.8115758999993,,,736.8115853000018,None,,,736.8279419999999,736.8279419999999,736.8279419999999,1.3048233000008622,0.24333009999827482,,,,,,,,,,00002,001,2025-11-08_18h50.56.769,MST_task,2024.2.2,60.01604829211748,2025-11-08 18h51.02.235495 +0530,
,Scenes\075a.jpg,158,0,158,,,,,,,j,None,,,1.4811784000012267,0.2134464000009757,,,,,158,0,158,0,736.8279419999999,,,,,,,,,,,,,,,,,,,,,,,736.8116558000002,736.8279419999999,737.3279275999994,737.3114504000005,,,,,,,,,,,,,,,,,,,,,,,,,,737.3157874999997,737.3279275999994,737.3279275999994,737.3279275999994,740.3114509000006,j,740.3114929000003,,,740.3115020000005,None,,,740.3278849000017,740.3278849000017,740.3278849000017,1.4811784000012267,0.2134464000009757,,,,,,,,,,00002,001,2025-11-08_18h50.56.769,MST_task,2024.2.2,60.01604829211748,2025-11-08 18h51.02.235495 +0530,
,Scenes\139a.jpg,159,0,159,,,,,,,j,None,,,2.773006900002656,0.12193029999980354,,,,,159,0,159,0,740.3278849000017,,,,,,,,,,,,,,,,,,,,,,,740.3115704000011,740.3278849000017,740.8281592000021,740.8114545999997,,,,,,,,,,,,,,,,,,,,,,,,,,740.820376300002,740.8281592000021,740.8281592000021,740.8281592000021,743.8114134999996,j,743.8114573000021,,,743.8114673000018,None,,,743.8278080000018,743.8278080000018,743.8278080000018,2.773006900002656,0.12193029999980354,,,,,,,,,,00002,001,2025-11-08_18h50.56.769,MST_task,2024.2.2,60.01604829211748,2025-11-08 18h51.02.235495 +0530,
,Scenes\164a.jpg,160,0,160,,,,,,,j,None,,,2.8377000000000407,None,,,,,160,0,160,0,743.8278080000018,,,,,,,,,,,,,,,,,,,,,,,743.8115429999998,743.8278080000018,744.3611377000016,744.3113389999999,,,,,,,,,,,,,,,,,,,,,,,,,,744.3452402000003,744.3611377000016,744.3611377000016,744.3611377000016,747.3277578000016,j,747.3278156000015,,,747.3278257999991,None,,,,,,2.8377000000000407,None,,,,,,,,,,00002,001,2025-11-08_18h50.56.769,MST_task,2024.2.2,60.01604829211748,2025-11-08 18h51.02.235495 +0530,
,Objects\178a.jpg,161,0,161,,,,,,,j,None,,,2.2721433000006073,0.15377329999682843,,,,,161,0,161,0,747.3443550000011,,,,,,,,,,,,,,,,,,,,,,,747.3278849000017,747.3443550000011,747.8445766000004,747.8278996000008,,,,,,,,,,,,,,,,,,,,,,,,,,747.8399274000003,747.8445766000004,747.8445766000004,747.8445766000004,750.8279349000004,j,750.827980500002,,,750.8279941000001,None,,,750.8443200000002,750.8443200000002,750.8443200000002,2.2721433000006073,0.15377329999682843,,,,,,,,,,00002,001,2025-11-08_18h50.56.769,MST_task,2024.2.2,60.01604829211748,2025-11-08 18h51.02.235495 +0530,
,Objects\108a.jpg,162,0,162,,,,,,,None,j,0.4425045999996655,None,,,,,,,162,0,162,0,750.8443200000002,,,,,,,,,,,,,,,,,,,,,,,750.8280467000004,750.8443200000002,751.3443623999992,751.3278654999995,,,,,,,,,,,,,,,,,,,,,,,,,,751.3388054999996,751.3443623999992,751.3443623999992,751.3443623999992,754.3280716000008,None,754.3281177999997,754.3443566999995,754.3443566999995,754.7947189000006,j,0.4425045999996655,None,754.3443566999995,754.3443566999995,754.3443566999995,,,,,,,,,,,,00002,001,2025-11-08_18h50.56.769,MST_task,2024.2.2,60.01604829211748,2025-11-08 18h51.02.235495 +0530,
,Objects\171a.jpg,163,0,163,,,,,,,j,None,,,2.5363023999998404,0.20985770000334014,,,,,163,0,163,0,754.8109847000014,,,,,,,,,,,,,,,,,,,,,,,754.7948385000018,754.8109847000014,755.3110089000002,755.2944921000017,,,,,,,,,,,,,,,,,,,,,,,,,,755.3045080000011,755.3110089000002,755.3110089000002,755.3110089000002,758.294488800002,j,758.2945335000004,,,758.2945438999996,None,,,758.3108269000004,758.3108269000004,758.3108269000004,2.5363023999998404,0.20985770000334014,,,,,,,,,,00002,001,2025-11-08_18h50.56.769,MST_task,2024.2.2,60.01604829211748,2025-11-08 18h51.02.235495 +0530,
,Objects\125a.jpg,164,0,164,,,,,,,None,f,0.1465267000021413,None,,,,,,,164,0,164,0,758.3108269000004,,,,,,,,,,,,,,,,,,,,,,,758.2946182000014,758.3108269000004,758.8274622999998,758.7942623000017,,,,,,,,,,,,,,,,,,,,,,,,,,758.8150081000022,758.8274622999998,758.8274622999998,758.8274622999998,761.8107894999994,None,761.8108294000012,761.8274091000021,761.8274091000021,761.9776898000018,f,0.1465267000021413,None,,,,,,,,,,,,,,,00002,001,2025-11-08_18h50.56.769,MST_task,2024.2.2,60.01604829211748,2025-11-08 18h51.02.235495 +0530,
,Objects\098a.jpg,165,0,165,,,,,,,f,None,,,2.914579899999808,None,,,,,165,0,165,0,761.9940820000011,,,,,,,,,,,,,,,,,,,,,,,761.9777834000015,761.9940820000011,762.4940483999999,762.4776478000022,,,,,,,,,,,,,,,,,,,,,,,,,,762.4876887999999,762.4940483999999,762.4940483999999,762.4940483999999,765.4776698999995,f,765.4777171000023,,,765.4777284000011,None,,,765.4939613999995,765.4939613999995,765.4939613999995,2.914579899999808,None,,,,,,,,,,00002,001,2025-11-08_18h50.56.769,MST_task,2024.2.2,60.01604829211748,2025-11-08 18h51.02.235495 +0530,
