thisN,thisTrialN,thisRepN,key_resp_3.keys,key_resp_3.rt,key_resp_3.duration,trials.thisRepN,trials.thisTrialN,trials.thisN,trials.thisIndex,thisRow.t,notes,intro_page.started,text.started,key_resp.started,intro_page.stopped,key_resp.keys,key_resp.rt,key_resp.duration,instructions.started,text_2.started,key_resp_2.started,instructions.stopped,key_resp_2.keys,key_resp_2.rt,key_resp_2.duration,demo1.started,image_1.started,image_2.started,text_7.started,key_resp_6.started,text_9.started,demo1.stopped,key_resp_6.keys,key_resp_6.rt,key_resp_6.duration,demo2.started,image_5.started,image_6.started,text_11.started,text_12.started,key_resp_8.started,demo2.stopped,key_resp_8.keys,key_resp_8.rt,key_resp_8.duration,demo_conclusion.started,text_13.started,key_resp_9.started,demo_conclusion.stopped,key_resp_9.keys,key_resp_9.rt,key_resp_9.duration,start_test.started,text_6.started,key_resp_5.started,start_test.stopped,key_resp_5.keys,key_resp_5.rt,key_resp_5.duration,ISI.started,text_4.started,text_4.stopped,ISI.stopped,routine_1.started,image.started,text_3.started,key_resp_3.started,routine_1.stopped,image_path,position_of_stimuli,trials.key_resp_3.keys,trials.key_resp_3.rt,trials.key_resp_3.duration,End_page.started,text_5.started,key_resp_4.started,End_page.stopped,key_resp_4.keys,key_resp_4.rt,key_resp_4.duration,participant,session,date,expName,psychopyVersion,frameRate,expStart,
,,,,,,,,,,,,0.0048222999976133,0.021251199999824166,0.021251199999824166,12.456129400001373,space,12.43283479999809,None,,,,,,,,,,,,,,,,,,,,,,,,,,,,,,,,,,,,,,,,,,,,,,,,,,,,,,,,,,,,,,,00003,001,2025-11-08_22h47.34.525,MST_test,2024.2.2,60.05479399353815,2025-11-08 22h47.40.338867 +0530,
,,,,,,,,,,,,,,,,,,,12.456164299997909,12.470966599998064,12.470966599998064,22.287863199999265,space,9.814209699994535,None,,,,,,,,,,,,,,,,,,,,,,,,,,,,,,,,,,,,,,,,,,,,,,,,,,,,,,,,00003,001,2025-11-08_22h47.34.525,MST_test,2024.2.2,60.05479399353815,2025-11-08 22h47.40.338867 +0530,
,,,,,,,,,,,,,,,,,,,,,,,,,,22.287892100001045,22.30408219999663,22.30408219999663,22.30408219999663,22.30408219999663,22.30408219999663,32.15433430000121,space,9.841272600002412,None,,,,,,,,,,,,,,,,,,,,,,,,,,,,,,,,,,,,,,,,,,,,,,00003,001,2025-11-08_22h47.34.525,MST_test,2024.2.2,60.05479399353815,2025-11-08 22h47.40.338867 +0530,
,,,,,,,,,,,,,,,,,,,,,,,,,,,,,,,,,,,,32.15436120000231,32.17055640000035,32.17055640000035,32.17055640000035,32.17055640000035,32.17055640000035,35.28747000000294,space,3.1132464000038453,None,,,,,,,,,,,,,,,,,,,,,,,,,,,,,,,,,,,,00003,001,2025-11-08_22h47.34.525,MST_test,2024.2.2,60.05479399353815,2025-11-08 22h47.40.338867 +0530,
,,,,,,,,,,,,,,,,,,,,,,,,,,,,,,,,,,,,,,,,,,,,,,35.28749280000193,35.303827000003366,35.303827000003366,57.72027779999917,space,22.403809700001148,None,,,,,,,,,,,,,,,,,,,,,,,,,,,,,00003,001,2025-11-08_22h47.34.525,MST_test,2024.2.2,60.05479399353815,2025-11-08 22h47.40.338867 +0530,
,,,,,,,,,,,,,,,,,,,,,,,,,,,,,,,,,,,,,,,,,,,,,,,,,,,,,57.72030480000103,57.73666080000112,57.73666080000112,102.70264599999791,space,44.96490880000056,None,,,,,,,,,,,,,,,,,,,,,,00003,001,2025-11-08_22h47.34.525,MST_test,2024.2.2,60.05479399353815,2025-11-08 22h47.40.338867 +0530,
0,0,0,n,6.009653200002504,None,0,0,0,0,102.7190064000024,,,,,,,,,,,,,,,,,,,,,,,,,,,,,,,,,,,,,,,,,,,,,,,,,,102.70552660000249,102.7190064000024,103.2358258000022,103.2025044999973,103.2256852999999,103.2358258000022,103.2358258000022,103.2358258000022,109.25262600000133,Objects\187b.jpg,mid,n,6.009653200002504,None,,,,,,,,00003,001,2025-11-08_22h47.34.525,MST_test,2024.2.2,60.05479399353815,2025-11-08 22h47.40.338867 +0530,
1,0,1,s,5.686383600004774,None,1,0,1,0,109.26885739999852,,,,,,,,,,,,,,,,,,,,,,,,,,,,,,,,,,,,,,,,,,,,,,,,,,109.25271039999643,109.26885739999852,109.7688249999992,109.7524493000019,109.75460539999767,109.7688249999992,109.7688249999992,109.7688249999992,115.46901439999783,Objects\171a.jpg,mid,s,5.686383600004774,None,,,,,,,,00003,001,2025-11-08_22h47.34.525,MST_test,2024.2.2,60.05479399353815,2025-11-08 22h47.40.338867 +0530,
2,0,2,s,2.7434152999994694,None,2,0,2,0,115.48539799999708,,,,,,,,,,,,,,,,,,,,,,,,,,,,,,,,,,,,,,,,,,,,,,,,,,115.46910419999767,115.48539799999708,116.0020510999966,115.96886700000323,115.98758369999996,116.0020510999966,116.0020510999966,116.0020510999966,118.75228680000146,Objects\140b.jpg,mid,s,2.7434152999994694,None,,,,,,,,00003,001,2025-11-08_22h47.34.525,MST_test,2024.2.2,60.05479399353815,2025-11-08 22h47.40.338867 +0530,
3,0,3,s,4.236703000002308,None,3,0,3,0,118.76865800000087,,,,,,,,,,,,,,,,,,,,,,,,,,,,,,,,,,,,,,,,,,,,,,,,,,118.752364699998,118.76865800000087,119.51901679999719,119.25220080000145,119.49301440000272,119.51901679999719,119.51901679999719,119.51901679999719,123.76885290000064,Foils\scenes26.jpg,none,s,4.236703000002308,None,,,,,,,,00003,001,2025-11-08_22h47.34.525,MST_test,2024.2.2,60.05479399353815,2025-11-08 22h47.40.338867 +0530,
4,0,4,o,2.639763600003789,None,4,0,4,0,123.78521190000174,,,,,,,,,,,,,,,,,,,,,,,,,,,,,,,,,,,,,,,,,,,,,,,,,,123.76893659999769,123.78521190000174,124.30199249999714,124.26878150000266,124.288988100001,124.30199249999714,124.30199249999714,124.30199249999714,126.9522563999999,Objects\006b.jpg,pre,o,2.639763600003789,None,,,,,,,,00003,001,2025-11-08_22h47.34.525,MST_test,2024.2.2,60.05479399353815,2025-11-08 22h47.40.338867 +0530,
5,0,5,o,1.81478330000391,None,5,0,5,0,126.96847479999997,,,,,,,,,,,,,,,,,,,,,,,,,,,,,,,,,,,,,,,,,,,,,,,,,,126.95234540000092,126.96847479999997,127.46842730000208,127.45207020000089,127.46146739999676,127.46842730000208,127.46842730000208,127.46842730000208,129.28542230000312,Objects\190a.jpg,pre,o,1.81478330000391,None,,,,,,,,00003,001,2025-11-08_22h47.34.525,MST_test,2024.2.2,60.05479399353815,2025-11-08 22h47.40.338867 +0530,
6,0,6,o,2.0949571000019205,None,6,0,6,0,129.30175679999957,,,,,,,,,,,,,,,,,,,,,,,,,,,,,,,,,,,,,,,,,,,,,,,,,,129.28549490000296,129.30175679999957,129.8187076999966,129.78533649999736,129.80348779999622,129.8187076999966,129.8187076999966,129.8187076999966,131.91878539999743,Scenes\050a.jpg,pre,o,2.0949571000019205,None,,,,,,,,00003,001,2025-11-08_22h47.34.525,MST_test,2024.2.2,60.05479399353815,2025-11-08 22h47.40.338867 +0530,
7,0,7,s,1.5375609999973676,None,7,0,7,0,131.9350026999964,,,,,,,,,,,,,,,,,,,,,,,,,,,,,,,,,,,,,,,,,,,,,,,,,,131.9188718000005,131.9350026999964,132.4520138000007,132.41848690000188,132.4448196000012,132.4520138000007,132.4520138000007,132.4520138000007,134.00204769999982,Scenes\076a.jpg,post,s,1.5375609999973676,None,,,,,,,,00003,001,2025-11-08_22h47.34.525,MST_test,2024.2.2,60.05479399353815,2025-11-08 22h47.40.338867 +0530,
8,0,8,o,1.9090256999988924,None,8,0,8,0,134.01831859999947,,,,,,,,,,,,,,,,,,,,,,,,,,,,,,,,,,,,,,,,,,,,,,,,,,134.00213259999873,134.01831859999947,134.53506789999665,134.50195910000184,134.52177330000268,134.53506789999665,134.53506789999665,134.53506789999665,136.45191989999876,Scenes\158a.jpg,mid,o,1.9090256999988924,None,,,,,,,,00003,001,2025-11-08_22h47.34.525,MST_test,2024.2.2,60.05479399353815,2025-11-08 22h47.40.338867 +0530,
9,0,9,s,2.1434490000028745,None,9,0,9,0,136.46826819999842,,,,,,,,,,,,,,,,,,,,,,,,,,,,,,,,,,,,,,,,,,,,,,,,,,136.45200450000266,136.46826819999842,136.96798400000262,136.95195560000138,136.96411909999733,136.96798400000262,136.96798400000262,136.96798400000262,139.1185489999989,Foils\scenes1.jpg,none,s,2.1434490000028745,None,,,,,,,,00003,001,2025-11-08_22h47.34.525,MST_test,2024.2.2,60.05479399353815,2025-11-08 22h47.40.338867 +0530,
10,0,10,o,2.006530399994517,None,10,0,10,0,139.1348380999989,,,,,,,,,,,,,,,,,,,,,,,,,,,,,,,,,,,,,,,,,,,,,,,,,,139.11863379999704,139.1348380999989,139.685103900003,139.6184601999994,139.66758839999966,139.685103900003,139.685103900003,139.685103900003,141.7017216000022,Scenes\088b.jpg,post,o,2.006530399994517,None,,,,,,,,00003,001,2025-11-08_22h47.34.525,MST_test,2024.2.2,60.05479399353815,2025-11-08 22h47.40.338867 +0530,
11,0,11,s,4.083370300002571,None,11,0,11,0,141.71814070000255,,,,,,,,,,,,,,,,,,,,,,,,,,,,,,,,,,,,,,,,,,,,,,,,,,141.70180029999756,141.71814070000255,142.2183156999963,142.20165480000287,142.2117395000023,142.2183156999963,142.2183156999963,142.2183156999963,146.31834700000036,Objects\109a.jpg,pre,s,4.083370300002571,None,,,,,,,,00003,001,2025-11-08_22h47.34.525,MST_test,2024.2.2,60.05479399353815,2025-11-08 22h47.40.338867 +0530,
12,0,12,s,1.8207151000024169,None,12,0,12,0,146.3349687000009,,,,,,,,,,,,,,,,,,,,,,,,,,,,,,,,,,,,,,,,,,,,,,,,,,146.3184312000012,146.3349687000009,146.83469389999664,146.8182941999985,146.82936750000226,146.83469389999664,146.83469389999664,146.83469389999664,148.66837910000322,Foils\026a.jpg,none,s,1.8207151000024169,None,,,,,,,,00003,001,2025-11-08_22h47.34.525,MST_test,2024.2.2,60.05479399353815,2025-11-08 22h47.40.338867 +0530,
13,0,13,o,1.415832999999111,None,13,0,13,0,148.68466089999856,,,,,,,,,,,,,,,,,,,,,,,,,,,,,,,,,,,,,,,,,,,,,,,,,,148.6684604999973,148.68466089999856,149.2015281999993,149.16825309999695,149.18176310000126,149.2015281999993,149.2015281999993,149.2015281999993,150.61831930000335,Scenes\096a.jpg,mid,o,1.415832999999111,None,,,,,,,,00003,001,2025-11-08_22h47.34.525,MST_test,2024.2.2,60.05479399353815,2025-11-08 22h47.40.338867 +0530,
14,0,14,n,2.0414206000059494,None,14,0,14,0,150.63465749999887,,,,,,,,,,,,,,,,,,,,,,,,,,,,,,,,,,,,,,,,,,,,,,,,,,150.6183957999965,150.63465749999887,151.15123519999906,151.11811820000003,151.1334480000005,151.15123519999906,151.15123519999906,151.15123519999906,153.20160919999762,Foils\074a.jpg,none,n,2.0414206000059494,None,,,,,,,,00003,001,2025-11-08_22h47.34.525,MST_test,2024.2.2,60.05479399353815,2025-11-08 22h47.40.338867 +0530,
15,0,15,s,1.8469685000018217,None,15,0,15,0,153.21789069999795,,,,,,,,,,,,,,,,,,,,,,,,,,,,,,,,,,,,,,,,,,,,,,,,,,153.2016883000033,153.21789069999795,153.7345146000007,153.70147069999803,153.72149809999974,153.7345146000007,153.7345146000007,153.7345146000007,155.5848227000024,Objects\189b.jpg,mid,s,1.8469685000018217,None,,,,,,,,00003,001,2025-11-08_22h47.34.525,MST_test,2024.2.2,60.05479399353815,2025-11-08 22h47.40.338867 +0530,
16,0,16,o,1.5582116000005044,None,16,0,16,0,155.60118420000072,,,,,,,,,,,,,,,,,,,,,,,,,,,,,,,,,,,,,,,,,,,,,,,,,,155.58490880000318,155.60118420000072,156.11782900000253,156.08461689999967,156.10016429999814,156.11782900000253,156.11782900000253,156.11782900000253,157.68486519999715,Objects\008b.jpg,mid,o,1.5582116000005044,None,,,,,,,,00003,001,2025-11-08_22h47.34.525,MST_test,2024.2.2,60.05479399353815,2025-11-08 22h47.40.338867 +0530,
17,0,17,o,1.730787300002703,None,17,0,17,0,157.7011283000029,,,,,,,,,,,,,,,,,,,,,,,,,,,,,,,,,,,,,,,,,,,,,,,,,,157.68494320000173,157.7011283000029,158.21794339999906,158.18465370000195,158.2063393999997,158.21794339999906,158.21794339999906,158.21794339999906,159.9513569999981,Scenes\094a.jpg,mid,o,1.730787300002703,None,,,,,,,,00003,001,2025-11-08_22h47.34.525,MST_test,2024.2.2,60.05479399353815,2025-11-08 22h47.40.338867 +0530,
18,0,18,s,1.9832625999988522,None,18,0,18,0,159.96770649999962,,,,,,,,,,,,,,,,,,,,,,,,,,,,,,,,,,,,,,,,,,,,,,,,,,159.95144309999887,159.96770649999962,160.48456820000138,160.4512285000019,160.4778662000026,160.48456820000138,160.48456820000138,160.48456820000138,162.48460499999783,Foils\scenes12.jpg,none,s,1.9832625999988522,None,,,,,,,,00003,001,2025-11-08_22h47.34.525,MST_test,2024.2.2,60.05479399353815,2025-11-08 22h47.40.338867 +0530,
19,0,19,s,3.3448678999993717,None,19,0,19,0,162.5010304000025,,,,,,,,,,,,,,,,,,,,,,,,,,,,,,,,,,,,,,,,,,,,,,,,,,162.4846916000024,162.5010304000025,163.0343200999996,162.98460689999774,163.01970340000116,163.0343200999996,163.0343200999996,163.0343200999996,166.3846188000025,Scenes\161b.jpg,post,s,3.3448678999993717,None,,,,,,,,00003,001,2025-11-08_22h47.34.525,MST_test,2024.2.2,60.05479399353815,2025-11-08 22h47.40.338867 +0530,
20,0,20,s,1.8118600000016158,None,20,0,20,0,166.40093740000157,,,,,,,,,,,,,,,,,,,,,,,,,,,,,,,,,,,,,,,,,,,,,,,,,,166.38469590000022,166.40093740000157,166.9011971,166.88449399999809,166.8949044999972,166.9011971,166.9011971,166.9011971,168.71805129999848,Objects\058a.jpg,post,s,1.8118600000016158,None,,,,,,,,00003,001,2025-11-08_22h47.34.525,MST_test,2024.2.2,60.05479399353815,2025-11-08 22h47.40.338867 +0530,
21,0,21,s,1.8943434999964666,None,21,0,21,0,168.7342256999982,,,,,,,,,,,,,,,,,,,,,,,,,,,,,,,,,,,,,,,,,,,,,,,,,,168.718134499999,168.7342256999982,169.26777949999814,169.21771330000047,169.2542975999968,169.26777949999814,169.26777949999814,169.26777949999814,171.16788709999673,Foils\scenes28.jpg,none,s,1.8943434999964666,None,,,,,,,,00003,001,2025-11-08_22h47.34.525,MST_test,2024.2.2,60.05479399353815,2025-11-08 22h47.40.338867 +0530,
22,0,22,s,1.4957972999982303,None,22,0,22,0,171.1841321000029,,,,,,,,,,,,,,,,,,,,,,,,,,,,,,,,,,,,,,,,,,,,,,,,,,171.1679770999981,171.1841321000029,171.68433309999818,171.66765309999755,171.67367340000055,171.68433309999818,171.68433309999818,171.68433309999818,173.18439370000124,Foils\scenes2.jpg,none,s,1.4957972999982303,None,,,,,,,,00003,001,2025-11-08_22h47.34.525,MST_test,2024.2.2,60.05479399353815,2025-11-08 22h47.40.338867 +0530,
23,0,23,o,1.6796592000027886,None,23,0,23,0,173.20079239999905,,,,,,,,,,,,,,,,,,,,,,,,,,,,,,,,,,,,,,,,,,,,,,,,,,173.1844706999982,173.20079239999905,173.7176599000013,173.68425690000004,173.7031582999989,173.7176599000013,173.7176599000013,173.7176599000013,175.40113700000074,Scenes\126a.jpg,mid,o,1.6796592000027886,None,,,,,,,,00003,001,2025-11-08_22h47.34.525,MST_test,2024.2.2,60.05479399353815,2025-11-08 22h47.40.338867 +0530,
24,0,24,n,1.433059900002263,None,24,0,24,0,175.4174714999972,,,,,,,,,,,,,,,,,,,,,,,,,,,,,,,,,,,,,,,,,,,,,,,,,,175.40122240000346,175.4174714999972,175.9509870999973,175.90102599999955,175.93987650000054,175.9509870999973,175.9509870999973,175.9509870999973,177.3845549999969,Foils\scenes23.jpg,none,n,1.433059900002263,None,,,,,,,,00003,001,2025-11-08_22h47.34.525,MST_test,2024.2.2,60.05479399353815,2025-11-08 22h47.40.338867 +0530,
25,0,25,n,1.232959099994332,None,25,0,25,0,177.40066490000027,,,,,,,,,,,,,,,,,,,,,,,,,,,,,,,,,,,,,,,,,,,,,,,,,,177.38464090000343,177.40066490000027,177.90086339999834,177.88425290000305,177.89460580000014,177.90086339999834,177.90086339999834,177.90086339999834,179.1344201000029,Foils\121a.jpg,none,n,1.232959099994332,None,,,,,,,,00003,001,2025-11-08_22h47.34.525,MST_test,2024.2.2,60.05479399353815,2025-11-08 22h47.40.338867 +0530,
26,0,26,o,2.067775999996229,None,26,0,26,0,179.15065630000026,,,,,,,,,,,,,,,,,,,,,,,,,,,,,,,,,,,,,,,,,,,,,,,,,,179.13450770000054,179.15065630000026,179.6506137000033,179.63424230000237,179.64350079999713,179.6506137000033,179.6506137000033,179.6506137000033,181.7341996000032,Objects\107b.jpg,mid,o,2.067775999996229,None,,,,,,,,00003,001,2025-11-08_22h47.34.525,MST_test,2024.2.2,60.05479399353815,2025-11-08 22h47.40.338867 +0530,
27,0,27,n,1.275553999999829,None,27,0,27,0,181.75060379999923,,,,,,,,,,,,,,,,,,,,,,,,,,,,,,,,,,,,,,,,,,,,,,,,,,181.7342759000021,181.75060379999923,182.28423450000264,182.23409479999827,182.26935200000298,182.28423450000264,182.28423450000264,182.28423450000264,183.5674908000001,Scenes\071b.jpg,mid,n,1.275553999999829,None,,,,,,,,00003,001,2025-11-08_22h47.34.525,MST_test,2024.2.2,60.05479399353815,2025-11-08 22h47.40.338867 +0530,
28,0,28,n,1.3165173000015784,None,28,0,28,0,183.5838892000029,,,,,,,,,,,,,,,,,,,,,,,,,,,,,,,,,,,,,,,,,,,,,,,,,,183.56756440000026,183.5838892000029,184.10082439999678,184.06736749999982,184.0884714999993,184.10082439999678,184.10082439999678,184.10082439999678,185.41777379999985,Scenes\086a.jpg,mid,n,1.3165173000015784,None,,,,,,,,00003,001,2025-11-08_22h47.34.525,MST_test,2024.2.2,60.05479399353815,2025-11-08 22h47.40.338867 +0530,
29,0,29,o,1.3985159000003478,None,29,0,29,0,185.43384920000244,,,,,,,,,,,,,,,,,,,,,,,,,,,,,,,,,,,,,,,,,,,,,,,,,,185.41785269999673,185.43384920000244,185.9507805999965,185.9174314999982,185.93319630000042,185.9507805999965,185.9507805999965,185.9507805999965,187.35084300000017,Objects\068b.jpg,pre,o,1.3985159000003478,None,,,,,,,,00003,001,2025-11-08_22h47.34.525,MST_test,2024.2.2,60.05479399353815,2025-11-08 22h47.40.338867 +0530,
30,0,30,s,1.548512599998503,None,30,0,30,0,187.36714519999805,,,,,,,,,,,,,,,,,,,,,,,,,,,,,,,,,,,,,,,,,,,,,,,,,,187.35092109999823,187.36714519999805,187.8839764000004,187.8507608,187.87207179999677,187.8839764000004,187.8839764000004,187.8839764000004,189.4340710000033,Scenes\112a.jpg,mid,s,1.548512599998503,None,,,,,,,,00003,001,2025-11-08_22h47.34.525,MST_test,2024.2.2,60.05479399353815,2025-11-08 22h47.40.338867 +0530,
31,0,31,n,3.0727511000004597,None,31,0,31,0,189.45043029999943,,,,,,,,,,,,,,,,,,,,,,,,,,,,,,,,,,,,,,,,,,,,,,,,,,189.43416250000155,189.45043029999943,189.9504592000012,189.9341007999974,189.94336650000332,189.9504592000012,189.9504592000012,189.9504592000012,193.0339649000016,Foils\050a.jpg,none,n,3.0727511000004597,None,,,,,,,,00003,001,2025-11-08_22h47.34.525,MST_test,2024.2.2,60.05479399353815,2025-11-08 22h47.40.338867 +0530,
32,0,32,s,1.222880900000746,None,32,0,32,0,193.05034590000287,,,,,,,,,,,,,,,,,,,,,,,,,,,,,,,,,,,,,,,,,,,,,,,,,,193.03404610000143,193.05034590000287,193.5669934000034,193.53383770000073,193.54953869999736,193.5669934000034,193.5669934000034,193.5669934000034,194.80080489999818,Objects\045b.jpg,pre,s,1.222880900000746,None,,,,,,,,00003,001,2025-11-08_22h47.34.525,MST_test,2024.2.2,60.05479399353815,2025-11-08 22h47.40.338867 +0530,
33,0,33,o,1.4715670000005048,None,33,0,33,0,194.8169443000006,,,,,,,,,,,,,,,,,,,,,,,,,,,,,,,,,,,,,,,,,,,,,,,,,,194.800891400002,194.8169443000006,195.35052610000275,195.30046939999738,195.33798379999644,195.35052610000275,195.35052610000275,195.35052610000275,196.8338592,Scenes\019b.jpg,pre,o,1.4715670000005048,None,,,,,,,,00003,001,2025-11-08_22h47.34.525,MST_test,2024.2.2,60.05479399353815,2025-11-08 22h47.40.338867 +0530,
34,0,34,o,1.1458888999986812,None,34,0,34,0,196.85027170000103,,,,,,,,,,,,,,,,,,,,,,,,,,,,,,,,,,,,,,,,,,,,,,,,,,196.8339322000029,196.85027170000103,197.3502892999968,197.33381640000152,197.34397599999647,197.3502892999968,197.3502892999968,197.3502892999968,198.500549700002,Objects\081a.jpg,pre,o,1.1458888999986812,None,,,,,,,,00003,001,2025-11-08_22h47.34.525,MST_test,2024.2.2,60.05479399353815,2025-11-08 22h47.40.338867 +0530,
35,0,35,o,2.192037100001471,None,35,0,35,0,198.51690399999643,,,,,,,,,,,,,,,,,,,,,,,,,,,,,,,,,,,,,,,,,,,,,,,,,,198.5006371999989,198.51690399999643,199.01685729999735,199.00044060000073,199.0113222,199.01685729999735,199.01685729999735,199.01685729999735,201.21713330000057,Objects\041a.jpg,mid,o,2.192037100001471,None,,,,,,,,00003,001,2025-11-08_22h47.34.525,MST_test,2024.2.2,60.05479399353815,2025-11-08 22h47.40.338867 +0530,
36,0,36,o,1.6977240999985952,None,36,0,36,0,201.23349400000006,,,,,,,,,,,,,,,,,,,,,,,,,,,,,,,,,,,,,,,,,,,,,,,,,,201.21721550000075,201.23349400000006,201.75012299999798,201.71697400000266,201.73553549999633,201.75012299999798,201.75012299999798,201.75012299999798,203.46723750000092,Scenes\074a.jpg,pre,o,1.6977240999985952,None,,,,,,,,00003,001,2025-11-08_22h47.34.525,MST_test,2024.2.2,60.05479399353815,2025-11-08 22h47.40.338867 +0530,
37,0,37,o,2.0544842000017525,None,37,0,37,0,203.48346719999972,,,,,,,,,,,,,,,,,,,,,,,,,,,,,,,,,,,,,,,,,,,,,,,,,,203.46732049999991,203.48346719999972,203.98340530000132,203.96699600000284,203.97636300000158,203.98340530000132,203.98340530000132,203.98340530000132,206.05046700000094,Objects\177a.jpg,pre,o,2.0544842000017525,None,,,,,,,,00003,001,2025-11-08_22h47.34.525,MST_test,2024.2.2,60.05479399353815,2025-11-08 22h47.40.338867 +0530,
38,0,38,n,1.883827099998598,None,38,0,38,0,206.06678860000102,,,,,,,,,,,,,,,,,,,,,,,,,,,,,,,,,,,,,,,,,,,,,,,,,,206.0505559000012,206.06678860000102,206.60024810000323,206.55034409999644,206.5895023999983,206.60024810000323,206.60024810000323,206.60024810000323,208.50041500000225,Scenes\167b.jpg,pre,n,1.883827099998598,None,,,,,,,,00003,001,2025-11-08_22h47.34.525,MST_test,2024.2.2,60.05479399353815,2025-11-08 22h47.40.338867 +0530,
39,0,39,o,1.413010900003428,None,39,0,39,0,208.51669660000334,,,,,,,,,,,,,,,,,,,,,,,,,,,,,,,,,,,,,,,,,,,,,,,,,,208.50049659999786,208.51669660000334,209.04996850000316,209.00026380000054,209.04279970000061,209.04996850000316,209.04996850000316,209.04996850000316,210.4669423000014,Scenes\031b.jpg,post,o,1.413010900003428,None,,,,,,,,00003,001,2025-11-08_22h47.34.525,MST_test,2024.2.2,60.05479399353815,2025-11-08 22h47.40.338867 +0530,
40,0,40,n,1.4756244000018341,None,40,0,40,0,210.48331080000207,,,,,,,,,,,,,,,,,,,,,,,,,,,,,,,,,,,,,,,,,,,,,,,,,,210.46701909999683,210.48331080000207,211.0001246000029,210.96690659999877,210.98435659999814,211.0001246000029,211.0001246000029,211.0001246000029,212.4835862999971,Scenes\188a.jpg,mid,n,1.4756244000018341,None,,,,,,,,00003,001,2025-11-08_22h47.34.525,MST_test,2024.2.2,60.05479399353815,2025-11-08 22h47.40.338867 +0530,
41,0,41,n,1.7612243000039598,None,41,0,41,0,212.4999312,,,,,,,,,,,,,,,,,,,,,,,,,,,,,,,,,,,,,,,,,,,,,,,,,,212.48366659999738,212.4999312,213.00015359999816,212.98347459999786,212.99364020000212,213.00015359999816,213.00015359999816,213.00015359999816,214.7668638000032,Objects\145a.jpg,pre,n,1.7612243000039598,None,,,,,,,,00003,001,2025-11-08_22h47.34.525,MST_test,2024.2.2,60.05479399353815,2025-11-08 22h47.40.338867 +0530,
42,0,42,o,1.8787893999979133,None,42,0,42,0,214.78320789999998,,,,,,,,,,,,,,,,,,,,,,,,,,,,,,,,,,,,,,,,,,,,,,,,,,214.76694229999703,214.78320789999998,215.2834182000006,215.2667705999993,215.27571650000027,215.2834182000006,215.2834182000006,215.2834182000006,217.16680759999872,Scenes\033a.jpg,post,o,1.8787893999979133,None,,,,,,,,00003,001,2025-11-08_22h47.34.525,MST_test,2024.2.2,60.05479399353815,2025-11-08 22h47.40.338867 +0530,
43,0,43,o,2.0868470999994315,None,43,0,43,0,217.1831594000032,,,,,,,,,,,,,,,,,,,,,,,,,,,,,,,,,,,,,,,,,,,,,,,,,,217.1668920000011,217.1831594000032,217.68314020000253,217.66668870000285,217.67653250000149,217.68314020000253,217.68314020000253,217.68314020000253,219.7834765000007,Objects\131a.jpg,post,o,2.0868470999994315,None,,,,,,,,00003,001,2025-11-08_22h47.34.525,MST_test,2024.2.2,60.05479399353815,2025-11-08 22h47.40.338867 +0530,
44,0,44,o,1.5867264999978943,None,44,0,44,0,219.79976619999798,,,,,,,,,,,,,,,,,,,,,,,,,,,,,,,,,,,,,,,,,,,,,,,,,,219.7835561000029,219.79976619999798,220.31642080000165,220.28326730000117,220.29891949999728,220.31642080000165,220.31642080000165,220.31642080000165,221.91675419999956,Objects\055b.jpg,post,o,1.5867264999978943,None,,,,,,,,00003,001,2025-11-08_22h47.34.525,MST_test,2024.2.2,60.05479399353815,2025-11-08 22h47.40.338867 +0530,
45,0,45,o,1.230793900002027,None,45,0,45,0,221.93305210000108,,,,,,,,,,,,,,,,,,,,,,,,,,,,,,,,,,,,,,,,,,,,,,,,,,221.9168393,221.93305210000108,222.43300730000192,222.4166402999981,222.42593810000108,222.43300730000192,222.43300730000192,222.43300730000192,223.66672970000218,Objects\186a.jpg,pre,o,1.230793900002027,None,,,,,,,,00003,001,2025-11-08_22h47.34.525,MST_test,2024.2.2,60.05479399353815,2025-11-08 22h47.40.338867 +0530,
46,0,46,o,1.673982899999828,None,46,0,46,0,223.68304550000175,,,,,,,,,,,,,,,,,,,,,,,,,,,,,,,,,,,,,,,,,,,,,,,,,,223.66680559999804,223.68304550000175,224.23328570000012,224.16652720000275,224.21254909999698,224.23328570000012,224.23328570000012,224.23328570000012,225.91670650000015,Scenes\012b.jpg,post,o,1.673982899999828,None,,,,,,,,00003,001,2025-11-08_22h47.34.525,MST_test,2024.2.2,60.05479399353815,2025-11-08 22h47.40.338867 +0530,
47,0,47,n,1.7964696999988519,None,47,0,47,0,225.93296199999895,,,,,,,,,,,,,,,,,,,,,,,,,,,,,,,,,,,,,,,,,,,,,,,,,,225.91678610000235,225.93296199999895,226.4331039000026,226.41656409999996,226.42385050000303,226.4331039000026,226.4331039000026,226.4331039000026,228.2333193000013,Foils\scenes4.jpg,none,n,1.7964696999988519,None,,,,,,,,00003,001,2025-11-08_22h47.34.525,MST_test,2024.2.2,60.05479399353815,2025-11-08 22h47.40.338867 +0530,
48,0,48,n,1.2752259000044432,None,48,0,48,0,228.24957659999927,,,,,,,,,,,,,,,,,,,,,,,,,,,,,,,,,,,,,,,,,,,,,,,,,,228.23340959999769,228.24957659999927,228.76641129999916,228.7331492000012,228.75324309999996,228.76641129999916,228.76641129999916,228.76641129999916,230.05002889999741,Objects\118b.jpg,post,n,1.2752259000044432,None,,,,,,,,00003,001,2025-11-08_22h47.34.525,MST_test,2024.2.2,60.05479399353815,2025-11-08 22h47.40.338867 +0530,
49,0,49,o,1.3010833000007551,None,49,0,49,0,230.06620760000078,,,,,,,,,,,,,,,,,,,,,,,,,,,,,,,,,,,,,,,,,,,,,,,,,,230.05010429999675,230.06620760000078,230.58282139999937,230.54971769999975,230.56660259999626,230.58282139999937,230.58282139999937,230.58282139999937,231.8999221999984,Objects\038b.jpg,pre,o,1.3010833000007551,None,,,,,,,,00003,001,2025-11-08_22h47.34.525,MST_test,2024.2.2,60.05479399353815,2025-11-08 22h47.40.338867 +0530,
50,0,50,o,1.135524199999054,None,50,0,50,0,231.91616580000118,,,,,,,,,,,,,,,,,,,,,,,,,,,,,,,,,,,,,,,,,,,,,,,,,,231.90000750000036,231.91616580000118,232.46653009999864,232.39964129999862,232.4461408999996,232.46653009999864,232.46653009999864,232.46653009999864,233.61648250000144,Scenes\038b.jpg,post,o,1.135524199999054,None,,,,,,,,00003,001,2025-11-08_22h47.34.525,MST_test,2024.2.2,60.05479399353815,2025-11-08 22h47.40.338867 +0530,
51,0,51,s,1.9257102999981726,None,51,0,51,0,233.63278870000067,,,,,,,,,,,,,,,,,,,,,,,,,,,,,,,,,,,,,,,,,,,,,,,,,,233.61656490000314,233.63278870000067,234.14968399999634,234.11629630000243,234.14170100000047,234.14968399999634,234.14968399999634,234.14968399999634,236.08301989999745,Scenes\017a.jpg,mid,s,1.9257102999981726,None,,,,,,,,00003,001,2025-11-08_22h47.34.525,MST_test,2024.2.2,60.05479399353815,2025-11-08 22h47.40.338867 +0530,
52,0,52,s,1.4647006999948644,None,52,0,52,0,236.09937050000008,,,,,,,,,,,,,,,,,,,,,,,,,,,,,,,,,,,,,,,,,,,,,,,,,,236.08309670000017,236.09937050000008,236.63303799999994,236.58285169999726,236.6281747999965,236.63303799999994,236.63303799999994,236.63303799999994,238.09985369999777,Scenes\046b.jpg,post,s,1.4647006999948644,None,,,,,,,,00003,001,2025-11-08_22h47.34.525,MST_test,2024.2.2,60.05479399353815,2025-11-08 22h47.40.338867 +0530,
53,0,53,s,1.8035326000026544,None,53,0,53,0,238.1160646999997,,,,,,,,,,,,,,,,,,,,,,,,,,,,,,,,,,,,,,,,,,,,,,,,,,238.09993550000218,238.1160646999997,238.64947519999987,238.59949529999722,238.63552160000108,238.64947519999987,238.64947519999987,238.64947519999987,240.4663694999981,Scenes\176b.jpg,mid,s,1.8035326000026544,None,,,,,,,,00003,001,2025-11-08_22h47.34.525,MST_test,2024.2.2,60.05479399353815,2025-11-08 22h47.40.338867 +0530,
54,0,54,s,1.4746403000026476,None,54,0,54,0,240.48264409999683,,,,,,,,,,,,,,,,,,,,,,,,,,,,,,,,,,,,,,,,,,,,,,,,,,240.46644979999837,240.48264409999683,240.9995643000002,240.9661070000002,240.98793229999865,240.9995643000002,240.9995643000002,240.9995643000002,242.48299540000153,Scenes\041b.jpg,post,s,1.4746403000026476,None,,,,,,,,00003,001,2025-11-08_22h47.34.525,MST_test,2024.2.2,60.05479399353815,2025-11-08 22h47.40.338867 +0530,
55,0,55,n,1.3824268999960623,None,55,0,55,0,242.4992265999972,,,,,,,,,,,,,,,,,,,,,,,,,,,,,,,,,,,,,,,,,,,,,,,,,,242.48308450000332,242.4992265999972,243.01592369999707,242.98288879999745,243.0048827999999,243.01592369999707,243.01592369999707,243.01592369999707,244.3996604999993,Scenes\114b.jpg,pre,n,1.3824268999960623,None,,,,,,,,00003,001,2025-11-08_22h47.34.525,MST_test,2024.2.2,60.05479399353815,2025-11-08 22h47.40.338867 +0530,
56,0,56,s,1.4572827000010875,None,56,0,56,0,244.41589550000208,,,,,,,,,,,,,,,,,,,,,,,,,,,,,,,,,,,,,,,,,,,,,,,,,,244.39974190000066,244.41589550000208,244.93250640000042,244.89934840000205,244.9125983999984,244.93250640000042,244.93250640000042,244.93250640000042,246.39949640000123,Scenes\036b.jpg,pre,s,1.4572827000010875,None,,,,,,,,00003,001,2025-11-08_22h47.34.525,MST_test,2024.2.2,60.05479399353815,2025-11-08 22h47.40.338867 +0530,
57,0,57,n,1.5550940000030096,None,57,0,57,0,246.41584400000283,,,,,,,,,,,,,,,,,,,,,,,,,,,,,,,,,,,,,,,,,,,,,,,,,,246.3995799999975,246.41584400000283,246.93250350000017,246.89937980000104,246.91576019999775,246.93250350000017,246.93250350000017,246.93250350000017,248.49953649999952,Scenes\157a.jpg,pre,n,1.5550940000030096,None,,,,,,,,00003,001,2025-11-08_22h47.34.525,MST_test,2024.2.2,60.05479399353815,2025-11-08 22h47.40.338867 +0530,
58,0,58,n,1.22148659999948,None,58,0,58,0,248.51578080000036,,,,,,,,,,,,,,,,,,,,,,,,,,,,,,,,,,,,,,,,,,,,,,,,,,248.4996147999991,248.51578080000036,249.0160143999965,248.9992646000028,249.00897809999879,249.0160143999965,249.0160143999965,249.0160143999965,250.24950559999706,Objects\049a.jpg,pre,n,1.22148659999948,None,,,,,,,,00003,001,2025-11-08_22h47.34.525,MST_test,2024.2.2,60.05479399353815,2025-11-08 22h47.40.338867 +0530,
59,0,59,s,2.177778199999011,None,59,0,59,0,250.26575929999672,,,,,,,,,,,,,,,,,,,,,,,,,,,,,,,,,,,,,,,,,,,,,,,,,,250.24958940000215,250.26575929999672,250.7659227999975,250.74925549999898,250.76128289999906,250.7659227999975,250.7659227999975,250.7659227999975,252.94947089999914,Foils\scenes16.jpg,none,s,2.177778199999011,None,,,,,,,,00003,001,2025-11-08_22h47.34.525,MST_test,2024.2.2,60.05479399353815,2025-11-08 22h47.40.338867 +0530,
60,0,60,o,1.2117074000052526,None,60,0,60,0,252.96577219999745,,,,,,,,,,,,,,,,,,,,,,,,,,,,,,,,,,,,,,,,,,,,,,,,,,252.94956269999966,252.96577219999745,253.46565310000005,253.44918219999818,253.45861039999727,253.46565310000005,253.46565310000005,253.46565310000005,254.68263619999925,Objects\064a.jpg,pre,o,1.2117074000052526,None,,,,,,,,00003,001,2025-11-08_22h47.34.525,MST_test,2024.2.2,60.05479399353815,2025-11-08 22h47.40.338867 +0530,
61,0,61,n,1.72181869999622,None,61,0,61,0,254.69903319999867,,,,,,,,,,,,,,,,,,,,,,,,,,,,,,,,,,,,,,,,,,,,,,,,,,254.68271259999892,254.69903319999867,255.21591929999704,255.18264569999883,255.20527700000093,255.21591929999704,255.21591929999704,255.21591929999704,256.94939239999803,Scenes\024a.jpg,post,n,1.72181869999622,None,,,,,,,,00003,001,2025-11-08_22h47.34.525,MST_test,2024.2.2,60.05479399353815,2025-11-08 22h47.40.338867 +0530,
62,0,62,o,1.4667666000023019,None,62,0,62,0,256.96561459999793,,,,,,,,,,,,,,,,,,,,,,,,,,,,,,,,,,,,,,,,,,,,,,,,,,256.94948609999847,256.96561459999793,257.4656204999992,257.44908540000324,257.45861980000336,257.4656204999992,257.4656204999992,257.4656204999992,258.9327323999969,Objects\011a.jpg,post,o,1.4667666000023019,None,,,,,,,,00003,001,2025-11-08_22h47.34.525,MST_test,2024.2.2,60.05479399353815,2025-11-08 22h47.40.338867 +0530,
63,0,63,s,1.654311600002984,None,63,0,63,0,258.94890309999755,,,,,,,,,,,,,,,,,,,,,,,,,,,,,,,,,,,,,,,,,,,,,,,,,,258.9328167999993,258.94890309999755,259.46552469999733,259.4324609000032,259.44870139999693,259.46552469999733,259.46552469999733,259.46552469999733,261.13249099999666,Objects\018b.jpg,mid,s,1.654311600002984,None,,,,,,,,00003,001,2025-11-08_22h47.34.525,MST_test,2024.2.2,60.05479399353815,2025-11-08 22h47.40.338867 +0530,
64,0,64,n,6.17509340000106,None,64,0,64,0,261.1488507000031,,,,,,,,,,,,,,,,,,,,,,,,,,,,,,,,,,,,,,,,,,,,,,,,,,261.13257010000234,261.1488507000031,261.732396899999,261.63229619999765,261.7167535999979,261.732396899999,261.732396899999,261.732396899999,267.9158354999963,Foils\scenes15.jpg,none,n,6.17509340000106,None,,,,,,,,00003,001,2025-11-08_22h47.34.525,MST_test,2024.2.2,60.05479399353815,2025-11-08 22h47.40.338867 +0530,
65,0,65,s,2.913262100002612,None,65,0,65,0,267.93202849999943,,,,,,,,,,,,,,,,,,,,,,,,,,,,,,,,,,,,,,,,,,,,,,,,,,267.91593309999735,267.93202849999943,268.48233990000153,268.4155111,268.4623028999995,268.48233990000153,268.48233990000153,268.48233990000153,271.3989073999983,Scenes\164b.jpg,mid,s,2.913262100002612,None,,,,,,,,00003,001,2025-11-08_22h47.34.525,MST_test,2024.2.2,60.05479399353815,2025-11-08 22h47.40.338867 +0530,
66,0,66,n,1.620180199999595,None,66,0,66,0,271.41529789999913,,,,,,,,,,,,,,,,,,,,,,,,,,,,,,,,,,,,,,,,,,,,,,,,,,271.398984200001,271.41529789999913,271.915634099998,271.89876479999657,271.9096189999982,271.915634099998,271.915634099998,271.915634099998,273.5489222000033,Foils\010a.jpg,none,n,1.620180199999595,None,,,,,,,,00003,001,2025-11-08_22h47.34.525,MST_test,2024.2.2,60.05479399353815,2025-11-08 22h47.40.338867 +0530,
67,0,67,s,2.0348413000028813,None,67,0,67,0,273.5652549000006,,,,,,,,,,,,,,,,,,,,,,,,,,,,,,,,,,,,,,,,,,,,,,,,,,273.5490043999962,273.5652549000006,274.09857159999956,274.04869090000284,274.0851882999996,274.09857159999956,274.09857159999956,274.09857159999956,276.14874319999944,Scenes\184b.jpg,mid,s,2.0348413000028813,None,,,,,,,,00003,001,2025-11-08_22h47.34.525,MST_test,2024.2.2,60.05479399353815,2025-11-08 22h47.40.338867 +0530,
68,0,68,o,1.3624013000007835,None,68,0,68,0,276.16519490000064,,,,,,,,,,,,,,,,,,,,,,,,,,,,,,,,,,,,,,,,,,,,,,,,,,276.1488190000018,276.16519490000064,276.66517659999954,276.64863360000163,276.65828239999973,276.66517659999954,276.66517659999954,276.66517659999954,278.0322124000013,Objects\028a.jpg,pre,o,1.3624013000007835,None,,,,,,,,00003,001,2025-11-08_22h47.34.525,MST_test,2024.2.2,60.05479399353815,2025-11-08 22h47.40.338867 +0530,
69,0,69,o,1.2513858999955119,None,69,0,69,0,278.0484448999996,,,,,,,,,,,,,,,,,,,,,,,,,,,,,,,,,,,,,,,,,,,,,,,,,,278.03229160000046,278.0484448999996,278.5484734999991,278.53196890000254,278.542134299998,278.5484734999991,278.5484734999991,278.5484734999991,279.8153714,Objects\020a.jpg,post,o,1.2513858999955119,None,,,,,,,,00003,001,2025-11-08_22h47.34.525,MST_test,2024.2.2,60.05479399353815,2025-11-08 22h47.40.338867 +0530,
70,0,70,s,4.569757800003572,None,70,0,70,0,279.83178220000264,,,,,,,,,,,,,,,,,,,,,,,,,,,,,,,,,,,,,,,,,,,,,,,,,,279.8154480000012,279.83178220000264,280.33172339999874,280.3152532000022,280.3251937000023,280.33172339999874,280.33172339999874,280.33172339999874,284.9153923999984,Foils\105a.jpg,none,s,4.569757800003572,None,,,,,,,,00003,001,2025-11-08_22h47.34.525,MST_test,2024.2.2,60.05479399353815,2025-11-08 22h47.40.338867 +0530,
71,0,71,o,1.0860356000048341,None,71,0,71,0,284.93165829999634,,,,,,,,,,,,,,,,,,,,,,,,,,,,,,,,,,,,,,,,,,,,,,,,,,284.9154733999967,284.93165829999634,285.43164100000286,285.41526929999964,285.4245165999964,285.43164100000286,285.43164100000286,285.43164100000286,286.53203719999874,Objects\046a.jpg,mid,o,1.0860356000048341,None,,,,,,,,00003,001,2025-11-08_22h47.34.525,MST_test,2024.2.2,60.05479399353815,2025-11-08 22h47.40.338867 +0530,
72,0,72,n,1.9591494999986026,None,72,0,72,0,286.54830570000195,,,,,,,,,,,,,,,,,,,,,,,,,,,,,,,,,,,,,,,,,,,,,,,,,,286.5321171999967,286.54830570000195,287.06499330000224,287.0318588000009,287.048641100002,287.06499330000224,287.06499330000224,287.06499330000224,289.0320337000012,Foils\002a.jpg,none,n,1.9591494999986026,None,,,,,,,,00003,001,2025-11-08_22h47.34.525,MST_test,2024.2.2,60.05479399353815,2025-11-08 22h47.40.338867 +0530,
73,0,73,n,1.4551401999997324,None,73,0,73,0,289.0483022999979,,,,,,,,,,,,,,,,,,,,,,,,,,,,,,,,,,,,,,,,,,,,,,,,,,289.0321163999979,289.0483022999979,289.59829609999724,289.5317905999982,289.5476854000008,289.59829609999724,289.59829609999724,289.59829609999724,291.06525359999796,Scenes\163a.jpg,mid,n,1.4551401999997324,None,,,,,,,,00003,001,2025-11-08_22h47.34.525,MST_test,2024.2.2,60.05479399353815,2025-11-08 22h47.40.338867 +0530,
74,0,74,n,1.6677083000031416,None,74,0,74,0,291.0814965000027,,,,,,,,,,,,,,,,,,,,,,,,,,,,,,,,,,,,,,,,,,,,,,,,,,291.0653351000001,291.0814965000027,291.58147830000235,291.56507930000225,291.57465789999696,291.58147830000235,291.58147830000235,291.58147830000235,293.2651270999995,Objects\029a.jpg,post,n,1.6677083000031416,None,,,,,,,,00003,001,2025-11-08_22h47.34.525,MST_test,2024.2.2,60.05479399353815,2025-11-08 22h47.40.338867 +0530,
75,0,75,s,2.3952563000057125,None,75,0,75,0,293.2814400999996,,,,,,,,,,,,,,,,,,,,,,,,,,,,,,,,,,,,,,,,,,,,,,,,,,293.26520719999826,293.2814400999996,293.7981159999981,293.7649743000002,293.7831079000025,293.7981159999981,293.7981159999981,293.7981159999981,296.19856230000005,Scenes\172a.jpg,post,s,2.3952563000057125,None,,,,,,,,00003,001,2025-11-08_22h47.34.525,MST_test,2024.2.2,60.05479399353815,2025-11-08 22h47.40.338867 +0530,
76,0,76,n,1.492276299999503,None,76,0,76,0,296.2147466000024,,,,,,,,,,,,,,,,,,,,,,,,,,,,,,,,,,,,,,,,,,,,,,,,,,296.1986493000004,296.2147466000024,296.73136890000023,296.6982341999974,296.7140373000002,296.73136890000023,296.73136890000023,296.73136890000023,298.2317738999991,Objects\022b.jpg,pre,n,1.492276299999503,None,,,,,,,,00003,001,2025-11-08_22h47.34.525,MST_test,2024.2.2,60.05479399353815,2025-11-08 22h47.40.338867 +0530,
77,0,77,n,2.300516199997219,None,77,0,77,0,298.24804459999723,,,,,,,,,,,,,,,,,,,,,,,,,,,,,,,,,,,,,,,,,,,,,,,,,,298.23185150000063,298.24804459999723,298.76466130000335,298.7315482999984,298.75255460000335,298.76466130000335,298.76466130000335,298.76466130000335,301.08173779999925,Scenes\106a.jpg,mid,n,2.300516199997219,None,,,,,,,,00003,001,2025-11-08_22h47.34.525,MST_test,2024.2.2,60.05479399353815,2025-11-08 22h47.40.338867 +0530,
78,0,78,o,1.7840441999942414,None,78,0,78,0,301.09793419999914,,,,,,,,,,,,,,,,,,,,,,,,,,,,,,,,,,,,,,,,,,,,,,,,,,301.0818285999994,301.09793419999914,301.5981238000022,301.58152849999897,301.59311290000187,301.5981238000022,301.5981238000022,301.5981238000022,303.3983791999999,Scenes\008b.jpg,pre,o,1.7840441999942414,None,,,,,,,,00003,001,2025-11-08_22h47.34.525,MST_test,2024.2.2,60.05479399353815,2025-11-08 22h47.40.338867 +0530,
79,0,79,o,4.67096329999913,None,79,0,79,0,303.4145828999972,,,,,,,,,,,,,,,,,,,,,,,,,,,,,,,,,,,,,,,,,,,,,,,,,,303.39845739999873,303.4145828999972,303.91470010000194,303.89806430000317,303.90887340000336,303.91470010000194,303.91470010000194,303.91470010000194,308.5982115000006,Objects\144a.jpg,post,o,4.67096329999913,None,,,,,,,,00003,001,2025-11-08_22h47.34.525,MST_test,2024.2.2,60.05479399353815,2025-11-08 22h47.40.338867 +0530,
80,0,80,o,2.523794500004442,None,80,0,80,0,308.61447770000086,,,,,,,,,,,,,,,,,,,,,,,,,,,,,,,,,,,,,,,,,,,,,,,,,,308.5982998999971,308.61447770000086,309.1310974000007,309.09799249999924,309.1202259999991,309.1310974000007,309.1310974000007,309.1310974000007,311.66483880000305,Scenes\103b.jpg,pre,o,2.523794500004442,None,,,,,,,,00003,001,2025-11-08_22h47.34.525,MST_test,2024.2.2,60.05479399353815,2025-11-08 22h47.40.338867 +0530,
81,0,81,n,3.2067373999962,None,81,0,81,0,311.681078900001,,,,,,,,,,,,,,,,,,,,,,,,,,,,,,,,,,,,,,,,,,,,,,,,,,311.6649316999974,311.681078900001,312.18102530000033,312.1646011999983,312.1746228999982,312.18102530000033,312.18102530000033,312.18102530000033,315.398128300003,Foils\081a.jpg,none,n,3.2067373999962,None,,,,,,,,00003,001,2025-11-08_22h47.34.525,MST_test,2024.2.2,60.05479399353815,2025-11-08 22h47.40.338867 +0530,
82,0,82,o,1.29905869999493,None,82,0,82,0,315.41429079999943,,,,,,,,,,,,,,,,,,,,,,,,,,,,,,,,,,,,,,,,,,,,,,,,,,315.3982124000031,315.41429079999943,315.91428489999817,315.89780659999815,315.9079458999986,315.91428489999817,315.91428489999817,315.91428489999817,317.21469320000324,Objects\181a.jpg,pre,o,1.29905869999493,None,,,,,,,,00003,001,2025-11-08_22h47.34.525,MST_test,2024.2.2,60.05479399353815,2025-11-08 22h47.40.338867 +0530,
83,0,83,n,1.5698521000012988,None,83,0,83,0,317.2309600000008,,,,,,,,,,,,,,,,,,,,,,,,,,,,,,,,,,,,,,,,,,,,,,,,,,317.21476450000046,317.2309600000008,317.74756999999954,317.7144410999972,317.73219580000296,317.74756999999954,317.74756999999954,317.74756999999954,319.3311950999996,Foils\086a.jpg,none,n,1.5698521000012988,None,,,,,,,,00003,001,2025-11-08_22h47.34.525,MST_test,2024.2.2,60.05479399353815,2025-11-08 22h47.40.338867 +0530,
84,0,84,o,3.872336300002644,None,84,0,84,0,319.34758319999673,,,,,,,,,,,,,,,,,,,,,,,,,,,,,,,,,,,,,,,,,,,,,,,,,,319.3312717000008,319.34758319999673,319.88086150000163,319.8311831000028,319.8700203999979,319.88086150000163,319.88086150000163,319.88086150000163,323.76451649999944,Scenes\059b.jpg,mid,o,3.872336300002644,None,,,,,,,,00003,001,2025-11-08_22h47.34.525,MST_test,2024.2.2,60.05479399353815,2025-11-08 22h47.40.338867 +0530,
85,0,85,s,3.726796800001466,None,85,0,85,0,323.78081859999656,,,,,,,,,,,,,,,,,,,,,,,,,,,,,,,,,,,,,,,,,,,,,,,,,,323.7645984999981,323.78081859999656,324.2974277999965,324.26442269999825,324.28581239999767,324.2974277999965,324.2974277999965,324.2974277999965,328.03110619999643,Scenes\003b.jpg,pre,s,3.726796800001466,None,,,,,,,,00003,001,2025-11-08_22h47.34.525,MST_test,2024.2.2,60.05479399353815,2025-11-08 22h47.40.338867 +0530,
86,0,86,o,1.3432232000050135,None,86,0,86,0,328.04738830000133,,,,,,,,,,,,,,,,,,,,,,,,,,,,,,,,,,,,,,,,,,,,,,,,,,328.0311849999998,328.04738830000133,328.5640066999986,328.5308148999975,328.5475409999999,328.5640066999986,328.5640066999986,328.5640066999986,329.91437099999894,Objects\075b.jpg,post,o,1.3432232000050135,None,,,,,,,,00003,001,2025-11-08_22h47.34.525,MST_test,2024.2.2,60.05479399353815,2025-11-08 22h47.40.338867 +0530,
87,0,87,n,1.6838661999936448,None,87,0,87,0,329.9306332999986,,,,,,,,,,,,,,,,,,,,,,,,,,,,,,,,,,,,,,,,,,,,,,,,,,329.9144524000003,329.9306332999986,330.4639643999981,330.41430709999986,330.4489587999997,330.4639643999981,330.4639643999981,330.4639643999981,332.1642748000013,Scenes\052b.jpg,pre,n,1.6838661999936448,None,,,,,,,,00003,001,2025-11-08_22h47.34.525,MST_test,2024.2.2,60.05479399353815,2025-11-08 22h47.40.338867 +0530,
88,0,88,n,1.6724420000027749,None,88,0,88,0,332.18062289999943,,,,,,,,,,,,,,,,,,,,,,,,,,,,,,,,,,,,,,,,,,,,,,,,,,332.16435400000046,332.18062289999943,332.6972481999983,332.6641927000019,332.68674559999636,332.6972481999983,332.6972481999983,332.6972481999983,334.3808609999978,Scenes\084a.jpg,mid,n,1.6724420000027749,None,,,,,,,,00003,001,2025-11-08_22h47.34.525,MST_test,2024.2.2,60.05479399353815,2025-11-08 22h47.40.338867 +0530,
89,0,89,o,4.992906300001778,None,89,0,89,0,334.39727069999935,,,,,,,,,,,,,,,,,,,,,,,,,,,,,,,,,,,,,,,,,,,,,,,,,,334.3809390000024,334.39727069999935,334.89722240000265,334.8807772,334.8909227999975,334.89722240000265,334.89722240000265,334.89722240000265,339.8974053999991,Objects\120b.jpg,post,o,4.992906300001778,None,,,,,,,,00003,001,2025-11-08_22h47.34.525,MST_test,2024.2.2,60.05479399353815,2025-11-08 22h47.40.338867 +0530,
90,0,90,s,2.178782000002684,None,90,0,90,0,339.9137866000019,,,,,,,,,,,,,,,,,,,,,,,,,,,,,,,,,,,,,,,,,,,,,,,,,,339.89748099999997,339.9137866000019,340.4473186000032,340.39732260000164,340.4291035999995,340.4473186000032,340.4473186000032,340.4473186000032,342.6308324999991,Scenes\067b.jpg,post,s,2.178782000002684,None,,,,,,,,00003,001,2025-11-08_22h47.34.525,MST_test,2024.2.2,60.05479399353815,2025-11-08 22h47.40.338867 +0530,
91,0,91,o,1.2917464999991353,None,91,0,91,0,342.6470696999968,,,,,,,,,,,,,,,,,,,,,,,,,,,,,,,,,,,,,,,,,,,,,,,,,,342.6309170000022,342.6470696999968,343.1638785000032,343.1306070999999,343.1467980000016,343.1638785000032,343.1638785000032,343.1638785000032,344.46397270000307,Scenes\169a.jpg,post,o,1.2917464999991353,None,,,,,,,,00003,001,2025-11-08_22h47.34.525,MST_test,2024.2.2,60.05479399353815,2025-11-08 22h47.40.338867 +0530,
92,0,92,n,1.3272337000016705,None,92,0,92,0,344.4803596999991,,,,,,,,,,,,,,,,,,,,,,,,,,,,,,,,,,,,,,,,,,,,,,,,,,344.46404910000274,344.4803596999991,345.01397310000175,344.96392670000205,344.99457619999885,345.01397310000175,345.01397310000175,345.01397310000175,346.34735170000204,Objects\162b.jpg,post,n,1.3272337000016705,None,,,,,,,,00003,001,2025-11-08_22h47.34.525,MST_test,2024.2.2,60.05479399353815,2025-11-08 22h47.40.338867 +0530,
93,0,93,n,0.890335199997935,None,93,0,93,0,346.3636065000028,,,,,,,,,,,,,,,,,,,,,,,,,,,,,,,,,,,,,,,,,,,,,,,,,,346.3474381999986,346.3636065000028,346.89697210000304,346.8471419999987,346.88816280000174,346.89697210000304,346.89697210000304,346.89697210000304,347.7972777000032,Scenes\078b.jpg,pre,n,0.890335199997935,None,,,,,,,,00003,001,2025-11-08_22h47.34.525,MST_test,2024.2.2,60.05479399353815,2025-11-08 22h47.40.338867 +0530,
94,0,94,s,2.569633999999496,None,94,0,94,0,347.8136416999987,,,,,,,,,,,,,,,,,,,,,,,,,,,,,,,,,,,,,,,,,,,,,,,,,,347.79735639999853,347.8136416999987,348.3136586999972,348.2972363000008,348.30949939999846,348.3136586999972,348.3136586999972,348.3136586999972,350.8971587999986,Scenes\066a.jpg,post,s,2.569633999999496,None,,,,,,,,00003,001,2025-11-08_22h47.34.525,MST_test,2024.2.2,60.05479399353815,2025-11-08 22h47.40.338867 +0530,
95,0,95,o,1.3501037000023643,None,95,0,95,0,350.9135475000003,,,,,,,,,,,,,,,,,,,,,,,,,,,,,,,,,,,,,,,,,,,,,,,,,,350.89724240000214,350.9135475000003,351.41355669999757,351.3970190999971,351.40649549999944,351.41355669999757,351.41355669999757,351.41355669999757,352.7640102000005,Foils\066a.jpg,none,o,1.3501037000023643,None,,,,,,,,00003,001,2025-11-08_22h47.34.525,MST_test,2024.2.2,60.05479399353815,2025-11-08 22h47.40.338867 +0530,
96,0,96,o,1.526864299994486,None,96,0,96,0,352.7801585999987,,,,,,,,,,,,,,,,,,,,,,,,,,,,,,,,,,,,,,,,,,,,,,,,,,352.7640922999999,352.7801585999987,353.296640499997,353.2637914000006,353.29282570000214,353.296640499997,353.296640499997,353.296640499997,354.83040040000196,Scenes\009a.jpg,post,o,1.526864299994486,None,,,,,,,,00003,001,2025-11-08_22h47.34.525,MST_test,2024.2.2,60.05479399353815,2025-11-08 22h47.40.338867 +0530,
97,0,97,s,1.4019814999992377,None,97,0,97,0,354.8467918000024,,,,,,,,,,,,,,,,,,,,,,,,,,,,,,,,,,,,,,,,,,,,,,,,,,354.83048540000163,354.8467918000024,355.38017409999884,355.33027089999814,355.3615320000026,355.38017409999884,355.38017409999884,355.38017409999884,356.7970454000024,Objects\142b.jpg,mid,s,1.4019814999992377,None,,,,,,,,00003,001,2025-11-08_22h47.34.525,MST_test,2024.2.2,60.05479399353815,2025-11-08 22h47.40.338867 +0530,
98,0,98,s,1.3669595000028494,None,98,0,98,0,356.81342530000256,,,,,,,,,,,,,,,,,,,,,,,,,,,,,,,,,,,,,,,,,,,,,,,,,,356.7971353999965,356.81342530000256,357.3302631999977,357.29692200000136,357.3254964000007,357.3302631999977,357.3302631999977,357.3302631999977,358.7136612000031,Scenes\152b.jpg,pre,s,1.3669595000028494,None,,,,,,,,00003,001,2025-11-08_22h47.34.525,MST_test,2024.2.2,60.05479399353815,2025-11-08 22h47.40.338867 +0530,
99,0,99,s,0.6238269000023138,None,99,0,99,0,358.7300417000006,,,,,,,,,,,,,,,,,,,,,,,,,,,,,,,,,,,,,,,,,,,,,,,,,,358.71373660000245,358.7300417000006,359.2302114999984,359.2136229000025,359.2207754999981,359.2302114999984,359.2302114999984,359.2302114999984,359.863732400001,Foils\scenes20.jpg,none,s,0.6238269000023138,None,,,,,,,,00003,001,2025-11-08_22h47.34.525,MST_test,2024.2.2,60.05479399353815,2025-11-08 22h47.40.338867 +0530,
100,0,100,s,2.4088175000069896,None,100,0,100,0,359.87998459999653,,,,,,,,,,,,,,,,,,,,,,,,,,,,,,,,,,,,,,,,,,,,,,,,,,359.8638107000006,359.87998459999653,360.3968718000033,360.36353170000075,360.3894528000019,360.3968718000033,360.3968718000033,360.3968718000033,362.81370179999794,Objects\180b.jpg,post,s,2.4088175000069896,None,,,,,,,,00003,001,2025-11-08_22h47.34.525,MST_test,2024.2.2,60.05479399353815,2025-11-08 22h47.40.338867 +0530,
101,0,101,n,1.8353075999984867,None,101,0,101,0,362.8299576999998,,,,,,,,,,,,,,,,,,,,,,,,,,,,,,,,,,,,,,,,,,,,,,,,,,362.81378779999795,362.8299576999998,363.34660679999797,363.3135639000029,363.3294711999988,363.34660679999797,363.34660679999797,363.34660679999797,365.196823600003,Objects\067b.jpg,pre,n,1.8353075999984867,None,,,,,,,,00003,001,2025-11-08_22h47.34.525,MST_test,2024.2.2,60.05479399353815,2025-11-08 22h47.40.338867 +0530,
102,0,102,o,1.4884120000060648,None,102,0,102,0,365.21323629999824,,,,,,,,,,,,,,,,,,,,,,,,,,,,,,,,,,,,,,,,,,,,,,,,,,365.1969078999973,365.21323629999824,365.713207300003,365.69678900000144,365.7062300999969,365.713207300003,365.713207300003,365.713207300003,367.2136133000022,Objects\083a.jpg,mid,o,1.4884120000060648,None,,,,,,,,00003,001,2025-11-08_22h47.34.525,MST_test,2024.2.2,60.05479399353815,2025-11-08 22h47.40.338867 +0530,
103,0,103,o,1.0602591999995639,None,103,0,103,0,367.2298544000005,,,,,,,,,,,,,,,,,,,,,,,,,,,,,,,,,,,,,,,,,,,,,,,,,,367.21370079999906,367.2298544000005,367.72985090000293,367.7134592000002,367.7237176999988,367.72985090000293,367.72985090000293,367.72985090000293,368.79676130000007,Objects\066a.jpg,pre,o,1.0602591999995639,None,,,,,,,,00003,001,2025-11-08_22h47.34.525,MST_test,2024.2.2,60.05479399353815,2025-11-08 22h47.40.338867 +0530,
104,0,104,n,1.8580548000027193,None,104,0,104,0,368.81315419999737,,,,,,,,,,,,,,,,,,,,,,,,,,,,,,,,,,,,,,,,,,,,,,,,,,368.79684299999644,368.81315419999737,369.3300308999969,369.2966107999964,369.3091620999985,369.3300308999969,369.3300308999969,369.3300308999969,371.1967577000032,Scenes\061a.jpg,mid,n,1.8580548000027193,None,,,,,,,,00003,001,2025-11-08_22h47.34.525,MST_test,2024.2.2,60.05479399353815,2025-11-08 22h47.40.338867 +0530,
105,0,105,n,1.0560810999959358,None,105,0,105,0,371.2130662999989,,,,,,,,,,,,,,,,,,,,,,,,,,,,,,,,,,,,,,,,,,,,,,,,,,371.1968343999979,371.2130662999989,371.7133240999974,371.6966564000031,371.7027569999991,371.7133240999974,371.7133240999974,371.7133240999974,372.7801137999995,Foils\scenes5.jpg,none,n,1.0560810999959358,None,,,,,,,,00003,001,2025-11-08_22h47.34.525,MST_test,2024.2.2,60.05479399353815,2025-11-08 22h47.40.338867 +0530,
106,0,106,o,1.5393823999984306,None,106,0,106,0,372.79646779999894,,,,,,,,,,,,,,,,,,,,,,,,,,,,,,,,,,,,,,,,,,,,,,,,,,372.7801956999974,372.79646779999894,373.29634780000197,373.27987340000254,373.29103519999626,373.29634780000197,373.29634780000197,373.29634780000197,374.84678529999655,Objects\184a.jpg,post,o,1.5393823999984306,None,,,,,,,,00003,001,2025-11-08_22h47.34.525,MST_test,2024.2.2,60.05479399353815,2025-11-08 22h47.40.338867 +0530,
107,0,107,n,1.6366658000042662,None,107,0,107,0,374.8630348000006,,,,,,,,,,,,,,,,,,,,,,,,,,,,,,,,,,,,,,,,,,,,,,,,,,374.8468713999973,374.8630348000006,375.36297809999814,375.3464865999995,375.3559208000006,375.36297809999814,375.36297809999814,375.36297809999814,377.0133865000025,Foils\073a.jpg,none,n,1.6366658000042662,None,,,,,,,,00003,001,2025-11-08_22h47.34.525,MST_test,2024.2.2,60.05479399353815,2025-11-08 22h47.40.338867 +0530,
108,0,108,o,1.657415800000308,None,108,0,108,0,377.0296404999972,,,,,,,,,,,,,,,,,,,,,,,,,,,,,,,,,,,,,,,,,,,,,,,,,,377.0134726000033,377.0296404999972,377.5462626000008,377.51321859999734,377.54179199999635,377.5462626000008,377.5462626000008,377.5462626000008,379.2133124000029,Objects\174b.jpg,mid,o,1.657415800000308,None,,,,,,,,00003,001,2025-11-08_22h47.34.525,MST_test,2024.2.2,60.05479399353815,2025-11-08 22h47.40.338867 +0530,
109,0,109,o,1.8487034999998286,None,109,0,109,0,379.2295918000018,,,,,,,,,,,,,,,,,,,,,,,,,,,,,,,,,,,,,,,,,,,,,,,,,,379.21338860000105,379.2295918000018,379.76322269999946,379.7130782000022,379.7521207000027,379.76322269999946,379.76322269999946,379.76322269999946,381.6131832999963,Scenes\021b.jpg,post,o,1.8487034999998286,None,,,,,,,,00003,001,2025-11-08_22h47.34.525,MST_test,2024.2.2,60.05479399353815,2025-11-08 22h47.40.338867 +0530,
110,0,110,o,3.241505899997719,None,110,0,110,0,381.62956349999877,,,,,,,,,,,,,,,,,,,,,,,,,,,,,,,,,,,,,,,,,,,,,,,,,,381.6132615000024,381.62956349999877,382.1461543999976,382.1130598000018,382.1295267000023,382.1461543999976,382.1461543999976,382.1461543999976,385.39650899999833,Objects\030b.jpg,mid,o,3.241505899997719,None,,,,,,,,00003,001,2025-11-08_22h47.34.525,MST_test,2024.2.2,60.05479399353815,2025-11-08 22h47.40.338867 +0530,
111,0,111,o,1.784399799995299,None,111,0,111,0,385.41279999999824,,,,,,,,,,,,,,,,,,,,,,,,,,,,,,,,,,,,,,,,,,,,,,,,,,385.3965965000025,385.41279999999824,385.929409700002,385.8962950999994,385.91169609999633,385.929409700002,385.929409700002,385.929409700002,387.7296350999968,Scenes\039a.jpg,pre,o,1.784399799995299,None,,,,,,,,00003,001,2025-11-08_22h47.34.525,MST_test,2024.2.2,60.05479399353815,2025-11-08 22h47.40.338867 +0530,
112,0,112,o,0.8794802999982494,None,112,0,112,0,387.74606250000215,,,,,,,,,,,,,,,,,,,,,,,,,,,,,,,,,,,,,,,,,,,,,,,,,,387.7297133999964,387.74606250000215,388.2460215999963,388.2295707000012,388.23911999999837,388.2460215999963,388.2460215999963,388.2460215999963,389.12972720000107,Objects\128a.jpg,mid,o,0.8794802999982494,None,,,,,,,,00003,001,2025-11-08_22h47.34.525,MST_test,2024.2.2,60.05479399353815,2025-11-08 22h47.40.338867 +0530,
113,0,113,s,1.6114199000003282,None,113,0,113,0,389.1461268999992,,,,,,,,,,,,,,,,,,,,,,,,,,,,,,,,,,,,,,,,,,,,,,,,,,389.12980109999626,389.1461268999992,389.66275360000145,389.6295446000004,389.65115859999787,389.66275360000145,389.66275360000145,389.66275360000145,391.27969000000303,Scenes\181a.jpg,post,s,1.6114199000003282,None,,,,,,,,00003,001,2025-11-08_22h47.34.525,MST_test,2024.2.2,60.05479399353815,2025-11-08 22h47.40.338867 +0530,
114,0,114,o,1.5787944000039715,None,114,0,114,0,391.2960993000015,,,,,,,,,,,,,,,,,,,,,,,,,,,,,,,,,,,,,,,,,,,,,,,,,,391.27976599999965,391.2960993000015,391.8126587000006,391.7795597000004,391.8081763000009,391.8126587000006,391.8126587000006,391.8126587000006,393.39643429999705,Objects\182b.jpg,pre,o,1.5787944000039715,None,,,,,,,,00003,001,2025-11-08_22h47.34.525,MST_test,2024.2.2,60.05479399353815,2025-11-08 22h47.40.338867 +0530,
115,0,115,n,1.4024508000002243,None,115,0,115,0,393.4127329999974,,,,,,,,,,,,,,,,,,,,,,,,,,,,,,,,,,,,,,,,,,,,,,,,,,393.3965193999975,393.4127329999974,393.92956660000345,393.8961868999977,393.9200666999968,393.92956660000345,393.92956660000345,393.92956660000345,395.34624240000267,Scenes\002a.jpg,pre,n,1.4024508000002243,None,,,,,,,,00003,001,2025-11-08_22h47.34.525,MST_test,2024.2.2,60.05479399353815,2025-11-08 22h47.40.338867 +0530,
116,0,116,n,0.9885181999998167,None,116,0,116,0,395.3627074000033,,,,,,,,,,,,,,,,,,,,,,,,,,,,,,,,,,,,,,,,,,,,,,,,,,395.3463222999999,395.3627074000033,395.8629546000011,395.8460937999989,395.8536363000021,395.8629546000011,395.8629546000011,395.8629546000011,396.8629071000032,Foils\scenes7.jpg,none,n,0.9885181999998167,None,,,,,,,,00003,001,2025-11-08_22h47.34.525,MST_test,2024.2.2,60.05479399353815,2025-11-08 22h47.40.338867 +0530,
117,0,117,n,0.9959869999947841,None,117,0,117,0,396.8792906000017,,,,,,,,,,,,,,,,,,,,,,,,,,,,,,,,,,,,,,,,,,,,,,,,,,396.8629860000001,396.8792906000017,397.3961247999978,397.3628261999984,397.378102900002,397.3961247999978,397.3961247999978,397.3961247999978,398.39629520000017,Foils\020b.jpg,none,n,0.9959869999947841,None,,,,,,,,00003,001,2025-11-08_22h47.34.525,MST_test,2024.2.2,60.05479399353815,2025-11-08 22h47.40.338867 +0530,
118,0,118,s,1.756241900002351,None,118,0,118,0,398.41261569999915,,,,,,,,,,,,,,,,,,,,,,,,,,,,,,,,,,,,,,,,,,,,,,,,,,398.3963771999988,398.41261569999915,398.9292174000002,398.8960786000025,398.9184297999964,398.9292174000002,398.9292174000002,398.9292174000002,400.6961184000029,Objects\126b.jpg,post,s,1.756241900002351,None,,,,,,,,00003,001,2025-11-08_22h47.34.525,MST_test,2024.2.2,60.05479399353815,2025-11-08 22h47.40.338867 +0530,
119,0,119,n,1.2781513000009,None,119,0,119,0,400.7126273000031,,,,,,,,,,,,,,,,,,,,,,,,,,,,,,,,,,,,,,,,,,,,,,,,,,400.6961949999968,400.7126273000031,401.2294810000021,401.1960478999972,401.21525850000035,401.2294810000021,401.2294810000021,401.2294810000021,402.51277349999873,Scenes\091a.jpg,post,n,1.2781513000009,None,,,,,,,,00003,001,2025-11-08_22h47.34.525,MST_test,2024.2.2,60.05479399353815,2025-11-08 22h47.40.338867 +0530,
120,0,120,o,1.459521599994332,None,120,0,120,0,402.52916299999924,,,,,,,,,,,,,,,,,,,,,,,,,,,,,,,,,,,,,,,,,,,,,,,,,,402.51284640000085,402.52916299999924,403.04603789999965,403.012665299997,403.0291969999962,403.04603789999965,403.04603789999965,403.04603789999965,404.5127579999971,Scenes\137a.jpg,mid,o,1.459521599994332,None,,,,,,,,00003,001,2025-11-08_22h47.34.525,MST_test,2024.2.2,60.05479399353815,2025-11-08 22h47.40.338867 +0530,
121,0,121,n,2.538000700005796,None,121,0,121,0,404.5291184000016,,,,,,,,,,,,,,,,,,,,,,,,,,,,,,,,,,,,,,,,,,,,,,,,,,404.51283330000297,404.5291184000016,405.0460634999981,405.01262439999846,405.03097960000014,405.0460634999981,405.0460634999981,405.0460634999981,407.59615230000054,Scenes\186a.jpg,pre,n,2.538000700005796,None,,,,,,,,00003,001,2025-11-08_22h47.34.525,MST_test,2024.2.2,60.05479399353815,2025-11-08 22h47.40.338867 +0530,
122,0,122,o,1.8761192000019946,None,122,0,122,0,407.61238530000264,,,,,,,,,,,,,,,,,,,,,,,,,,,,,,,,,,,,,,,,,,,,,,,,,,407.59623830000055,407.61238530000264,408.1291467999981,408.0957714999968,408.11356089999754,408.1291467999981,408.1291467999981,408.1291467999981,410.01256809999904,Objects\003b.jpg,mid,o,1.8761192000019946,None,,,,,,,,00003,001,2025-11-08_22h47.34.525,MST_test,2024.2.2,60.05479399353815,2025-11-08 22h47.40.338867 +0530,
123,0,123,o,2.2367956999951275,None,123,0,123,0,410.0289130000019,,,,,,,,,,,,,,,,,,,,,,,,,,,,,,,,,,,,,,,,,,,,,,,,,,410.0126498000027,410.0289130000019,410.54553699999815,410.512429800001,410.537886099999,410.54553699999815,410.54553699999815,410.54553699999815,412.79588189999777,Objects\143b.jpg,post,o,2.2367956999951275,None,,,,,,,,00003,001,2025-11-08_22h47.34.525,MST_test,2024.2.2,60.05479399353815,2025-11-08 22h47.40.338867 +0530,
124,0,124,n,2.368573899999319,None,124,0,124,0,412.8122164000015,,,,,,,,,,,,,,,,,,,,,,,,,,,,,,,,,,,,,,,,,,,,,,,,,,412.7959746999986,412.8122164000015,413.32899629999883,413.2956980000017,413.3131771999979,413.32899629999883,413.32899629999883,413.32899629999883,415.71251060000213,Scenes\087a.jpg,mid,n,2.368573899999319,None,,,,,,,,00003,001,2025-11-08_22h47.34.525,MST_test,2024.2.2,60.05479399353815,2025-11-08 22h47.40.338867 +0530,
125,0,125,s,3.110038800004986,None,125,0,125,0,415.7288133999973,,,,,,,,,,,,,,,,,,,,,,,,,,,,,,,,,,,,,,,,,,,,,,,,,,415.7125939000034,415.7288133999973,416.26226609999867,416.2124154999983,416.25454660000105,416.26226609999867,416.26226609999867,416.26226609999867,419.3790149999986,Scenes\089b.jpg,pre,s,3.110038800004986,None,,,,,,,,00003,001,2025-11-08_22h47.34.525,MST_test,2024.2.2,60.05479399353815,2025-11-08 22h47.40.338867 +0530,
126,0,126,s,1.0118086000002222,None,126,0,126,0,419.39536809999845,,,,,,,,,,,,,,,,,,,,,,,,,,,,,,,,,,,,,,,,,,,,,,,,,,419.3790977000026,419.39536809999845,419.8955350999968,419.8789340000003,419.88902830000006,419.8955350999968,419.8955350999968,419.8955350999968,420.91243560000294,Objects\009a.jpg,post,s,1.0118086000002222,None,,,,,,,,00003,001,2025-11-08_22h47.34.525,MST_test,2024.2.2,60.05479399353815,2025-11-08 22h47.40.338867 +0530,
127,0,127,o,1.42892369999754,None,127,0,127,0,420.92880100000184,,,,,,,,,,,,,,,,,,,,,,,,,,,,,,,,,,,,,,,,,,,,,,,,,,420.91251270000066,420.92880100000184,421.4286334999997,421.41228180000326,421.42219260000275,421.4286334999997,421.4286334999997,421.4286334999997,422.862260599999,Objects\059a.jpg,pre,o,1.42892369999754,None,,,,,,,,00003,001,2025-11-08_22h47.34.525,MST_test,2024.2.2,60.05479399353815,2025-11-08 22h47.40.338867 +0530,
128,0,128,n,1.130918599999859,None,128,0,128,0,422.87859800000297,,,,,,,,,,,,,,,,,,,,,,,,,,,,,,,,,,,,,,,,,,,,,,,,,,422.86233979999815,422.87859800000297,423.37861529999645,423.36210160000337,423.3734568,423.37861529999645,423.37861529999645,423.37861529999645,424.512349800003,Foils\097a.jpg,none,n,1.130918599999859,None,,,,,,,,00003,001,2025-11-08_22h47.34.525,MST_test,2024.2.2,60.05479399353815,2025-11-08 22h47.40.338867 +0530,
129,0,129,n,2.5996996000030776,None,129,0,129,0,424.52859940000053,,,,,,,,,,,,,,,,,,,,,,,,,,,,,,,,,,,,,,,,,,,,,,,,,,424.51242620000266,424.52859940000053,425.16208200000256,425.01205350000237,425.15127660000144,425.16208200000256,425.16208200000256,425.16208200000256,427.7622177000012,Foils\scenes25.jpg,none,n,2.5996996000030776,None,,,,,,,,00003,001,2025-11-08_22h47.34.525,MST_test,2024.2.2,60.05479399353815,2025-11-08 22h47.40.338867 +0530,
130,0,130,o,2.6256464999969467,None,130,0,130,0,427.77851799999917,,,,,,,,,,,,,,,,,,,,,,,,,,,,,,,,,,,,,,,,,,,,,,,,,,427.7622962000023,427.77851799999917,428.3121406999999,428.2621100000033,428.3074309000003,428.3121406999999,428.3121406999999,428.3121406999999,430.9453996000011,Scenes\062b.jpg,mid,o,2.6256464999969467,None,,,,,,,,00003,001,2025-11-08_22h47.34.525,MST_test,2024.2.2,60.05479399353815,2025-11-08 22h47.40.338867 +0530,
131,0,131,n,2.544172800000524,None,131,0,131,0,430.9618036000029,,,,,,,,,,,,,,,,,,,,,,,,,,,,,,,,,,,,,,,,,,,,,,,,,,430.9454723000017,430.9618036000029,431.49508010000136,431.44532739999704,431.4763744000011,431.49508010000136,431.49508010000136,431.49508010000136,434.0454643999983,Scenes\042b.jpg,pre,n,2.544172800000524,None,,,,,,,,00003,001,2025-11-08_22h47.34.525,MST_test,2024.2.2,60.05479399353815,2025-11-08 22h47.40.338867 +0530,
132,0,132,o,1.4674980999989202,None,132,0,132,0,434.0617209999982,,,,,,,,,,,,,,,,,,,,,,,,,,,,,,,,,,,,,,,,,,,,,,,,,,434.0455468,434.0617209999982,434.5786173000015,434.545306400003,434.56136980000156,434.5786173000015,434.5786173000015,434.5786173000015,436.0620761999962,Objects\167b.jpg,mid,o,1.4674980999989202,None,,,,,,,,00003,001,2025-11-08_22h47.34.525,MST_test,2024.2.2,60.05479399353815,2025-11-08 22h47.40.338867 +0530,
133,0,133,n,2.3009634999980335,None,133,0,133,0,436.07833830000163,,,,,,,,,,,,,,,,,,,,,,,,,,,,,,,,,,,,,,,,,,,,,,,,,,436.0621506000025,436.07833830000163,436.5782930999994,436.56184680000297,436.57151319999684,436.5782930999994,436.5782930999994,436.5782930999994,438.8952458999993,Objects\147a.jpg,post,n,2.3009634999980335,None,,,,,,,,00003,001,2025-11-08_22h47.34.525,MST_test,2024.2.2,60.05479399353815,2025-11-08 22h47.40.338867 +0530,
134,0,134,n,1.5796195000002626,None,134,0,134,0,438.91157060000114,,,,,,,,,,,,,,,,,,,,,,,,,,,,,,,,,,,,,,,,,,,,,,,,,,438.89532399999734,438.91157060000114,439.41157699999894,439.39508000000205,439.40478789999906,439.41157699999894,439.41157699999894,439.41157699999894,440.9953024999995,Objects\086a.jpg,pre,n,1.5796195000002626,None,,,,,,,,00003,001,2025-11-08_22h47.34.525,MST_test,2024.2.2,60.05479399353815,2025-11-08 22h47.40.338867 +0530,
135,0,135,o,1.390343999999459,None,135,0,135,0,441.0115364000012,,,,,,,,,,,,,,,,,,,,,,,,,,,,,,,,,,,,,,,,,,,,,,,,,,440.9953830000013,441.0115364000012,441.5115194999962,441.4951977000019,441.50488600000244,441.5115194999962,441.5115194999962,441.5115194999962,442.9118252999979,Objects\097b.jpg,mid,o,1.390343999999459,None,,,,,,,,00003,001,2025-11-08_22h47.34.525,MST_test,2024.2.2,60.05479399353815,2025-11-08 22h47.40.338867 +0530,
136,0,136,o,0.785363499999221,None,136,0,136,0,442.9281970000011,,,,,,,,,,,,,,,,,,,,,,,,,,,,,,,,,,,,,,,,,,,,,,,,,,442.91189809999923,442.9281970000011,443.42817379999906,443.4116396000027,443.42110859999957,443.42817379999906,443.42817379999906,443.42817379999906,444.22845439999946,Objects\001a.jpg,mid,o,0.785363499999221,None,,,,,,,,00003,001,2025-11-08_22h47.34.525,MST_test,2024.2.2,60.05479399353815,2025-11-08 22h47.40.338867 +0530,
137,0,137,o,1.3790633000025991,None,137,0,137,0,444.2448338000031,,,,,,,,,,,,,,,,,,,,,,,,,,,,,,,,,,,,,,,,,,,,,,,,,,444.2285361000031,444.2448338000031,444.77832189999754,444.7282886999965,444.7632114000007,444.77832189999754,444.77832189999754,444.77832189999754,446.1618938000029,Scenes\142b.jpg,post,o,1.3790633000025991,None,,,,,,,,00003,001,2025-11-08_22h47.34.525,MST_test,2024.2.2,60.05479399353815,2025-11-08 22h47.40.338867 +0530,
138,0,138,s,2.203562699993199,None,138,0,138,0,446.17811660000007,,,,,,,,,,,,,,,,,,,,,,,,,,,,,,,,,,,,,,,,,,,,,,,,,,446.16199020000204,446.17811660000007,446.6780704999983,446.66167139999743,446.6713469000024,446.6780704999983,446.6780704999983,446.6780704999983,448.89502209999773,Foils\101b.jpg,none,s,2.203562699993199,None,,,,,,,,00003,001,2025-11-08_22h47.34.525,MST_test,2024.2.2,60.05479399353815,2025-11-08 22h47.40.338867 +0530,
139,0,139,o,0.8312413999956334,None,139,0,139,0,448.91139739999926,,,,,,,,,,,,,,,,,,,,,,,,,,,,,,,,,,,,,,,,,,,,,,,,,,448.89510020000307,448.91139739999926,449.4280446999983,449.39486020000186,449.41458379999676,449.4280446999983,449.4280446999983,449.4280446999983,450.26189670000167,Scenes\155a.jpg,pre,o,0.8312413999956334,None,,,,,,,,00003,001,2025-11-08_22h47.34.525,MST_test,2024.2.2,60.05479399353815,2025-11-08 22h47.40.338867 +0530,
140,0,140,n,1.2232472999967285,None,140,0,140,0,450.27802939999674,,,,,,,,,,,,,,,,,,,,,,,,,,,,,,,,,,,,,,,,,,,,,,,,,,450.26199169999745,450.27802939999674,450.7946548999971,450.76161980000325,450.77770710000186,450.7946548999971,450.7946548999971,450.7946548999971,452.0282318000027,Objects\094b.jpg,mid,n,1.2232472999967285,None,,,,,,,,00003,001,2025-11-08_22h47.34.525,MST_test,2024.2.2,60.05479399353815,2025-11-08 22h47.40.338867 +0530,
141,0,141,n,1.2972153000009712,None,141,0,141,0,452.04466669999965,,,,,,,,,,,,,,,,,,,,,,,,,,,,,,,,,,,,,,,,,,,,,,,,,,452.0283073000028,452.04466669999965,452.54463759999635,452.52808150000055,452.5376159000007,452.54463759999635,452.54463759999635,452.54463759999635,453.84494599999744,Foils\017a.jpg,none,n,1.2972153000009712,None,,,,,,,,00003,001,2025-11-08_22h47.34.525,MST_test,2024.2.2,60.05479399353815,2025-11-08 22h47.40.338867 +0530,
142,0,142,o,1.4003182999949786,None,142,0,142,0,453.86127609999676,,,,,,,,,,,,,,,,,,,,,,,,,,,,,,,,,,,,,,,,,,,,,,,,,,453.84502559999964,453.86127609999676,454.3781011999963,454.3447537999964,454.3630099000002,454.3781011999963,454.3781011999963,454.3781011999963,455.7948490999988,Scenes\185b.jpg,pre,o,1.4003182999949786,None,,,,,,,,00003,001,2025-11-08_22h47.34.525,MST_test,2024.2.2,60.05479399353815,2025-11-08 22h47.40.338867 +0530,
143,0,143,o,1.0798560999974143,None,143,0,143,0,455.8112437000018,,,,,,,,,,,,,,,,,,,,,,,,,,,,,,,,,,,,,,,,,,,,,,,,,,455.79492919999757,455.8112437000018,456.32806770000025,456.29469529999915,456.31596819999686,456.32806770000025,456.32806770000025,456.32806770000025,457.41160530000343,Scenes\085a.jpg,post,o,1.0798560999974143,None,,,,,,,,00003,001,2025-11-08_22h47.34.525,MST_test,2024.2.2,60.05479399353815,2025-11-08 22h47.40.338867 +0530,
144,0,144,n,2.261096300004283,None,144,0,144,0,457.4278989000013,,,,,,,,,,,,,,,,,,,,,,,,,,,,,,,,,,,,,,,,,,,,,,,,,,457.4116883000024,457.4278989000013,457.9449034999998,457.91131940000196,457.92789050000283,457.9449034999998,457.9449034999998,457.9449034999998,460.2114322999987,Objects\085b.jpg,post,n,2.261096300004283,None,,,,,,,,00003,001,2025-11-08_22h47.34.525,MST_test,2024.2.2,60.05479399353815,2025-11-08 22h47.40.338867 +0530,
145,0,145,o,0.9672005000029458,None,145,0,145,0,460.2278157999972,,,,,,,,,,,,,,,,,,,,,,,,,,,,,,,,,,,,,,,,,,,,,,,,,,460.21151570000075,460.2278157999972,460.74445540000306,460.71126560000266,460.72773489999963,460.74445540000306,460.74445540000306,460.74445540000306,461.7281032000028,Objects\023b.jpg,mid,o,0.9672005000029458,None,,,,,,,,00003,001,2025-11-08_22h47.34.525,MST_test,2024.2.2,60.05479399353815,2025-11-08 22h47.40.338867 +0530,
146,0,146,o,1.2861919999995735,None,146,0,146,0,461.7444596999994,,,,,,,,,,,,,,,,,,,,,,,,,,,,,,,,,,,,,,,,,,,,,,,,,,461.728182699997,461.7444596999994,462.26107039999624,462.2279198999968,462.2438916999963,462.26107039999624,462.26107039999624,462.26107039999624,463.5614313999977,Objects\096b.jpg,post,o,1.2861919999995735,None,,,,,,,,00003,001,2025-11-08_22h47.34.525,MST_test,2024.2.2,60.05479399353815,2025-11-08 22h47.40.338867 +0530,
147,0,147,o,1.8193327999979374,None,147,0,147,0,463.57774049999716,,,,,,,,,,,,,,,,,,,,,,,,,,,,,,,,,,,,,,,,,,,,,,,,,,463.5615108999991,463.57774049999716,464.0779674000005,464.06121890000213,464.0668497000006,464.0779674000005,464.0779674000005,464.0779674000005,465.9113279000012,Foils\scenes13.jpg,none,o,1.8193327999979374,None,,,,,,,,00003,001,2025-11-08_22h47.34.525,MST_test,2024.2.2,60.05479399353815,2025-11-08 22h47.40.338867 +0530,
148,0,148,o,0.7060500000006869,None,148,0,148,0,465.9276930999986,,,,,,,,,,,,,,,,,,,,,,,,,,,,,,,,,,,,,,,,,,,,,,,,,,465.9114133999974,465.9276930999986,466.42764049999823,466.41130449999764,466.42064129999926,466.42764049999823,466.42764049999823,466.42764049999823,467.1448608999999,Objects\136a.jpg,post,o,0.7060500000006869,None,,,,,,,,00003,001,2025-11-08_22h47.34.525,MST_test,2024.2.2,60.05479399353815,2025-11-08 22h47.40.338867 +0530,
149,0,149,s,2.1183996999970987,None,149,0,149,0,467.16096229999675,,,,,,,,,,,,,,,,,,,,,,,,,,,,,,,,,,,,,,,,,,,,,,,,,,467.14493989999755,467.16096229999675,467.66094709999743,467.64451700000063,467.6542281000002,467.66094709999743,467.66094709999743,467.66094709999743,469.79464980000193,Foils\033a.jpg,none,s,2.1183996999970987,None,,,,,,,,00003,001,2025-11-08_22h47.34.525,MST_test,2024.2.2,60.05479399353815,2025-11-08 22h47.40.338867 +0530,
,,,,,,,,,,,,,,,,,,,,,,,,,,,,,,,,,,,,,,,,,,,,,,,,,,,,,,,,,,,,,,,,,,,,,,,,,,469.7947138000018,469.81093359999795,469.81093359999795,473.644564299997,space,3.821549500004039,None,00003,001,2025-11-08_22h47.34.525,MST_test,2024.2.2,60.05479399353815,2025-11-08 22h47.40.338867 +0530,
