thisN,thisTrialN,thisRepN,key_resp_3.keys,key_resp_3.rt,key_resp_3.duration,trials.thisRepN,trials.thisTrialN,trials.thisN,trials.thisIndex,thisRow.t,notes,intro_page.started,text.started,key_resp.started,intro_page.stopped,key_resp.keys,key_resp.rt,key_resp.duration,instructions.started,text_2.started,key_resp_2.started,instructions.stopped,key_resp_2.keys,key_resp_2.rt,key_resp_2.duration,demo1.started,image_1.started,image_2.started,text_7.started,key_resp_6.started,text_9.started,demo1.stopped,key_resp_6.keys,key_resp_6.rt,key_resp_6.duration,demo2.started,image_5.started,image_6.started,text_11.started,text_12.started,key_resp_8.started,demo2.stopped,key_resp_8.keys,key_resp_8.rt,key_resp_8.duration,demo_conclusion.started,text_13.started,key_resp_9.started,demo_conclusion.stopped,key_resp_9.keys,key_resp_9.rt,key_resp_9.duration,start_test.started,text_6.started,key_resp_5.started,start_test.stopped,key_resp_5.keys,key_resp_5.rt,key_resp_5.duration,ISI.started,text_4.started,text_4.stopped,ISI.stopped,routine_1.started,image.started,text_3.started,key_resp_3.started,routine_1.stopped,image_path,position_of_stimuli,trials.key_resp_3.keys,trials.key_resp_3.rt,trials.key_resp_3.duration,End_page.started,text_5.started,key_resp_4.started,End_page.stopped,key_resp_4.keys,key_resp_4.rt,key_resp_4.duration,participant,session,date,expName,psychopyVersion,frameRate,expStart,
,,,,,,,,,,,,0.005692700000054174,0.02200360000006185,0.02200360000006185,4.473136500000237,space,4.4071461999997155,None,,,,,,,,,,,,,,,,,,,,,,,,,,,,,,,,,,,,,,,,,,,,,,,,,,,,,,,,,,,,,,,00008,001,2025-11-10_17h06.27.688,MST_test,2024.2.2,59.971921146526,2025-11-10 17h06.34.193005 +0530,
,,,,,,,,,,,,,,,,,,,4.4731791000003795,4.488511300000027,4.488511300000027,13.605209100000138,space,9.108584200000223,None,,,,,,,,,,,,,,,,,,,,,,,,,,,,,,,,,,,,,,,,,,,,,,,,,,,,,,,,00008,001,2025-11-10_17h06.27.688,MST_test,2024.2.2,59.971921146526,2025-11-10 17h06.34.193005 +0530,
,,,,,,,,,,,,,,,,,,,,,,,,,,13.605230900000151,13.621687700000166,13.621687700000166,13.621687700000166,13.621687700000166,13.621687700000166,18.471973300000172,space,4.83884289999969,None,,,,,,,,,,,,,,,,,,,,,,,,,,,,,,,,,,,,,,,,,,,,,,00008,001,2025-11-10_17h06.27.688,MST_test,2024.2.2,59.971921146526,2025-11-10 17h06.34.193005 +0530,
,,,,,,,,,,,,,,,,,,,,,,,,,,,,,,,,,,,,18.471997699999974,18.488211200000023,18.488211200000023,18.488211200000023,18.488211200000023,18.488211200000023,23.22183380000024,space,4.731311300000016,None,,,,,,,,,,,,,,,,,,,,,,,,,,,,,,,,,,,,00008,001,2025-11-10_17h06.27.688,MST_test,2024.2.2,59.971921146526,2025-11-10 17h06.34.193005 +0530,
,,,,,,,,,,,,,,,,,,,,,,,,,,,,,,,,,,,,,,,,,,,,,,23.221858800000064,23.23810160000039,23.23810160000039,126.30292680000002,space,103.05110090000016,None,,,,,,,,,,,,,,,,,,,,,,,,,,,,,00008,001,2025-11-10_17h06.27.688,MST_test,2024.2.2,59.971921146526,2025-11-10 17h06.34.193005 +0530,
,,,,,,,,,,,,,,,,,,,,,,,,,,,,,,,,,,,,,,,,,,,,,,,,,,,,,126.30296220000037,126.31918500000029,126.31918500000029,159.85241059999998,space,33.53142740000021,None,,,,,,,,,,,,,,,,,,,,,,00008,001,2025-11-10_17h06.27.688,MST_test,2024.2.2,59.971921146526,2025-11-10 17h06.34.193005 +0530,
0,0,0,n,4.686372099999971,None,0,0,0,0,159.8684145000002,,,,,,,,,,,,,,,,,,,,,,,,,,,,,,,,,,,,,,,,,,,,,,,,,,159.85533910000004,159.8684145000002,160.3853527000001,160.3519295000001,160.379508,160.3853527000001,160.3853527000001,160.3853527000001,165.08526990000018,Scenes\074b.jpg,pre,n,4.686372099999971,None,,,,,,,,00008,001,2025-11-10_17h06.27.688,MST_test,2024.2.2,59.971921146526,2025-11-10 17h06.34.193005 +0530,
1,0,1,n,4.383724100000109,None,1,0,1,0,165.10167050000018,,,,,,,,,,,,,,,,,,,,,,,,,,,,,,,,,,,,,,,,,,,,,,,,,,165.08536040000035,165.10167050000018,165.63516479999998,165.58527830000003,165.6250172,165.63516479999998,165.63516479999998,165.63516479999998,170.03525890000037,Foils\scenes4.jpg,none,n,4.383724100000109,None,,,,,,,,00008,001,2025-11-10_17h06.27.688,MST_test,2024.2.2,59.971921146526,2025-11-10 17h06.34.193005 +0530,
2,0,2,o,6.196836300000086,None,2,0,2,0,170.05153050000035,,,,,,,,,,,,,,,,,,,,,,,,,,,,,,,,,,,,,,,,,,,,,,,,,,170.0353411000001,170.05153050000035,170.55167250000022,170.53513820000035,170.54526990000022,170.55167250000022,170.55167250000022,170.55167250000022,176.75183510000033,Objects\143a.jpg,pre,o,6.196836300000086,None,,,,,,,,00008,001,2025-11-10_17h06.27.688,MST_test,2024.2.2,59.971921146526,2025-11-10 17h06.34.193005 +0530,
3,0,3,o,7.922433499999897,None,3,0,3,0,176.7680448000001,,,,,,,,,,,,,,,,,,,,,,,,,,,,,,,,,,,,,,,,,,,,,,,,,,176.7519180000004,176.7680448000001,177.28475770000023,177.25163900000007,177.2742887000004,177.28475770000023,177.28475770000023,177.28475770000023,185.2181628000003,Objects\125b.jpg,mid,o,7.922433499999897,None,,,,,,,,00008,001,2025-11-10_17h06.27.688,MST_test,2024.2.2,59.971921146526,2025-11-10 17h06.34.193005 +0530,
4,0,4,o,5.107419899999968,None,4,0,4,0,185.2345504,,,,,,,,,,,,,,,,,,,,,,,,,,,,,,,,,,,,,,,,,,,,,,,,,,185.2182385000001,185.2345504,185.7514613000003,185.7180373000001,185.73777430000018,185.7514613000003,185.7514613000003,185.7514613000003,190.86802890000035,Scenes\054a.jpg,mid,o,5.107419899999968,None,,,,,,,,00008,001,2025-11-10_17h06.27.688,MST_test,2024.2.2,59.971921146526,2025-11-10 17h06.34.193005 +0530,
5,0,5,n,4.595667799999774,None,5,0,5,0,190.88442299999997,,,,,,,,,,,,,,,,,,,,,,,,,,,,,,,,,,,,,,,,,,,,,,,,,,190.86811680000028,190.88442299999997,191.40105230000017,191.3677458000002,191.3939231000004,191.40105230000017,191.40105230000017,191.40105230000017,196.00121030000037,Scenes\179b.jpg,pre,n,4.595667799999774,None,,,,,,,,00008,001,2025-11-10_17h06.27.688,MST_test,2024.2.2,59.971921146526,2025-11-10 17h06.34.193005 +0530,
6,0,6,o,7.74652130000004,None,6,0,6,0,196.01765000000023,,,,,,,,,,,,,,,,,,,,,,,,,,,,,,,,,,,,,,,,,,,,,,,,,,196.00128270000005,196.01765000000023,196.5345271000001,196.50118470000007,196.51433130000032,196.5345271000001,196.5345271000001,196.5345271000001,204.2844844000001,Scenes\131a.jpg,mid,o,7.74652130000004,None,,,,,,,,00008,001,2025-11-10_17h06.27.688,MST_test,2024.2.2,59.971921146526,2025-11-10 17h06.34.193005 +0530,
7,0,7,n,3.3376634999999624,None,7,0,7,0,204.3007646000001,,,,,,,,,,,,,,,,,,,,,,,,,,,,,,,,,,,,,,,,,,,,,,,,,,204.28455900000017,204.3007646000001,204.81769030000032,204.78434960000004,204.80128660000037,204.81769030000032,204.81769030000032,204.81769030000032,208.16760610000028,Foils\scenes11.jpg,none,n,3.3376634999999624,None,,,,,,,,00008,001,2025-11-10_17h06.27.688,MST_test,2024.2.2,59.971921146526,2025-11-10 17h06.34.193005 +0530,
8,0,8,s,6.255327600000328,None,8,0,8,0,208.1840500000003,,,,,,,,,,,,,,,,,,,,,,,,,,,,,,,,,,,,,,,,,,,,,,,,,,208.1676778000001,208.1840500000003,208.7174983,208.66773290000037,208.7026065,208.7174983,208.7174983,208.7174983,214.98417110000037,Scenes\126b.jpg,pre,s,6.255327600000328,None,,,,,,,,00008,001,2025-11-10_17h06.27.688,MST_test,2024.2.2,59.971921146526,2025-11-10 17h06.34.193005 +0530,
9,0,9,s,5.505068200000096,None,9,0,9,0,215.0005715000002,,,,,,,,,,,,,,,,,,,,,,,,,,,,,,,,,,,,,,,,,,,,,,,,,,214.98425610000004,215.0005715000002,215.53407180000022,215.48404900000014,215.5218077000004,215.53407180000022,215.53407180000022,215.53407180000022,221.05077840000013,Objects\097b.jpg,mid,s,5.505068200000096,None,,,,,,,,00008,001,2025-11-10_17h06.27.688,MST_test,2024.2.2,59.971921146526,2025-11-10 17h06.34.193005 +0530,
10,0,10,o,2.863694199999827,None,10,0,10,0,221.06709290000026,,,,,,,,,,,,,,,,,,,,,,,,,,,,,,,,,,,,,,,,,,,,,,,,,,221.05085510000026,221.06709290000026,221.56708479999998,221.5505965000002,221.56022440000015,221.56708479999998,221.56708479999998,221.56708479999998,224.43409520000023,Objects\169a.jpg,pre,o,2.863694199999827,None,,,,,,,,00008,001,2025-11-10_17h06.27.688,MST_test,2024.2.2,59.971921146526,2025-11-10 17h06.34.193005 +0530,
11,0,11,s,12.560996499999874,None,11,0,11,0,224.45037280000042,,,,,,,,,,,,,,,,,,,,,,,,,,,,,,,,,,,,,,,,,,,,,,,,,,224.43417940000018,224.45037280000042,224.98364600000014,224.93379660000028,224.9700514000001,224.98364600000014,224.98364600000014,224.98364600000014,237.55036950000022,Objects\086b.jpg,mid,s,12.560996499999874,None,,,,,,,,00008,001,2025-11-10_17h06.27.688,MST_test,2024.2.2,59.971921146526,2025-11-10 17h06.34.193005 +0530,
12,0,12,o,8.927510600000005,None,12,0,12,0,237.5667397000002,,,,,,,,,,,,,,,,,,,,,,,,,,,,,,,,,,,,,,,,,,,,,,,,,,237.55045990000008,237.5667397000002,238.0833606000001,238.0502007,238.06775830000015,238.0833606000001,238.0833606000001,238.0833606000001,247.01690570000028,Scenes\058a.jpg,mid,o,8.927510600000005,None,,,,,,,,00008,001,2025-11-10_17h06.27.688,MST_test,2024.2.2,59.971921146526,2025-11-10 17h06.34.193005 +0530,
13,0,13,o,3.7821208000000297,None,13,0,13,0,247.0332010000002,,,,,,,,,,,,,,,,,,,,,,,,,,,,,,,,,,,,,,,,,,,,,,,,,,247.01699320000034,247.0332010000002,247.5498179000001,247.51666160000013,247.54569770000035,247.5498179000001,247.5498179000001,247.5498179000001,251.33350370000016,Objects\150b.jpg,post,o,3.7821208000000297,None,,,,,,,,00008,001,2025-11-10_17h06.27.688,MST_test,2024.2.2,59.971921146526,2025-11-10 17h06.34.193005 +0530,
14,0,14,n,3.0932929000000513,None,14,0,14,0,251.34976730000017,,,,,,,,,,,,,,,,,,,,,,,,,,,,,,,,,,,,,,,,,,,,,,,,,,251.33358720000024,251.34976730000017,251.88336460000028,251.8333104000003,251.87667420000025,251.88336460000028,251.88336460000028,251.88336460000028,254.9834294000002,Scenes\155b.jpg,mid,n,3.0932929000000513,None,,,,,,,,00008,001,2025-11-10_17h06.27.688,MST_test,2024.2.2,59.971921146526,2025-11-10 17h06.34.193005 +0530,
15,0,15,o,6.765931999999793,None,15,0,15,0,254.99969650000003,,,,,,,,,,,,,,,,,,,,,,,,,,,,,,,,,,,,,,,,,,,,,,,,,,254.98351590000038,254.99969650000003,255.51664110000002,255.48313610000014,255.50652170000012,255.51664110000002,255.51664110000002,255.51664110000002,262.2831619000003,Scenes\037b.jpg,post,o,6.765931999999793,None,,,,,,,,00008,001,2025-11-10_17h06.27.688,MST_test,2024.2.2,59.971921146526,2025-11-10 17h06.34.193005 +0530,
16,0,16,s,5.962674200000038,None,16,0,16,0,262.2995525000001,,,,,,,,,,,,,,,,,,,,,,,,,,,,,,,,,,,,,,,,,,,,,,,,,,262.28325240000004,262.2995525000001,262.81640800000014,262.7830111000003,262.8106267000003,262.81640800000014,262.81640800000014,262.81640800000014,268.7829904,Objects\066b.jpg,pre,s,5.962674200000038,None,,,,,,,,00008,001,2025-11-10_17h06.27.688,MST_test,2024.2.2,59.971921146526,2025-11-10 17h06.34.193005 +0530,
17,0,17,o,2.8595879999998033,None,17,0,17,0,268.7993545000004,,,,,,,,,,,,,,,,,,,,,,,,,,,,,,,,,,,,,,,,,,,,,,,,,,268.7830694000004,268.7993545000004,269.332766,269.2828612000003,269.32107380000025,269.332766,269.332766,269.332766,272.19970630000034,Scenes\040b.jpg,mid,o,2.8595879999998033,None,,,,,,,,00008,001,2025-11-10_17h06.27.688,MST_test,2024.2.2,59.971921146526,2025-11-10 17h06.34.193005 +0530,
18,0,18,o,3.114006199999949,None,18,0,18,0,272.21596850000014,,,,,,,,,,,,,,,,,,,,,,,,,,,,,,,,,,,,,,,,,,,,,,,,,,272.1997884000002,272.21596850000014,272.7493003000004,272.6995333,272.7273945000002,272.7493003000004,272.7493003000004,272.7493003000004,275.86646440000004,Scenes\069b.jpg,pre,o,3.114006199999949,None,,,,,,,,00008,001,2025-11-10_17h06.27.688,MST_test,2024.2.2,59.971921146526,2025-11-10 17h06.34.193005 +0530,
19,0,19,n,2.3002079999996567,None,19,0,19,0,275.8826279,,,,,,,,,,,,,,,,,,,,,,,,,,,,,,,,,,,,,,,,,,,,,,,,,,275.86655050000036,275.8826279,276.3991927000002,276.3661963000004,276.3863900000001,276.3991927000002,276.3991927000002,276.3991927000002,278.7160632,Foils\081a.jpg,none,n,2.3002079999996567,None,,,,,,,,00008,001,2025-11-10_17h06.27.688,MST_test,2024.2.2,59.971921146526,2025-11-10 17h06.34.193005 +0530,
20,0,20,s,7.765102699999716,None,20,0,20,0,278.7324685000003,,,,,,,,,,,,,,,,,,,,,,,,,,,,,,,,,,,,,,,,,,,,,,,,,,278.7161382000004,278.7324685000003,279.2657959000003,279.2159542000004,279.2467821,279.2657959000003,279.2657959000003,279.2657959000003,287.0326028000004,Objects\072b.jpg,pre,s,7.765102699999716,None,,,,,,,,00008,001,2025-11-10_17h06.27.688,MST_test,2024.2.2,59.971921146526,2025-11-10 17h06.34.193005 +0530,
21,0,21,s,9.59338579999985,None,21,0,21,0,287.04898500000036,,,,,,,,,,,,,,,,,,,,,,,,,,,,,,,,,,,,,,,,,,,,,,,,,,287.0326799000004,287.04898500000036,287.56561180000017,287.5324340000002,287.5448120000001,287.56561180000017,287.56561180000017,287.56561180000017,297.16591000000017,Scenes\176a.jpg,pre,s,9.59338579999985,None,,,,,,,,00008,001,2025-11-10_17h06.27.688,MST_test,2024.2.2,59.971921146526,2025-11-10 17h06.34.193005 +0530,
22,0,22,n,1.9237355999998726,None,22,0,22,0,297.182104,,,,,,,,,,,,,,,,,,,,,,,,,,,,,,,,,,,,,,,,,,,,,,,,,,297.1659903,297.182104,297.69901560000017,297.6657025000004,297.6927889000003,297.69901560000017,297.69901560000017,297.69901560000017,299.6324228000003,Foils\scenes29.jpg,none,n,1.9237355999998726,None,,,,,,,,00008,001,2025-11-10_17h06.27.688,MST_test,2024.2.2,59.971921146526,2025-11-10 17h06.34.193005 +0530,
23,0,23,n,4.459580100000039,None,23,0,23,0,299.6487065000001,,,,,,,,,,,,,,,,,,,,,,,,,,,,,,,,,,,,,,,,,,,,,,,,,,299.63249640000004,299.6487065000001,300.1658100000004,300.13231680000035,300.15613870000016,300.1658100000004,300.1658100000004,300.1658100000004,304.63222110000015,Foils\093b.jpg,none,n,4.459580100000039,None,,,,,,,,00008,001,2025-11-10_17h06.27.688,MST_test,2024.2.2,59.971921146526,2025-11-10 17h06.34.193005 +0530,
24,0,24,o,10.765457900000001,None,24,0,24,0,304.6486084000003,,,,,,,,,,,,,,,,,,,,,,,,,,,,,,,,,,,,,,,,,,,,,,,,,,304.63229720000027,304.6486084000003,305.1818953000002,305.1321504000002,305.1607716000003,305.1818953000002,305.1818953000002,305.1818953000002,315.94868620000034,Scenes\085b.jpg,post,o,10.765457900000001,None,,,,,,,,00008,001,2025-11-10_17h06.27.688,MST_test,2024.2.2,59.971921146526,2025-11-10 17h06.34.193005 +0530,
25,0,25,o,2.93811340000002,None,25,0,25,0,315.9650222,,,,,,,,,,,,,,,,,,,,,,,,,,,,,,,,,,,,,,,,,,,,,,,,,,315.9487849000002,315.9650222,316.4983209000002,316.4486234000001,316.4801058000003,316.4983209000002,316.4983209000002,316.4983209000002,319.44871950000015,Scenes\103b.jpg,mid,o,2.93811340000002,None,,,,,,,,00008,001,2025-11-10_17h06.27.688,MST_test,2024.2.2,59.971921146526,2025-11-10 17h06.34.193005 +0530,
26,0,26,o,2.9605108000000655,None,26,0,26,0,319.46494680000023,,,,,,,,,,,,,,,,,,,,,,,,,,,,,,,,,,,,,,,,,,,,,,,,,,319.4487965000003,319.46494680000023,319.96515530000033,319.9484134000004,319.95774600000004,319.96515530000033,319.96515530000033,319.96515530000033,322.93189540000003,Scenes\051a.jpg,pre,o,2.9605108000000655,None,,,,,,,,00008,001,2025-11-10_17h06.27.688,MST_test,2024.2.2,59.971921146526,2025-11-10 17h06.34.193005 +0530,
27,0,27,o,3.836043400000108,None,27,0,27,0,322.9484232,,,,,,,,,,,,,,,,,,,,,,,,,,,,,,,,,,,,,,,,,,,,,,,,,,322.9319826000001,322.9484232,323.4484814000002,323.4316732000002,323.4419634000001,323.4484814000002,323.4484814000002,323.4484814000002,327.2984201000004,Objects\095a.jpg,pre,o,3.836043400000108,None,,,,,,,,00008,001,2025-11-10_17h06.27.688,MST_test,2024.2.2,59.971921146526,2025-11-10 17h06.34.193005 +0530,
28,0,28,o,18.159722299999885,None,28,0,28,0,327.31476950000024,,,,,,,,,,,,,,,,,,,,,,,,,,,,,,,,,,,,,,,,,,,,,,,,,,327.2984940000001,327.31476950000024,327.83145730000024,327.7984045000003,327.82317520000015,327.83145730000024,327.83145730000024,327.83145730000024,345.9979757000001,Foils\018a.jpg,none,o,18.159722299999885,None,,,,,,,,00008,001,2025-11-10_17h06.27.688,MST_test,2024.2.2,59.971921146526,2025-11-10 17h06.34.193005 +0530,
29,0,29,n,2.119456099999752,None,29,0,29,0,346.0142098000001,,,,,,,,,,,,,,,,,,,,,,,,,,,,,,,,,,,,,,,,,,,,,,,,,,345.99806400000034,346.0142098000001,346.5312908000001,346.4978428000004,346.51397620000034,346.5312908000001,346.5312908000001,346.5312908000001,348.66467790000024,Foils\scenes20.jpg,none,n,2.119456099999752,None,,,,,,,,00008,001,2025-11-10_17h06.27.688,MST_test,2024.2.2,59.971921146526,2025-11-10 17h06.34.193005 +0530,
30,0,30,o,7.920853599999646,None,30,0,30,0,348.6809687,,,,,,,,,,,,,,,,,,,,,,,,,,,,,,,,,,,,,,,,,,,,,,,,,,348.6647549000004,348.6809687,349.19762800000035,349.1644354,349.1797987,349.19762800000035,349.19762800000035,349.19762800000035,357.1312164000001,Scenes\016a.jpg,post,o,7.920853599999646,None,,,,,,,,00008,001,2025-11-10_17h06.27.688,MST_test,2024.2.2,59.971921146526,2025-11-10 17h06.34.193005 +0530,
31,0,31,o,1.850820499999827,None,31,0,31,0,357.1474156000004,,,,,,,,,,,,,,,,,,,,,,,,,,,,,,,,,,,,,,,,,,,,,,,,,,357.1313033000001,357.1474156000004,357.66427950000025,357.6310188000002,357.6444114000001,357.66427950000025,357.66427950000025,357.66427950000025,359.5310032000002,Scenes\010a.jpg,post,o,1.850820499999827,None,,,,,,,,00008,001,2025-11-10_17h06.27.688,MST_test,2024.2.2,59.971921146526,2025-11-10 17h06.34.193005 +0530,
32,0,32,n,1.793233599999894,None,32,0,32,0,359.5473700000002,,,,,,,,,,,,,,,,,,,,,,,,,,,,,,,,,,,,,,,,,,,,,,,,,,359.5310829,359.5473700000002,360.0975999000002,360.0308729000003,360.08120780000036,360.0975999000002,360.0975999000002,360.0975999000002,361.8977216000003,Foils\scenes22.jpg,none,n,1.793233599999894,None,,,,,,,,00008,001,2025-11-10_17h06.27.688,MST_test,2024.2.2,59.971921146526,2025-11-10 17h06.34.193005 +0530,
33,0,33,o,1.8044325999999273,None,33,0,33,0,361.9140160000002,,,,,,,,,,,,,,,,,,,,,,,,,,,,,,,,,,,,,,,,,,,,,,,,,,361.8977970000001,361.9140160000002,362.4306749000002,362.3974809000001,362.4166616000002,362.4306749000002,362.4306749000002,362.4306749000002,364.2475406000003,Scenes\105a.jpg,mid,o,1.8044325999999273,None,,,,,,,,00008,001,2025-11-10_17h06.27.688,MST_test,2024.2.2,59.971921146526,2025-11-10 17h06.34.193005 +0530,
34,0,34,n,3.034923499999877,None,34,0,34,0,364.26396060000025,,,,,,,,,,,,,,,,,,,,,,,,,,,,,,,,,,,,,,,,,,,,,,,,,,364.24762020000026,364.26396060000025,364.79770380000036,364.74740280000015,364.79049190000023,364.79770380000036,364.79770380000036,364.79770380000036,367.8475945,Foils\scenes30.jpg,none,n,3.034923499999877,None,,,,,,,,00008,001,2025-11-10_17h06.27.688,MST_test,2024.2.2,59.971921146526,2025-11-10 17h06.34.193005 +0530,
35,0,35,n,6.118522100000064,None,35,0,35,0,367.8638556000001,,,,,,,,,,,,,,,,,,,,,,,,,,,,,,,,,,,,,,,,,,,,,,,,,,367.84767310000007,367.8638556000001,368.3807063000004,368.3474728000001,368.3765475,368.3807063000004,368.3807063000004,368.3807063000004,374.5140944,Foils\049a.jpg,none,n,6.118522100000064,None,,,,,,,,00008,001,2025-11-10_17h06.27.688,MST_test,2024.2.2,59.971921146526,2025-11-10 17h06.34.193005 +0530,
36,0,36,o,1.8042483999997785,None,36,0,36,0,374.5304079000002,,,,,,,,,,,,,,,,,,,,,,,,,,,,,,,,,,,,,,,,,,,,,,,,,,374.5141781000002,374.5304079000002,375.0303573000001,375.0139994000001,375.0239362000002,375.0303573000001,375.0303573000001,375.0303573000001,376.8474081000004,Objects\170a.jpg,mid,o,1.8042483999997785,None,,,,,,,,00008,001,2025-11-10_17h06.27.688,MST_test,2024.2.2,59.971921146526,2025-11-10 17h06.34.193005 +0530,
37,0,37,n,1.5466645999999855,None,37,0,37,0,376.8636806000004,,,,,,,,,,,,,,,,,,,,,,,,,,,,,,,,,,,,,,,,,,,,,,,,,,376.84748830000035,376.8636806000004,377.3639304000003,377.3472206000001,377.35964680000006,377.3639304000003,377.3639304000003,377.3639304000003,378.91409580000027,Foils\scenes5.jpg,none,n,1.5466645999999855,None,,,,,,,,00008,001,2025-11-10_17h06.27.688,MST_test,2024.2.2,59.971921146526,2025-11-10 17h06.34.193005 +0530,
38,0,38,o,6.077630299999782,None,38,0,38,0,378.93031210000026,,,,,,,,,,,,,,,,,,,,,,,,,,,,,,,,,,,,,,,,,,,,,,,,,,378.9141834000002,378.93031210000026,379.4469647000001,379.41377360000024,379.42901500000016,379.4469647000001,379.4469647000001,379.4469647000001,385.5306274000004,Objects\163a.jpg,post,o,6.077630299999782,None,,,,,,,,00008,001,2025-11-10_17h06.27.688,MST_test,2024.2.2,59.971921146526,2025-11-10 17h06.34.193005 +0530,
39,0,39,o,1.9631432000001041,None,39,0,39,0,385.54683360000035,,,,,,,,,,,,,,,,,,,,,,,,,,,,,,,,,,,,,,,,,,,,,,,,,,385.5307125000004,385.54683360000035,386.06349130000035,386.0304268,386.04610520000006,386.06349130000035,386.06349130000035,386.06349130000035,388.0304156000002,Objects\186a.jpg,post,o,1.9631432000001041,None,,,,,,,,00008,001,2025-11-10_17h06.27.688,MST_test,2024.2.2,59.971921146526,2025-11-10 17h06.34.193005 +0530,
40,0,40,s,4.866275699999733,None,40,0,40,0,388.0467848000003,,,,,,,,,,,,,,,,,,,,,,,,,,,,,,,,,,,,,,,,,,,,,,,,,,388.0304963000003,388.0467848000003,388.5800644000001,388.5303614000004,388.5755200000003,388.5800644000001,388.5800644000001,388.5800644000001,393.4470303000003,Objects\124b.jpg,mid,s,4.866275699999733,None,,,,,,,,00008,001,2025-11-10_17h06.27.688,MST_test,2024.2.2,59.971921146526,2025-11-10 17h06.34.193005 +0530,
41,0,41,s,4.6827257000004465,None,41,0,41,0,393.46332340000026,,,,,,,,,,,,,,,,,,,,,,,,,,,,,,,,,,,,,,,,,,,,,,,,,,393.4471173000002,393.46332340000026,393.97998810000036,393.94687550000026,393.9625592000002,393.97998810000036,393.97998810000036,393.97998810000036,398.66358400000036,Objects\136a.jpg,mid,s,4.6827257000004465,None,,,,,,,,00008,001,2025-11-10_17h06.27.688,MST_test,2024.2.2,59.971921146526,2025-11-10 17h06.34.193005 +0530,
42,0,42,n,3.4582860000000437,None,42,0,42,0,398.6798842000003,,,,,,,,,,,,,,,,,,,,,,,,,,,,,,,,,,,,,,,,,,,,,,,,,,398.66367230000014,398.6798842000003,399.1963786000001,399.1633299,399.1901429000004,399.1963786000001,399.1963786000001,399.1963786000001,402.6635046000001,Foils\086a.jpg,none,n,3.4582860000000437,None,,,,,,,,00008,001,2025-11-10_17h06.27.688,MST_test,2024.2.2,59.971921146526,2025-11-10 17h06.34.193005 +0530,
43,0,43,o,3.4310928999998396,None,43,0,43,0,402.67979620000006,,,,,,,,,,,,,,,,,,,,,,,,,,,,,,,,,,,,,,,,,,,,,,,,,,402.66359310000007,402.67979620000006,403.1797700000002,403.1633161,403.1734795000002,403.1797700000002,403.1797700000002,403.1797700000002,406.61345800000026,Objects\118a.jpg,post,o,3.4310928999998396,None,,,,,,,,00008,001,2025-11-10_17h06.27.688,MST_test,2024.2.2,59.971921146526,2025-11-10 17h06.34.193005 +0530,
44,0,44,s,2.9657414000002973,None,44,0,44,0,406.6297410000002,,,,,,,,,,,,,,,,,,,,,,,,,,,,,,,,,,,,,,,,,,,,,,,,,,406.6135436000004,406.6297410000002,407.1631948000004,407.1132544000002,407.1425448,407.1631948000004,407.1631948000004,407.1631948000004,410.1301113000004,Scenes\185b.jpg,mid,s,2.9657414000002973,None,,,,,,,,00008,001,2025-11-10_17h06.27.688,MST_test,2024.2.2,59.971921146526,2025-11-10 17h06.34.193005 +0530,
45,0,45,n,8.967974600000161,None,45,0,45,0,410.1463060000001,,,,,,,,,,,,,,,,,,,,,,,,,,,,,,,,,,,,,,,,,,,,,,,,,,410.1301929000001,410.1463060000001,410.6631258000002,410.62985640000034,410.6547469000002,410.6631258000002,410.6631258000002,410.6631258000002,419.6463669,Scenes\172b.jpg,pre,n,8.967974600000161,None,,,,,,,,00008,001,2025-11-10_17h06.27.688,MST_test,2024.2.2,59.971921146526,2025-11-10 17h06.34.193005 +0530,
46,0,46,s,7.569005500000003,None,46,0,46,0,419.66276270000026,,,,,,,,,,,,,,,,,,,,,,,,,,,,,,,,,,,,,,,,,,,,,,,,,,419.64645070000006,419.66276270000026,420.17968120000023,420.1463033,420.1645725000003,420.17968120000023,420.17968120000023,420.17968120000023,427.76293520000036,Objects\039a.jpg,pre,s,7.569005500000003,None,,,,,,,,00008,001,2025-11-10_17h06.27.688,MST_test,2024.2.2,59.971921146526,2025-11-10 17h06.34.193005 +0530,
47,0,47,n,2.15943070000003,None,47,0,47,0,427.77924340000027,,,,,,,,,,,,,,,,,,,,,,,,,,,,,,,,,,,,,,,,,,,,,,,,,,427.7630153,427.77924340000027,428.29586970000037,428.26279410000006,428.2794984000002,428.29586970000037,428.29586970000037,428.29586970000037,430.46300980000024,Objects\165a.jpg,mid,n,2.15943070000003,None,,,,,,,,00008,001,2025-11-10_17h06.27.688,MST_test,2024.2.2,59.971921146526,2025-11-10 17h06.34.193005 +0530,
48,0,48,o,11.682911100000183,None,48,0,48,0,430.47918690000006,,,,,,,,,,,,,,,,,,,,,,,,,,,,,,,,,,,,,,,,,,,,,,,,,,430.4630900000002,430.47918690000006,430.99580490000017,430.9627277000004,430.9887418000003,430.99580490000017,430.99580490000017,430.99580490000017,442.6792026000003,Scenes\187b.jpg,post,o,11.682911100000183,None,,,,,,,,00008,001,2025-11-10_17h06.27.688,MST_test,2024.2.2,59.971921146526,2025-11-10 17h06.34.193005 +0530,
49,0,49,o,1.969597100000101,None,49,0,49,0,442.6955890000004,,,,,,,,,,,,,,,,,,,,,,,,,,,,,,,,,,,,,,,,,,,,,,,,,,442.67928570000004,442.6955890000004,443.1955766000001,443.17903400000023,443.1892962000002,443.1955766000001,443.1955766000001,443.1955766000001,445.17917990000024,Objects\133a.jpg,mid,o,1.969597100000101,None,,,,,,,,00008,001,2025-11-10_17h06.27.688,MST_test,2024.2.2,59.971921146526,2025-11-10 17h06.34.193005 +0530,
50,0,50,n,1.5666856000002554,None,50,0,50,0,445.1955331000004,,,,,,,,,,,,,,,,,,,,,,,,,,,,,,,,,,,,,,,,,,,,,,,,,,445.17926290000014,445.1955331000004,445.71218190000036,445.6790454000002,445.7031681000003,445.71218190000036,445.71218190000036,445.71218190000036,447.27926590000015,Foils\009a.jpg,none,n,1.5666856000002554,None,,,,,,,,00008,001,2025-11-10_17h06.27.688,MST_test,2024.2.2,59.971921146526,2025-11-10 17h06.34.193005 +0530,
51,0,51,o,1.8810361999999259,None,51,0,51,0,447.29548810000006,,,,,,,,,,,,,,,,,,,,,,,,,,,,,,,,,,,,,,,,,,,,,,,,,,447.2793408000002,447.29548810000006,447.7954375000004,447.77900590000036,447.78870970000025,447.7954375000004,447.7954375000004,447.7954375000004,449.6791892000001,Objects\017a.jpg,post,o,1.8810361999999259,None,,,,,,,,00008,001,2025-11-10_17h06.27.688,MST_test,2024.2.2,59.971921146526,2025-11-10 17h06.34.193005 +0530,
52,0,52,o,4.548705599999721,None,52,0,52,0,449.6953946000003,,,,,,,,,,,,,,,,,,,,,,,,,,,,,,,,,,,,,,,,,,,,,,,,,,449.67927750000035,449.6953946000003,450.21225040000036,450.17885380000007,450.19457490000013,450.21225040000036,450.21225040000036,450.21225040000036,454.7623792000004,Scenes\192a.jpg,pre,o,4.548705599999721,None,,,,,,,,00008,001,2025-11-10_17h06.27.688,MST_test,2024.2.2,59.971921146526,2025-11-10 17h06.34.193005 +0530,
53,0,53,n,1.7424694000001182,None,53,0,53,0,454.7786646000004,,,,,,,,,,,,,,,,,,,,,,,,,,,,,,,,,,,,,,,,,,,,,,,,,,454.76246310000033,454.7786646000004,455.29550040000004,455.2621051000001,455.27990160000036,455.29550040000004,455.29550040000004,455.29550040000004,457.0457219,Foils\scenes6.jpg,none,n,1.7424694000001182,None,,,,,,,,00008,001,2025-11-10_17h06.27.688,MST_test,2024.2.2,59.971921146526,2025-11-10 17h06.34.193005 +0530,
54,0,54,o,1.7296400000000176,None,54,0,54,0,457.0619332000001,,,,,,,,,,,,,,,,,,,,,,,,,,,,,,,,,,,,,,,,,,,,,,,,,,457.0458050000002,457.0619332000001,457.57882800000016,457.5454095,457.5572156000003,457.57882800000016,457.57882800000016,457.57882800000016,459.3122712000004,Scenes\140a.jpg,mid,o,1.7296400000000176,None,,,,,,,,00008,001,2025-11-10_17h06.27.688,MST_test,2024.2.2,59.971921146526,2025-11-10 17h06.34.193005 +0530,
55,0,55,s,7.1335236999998415,None,55,0,55,0,459.32855970000037,,,,,,,,,,,,,,,,,,,,,,,,,,,,,,,,,,,,,,,,,,,,,,,,,,459.31235600000036,459.32855970000037,459.84539810000024,459.81204160000016,459.8366669000002,459.84539810000024,459.84539810000024,459.84539810000024,466.9953094000002,Foils\scenes1.jpg,none,s,7.1335236999998415,None,,,,,,,,00008,001,2025-11-10_17h06.27.688,MST_test,2024.2.2,59.971921146526,2025-11-10 17h06.34.193005 +0530,
56,0,56,n,2.0641738000003897,None,56,0,56,0,467.0116866000003,,,,,,,,,,,,,,,,,,,,,,,,,,,,,,,,,,,,,,,,,,,,,,,,,,466.99538550000034,467.0116866000003,467.5283399,467.4952908,467.5175875,467.5283399,467.5283399,467.5283399,469.5953985000001,Foils\scenes19.jpg,none,n,2.0641738000003897,None,,,,,,,,00008,001,2025-11-10_17h06.27.688,MST_test,2024.2.2,59.971921146526,2025-11-10 17h06.34.193005 +0530,
57,0,57,o,2.800888799999939,None,57,0,57,0,469.6116631,,,,,,,,,,,,,,,,,,,,,,,,,,,,,,,,,,,,,,,,,,,,,,,,,,469.5954789000002,469.6116631,470.11181080000006,470.0951544000004,470.1046030000002,470.11181080000006,470.11181080000006,470.11181080000006,472.9285648,Objects\062a.jpg,post,o,2.800888799999939,None,,,,,,,,00008,001,2025-11-10_17h06.27.688,MST_test,2024.2.2,59.971921146526,2025-11-10 17h06.34.193005 +0530,
58,0,58,o,1.6417661999998927,None,58,0,58,0,472.9449249000004,,,,,,,,,,,,,,,,,,,,,,,,,,,,,,,,,,,,,,,,,,,,,,,,,,472.92865040000015,472.9449249000004,473.44492590000027,473.4284762000002,473.43818820000024,473.44492590000027,473.44492590000027,473.44492590000027,475.0951861000003,Objects\172a.jpg,pre,o,1.6417661999998927,None,,,,,,,,00008,001,2025-11-10_17h06.27.688,MST_test,2024.2.2,59.971921146526,2025-11-10 17h06.34.193005 +0530,
59,0,59,s,3.1762392000000546,None,59,0,59,0,475.1115466000001,,,,,,,,,,,,,,,,,,,,,,,,,,,,,,,,,,,,,,,,,,,,,,,,,,475.09526970000024,475.1115466000001,475.6448716,475.5950767000004,475.6323494000003,475.6448716,475.6448716,475.6448716,478.82852460000004,Objects\076b.jpg,pre,s,3.1762392000000546,None,,,,,,,,00008,001,2025-11-10_17h06.27.688,MST_test,2024.2.2,59.971921146526,2025-11-10 17h06.34.193005 +0530,
60,0,60,o,2.199085600000217,None,60,0,60,0,478.8447695,,,,,,,,,,,,,,,,,,,,,,,,,,,,,,,,,,,,,,,,,,,,,,,,,,478.82860690000007,478.8447695,479.3780934000001,479.32824530000016,479.3615542000002,479.3780934000001,479.3780934000001,479.3780934000001,481.57837040000004,Objects\087b.jpg,pre,o,2.199085600000217,None,,,,,,,,00008,001,2025-11-10_17h06.27.688,MST_test,2024.2.2,59.971921146526,2025-11-10 17h06.34.193005 +0530,
61,0,61,o,4.431034300000192,None,61,0,61,0,481.5947342000004,,,,,,,,,,,,,,,,,,,,,,,,,,,,,,,,,,,,,,,,,,,,,,,,,,481.5784530000001,481.5947342000004,482.1282776000003,482.0783766000004,482.11165610000035,482.1282776000003,482.1282776000003,482.1282776000003,486.5616178,Scenes\046b.jpg,post,o,4.431034300000192,None,,,,,,,,00008,001,2025-11-10_17h06.27.688,MST_test,2024.2.2,59.971921146526,2025-11-10 17h06.34.193005 +0530,
62,0,62,s,3.9647204000002603,None,62,0,62,0,486.57795890000034,,,,,,,,,,,,,,,,,,,,,,,,,,,,,,,,,,,,,,,,,,,,,,,,,,486.5616994000002,486.57795890000034,487.0946277000003,487.0615782,487.0880234000001,487.0946277000003,487.0946277000003,487.0946277000003,491.0614416000003,Objects\110b.jpg,post,s,3.9647204000002603,None,,,,,,,,00008,001,2025-11-10_17h06.27.688,MST_test,2024.2.2,59.971921146526,2025-11-10 17h06.34.193005 +0530,
63,0,63,s,4.7969074000002365,None,63,0,63,0,491.07789120000007,,,,,,,,,,,,,,,,,,,,,,,,,,,,,,,,,,,,,,,,,,,,,,,,,,491.0615235,491.07789120000007,491.5944773000001,491.561318,491.58597290000034,491.5944773000001,491.5944773000001,491.5944773000001,496.3948295,Objects\139b.jpg,pre,s,4.7969074000002365,None,,,,,,,,00008,001,2025-11-10_17h06.27.688,MST_test,2024.2.2,59.971921146526,2025-11-10 17h06.34.193005 +0530,
64,0,64,s,4.138883400000395,None,64,0,64,0,496.4111085000004,,,,,,,,,,,,,,,,,,,,,,,,,,,,,,,,,,,,,,,,,,,,,,,,,,496.39491130000033,496.4111085000004,496.9279617000002,496.89452170000004,496.9105590000004,496.9279617000002,496.9279617000002,496.9279617000002,501.0779745,Scenes\032a.jpg,post,s,4.138883400000395,None,,,,,,,,00008,001,2025-11-10_17h06.27.688,MST_test,2024.2.2,59.971921146526,2025-11-10 17h06.34.193005 +0530,
65,0,65,o,2.7811977999999726,None,65,0,65,0,501.09431870000026,,,,,,,,,,,,,,,,,,,,,,,,,,,,,,,,,,,,,,,,,,,,,,,,,,501.07805540000027,501.09431870000026,501.61118650000026,501.5778306000002,501.5897162000001,501.61118650000026,501.61118650000026,501.61118650000026,504.3947171,Scenes\162a.jpg,pre,o,2.7811977999999726,None,,,,,,,,00008,001,2025-11-10_17h06.27.688,MST_test,2024.2.2,59.971921146526,2025-11-10 17h06.34.193005 +0530,
66,0,66,s,1.9693846000000121,None,66,0,66,0,504.4109408000004,,,,,,,,,,,,,,,,,,,,,,,,,,,,,,,,,,,,,,,,,,,,,,,,,,504.3947929000001,504.4109408000004,504.9612763,504.8943841,504.9461233000002,504.9612763,504.9612763,504.9612763,506.9444480000002,Foils\scenes23.jpg,none,s,1.9693846000000121,None,,,,,,,,00008,001,2025-11-10_17h06.27.688,MST_test,2024.2.2,59.971921146526,2025-11-10 17h06.34.193005 +0530,
67,0,67,n,4.512373200000184,None,67,0,67,0,506.9608468000001,,,,,,,,,,,,,,,,,,,,,,,,,,,,,,,,,,,,,,,,,,,,,,,,,,506.9445308000004,506.9608468000001,507.47781220000024,507.44434150000006,507.46991210000033,507.47781220000024,507.47781220000024,507.47781220000024,511.99434229999997,Foils\scenes3.jpg,none,n,4.512373200000184,None,,,,,,,,00008,001,2025-11-10_17h06.27.688,MST_test,2024.2.2,59.971921146526,2025-11-10 17h06.34.193005 +0530,
68,0,68,n,5.1352819000003365,None,68,0,68,0,512.0107459000001,,,,,,,,,,,,,,,,,,,,,,,,,,,,,,,,,,,,,,,,,,,,,,,,,,511.9944276000001,512.0107459000001,512.5275999,512.4941878000004,512.5147978,512.5275999,512.5275999,512.5275999,517.6776674000002,Scenes\067a.jpg,mid,n,5.1352819000003365,None,,,,,,,,00008,001,2025-11-10_17h06.27.688,MST_test,2024.2.2,59.971921146526,2025-11-10 17h06.34.193005 +0530,
69,0,69,s,6.361916899999869,None,69,0,69,0,517.6939120000002,,,,,,,,,,,,,,,,,,,,,,,,,,,,,,,,,,,,,,,,,,,,,,,,,,517.6777580000003,517.6939120000002,518.2272299000001,518.1774862000002,518.211217,518.2272299000001,518.2272299000001,518.2272299000001,524.594157,Scenes\159b.jpg,pre,s,6.361916899999869,None,,,,,,,,00008,001,2025-11-10_17h06.27.688,MST_test,2024.2.2,59.971921146526,2025-11-10 17h06.34.193005 +0530,
70,0,70,o,1.8204866000000948,None,70,0,70,0,524.6104242000001,,,,,,,,,,,,,,,,,,,,,,,,,,,,,,,,,,,,,,,,,,,,,,,,,,524.5942368000001,524.6104242000001,525.1107735,525.0939416000001,525.1044847000003,525.1107735,525.1107735,525.1107735,526.9439988000004,Objects\027a.jpg,pre,o,1.8204866000000948,None,,,,,,,,00008,001,2025-11-10_17h06.27.688,MST_test,2024.2.2,59.971921146526,2025-11-10 17h06.34.193005 +0530,
71,0,71,o,1.8390379000002213,None,71,0,71,0,526.9604395000001,,,,,,,,,,,,,,,,,,,,,,,,,,,,,,,,,,,,,,,,,,,,,,,,,,526.9440760000002,526.9604395000001,527.4770478,527.4440454,527.4620256000003,527.4770478,527.4770478,527.4770478,529.3272820000002,Scenes\154a.jpg,post,o,1.8390379000002213,None,,,,,,,,00008,001,2025-11-10_17h06.27.688,MST_test,2024.2.2,59.971921146526,2025-11-10 17h06.34.193005 +0530,
72,0,72,o,1.3152659000002132,None,72,0,72,0,529.3436908000003,,,,,,,,,,,,,,,,,,,,,,,,,,,,,,,,,,,,,,,,,,,,,,,,,,529.32735,529.3436908000003,529.8603290000001,529.8273013000003,529.8481314,529.8603290000001,529.8603290000001,529.8603290000001,531.1772715000002,Scenes\086a.jpg,mid,o,1.3152659000002132,None,,,,,,,,00008,001,2025-11-10_17h06.27.688,MST_test,2024.2.2,59.971921146526,2025-11-10 17h06.34.193005 +0530,
73,0,73,o,1.3257518000000346,None,73,0,73,0,531.1936530000003,,,,,,,,,,,,,,,,,,,,,,,,,,,,,,,,,,,,,,,,,,,,,,,,,,531.1773421000003,531.1936530000003,531.7271946000001,531.6771257,531.7098504,531.7271946000001,531.7271946000001,531.7271946000001,533.0606326000002,Scenes\049b.jpg,post,o,1.3257518000000346,None,,,,,,,,00008,001,2025-11-10_17h06.27.688,MST_test,2024.2.2,59.971921146526,2025-11-10 17h06.34.193005 +0530,
74,0,74,o,2.5844437000000653,None,74,0,74,0,533.076947,,,,,,,,,,,,,,,,,,,,,,,,,,,,,,,,,,,,,,,,,,,,,,,,,,533.0607059000004,533.076947,533.6107908000004,533.5604792000004,533.570506,533.6107908000004,533.6107908000004,533.6107908000004,536.2104719000004,Objects\093a.jpg,mid,o,2.5844437000000653,None,,,,,,,,00008,001,2025-11-10_17h06.27.688,MST_test,2024.2.2,59.971921146526,2025-11-10 17h06.34.193005 +0530,
75,0,75,o,1.5059450999997352,None,75,0,75,0,536.2268357000003,,,,,,,,,,,,,,,,,,,,,,,,,,,,,,,,,,,,,,,,,,,,,,,,,,536.2105456000004,536.2268357000003,536.7770518000002,536.7103430000002,536.7570685000001,536.7770518000002,536.7770518000002,536.7770518000002,538.2938553000004,Scenes\023b.jpg,post,o,1.5059450999997352,None,,,,,,,,00008,001,2025-11-10_17h06.27.688,MST_test,2024.2.2,59.971921146526,2025-11-10 17h06.34.193005 +0530,
76,0,76,o,1.297809099999995,None,76,0,76,0,538.3101616000004,,,,,,,,,,,,,,,,,,,,,,,,,,,,,,,,,,,,,,,,,,,,,,,,,,538.2939303000003,538.3101616000004,538.8267780000001,538.7936731,538.8153901000001,538.8267780000001,538.8267780000001,538.8267780000001,540.1271451000002,Objects\153b.jpg,post,o,1.297809099999995,None,,,,,,,,00008,001,2025-11-10_17h06.27.688,MST_test,2024.2.2,59.971921146526,2025-11-10 17h06.34.193005 +0530,
77,0,77,s,4.640718399999969,None,77,0,77,0,540.1434186000001,,,,,,,,,,,,,,,,,,,,,,,,,,,,,,,,,,,,,,,,,,,,,,,,,,540.1272280000003,540.1434186000001,540.6937395,540.6269427000002,540.68759,540.6937395,540.6937395,540.6937395,545.3435667000003,Scenes\110b.jpg,mid,s,4.640718399999969,None,,,,,,,,00008,001,2025-11-10_17h06.27.688,MST_test,2024.2.2,59.971921146526,2025-11-10 17h06.34.193005 +0530,
78,0,78,n,1.8582397000000128,None,78,0,78,0,545.3600113000002,,,,,,,,,,,,,,,,,,,,,,,,,,,,,,,,,,,,,,,,,,,,,,,,,,545.3436410000004,545.3600113000002,545.8766258,545.8434539,545.8618061000002,545.8766258,545.8766258,545.8766258,547.7435605000001,Foils\073a.jpg,none,n,1.8582397000000128,None,,,,,,,,00008,001,2025-11-10_17h06.27.688,MST_test,2024.2.2,59.971921146526,2025-11-10 17h06.34.193005 +0530,
79,0,79,o,1.943560499999876,None,79,0,79,0,547.7599570000002,,,,,,,,,,,,,,,,,,,,,,,,,,,,,,,,,,,,,,,,,,,,,,,,,,547.7436407,547.7599570000002,548.2773826000002,548.2433876,548.2599013000004,548.2773826000002,548.2773826000002,548.2773826000002,550.2269720000004,Objects\106a.jpg,mid,o,1.943560499999876,None,,,,,,,,00008,001,2025-11-10_17h06.27.688,MST_test,2024.2.2,59.971921146526,2025-11-10 17h06.34.193005 +0530,
80,0,80,o,5.5363893999997345,None,80,0,80,0,550.2432291,,,,,,,,,,,,,,,,,,,,,,,,,,,,,,,,,,,,,,,,,,,,,,,,,,550.2270580000004,550.2432291,550.7602525000002,550.7267206000001,550.7495528000004,550.7602525000002,550.7602525000002,550.7602525000002,556.310035,Scenes\089a.jpg,post,o,5.5363893999997345,None,,,,,,,,00008,001,2025-11-10_17h06.27.688,MST_test,2024.2.2,59.971921146526,2025-11-10 17h06.34.193005 +0530,
81,0,81,s,2.681851100000131,None,81,0,81,0,556.3264331,,,,,,,,,,,,,,,,,,,,,,,,,,,,,,,,,,,,,,,,,,,,,,,,,,556.3101237000001,556.3264331,556.8431543000002,556.8099082000003,556.8363938000002,556.8431543000002,556.8431543000002,556.8431543000002,559.5267153,Objects\183b.jpg,pre,s,2.681851100000131,None,,,,,,,,00008,001,2025-11-10_17h06.27.688,MST_test,2024.2.2,59.971921146526,2025-11-10 17h06.34.193005 +0530,
82,0,82,n,2.166218200000003,None,82,0,82,0,559.5430229000003,,,,,,,,,,,,,,,,,,,,,,,,,,,,,,,,,,,,,,,,,,,,,,,,,,559.5268080000001,559.5430229000003,560.3270577000003,560.0265147,560.2986517000004,560.3270577000003,560.3270577000003,560.3270577000003,562.5099976000001,Foils\scenes26.jpg,none,n,2.166218200000003,None,,,,,,,,00008,001,2025-11-10_17h06.27.688,MST_test,2024.2.2,59.971921146526,2025-11-10 17h06.34.193005 +0530,
83,0,83,n,2.1884133999997175,None,83,0,83,0,562.5264198,,,,,,,,,,,,,,,,,,,,,,,,,,,,,,,,,,,,,,,,,,,,,,,,,,562.5100687000004,562.5264198,563.0598604000002,563.0098721000004,563.0547214000003,563.0598604000002,563.0598604000002,563.0598604000002,565.2599024000001,Scenes\122b.jpg,pre,n,2.1884133999997175,None,,,,,,,,00008,001,2025-11-10_17h06.27.688,MST_test,2024.2.2,59.971921146526,2025-11-10 17h06.34.193005 +0530,
84,0,84,s,5.794908400000168,None,84,0,84,0,565.2762950000001,,,,,,,,,,,,,,,,,,,,,,,,,,,,,,,,,,,,,,,,,,,,,,,,,,565.2599766000003,565.2762950000001,565.7765037000004,565.7598052000003,565.7698352000002,565.7765037000004,565.7765037000004,565.7765037000004,571.5764627000003,Objects\111a.jpg,pre,s,5.794908400000168,None,,,,,,,,00008,001,2025-11-10_17h06.27.688,MST_test,2024.2.2,59.971921146526,2025-11-10 17h06.34.193005 +0530,
85,0,85,n,1.5177084000001742,None,85,0,85,0,571.5928239,,,,,,,,,,,,,,,,,,,,,,,,,,,,,,,,,,,,,,,,,,,,,,,,,,571.5765370000004,571.5928239,572.1094295000003,572.0762617,572.1053426000003,572.1094295000003,572.1094295000003,572.1094295000003,573.6430688,Foils\026a.jpg,none,n,1.5177084000001742,None,,,,,,,,00008,001,2025-11-10_17h06.27.688,MST_test,2024.2.2,59.971921146526,2025-11-10 17h06.34.193005 +0530,
86,0,86,n,1.6446680000003653,None,86,0,86,0,573.6595633000002,,,,,,,,,,,,,,,,,,,,,,,,,,,,,,,,,,,,,,,,,,,,,,,,,,573.6431390000002,573.6595633000002,574.1763941000004,574.1429449000002,574.1607547000003,574.1763941000004,574.1763941000004,574.1763941000004,575.8263945000003,Foils\scenes12.jpg,none,n,1.6446680000003653,None,,,,,,,,00008,001,2025-11-10_17h06.27.688,MST_test,2024.2.2,59.971921146526,2025-11-10 17h06.34.193005 +0530,
87,0,87,o,3.570130099999915,None,87,0,87,0,575.8427980000001,,,,,,,,,,,,,,,,,,,,,,,,,,,,,,,,,,,,,,,,,,,,,,,,,,575.8264788000001,575.8427980000001,576.3427281000004,576.3262549000001,576.3355726,576.3427281000004,576.3427281000004,576.3427281000004,579.9264517000001,Objects\001a.jpg,post,o,3.570130099999915,None,,,,,,,,00008,001,2025-11-10_17h06.27.688,MST_test,2024.2.2,59.971921146526,2025-11-10 17h06.34.193005 +0530,
88,0,88,o,4.081186700000217,None,88,0,88,0,579.9427268000004,,,,,,,,,,,,,,,,,,,,,,,,,,,,,,,,,,,,,,,,,,,,,,,,,,579.9265319000001,579.9427268000004,580.4595165000001,580.4262037000003,580.4514388000002,580.4595165000001,580.4595165000001,580.4595165000001,584.5428719000001,Scenes\038a.jpg,pre,o,4.081186700000217,None,,,,,,,,00008,001,2025-11-10_17h06.27.688,MST_test,2024.2.2,59.971921146526,2025-11-10 17h06.34.193005 +0530,
89,0,89,s,3.4633241000001362,None,89,0,89,0,584.5591570000001,,,,,,,,,,,,,,,,,,,,,,,,,,,,,,,,,,,,,,,,,,,,,,,,,,584.5429572000003,584.5591570000001,585.0760081000003,585.0427182000003,585.0668153000001,585.0760081000003,585.0760081000003,585.0760081000003,588.5427942000001,Scenes\117a.jpg,pre,s,3.4633241000001362,None,,,,,,,,00008,001,2025-11-10_17h06.27.688,MST_test,2024.2.2,59.971921146526,2025-11-10 17h06.34.193005 +0530,
90,0,90,n,9.429271800000151,None,90,0,90,0,588.5590621000001,,,,,,,,,,,,,,,,,,,,,,,,,,,,,,,,,,,,,,,,,,,,,,,,,,588.5428706000002,588.5590621000001,589.0760136000004,589.0426116000003,589.0587050000004,589.0760136000004,589.0760136000004,589.0760136000004,598.5092095,Foils\057a.jpg,none,n,9.429271800000151,None,,,,,,,,00008,001,2025-11-10_17h06.27.688,MST_test,2024.2.2,59.971921146526,2025-11-10 17h06.34.193005 +0530,
91,0,91,s,8.863064099999974,None,91,0,91,0,598.5254738000003,,,,,,,,,,,,,,,,,,,,,,,,,,,,,,,,,,,,,,,,,,,,,,,,,,598.5092921,598.5254738000003,599.0421557000004,599.0091654000003,599.0317944000003,599.0421557000004,599.0421557000004,599.0421557000004,607.9089988000001,Objects\082b.jpg,mid,s,8.863064099999974,None,,,,,,,,00008,001,2025-11-10_17h06.27.688,MST_test,2024.2.2,59.971921146526,2025-11-10 17h06.34.193005 +0530,
92,0,92,s,5.855577400000129,None,92,0,92,0,607.9253106000001,,,,,,,,,,,,,,,,,,,,,,,,,,,,,,,,,,,,,,,,,,,,,,,,,,607.9090902000003,607.9253106000001,608.4252539000004,608.408801,608.4198892000004,608.4252539000004,608.4252539000004,608.4252539000004,614.2921074000001,Objects\149a.jpg,post,s,5.855577400000129,None,,,,,,,,00008,001,2025-11-10_17h06.27.688,MST_test,2024.2.2,59.971921146526,2025-11-10 17h06.34.193005 +0530,
93,0,93,o,8.47785070000009,None,93,0,93,0,614.3085028,,,,,,,,,,,,,,,,,,,,,,,,,,,,,,,,,,,,,,,,,,,,,,,,,,614.2921886000004,614.3085028,614.8420404000003,614.7920121000002,614.8355020000004,614.8420404000003,614.8420404000003,614.8420404000003,623.3253539000002,Scenes\191b.jpg,mid,o,8.47785070000009,None,,,,,,,,00008,001,2025-11-10_17h06.27.688,MST_test,2024.2.2,59.971921146526,2025-11-10 17h06.34.193005 +0530,
94,0,94,o,1.130461799999921,None,94,0,94,0,623.3416357000001,,,,,,,,,,,,,,,,,,,,,,,,,,,,,,,,,,,,,,,,,,,,,,,,,,623.3254336,623.3416357000001,623.8585461000002,623.8250731000003,623.8461479000002,623.8585461000002,623.8585461000002,623.8585461000002,624.9920366000001,Scenes\114a.jpg,mid,o,1.130461799999921,None,,,,,,,,00008,001,2025-11-10_17h06.27.688,MST_test,2024.2.2,59.971921146526,2025-11-10 17h06.34.193005 +0530,
95,0,95,n,1.899371500000143,None,95,0,95,0,625.0082658000001,,,,,,,,,,,,,,,,,,,,,,,,,,,,,,,,,,,,,,,,,,,,,,,,,,624.9921085000001,625.0082658000001,625.5251529000002,625.491833,625.5196974,625.5251529000002,625.5251529000002,625.5251529000002,627.4253044000002,Foils\050a.jpg,none,n,1.899371500000143,None,,,,,,,,00008,001,2025-11-10_17h06.27.688,MST_test,2024.2.2,59.971921146526,2025-11-10 17h06.34.193005 +0530,
96,0,96,s,3.1886529999997038,None,96,0,96,0,627.4415509,,,,,,,,,,,,,,,,,,,,,,,,,,,,,,,,,,,,,,,,,,,,,,,,,,627.4253939,627.4415509,627.9581585000001,627.9251036,627.9530759000004,627.9581585000001,627.9581585000001,627.9581585000001,631.1584418000002,Objects\002b.jpg,post,s,3.1886529999997038,None,,,,,,,,00008,001,2025-11-10_17h06.27.688,MST_test,2024.2.2,59.971921146526,2025-11-10 17h06.34.193005 +0530,
97,0,97,s,3.6884641999999985,None,97,0,97,0,631.1747594000003,,,,,,,,,,,,,,,,,,,,,,,,,,,,,,,,,,,,,,,,,,,,,,,,,,631.1585265000003,631.1747594000003,631.6747621000004,631.6583851,631.6701550000002,631.6747621000004,631.6747621000004,631.6747621000004,635.3751341000002,Objects\059a.jpg,mid,s,3.6884641999999985,None,,,,,,,,00008,001,2025-11-10_17h06.27.688,MST_test,2024.2.2,59.971921146526,2025-11-10 17h06.34.193005 +0530,
98,0,98,n,11.116971400000239,None,98,0,98,0,635.3913501000002,,,,,,,,,,,,,,,,,,,,,,,,,,,,,,,,,,,,,,,,,,,,,,,,,,635.3752096000003,635.3913501000002,635.9246878000004,635.8748612000004,635.9072992000001,635.9246878000004,635.9246878000004,635.9246878000004,647.0581801000003,Scenes\007b.jpg,mid,n,11.116971400000239,None,,,,,,,,00008,001,2025-11-10_17h06.27.688,MST_test,2024.2.2,59.971921146526,2025-11-10 17h06.34.193005 +0530,
99,0,99,o,2.468253700000332,None,99,0,99,0,647.0744561000001,,,,,,,,,,,,,,,,,,,,,,,,,,,,,,,,,,,,,,,,,,,,,,,,,,647.0582558000001,647.0744561000001,647.5744015,647.5579472000004,647.5677447000003,647.5744015,647.5744015,647.5744015,650.0580706000001,Objects\035a.jpg,mid,o,2.468253700000332,None,,,,,,,,00008,001,2025-11-10_17h06.27.688,MST_test,2024.2.2,59.971921146526,2025-11-10 17h06.34.193005 +0530,
100,0,100,o,1.1878280000000814,None,100,0,100,0,650.0743827000001,,,,,,,,,,,,,,,,,,,,,,,,,,,,,,,,,,,,,,,,,,,,,,,,,,650.0581443000001,650.0743827000001,650.5910204000002,650.5579789000003,650.5743723,650.5910204000002,650.5910204000002,650.5910204000002,651.7912774000001,Scenes\151a.jpg,post,o,1.1878280000000814,None,,,,,,,,00008,001,2025-11-10_17h06.27.688,MST_test,2024.2.2,59.971921146526,2025-11-10 17h06.34.193005 +0530,
101,0,101,s,6.606466800000362,None,101,0,101,0,651.8076429000002,,,,,,,,,,,,,,,,,,,,,,,,,,,,,,,,,,,,,,,,,,,,,,,,,,651.7913453000001,651.8076429000002,652.3425904000001,652.2911318000001,652.3359070000001,652.3425904000001,652.3425904000001,652.3425904000001,658.9578086000001,Scenes\090b.jpg,pre,s,6.606466800000362,None,,,,,,,,00008,001,2025-11-10_17h06.27.688,MST_test,2024.2.2,59.971921146526,2025-11-10 17h06.34.193005 +0530,
102,0,102,o,1.9975965999997243,None,102,0,102,0,658.9741887,,,,,,,,,,,,,,,,,,,,,,,,,,,,,,,,,,,,,,,,,,,,,,,,,,658.9578954000003,658.9741887,659.5077011000003,659.4578150000002,659.5015323000002,659.5077011000003,659.5077011000003,659.5077011000003,661.5080536,Scenes\031b.jpg,mid,o,1.9975965999997243,None,,,,,,,,00008,001,2025-11-10_17h06.27.688,MST_test,2024.2.2,59.971921146526,2025-11-10 17h06.34.193005 +0530,
103,0,103,s,5.969115999999758,None,103,0,103,0,661.5241028,,,,,,,,,,,,,,,,,,,,,,,,,,,,,,,,,,,,,,,,,,,,,,,,,,661.5081325000001,661.5241028,662.0574275000004,662.0077014000003,662.0452750000004,662.0574275000004,662.0574275000004,662.0574275000004,668.0410436000002,Scenes\098b.jpg,post,s,5.969115999999758,None,,,,,,,,00008,001,2025-11-10_17h06.27.688,MST_test,2024.2.2,59.971921146526,2025-11-10 17h06.34.193005 +0530,
104,0,104,s,5.8357756999998855,None,104,0,104,0,668.0573250000002,,,,,,,,,,,,,,,,,,,,,,,,,,,,,,,,,,,,,,,,,,,,,,,,,,668.0411297,668.0573250000002,668.5742540000001,668.5408203000002,668.5682590000001,668.5742540000001,668.5742540000001,668.5742540000001,674.4241423000003,Objects\166b.jpg,pre,s,5.8357756999998855,None,,,,,,,,00008,001,2025-11-10_17h06.27.688,MST_test,2024.2.2,59.971921146526,2025-11-10 17h06.34.193005 +0530,
105,0,105,n,2.056840100000045,None,105,0,105,0,674.4404802000004,,,,,,,,,,,,,,,,,,,,,,,,,,,,,,,,,,,,,,,,,,,,,,,,,,674.4242179000003,674.4404802000004,674.9574617000003,674.9239830000001,674.9496799000003,674.9574617000003,674.9574617000003,674.9574617000003,677.0241660000002,Foils\scenes18.jpg,none,n,2.056840100000045,None,,,,,,,,00008,001,2025-11-10_17h06.27.688,MST_test,2024.2.2,59.971921146526,2025-11-10 17h06.34.193005 +0530,
106,0,106,s,2.911066800000299,None,106,0,106,0,677.0404672000004,,,,,,,,,,,,,,,,,,,,,,,,,,,,,,,,,,,,,,,,,,,,,,,,,,677.0242458000002,677.0404672000004,677.5737675,677.5240415000003,677.5541247000001,677.5737675,677.5737675,677.5737675,680.4907939,Objects\080b.jpg,pre,s,2.911066800000299,None,,,,,,,,00008,001,2025-11-10_17h06.27.688,MST_test,2024.2.2,59.971921146526,2025-11-10 17h06.34.193005 +0530,
107,0,107,o,2.455279799999971,None,107,0,107,0,680.5070552000002,,,,,,,,,,,,,,,,,,,,,,,,,,,,,,,,,,,,,,,,,,,,,,,,,,680.4908742000002,680.5070552000002,681.0236724000001,680.9906916,681.0158254000003,681.0236724000001,681.0236724000001,681.0236724000001,683.4905964000004,Objects\043b.jpg,mid,o,2.455279799999971,None,,,,,,,,00008,001,2025-11-10_17h06.27.688,MST_test,2024.2.2,59.971921146526,2025-11-10 17h06.34.193005 +0530,
108,0,108,n,2.966642899999897,None,108,0,108,0,683.5069945,,,,,,,,,,,,,,,,,,,,,,,,,,,,,,,,,,,,,,,,,,,,,,,,,,683.4906762,683.5069945,684.0403769000004,683.9906526,684.0290274000004,684.0403769000004,684.0403769000004,684.0403769000004,687.0073926,Foils\034a.jpg,none,n,2.966642899999897,None,,,,,,,,00008,001,2025-11-10_17h06.27.688,MST_test,2024.2.2,59.971921146526,2025-11-10 17h06.34.193005 +0530,
109,0,109,o,5.400461600000199,None,109,0,109,0,687.0238317000003,,,,,,,,,,,,,,,,,,,,,,,,,,,,,,,,,,,,,,,,,,,,,,,,,,687.0074789,687.0238317000003,687.5402917000001,687.5071760000001,687.5317174000002,687.5402917000001,687.5402917000001,687.5402917000001,692.9571470000001,Objects\185b.jpg,post,o,5.400461600000199,None,,,,,,,,00008,001,2025-11-10_17h06.27.688,MST_test,2024.2.2,59.971921146526,2025-11-10 17h06.34.193005 +0530,
110,0,110,o,1.463936300000114,None,110,0,110,0,692.9735058000001,,,,,,,,,,,,,,,,,,,,,,,,,,,,,,,,,,,,,,,,,,,,,,,,,,692.9572218000003,692.9735058000001,693.507067,693.4570593000003,693.5009715000001,693.507067,693.507067,693.507067,694.9737345000003,Scenes\076b.jpg,pre,o,1.463936300000114,None,,,,,,,,00008,001,2025-11-10_17h06.27.688,MST_test,2024.2.2,59.971921146526,2025-11-10 17h06.34.193005 +0530,
111,0,111,s,5.802098500000284,None,111,0,111,0,694.9901852000003,,,,,,,,,,,,,,,,,,,,,,,,,,,,,,,,,,,,,,,,,,,,,,,,,,694.9738117000002,694.9901852000003,695.5068167000004,695.4736252000002,695.4980173000004,695.5068167000004,695.5068167000004,695.5068167000004,701.3236817000002,Scenes\055a.jpg,mid,s,5.802098500000284,None,,,,,,,,00008,001,2025-11-10_17h06.27.688,MST_test,2024.2.2,59.971921146526,2025-11-10 17h06.34.193005 +0530,
112,0,112,s,2.150197699999808,None,112,0,112,0,701.3400567000003,,,,,,,,,,,,,,,,,,,,,,,,,,,,,,,,,,,,,,,,,,,,,,,,,,701.3237701000003,701.3400567000003,701.8565985,701.8234865000004,701.8527482000004,701.8565985,701.8565985,701.8565985,704.0236848000004,Objects\131b.jpg,mid,s,2.150197699999808,None,,,,,,,,00008,001,2025-11-10_17h06.27.688,MST_test,2024.2.2,59.971921146526,2025-11-10 17h06.34.193005 +0530,
113,0,113,s,2.075002999999924,None,113,0,113,0,704.0400044000003,,,,,,,,,,,,,,,,,,,,,,,,,,,,,,,,,,,,,,,,,,,,,,,,,,704.0237525000002,704.0400044000003,704.5731638000002,704.5234272000002,704.5613132000003,704.5731638000002,704.5731638000002,704.5731638000002,706.6569024,Scenes\178b.jpg,post,s,2.075002999999924,None,,,,,,,,00008,001,2025-11-10_17h06.27.688,MST_test,2024.2.2,59.971921146526,2025-11-10 17h06.34.193005 +0530,
114,0,114,s,9.064839299999676,None,114,0,114,0,706.6731544000004,,,,,,,,,,,,,,,,,,,,,,,,,,,,,,,,,,,,,,,,,,,,,,,,,,706.656978,706.6731544000004,707.1897734000004,707.1567368000001,707.1856791,707.1897734000004,707.1897734000004,707.1897734000004,716.2566917000004,Objects\061b.jpg,mid,s,9.064839299999676,None,,,,,,,,00008,001,2025-11-10_17h06.27.688,MST_test,2024.2.2,59.971921146526,2025-11-10 17h06.34.193005 +0530,
115,0,115,s,1.5150573000000804,None,115,0,115,0,716.2730306000003,,,,,,,,,,,,,,,,,,,,,,,,,,,,,,,,,,,,,,,,,,,,,,,,,,716.2567789,716.2730306000003,716.7895571000004,716.7565324000002,716.7845375000002,716.7895571000004,716.7895571000004,716.7895571000004,718.3065609,Objects\075b.jpg,post,s,1.5150573000000804,None,,,,,,,,00008,001,2025-11-10_17h06.27.688,MST_test,2024.2.2,59.971921146526,2025-11-10 17h06.34.193005 +0530,
116,0,116,s,1.4680788999999095,None,116,0,116,0,718.3228605000004,,,,,,,,,,,,,,,,,,,,,,,,,,,,,,,,,,,,,,,,,,,,,,,,,,718.3066357000002,718.3228605000004,718.8563128000001,718.8063773000003,718.8494269000003,718.8563128000001,718.8563128000001,718.8563128000001,720.3398702000004,Scenes\039b.jpg,mid,s,1.4680788999999095,None,,,,,,,,00008,001,2025-11-10_17h06.27.688,MST_test,2024.2.2,59.971921146526,2025-11-10 17h06.34.193005 +0530,
117,0,117,o,1.4915797000003295,None,117,0,117,0,720.3561799000004,,,,,,,,,,,,,,,,,,,,,,,,,,,,,,,,,,,,,,,,,,,,,,,,,,720.3399441000001,720.3561799000004,720.8728387000001,720.8397934000004,720.8551598000004,720.8728387000001,720.8728387000001,720.8728387000001,722.37329,Objects\160a.jpg,post,o,1.4915797000003295,None,,,,,,,,00008,001,2025-11-10_17h06.27.688,MST_test,2024.2.2,59.971921146526,2025-11-10 17h06.34.193005 +0530,
118,0,118,o,1.7009883000000627,None,118,0,118,0,722.3894427,,,,,,,,,,,,,,,,,,,,,,,,,,,,,,,,,,,,,,,,,,,,,,,,,,722.3733610000004,722.3894427,722.8894233000001,722.8729487,722.8823201,722.8894233000001,722.8894233000001,722.8894233000001,724.6063483000003,Objects\141a.jpg,post,o,1.7009883000000627,None,,,,,,,,00008,001,2025-11-10_17h06.27.688,MST_test,2024.2.2,59.971921146526,2025-11-10 17h06.34.193005 +0530,
119,0,119,o,1.6495740000000296,None,119,0,119,0,724.6227185000002,,,,,,,,,,,,,,,,,,,,,,,,,,,,,,,,,,,,,,,,,,,,,,,,,,724.6064199000002,724.6227185000002,725.1227122,725.1062277000001,725.1164993000002,725.1227122,725.1227122,725.1227122,726.7732866000001,Objects\019a.jpg,mid,o,1.6495740000000296,None,,,,,,,,00008,001,2025-11-10_17h06.27.688,MST_test,2024.2.2,59.971921146526,2025-11-10 17h06.34.193005 +0530,
120,0,120,s,2.25219960000004,None,120,0,120,0,726.7894182,,,,,,,,,,,,,,,,,,,,,,,,,,,,,,,,,,,,,,,,,,,,,,,,,,726.7733702,726.7894182,727.3063173,727.2728452000001,727.2989602000002,727.3063173,727.3063173,727.3063173,729.5730609000002,Scenes\087b.jpg,post,s,2.25219960000004,None,,,,,,,,00008,001,2025-11-10_17h06.27.688,MST_test,2024.2.2,59.971921146526,2025-11-10 17h06.34.193005 +0530,
121,0,121,o,1.4231715000000804,None,121,0,121,0,729.5893223000003,,,,,,,,,,,,,,,,,,,,,,,,,,,,,,,,,,,,,,,,,,,,,,,,,,729.5731358000003,729.5893223000003,730.0893018000002,730.0730120000003,730.0846250000004,730.0893018000002,730.0893018000002,730.0893018000002,731.5229629,Scenes\022a.jpg,pre,o,1.4231715000000804,None,,,,,,,,00008,001,2025-11-10_17h06.27.688,MST_test,2024.2.2,59.971921146526,2025-11-10 17h06.34.193005 +0530,
122,0,122,s,1.9102007999999842,None,122,0,122,0,731.5392364000004,,,,,,,,,,,,,,,,,,,,,,,,,,,,,,,,,,,,,,,,,,,,,,,,,,731.5230434,731.5392364000004,732.0726081000003,732.0227935000003,732.0657227000002,732.0726081000003,732.0726081000003,732.0726081000003,733.9895903000001,Objects\014b.jpg,post,s,1.9102007999999842,None,,,,,,,,00008,001,2025-11-10_17h06.27.688,MST_test,2024.2.2,59.971921146526,2025-11-10 17h06.34.193005 +0530,
123,0,123,o,1.3187479999996867,None,123,0,123,0,734.0059109000003,,,,,,,,,,,,,,,,,,,,,,,,,,,,,,,,,,,,,,,,,,,,,,,,,,733.9896628000001,734.0059109000003,734.5225462000003,734.4895253000004,734.5052276000001,734.5225462000003,734.5225462000003,734.5225462000003,735.8562777000002,Objects\037a.jpg,mid,o,1.3187479999996867,None,,,,,,,,00008,001,2025-11-10_17h06.27.688,MST_test,2024.2.2,59.971921146526,2025-11-10 17h06.34.193005 +0530,
124,0,124,o,1.3836672999996154,None,124,0,124,0,735.8725130000003,,,,,,,,,,,,,,,,,,,,,,,,,,,,,,,,,,,,,,,,,,,,,,,,,,735.8563485000004,735.8725130000003,736.3893231000002,736.3560929,736.384595,736.3893231000002,736.3893231000002,736.3893231000002,737.7893870000003,Scenes\146a.jpg,pre,o,1.3836672999996154,None,,,,,,,,00008,001,2025-11-10_17h06.27.688,MST_test,2024.2.2,59.971921146526,2025-11-10 17h06.34.193005 +0530,
125,0,125,n,1.8404740999999376,None,125,0,125,0,737.8058038000004,,,,,,,,,,,,,,,,,,,,,,,,,,,,,,,,,,,,,,,,,,,,,,,,,,737.7894690000003,737.8058038000004,738.3224664000004,738.2892607000003,738.3185799000003,738.3224664000004,738.3224664000004,738.3224664000004,740.1728297000004,Foils\097a.jpg,none,n,1.8404740999999376,None,,,,,,,,00008,001,2025-11-10_17h06.27.688,MST_test,2024.2.2,59.971921146526,2025-11-10 17h06.34.193005 +0530,
126,0,126,o,1.8839310000003024,None,126,0,126,0,740.1890834000001,,,,,,,,,,,,,,,,,,,,,,,,,,,,,,,,,,,,,,,,,,,,,,,,,,740.1729087000003,740.1890834000001,740.7223743000004,740.6725860000001,740.7087100000003,740.7223743000004,740.7223743000004,740.7223743000004,742.6228081000004,Objects\182b.jpg,mid,o,1.8839310000003024,None,,,,,,,,00008,001,2025-11-10_17h06.27.688,MST_test,2024.2.2,59.971921146526,2025-11-10 17h06.34.193005 +0530,
127,0,127,s,1.862005699999827,None,127,0,127,0,742.6390669000002,,,,,,,,,,,,,,,,,,,,,,,,,,,,,,,,,,,,,,,,,,,,,,,,,,742.6228876,742.6390669000002,743.1723194000001,743.1224893000003,743.1565498,743.1723194000001,743.1723194000001,743.1723194000001,745.0392589000003,Scenes\130b.jpg,post,s,1.862005699999827,None,,,,,,,,00008,001,2025-11-10_17h06.27.688,MST_test,2024.2.2,59.971921146526,2025-11-10 17h06.34.193005 +0530,
128,0,128,s,2.928413599999658,None,128,0,128,0,745.0556208000003,,,,,,,,,,,,,,,,,,,,,,,,,,,,,,,,,,,,,,,,,,,,,,,,,,745.039338,745.0556208000003,745.5889360000001,745.5391137000001,745.5776833,745.5889360000001,745.5889360000001,745.5889360000001,748.5224924000004,Scenes\164b.jpg,post,s,2.928413599999658,None,,,,,,,,00008,001,2025-11-10_17h06.27.688,MST_test,2024.2.2,59.971921146526,2025-11-10 17h06.34.193005 +0530,
129,0,129,o,3.757501200000206,None,129,0,129,0,748.5388985000004,,,,,,,,,,,,,,,,,,,,,,,,,,,,,,,,,,,,,,,,,,,,,,,,,,748.5225739000002,748.5388985000004,749.0388555000004,749.0225409000004,749.0318487000004,749.0388555000004,749.0388555000004,749.0388555000004,752.8058635000002,Objects\179a.jpg,post,o,3.757501200000206,None,,,,,,,,00008,001,2025-11-10_17h06.27.688,MST_test,2024.2.2,59.971921146526,2025-11-10 17h06.34.193005 +0530,
130,0,130,o,1.439444099999946,None,130,0,130,0,752.8221405000004,,,,,,,,,,,,,,,,,,,,,,,,,,,,,,,,,,,,,,,,,,,,,,,,,,752.8059440000002,752.8221405000004,753.3388182000003,753.3056966000004,753.3211691000001,753.3388182000003,753.3388182000003,753.3388182000003,754.7890158,Objects\132a.jpg,pre,o,1.439444099999946,None,,,,,,,,00008,001,2025-11-10_17h06.27.688,MST_test,2024.2.2,59.971921146526,2025-11-10 17h06.34.193005 +0530,
131,0,131,o,2.030703899999935,None,131,0,131,0,754.8053956000003,,,,,,,,,,,,,,,,,,,,,,,,,,,,,,,,,,,,,,,,,,,,,,,,,,754.7890968000002,754.8053956000003,755.3222602000001,755.2890043000002,755.3095164000001,755.3222602000001,755.3222602000001,755.3222602000001,757.3556703000004,Scenes\134a.jpg,post,o,2.030703899999935,None,,,,,,,,00008,001,2025-11-10_17h06.27.688,MST_test,2024.2.2,59.971921146526,2025-11-10 17h06.34.193005 +0530,
132,0,132,n,1.706315099999756,None,132,0,132,0,757.3720327000001,,,,,,,,,,,,,,,,,,,,,,,,,,,,,,,,,,,,,,,,,,,,,,,,,,757.3557560000004,757.3720327000001,757.8886754,757.8556112000001,757.8796837,757.8886754,757.8886754,757.8886754,759.6056695000002,Foils\058a.jpg,none,n,1.706315099999756,None,,,,,,,,00008,001,2025-11-10_17h06.27.688,MST_test,2024.2.2,59.971921146526,2025-11-10 17h06.34.193005 +0530,
133,0,133,s,4.086939400000119,None,133,0,133,0,759.6219945000003,,,,,,,,,,,,,,,,,,,,,,,,,,,,,,,,,,,,,,,,,,,,,,,,,,759.6057540000002,759.6219945000003,760.1720283000004,760.1054557000002,760.1519951,760.1720283000004,760.1720283000004,760.1720283000004,764.2720652000003,Objects\090b.jpg,pre,s,4.086939400000119,None,,,,,,,,00008,001,2025-11-10_17h06.27.688,MST_test,2024.2.2,59.971921146526,2025-11-10 17h06.34.193005 +0530,
134,0,134,o,1.2993355000003248,None,134,0,134,0,764.2885195000003,,,,,,,,,,,,,,,,,,,,,,,,,,,,,,,,,,,,,,,,,,,,,,,,,,764.2721448000002,764.2885195000003,764.8051750000004,764.7719729,764.7883011000004,764.8051750000004,764.8051750000004,764.8051750000004,766.1056702000001,Objects\025a.jpg,post,o,1.2993355000003248,None,,,,,,,,00008,001,2025-11-10_17h06.27.688,MST_test,2024.2.2,59.971921146526,2025-11-10 17h06.34.193005 +0530,
135,0,135,n,3.7325323999998545,None,135,0,135,0,766.1218473000004,,,,,,,,,,,,,,,,,,,,,,,,,,,,,,,,,,,,,,,,,,,,,,,,,,766.1057499000003,766.1218473000004,766.6554298000001,766.6054578000003,766.6377158,766.6554298000001,766.6554298000001,766.6554298000001,770.3887117000004,Foils\scenes7.jpg,none,n,3.7325323999998545,None,,,,,,,,00008,001,2025-11-10_17h06.27.688,MST_test,2024.2.2,59.971921146526,2025-11-10 17h06.34.193005 +0530,
136,0,136,o,1.4156082999998034,None,136,0,136,0,770.4050523000001,,,,,,,,,,,,,,,,,,,,,,,,,,,,,,,,,,,,,,,,,,,,,,,,,,770.3887824000003,770.4050523000001,770.9051231000003,770.8886453,770.8980064000002,770.9051231000003,770.9051231000003,770.9051231000003,772.3220968,Objects\100a.jpg,post,o,1.4156082999998034,None,,,,,,,,00008,001,2025-11-10_17h06.27.688,MST_test,2024.2.2,59.971921146526,2025-11-10 17h06.34.193005 +0530,
137,0,137,n,2.412706900000103,None,137,0,137,0,772.3383778000002,,,,,,,,,,,,,,,,,,,,,,,,,,,,,,,,,,,,,,,,,,,,,,,,,,772.3221637000001,772.3383778000002,772.8719776000003,772.8219806000002,772.8646498000003,772.8719776000003,772.8719776000003,772.8719776000003,775.2886409000002,Scenes\025b.jpg,mid,n,2.412706900000103,None,,,,,,,,00008,001,2025-11-10_17h06.27.688,MST_test,2024.2.2,59.971921146526,2025-11-10 17h06.34.193005 +0530,
138,0,138,o,1.6427370000001247,None,138,0,138,0,775.3049468000004,,,,,,,,,,,,,,,,,,,,,,,,,,,,,,,,,,,,,,,,,,,,,,,,,,775.2887114,775.3049468000004,775.8382837000004,775.7884551000002,775.8188423000001,775.8382837000004,775.8382837000004,775.8382837000004,777.4887082,Objects\180b.jpg,mid,o,1.6427370000001247,None,,,,,,,,00008,001,2025-11-10_17h06.27.688,MST_test,2024.2.2,59.971921146526,2025-11-10 17h06.34.193005 +0530,
139,0,139,o,1.1665087999999741,None,139,0,139,0,777.5048964000002,,,,,,,,,,,,,,,,,,,,,,,,,,,,,,,,,,,,,,,,,,,,,,,,,,777.4887838000004,777.5048964000002,778.0217845000002,777.9883996000003,778.0106309000003,778.0217845000002,778.0217845000002,778.0217845000002,779.1885898,Scenes\079a.jpg,post,o,1.1665087999999741,None,,,,,,,,00008,001,2025-11-10_17h06.27.688,MST_test,2024.2.2,59.971921146526,2025-11-10 17h06.34.193005 +0530,
140,0,140,n,1.4977293000001737,None,140,0,140,0,779.2048603000003,,,,,,,,,,,,,,,,,,,,,,,,,,,,,,,,,,,,,,,,,,,,,,,,,,779.1886626,779.2048603000003,779.721548,779.6883558000004,779.7129604000002,779.721548,779.721548,779.721548,781.2217660000001,Foils\105a.jpg,none,n,1.4977293000001737,None,,,,,,,,00008,001,2025-11-10_17h06.27.688,MST_test,2024.2.2,59.971921146526,2025-11-10 17h06.34.193005 +0530,
141,0,141,s,2.735466699999961,None,141,0,141,0,781.2382071000002,,,,,,,,,,,,,,,,,,,,,,,,,,,,,,,,,,,,,,,,,,,,,,,,,,781.2218375000002,781.2382071000002,781.7714752000002,781.7216617000004,781.7605768000003,781.7714752000002,781.7714752000002,781.7714752000002,784.52178,Scenes\147b.jpg,post,s,2.735466699999961,None,,,,,,,,00008,001,2025-11-10_17h06.27.688,MST_test,2024.2.2,59.971921146526,2025-11-10 17h06.34.193005 +0530,
142,0,142,o,1.3408018000000084,None,142,0,142,0,784.5381222000001,,,,,,,,,,,,,,,,,,,,,,,,,,,,,,,,,,,,,,,,,,,,,,,,,,784.5218591000003,784.5381222000001,785.0381224000002,785.0215603000001,785.0312885000003,785.0381224000002,785.0381224000002,785.0381224000002,786.3884608000003,Objects\156a.jpg,pre,o,1.3408018000000084,None,,,,,,,,00008,001,2025-11-10_17h06.27.688,MST_test,2024.2.2,59.971921146526,2025-11-10 17h06.34.193005 +0530,
143,0,143,s,3.7841708999999355,None,143,0,143,0,786.4047380000002,,,,,,,,,,,,,,,,,,,,,,,,,,,,,,,,,,,,,,,,,,,,,,,,,,786.3885335,786.4047380000002,786.9048670000002,786.8882172000003,786.8999364000001,786.9048670000002,786.9048670000002,786.9048670000002,790.7049836000001,Scenes\014a.jpg,mid,s,3.7841708999999355,None,,,,,,,,00008,001,2025-11-10_17h06.27.688,MST_test,2024.2.2,59.971921146526,2025-11-10 17h06.34.193005 +0530,
144,0,144,s,5.936121199999889,None,144,0,144,0,790.7213442000002,,,,,,,,,,,,,,,,,,,,,,,,,,,,,,,,,,,,,,,,,,,,,,,,,,790.7050626,790.7213442000002,791.2382282000003,791.2047741000001,791.2197498,791.2382282000003,791.2382282000003,791.2382282000003,797.1882064000001,Scenes\166a.jpg,pre,s,5.936121199999889,None,,,,,,,,00008,001,2025-11-10_17h06.27.688,MST_test,2024.2.2,59.971921146526,2025-11-10 17h06.34.193005 +0530,
145,0,145,s,2.1765519999999015,None,145,0,145,0,797.2045759000002,,,,,,,,,,,,,,,,,,,,,,,,,,,,,,,,,,,,,,,,,,,,,,,,,,797.1882786000001,797.2045759000002,797.7044748000003,797.6881458000003,797.6974677000003,797.7044748000003,797.7044748000003,797.7044748000003,799.8881796000001,Objects\115a.jpg,pre,s,2.1765519999999015,None,,,,,,,,00008,001,2025-11-10_17h06.27.688,MST_test,2024.2.2,59.971921146526,2025-11-10 17h06.34.193005 +0530,
146,0,146,n,3.7569942000000083,None,146,0,146,0,799.9045563000004,,,,,,,,,,,,,,,,,,,,,,,,,,,,,,,,,,,,,,,,,,,,,,,,,,799.8882521,799.9045563000004,800.4378456000004,800.3880333000002,800.4191808,800.4378456000004,800.4378456000004,800.4378456000004,804.2048855000003,Objects\103b.jpg,post,n,3.7569942000000083,None,,,,,,,,00008,001,2025-11-10_17h06.27.688,MST_test,2024.2.2,59.971921146526,2025-11-10 17h06.34.193005 +0530,
147,0,147,o,3.3310590999999476,None,147,0,147,0,804.2211383000003,,,,,,,,,,,,,,,,,,,,,,,,,,,,,,,,,,,,,,,,,,,,,,,,,,804.2049585,804.2211383000003,804.7377393000002,804.7045664000002,804.7272918000003,804.7377393000002,804.7377393000002,804.7377393000002,808.0714212000003,Scenes\012a.jpg,pre,o,3.3310590999999476,None,,,,,,,,00008,001,2025-11-10_17h06.27.688,MST_test,2024.2.2,59.971921146526,2025-11-10 17h06.34.193005 +0530,
148,0,148,s,6.79014350000034,None,148,0,148,0,808.0877848,,,,,,,,,,,,,,,,,,,,,,,,,,,,,,,,,,,,,,,,,,,,,,,,,,808.0714957,808.0877848,808.6209784000002,808.5711277,808.6118506000003,808.6209784000002,808.6209784000002,808.6209784000002,815.4211532000004,Objects\004b.jpg,pre,s,6.79014350000034,None,,,,,,,,00008,001,2025-11-10_17h06.27.688,MST_test,2024.2.2,59.971921146526,2025-11-10 17h06.34.193005 +0530,
149,0,149,s,2.9658652000002803,None,149,0,149,0,815.4374400000002,,,,,,,,,,,,,,,,,,,,,,,,,,,,,,,,,,,,,,,,,,,,,,,,,,815.4212439000003,815.4374400000002,815.9707594000001,815.9209192000003,815.9585941,815.9707594000001,815.9707594000001,815.9707594000001,818.9377486000003,Scenes\052b.jpg,pre,s,2.9658652000002803,None,,,,,,,,00008,001,2025-11-10_17h06.27.688,MST_test,2024.2.2,59.971921146526,2025-11-10 17h06.34.193005 +0530,
,,,,,,,,,,,,,,,,,,,,,,,,,,,,,,,,,,,,,,,,,,,,,,,,,,,,,,,,,,,,,,,,,,,,,,,,,,818.9378119000003,818.9540283000001,818.9540283000001,827.3375391000004,space,8.368689699999777,None,00008,001,2025-11-10_17h06.27.688,MST_test,2024.2.2,59.971921146526,2025-11-10 17h06.34.193005 +0530,
