thisN,thisTrialN,thisRepN,key_resp_3.keys,key_resp_3.rt,key_resp_3.duration,trials.thisRepN,trials.thisTrialN,trials.thisN,trials.thisIndex,thisRow.t,notes,intro_page.started,text.started,key_resp.started,intro_page.stopped,key_resp.keys,key_resp.rt,key_resp.duration,instructions.started,text_2.started,key_resp_2.started,instructions.stopped,key_resp_2.keys,key_resp_2.rt,key_resp_2.duration,demo1.started,image_1.started,image_2.started,text_7.started,key_resp_6.started,text_9.started,demo1.stopped,key_resp_6.keys,key_resp_6.rt,key_resp_6.duration,demo2.started,image_5.started,image_6.started,text_11.started,text_12.started,key_resp_8.started,demo2.stopped,key_resp_8.keys,key_resp_8.rt,key_resp_8.duration,demo_conclusion.started,text_13.started,key_resp_9.started,demo_conclusion.stopped,key_resp_9.keys,key_resp_9.rt,key_resp_9.duration,start_test.started,text_6.started,key_resp_5.started,start_test.stopped,key_resp_5.keys,key_resp_5.rt,key_resp_5.duration,ISI.started,text_4.started,text_4.stopped,ISI.stopped,routine_1.started,image.started,text_3.started,key_resp_3.started,routine_1.stopped,image_path,position_of_stimuli,trials.key_resp_3.keys,trials.key_resp_3.rt,trials.key_resp_3.duration,End_page.started,text_5.started,key_resp_4.started,End_page.stopped,key_resp_4.keys,key_resp_4.rt,key_resp_4.duration,participant,session,date,expName,psychopyVersion,frameRate,expStart,
,,,,,,,,,,,,0.013739899994106963,0.03003829999943264,0.03003829999943264,4.38180229999125,space,4.349168800006737,None,,,,,,,,,,,,,,,,,,,,,,,,,,,,,,,,,,,,,,,,,,,,,,,,,,,,,,,,,,,,,,,00004,001,2025-11-09_14h57.36.500,MST_test,2024.2.2,59.98501574070124,2025-11-09 14h57.42.753415 +0530,
,,,,,,,,,,,,,,,,,,,4.381831799997599,4.396607699993183,4.396607699993183,14.16344950000348,space,9.754680400001234,None,,,,,,,,,,,,,,,,,,,,,,,,,,,,,,,,,,,,,,,,,,,,,,,,,,,,,,,,00004,001,2025-11-09_14h57.36.500,MST_test,2024.2.2,59.98501574070124,2025-11-09 14h57.42.753415 +0530,
,,,,,,,,,,,,,,,,,,,,,,,,,,14.16347240000323,14.179725399997551,14.179725399997551,14.179725399997551,14.179725399997551,14.179725399997551,58.72922999999719,space,44.54866290000791,None,,,,,,,,,,,,,,,,,,,,,,,,,,,,,,,,,,,,,,,,,,,,,,00004,001,2025-11-09_14h57.36.500,MST_test,2024.2.2,59.98501574070124,2025-11-09 14h57.42.753415 +0530,
,,,,,,,,,,,,,,,,,,,,,,,,,,,,,,,,,,,,58.729258099992876,58.745438199999626,58.745438199999626,58.745438199999626,58.745438199999626,58.745438199999626,82.11197850000462,space,23.355438799990225,None,,,,,,,,,,,,,,,,,,,,,,,,,,,,,,,,,,,,00004,001,2025-11-09_14h57.36.500,MST_test,2024.2.2,59.98501574070124,2025-11-09 14h57.42.753415 +0530,
,,,,,,,,,,,,,,,,,,,,,,,,,,,,,,,,,,,,,,,,,,,,,,82.11200589999498,82.12828679999802,82.12828679999802,114.76128520000202,space,32.62212400000135,None,,,,,,,,,,,,,,,,,,,,,,,,,,,,,00004,001,2025-11-09_14h57.36.500,MST_test,2024.2.2,59.98501574070124,2025-11-09 14h57.42.753415 +0530,
,,,,,,,,,,,,,,,,,,,,,,,,,,,,,,,,,,,,,,,,,,,,,,,,,,,,,114.76130889999331,114.77755309999338,114.77755309999338,138.06103939999593,space,23.267256799997995,None,,,,,,,,,,,,,,,,,,,,,,00004,001,2025-11-09_14h57.36.500,MST_test,2024.2.2,59.98501574070124,2025-11-09 14h57.42.753415 +0530,
0,0,0,o,6.661092599999392,None,0,0,0,0,138.07713109999895,,,,,,,,,,,,,,,,,,,,,,,,,,,,,,,,,,,,,,,,,,,,,,,,,,138.06369500000437,138.07713109999895,138.59407680000004,138.56074299999455,138.5760680999956,138.59407680000004,138.59407680000004,138.59407680000004,145.26070620000246,Objects\041b.jpg,pre,o,6.661092599999392,None,,,,,,,,00004,001,2025-11-09_14h57.36.500,MST_test,2024.2.2,59.98501574070124,2025-11-09 14h57.42.753415 +0530,
1,0,1,s,2.7850194000056945,None,1,0,1,0,145.2770249000023,,,,,,,,,,,,,,,,,,,,,,,,,,,,,,,,,,,,,,,,,,,,,,,,,,145.26078759999655,145.2770249000023,145.79363820000435,145.76055979999364,145.78379249999125,145.79363820000435,145.79363820000435,145.79363820000435,148.5939600999991,Scenes\181b.jpg,post,s,2.7850194000056945,None,,,,,,,,00004,001,2025-11-09_14h57.36.500,MST_test,2024.2.2,59.98501574070124,2025-11-09 14h57.42.753415 +0530,
2,0,2,o,2.383259200010798,None,2,0,2,0,148.610354000004,,,,,,,,,,,,,,,,,,,,,,,,,,,,,,,,,,,,,,,,,,,,,,,,,,148.5940433999931,148.610354000004,149.12719199999992,149.09376220000559,149.10540339999716,149.12719199999992,149.12719199999992,149.12719199999992,151.52711959999579,Scenes\049a.jpg,post,o,2.383259200010798,None,,,,,,,,00004,001,2025-11-09_14h57.36.500,MST_test,2024.2.2,59.98501574070124,2025-11-09 14h57.42.753415 +0530,
3,0,3,n,1.6720230000064475,None,3,0,3,0,151.54358499999216,,,,,,,,,,,,,,,,,,,,,,,,,,,,,,,,,,,,,,,,,,,,,,,,,,151.52720499999123,151.54358499999216,152.06037439999636,152.02703319999273,152.0437277000019,152.06037439999636,152.06037439999636,152.06037439999636,153.74387520000164,Foils\057a.jpg,none,n,1.6720230000064475,None,,,,,,,,00004,001,2025-11-09_14h57.36.500,MST_test,2024.2.2,59.98501574070124,2025-11-09 14h57.42.753415 +0530,
4,0,4,o,2.132140599991544,None,4,0,4,0,153.76012999999512,,,,,,,,,,,,,,,,,,,,,,,,,,,,,,,,,,,,,,,,,,,,,,,,,,153.7439585999964,153.76012999999512,154.2770065999939,154.24365170000237,154.2552555000002,154.2770065999939,154.2770065999939,154.2770065999939,156.4104731999978,Scenes\071a.jpg,pre,o,2.132140599991544,None,,,,,,,,00004,001,2025-11-09_14h57.36.500,MST_test,2024.2.2,59.98501574070124,2025-11-09 14h57.42.753415 +0530,
5,0,5,o,2.0695005000015954,None,5,0,5,0,156.42676129999745,,,,,,,,,,,,,,,,,,,,,,,,,,,,,,,,,,,,,,,,,,,,,,,,,,156.41055190000043,156.42676129999745,156.94364389999828,156.91021299999557,156.92677910000202,156.94364389999828,156.94364389999828,156.94364389999828,159.02693429999636,Scenes\042b.jpg,post,o,2.0695005000015954,None,,,,,,,,00004,001,2025-11-09_14h57.36.500,MST_test,2024.2.2,59.98501574070124,2025-11-09 14h57.42.753415 +0530,
6,0,6,o,1.8118977999984054,None,6,0,6,0,159.04336870000407,,,,,,,,,,,,,,,,,,,,,,,,,,,,,,,,,,,,,,,,,,,,,,,,,,159.02701190000516,159.04336870000407,159.54354669999157,159.52689429999737,159.53639989999647,159.54354669999157,159.54354669999157,159.54354669999157,161.3602979999996,Objects\076a.jpg,pre,o,1.8118977999984054,None,,,,,,,,00004,001,2025-11-09_14h57.36.500,MST_test,2024.2.2,59.98501574070124,2025-11-09 14h57.42.753415 +0530,
7,0,7,s,2.367657299997518,None,7,0,7,0,161.37662919999275,,,,,,,,,,,,,,,,,,,,,,,,,,,,,,,,,,,,,,,,,,,,,,,,,,161.36037840000063,161.37662919999275,161.89330389999668,161.8601467999979,161.8725001999992,161.89330389999668,161.89330389999668,161.89330389999668,164.2768672999955,Scenes\035a.jpg,pre,s,2.367657299997518,None,,,,,,,,00004,001,2025-11-09_14h57.36.500,MST_test,2024.2.2,59.98501574070124,2025-11-09 14h57.42.753415 +0530,
8,0,8,o,1.5171247000107542,None,8,0,8,0,164.2932926999929,,,,,,,,,,,,,,,,,,,,,,,,,,,,,,,,,,,,,,,,,,,,,,,,,,164.27695289999247,164.2932926999929,164.80991460000223,164.77678800000285,164.78909989999374,164.80991460000223,164.80991460000223,164.80991460000223,166.34356759999355,Scenes\098a.jpg,mid,o,1.5171247000107542,None,,,,,,,,00004,001,2025-11-09_14h57.36.500,MST_test,2024.2.2,59.98501574070124,2025-11-09 14h57.42.753415 +0530,
9,0,9,o,1.6693637999997009,None,9,0,9,0,166.35988150000048,,,,,,,,,,,,,,,,,,,,,,,,,,,,,,,,,,,,,,,,,,,,,,,,,,166.34365059999982,166.35988150000048,166.85984309999913,166.84334839999792,166.8528551999916,166.85984309999913,166.85984309999913,166.85984309999913,168.54347979999147,Objects\029a.jpg,post,o,1.6693637999997009,None,,,,,,,,00004,001,2025-11-09_14h57.36.500,MST_test,2024.2.2,59.98501574070124,2025-11-09 14h57.42.753415 +0530,
10,0,10,n,1.6630333000066457,None,10,0,10,0,168.55983389999892,,,,,,,,,,,,,,,,,,,,,,,,,,,,,,,,,,,,,,,,,,,,,,,,,,168.54355719999876,168.55983389999892,169.0600917999982,169.04331130000355,169.05395449999196,169.0600917999982,169.0600917999982,169.0600917999982,170.7267520000023,Foils\scenes18.jpg,none,n,1.6630333000066457,None,,,,,,,,00004,001,2025-11-09_14h57.36.500,MST_test,2024.2.2,59.98501574070124,2025-11-09 14h57.42.753415 +0530,
11,0,11,o,1.8389165000116918,None,11,0,11,0,170.74314029999368,,,,,,,,,,,,,,,,,,,,,,,,,,,,,,,,,,,,,,,,,,,,,,,,,,170.72683040000265,170.74314029999368,171.2597720000049,171.22658729999966,171.24150469999586,171.2597720000049,171.2597720000049,171.2597720000049,173.11006619999534,Objects\103b.jpg,mid,o,1.8389165000116918,None,,,,,,,,00004,001,2025-11-09_14h57.36.500,MST_test,2024.2.2,59.98501574070124,2025-11-09 14h57.42.753415 +0530,
12,0,12,o,1.4177300000010291,None,12,0,12,0,173.12639760000457,,,,,,,,,,,,,,,,,,,,,,,,,,,,,,,,,,,,,,,,,,,,,,,,,,173.11015279999992,173.12639760000457,173.64304929999344,173.61002569999255,173.62591829999292,173.64304929999344,173.64304929999344,173.64304929999344,175.0767773999978,Objects\039b.jpg,post,o,1.4177300000010291,None,,,,,,,,00004,001,2025-11-09_14h57.36.500,MST_test,2024.2.2,59.98501574070124,2025-11-09 14h57.42.753415 +0530,
13,0,13,s,2.2562323000020115,None,13,0,13,0,175.09300039999653,,,,,,,,,,,,,,,,,,,,,,,,,,,,,,,,,,,,,,,,,,,,,,,,,,175.07685820000188,175.09300039999653,175.60974149999674,175.57651610000175,175.59249749999435,175.60974149999674,175.60974149999674,175.60974149999674,177.87659379999968,Objects\049b.jpg,post,s,2.2562323000020115,None,,,,,,,,00004,001,2025-11-09_14h57.36.500,MST_test,2024.2.2,59.98501574070124,2025-11-09 14h57.42.753415 +0530,
14,0,14,n,1.6698008999956073,None,14,0,14,0,177.8929974000057,,,,,,,,,,,,,,,,,,,,,,,,,,,,,,,,,,,,,,,,,,,,,,,,,,177.87668549999944,177.8929974000057,178.4095987000037,178.37641709999298,178.39270739999483,178.4095987000037,178.4095987000037,178.4095987000037,180.09318799999892,Foils\050a.jpg,none,n,1.6698008999956073,None,,,,,,,,00004,001,2025-11-09_14h57.36.500,MST_test,2024.2.2,59.98501574070124,2025-11-09 14h57.42.753415 +0530,
15,0,15,o,1.8468928999936907,None,15,0,15,0,180.10955079999985,,,,,,,,,,,,,,,,,,,,,,,,,,,,,,,,,,,,,,,,,,,,,,,,,,180.0932657999947,180.10955079999985,180.60954669999774,180.59306270000525,180.60273109999252,180.60954669999774,180.60954669999774,180.60954669999774,182.4597844999953,Objects\061a.jpg,pre,o,1.8468928999936907,None,,,,,,,,00004,001,2025-11-09_14h57.36.500,MST_test,2024.2.2,59.98501574070124,2025-11-09 14h57.42.753415 +0530,
16,0,16,o,1.5384474000020418,None,16,0,16,0,182.4762300000002,,,,,,,,,,,,,,,,,,,,,,,,,,,,,,,,,,,,,,,,,,,,,,,,,,182.45986049999192,182.4762300000002,182.9928566000017,182.959657600004,182.975340399993,182.9928566000017,182.9928566000017,182.9928566000017,184.54312329999811,Objects\068b.jpg,post,o,1.5384474000020418,None,,,,,,,,00004,001,2025-11-09_14h57.36.500,MST_test,2024.2.2,59.98501574070124,2025-11-09 14h57.42.753415 +0530,
17,0,17,o,1.638588300003903,None,17,0,17,0,184.5594895999966,,,,,,,,,,,,,,,,,,,,,,,,,,,,,,,,,,,,,,,,,,,,,,,,,,184.54319650000252,184.5594895999966,185.07639459999336,185.04299139999785,185.05640940000012,185.07639459999336,185.07639459999336,185.07639459999336,186.72636849999253,Scenes\090a.jpg,post,o,1.638588300003903,None,,,,,,,,00004,001,2025-11-09_14h57.36.500,MST_test,2024.2.2,59.98501574070124,2025-11-09 14h57.42.753415 +0530,
18,0,18,n,3.5891666999959853,None,18,0,18,0,186.74276929999178,,,,,,,,,,,,,,,,,,,,,,,,,,,,,,,,,,,,,,,,,,,,,,,,,,186.72644650000439,186.74276929999178,187.27629270000034,187.22626799999853,187.256026499992,187.27629270000034,187.27629270000034,187.27629270000034,190.8763384000049,Scenes\157b.jpg,pre,n,3.5891666999959853,None,,,,,,,,00004,001,2025-11-09_14h57.36.500,MST_test,2024.2.2,59.98501574070124,2025-11-09 14h57.42.753415 +0530,
19,0,19,s,3.8914950999896973,None,19,0,19,0,190.8926092000038,,,,,,,,,,,,,,,,,,,,,,,,,,,,,,,,,,,,,,,,,,,,,,,,,,190.8764264999918,190.8926092000038,191.40954959999362,191.37627619999694,191.3939107000042,191.40954959999362,191.40954959999362,191.40954959999362,195.30952690000413,Objects\082b.jpg,pre,s,3.8914950999896973,None,,,,,,,,00004,001,2025-11-09_14h57.36.500,MST_test,2024.2.2,59.98501574070124,2025-11-09 14h57.42.753415 +0530,
20,0,20,s,1.655735000007553,None,20,0,20,0,195.3258907999989,,,,,,,,,,,,,,,,,,,,,,,,,,,,,,,,,,,,,,,,,,,,,,,,,,195.30960969999433,195.3258907999989,195.84269330000097,195.80929439999454,195.83049720000417,195.84269330000097,195.84269330000097,195.84269330000097,197.5093904999958,Scenes\114b.jpg,mid,s,1.655735000007553,None,,,,,,,,00004,001,2025-11-09_14h57.36.500,MST_test,2024.2.2,59.98501574070124,2025-11-09 14h57.42.753415 +0530,
21,0,21,o,1.8825223999883747,None,21,0,21,0,197.52575149999757,,,,,,,,,,,,,,,,,,,,,,,,,,,,,,,,,,,,,,,,,,,,,,,,,,197.50946580000164,197.52575149999757,198.02577490000112,198.0092416999978,198.01890640000056,198.02577490000112,198.02577490000112,198.02577490000112,199.90935079999326,Scenes\163a.jpg,post,o,1.8825223999883747,None,,,,,,,,00004,001,2025-11-09_14h57.36.500,MST_test,2024.2.2,59.98501574070124,2025-11-09 14h57.42.753415 +0530,
22,0,22,o,1.1651734999904875,None,22,0,22,0,199.92573269999411,,,,,,,,,,,,,,,,,,,,,,,,,,,,,,,,,,,,,,,,,,,,,,,,,,199.9094386999932,199.92573269999411,200.42569409999123,200.4091965999978,200.41911800000526,200.42569409999123,200.42569409999123,200.42569409999123,201.59262939999462,Objects\158a.jpg,pre,o,1.1651734999904875,None,,,,,,,,00004,001,2025-11-09_14h57.36.500,MST_test,2024.2.2,59.98501574070124,2025-11-09 14h57.42.753415 +0530,
23,0,23,o,1.3217689000011887,None,23,0,23,0,201.60903049999615,,,,,,,,,,,,,,,,,,,,,,,,,,,,,,,,,,,,,,,,,,,,,,,,,,201.59270159999141,201.60903049999615,202.1253066999925,202.09251109999605,202.1196079999936,202.1253066999925,202.1253066999925,202.1253066999925,203.45921590000216,Scenes\080b.jpg,mid,o,1.3217689000011887,None,,,,,,,,00004,001,2025-11-09_14h57.36.500,MST_test,2024.2.2,59.98501574070124,2025-11-09 14h57.42.753415 +0530,
24,0,24,o,1.1050977999984752,None,24,0,24,0,203.47566399999778,,,,,,,,,,,,,,,,,,,,,,,,,,,,,,,,,,,,,,,,,,,,,,,,,,203.45930170000065,203.47566399999778,203.97565639999812,203.95921269999235,203.96898190000502,203.97565639999812,203.97565639999812,203.97565639999812,205.09255639999174,Objects\123a.jpg,pre,o,1.1050977999984752,None,,,,,,,,00004,001,2025-11-09_14h57.36.500,MST_test,2024.2.2,59.98501574070124,2025-11-09 14h57.42.753415 +0530,
25,0,25,s,2.1046965999994427,None,25,0,25,0,205.10895229999733,,,,,,,,,,,,,,,,,,,,,,,,,,,,,,,,,,,,,,,,,,,,,,,,,,205.09263250000367,205.10895229999733,205.6256160000048,205.5924487000011,205.60406220000004,205.6256160000048,205.6256160000048,205.6256160000048,207.74250219999522,Scenes\075a.jpg,post,s,2.1046965999994427,None,,,,,,,,00004,001,2025-11-09_14h57.36.500,MST_test,2024.2.2,59.98501574070124,2025-11-09 14h57.42.753415 +0530,
26,0,26,o,4.123067099993932,None,26,0,26,0,207.75888939999277,,,,,,,,,,,,,,,,,,,,,,,,,,,,,,,,,,,,,,,,,,,,,,,,,,207.74257770000258,207.75888939999277,208.292432000002,208.24238729999342,208.27161579999665,208.292432000002,208.292432000002,208.292432000002,212.42571650000173,Scenes\002b.jpg,pre,o,4.123067099993932,None,,,,,,,,00004,001,2025-11-09_14h57.36.500,MST_test,2024.2.2,59.98501574070124,2025-11-09 14h57.42.753415 +0530,
27,0,27,n,2.3591422000026796,None,27,0,27,0,212.44213120000495,,,,,,,,,,,,,,,,,,,,,,,,,,,,,,,,,,,,,,,,,,,,,,,,,,212.42579759999353,212.44213120000495,212.97542180000164,212.92561789999309,212.9549221000052,212.97542180000164,212.97542180000164,212.97542180000164,215.34234129999822,Scenes\126b.jpg,mid,n,2.3591422000026796,None,,,,,,,,00004,001,2025-11-09_14h57.36.500,MST_test,2024.2.2,59.98501574070124,2025-11-09 14h57.42.753415 +0530,
28,0,28,n,1.09913200000301,None,28,0,28,0,215.35870430000068,,,,,,,,,,,,,,,,,,,,,,,,,,,,,,,,,,,,,,,,,,,,,,,,,,215.34241749999637,215.35870430000068,215.87561319999804,215.84222720000253,215.85859540000092,215.87561319999804,215.87561319999804,215.87561319999804,216.97575299999153,Foils\009a.jpg,none,n,1.09913200000301,None,,,,,,,,00004,001,2025-11-09_14h57.36.500,MST_test,2024.2.2,59.98501574070124,2025-11-09 14h57.42.753415 +0530,
29,0,29,s,2.7126707999996142,None,29,0,29,0,216.99203249999846,,,,,,,,,,,,,,,,,,,,,,,,,,,,,,,,,,,,,,,,,,,,,,,,,,216.97583539999323,216.99203249999846,217.49201259999245,217.47551750000275,217.4851775999996,217.49201259999245,217.49201259999245,217.49201259999245,220.20892629999435,Objects\156a.jpg,pre,s,2.7126707999996142,None,,,,,,,,00004,001,2025-11-09_14h57.36.500,MST_test,2024.2.2,59.98501574070124,2025-11-09 14h57.42.753415 +0530,
30,0,30,s,1.2330621000000974,None,30,0,30,0,220.22530360000383,,,,,,,,,,,,,,,,,,,,,,,,,,,,,,,,,,,,,,,,,,,,,,,,,,220.2090157000057,220.22530360000383,220.77590530000452,220.7087865999929,220.76375559999724,220.77590530000452,220.77590530000452,220.77590530000452,222.02562169999874,Foils\scenes15.jpg,none,s,1.2330621000000974,None,,,,,,,,00004,001,2025-11-09_14h57.36.500,MST_test,2024.2.2,59.98501574070124,2025-11-09 14h57.42.753415 +0530,
31,0,31,n,1.1800612999941222,None,31,0,31,0,222.0419161000027,,,,,,,,,,,,,,,,,,,,,,,,,,,,,,,,,,,,,,,,,,,,,,,,,,222.02569729999232,222.0419161000027,222.55877340000006,222.5254130999965,222.53876329999184,222.55877340000006,222.55877340000006,222.55877340000006,223.7421292999934,Foils\scenes14.jpg,none,n,1.1800612999941222,None,,,,,,,,00004,001,2025-11-09_14h57.36.500,MST_test,2024.2.2,59.98501574070124,2025-11-09 14h57.42.753415 +0530,
32,0,32,s,1.4134535000048345,None,32,0,32,0,223.7585579000006,,,,,,,,,,,,,,,,,,,,,,,,,,,,,,,,,,,,,,,,,,,,,,,,,,223.74220429999696,223.7585579000006,224.27538140000252,224.2420576000004,224.2591087000037,224.27538140000252,224.27538140000252,224.27538140000252,225.69221029999608,Scenes\050a.jpg,post,s,1.4134535000048345,None,,,,,,,,00004,001,2025-11-09_14h57.36.500,MST_test,2024.2.2,59.98501574070124,2025-11-09 14h57.42.753415 +0530,
33,0,33,s,1.4271539000037592,None,33,0,33,0,225.7085068000015,,,,,,,,,,,,,,,,,,,,,,,,,,,,,,,,,,,,,,,,,,,,,,,,,,225.69229449999693,225.7085068000015,226.22539389999292,226.191991899992,226.20806760000414,226.22539389999292,226.22539389999292,226.22539389999292,227.65882409999904,Foils\020b.jpg,none,s,1.4271539000037592,None,,,,,,,,00004,001,2025-11-09_14h57.36.500,MST_test,2024.2.2,59.98501574070124,2025-11-09 14h57.42.753415 +0530,
34,0,34,n,1.255054299996118,None,34,0,34,0,227.67512509999506,,,,,,,,,,,,,,,,,,,,,,,,,,,,,,,,,,,,,,,,,,,,,,,,,,227.65890059999947,227.67512509999506,228.2084290000057,228.15870139999606,228.18891490000533,228.2084290000057,228.2084290000057,228.2084290000057,229.47547239999403,Scenes\158b.jpg,pre,n,1.255054299996118,None,,,,,,,,00004,001,2025-11-09_14h57.36.500,MST_test,2024.2.2,59.98501574070124,2025-11-09 14h57.42.753415 +0530,
35,0,35,s,1.110035899997456,None,35,0,35,0,229.49176439999428,,,,,,,,,,,,,,,,,,,,,,,,,,,,,,,,,,,,,,,,,,,,,,,,,,229.4755567999964,229.49176439999428,230.0083869999944,229.9751968000055,230.0034483999916,230.0083869999944,230.0083869999944,230.0083869999944,231.1253391999926,Objects\176b.jpg,mid,s,1.110035899997456,None,,,,,,,,00004,001,2025-11-09_14h57.36.500,MST_test,2024.2.2,59.98501574070124,2025-11-09 14h57.42.753415 +0530,
36,0,36,o,1.5749523999984376,None,36,0,36,0,231.14172939999844,,,,,,,,,,,,,,,,,,,,,,,,,,,,,,,,,,,,,,,,,,,,,,,,,,231.12542319999193,231.14172939999844,231.64168109999446,231.62522050000553,231.63491649999924,231.64168109999446,231.64168109999446,231.64168109999446,233.22540290000325,Objects\034a.jpg,mid,o,1.5749523999984376,None,,,,,,,,00004,001,2025-11-09_14h57.36.500,MST_test,2024.2.2,59.98501574070124,2025-11-09 14h57.42.753415 +0530,
37,0,37,o,1.3764165000029607,None,37,0,37,0,233.24167750000197,,,,,,,,,,,,,,,,,,,,,,,,,,,,,,,,,,,,,,,,,,,,,,,,,,233.2254885000002,233.24167750000197,233.7583100000047,233.72522039999603,233.7440113000048,233.7583100000047,233.7583100000047,233.7583100000047,235.1419262999989,Scenes\133a.jpg,mid,o,1.3764165000029607,None,,,,,,,,00004,001,2025-11-09_14h57.36.500,MST_test,2024.2.2,59.98501574070124,2025-11-09 14h57.42.753415 +0530,
38,0,38,n,1.1796597000065958,None,38,0,38,0,235.15830409999762,,,,,,,,,,,,,,,,,,,,,,,,,,,,,,,,,,,,,,,,,,,,,,,,,,235.14201029999822,235.15830409999762,235.67496190000384,235.64178869999887,235.6572135000024,235.67496190000384,235.67496190000384,235.67496190000384,236.8587525000039,Foils\098a.jpg,none,n,1.1796597000065958,None,,,,,,,,00004,001,2025-11-09_14h57.36.500,MST_test,2024.2.2,59.98501574070124,2025-11-09 14h57.42.753415 +0530,
39,0,39,n,2.677809500004514,None,39,0,39,0,236.87494100000185,,,,,,,,,,,,,,,,,,,,,,,,,,,,,,,,,,,,,,,,,,,,,,,,,,236.8588402000023,236.87494100000185,237.40872940000554,237.3585122999939,237.39603940000234,237.40872940000554,237.40872940000554,237.40872940000554,240.09181030000036,Scenes\085b.jpg,pre,n,2.677809500004514,None,,,,,,,,00004,001,2025-11-09_14h57.36.500,MST_test,2024.2.2,59.98501574070124,2025-11-09 14h57.42.753415 +0530,
40,0,40,s,1.2754051000083564,None,40,0,40,0,240.10816940000223,,,,,,,,,,,,,,,,,,,,,,,,,,,,,,,,,,,,,,,,,,,,,,,,,,240.09189509999123,240.10816940000223,240.64149660000112,240.59163510000508,240.6222041000001,240.64149660000112,240.64149660000112,240.64149660000112,241.92516980000073,Objects\113b.jpg,post,s,1.2754051000083564,None,,,,,,,,00004,001,2025-11-09_14h57.36.500,MST_test,2024.2.2,59.98501574070124,2025-11-09 14h57.42.753415 +0530,
41,0,41,s,1.0032653999951435,None,41,0,41,0,241.94149139999354,,,,,,,,,,,,,,,,,,,,,,,,,,,,,,,,,,,,,,,,,,,,,,,,,,241.9252548999939,241.94149139999354,242.4583830000047,242.42503359999682,242.44370960000379,242.4583830000047,242.4583830000047,242.4583830000047,243.4751333000022,Scenes\014b.jpg,mid,s,1.0032653999951435,None,,,,,,,,00004,001,2025-11-09_14h57.36.500,MST_test,2024.2.2,59.98501574070124,2025-11-09 14h57.42.753415 +0530,
42,0,42,o,1.8657029000023613,None,42,0,42,0,243.49145649999264,,,,,,,,,,,,,,,,,,,,,,,,,,,,,,,,,,,,,,,,,,,,,,,,,,243.47521550000238,243.49145649999264,243.99141269999382,243.9749959000037,243.9858688999957,243.99141269999382,243.99141269999382,243.99141269999382,245.85845159999735,Objects\038a.jpg,mid,o,1.8657029000023613,None,,,,,,,,00004,001,2025-11-09_14h57.36.500,MST_test,2024.2.2,59.98501574070124,2025-11-09 14h57.42.753415 +0530,
43,0,43,o,1.204972399995313,None,43,0,43,0,245.8747413999954,,,,,,,,,,,,,,,,,,,,,,,,,,,,,,,,,,,,,,,,,,,,,,,,,,245.85852680000244,245.8747413999954,246.39177109999582,246.35825750000367,246.38311260000046,246.39177109999582,246.39177109999582,246.39177109999582,247.60827739999513,Scenes\017a.jpg,post,o,1.204972399995313,None,,,,,,,,00004,001,2025-11-09_14h57.36.500,MST_test,2024.2.2,59.98501574070124,2025-11-09 14h57.42.753415 +0530,
44,0,44,s,1.200746699993033,None,44,0,44,0,247.62469769999734,,,,,,,,,,,,,,,,,,,,,,,,,,,,,,,,,,,,,,,,,,,,,,,,,,247.60835999999836,247.62469769999734,248.15839179999602,248.10814969999774,248.15070430000196,248.15839179999602,248.15839179999602,248.15839179999602,249.37498730000516,Scenes\183b.jpg,post,s,1.200746699993033,None,,,,,,,,00004,001,2025-11-09_14h57.36.500,MST_test,2024.2.2,59.98501574070124,2025-11-09 14h57.42.753415 +0530,
45,0,45,s,0.9482734000048367,None,45,0,45,0,249.3913298999978,,,,,,,,,,,,,,,,,,,,,,,,,,,,,,,,,,,,,,,,,,,,,,,,,,249.37507039999764,249.3913298999978,249.9082114000048,249.8749089000048,249.8984541999962,249.9082114000048,249.9082114000048,249.9082114000048,250.85835619999852,Scenes\077b.jpg,mid,s,0.9482734000048367,None,,,,,,,,00004,001,2025-11-09_14h57.36.500,MST_test,2024.2.2,59.98501574070124,2025-11-09 14h57.42.753415 +0530,
46,0,46,s,2.3217736999940826,None,46,0,46,0,250.8746342999948,,,,,,,,,,,,,,,,,,,,,,,,,,,,,,,,,,,,,,,,,,,,,,,,,,250.8584278000053,250.8746342999948,251.37483770000108,251.35819189999893,251.36866259999806,251.37483770000108,251.37483770000108,251.37483770000108,253.70821529999375,Objects\088a.jpg,post,s,2.3217736999940826,None,,,,,,,,00004,001,2025-11-09_14h57.36.500,MST_test,2024.2.2,59.98501574070124,2025-11-09 14h57.42.753415 +0530,
47,0,47,s,0.7957537000038428,None,47,0,47,0,253.7245316000044,,,,,,,,,,,,,,,,,,,,,,,,,,,,,,,,,,,,,,,,,,,,,,,,,,253.70829130000493,253.7245316000044,254.22452129999874,254.20811940000567,254.21810209999967,254.22452129999874,254.22452129999874,254.22452129999874,255.02493569999933,Objects\083a.jpg,mid,s,0.7957537000038428,None,,,,,,,,00004,001,2025-11-09_14h57.36.500,MST_test,2024.2.2,59.98501574070124,2025-11-09 14h57.42.753415 +0530,
48,0,48,s,1.1466136000090046,None,48,0,48,0,255.04120259999763,,,,,,,,,,,,,,,,,,,,,,,,,,,,,,,,,,,,,,,,,,,,,,,,,,255.0250129999913,255.04120259999763,255.55785109999124,255.5247468000016,255.54273919999832,255.55785109999124,255.55785109999124,255.55785109999124,256.70817899999383,Foils\081a.jpg,none,s,1.1466136000090046,None,,,,,,,,00004,001,2025-11-09_14h57.36.500,MST_test,2024.2.2,59.98501574070124,2025-11-09 14h57.42.753415 +0530,
49,0,49,s,0.9853792999929283,None,49,0,49,0,256.72447879999527,,,,,,,,,,,,,,,,,,,,,,,,,,,,,,,,,,,,,,,,,,,,,,,,,,256.7082525000005,256.72447879999527,257.2411348000023,257.20803819999855,257.22553280000284,257.2411348000023,257.2411348000023,257.2411348000023,258.2413757000031,Objects\115b.jpg,pre,s,0.9853792999929283,None,,,,,,,,00004,001,2025-11-09_14h57.36.500,MST_test,2024.2.2,59.98501574070124,2025-11-09 14h57.42.753415 +0530,
50,0,50,s,2.858215599990217,None,50,0,50,0,258.2578030000004,,,,,,,,,,,,,,,,,,,,,,,,,,,,,,,,,,,,,,,,,,,,,,,,,,258.24146279999695,258.2578030000004,258.7744299000042,258.74127889999363,258.7656319999951,258.7744299000042,258.7744299000042,258.7744299000042,261.641312199994,Objects\144b.jpg,mid,s,2.858215599990217,None,,,,,,,,00004,001,2025-11-09_14h57.36.500,MST_test,2024.2.2,59.98501574070124,2025-11-09 14h57.42.753415 +0530,
51,0,51,s,1.144667100001243,None,51,0,51,0,261.65772950000246,,,,,,,,,,,,,,,,,,,,,,,,,,,,,,,,,,,,,,,,,,,,,,,,,,261.64140130000305,261.65772950000246,262.15774059999967,262.14121010000235,262.1513278000057,262.15774059999967,262.15774059999967,262.15774059999967,263.30803630000446,Objects\131a.jpg,pre,s,1.144667100001243,None,,,,,,,,00004,001,2025-11-09_14h57.36.500,MST_test,2024.2.2,59.98501574070124,2025-11-09 14h57.42.753415 +0530,
52,0,52,n,1.8019997000083094,None,52,0,52,0,263.32436400000006,,,,,,,,,,,,,,,,,,,,,,,,,,,,,,,,,,,,,,,,,,,,,,,,,,263.30811959999846,263.32436400000006,263.8409909000038,263.8079618000047,263.83232449999196,263.8409909000038,263.8409909000038,263.8409909000038,265.65802370000165,Objects\122b.jpg,post,n,1.8019997000083094,None,,,,,,,,00004,001,2025-11-09_14h57.36.500,MST_test,2024.2.2,59.98501574070124,2025-11-09 14h57.42.753415 +0530,
53,0,53,s,3.542791899992153,None,53,0,53,0,265.6743088999938,,,,,,,,,,,,,,,,,,,,,,,,,,,,,,,,,,,,,,,,,,,,,,,,,,265.65809929999523,265.6743088999938,266.20791169999575,266.15785469999537,266.2000085000036,266.20791169999575,266.20791169999575,266.20791169999575,269.75788429999375,Scenes\043b.jpg,mid,s,3.542791899992153,None,,,,,,,,00004,001,2025-11-09_14h57.36.500,MST_test,2024.2.2,59.98501574070124,2025-11-09 14h57.42.753415 +0530,
54,0,54,o,1.6961034999985714,None,54,0,54,0,269.7743069999997,,,,,,,,,,,,,,,,,,,,,,,,,,,,,,,,,,,,,,,,,,,,,,,,,,269.75797639999655,269.7743069999997,270.274290699992,270.25788000000466,270.2680677000026,270.274290699992,270.274290699992,270.274290699992,271.97453930000484,Objects\183a.jpg,pre,o,1.6961034999985714,None,,,,,,,,00004,001,2025-11-09_14h57.36.500,MST_test,2024.2.2,59.98501574070124,2025-11-09 14h57.42.753415 +0530,
55,0,55,n,1.2010547000099905,None,55,0,55,0,271.99096359999385,,,,,,,,,,,,,,,,,,,,,,,,,,,,,,,,,,,,,,,,,,,,,,,,,,271.9746193000028,271.99096359999385,272.50756090000505,272.4743765000021,272.489951399999,272.50756090000505,272.50756090000505,272.50756090000505,273.7246230000019,Foils\058a.jpg,none,n,1.2010547000099905,None,,,,,,,,00004,001,2025-11-09_14h57.36.500,MST_test,2024.2.2,59.98501574070124,2025-11-09 14h57.42.753415 +0530,
56,0,56,n,1.5939922999968985,None,56,0,56,0,273.7410959999979,,,,,,,,,,,,,,,,,,,,,,,,,,,,,,,,,,,,,,,,,,,,,,,,,,273.7247061999951,273.7410959999979,274.24113809999835,274.22441080000135,274.2360747999919,274.24113809999835,274.24113809999835,274.24113809999835,275.8411497000052,Foils\scenes4.jpg,none,n,1.5939922999968985,None,,,,,,,,00004,001,2025-11-09_14h57.36.500,MST_test,2024.2.2,59.98501574070124,2025-11-09 14h57.42.753415 +0530,
57,0,57,o,5.33276879999903,None,57,0,57,0,275.85750169999665,,,,,,,,,,,,,,,,,,,,,,,,,,,,,,,,,,,,,,,,,,,,,,,,,,275.8412309999985,275.85750169999665,276.37438730000576,276.3409832000034,276.3629362999927,276.37438730000576,276.37438730000576,276.37438730000576,281.7076032000041,Scenes\084a.jpg,post,o,5.33276879999903,None,,,,,,,,00004,001,2025-11-09_14h57.36.500,MST_test,2024.2.2,59.98501574070124,2025-11-09 14h57.42.753415 +0530,
58,0,58,s,1.4123376000061398,None,58,0,58,0,281.72407609999937,,,,,,,,,,,,,,,,,,,,,,,,,,,,,,,,,,,,,,,,,,,,,,,,,,281.70769359999395,281.72407609999937,282.2408581000054,282.2074849999917,282.23572339999373,282.2408581000054,282.2408581000054,282.2408581000054,283.6575909999956,Scenes\134b.jpg,post,s,1.4123376000061398,None,,,,,,,,00004,001,2025-11-09_14h57.36.500,MST_test,2024.2.2,59.98501574070124,2025-11-09 14h57.42.753415 +0530,
59,0,59,n,1.5420504000067012,None,59,0,59,0,283.67398500000127,,,,,,,,,,,,,,,,,,,,,,,,,,,,,,,,,,,,,,,,,,,,,,,,,,283.6576684000029,283.67398500000127,284.19087910000235,284.15751699999964,284.1743220999924,284.19087910000235,284.19087910000235,284.19087910000235,285.74094469999545,Foils\090a.jpg,none,n,1.5420504000067012,None,,,,,,,,00004,001,2025-11-09_14h57.36.500,MST_test,2024.2.2,59.98501574070124,2025-11-09 14h57.42.753415 +0530,
60,0,60,o,1.4585198999993736,None,60,0,60,0,285.7572061999963,,,,,,,,,,,,,,,,,,,,,,,,,,,,,,,,,,,,,,,,,,,,,,,,,,285.74101939999673,285.7572061999963,286.29050899999856,286.24068079999415,286.27224930000375,286.29050899999856,286.29050899999856,286.29050899999856,287.7575794000004,Objects\125b.jpg,mid,o,1.4585198999993736,None,,,,,,,,00004,001,2025-11-09_14h57.36.500,MST_test,2024.2.2,59.98501574070124,2025-11-09 14h57.42.753415 +0530,
61,0,61,o,1.7759583000006387,None,61,0,61,0,287.7738060999982,,,,,,,,,,,,,,,,,,,,,,,,,,,,,,,,,,,,,,,,,,,,,,,,,,287.75765970000066,287.7738060999982,288.29047930000525,288.2573354999913,288.276849899994,288.29047930000525,288.29047930000525,288.29047930000525,290.0740398999915,Scenes\100a.jpg,post,o,1.7759583000006387,None,,,,,,,,00004,001,2025-11-09_14h57.36.500,MST_test,2024.2.2,59.98501574070124,2025-11-09 14h57.42.753415 +0530,
62,0,62,n,1.5079796000063652,None,62,0,62,0,290.0904440000013,,,,,,,,,,,,,,,,,,,,,,,,,,,,,,,,,,,,,,,,,,,,,,,,,,290.07411649999267,290.0904440000013,290.5906601000024,290.57389729999704,290.5858368000045,290.5906601000024,290.5906601000024,290.5906601000024,292.1074090000038,Foils\scenes5.jpg,none,n,1.5079796000063652,None,,,,,,,,00004,001,2025-11-09_14h57.36.500,MST_test,2024.2.2,59.98501574070124,2025-11-09 14h57.42.753415 +0530,
63,0,63,o,1.7648302000015974,None,63,0,63,0,292.1237403999985,,,,,,,,,,,,,,,,,,,,,,,,,,,,,,,,,,,,,,,,,,,,,,,,,,292.10749249999935,292.1237403999985,292.62401390000014,292.6071896999929,292.61713460000465,292.62401390000014,292.62401390000014,292.62401390000014,294.39062819999526,Objects\132a.jpg,post,o,1.7648302000015974,None,,,,,,,,00004,001,2025-11-09_14h57.36.500,MST_test,2024.2.2,59.98501574070124,2025-11-09 14h57.42.753415 +0530,
64,0,64,s,2.0860651999973925,None,64,0,64,0,294.40706270000373,,,,,,,,,,,,,,,,,,,,,,,,,,,,,,,,,,,,,,,,,,,,,,,,,,294.39071700000204,294.40706270000373,294.90697270000237,294.8905223000038,294.90077340000425,294.90697270000237,294.90697270000237,294.90697270000237,297.00724510000146,Objects\084a.jpg,pre,s,2.0860651999973925,None,,,,,,,,00004,001,2025-11-09_14h57.36.500,MST_test,2024.2.2,59.98501574070124,2025-11-09 14h57.42.753415 +0530,
65,0,65,n,1.452805900000385,None,65,0,65,0,297.0236584999948,,,,,,,,,,,,,,,,,,,,,,,,,,,,,,,,,,,,,,,,,,,,,,,,,,297.00732950000383,297.0236584999948,297.5239264999982,297.5071680999972,297.51917919999687,297.5239264999982,297.5239264999982,297.5239264999982,298.99058050000167,Foils\scenes29.jpg,none,n,1.452805900000385,None,,,,,,,,00004,001,2025-11-09_14h57.36.500,MST_test,2024.2.2,59.98501574070124,2025-11-09 14h57.42.753415 +0530,
66,0,66,o,1.6452438000123948,None,66,0,66,0,299.00691719999304,,,,,,,,,,,,,,,,,,,,,,,,,,,,,,,,,,,,,,,,,,,,,,,,,,298.99065880000126,299.00691719999304,299.52385389999836,299.49042790000385,299.5135708000016,299.52385389999836,299.52385389999836,299.52385389999836,301.1739105000015,Scenes\128a.jpg,mid,o,1.6452438000123948,None,,,,,,,,00004,001,2025-11-09_14h57.36.500,MST_test,2024.2.2,59.98501574070124,2025-11-09 14h57.42.753415 +0530,
67,0,67,o,1.734307999999146,None,67,0,67,0,301.1901770999975,,,,,,,,,,,,,,,,,,,,,,,,,,,,,,,,,,,,,,,,,,,,,,,,,,301.17399349999323,301.1901770999975,301.70685439999215,301.67372360000445,301.70127419999335,301.70685439999215,301.70685439999215,301.70685439999215,303.4571999000036,Scenes\029b.jpg,mid,o,1.734307999999146,None,,,,,,,,00004,001,2025-11-09_14h57.36.500,MST_test,2024.2.2,59.98501574070124,2025-11-09 14h57.42.753415 +0530,
68,0,68,o,1.2426963000034448,None,68,0,68,0,303.47348459999193,,,,,,,,,,,,,,,,,,,,,,,,,,,,,,,,,,,,,,,,,,,,,,,,,,303.4572880999913,303.47348459999193,303.99011139999493,303.9569682000001,303.98599449999165,303.99011139999493,303.99011139999493,303.99011139999493,305.24041189999843,Scenes\012b.jpg,mid,o,1.2426963000034448,None,,,,,,,,00004,001,2025-11-09_14h57.36.500,MST_test,2024.2.2,59.98501574070124,2025-11-09 14h57.42.753415 +0530,
69,0,69,s,1.3532844000001205,None,69,0,69,0,305.2568021000043,,,,,,,,,,,,,,,,,,,,,,,,,,,,,,,,,,,,,,,,,,,,,,,,,,305.24048839999887,305.2568021000043,305.77343060000567,305.7403110000014,305.7618103999994,305.77343060000567,305.77343060000567,305.77343060000567,307.14045419999456,Objects\153b.jpg,post,s,1.3532844000001205,None,,,,,,,,00004,001,2025-11-09_14h57.36.500,MST_test,2024.2.2,59.98501574070124,2025-11-09 14h57.42.753415 +0530,
70,0,70,o,1.8495846000005258,None,70,0,70,0,307.1567464999971,,,,,,,,,,,,,,,,,,,,,,,,,,,,,,,,,,,,,,,,,,,,,,,,,,307.1405423999968,307.1567464999971,307.6567042999959,307.6403035999974,307.6501910999941,307.6567042999959,307.6567042999959,307.6567042999959,309.5070674000017,Objects\173a.jpg,pre,o,1.8495846000005258,None,,,,,,,,00004,001,2025-11-09_14h57.36.500,MST_test,2024.2.2,59.98501574070124,2025-11-09 14h57.42.753415 +0530,
71,0,71,n,1.9239655999990646,None,71,0,71,0,309.523357500002,,,,,,,,,,,,,,,,,,,,,,,,,,,,,,,,,,,,,,,,,,,,,,,,,,309.5071470999974,309.523357500002,310.02359029999934,310.0068547999981,310.0185242000007,310.02359029999934,310.02359029999934,310.02359029999934,311.9570206999924,Foils\scenes13.jpg,none,n,1.9239655999990646,None,,,,,,,,00004,001,2025-11-09_14h57.36.500,MST_test,2024.2.2,59.98501574070124,2025-11-09 14h57.42.753415 +0530,
72,0,72,s,1.338252100002137,None,72,0,72,0,311.9733009000047,,,,,,,,,,,,,,,,,,,,,,,,,,,,,,,,,,,,,,,,,,,,,,,,,,311.9570967000036,311.9733009000047,312.49019709999266,312.4568497,312.47707710000395,312.49019709999266,312.49019709999266,312.49019709999266,313.8402103999979,Scenes\187a.jpg,pre,s,1.338252100002137,None,,,,,,,,00004,001,2025-11-09_14h57.36.500,MST_test,2024.2.2,59.98501574070124,2025-11-09 14h57.42.753415 +0530,
73,0,73,n,1.8050151000061305,None,73,0,73,0,313.8565998999984,,,,,,,,,,,,,,,,,,,,,,,,,,,,,,,,,,,,,,,,,,,,,,,,,,313.8402874000021,313.8565998999984,314.3734140000015,314.3400851000042,314.3600118000031,314.3734140000015,314.3734140000015,314.3734140000015,316.1902524000034,Scenes\036b.jpg,mid,n,1.8050151000061305,None,,,,,,,,00004,001,2025-11-09_14h57.36.500,MST_test,2024.2.2,59.98501574070124,2025-11-09 14h57.42.753415 +0530,
74,0,74,s,1.5956966999947326,None,74,0,74,0,316.2065542000055,,,,,,,,,,,,,,,,,,,,,,,,,,,,,,,,,,,,,,,,,,,,,,,,,,316.19033270000364,316.2065542000055,316.75735200000054,316.6900777999981,316.7074167999963,316.75735200000054,316.75735200000054,316.75735200000054,318.3567890999984,Objects\167b.jpg,mid,s,1.5956966999947326,None,,,,,,,,00004,001,2025-11-09_14h57.36.500,MST_test,2024.2.2,59.98501574070124,2025-11-09 14h57.42.753415 +0530,
75,0,75,s,0.826187899991055,None,75,0,75,0,318.3731732000015,,,,,,,,,,,,,,,,,,,,,,,,,,,,,,,,,,,,,,,,,,,,,,,,,,318.356881899992,318.3731732000015,318.9067114999925,318.85664779999934,318.8858690999914,318.9067114999925,318.9067114999925,318.9067114999925,319.74022429999604,Scenes\062b.jpg,pre,s,0.826187899991055,None,,,,,,,,00004,001,2025-11-09_14h57.36.500,MST_test,2024.2.2,59.98501574070124,2025-11-09 14h57.42.753415 +0530,
76,0,76,s,0.888306199994986,None,76,0,76,0,319.75647110000136,,,,,,,,,,,,,,,,,,,,,,,,,,,,,,,,,,,,,,,,,,,,,,,,,,319.74030999999377,319.75647110000136,320.25644759999705,320.24001639999915,320.24943349999376,320.25644759999705,320.25644759999705,320.25644759999705,321.1568145999918,Objects\060a.jpg,mid,s,0.888306199994986,None,,,,,,,,00004,001,2025-11-09_14h57.36.500,MST_test,2024.2.2,59.98501574070124,2025-11-09 14h57.42.753415 +0530,
77,0,77,s,0.8888816999970004,None,77,0,77,0,321.17311679999693,,,,,,,,,,,,,,,,,,,,,,,,,,,,,,,,,,,,,,,,,,,,,,,,,,321.1569010999956,321.17311679999693,321.689735699998,321.6567980999971,321.67253690000507,321.689735699998,321.689735699998,321.689735699998,322.59015689999796,Objects\055b.jpg,mid,s,0.8888816999970004,None,,,,,,,,00004,001,2025-11-09_14h57.36.500,MST_test,2024.2.2,59.98501574070124,2025-11-09 14h57.42.753415 +0530,
78,0,78,s,1.0114943999942625,None,78,0,78,0,322.60641469999973,,,,,,,,,,,,,,,,,,,,,,,,,,,,,,,,,,,,,,,,,,,,,,,,,,322.59023929999967,322.60641469999973,323.12303560000146,323.0898787000042,323.10553329999675,323.12303560000146,323.12303560000146,323.12303560000146,324.14002350000374,Objects\072b.jpg,post,s,1.0114943999942625,None,,,,,,,,00004,001,2025-11-09_14h57.36.500,MST_test,2024.2.2,59.98501574070124,2025-11-09 14h57.42.753415 +0530,
79,0,79,s,1.8263342999998713,None,79,0,79,0,324.15637860000425,,,,,,,,,,,,,,,,,,,,,,,,,,,,,,,,,,,,,,,,,,,,,,,,,,324.14010069999495,324.15637860000425,324.6730191999959,324.6399231999967,324.66800439999497,324.6730191999959,324.6730191999959,324.6730191999959,326.50667590000376,Scenes\179b.jpg,pre,s,1.8263342999998713,None,,,,,,,,00004,001,2025-11-09_14h57.36.500,MST_test,2024.2.2,59.98501574070124,2025-11-09 14h57.42.753415 +0530,
80,0,80,s,1.528083199998946,None,80,0,80,0,326.5229901999992,,,,,,,,,,,,,,,,,,,,,,,,,,,,,,,,,,,,,,,,,,,,,,,,,,326.5067512999958,326.5229901999992,327.05657390000124,327.0064716999914,327.035172399992,327.05657390000124,327.05657390000124,327.05657390000124,328.5899003999948,Foils\scenes23.jpg,none,s,1.528083199998946,None,,,,,,,,00004,001,2025-11-09_14h57.36.500,MST_test,2024.2.2,59.98501574070124,2025-11-09 14h57.42.753415 +0530,
81,0,81,o,1.742568300003768,None,81,0,81,0,328.6062762999936,,,,,,,,,,,,,,,,,,,,,,,,,,,,,,,,,,,,,,,,,,,,,,,,,,328.58998459999566,328.6062762999936,329.1064780000015,329.0897980000009,329.1002189999999,329.1064780000015,329.1064780000015,329.1064780000015,330.85660169999755,Objects\110a.jpg,mid,o,1.742568300003768,None,,,,,,,,00004,001,2025-11-09_14h57.36.500,MST_test,2024.2.2,59.98501574070124,2025-11-09 14h57.42.753415 +0530,
82,0,82,s,1.1595920999970986,None,82,0,82,0,330.87289850000525,,,,,,,,,,,,,,,,,,,,,,,,,,,,,,,,,,,,,,,,,,,,,,,,,,330.8566884000029,330.87289850000525,331.37290439999197,331.35641829999804,331.36645839999255,331.37290439999197,331.37290439999197,331.37290439999197,332.5398148999957,Objects\019a.jpg,pre,s,1.1595920999970986,None,,,,,,,,00004,001,2025-11-09_14h57.36.500,MST_test,2024.2.2,59.98501574070124,2025-11-09 14h57.42.753415 +0530,
83,0,83,o,1.7564187000098173,None,83,0,83,0,332.5561882000038,,,,,,,,,,,,,,,,,,,,,,,,,,,,,,,,,,,,,,,,,,,,,,,,,,332.53989329999604,332.5561882000038,333.0730775999982,333.0397479999956,333.06462619999365,333.0730775999982,333.0730775999982,333.0730775999982,334.8397591999965,Scenes\130a.jpg,mid,o,1.7564187000098173,None,,,,,,,,00004,001,2025-11-09_14h57.36.500,MST_test,2024.2.2,59.98501574070124,2025-11-09 14h57.42.753415 +0530,
84,0,84,n,1.6581729000026826,None,84,0,84,0,334.8561353999976,,,,,,,,,,,,,,,,,,,,,,,,,,,,,,,,,,,,,,,,,,,,,,,,,,334.83983860000444,334.8561353999976,335.3563046000054,335.3396611999924,335.3506402000057,335.3563046000054,335.3563046000054,335.3563046000054,337.02302749999217,Foils\scenes2.jpg,none,n,1.6581729000026826,None,,,,,,,,00004,001,2025-11-09_14h57.36.500,MST_test,2024.2.2,59.98501574070124,2025-11-09 14h57.42.753415 +0530,
85,0,85,s,1.1349275999964448,None,85,0,85,0,337.03943309999886,,,,,,,,,,,,,,,,,,,,,,,,,,,,,,,,,,,,,,,,,,,,,,,,,,337.02310609999404,337.03943309999886,337.53960400000506,337.5230586999969,337.5341793999978,337.53960400000506,337.53960400000506,337.53960400000506,338.6897054000001,Objects\102a.jpg,mid,s,1.1349275999964448,None,,,,,,,,00004,001,2025-11-09_14h57.36.500,MST_test,2024.2.2,59.98501574070124,2025-11-09 14h57.42.753415 +0530,
86,0,86,o,1.5990244999993593,None,86,0,86,0,338.70607060000475,,,,,,,,,,,,,,,,,,,,,,,,,,,,,,,,,,,,,,,,,,,,,,,,,,338.6897830999951,338.70607060000475,339.2060180999979,339.1895981999987,339.1995845000056,339.2060180999979,339.2060180999979,339.2060180999979,340.8064183999959,Objects\180a.jpg,post,o,1.5990244999993593,None,,,,,,,,00004,001,2025-11-09_14h57.36.500,MST_test,2024.2.2,59.98501574070124,2025-11-09 14h57.42.753415 +0530,
87,0,87,s,0.9668783999950392,None,87,0,87,0,340.8226833999943,,,,,,,,,,,,,,,,,,,,,,,,,,,,,,,,,,,,,,,,,,,,,,,,,,340.8065019999922,340.8226833999943,341.35629310000513,341.3061783000012,341.3405749999947,341.35629310000513,341.35629310000513,341.35629310000513,342.3397108999925,Scenes\117b.jpg,post,s,0.9668783999950392,None,,,,,,,,00004,001,2025-11-09_14h57.36.500,MST_test,2024.2.2,59.98501574070124,2025-11-09 14h57.42.753415 +0530,
88,0,88,o,1.3286784999945667,None,88,0,88,0,342.35594769999443,,,,,,,,,,,,,,,,,,,,,,,,,,,,,,,,,,,,,,,,,,,,,,,,,,342.33979080000427,342.35594769999443,342.8559333000012,342.8395220999955,342.85101959999884,342.8559333000012,342.8559333000012,342.8559333000012,344.18964149999374,Objects\127a.jpg,post,o,1.3286784999945667,None,,,,,,,,00004,001,2025-11-09_14h57.36.500,MST_test,2024.2.2,59.98501574070124,2025-11-09 14h57.42.753415 +0530,
89,0,89,s,3.2314526999980444,None,89,0,89,0,344.20594630000414,,,,,,,,,,,,,,,,,,,,,,,,,,,,,,,,,,,,,,,,,,,,,,,,,,344.1897214000055,344.20594630000414,344.73951859999215,344.689486999996,344.72922890000336,344.73951859999215,344.73951859999215,344.73951859999215,347.97280679999676,Scenes\189b.jpg,mid,s,3.2314526999980444,None,,,,,,,,00004,001,2025-11-09_14h57.36.500,MST_test,2024.2.2,59.98501574070124,2025-11-09 14h57.42.753415 +0530,
90,0,90,n,2.5091479000111576,None,90,0,90,0,347.98921960000007,,,,,,,,,,,,,,,,,,,,,,,,,,,,,,,,,,,,,,,,,,,,,,,,,,347.9728965999966,347.98921960000007,348.5894657000026,348.47265300000436,348.5677110999968,348.5894657000026,348.5894657000026,348.5894657000026,351.10617990000173,Foils\scenes25.jpg,none,n,2.5091479000111576,None,,,,,,,,00004,001,2025-11-09_14h57.36.500,MST_test,2024.2.2,59.98501574070124,2025-11-09 14h57.42.753415 +0530,
91,0,91,s,1.6091973999864422,None,91,0,91,0,351.1224832000007,,,,,,,,,,,,,,,,,,,,,,,,,,,,,,,,,,,,,,,,,,,,,,,,,,351.1062591999944,351.1224832000007,351.65574729999935,351.6060765000002,351.6434867999924,351.65574729999935,351.65574729999935,351.65574729999935,353.27272809999704,Scenes\165b.jpg,post,s,1.6091973999864422,None,,,,,,,,00004,001,2025-11-09_14h57.36.500,MST_test,2024.2.2,59.98501574070124,2025-11-09 14h57.42.753415 +0530,
92,0,92,o,1.5893018000060692,None,92,0,92,0,353.2890436000016,,,,,,,,,,,,,,,,,,,,,,,,,,,,,,,,,,,,,,,,,,,,,,,,,,353.272819299993,353.2890436000016,353.78931379999267,353.77258350000193,353.7828986999957,353.78931379999267,353.78931379999267,353.78931379999267,355.3892934000032,Objects\187a.jpg,mid,o,1.5893018000060692,None,,,,,,,,00004,001,2025-11-09_14h57.36.500,MST_test,2024.2.2,59.98501574070124,2025-11-09 14h57.42.753415 +0530,
93,0,93,o,1.2350948000093922,None,93,0,93,0,355.405700599993,,,,,,,,,,,,,,,,,,,,,,,,,,,,,,,,,,,,,,,,,,,,,,,,,,355.38937940000324,355.405700599993,355.9057052999997,355.88929789999384,355.8994199000008,355.9057052999997,355.9057052999997,355.9057052999997,357.1560277999961,Objects\147a.jpg,mid,o,1.2350948000093922,None,,,,,,,,00004,001,2025-11-09_14h57.36.500,MST_test,2024.2.2,59.98501574070124,2025-11-09 14h57.42.753415 +0530,
94,0,94,o,3.1237929000053555,None,94,0,94,0,357.17236440000124,,,,,,,,,,,,,,,,,,,,,,,,,,,,,,,,,,,,,,,,,,,,,,,,,,357.1561101999978,357.17236440000124,357.72255409999343,357.655863699998,357.7033611999941,357.72255409999343,357.72255409999343,357.72255409999343,360.85590629999933,Scenes\020b.jpg,mid,o,3.1237929000053555,None,,,,,,,,00004,001,2025-11-09_14h57.36.500,MST_test,2024.2.2,59.98501574070124,2025-11-09 14h57.42.753415 +0530,
95,0,95,n,1.4924457000015536,None,95,0,95,0,360.8722783999983,,,,,,,,,,,,,,,,,,,,,,,,,,,,,,,,,,,,,,,,,,,,,,,,,,360.8560024000035,360.8722783999983,361.3723749000055,361.3557290000026,361.3680291000055,361.3723749000055,361.3723749000055,361.3723749000055,362.87249910000537,Foils\scenes30.jpg,none,n,1.4924457000015536,None,,,,,,,,00004,001,2025-11-09_14h57.36.500,MST_test,2024.2.2,59.98501574070124,2025-11-09 14h57.42.753415 +0530,
96,0,96,n,1.6476668999966932,None,96,0,96,0,362.8888430999941,,,,,,,,,,,,,,,,,,,,,,,,,,,,,,,,,,,,,,,,,,,,,,,,,,362.8725829000032,362.8888430999941,363.4057483999932,363.37240900000324,363.3942906000011,363.4057483999932,363.4057483999932,363.4057483999932,365.0558178999927,Scenes\190a.jpg,post,n,1.6476668999966932,None,,,,,,,,00004,001,2025-11-09_14h57.36.500,MST_test,2024.2.2,59.98501574070124,2025-11-09 14h57.42.753415 +0530,
97,0,97,s,1.8377477000030922,None,97,0,97,0,365.0721612999914,,,,,,,,,,,,,,,,,,,,,,,,,,,,,,,,,,,,,,,,,,,,,,,,,,365.0559027999989,365.0721612999914,365.58900859999994,365.5557198000024,365.571374799998,365.58900859999994,365.58900859999994,365.58900859999994,367.4390538000007,Objects\116b.jpg,post,s,1.8377477000030922,None,,,,,,,,00004,001,2025-11-09_14h57.36.500,MST_test,2024.2.2,59.98501574070124,2025-11-09 14h57.42.753415 +0530,
98,0,98,s,1.2744818999926792,None,98,0,98,0,367.45544340000197,,,,,,,,,,,,,,,,,,,,,,,,,,,,,,,,,,,,,,,,,,,,,,,,,,367.43912860000273,367.45544340000197,367.9887346000032,367.938988599999,367.9775421999948,367.9887346000032,367.9887346000032,367.9887346000032,369.2723851000046,Scenes\156b.jpg,pre,s,1.2744818999926792,None,,,,,,,,00004,001,2025-11-09_14h57.36.500,MST_test,2024.2.2,59.98501574070124,2025-11-09 14h57.42.753415 +0530,
99,0,99,s,2.4281059999921126,None,99,0,99,0,369.2887364999915,,,,,,,,,,,,,,,,,,,,,,,,,,,,,,,,,,,,,,,,,,,,,,,,,,369.27246829999785,369.2887364999915,369.82240819999424,369.7722702000028,369.81343039999774,369.82240819999424,369.82240819999424,369.82240819999424,372.25569520000136,Scenes\095b.jpg,pre,s,2.4281059999921126,None,,,,,,,,00004,001,2025-11-09_14h57.36.500,MST_test,2024.2.2,59.98501574070124,2025-11-09 14h57.42.753415 +0530,
100,0,100,s,1.067740500002401,None,100,0,100,0,372.27199959999416,,,,,,,,,,,,,,,,,,,,,,,,,,,,,,,,,,,,,,,,,,,,,,,,,,372.255771600001,372.27199959999416,372.7886576000019,372.7555454999965,372.7741685999936,372.7886576000019,372.7886576000019,372.7886576000019,373.8722987999936,Scenes\044a.jpg,mid,s,1.067740500002401,None,,,,,,,,00004,001,2025-11-09_14h57.36.500,MST_test,2024.2.2,59.98501574070124,2025-11-09 14h57.42.753415 +0530,
101,0,101,o,1.6214029999973718,None,101,0,101,0,373.8886364999926,,,,,,,,,,,,,,,,,,,,,,,,,,,,,,,,,,,,,,,,,,,,,,,,,,373.87237409999943,373.8886364999926,374.40555579999636,374.3721457999927,374.39711839999654,374.40555579999636,374.40555579999636,374.40555579999636,376.03899299999466,Scenes\108a.jpg,post,o,1.6214029999973718,None,,,,,,,,00004,001,2025-11-09_14h57.36.500,MST_test,2024.2.2,59.98501574070124,2025-11-09 14h57.42.753415 +0530,
102,0,102,o,1.371040099998936,None,102,0,102,0,376.05538190000516,,,,,,,,,,,,,,,,,,,,,,,,,,,,,,,,,,,,,,,,,,,,,,,,,,376.03907820000313,376.05538190000516,376.5555763000011,376.53878149999946,376.54888629999186,376.5555763000011,376.5555763000011,376.5555763000011,377.93890490000194,Objects\108a.jpg,mid,o,1.371040099998936,None,,,,,,,,00004,001,2025-11-09_14h57.36.500,MST_test,2024.2.2,59.98501574070124,2025-11-09 14h57.42.753415 +0530,
103,0,103,s,1.3642474999942351,None,103,0,103,0,377.9553026999929,,,,,,,,,,,,,,,,,,,,,,,,,,,,,,,,,,,,,,,,,,,,,,,,,,377.9389836000046,377.9553026999929,378.4888687999919,378.4389131999924,378.4801890999952,378.4888687999919,378.4888687999919,378.4888687999919,379.85557630000403,Scenes\086b.jpg,post,s,1.3642474999942351,None,,,,,,,,00004,001,2025-11-09_14h57.36.500,MST_test,2024.2.2,59.98501574070124,2025-11-09 14h57.42.753415 +0530,
104,0,104,o,1.4103154000040377,None,104,0,104,0,379.8719817999954,,,,,,,,,,,,,,,,,,,,,,,,,,,,,,,,,,,,,,,,,,,,,,,,,,379.85565679999127,379.8719817999954,380.388560899999,380.3554044000048,380.3721969000035,380.388560899999,380.388560899999,380.388560899999,381.80550829999265,Objects\001b.jpg,mid,o,1.4103154000040377,None,,,,,,,,00004,001,2025-11-09_14h57.36.500,MST_test,2024.2.2,59.98501574070124,2025-11-09 14h57.42.753415 +0530,
105,0,105,s,2.2565653000056045,None,105,0,105,0,381.82188089999545,,,,,,,,,,,,,,,,,,,,,,,,,,,,,,,,,,,,,,,,,,,,,,,,,,381.80558790000214,381.82188089999545,382.32184889999917,382.3054362999974,382.3151321000041,382.32184889999917,382.32184889999917,382.32184889999917,384.58878570000525,Objects\124a.jpg,post,s,2.2565653000056045,None,,,,,,,,00004,001,2025-11-09_14h57.36.500,MST_test,2024.2.2,59.98501574070124,2025-11-09 14h57.42.753415 +0530,
106,0,106,n,2.493225700003677,None,106,0,106,0,384.6051565999951,,,,,,,,,,,,,,,,,,,,,,,,,,,,,,,,,,,,,,,,,,,,,,,,,,384.5888665999955,384.6051565999951,385.1217973000021,385.0886806000053,385.1043590000045,385.1217973000021,385.1217973000021,385.1217973000021,387.62210540000524,Foils\097a.jpg,none,n,2.493225700003677,None,,,,,,,,00004,001,2025-11-09_14h57.36.500,MST_test,2024.2.2,59.98501574070124,2025-11-09 14h57.42.753415 +0530,
107,0,107,s,1.080189700005576,None,107,0,107,0,387.6383965999994,,,,,,,,,,,,,,,,,,,,,,,,,,,,,,,,,,,,,,,,,,,,,,,,,,387.6221838999918,387.6383965999994,388.155061700003,388.1218799999915,388.1380952000036,388.155061700003,388.155061700003,388.155061700003,389.23865070000465,Objects\005b.jpg,pre,s,1.080189700005576,None,,,,,,,,00004,001,2025-11-09_14h57.36.500,MST_test,2024.2.2,59.98501574070124,2025-11-09 14h57.42.753415 +0530,
108,0,108,n,1.6766434000019217,None,108,0,108,0,389.25505559999146,,,,,,,,,,,,,,,,,,,,,,,,,,,,,,,,,,,,,,,,,,,,,,,,,,389.2387280999974,389.25505559999146,389.77202709999983,389.73848400000134,389.764602700001,389.77202709999983,389.77202709999983,389.77202709999983,391.45519819999754,Scenes\011a.jpg,pre,n,1.6766434000019217,None,,,,,,,,00004,001,2025-11-09_14h57.36.500,MST_test,2024.2.2,59.98501574070124,2025-11-09 14h57.42.753415 +0530,
109,0,109,o,2.4805551000026753,None,109,0,109,0,391.47167929999705,,,,,,,,,,,,,,,,,,,,,,,,,,,,,,,,,,,,,,,,,,,,,,,,,,391.45527479999873,391.47167929999705,391.98855249999906,391.95517010000185,391.97373679999146,391.98855249999906,391.98855249999906,391.98855249999906,394.471876399999,Scenes\083a.jpg,pre,o,2.4805551000026753,None,,,,,,,,00004,001,2025-11-09_14h57.36.500,MST_test,2024.2.2,59.98501574070124,2025-11-09 14h57.42.753415 +0530,
110,0,110,s,1.1967334000073606,None,110,0,110,0,394.48827940000047,,,,,,,,,,,,,,,,,,,,,,,,,,,,,,,,,,,,,,,,,,,,,,,,,,394.4719569000008,394.48827940000047,394.98839630000293,394.9720498999959,394.98425199999474,394.98839630000293,394.98839630000293,394.98839630000293,396.18866079999134,Foils\scenes20.jpg,none,s,1.1967334000073606,None,,,,,,,,00004,001,2025-11-09_14h57.36.500,MST_test,2024.2.2,59.98501574070124,2025-11-09 14h57.42.753415 +0530,
111,0,111,s,0.9956570999929681,None,111,0,111,0,396.20494759999565,,,,,,,,,,,,,,,,,,,,,,,,,,,,,,,,,,,,,,,,,,,,,,,,,,396.1887452999945,396.20494759999565,396.7218289000011,396.68844559999707,396.7046635000006,396.7218289000011,396.7218289000011,396.7218289000011,397.7218576000014,Objects\177b.jpg,post,s,0.9956570999929681,None,,,,,,,,00004,001,2025-11-09_14h57.36.500,MST_test,2024.2.2,59.98501574070124,2025-11-09 14h57.42.753415 +0530,
112,0,112,n,1.2799988000042504,None,112,0,112,0,397.73824229999445,,,,,,,,,,,,,,,,,,,,,,,,,,,,,,,,,,,,,,,,,,,,,,,,,,397.7219380000024,397.73824229999445,398.2384386000049,398.22168780000356,398.2325689999998,398.2384386000049,398.2384386000049,398.2384386000049,399.5217737000057,Foils\scenes17.jpg,none,n,1.2799988000042504,None,,,,,,,,00004,001,2025-11-09_14h57.36.500,MST_test,2024.2.2,59.98501574070124,2025-11-09 14h57.42.753415 +0530,
113,0,113,o,2.1767144999903394,None,113,0,113,0,399.53817840000556,,,,,,,,,,,,,,,,,,,,,,,,,,,,,,,,,,,,,,,,,,,,,,,,,,399.5218482999917,399.53817840000556,400.07170990000304,400.0216358000034,400.0644866999937,400.07170990000304,400.07170990000304,400.07170990000304,402.2550601999974,Scenes\032b.jpg,post,o,2.1767144999903394,None,,,,,,,,00004,001,2025-11-09_14h57.36.500,MST_test,2024.2.2,59.98501574070124,2025-11-09 14h57.42.753415 +0530,
114,0,114,n,1.1454431000020122,None,114,0,114,0,402.27144450000196,,,,,,,,,,,,,,,,,,,,,,,,,,,,,,,,,,,,,,,,,,,,,,,,,,402.25513689999934,402.27144450000196,402.77162309999403,402.75488549999136,402.76643129999866,402.77162309999403,402.77162309999403,402.77162309999403,403.9217101999966,Foils\scenes8.jpg,none,n,1.1454431000020122,None,,,,,,,,00004,001,2025-11-09_14h57.36.500,MST_test,2024.2.2,59.98501574070124,2025-11-09 14h57.42.753415 +0530,
115,0,115,s,1.6083884999970905,None,115,0,115,0,403.93807289999677,,,,,,,,,,,,,,,,,,,,,,,,,,,,,,,,,,,,,,,,,,,,,,,,,,403.9217853000009,403.93807289999677,404.43828800000483,404.4215184999921,404.4310778999934,404.43828800000483,404.43828800000483,404.43828800000483,406.0550469000009,Objects\185a.jpg,pre,s,1.6083884999970905,None,,,,,,,,00004,001,2025-11-09_14h57.36.500,MST_test,2024.2.2,59.98501574070124,2025-11-09 14h57.42.753415 +0530,
116,0,116,s,1.1034169000049587,None,116,0,116,0,406.0713340999937,,,,,,,,,,,,,,,,,,,,,,,,,,,,,,,,,,,,,,,,,,,,,,,,,,406.05512809999345,406.0713340999937,406.5879833999934,406.5547838999919,406.57136580000224,406.5879833999934,406.5879833999934,406.5879833999934,407.70494539999345,Foils\105a.jpg,none,s,1.1034169000049587,None,,,,,,,,00004,001,2025-11-09_14h57.36.500,MST_test,2024.2.2,59.98501574070124,2025-11-09 14h57.42.753415 +0530,
117,0,117,s,1.0567028000077698,None,117,0,117,0,407.7213270999928,,,,,,,,,,,,,,,,,,,,,,,,,,,,,,,,,,,,,,,,,,,,,,,,,,407.70502690000285,407.7213270999928,408.2379543999996,408.2049038999976,408.2302964999981,408.2379543999996,408.2379543999996,408.2379543999996,409.30514339999354,Objects\145b.jpg,post,s,1.0567028000077698,None,,,,,,,,00004,001,2025-11-09_14h57.36.500,MST_test,2024.2.2,59.98501574070124,2025-11-09 14h57.42.753415 +0530,
118,0,118,o,1.5652501999866217,None,118,0,118,0,409.3213233999995,,,,,,,,,,,,,,,,,,,,,,,,,,,,,,,,,,,,,,,,,,,,,,,,,,409.30521459999727,409.3213233999995,409.8212557999941,409.80476810000255,409.814380900003,409.8212557999941,409.8212557999941,409.8212557999941,411.388185799995,Objects\172a.jpg,pre,o,1.5652501999866217,None,,,,,,,,00004,001,2025-11-09_14h57.36.500,MST_test,2024.2.2,59.98501574070124,2025-11-09 14h57.42.753415 +0530,
119,0,119,o,2.335083800004213,None,119,0,119,0,411.4045766000054,,,,,,,,,,,,,,,,,,,,,,,,,,,,,,,,,,,,,,,,,,,,,,,,,,411.38825960000395,411.4045766000054,411.93814559999737,411.88809279999987,411.92930329999945,411.93814559999737,411.93814559999737,411.93814559999737,414.2881248000049,Scenes\023b.jpg,pre,o,2.335083800004213,None,,,,,,,,00004,001,2025-11-09_14h57.36.500,MST_test,2024.2.2,59.98501574070124,2025-11-09 14h57.42.753415 +0530,
120,0,120,n,1.98364269999729,None,120,0,120,0,414.30453999999736,,,,,,,,,,,,,,,,,,,,,,,,,,,,,,,,,,,,,,,,,,,,,,,,,,414.2882133999956,414.30453999999736,414.80470429999696,414.78797340000165,414.7989877999935,414.80470429999696,414.80470429999696,414.80470429999696,416.80489109999326,Foils\scenes3.jpg,none,n,1.98364269999729,None,,,,,,,,00004,001,2025-11-09_14h57.36.500,MST_test,2024.2.2,59.98501574070124,2025-11-09 14h57.42.753415 +0530,
121,0,121,o,2.6884664999961387,None,121,0,121,0,416.8211242999969,,,,,,,,,,,,,,,,,,,,,,,,,,,,,,,,,,,,,,,,,,,,,,,,,,416.804977199994,416.8211242999969,417.3380338999996,417.30465269999695,417.33267129999876,417.3380338999996,417.3380338999996,417.3380338999996,420.03811100000166,Scenes\094b.jpg,pre,o,2.6884664999961387,None,,,,,,,,00004,001,2025-11-09_14h57.36.500,MST_test,2024.2.2,59.98501574070124,2025-11-09 14h57.42.753415 +0530,
122,0,122,o,1.474385399997118,None,122,0,122,0,420.0543902999925,,,,,,,,,,,,,,,,,,,,,,,,,,,,,,,,,,,,,,,,,,,,,,,,,,420.03820039999846,420.0543902999925,420.55457490000117,420.53792239999166,420.5482198999962,420.55457490000117,420.55457490000117,420.55457490000117,422.03797140000097,Objects\189a.jpg,mid,o,1.474385399997118,None,,,,,,,,00004,001,2025-11-09_14h57.36.500,MST_test,2024.2.2,59.98501574070124,2025-11-09 14h57.42.753415 +0530,
123,0,123,o,1.4972208999970462,None,123,0,123,0,422.0543403000047,,,,,,,,,,,,,,,,,,,,,,,,,,,,,,,,,,,,,,,,,,,,,,,,,,422.0380590999994,422.0543403000047,422.5710088000051,422.53783079999266,422.5536332000047,422.5710088000051,422.5710088000051,422.5710088000051,424.0712649999914,Objects\085b.jpg,pre,o,1.4972208999970462,None,,,,,,,,00004,001,2025-11-09_14h57.36.500,MST_test,2024.2.2,59.98501574070124,2025-11-09 14h57.42.753415 +0530,
124,0,124,o,1.5010889999975916,None,124,0,124,0,424.08760850000544,,,,,,,,,,,,,,,,,,,,,,,,,,,,,,,,,,,,,,,,,,,,,,,,,,424.07134249999945,424.08760850000544,424.58759219999774,424.57109599999967,424.5826076999947,424.58759219999774,424.58759219999774,424.58759219999774,426.1045604999963,Objects\192a.jpg,post,o,1.5010889999975916,None,,,,,,,,00004,001,2025-11-09_14h57.36.500,MST_test,2024.2.2,59.98501574070124,2025-11-09 14h57.42.753415 +0530,
125,0,125,o,1.4001342999981716,None,125,0,125,0,426.1209239000018,,,,,,,,,,,,,,,,,,,,,,,,,,,,,,,,,,,,,,,,,,,,,,,,,,426.10463580000214,426.1209239000018,426.6208985999983,426.6044380999956,426.61432399999467,426.6208985999983,426.6208985999983,426.6208985999983,428.02138069999637,Objects\069a.jpg,mid,o,1.4001342999981716,None,,,,,,,,00004,001,2025-11-09_14h57.36.500,MST_test,2024.2.2,59.98501574070124,2025-11-09 14h57.42.753415 +0530,
126,0,126,o,1.3169288999924902,None,126,0,126,0,428.03755710000405,,,,,,,,,,,,,,,,,,,,,,,,,,,,,,,,,,,,,,,,,,,,,,,,,,428.02145400000154,428.03755710000405,428.5544252999971,428.5210776000022,428.5403285999928,428.5544252999971,428.5544252999971,428.5544252999971,429.88844130000507,Scenes\131a.jpg,pre,o,1.3169288999924902,None,,,,,,,,00004,001,2025-11-09_14h57.36.500,MST_test,2024.2.2,59.98501574070124,2025-11-09 14h57.42.753415 +0530,
127,0,127,o,1.6929897999943933,None,127,0,127,0,429.90415299999586,,,,,,,,,,,,,,,,,,,,,,,,,,,,,,,,,,,,,,,,,,,,,,,,,,429.8885217999923,429.90415299999586,430.4041365000012,430.38768990000244,430.39779380000255,430.4041365000012,430.4041365000012,430.4041365000012,432.10439520000364,Objects\079a.jpg,post,o,1.6929897999943933,None,,,,,,,,00004,001,2025-11-09_14h57.36.500,MST_test,2024.2.2,59.98501574070124,2025-11-09 14h57.42.753415 +0530,
128,0,128,n,1.8885338999971282,None,128,0,128,0,432.1207954999991,,,,,,,,,,,,,,,,,,,,,,,,,,,,,,,,,,,,,,,,,,,,,,,,,,432.10446810000576,432.1207954999991,432.6543395000044,432.6042501000047,432.63715019999654,432.6543395000044,432.6543395000044,432.6543395000044,434.55440870000166,Foils\scenes27.jpg,none,n,1.8885338999971282,None,,,,,,,,00004,001,2025-11-09_14h57.36.500,MST_test,2024.2.2,59.98501574070124,2025-11-09 14h57.42.753415 +0530,
129,0,129,n,1.06338279999909,None,129,0,129,0,434.57073999999557,,,,,,,,,,,,,,,,,,,,,,,,,,,,,,,,,,,,,,,,,,,,,,,,,,434.5544965000008,434.57073999999557,435.0875970999914,435.05424749999656,435.077457899999,435.0875970999914,435.0875970999914,435.0875970999914,436.1543390000006,Scenes\137b.jpg,pre,n,1.06338279999909,None,,,,,,,,00004,001,2025-11-09_14h57.36.500,MST_test,2024.2.2,59.98501574070124,2025-11-09 14h57.42.753415 +0530,
130,0,130,s,1.1439550000068266,None,130,0,130,0,436.17063350000535,,,,,,,,,,,,,,,,,,,,,,,,,,,,,,,,,,,,,,,,,,,,,,,,,,436.1544228999992,436.17063350000535,436.6872805000021,436.65413749999425,436.67255889999797,436.6872805000021,436.6872805000021,436.6872805000021,437.83767340000486,Scenes\180a.jpg,mid,s,1.1439550000068266,None,,,,,,,,00004,001,2025-11-09_14h57.36.500,MST_test,2024.2.2,59.98501574070124,2025-11-09 14h57.42.753415 +0530,
131,0,131,o,1.2782203999959165,None,131,0,131,0,437.8539246,,,,,,,,,,,,,,,,,,,,,,,,,,,,,,,,,,,,,,,,,,,,,,,,,,437.83775279999827,437.8539246,438.3708067999978,438.33741649999865,438.3532116999995,438.3708067999978,438.3708067999978,438.3708067999978,439.654228600004,Objects\040b.jpg,mid,o,1.2782203999959165,None,,,,,,,,00004,001,2025-11-09_14h57.36.500,MST_test,2024.2.2,59.98501574070124,2025-11-09 14h57.42.753415 +0530,
132,0,132,s,1.5113864000013564,None,132,0,132,0,439.6705503999983,,,,,,,,,,,,,,,,,,,,,,,,,,,,,,,,,,,,,,,,,,,,,,,,,,439.65430959999503,439.6705503999983,440.1871831000026,440.15402479999466,440.171021400005,440.1871831000026,440.1871831000026,440.1871831000026,441.7041683999996,Objects\002b.jpg,pre,s,1.5113864000013564,None,,,,,,,,00004,001,2025-11-09_14h57.36.500,MST_test,2024.2.2,59.98501574070124,2025-11-09 14h57.42.753415 +0530,
133,0,133,s,2.0512560000061058,None,133,0,133,0,441.7204697999987,,,,,,,,,,,,,,,,,,,,,,,,,,,,,,,,,,,,,,,,,,,,,,,,,,441.7042505999998,441.7204697999987,442.2371238999913,442.2040743999969,442.2214985000028,442.2371238999913,442.2371238999913,442.2371238999913,444.3041550999915,Objects\017b.jpg,post,s,2.0512560000061058,None,,,,,,,,00004,001,2025-11-09_14h57.36.500,MST_test,2024.2.2,59.98501574070124,2025-11-09 14h57.42.753415 +0530,
134,0,134,o,1.2933386000077007,None,134,0,134,0,444.320421299999,,,,,,,,,,,,,,,,,,,,,,,,,,,,,,,,,,,,,,,,,,,,,,,,,,444.3042284999974,444.320421299999,444.8370782999991,444.8039783999993,444.82317049999256,444.8370782999991,444.8370782999991,444.8370782999991,446.13734380000096,Scenes\074a.jpg,post,o,1.2933386000077007,None,,,,,,,,00004,001,2025-11-09_14h57.36.500,MST_test,2024.2.2,59.98501574070124,2025-11-09 14h57.42.753415 +0530,
135,0,135,o,1.4966174000001047,None,135,0,135,0,446.1537840999954,,,,,,,,,,,,,,,,,,,,,,,,,,,,,,,,,,,,,,,,,,,,,,,,,,446.137429800001,446.1537840999954,446.67036639999424,446.6372663999937,446.65291669999715,446.67036639999424,446.67036639999424,446.67036639999424,448.17066049999266,Objects\043b.jpg,pre,o,1.4966174000001047,None,,,,,,,,00004,001,2025-11-09_14h57.36.500,MST_test,2024.2.2,59.98501574070124,2025-11-09 14h57.42.753415 +0530,
136,0,136,o,1.2245833999913884,None,136,0,136,0,448.18703919999825,,,,,,,,,,,,,,,,,,,,,,,,,,,,,,,,,,,,,,,,,,,,,,,,,,448.17073230000096,448.18703919999825,448.720636500002,448.6705368999974,448.704301699996,448.720636500002,448.720636500002,448.720636500002,449.9540299999935,Scenes\018b.jpg,pre,o,1.2245833999913884,None,,,,,,,,00004,001,2025-11-09_14h57.36.500,MST_test,2024.2.2,59.98501574070124,2025-11-09 14h57.42.753415 +0530,
137,0,137,s,1.3915882000001147,None,137,0,137,0,449.9703240999952,,,,,,,,,,,,,,,,,,,,,,,,,,,,,,,,,,,,,,,,,,,,,,,,,,449.95411170000443,449.9703240999952,450.4870563000004,450.45386389999476,450.46924079999735,450.4870563000004,450.4870563000004,450.4870563000004,451.88734089999343,Objects\107b.jpg,post,s,1.3915882000001147,None,,,,,,,,00004,001,2025-11-09_14h57.36.500,MST_test,2024.2.2,59.98501574070124,2025-11-09 14h57.42.753415 +0530,
138,0,138,o,1.4843663000065135,None,138,0,138,0,451.9036152000044,,,,,,,,,,,,,,,,,,,,,,,,,,,,,,,,,,,,,,,,,,,,,,,,,,451.8874272999965,451.9036152000044,452.42049459999544,452.3871924999985,452.4146019000036,452.42049459999544,452.42049459999544,452.42049459999544,453.9205968000024,Scenes\003b.jpg,mid,o,1.4843663000065135,None,,,,,,,,00004,001,2025-11-09_14h57.36.500,MST_test,2024.2.2,59.98501574070124,2025-11-09 14h57.42.753415 +0530,
139,0,139,n,1.5318314000032842,None,139,0,139,0,453.93689409999934,,,,,,,,,,,,,,,,,,,,,,,,,,,,,,,,,,,,,,,,,,,,,,,,,,453.9206848000031,453.93689409999934,454.4535218999954,454.4204047999956,454.4371376999916,454.4535218999954,454.4535218999954,454.4535218999954,455.98723739999696,Foils\113a.jpg,none,n,1.5318314000032842,None,,,,,,,,00004,001,2025-11-09_14h57.36.500,MST_test,2024.2.2,59.98501574070124,2025-11-09 14h57.42.753415 +0530,
140,0,140,n,1.136375299989595,None,140,0,140,0,456.0035237999982,,,,,,,,,,,,,,,,,,,,,,,,,,,,,,,,,,,,,,,,,,,,,,,,,,455.9873124000005,456.0035237999982,456.520182799999,456.4870293999993,456.50261519999185,456.520182799999,456.520182799999,456.520182799999,457.6705004999967,Foils\101b.jpg,none,n,1.136375299989595,None,,,,,,,,00004,001,2025-11-09_14h57.36.500,MST_test,2024.2.2,59.98501574070124,2025-11-09 14h57.42.753415 +0530,
141,0,141,o,1.2249414999969304,None,141,0,141,0,457.6868322999944,,,,,,,,,,,,,,,,,,,,,,,,,,,,,,,,,,,,,,,,,,,,,,,,,,457.67057639999257,457.6868322999944,458.20369739999296,458.17036799999187,458.1894043999928,458.20369739999296,458.20369739999296,458.20369739999296,459.437148099998,Scenes\079a.jpg,post,o,1.2249414999969304,None,,,,,,,,00004,001,2025-11-09_14h57.36.500,MST_test,2024.2.2,59.98501574070124,2025-11-09 14h57.42.753415 +0530,
142,0,142,o,1.1611945000040578,None,142,0,142,0,459.45342439999513,,,,,,,,,,,,,,,,,,,,,,,,,,,,,,,,,,,,,,,,,,,,,,,,,,459.43723039999895,459.45342439999513,459.970404599997,459.9368925000017,459.95882499999425,459.970404599997,459.970404599997,459.970404599997,461.13704719999805,Scenes\068a.jpg,mid,o,1.1611945000040578,None,,,,,,,,00004,001,2025-11-09_14h57.36.500,MST_test,2024.2.2,59.98501574070124,2025-11-09 14h57.42.753415 +0530,
143,0,143,o,1.1029973999975482,None,143,0,143,0,461.1533822000056,,,,,,,,,,,,,,,,,,,,,,,,,,,,,,,,,,,,,,,,,,,,,,,,,,461.13713149999967,461.1533822000056,461.65376420000393,461.6369585999928,461.6467821999977,461.65376420000393,461.65376420000393,461.65376420000393,462.77042719999736,Objects\109a.jpg,pre,o,1.1029973999975482,None,,,,,,,,00004,001,2025-11-09_14h57.36.500,MST_test,2024.2.2,59.98501574070124,2025-11-09 14h57.42.753415 +0530,
144,0,144,s,1.236971199992695,None,144,0,144,0,462.7867491999932,,,,,,,,,,,,,,,,,,,,,,,,,,,,,,,,,,,,,,,,,,,,,,,,,,462.7705111999967,462.7867491999932,463.3200164000009,463.2701836999913,463.30895299999975,463.3200164000009,463.3200164000009,463.3200164000009,464.5702539000049,Scenes\138b.jpg,pre,s,1.236971199992695,None,,,,,,,,00004,001,2025-11-09_14h57.36.500,MST_test,2024.2.2,59.98501574070124,2025-11-09 14h57.42.753415 +0530,
145,0,145,o,1.5691976999951294,None,145,0,145,0,464.5866774000024,,,,,,,,,,,,,,,,,,,,,,,,,,,,,,,,,,,,,,,,,,,,,,,,,,464.5703338000021,464.5866774000024,465.10330049999175,465.07014729999355,465.09098690000246,465.10330049999175,465.10330049999175,465.10330049999175,466.6870046999975,Scenes\070a.jpg,pre,o,1.5691976999951294,None,,,,,,,,00004,001,2025-11-09_14h57.36.500,MST_test,2024.2.2,59.98501574070124,2025-11-09 14h57.42.753415 +0530,
146,0,146,n,1.1701083999942057,None,146,0,146,0,466.7032867999951,,,,,,,,,,,,,,,,,,,,,,,,,,,,,,,,,,,,,,,,,,,,,,,,,,466.6870817000017,466.7032867999951,467.2035584999976,467.18679279999924,467.19811499999196,467.2035584999976,467.2035584999976,467.2035584999976,468.38685629999964,Foils\scenes11.jpg,none,n,1.1701083999942057,None,,,,,,,,00004,001,2025-11-09_14h57.36.500,MST_test,2024.2.2,59.98501574070124,2025-11-09 14h57.42.753415 +0530,
147,0,147,s,1.990505599998869,None,147,0,147,0,468.4032569999981,,,,,,,,,,,,,,,,,,,,,,,,,,,,,,,,,,,,,,,,,,,,,,,,,,468.3869268999988,468.4032569999981,468.91987979999976,468.88679720000073,468.90765239999746,468.91987979999976,468.91987979999976,468.91987979999976,470.92012959999556,Scenes\125a.jpg,mid,s,1.990505599998869,None,,,,,,,,00004,001,2025-11-09_14h57.36.500,MST_test,2024.2.2,59.98501574070124,2025-11-09 14h57.42.753415 +0530,
148,0,148,n,1.4860497999907238,None,148,0,148,0,470.93653029999405,,,,,,,,,,,,,,,,,,,,,,,,,,,,,,,,,,,,,,,,,,,,,,,,,,470.92021470000327,470.93653029999405,471.6863930999971,471.4200350000028,471.66575960000046,471.6863930999971,471.6863930999971,471.6863930999971,473.1870147000009,Foils\scenes26.jpg,none,n,1.4860497999907238,None,,,,,,,,00004,001,2025-11-09_14h57.36.500,MST_test,2024.2.2,59.98501574070124,2025-11-09 14h57.42.753415 +0530,
149,0,149,s,1.4688695999939227,None,149,0,149,0,473.2032446999947,,,,,,,,,,,,,,,,,,,,,,,,,,,,,,,,,,,,,,,,,,,,,,,,,,473.1870945999981,473.2032446999947,473.72016519999306,473.68686960000196,473.70109519999824,473.72016519999306,473.72016519999306,473.72016519999306,475.20340179999766,Objects\021a.jpg,mid,s,1.4688695999939227,None,,,,,,,,00004,001,2025-11-09_14h57.36.500,MST_test,2024.2.2,59.98501574070124,2025-11-09 14h57.42.753415 +0530,
,,,,,,,,,,,,,,,,,,,,,,,,,,,,,,,,,,,,,,,,,,,,,,,,,,,,,,,,,,,,,,,,,,,,,,,,,,475.2034627999965,475.2197761999996,475.2197761999996,477.15334350000194,space,1.9231295000063255,None,00004,001,2025-11-09_14h57.36.500,MST_test,2024.2.2,59.98501574070124,2025-11-09 14h57.42.753415 +0530,
