Sl_no,image_path,thisN,thisTrialN,thisRepN,key_resp_5.keys,key_resp_7.keys,key_resp_7.rt,key_resp_7.duration,key_resp_5.rt,key_resp_5.duration,key_resp_9.keys,key_resp_8.keys,key_resp_8.rt,key_resp_8.duration,key_resp_9.rt,key_resp_9.duration,practice.thisRepN,practice.thisTrialN,practice.thisN,trials.thisRepN,trials.thisTrialN,trials.thisN,thisRow.t,notes,welcome_page.started,text.started,key_resp.started,welcome_page.stopped,key_resp.keys,key_resp.rt,key_resp.duration,instructions.started,ins.started,key_resp_2.started,instructions.stopped,key_resp_2.keys,key_resp_2.rt,key_resp_2.duration,objects_only_instruction.started,text_3.started,key_resp_3.started,objects_only_instruction.stopped,key_resp_3.keys,key_resp_3.rt,key_resp_3.duration,ISI.started,text_4.started,ISI.stopped,practice_block.started,image.started,text_5.started,key_resp_5.started,practice_block.stopped,practice.key_resp_5.keys,indoor_outdoor.started,text_7.started,key_resp_7.started,indoor_outdoor.stopped,practice.key_resp_7.keys,practice.key_resp_7.rt,practice.key_resp_7.duration,text_4.stopped,image.stopped,text_5.stopped,key_resp_5.stopped,practice.key_resp_5.rt,practice.key_resp_5.duration,practice_to_main.started,text_2.started,key_resp_4.started,practice_to_main.stopped,key_resp_4.keys,key_resp_4.rt,key_resp_4.duration,objects.started,image_2.started,text_9.started,key_resp_9.started,objects.stopped,trials.key_resp_9.keys,encoding_task.started,text_8.started,key_resp_8.started,encoding_task.stopped,trials.key_resp_8.keys,trials.key_resp_8.rt,trials.key_resp_8.duration,trials.key_resp_9.rt,trials.key_resp_9.duration,image_2.stopped,text_9.stopped,key_resp_9.stopped,end_experiment.started,text_6.started,key_resp_6.started,end_experiment.stopped,key_resp_6.keys,key_resp_6.rt,key_resp_6.duration,list_of_stimuli,encoding_task_accuracy,participant,session,date,expName,psychopyVersion,frameRate,expStart,
,,,,,,,,,,,,,,,,,,,,,,,,,0.0016168000001925975,0.003572599991457537,0.003572599991457537,11.537084699986735,space,11.47368130000541,None,,,,,,,,,,,,,,,,,,,,,,,,,,,,,,,,,,,,,,,,,,,,,,,,,,,,,,,,,,,,,,,,,,,,,,,00017,001,2025-11-20_16h42.37.692,MST_task,2024.2.0,60.10605111242552,2025-11-20 16h42.45.477070 +0530,
,,,,,,,,,,,,,,,,,,,,,,,,,,,,,,,,11.537125699978787,11.54961019998882,11.54961019998882,50.87264319998212,space,39.31211290002102,None,,,,,,,,,,,,,,,,,,,,,,,,,,,,,,,,,,,,,,,,,,,,,,,,,,,,,,,,,,,,,,,,00017,001,2025-11-20_16h42.37.692,MST_task,2024.2.0,60.10605111242552,2025-11-20 16h42.45.477070 +0530,
,,,,,,,,,,,,,,,,,,,,,,,,,,,,,,,,,,,,,,,50.87270229999558,50.88764789997367,50.88764789997367,89.30735549997189,space,38.41401770000812,None,,,,,,,,,,,,,,,,,,,,,,,,,,,,,,,,,,,,,,,,,,,,,,,,,,,,,,,,,00017,001,2025-11-20_16h42.37.692,MST_task,2024.2.0,60.10605111242552,2025-11-20 16h42.45.477070 +0530,
4,practice_images/002b.jpg,0,0,1,None,f,10.47155990000465,None,,,,,,,,,1,0,0,,,,89.33320569997886,,,,,,,,,,,,,,,,,,,,,,,89.33060549999936,89.33320569997886,89.82139409999945,89.83839629997965,89.8497588999744,89.8497588999744,89.8497588999744,92.8223020999867,None,92.82895379999536,92.83814799998072,92.83814799998072,103.32330359998741,f,10.47155990000465,None,,,,,,,,,,,,,,,,,,,,,,,,,,,,,,,,,,,,,,,,,00017,001,2025-11-20_16h42.37.692,MST_task,2024.2.0,60.10605111242552,2025-11-20 16h42.45.477070 +0530,
5,practice_images/139a.jpg,1,1,1,j,None,,,1.751413899997715,0.16825089999474585,,,,,,,1,1,1,,,,103.33799139998155,,,,,,,,,,,,,,,,,,,,,,,103.32365739997476,103.33799139998155,103.82147450000048,103.83337209999445,103.83817609999096,103.83817609999096,103.83817609999096,106.82234689997858,j,106.82243799997377,,,106.82246619998477,None,,,103.83817609999096,106.83784399999422,106.83784399999422,106.83784399999422,1.751413899997715,0.16825089999474585,,,,,,,,,,,,,,,,,,,,,,,,,,,,,,,,,,,00017,001,2025-11-20_16h42.37.692,MST_task,2024.2.0,60.10605111242552,2025-11-20 16h42.45.477070 +0530,
2,practice_images/031a.jpg,2,2,1,f,None,,,2.2810972000006586,0.19197049998911098,,,,,,,1,2,2,,,,106.83784399999422,,,,,,,,,,,,,,,,,,,,,,,106.82267219998175,106.83784399999422,107.32273869999335,107.33815339999273,107.34054439997999,107.34054439997999,107.34054439997999,110.33850959999836,f,110.33874300000025,,,110.33880629998748,None,,,107.34054439997999,,,,2.2810972000006586,0.19197049998911098,,,,,,,,,,,,,,,,,,,,,,,,,,,,,,,,,,,00017,001,2025-11-20_16h42.37.692,MST_task,2024.2.0,60.10605111242552,2025-11-20 16h42.45.477070 +0530,
1,practice_images/013a.jpg,3,3,1,None,f,12.790575099992566,None,,,,,,,,,1,3,3,,,,110.35493619999033,,,,,,,,,,,,,,,,,,,,,,,110.33909359999234,110.35493619999033,110.83891579997726,110.85594309997396,110.8582383999892,110.8582383999892,110.8582383999892,113.85526369998115,None,113.85547429998405,113.87146469997242,113.87146469997242,126.67359719998785,f,12.790575099992566,None,110.8582383999892,,,,,,,,,,,,,,,,,,,,,,,,,,,,,,,,,,,,,,,,00017,001,2025-11-20_16h42.37.692,MST_task,2024.2.0,60.10605111242552,2025-11-20 16h42.45.477070 +0530,
6,practice_images/158a.jpg,4,4,1,None,j,0.2963146999827586,None,,,,,,,,,1,4,4,,,,126.68806229997426,,,,,,,,,,,,,,,,,,,,,,,126.673974299978,126.68806229997426,127.17270129997632,127.1894375999982,127.19180059997598,127.19180059997598,127.19180059997598,130.18871819999185,None,130.18891849997453,130.20501709997188,130.20501709997188,130.5071265999868,j,0.2963146999827586,None,127.19180059997598,,,,,,,,,,,,,,,,,,,,,,,,,,,,,,,,,,,,,,,,00017,001,2025-11-20_16h42.37.692,MST_task,2024.2.0,60.10605111242552,2025-11-20 16h42.45.477070 +0530,
9,practice_images/180a.jpg,5,5,1,None,f,3.127420400007395,None,,,,,,,,,1,5,5,,,,130.52157969999826,,,,,,,,,,,,,,,,,,,,,,,130.5074986999971,130.52157969999826,131.0063237999857,131.04091309997602,131.04344719997607,131.04344719997607,131.04344719997607,134.0221805999754,None,134.02237419999437,134.03810189999058,134.03810189999058,137.1735675999953,f,3.127420400007395,None,131.04344719997607,,,,,,,,,,,,,,,,,,,,,,,,,,,,,,,,,,,,,,,,00017,001,2025-11-20_16h42.37.692,MST_task,2024.2.0,60.10605111242552,2025-11-20 16h42.45.477070 +0530,
3,practice_images/037a.jpg,6,6,1,f,None,,,1.707051400007913,0.14449849998345599,,,,,,,1,6,6,,,,137.1880176999839,,,,,,,,,,,,,,,,,,,,,,,137.1738539999933,137.1880176999839,137.67282129998785,137.68788199999835,137.6902054999955,137.6902054999955,137.6902054999955,140.68848589999834,f,140.6887198999757,,,140.688786099985,None,,,137.6902054999955,,,,1.707051400007913,0.14449849998345599,,,,,,,,,,,,,,,,,,,,,,,,,,,,,,,,,,,00017,001,2025-11-20_16h42.37.692,MST_task,2024.2.0,60.10605111242552,2025-11-20 16h42.45.477070 +0530,
7,practice_images/166a.jpg,7,7,1,f,None,,,2.358213200001046,0.1441142999974545,,,,,,,1,7,7,,,,140.70480889998726,,,,,,,,,,,,,,,,,,,,,,,140.68908349997946,140.70480889998726,141.18929439998465,141.2047505999799,141.20717259999947,141.20717259999947,141.20717259999947,144.20539779998944,f,144.2055779999937,,,144.20564259999082,None,,,141.20717259999947,,,,2.358213200001046,0.1441142999974545,,,,,,,,,,,,,,,,,,,,,,,,,,,,,,,,,,,00017,001,2025-11-20_16h42.37.692,MST_task,2024.2.0,60.10605111242552,2025-11-20 16h42.45.477070 +0530,
8,practice_images/178a.jpg,8,8,1,j,None,,,1.6416434000129811,0.18460969999432564,,,,,,,1,8,8,,,,144.22150529999635,,,,,,,,,,,,,,,,,,,,,,,144.20592789998045,144.22150529999635,144.70585359999677,144.72124559999793,144.72363509997376,144.72363509997376,144.72363509997376,147.72219059997587,j,147.7223920999968,,,147.72245709999697,None,,,144.72363509997376,,,,1.6416434000129811,0.18460969999432564,,,,,,,,,,,,,,,,,,,,,,,,,,,,,,,,,,,00017,001,2025-11-20_16h42.37.692,MST_task,2024.2.0,60.10605111242552,2025-11-20 16h42.45.477070 +0530,
10,practice_images/182a.jpg,9,9,1,f,None,,,1.6205490000138525,0.1519444999867119,,,,,,,1,9,9,,,,147.73798489998444,,,,,,,,,,,,,,,,,,,,,,,147.7227418999828,147.73798489998444,148.22280669998145,148.23850029997993,148.24089369998546,148.24089369998546,148.24089369998546,151.23862479999661,f,151.2388726999925,,,151.2389427999733,None,,,148.24089369998546,,,,1.6205490000138525,0.1519444999867119,,,,,,,,,,,,,,,,,,,,,,,,,,,,,,,,,,,00017,001,2025-11-20_16h42.37.692,MST_task,2024.2.0,60.10605111242552,2025-11-20 16h42.45.477070 +0530,
,,,,,,,,,,,,,,,,,,,,,,,,,,,,,,,,,,,,,,,,,,,,,,,,,,,,,,,,,,,,,,,,,,,,151.239133199997,151.2546487999789,151.2546487999789,179.95723429997452,space,28.6946750000061,None,,,,,,,,,,,,,,,,,,,,,,,,,,,,00017,001,2025-11-20_16h42.37.692,MST_task,2024.2.0,60.10605111242552,2025-11-20 16h42.45.477070 +0530,
,Objects\116a.jpg,0,0,1,,,,,,,None,f,1.021251799975289,None,,,,,,1,0,0,179.97142009998788,,,,,,,,,,,,,,,,,,,,,,,179.95974169997498,179.97142009998788,180.45627279998735,,,,,,,,,,,,,,180.48403559997678,,,,,,,,,,,,,180.48016329997336,180.48403559997678,180.48403559997678,180.48403559997678,183.4720639999723,None,183.47805929998867,183.48793619999196,183.48793619999196,184.52391579997493,f,1.021251799975289,None,,,,,,,,,,,,,,,00017,001,2025-11-20_16h42.37.692,MST_task,2024.2.0,60.10605111242552,2025-11-20 16h42.45.477070 +0530,
,Objects\006a.jpg,1,0,2,,,,,,,None,j,1.7423738999932539,None,,,,,,2,0,1,184.53796039998997,,,,,,,,,,,,,,,,,,,,,,,184.52433279997786,184.53796039998997,185.02250239998102,,,,,,,,,,,,,,185.04000539999106,,,,,,,,,,,,,185.0374415999977,185.04000539999106,185.04000539999106,185.04000539999106,188.038690699992,None,188.03889339999296,188.05503099999623,188.05503099999623,189.80737569998018,j,1.7423738999932539,None,,,,,,,,,,,,,,,00017,001,2025-11-20_16h42.37.692,MST_task,2024.2.0,60.10605111242552,2025-11-20 16h42.45.477070 +0530,
,Objects\063a.jpg,2,0,3,,,,,,,f,None,,,2.5907873999967705,0.12748930000816472,,,,3,0,2,189.82164499998908,,,,,,,,,,,,,,,,,,,,,,,189.80775219999487,189.82164499998908,190.3064020999882,,,,,,,,,,,,,,190.32702379999682,,,,,,,,,,,,,190.3242906999949,190.32702379999682,190.32702379999682,190.32702379999682,193.32236709998688,f,193.32259199998225,,,193.32265539999935,None,,,2.5907873999967705,0.12748930000816472,,,,,,,,,,,,,00017,001,2025-11-20_16h42.37.692,MST_task,2024.2.0,60.10605111242552,2025-11-20 16h42.45.477070 +0530,
,Objects\138a.jpg,3,0,4,,,,,,,j,None,,,2.9652624999871477,None,,,,4,0,3,193.3382183999929,,,,,,,,,,,,,,,,,,,,,,,193.3230454000004,193.3382183999929,193.82277199998498,,,,,,,,,,,,,,193.84063919997425,,,,,,,,,,,,,193.83808889999636,193.84063919997425,193.84063919997425,193.84063919997425,196.83874659999856,j,196.83896319998894,,,196.8390235999832,None,,,2.9652624999871477,None,,,,,,,,,,,,,00017,001,2025-11-20_16h42.37.692,MST_task,2024.2.0,60.10605111242552,2025-11-20 16h42.45.477070 +0530,
,Objects\091a.jpg,4,0,5,,,,,,,j,None,,,2.4535672000201885,0.13585379999130964,,,,5,0,4,196.85518319997936,,,,,,,,,,,,,,,,,,,,,,,196.8394007999741,196.85518319997936,197.33932199998526,,,,,,,,,,,,,,197.3597630999866,,,,,,,,,,,,,197.3570487999823,197.3597630999866,197.3597630999866,197.3597630999866,200.35541549997288,j,200.35561979998602,,,200.35567999997875,None,,,2.4535672000201885,0.13585379999130964,,,,,,,,,,,,,00017,001,2025-11-20_16h42.37.692,MST_task,2024.2.0,60.10605111242552,2025-11-20 16h42.45.477070 +0530,
,Objects\121a.jpg,5,0,6,,,,,,,None,f,0.41383579999092035,None,,,,,,6,0,5,200.37163179999334,,,,,,,,,,,,,,,,,,,,,,,200.3561113999749,200.37163179999334,200.85607629999868,,,,,,,,,,,,,,200.8752845999843,,,,,,,,,,,,,200.8726778999844,200.8752845999843,200.8752845999843,200.8752845999843,203.87211509997724,None,203.87237149997964,203.8882697999943,203.8882697999943,204.3071792999981,f,0.41383579999092035,None,,,,,,,,,,,,,,,00017,001,2025-11-20_16h42.37.692,MST_task,2024.2.0,60.10605111242552,2025-11-20 16h42.45.477070 +0530,
,Objects\115a.jpg,6,0,7,,,,,,,None,f,2.10293520000414,None,,,,,,7,0,6,204.32159669999965,,,,,,,,,,,,,,,,,,,,,,,204.30756109999493,204.32159669999965,204.80628779999097,,,,,,,,,,,,,,204.82525559997885,,,,,,,,,,,,,204.82237159999204,204.82525559997885,204.82525559997885,204.82525559997885,207.82218839999405,None,207.8224487999978,207.83828739999444,207.83828739999444,209.95686999999452,f,2.10293520000414,None,,,,,,,,,,,,,,,00017,001,2025-11-20_16h42.37.692,MST_task,2024.2.0,60.10605111242552,2025-11-20 16h42.45.477070 +0530,
,Scenes\001a.jpg,7,0,8,,,,,,,None,j,0.8535515000112355,None,,,,,,8,0,7,209.97155059999204,,,,,,,,,,,,,,,,,,,,,,,209.95731889997842,209.97155059999204,210.45615359998192,,,,,,,,,,,,,,210.49143709999043,,,,,,,,,,,,,210.48796519997995,210.49143709999043,210.49143709999043,210.49143709999043,213.47209139997722,None,213.47228359998553,213.48821829998633,213.48821829998633,214.3566003999731,j,0.8535515000112355,None,,,,,,,,,,,,,,,00017,001,2025-11-20_16h42.37.692,MST_task,2024.2.0,60.10605111242552,2025-11-20 16h42.45.477070 +0530,
,Scenes\129a.jpg,8,0,9,,,,,,,None,j,1.0459031000209507,None,,,,,,9,0,8,214.37159579998115,,,,,,,,,,,,,,,,,,,,,,,214.35712739999872,214.37159579998115,214.85591959999874,,,,,,,,,,,,,,214.8803330999799,,,,,,,,,,,,,214.87682729997323,214.8803330999799,214.8803330999799,214.8803330999799,217.87219789999654,None,217.87240699998802,217.88794389998657,217.88794389998657,218.93981459998759,j,1.0459031000209507,None,,,,,,,,,,,,,,,00017,001,2025-11-20_16h42.37.692,MST_task,2024.2.0,60.10605111242552,2025-11-20 16h42.45.477070 +0530,
,Scenes\106a.jpg,9,0,10,,,,,,,j,None,,,1.4584860999893863,0.15267929999390617,,,,10,0,9,218.95485409998219,,,,,,,,,,,,,,,,,,,,,,,218.94015409998246,218.95485409998219,219.4392934999778,,,,,,,,,,,,,,219.4665952999785,,,,,,,,,,,,,219.46335379997618,219.4665952999785,219.4665952999785,219.4665952999785,222.45539939997252,j,222.45562259998405,,,222.4556859000004,None,,,1.4584860999893863,0.15267929999390617,,,,,,,,,,,,,00017,001,2025-11-20_16h42.37.692,MST_task,2024.2.0,60.10605111242552,2025-11-20 16h42.45.477070 +0530,
,Scenes\026a.jpg,10,0,11,,,,,,,j,None,,,2.1820421000011265,0.14409210000303574,,,,11,0,10,222.471450299985,,,,,,,,,,,,,,,,,,,,,,,222.4560731999809,222.471450299985,222.9560829999973,,,,,,,,,,,,,,222.98332719999598,,,,,,,,,,,,,222.98001189998467,222.98332719999598,222.98332719999598,222.98332719999598,225.9721736999927,j,225.972394899989,,,225.97245279999333,None,,,2.1820421000011265,0.14409210000303574,,,,,,,,,,,,,00017,001,2025-11-20_16h42.37.692,MST_task,2024.2.0,60.10605111242552,2025-11-20 16h42.45.477070 +0530,
,Scenes\188a.jpg,11,0,12,,,,,,,None,f,0.5486911000043619,None,,,,,,12,0,11,225.98823109999648,,,,,,,,,,,,,,,,,,,,,,,225.97275499999523,225.98823109999648,226.47249389998615,,,,,,,,,,,,,,226.4966901000007,,,,,,,,,,,,,226.4934562999988,226.4966901000007,226.4966901000007,226.4966901000007,229.4886369999731,None,229.48880909997388,229.50493929997901,229.50493929997901,230.05704669997795,f,0.5486911000043619,None,,,,,,,,,,,,,,,00017,001,2025-11-20_16h42.37.692,MST_task,2024.2.0,60.10605111242552,2025-11-20 16h42.45.477070 +0530,
,Scenes\018a.jpg,12,0,13,,,,,,,None,f,0.7936264000018127,None,,,,,,13,0,12,230.07140190000064,,,,,,,,,,,,,,,,,,,,,,,230.0573820999998,230.07140190000064,230.55605529999593,,,,,,,,,,,,,,230.57883409998612,,,,,,,,,,,,,230.5755459999782,230.57883409998612,230.57883409998612,230.57883409998612,233.57199689999106,None,233.5721783999761,233.58803569999873,233.58803569999873,234.3902609999932,f,0.7936264000018127,None,,,,,,,,,,,,,,,00017,001,2025-11-20_16h42.37.692,MST_task,2024.2.0,60.10605111242552,2025-11-20 16h42.45.477070 +0530,
,Scenes\159a.jpg,13,0,14,,,,,,,j,None,,,1.5272607999795582,0.12077629999839701,,,,14,0,13,234.40499789998285,,,,,,,,,,,,,,,,,,,,,,,234.39060489999247,234.40499789998285,234.88928029997624,,,,,,,,,,,,,,234.91791729998658,,,,,,,,,,,,,234.91438969998853,234.91791729998658,234.91791729998658,234.91791729998658,237.9057138999924,j,237.90593439998338,,,237.90599469997687,None,,,1.5272607999795582,0.12077629999839701,,,,,,,,,,,,,00017,001,2025-11-20_16h42.37.692,MST_task,2024.2.0,60.10605111242552,2025-11-20 16h42.45.477070 +0530,
,Objects\065a.jpg,14,0,15,,,,,,,None,f,1.3914542999991681,None,,,,,,15,0,14,237.92164739998407,,,,,,,,,,,,,,,,,,,,,,,237.90640019997954,237.92164739998407,238.4061208999774,,,,,,,,,,,,,,238.42817889997968,,,,,,,,,,,,,238.4255990999809,238.42817889997968,238.42817889997968,238.42817889997968,241.42230969999218,None,241.42255689998274,241.43825129998731,241.43825129998731,242.84034469997277,f,1.3914542999991681,None,,,,,,,,,,,,,,,00017,001,2025-11-20_16h42.37.692,MST_task,2024.2.0,60.10605111242552,2025-11-20 16h42.45.477070 +0530,
,Objects\189a.jpg,15,0,16,,,,,,,f,None,,,2.6654161000042222,0.15117469997494482,,,,16,0,15,242.85496309999144,,,,,,,,,,,,,,,,,,,,,,,242.84087649997673,242.85496309999144,243.33943919997546,,,,,,,,,,,,,,243.35675219999393,,,,,,,,,,,,,243.35412659999565,243.35675219999393,243.35675219999393,243.35675219999393,246.3555054999888,f,246.35572659998434,,,246.35578399998485,None,,,2.6654161000042222,0.15117469997494482,,,,,,,,,,,,,00017,001,2025-11-20_16h42.37.692,MST_task,2024.2.0,60.10605111242552,2025-11-20 16h42.45.477070 +0530,
,Objects\099a.jpg,16,0,17,,,,,,,f,None,,,1.6561012000020128,0.15989569999510422,,,,17,0,16,246.37156329999561,,,,,,,,,,,,,,,,,,,,,,,246.35633919999236,246.37156329999561,246.85600219998742,,,,,,,,,,,,,,246.87729419997777,,,,,,,,,,,,,246.87453799997456,246.87729419997777,246.87729419997777,246.87729419997777,249.87172229998396,f,249.8718002999958,,,249.87182189998566,None,,,1.6561012000020128,0.15989569999510422,,,,,,,,,,,,,00017,001,2025-11-20_16h42.37.692,MST_task,2024.2.0,60.10605111242552,2025-11-20 16h42.45.477070 +0530,
,Objects\087a.jpg,17,0,18,,,,,,,None,j,0.3383580000081565,None,,,,,,18,0,17,249.88781619997462,,,,,,,,,,,,,,,,,,,,,,,249.87191689998144,249.88781619997462,250.37267629997223,,,,,,,,,,,,,,250.39026909999666,,,,,,,,,,,,,250.38767329999246,250.39026909999666,250.39026909999666,250.39026909999666,253.37229919998208,None,253.37251429999014,253.38820259997738,253.38820259997738,253.74005449999822,j,0.3383580000081565,None,,,,,,,,,,,,,,,00017,001,2025-11-20_16h42.37.692,MST_task,2024.2.0,60.10605111242552,2025-11-20 16h42.45.477070 +0530,
,Objects\046a.jpg,18,0,19,,,,,,,f,None,,,1.4025144000188448,0.1762981999781914,,,,19,0,18,253.75491779998993,,,,,,,,,,,,,,,,,,,,,,,253.74055689998204,253.75491779998993,254.23912179999752,,,,,,,,,,,,,,254.25904629999422,,,,,,,,,,,,,254.25654869998107,254.25904629999422,254.25904629999422,254.25904629999422,257.2552026999765,f,257.2553571999888,,,257.25539589999244,None,,,1.4025144000188448,0.1762981999781914,,,,,,,,,,,,,00017,001,2025-11-20_16h42.37.692,MST_task,2024.2.0,60.10605111242552,2025-11-20 16h42.45.477070 +0530,
,Objects\037a.jpg,19,0,20,,,,,,,f,None,,,2.517883399996208,0.1753051000123378,,,,20,0,19,257.2715301999997,,,,,,,,,,,,,,,,,,,,,,,257.25559919999796,257.2715301999997,257.75588279997464,,,,,,,,,,,,,,257.7763105999911,,,,,,,,,,,,,257.7736586999963,257.7763105999911,257.7763105999911,257.7763105999911,260.75555189998704,f,260.7557754999725,,,260.7558339999814,None,,,2.517883399996208,0.1753051000123378,,,,,,,,,,,,,00017,001,2025-11-20_16h42.37.692,MST_task,2024.2.0,60.10605111242552,2025-11-20 16h42.45.477070 +0530,
,Objects\090a.jpg,20,0,21,,,,,,,None,j,3.053675100003602,None,,,,,,21,0,20,260.771634899982,,,,,,,,,,,,,,,,,,,,,,,260.7562138999929,260.771634899982,261.2558112999832,,,,,,,,,,,,,,261.2721665999852,,,,,,,,,,,,,261.2692660999892,261.2721665999852,261.2721665999852,261.2721665999852,264.2560277999728,None,264.2561449999921,264.2715754999954,264.2715754999954,267.33978959999513,j,3.053675100003602,None,,,264.2715754999954,264.2715754999954,264.2715754999954,,,,,,,,,,00017,001,2025-11-20_16h42.37.692,MST_task,2024.2.0,60.10605111242552,2025-11-20 16h42.45.477070 +0530,
,Scenes\108a.jpg,21,0,22,,,,,,,j,None,,,1.6517956999887247,0.17601090000243858,,,,22,0,21,267.35482769997907,,,,,,,,,,,,,,,,,,,,,,,267.34008089997224,267.35482769997907,267.8394110999943,,,,,,,,,,,,,,267.86573699998553,,,,,,,,,,,,,267.8624925999902,267.86573699998553,267.86573699998553,267.86573699998553,270.85565649997443,j,270.8559106999892,,,270.8559731999994,None,,,1.6517956999887247,0.17601090000243858,,,,,,,,,,,,,00017,001,2025-11-20_16h42.37.692,MST_task,2024.2.0,60.10605111242552,2025-11-20 16h42.45.477070 +0530,
,Scenes\175a.jpg,22,0,23,,,,,,,j,None,,,1.2899325000180397,0.2321007999998983,,,,23,0,22,270.87162890000036,,,,,,,,,,,,,,,,,,,,,,,270.8562766999821,270.87162890000036,271.3562562999723,,,,,,,,,,,,,,271.37999560000026,,,,,,,,,,,,,271.37646659999155,271.37999560000026,271.37999560000026,271.37999560000026,274.37156399997184,j,274.37164729999495,,,274.37166129998513,None,,,1.2899325000180397,0.2321007999998983,,,,,,,,,,,,,00017,001,2025-11-20_16h42.37.692,MST_task,2024.2.0,60.10605111242552,2025-11-20 16h42.45.477070 +0530,
,Scenes\123a.jpg,23,0,24,,,,,,,None,j,0.19729670000378974,None,,,,,,24,0,23,274.3876954999869,,,,,,,,,,,,,,,,,,,,,,,274.3717436000006,274.3876954999869,274.8720336999977,,,,,,,,,,,,,,,,,,,,,,,,,,,274.89284969997243,274.89608419997967,274.89608419997967,274.89608419997967,277.87201539997477,None,277.87221370000043,277.8880131999904,277.8880131999904,278.09006479999516,j,0.19729670000378974,None,,,,,,,,,,,,,,,00017,001,2025-11-20_16h42.37.692,MST_task,2024.2.0,60.10605111242552,2025-11-20 16h42.45.477070 +0530,
,Scenes\171a.jpg,24,0,25,,,,,,,f,None,,,1.5181226000131574,0.1678984999889508,,,,25,0,24,278.104849299998,,,,,,,,,,,,,,,,,,,,,,,278.0905715999834,278.104849299998,278.58942499998375,,,,,,,,,,,,,,278.62318129997584,,,,,,,,,,,,,278.6196311999811,278.62318129997584,278.62318129997584,278.62318129997584,281.6055434999871,f,281.60573789998307,,,281.6057877999847,None,,,1.5181226000131574,0.1678984999889508,,,,,,,,,,,,,00017,001,2025-11-20_16h42.37.692,MST_task,2024.2.0,60.10605111242552,2025-11-20 16h42.45.477070 +0530,
,Scenes\040a.jpg,25,0,26,,,,,,,f,None,,,1.6154900999972597,0.20768010002211668,,,,26,0,25,281.6218708999804,,,,,,,,,,,,,,,,,,,,,,,281.606115499977,281.6218708999804,282.10591519999434,,,,,,,,,,,,,,282.134155799984,,,,,,,,,,,,,282.1307040999818,282.134155799984,282.134155799984,282.134155799984,285.12220639997395,f,285.12242449997575,,,285.1224832999869,None,,,1.6154900999972597,0.20768010002211668,,,,,,,,,,,,,00017,001,2025-11-20_16h42.37.692,MST_task,2024.2.0,60.10605111242552,2025-11-20 16h42.45.477070 +0530,
,Scenes\154a.jpg,26,0,27,,,,,,,j,None,,,1.2390232000034302,0.16055549998418428,,,,27,0,26,285.13819779999903,,,,,,,,,,,,,,,,,,,,,,,285.12286589998985,285.13819779999903,285.622447199974,,,,,,,,,,,,,,285.64639059998444,,,,,,,,,,,,,285.6432109999878,285.64639059998444,285.64639059998444,285.64639059998444,288.63862649997463,j,288.63884559998405,,,288.63890609997907,None,,,1.2390232000034302,0.16055549998418428,,,,,,,,,,,,,00017,001,2025-11-20_16h42.37.692,MST_task,2024.2.0,60.10605111242552,2025-11-20 16h42.45.477070 +0530,
,Scenes\031a.jpg,27,0,28,,,,,,,j,None,,,2.365514599980088,0.16807220000191592,,,,28,0,27,288.6548781999736,,,,,,,,,,,,,,,,,,,,,,,288.6392920999788,288.6548781999736,289.13981939997757,,,,,,,,,,,,,,289.1683055999747,,,,,,,,,,,,,289.16490059997886,289.1683055999747,289.1683055999747,289.1683055999747,292.15566409999155,j,292.1558787999966,,,292.155938299984,None,,,2.365514599980088,0.16807220000191592,,,,,,,,,,,,,00017,001,2025-11-20_16h42.37.692,MST_task,2024.2.0,60.10605111242552,2025-11-20 16h42.45.477070 +0530,
,Objects\098a.jpg,28,0,29,,,,,,,f,None,,,2.184477300004801,0.19219629999133758,,,,29,0,28,292.1716514999862,,,,,,,,,,,,,,,,,,,,,,,292.15630989999045,292.1716514999862,292.6561369999836,,,,,,,,,,,,,,292.6771038999723,,,,,,,,,,,,,292.67383989997325,292.6771038999723,292.6771038999723,292.6771038999723,295.67215479997685,f,295.6723313999828,,,295.672373599984,None,,,2.184477300004801,0.19219629999133758,,,,,,,,,,,,,00017,001,2025-11-20_16h42.37.692,MST_task,2024.2.0,60.10605111242552,2025-11-20 16h42.45.477070 +0530,
,Objects\152a.jpg,29,0,30,,,,,,,f,None,,,2.036337800003821,0.18217519999598153,,,,30,0,29,295.68805639998754,,,,,,,,,,,,,,,,,,,,,,,295.67263919999823,295.68805639998754,296.17276849999325,,,,,,,,,,,,,,296.19473540000035,,,,,,,,,,,,,296.19198099998175,296.19473540000035,296.19473540000035,296.19473540000035,299.1885234999936,f,299.1886637999851,,,299.1886996999965,None,,,2.036337800003821,0.18217519999598153,,,,,,,,,,,,,00017,001,2025-11-20_16h42.37.692,MST_task,2024.2.0,60.10605111242552,2025-11-20 16h42.45.477070 +0530,
,Objects\039a.jpg,30,0,31,,,,,,,j,None,,,2.2744569999922533,0.18429040000773966,,,,31,0,30,299.20497289998457,,,,,,,,,,,,,,,,,,,,,,,299.1889537999814,299.20497289998457,299.6893862999859,,,,,,,,,,,,,,299.7070029999886,,,,,,,,,,,,,299.7044271999912,299.7070029999886,299.7070029999886,299.7070029999886,302.7055709999986,j,302.7057804999931,,,302.70583939997596,None,,,2.2744569999922533,0.18429040000773966,,,,,,,,,,,,,00017,001,2025-11-20_16h42.37.692,MST_task,2024.2.0,60.10605111242552,2025-11-20 16h42.45.477070 +0530,
,Objects\078a.jpg,31,0,32,,,,,,,None,j,3.656309899990447,None,,,,,,32,0,31,302.721470199991,,,,,,,,,,,,,,,,,,,,,,,302.70623289997457,302.721470199991,303.2064342999947,,,,,,,,,,,,,,303.22675509998226,,,,,,,,,,,,,303.2240877999866,303.22675509998226,303.22675509998226,303.22675509998226,306.2222680999839,None,306.22248299999046,306.23808729997836,306.23808729997836,309.90655849999166,j,3.656309899990447,None,,,,,,,,,,,,,,,00017,001,2025-11-20_16h42.37.692,MST_task,2024.2.0,60.10605111242552,2025-11-20 16h42.45.477070 +0530,
,Objects\105a.jpg,32,0,33,,,,,,,f,None,,,2.587087400024757,0.1758335999911651,,,,33,0,32,309.9215139999869,,,,,,,,,,,,,,,,,,,,,,,309.90694449999137,309.9215139999869,310.40608479999355,,,,,,,,,,,,,,310.4268732999917,,,,,,,,,,,,,310.4241840999748,310.4268732999917,310.4268732999917,310.4268732999917,313.4221401999821,f,313.42235889998847,,,313.4224113999808,None,,,2.587087400024757,0.1758335999911651,,,,,,,,,,,,,00017,001,2025-11-20_16h42.37.692,MST_task,2024.2.0,60.10605111242552,2025-11-20 16h42.45.477070 +0530,
,Objects\034a.jpg,33,0,34,,,,,,,f,None,,,1.5812604000093415,0.19221749997814186,,,,34,0,33,313.4382546999841,,,,,,,,,,,,,,,,,,,,,,,313.4226842999924,313.4382546999841,313.92273489999934,,,,,,,,,,,,,,313.9443341999722,,,,,,,,,,,,,313.94167599998764,313.9443341999722,313.9443341999722,313.9443341999722,316.93866029998753,f,316.9388324999891,,,316.93889749998925,None,,,1.5812604000093415,0.19221749997814186,,,,,,,,,,,,,00017,001,2025-11-20_16h42.37.692,MST_task,2024.2.0,60.10605111242552,2025-11-20 16h42.45.477070 +0530,
,Objects\143a.jpg,34,0,35,,,,,,,None,f,2.149665399978403,None,,,,,,35,0,34,316.95493519998854,,,,,,,,,,,,,,,,,,,,,,,316.9391862999764,316.95493519998854,317.43922009997186,,,,,,,,,,,,,,317.4620463999745,,,,,,,,,,,,,317.4593886999937,317.4620463999745,317.4620463999745,317.4620463999745,320.4553306999733,None,320.4555046999885,320.4717002999969,320.4717002999969,322.6236245999753,f,2.149665399978403,None,,,,,,,,,,,,,,,00017,001,2025-11-20_16h42.37.692,MST_task,2024.2.0,60.10605111242552,2025-11-20 16h42.45.477070 +0530,
,Scenes\094a.jpg,35,0,36,,,,,,,f,None,,,2.835376200004248,None,,,,36,0,35,322.6380542999832,,,,,,,,,,,,,,,,,,,,,,,322.6239135999931,322.6380542999832,323.12266619998263,,,,,,,,,,,,,,323.15387399998144,,,,,,,,,,,,,323.1506187999912,323.15387399998144,323.15387399998144,323.15387399998144,326.13891899999,f,326.13915759997326,,,326.1392205999873,None,,,2.835376200004248,None,,,,,,,,,,,,,00017,001,2025-11-20_16h42.37.692,MST_task,2024.2.0,60.10605111242552,2025-11-20 16h42.45.477070 +0530,
,Scenes\041a.jpg,36,0,37,,,,,,,j,None,,,1.8172376000147779,0.2646498999965843,,,,37,0,36,326.15489439998055,,,,,,,,,,,,,,,,,,,,,,,326.13952729999437,326.15489439998055,326.6394907999784,,,,,,,,,,,,,,326.6681234999851,,,,,,,,,,,,,326.66474699997343,326.6681234999851,326.6681234999851,326.6681234999851,329.65551609999966,j,329.655743899988,,,329.6558020999946,None,,,1.8172376000147779,0.2646498999965843,,,,,,,,,,,,,00017,001,2025-11-20_16h42.37.692,MST_task,2024.2.0,60.10605111242552,2025-11-20 16h42.45.477070 +0530,
,Scenes\118a.jpg,37,0,38,,,,,,,None,j,1.1218235999986064,None,,,,,,38,0,37,329.67152089998126,,,,,,,,,,,,,,,,,,,,,,,329.6560999999929,329.67152089998126,330.15613059999305,,,,,,,,,,,,,,330.18032699998,,,,,,,,,,,,,330.17681139998604,330.18032699998,330.18032699998,330.18032699998,333.1717505999841,None,333.1718994999828,333.1880106999888,333.1880106999888,334.3235521999886,j,1.1218235999986064,None,,,,,,,,,,,,,,,00017,001,2025-11-20_16h42.37.692,MST_task,2024.2.0,60.10605111242552,2025-11-20 16h42.45.477070 +0530,
,Scenes\145a.jpg,38,0,39,,,,,,,j,None,,,2.7790373000025284,None,,,,39,0,38,334.33816269997624,,,,,,,,,,,,,,,,,,,,,,,334.32394149998436,334.33816269997624,334.8228189999936,,,,,,,,,,,,,,334.8502193999884,,,,,,,,,,,,,334.8470745999948,334.8502193999884,334.8502193999884,334.8502193999884,337.8386202999973,j,337.838827199972,,,337.8388858999824,None,,,2.7790373000025284,None,,,,,,,,,,,,,00017,001,2025-11-20_16h42.37.692,MST_task,2024.2.0,60.10605111242552,2025-11-20 16h42.45.477070 +0530,
,Scenes\014a.jpg,39,0,40,,,,,,,j,None,,,1.1873538000218105,0.312272999988636,,,,40,0,39,337.8549543999834,,,,,,,,,,,,,,,,,,,,,,,337.8392825999763,337.8549543999834,338.33907109999564,,,,,,,,,,,,,,338.3617963999859,,,,,,,,,,,,,338.3585899999889,338.3617963999859,338.3617963999859,338.3617963999859,341.35523239997565,j,341.3553336999903,,,341.3553576999984,None,,,1.1873538000218105,0.312272999988636,,,,,,,,,,,,,00017,001,2025-11-20_16h42.37.692,MST_task,2024.2.0,60.10605111242552,2025-11-20 16h42.45.477070 +0530,
,Scenes\067a.jpg,40,0,41,,,,,,,None,f,0.1016957999963779,None,,,,,,41,0,40,341.3716584999929,,,,,,,,,,,,,,,,,,,,,,,341.3554879000003,341.3716584999929,341.8562060999975,,,,,,,,,,,,,,341.88098940000054,,,,,,,,,,,,,341.87791239999933,341.88098940000054,341.88098940000054,341.88098940000054,344.85553489997983,None,344.85573379998095,344.8715774999873,344.8715774999873,344.9903840999759,f,0.1016957999963779,None,,,,,,,,,,,,,,,00017,001,2025-11-20_16h42.37.692,MST_task,2024.2.0,60.10605111242552,2025-11-20 16h42.45.477070 +0530,
,Scenes\130a.jpg,41,0,42,,,,,,,None,j,0.16447839999455027,None,,,,,,42,0,41,345.00489909999305,,,,,,,,,,,,,,,,,,,,,,,344.99081869999645,345.00489909999305,345.48898949997965,,,,,,,,,,,,,,345.5146762999939,,,,,,,,,,,,,345.51144849997945,345.5146762999939,345.5146762999939,345.5146762999939,348.5055390999769,None,348.5057157999836,348.5215609000006,348.5215609000006,348.68999369998346,j,0.16447839999455027,None,,,,,,,,,,,,,,,00017,001,2025-11-20_16h42.37.692,MST_task,2024.2.0,60.10605111242552,2025-11-20 16h42.45.477070 +0530,
,Objects\054a.jpg,42,0,43,,,,,,,None,f,0.23212660002172925,None,,,,,,43,0,42,348.704860799975,,,,,,,,,,,,,,,,,,,,,,,348.69030289998045,348.704860799975,349.1891298999835,,,,,,,,,,,,,,349.21098579998943,,,,,,,,,,,,,349.20761629997287,349.21098579998943,349.21098579998943,349.21098579998943,352.20566089998465,None,352.2058772999735,352.2215341999836,352.2215341999836,352.45722699997714,f,0.23212660002172925,None,,,,,,,,,,,,,,,00017,001,2025-11-20_16h42.37.692,MST_task,2024.2.0,60.10605111242552,2025-11-20 16h42.45.477070 +0530,
,Objects\030a.jpg,43,0,44,,,,,,,None,f,1.5851489000197034,None,,,,,,44,0,43,352.47152699998696,,,,,,,,,,,,,,,,,,,,,,,352.4576873999904,352.47152699998696,352.9559973999858,,,,,,,,,,,,,,352.9758483999758,,,,,,,,,,,,,352.9732809999841,352.9758483999758,352.9758483999758,352.9758483999758,355.9721426999895,None,355.9723407999845,355.9880829999747,355.9880829999747,357.5902509999869,f,1.5851489000197034,None,,,,,,,,,,,,,,,00017,001,2025-11-20_16h42.37.692,MST_task,2024.2.0,60.10605111242552,2025-11-20 16h42.45.477070 +0530,
,Objects\104a.jpg,44,0,45,,,,,,,None,j,1.396048199996585,None,,,,,,45,0,44,357.60478269998566,,,,,,,,,,,,,,,,,,,,,,,357.5906763999956,357.60478269998566,358.0890830999997,,,,,,,,,,,,,,358.1103065999923,,,,,,,,,,,,,358.1077625999751,358.1103065999923,358.1103065999923,358.1103065999923,361.1055419999757,None,361.10583319998113,361.12153969999054,361.12153969999054,362.5234359999886,j,1.396048199996585,None,,,,,,,,,,,,,,,00017,001,2025-11-20_16h42.37.692,MST_task,2024.2.0,60.10605111242552,2025-11-20 16h42.45.477070 +0530,
,Objects\056a.jpg,45,0,46,,,,,,,None,f,0.7910688999982085,None,,,,,,46,0,45,362.53811489997315,,,,,,,,,,,,,,,,,,,,,,,362.5238252999843,362.53811489997315,363.0228226999752,,,,,,,,,,,,,,363.04136529998505,,,,,,,,,,,,,363.03876349999337,363.04136529998505,363.04136529998505,363.04136529998505,366.0388163999887,None,366.03902299999027,366.05494639999233,366.05494639999233,366.85655289998977,f,0.7910688999982085,None,,,,,,,,,,,,,,,00017,001,2025-11-20_16h42.37.692,MST_task,2024.2.0,60.10605111242552,2025-11-20 16h42.45.477070 +0530,
,Objects\021a.jpg,46,0,47,,,,,,,None,f,2.3693838999897707,None,,,,,,47,0,46,366.8716543999908,,,,,,,,,,,,,,,,,,,,,,,366.8568877999787,366.8716543999908,367.35590119997505,,,,,,,,,,,,,,367.37649429999874,,,,,,,,,,,,,367.37396499997703,367.37649429999874,367.37649429999874,367.37649429999874,370.37203869997757,None,370.3722315999912,370.38811729999725,370.38811729999725,372.77437269999064,f,2.3693838999897707,None,,,,,,,,,,,,,,,00017,001,2025-11-20_16h42.37.692,MST_task,2024.2.0,60.10605111242552,2025-11-20 16h42.45.477070 +0530,
,Objects\058a.jpg,47,0,48,,,,,,,None,f,0.46080269999220036,None,,,,,,48,0,47,372.78807529999176,,,,,,,,,,,,,,,,,,,,,,,372.774752599973,372.78807529999176,373.2728566000005,,,,,,,,,,,,,,373.291242199979,,,,,,,,,,,,,373.28866829999606,373.291242199979,373.291242199979,373.291242199979,376.2889167999965,None,376.2890838999883,376.30491579999216,376.30491579999216,376.7733883999754,f,0.46080269999220036,None,,,,,,,,,,,,,,,00017,001,2025-11-20_16h42.37.692,MST_task,2024.2.0,60.10605111242552,2025-11-20 16h42.45.477070 +0530,
,Objects\149a.jpg,48,0,49,,,,,,,None,f,0.5568695999972988,None,,,,,,49,0,48,376.78806549997535,,,,,,,,,,,,,,,,,,,,,,,376.7737877999898,376.78806549997535,377.27297109999927,,,,,,,,,,,,,,377.29249439999694,,,,,,,,,,,,,377.28966179999406,377.29249439999694,377.29249439999694,377.29249439999694,380.2885877999943,None,380.28878399997484,380.30488709997735,380.30488709997735,380.8736320999742,f,0.5568695999972988,None,,,,,,,,,,,,,,,00017,001,2025-11-20_16h42.37.692,MST_task,2024.2.0,60.10605111242552,2025-11-20 16h42.45.477070 +0530,
,Scenes\163a.jpg,49,0,50,,,,,,,j,None,,,2.2580551000137348,0.280067899991991,,,,50,0,49,380.88809039999614,,,,,,,,,,,,,,,,,,,,,,,380.8741569999838,380.88809039999614,381.37245939997956,,,,,,,,,,,,,,381.3957133999793,,,,,,,,,,,,,381.3927327999845,381.3957133999793,381.3957133999793,381.3957133999793,384.3888439000002,j,384.38906839999254,,,384.3891306000005,None,,,2.2580551000137348,0.280067899991991,,,,,,,,,,,,,00017,001,2025-11-20_16h42.37.692,MST_task,2024.2.0,60.10605111242552,2025-11-20 16h42.45.477070 +0530,
,Scenes\136a.jpg,50,0,51,,,,,,,None,j,4.883751899993513,None,,,,,,51,0,50,384.405142899981,,,,,,,,,,,,,,,,,,,,,,,384.38951389997965,384.405142899981,384.88930869998876,,,,,,,,,,,,,,384.9145429999917,,,,,,,,,,,,,384.9113362999924,384.9145429999917,384.9145429999917,384.9145429999917,387.9057482999924,None,387.90595229997416,387.9217983999988,387.9217983999988,392.80795019998914,j,4.883751899993513,None,,,,,,,,,,,,,,,00017,001,2025-11-20_16h42.37.692,MST_task,2024.2.0,60.10605111242552,2025-11-20 16h42.45.477070 +0530,
,Scenes\037a.jpg,51,0,52,,,,,,,None,j,4.211126300011529,None,,,,,,52,0,51,392.8215103999828,,,,,,,,,,,,,,,,,,,,,,,392.8084299999755,392.8215103999828,393.3063181999896,,,,,,,,,,,,,,393.32915149998735,,,,,,,,,,,,,393.32582839997485,393.32915149998735,393.32915149998735,393.32915149998735,396.3223674999899,None,396.3225542999862,396.33831869999995,396.33831869999995,400.55733359997976,j,4.211126300011529,None,,,,,,,,,,,,,,,00017,001,2025-11-20_16h42.37.692,MST_task,2024.2.0,60.10605111242552,2025-11-20 16h42.45.477070 +0530,
,Scenes\074a.jpg,52,0,53,,,,,,,j,None,,,1.9493559999973513,0.28770210000220686,,,,53,0,52,400.57151209999574,,,,,,,,,,,,,,,,,,,,,,,400.55767459998606,400.57151209999574,401.05599439999787,,,,,,,,,,,,,,401.08059959998354,,,,,,,,,,,,,401.07748559999163,401.08059959998354,401.08059959998354,401.08059959998354,404.0722823999822,j,404.07249649998266,,,404.07255839998834,None,,,1.9493559999973513,0.28770210000220686,,,,,,,,,,,,,00017,001,2025-11-20_16h42.37.692,MST_task,2024.2.0,60.10605111242552,2025-11-20 16h42.45.477070 +0530,
,Scenes\181a.jpg,53,0,54,,,,,,,None,j,1.7687741999980062,None,,,,,,54,0,53,404.0880605999846,,,,,,,,,,,,,,,,,,,,,,,404.07290129998,404.0880605999846,404.57285509997746,,,,,,,,,,,,,,404.59927959999186,,,,,,,,,,,,,404.595954599994,404.59927959999186,404.59927959999186,404.59927959999186,407.5887663999747,None,407.5890437999915,407.6049600999977,407.6049600999977,409.38977679997333,j,1.7687741999980062,None,,,,,,,,,,,,,,,00017,001,2025-11-20_16h42.37.692,MST_task,2024.2.0,60.10605111242552,2025-11-20 16h42.45.477070 +0530,
,Scenes\187a.jpg,54,0,55,,,,,,,None,j,0.12486470001749694,None,,,,,,55,0,54,409.4049307999958,,,,,,,,,,,,,,,,,,,,,,,409.3900839999842,409.4049307999958,409.8892749999941,,,,,,,,,,,,,,409.91530139997485,,,,,,,,,,,,,409.91214109997964,409.91530139997485,409.91530139997485,409.91530139997485,412.90561489999527,None,412.9057501999778,412.9216720999975,412.9216720999975,413.0572524999734,j,0.12486470001749694,None,,,,,,,,,,,,,,,00017,001,2025-11-20_16h42.37.692,MST_task,2024.2.0,60.10605111242552,2025-11-20 16h42.45.477070 +0530,
,Scenes\071a.jpg,55,0,56,,,,,,,j,None,,,2.936190300009912,None,,,,56,0,55,413.0715163999994,,,,,,,,,,,,,,,,,,,,,,,413.0576130999834,413.0715163999994,413.55617999998503,,,,,,,,,,,,,,413.5817579999857,,,,,,,,,,,,,413.5786230999802,413.5817579999857,413.5817579999857,413.5817579999857,416.57222719999845,j,416.57249549997505,,,416.5725568999769,None,,,2.936190300009912,None,,,,,,,,,,,,,00017,001,2025-11-20_16h42.37.692,MST_task,2024.2.0,60.10605111242552,2025-11-20 16h42.45.477070 +0530,
,Objects\166a.jpg,56,0,57,,,,,,,f,None,,,1.9281747000059113,0.21624249999877065,,,,57,0,56,416.58812309999485,,,,,,,,,,,,,,,,,,,,,,,416.57284349997644,416.58812309999485,417.07263489998877,,,,,,,,,,,,,,417.0935628999723,,,,,,,,,,,,,417.0904258999799,417.0935628999723,417.0935628999723,417.0935628999723,420.088729399984,f,420.08898899998167,,,420.0890478999936,None,,,1.9281747000059113,0.21624249999877065,,,,,,,,,,,,,00017,001,2025-11-20_16h42.37.692,MST_task,2024.2.0,60.10605111242552,2025-11-20 16h42.45.477070 +0530,
,Objects\163a.jpg,57,0,58,,,,,,,j,None,,,2.9337211000092793,None,,,,58,0,57,420.1049080999801,,,,,,,,,,,,,,,,,,,,,,,420.08943279998493,420.1049080999801,420.58907239997643,,,,,,,,,,,,,,420.60810059998767,,,,,,,,,,,,,420.6056555999967,420.60810059998767,420.60810059998767,420.60810059998767,423.6054153999721,j,423.6056241999904,,,423.6056775999896,None,,,2.9337211000092793,None,,,,,,,,,,,,,00017,001,2025-11-20_16h42.37.692,MST_task,2024.2.0,60.10605111242552,2025-11-20 16h42.45.477070 +0530,
,Objects\003a.jpg,58,0,59,,,,,,,None,f,0.10763260000385344,None,,,,,,59,0,58,423.6215314999863,,,,,,,,,,,,,,,,,,,,,,,423.6059535999957,423.6215314999863,424.10622249997687,,,,,,,,,,,,,,424.1261184999894,,,,,,,,,,,,,424.12355149997165,424.1261184999894,424.1261184999894,424.1261184999894,427.1221689999802,None,427.122355599975,427.13809919997584,427.13809919997584,427.25641139998334,f,0.10763260000385344,None,,,,,,,,,,,,,,,00017,001,2025-11-20_16h42.37.692,MST_task,2024.2.0,60.10605111242552,2025-11-20 16h42.45.477070 +0530,
,Objects\169a.jpg,59,0,60,,,,,,,f,None,,,2.5176795999868773,0.2398488000035286,,,,60,0,59,427.27149329998065,,,,,,,,,,,,,,,,,,,,,,,427.25663279998116,427.27149329998065,427.756184799975,,,,,,,,,,,,,,427.7922217999876,,,,,,,,,,,,,427.78956529998686,427.7922217999876,427.7922217999876,427.7922217999876,430.77230289997533,f,430.77269869999145,,,430.7727856999845,None,,,2.5176795999868773,0.2398488000035286,,,,,,,,,,,,,00017,001,2025-11-20_16h42.37.692,MST_task,2024.2.0,60.10605111242552,2025-11-20 16h42.45.477070 +0530,
,Objects\023a.jpg,60,0,61,,,,,,,f,None,,,2.868847100005951,None,,,,61,0,60,430.7883388999908,,,,,,,,,,,,,,,,,,,,,,,430.7731024999812,430.7883388999908,431.27172179997433,,,,,,,,,,,,,,431.28838869999163,,,,,,,,,,,,,431.28490539998165,431.28838869999163,431.28838869999163,431.28838869999163,434.27349219997996,f,434.2736578999902,,,434.2736967999954,None,,,2.868847100005951,None,434.2882585999905,434.2882585999905,434.2882585999905,,,,,,,,,,00017,001,2025-11-20_16h42.37.692,MST_task,2024.2.0,60.10605111242552,2025-11-20 16h42.45.477070 +0530,
,Objects\020a.jpg,61,0,62,,,,,,,j,None,,,2.9307620000035968,None,,,,62,0,61,434.2882585999905,,,,,,,,,,,,,,,,,,,,,,,434.27390819997527,434.2882585999905,434.77270019997377,,,,,,,,,,,,,,434.7947706999839,,,,,,,,,,,,,434.791826199973,434.7947706999839,434.7947706999839,434.7947706999839,437.7888613999821,j,437.78905279998435,,,437.7891014999768,None,,,2.9307620000035968,None,,,,,,,,,,,,,00017,001,2025-11-20_16h42.37.692,MST_task,2024.2.0,60.10605111242552,2025-11-20 16h42.45.477070 +0530,
,Objects\062a.jpg,62,0,63,,,,,,,f,None,,,1.2021796999906655,0.22350400002324022,,,,63,0,62,437.80501359998016,,,,,,,,,,,,,,,,,,,,,,,437.7894308999821,437.80501359998016,438.2894225999771,,,,,,,,,,,,,,438.3078853999905,,,,,,,,,,,,,438.30515279999236,438.3078853999905,438.3078853999905,438.3078853999905,441.305559099972,f,441.30575749999844,,,441.3058144999959,None,,,1.2021796999906655,0.22350400002324022,,,,,,,,,,,,,00017,001,2025-11-20_16h42.37.692,MST_task,2024.2.0,60.10605111242552,2025-11-20 16h42.45.477070 +0530,
,Scenes\010a.jpg,63,0,64,,,,,,,None,j,0.5269903000153136,None,,,,,,64,0,63,441.3217255999916,,,,,,,,,,,,,,,,,,,,,,,441.3061182999809,441.3217255999916,441.8064631999878,,,,,,,,,,,,,,441.8362867999822,,,,,,,,,,,,,441.8328107999987,441.8362867999822,441.8362867999822,441.8362867999822,444.822380699974,None,444.82259359999443,444.83828449997236,444.83828449997236,445.3738698999805,j,0.5269903000153136,None,,,,,,,,,,,,,,,00017,001,2025-11-20_16h42.37.692,MST_task,2024.2.0,60.10605111242552,2025-11-20 16h42.45.477070 +0530,
,Scenes\095a.jpg,64,0,65,,,,,,,None,f,0.8688589000084903,None,,,,,,65,0,64,445.38836379998247,,,,,,,,,,,,,,,,,,,,,,,445.3743896999804,445.38836379998247,445.8735855999985,,,,,,,,,,,,,,445.89637399997446,,,,,,,,,,,,,445.89281029999256,445.89637399997446,445.89637399997446,445.89637399997446,448.88889789997484,None,448.8890700999764,448.9049444999837,448.9049444999837,449.790070499992,f,0.8688589000084903,None,,,,,,,,,,,,,,,00017,001,2025-11-20_16h42.37.692,MST_task,2024.2.0,60.10605111242552,2025-11-20 16h42.45.477070 +0530,
,Scenes\146a.jpg,65,0,66,,,,,,,None,j,1.5962322000123095,None,,,,,,66,0,65,449.8050141999847,,,,,,,,,,,,,,,,,,,,,,,449.7904895999818,449.8050141999847,450.2894393999886,,,,,,,,,,,,,,450.3168056999857,,,,,,,,,,,,,450.313299499976,450.3168056999857,450.3168056999857,450.3168056999857,453.30584979997366,None,453.30610489999526,453.3217043999757,453.3217043999757,454.9242480999965,j,1.5962322000123095,None,,,,,,,,,,,,,,,00017,001,2025-11-20_16h42.37.692,MST_task,2024.2.0,60.10605111242552,2025-11-20 16h42.45.477070 +0530,
,Scenes\024a.jpg,66,0,67,,,,,,,None,j,0.3832255000015721,None,,,,,,67,0,66,454.93826539997826,,,,,,,,,,,,,,,,,,,,,,,454.9247351999802,454.93826539997826,455.4229083999817,,,,,,,,,,,,,,455.44604169999366,,,,,,,,,,,,,455.44271109998226,455.44604169999366,455.44604169999366,455.44604169999366,458.438620299974,None,458.43898029997945,458.45493079998414,458.45493079998414,458.84096679999493,j,0.3832255000015721,None,,,,,,,,,,,,,,,00017,001,2025-11-20_16h42.37.692,MST_task,2024.2.0,60.10605111242552,2025-11-20 16h42.45.477070 +0530,
,Scenes\104a.jpg,67,0,68,,,,,,,None,j,3.0582866999902762,None,,,,,,68,0,67,458.85485079998034,,,,,,,,,,,,,,,,,,,,,,,458.84150929999305,458.85485079998034,459.3392592999735,,,,,,,,,,,,,,459.3682842999988,,,,,,,,,,,,,459.3649877999851,459.3682842999988,459.3682842999988,459.3682842999988,462.35569659998873,None,462.3558896999748,462.37175029999344,462.37175029999344,465.4404367999814,j,3.0582866999902762,None,,,,,,,,,,,,,,,00017,001,2025-11-20_16h42.37.692,MST_task,2024.2.0,60.10605111242552,2025-11-20 16h42.45.477070 +0530,
,Scenes\186a.jpg,68,0,69,,,,,,,None,j,0.3777479999989737,None,,,,,,69,0,68,465.45510849999846,,,,,,,,,,,,,,,,,,,,,,,465.44082629997865,465.45510849999846,465.9396749000007,,,,,,,,,,,,,,465.9632907999912,,,,,,,,,,,,,465.95991689999937,465.9632907999912,465.9632907999912,465.9632907999912,468.95561589999124,None,468.95582259999355,468.9718150999979,468.9718150999979,469.35744629998226,j,0.3777479999989737,None,,,,,,,,,,,,,,,00017,001,2025-11-20_16h42.37.692,MST_task,2024.2.0,60.10605111242552,2025-11-20 16h42.45.477070 +0530,
,Scenes\078a.jpg,69,0,70,,,,,,,None,j,0.3493949999974575,None,,,,,,70,0,69,469.37167139997473,,,,,,,,,,,,,,,,,,,,,,,469.3577796999889,469.37167139997473,469.85612529999344,,,,,,,,,,,,,,469.88420249999035,,,,,,,,,,,,,469.88081319999765,469.88420249999035,469.88420249999035,469.88420249999035,472.87232129997574,None,472.87265529998695,472.8884355999762,472.8884355999762,473.240461999987,j,0.3493949999974575,None,,,,,,,,,,,,,,,00017,001,2025-11-20_16h42.37.692,MST_task,2024.2.0,60.10605111242552,2025-11-20 16h42.45.477070 +0530,
,Objects\165a.jpg,70,0,71,,,,,,,None,f,0.29005109998979606,None,,,,,,71,0,70,473.2547340999881,,,,,,,,,,,,,,,,,,,,,,,473.24095939999097,473.2547340999881,473.73943739998504,,,,,,,,,,,,,,473.7619474999956,,,,,,,,,,,,,473.7587761999748,473.7619474999956,473.7619474999956,473.7619474999956,476.75559399998747,None,476.75579139997717,476.7715811999806,476.7715811999806,477.0737979999976,f,0.29005109998979606,None,,,,,,,,,,,,,,,00017,001,2025-11-20_16h42.37.692,MST_task,2024.2.0,60.10605111242552,2025-11-20 16h42.45.477070 +0530,
,Objects\174a.jpg,71,0,72,,,,,,,None,j,1.0730161000101361,None,,,,,,72,0,71,477.0880858999735,,,,,,,,,,,,,,,,,,,,,,,477.0742880999751,477.0880858999735,477.57288229998085,,,,,,,,,,,,,,477.5900162999751,,,,,,,,,,,,,477.587514999992,477.5900162999751,477.5900162999751,477.5900162999751,480.58900019997964,None,480.589192799991,480.60517129997606,480.60517129997606,481.6898434999748,j,1.0730161000101361,None,,,,,,,,,,,,,,,00017,001,2025-11-20_16h42.37.692,MST_task,2024.2.0,60.10605111242552,2025-11-20 16h42.45.477070 +0530,
,Objects\114a.jpg,72,0,73,,,,,,,f,None,,,2.3568938999960665,0.22364529999322258,,,,73,0,72,481.7048794000002,,,,,,,,,,,,,,,,,,,,,,,481.6902605999785,481.7048794000002,482.1896305999835,,,,,,,,,,,,,,482.2092684999807,,,,,,,,,,,,,482.2065370999917,482.2092684999807,482.2092684999807,482.2092684999807,485.20571209999616,f,485.2059409999929,,,485.2059999999765,None,,,2.3568938999960665,0.22364529999322258,,,,,,,,,,,,,00017,001,2025-11-20_16h42.37.692,MST_task,2024.2.0,60.10605111242552,2025-11-20 16h42.45.477070 +0530,
,Objects\191a.jpg,73,0,74,,,,,,,None,j,0.14038779999827966,None,,,,,,74,0,73,485.22164659999544,,,,,,,,,,,,,,,,,,,,,,,485.2062767999887,485.22164659999544,485.7060192999779,,,,,,,,,,,,,,485.7289289999753,,,,,,,,,,,,,485.72620449998067,485.7289289999753,485.7289289999753,485.7289289999753,488.7222443999781,None,488.7224423000007,488.7380677999754,488.7380677999754,488.88977209999575,j,0.14038779999827966,None,,,,,,,,,,,,,,,00017,001,2025-11-20_16h42.37.692,MST_task,2024.2.0,60.10605111242552,2025-11-20 16h42.45.477070 +0530,
,Objects\060a.jpg,74,0,75,,,,,,,f,None,,,1.1085877000004984,0.2880851999798324,,,,75,0,74,488.9049319999758,,,,,,,,,,,,,,,,,,,,,,,488.8901266999892,488.9049319999758,489.38903649998247,,,,,,,,,,,,,,489.4090314999921,,,,,,,,,,,,,489.40654349999386,489.4090314999921,489.4090314999921,489.4090314999921,492.40545529997326,f,492.4056587999803,,,492.4057219999959,None,,,1.1085877000004984,0.2880851999798324,,,,,,,,,,,,,00017,001,2025-11-20_16h42.37.692,MST_task,2024.2.0,60.10605111242552,2025-11-20 16h42.45.477070 +0530,
,Objects\168a.jpg,75,0,76,,,,,,,None,f,3.1075337000074796,None,,,,,,76,0,75,492.4217024999962,,,,,,,,,,,,,,,,,,,,,,,492.4060237999947,492.4217024999962,492.9063624999835,,,,,,,,,,,,,,492.92882859997917,,,,,,,,,,,,,492.92627709999215,492.92882859997917,492.92882859997917,492.92882859997917,495.92231859997264,None,495.9225172000006,495.9382846999797,495.9382846999797,499.0574345999921,f,3.1075337000074796,None,,,,,,,,,,,,,,,00017,001,2025-11-20_16h42.37.692,MST_task,2024.2.0,60.10605111242552,2025-11-20 16h42.45.477070 +0530,
,Objects\182a.jpg,76,0,77,,,,,,,None,f,0.37768059998052195,None,,,,,,77,0,76,499.0718174999929,,,,,,,,,,,,,,,,,,,,,,,499.0579347999883,499.0718174999929,499.55625109997345,,,,,,,,,,,,,,499.5776351999957,,,,,,,,,,,,,499.5751258999808,499.5776351999957,499.5776351999957,499.5776351999957,502.57227559998864,None,502.5725043999846,502.58807519997936,502.58807519997936,502.97314869999536,f,0.37768059998052195,None,,,,,,,,,,,,,,,00017,001,2025-11-20_16h42.37.692,MST_task,2024.2.0,60.10605111242552,2025-11-20 16h42.45.477070 +0530,
,Scenes\113a.jpg,77,0,78,,,,,,,None,j,0.38071969998418353,None,,,,,,78,0,77,502.98813990000053,,,,,,,,,,,,,,,,,,,,,,,502.97348819999024,502.98813990000053,503.4726039999805,,,,,,,,,,,,,,503.49422279998544,,,,,,,,,,,,,503.4913139999844,503.49422279998544,503.49422279998544,503.49422279998544,506.4886400999967,None,506.4888398999756,506.50489549999475,506.50489549999475,506.8903416999965,j,0.38071969998418353,None,,,,,,,,,,,,,,,00017,001,2025-11-20_16h42.37.692,MST_task,2024.2.0,60.10605111242552,2025-11-20 16h42.45.477070 +0530,
,Scenes\153a.jpg,78,0,79,,,,,,,j,None,,,1.5294802999997046,0.2800619000045117,,,,79,0,78,506.9049778999761,,,,,,,,,,,,,,,,,,,,,,,506.8908063999843,506.9049778999761,507.38924399999087,,,,,,,,,,,,,,507.4119222999725,,,,,,,,,,,,,507.40885989999515,507.4119222999725,507.4119222999725,507.4119222999725,510.40626379998866,j,510.40646769999876,,,510.40652439999394,None,,,1.5294802999997046,0.2800619000045117,,,,,,,,,,,,,00017,001,2025-11-20_16h42.37.692,MST_task,2024.2.0,60.10605111242552,2025-11-20 16h42.45.477070 +0530,
,Scenes\079a.jpg,79,0,80,,,,,,,None,j,0.3239787000056822,None,,,,,,80,0,79,510.4217597999959,,,,,,,,,,,,,,,,,,,,,,,510.4069586999831,510.4217597999959,510.90639939997345,,,,,,,,,,,,,,510.92967879999196,,,,,,,,,,,,,510.9261097999988,510.92967879999196,510.92967879999196,510.92967879999196,513.9224509999913,None,513.9226526999846,513.938118799997,513.938118799997,514.2730840999866,j,0.3239787000056822,None,,,,,,,,,,,,,,,00017,001,2025-11-20_16h42.37.692,MST_task,2024.2.0,60.10605111242552,2025-11-20 16h42.45.477070 +0530,
,Scenes\098a.jpg,80,0,81,,,,,,,None,f,0.32116989998030476,None,,,,,,81,0,80,514.2881006999814,,,,,,,,,,,,,,,,,,,,,,,514.273435799987,514.2881006999814,514.7729735999892,,,,,,,,,,,,,,514.7960836999991,,,,,,,,,,,,,514.7928854999773,514.7960836999991,514.7960836999991,514.7960836999991,517.7888988999766,None,517.7891235999996,517.8050248999789,517.8050248999789,518.1403890999791,f,0.32116989998030476,None,,,,,,,,,,,,,,,00017,001,2025-11-20_16h42.37.692,MST_task,2024.2.0,60.10605111242552,2025-11-20 16h42.45.477070 +0530,
,Scenes\038a.jpg,81,0,82,,,,,,,None,j,0.26209959998959675,None,,,,,,82,0,81,518.1549523999856,,,,,,,,,,,,,,,,,,,,,,,518.1407038999896,518.1549523999856,518.6394409999775,,,,,,,,,,,,,,518.6668587999884,,,,,,,,,,,,,518.6634656999959,518.6668587999884,518.6668587999884,518.6668587999884,521.6556969999801,None,521.6558841999795,521.6716372999945,521.6716372999945,521.9400678999955,j,0.26209959998959675,None,,,,,,,,,,,,,,,00017,001,2025-11-20_16h42.37.692,MST_task,2024.2.0,60.10605111242552,2025-11-20 16h42.45.477070 +0530,
,Scenes\149a.jpg,82,0,83,,,,,,,None,f,0.2785808999906294,None,,,,,,83,0,82,521.9549065999745,,,,,,,,,,,,,,,,,,,,,,,521.9405001999985,521.9549065999745,522.4392923999985,,,,,,,,,,,,,,522.4651971999847,,,,,,,,,,,,,522.4619129999774,522.4651971999847,522.4651971999847,522.4651971999847,525.4556241999962,None,525.4558215999859,525.471695699991,525.471695699991,525.756913499994,f,0.2785808999906294,None,,,,,,,,,,,,,,,00017,001,2025-11-20_16h42.37.692,MST_task,2024.2.0,60.10605111242552,2025-11-20 16h42.45.477070 +0530,
,Scenes\131a.jpg,83,0,84,,,,,,,j,None,,,2.9552379000233486,None,,,,84,0,83,525.7715507999819,,,,,,,,,,,,,,,,,,,,,,,525.7572598999832,525.7715507999819,526.255920799973,,,,,,,,,,,,,,526.298647299991,,,,,,,,,,,,,526.295212499972,526.298647299991,526.298647299991,526.298647299991,529.2722071999742,j,529.2724312999926,,,529.2724922999914,None,,,2.9552379000233486,None,,,,,,,,,,,,,00017,001,2025-11-20_16h42.37.692,MST_task,2024.2.0,60.10605111242552,2025-11-20 16h42.45.477070 +0530,
,Objects\052a.jpg,84,0,85,,,,,,,f,None,,,1.6736396999913268,0.23093409999273717,,,,85,0,84,529.2881189999753,,,,,,,,,,,,,,,,,,,,,,,529.2727942999918,529.2881189999753,529.7718855999992,,,,,,,,,,,,,,529.7888841999811,,,,,,,,,,,,,529.7828969999973,529.7888841999811,529.7888841999811,529.7888841999811,532.773380699975,f,532.7735782999953,,,532.7736175999744,None,,,1.6736396999913268,0.23093409999273717,532.7881403999927,532.7881403999927,532.7881403999927,,,,,,,,,,00017,001,2025-11-20_16h42.37.692,MST_task,2024.2.0,60.10605111242552,2025-11-20 16h42.45.477070 +0530,
,Objects\035a.jpg,85,0,86,,,,,,,None,j,0.852140100003453,None,,,,,,86,0,85,532.7881403999927,,,,,,,,,,,,,,,,,,,,,,,532.7738695999724,532.7881403999927,533.2730369999772,,,,,,,,,,,,,,533.2948715999955,,,,,,,,,,,,,533.292028099997,533.2948715999955,533.2948715999955,533.2948715999955,536.2888358999917,None,536.2890348999936,536.3051953999966,536.3051953999966,537.173086499999,j,0.852140100003453,None,,,,,,,,,,,,,,,00017,001,2025-11-20_16h42.37.692,MST_task,2024.2.0,60.10605111242552,2025-11-20 16h42.45.477070 +0530,
,Objects\164a.jpg,86,0,87,,,,,,,None,f,4.213333699997747,None,,,,,,87,0,86,537.1881873999955,,,,,,,,,,,,,,,,,,,,,,,537.1733072999923,537.1881873999955,537.6716903999913,,,,,,,,,,,,,,537.6883441999962,,,,,,,,,,,,,537.6845013999846,537.6883441999962,537.6883441999962,537.6883441999962,540.6732383999915,None,540.6733820999798,540.6882077999762,540.6882077999762,544.9065074999817,f,4.213333699997747,None,,,540.6882077999762,540.6882077999762,540.6882077999762,,,,,,,,,,00017,001,2025-11-20_16h42.37.692,MST_task,2024.2.0,60.10605111242552,2025-11-20 16h42.45.477070 +0530,
,Objects\160a.jpg,87,0,88,,,,,,,None,j,0.8552954999904614,None,,,,,,88,0,87,544.9215463999717,,,,,,,,,,,,,,,,,,,,,,,544.9069345999742,544.9215463999717,545.406276099995,,,,,,,,,,,,,,545.4251531999907,,,,,,,,,,,,,545.4226121999964,545.4251531999907,545.4251531999907,545.4251531999907,548.4222917000006,None,548.4225019999722,548.4384135,548.4384135,549.3069542999729,j,0.8552954999904614,None,,,,,,,,,,,,,,,00017,001,2025-11-20_16h42.37.692,MST_task,2024.2.0,60.10605111242552,2025-11-20 16h42.45.477070 +0530,
,Objects\179a.jpg,88,0,89,,,,,,,None,f,0.3109674000006635,None,,,,,,89,0,88,549.3217059999879,,,,,,,,,,,,,,,,,,,,,,,549.3072803999821,549.3217059999879,549.8065856999892,,,,,,,,,,,,,,549.826234099979,,,,,,,,,,,,,549.8236450999975,549.826234099979,549.826234099979,549.826234099979,552.8222236999718,None,552.8224412999989,552.8383765999752,552.8383765999752,553.1571400999965,f,0.3109674000006635,None,,,,,,,,,,,,,,,00017,001,2025-11-20_16h42.37.692,MST_task,2024.2.0,60.10605111242552,2025-11-20 16h42.45.477070 +0530,
,Objects\192a.jpg,89,0,90,,,,,,,None,j,1.3340039999748114,None,,,,,,90,0,89,553.1717540999816,,,,,,,,,,,,,,,,,,,,,,,553.1575619999785,553.1717540999816,553.656238399999,,,,,,,,,,,,,,553.6933792999771,,,,,,,,,,,,,553.6905384999991,553.6933792999771,553.6933792999771,553.6933792999771,556.6722936999868,None,556.6724818999937,556.6883201999881,556.6883201999881,558.0244005999994,j,1.3340039999748114,None,,,,,,,,,,,,,,,00017,001,2025-11-20_16h42.37.692,MST_task,2024.2.0,60.10605111242552,2025-11-20 16h42.45.477070 +0530,
,Objects\132a.jpg,90,0,91,,,,,,,None,j,2.858884699991904,None,,,,,,91,0,90,558.0383067999792,,,,,,,,,,,,,,,,,,,,,,,558.0247723999782,558.0383067999792,558.5227296999947,,,,,,,,,,,,,,558.5437638000003,,,,,,,,,,,,,558.5409216999833,558.5437638000003,558.5437638000003,558.5437638000003,561.5389795999799,None,561.5391887999722,561.5550959999964,561.5550959999964,564.4237576999876,j,2.858884699991904,None,,,,,,,,,,,,,,,00017,001,2025-11-20_16h42.37.692,MST_task,2024.2.0,60.10605111242552,2025-11-20 16h42.45.477070 +0530,
,Scenes\020a.jpg,91,0,92,,,,,,,None,f,0.3781378000276163,None,,,,,,92,0,91,564.438384899986,,,,,,,,,,,,,,,,,,,,,,,564.424234999984,564.438384899986,564.9228654999752,,,,,,,,,,,,,,564.9521114999952,,,,,,,,,,,,,564.948806499975,564.9521114999952,564.9521114999952,564.9521114999952,567.9389566999744,None,567.939141299983,567.9551628999761,567.9551628999761,568.3391632999992,f,0.3781378000276163,None,,,,,,,,,,,,,,,00017,001,2025-11-20_16h42.37.692,MST_task,2024.2.0,60.10605111242552,2025-11-20 16h42.45.477070 +0530,
,Scenes\055a.jpg,92,0,93,,,,,,,None,j,0.46229910000693053,None,,,,,,93,0,92,568.3547363999824,,,,,,,,,,,,,,,,,,,,,,,568.3394023999863,568.3547363999824,568.8395038999734,,,,,,,,,,,,,,568.8846316999989,,,,,,,,,,,,,568.8810247999791,568.8846316999989,568.8846316999989,568.8846316999989,571.8560945999925,None,571.8562795999751,571.8717127999989,571.8717127999989,572.3405882999941,j,0.46229910000693053,None,,,,,,,,,,,,,,,00017,001,2025-11-20_16h42.37.692,MST_task,2024.2.0,60.10605111242552,2025-11-20 16h42.45.477070 +0530,
,Scenes\127a.jpg,93,0,94,,,,,,,None,f,1.9658688000054099,None,,,,,,94,0,93,572.3550069999765,,,,,,,,,,,,,,,,,,,,,,,572.3409233999846,572.3550069999765,572.8394473999797,,,,,,,,,,,,,,572.8667977000005,,,,,,,,,,,,,572.8634551999858,572.8667977000005,572.8667977000005,572.8667977000005,575.8557621999935,None,575.856006499991,575.8718507999729,575.8718507999729,577.8407597999903,f,1.9658688000054099,None,,,,,,,,,,,,,,,00017,001,2025-11-20_16h42.37.692,MST_task,2024.2.0,60.10605111242552,2025-11-20 16h42.45.477070 +0530,
,Scenes\091a.jpg,94,0,95,,,,,,,None,j,0.37031670002033934,None,,,,,,95,0,94,577.8552056999761,,,,,,,,,,,,,,,,,,,,,,,577.8413042999746,577.8552056999761,578.3393335999863,,,,,,,,,,,,,,578.3626255999843,,,,,,,,,,,,,578.3595053999743,578.3626255999843,578.3626255999843,578.3626255999843,581.3556302999787,None,581.3558284999745,581.3717353999964,581.3717353999964,581.756695899996,j,0.37031670002033934,None,,,,,,,,,,,,,,,00017,001,2025-11-20_16h42.37.692,MST_task,2024.2.0,60.10605111242552,2025-11-20 16h42.45.477070 +0530,
,Scenes\179a.jpg,95,0,96,,,,,,,None,j,0.3181129000149667,None,,,,,,96,0,95,581.7717631999985,,,,,,,,,,,,,,,,,,,,,,,581.7571217999794,581.7717631999985,582.2558525999775,,,,,,,,,,,,,,582.2774011000001,,,,,,,,,,,,,582.2742697999929,582.2774011000001,582.2774011000001,582.2774011000001,585.2723429999896,None,585.2725257999846,585.2882419999805,585.2882419999805,585.6234616999864,j,0.3181129000149667,None,,,,,,,,,,,,,,,00017,001,2025-11-20_16h42.37.692,MST_task,2024.2.0,60.10605111242552,2025-11-20 16h42.45.477070 +0530,
,Scenes\068a.jpg,96,0,97,,,,,,,None,j,0.34673690001363866,None,,,,,,97,0,96,585.6381327999989,,,,,,,,,,,,,,,,,,,,,,,585.6237984999898,585.6381327999989,586.1226476999873,,,,,,,,,,,,,,586.1510537999857,,,,,,,,,,,,,586.1477443999902,586.1510537999857,586.1510537999857,586.1510537999857,589.1387186999782,None,589.1389706999762,589.1549685999926,589.1549685999926,589.507142699993,j,0.34673690001363866,None,,,,,,,,,,,,,,,00017,001,2025-11-20_16h42.37.692,MST_task,2024.2.0,60.10605111242552,2025-11-20 16h42.45.477070 +0530,
,Scenes\176a.jpg,97,0,98,,,,,,,None,j,0.3112058000115212,None,,,,,,98,0,97,589.5215880999749,,,,,,,,,,,,,,,,,,,,,,,589.5075835999742,589.5215880999749,590.0053594999772,,,,,,,,,,,,,,590.031777599972,,,,,,,,,,,,,590.0283376999723,590.031777599972,590.031777599972,590.031777599972,593.022301399993,None,593.0224669999734,593.0381271999795,593.0381271999795,593.356475299981,j,0.3112058000115212,None,,,,,,,,,,,,,,,00017,001,2025-11-20_16h42.37.692,MST_task,2024.2.0,60.10605111242552,2025-11-20 16h42.45.477070 +0530,
,Objects\144a.jpg,98,0,99,,,,,,,None,f,0.25348650000523776,None,,,,,,99,0,98,593.3715397999913,,,,,,,,,,,,,,,,,,,,,,,593.3567814999842,593.3715397999913,593.8560671999876,,,,,,,,,,,,,,593.8997805999825,,,,,,,,,,,,,593.8964004999725,593.8997805999825,593.8997805999825,593.8997805999825,596.8722139999736,None,596.8724024999829,596.8881357999926,596.8881357999926,597.1567789999826,f,0.25348650000523776,None,,,,,,,,,,,,,,,00017,001,2025-11-20_16h42.37.692,MST_task,2024.2.0,60.10605111242552,2025-11-20 16h42.45.477070 +0530,
,Objects\156a.jpg,99,0,100,,,,,,,None,j,0.6140021000173874,None,,,,,,100,0,99,597.1716674999916,,,,,,,,,,,,,,,,,,,,,,,597.1571743999957,597.1716674999916,597.6562543999753,,,,,,,,,,,,,,597.6755127999932,,,,,,,,,,,,,597.6728439999861,597.6755127999932,597.6755127999932,597.6755127999932,600.672116199974,None,600.672490899975,600.6882398999878,600.6882398999878,601.3068346999935,j,0.6140021000173874,None,,,,,,,,,,,,,,,00017,001,2025-11-20_16h42.37.692,MST_task,2024.2.0,60.10605111242552,2025-11-20 16h42.45.477070 +0530,
,Objects\180a.jpg,100,0,101,,,,,,,None,f,0.3110207999998238,None,,,,,,101,0,100,601.3215853000002,,,,,,,,,,,,,,,,,,,,,,,601.3071662999864,601.3215853000002,601.8061059999745,,,,,,,,,,,,,,601.8240463999973,,,,,,,,,,,,,601.821618499991,601.8240463999973,601.8240463999973,601.8240463999973,604.8221243999724,None,604.8222976999823,604.8381809999992,604.8381809999992,605.1562430999766,f,0.3110207999998238,None,,,,,,,,,,,,,,,00017,001,2025-11-20_16h42.37.692,MST_task,2024.2.0,60.10605111242552,2025-11-20 16h42.45.477070 +0530,
,Objects\082a.jpg,101,0,102,,,,,,,None,f,0.4383021999965422,None,,,,,,102,0,101,605.1715299999923,,,,,,,,,,,,,,,,,,,,,,,605.1564976999944,605.1715299999923,605.6559864999726,,,,,,,,,,,,,,605.6725329999754,,,,,,,,,,,,,605.6700377999805,605.6725329999754,605.6725329999754,605.6725329999754,608.65732139998,None,608.6575832999952,608.6716316999809,608.6716316999809,609.1237889999757,f,0.4383021999965422,None,,,608.6716316999809,608.6716316999809,608.6716316999809,,,,,,,,,,00017,001,2025-11-20_16h42.37.692,MST_task,2024.2.0,60.10605111242552,2025-11-20 16h42.45.477070 +0530,
,Objects\125a.jpg,102,0,103,,,,,,,None,f,0.38250669999979436,None,,,,,,103,0,102,609.1382285,,,,,,,,,,,,,,,,,,,,,,,609.1242149999889,609.1382285,609.6228692999866,,,,,,,,,,,,,,609.6431728999887,,,,,,,,,,,,,609.6404474999872,609.6431728999887,609.6431728999887,609.6431728999887,612.638827399991,None,612.639021799987,612.654956399987,612.654956399987,613.0404882999719,f,0.38250669999979436,None,,,,,,,,,,,,,,,00017,001,2025-11-20_16h42.37.692,MST_task,2024.2.0,60.10605111242552,2025-11-20 16h42.45.477070 +0530,
,Objects\014a.jpg,103,0,104,,,,,,,None,f,1.3541447000170592,None,,,,,,104,0,103,613.0550526999868,,,,,,,,,,,,,,,,,,,,,,,613.0409689999942,613.0550526999868,613.5393475999881,,,,,,,,,,,,,,613.5601476999873,,,,,,,,,,,,,613.5575011999754,613.5601476999873,613.5601476999873,613.5601476999873,616.5556941999821,None,616.5558896999864,616.5716449999891,616.5716449999891,617.9399783999834,f,1.3541447000170592,None,,,,,,,,,,,,,,,00017,001,2025-11-20_16h42.37.692,MST_task,2024.2.0,60.10605111242552,2025-11-20 16h42.45.477070 +0530,
,Objects\157a.jpg,104,0,105,,,,,,,None,f,0.3419182999932673,None,,,,,,105,0,104,617.954972699983,,,,,,,,,,,,,,,,,,,,,,,617.9404727999936,617.954972699983,618.4399086999765,,,,,,,,,,,,,,618.4591032999742,,,,,,,,,,,,,618.4563600999827,618.4591032999742,618.4591032999742,618.4591032999742,621.4555219999747,None,621.4557258999848,621.4716103999817,621.4716103999817,621.8234408999851,f,0.3419182999932673,None,,,,,,,,,,,,,,,00017,001,2025-11-20_16h42.37.692,MST_task,2024.2.0,60.10605111242552,2025-11-20 16h42.45.477070 +0530,
,Scenes\125a.jpg,105,0,106,,,,,,,None,j,0.32280829999945126,None,,,,,,106,0,105,621.8381164999737,,,,,,,,,,,,,,,,,,,,,,,621.8239362999739,621.8381164999737,622.3229734999768,,,,,,,,,,,,,,622.3556404999981,,,,,,,,,,,,,622.3524091999861,622.3556404999981,622.3556404999981,622.3556404999981,625.3387356999738,None,625.3389200999809,625.3549129999883,625.3549129999883,625.6897672999767,j,0.32280829999945126,None,,,,,,,,,,,,,,,00017,001,2025-11-20_16h42.37.692,MST_task,2024.2.0,60.10605111242552,2025-11-20 16h42.45.477070 +0530,
,Scenes\007a.jpg,106,0,107,,,,,,,None,f,0.3356428999977652,None,,,,,,107,0,106,625.7050518999749,,,,,,,,,,,,,,,,,,,,,,,625.6900873999984,625.7050518999749,626.1892302999913,,,,,,,,,,,,,,626.2118006999954,,,,,,,,,,,,,626.2086340999813,626.2118006999954,626.2118006999954,626.2118006999954,629.2055739999923,None,629.2057458999916,629.2218222999945,629.2218222999945,629.5733189999883,f,0.3356428999977652,None,,,,,,,,,,,,,,,00017,001,2025-11-20_16h42.37.692,MST_task,2024.2.0,60.10605111242552,2025-11-20 16h42.45.477070 +0530,
,Scenes\017a.jpg,107,0,108,,,,,,,None,f,2.733221100002993,None,,,,,,108,0,107,629.5882413999934,,,,,,,,,,,,,,,,,,,,,,,629.5736269999761,629.5882413999934,630.0727559999796,,,,,,,,,,,,,,630.1009315999981,,,,,,,,,,,,,630.0977072999813,630.1009315999981,630.1009315999981,630.1009315999981,633.0890006999834,None,633.089206899982,633.1049584999855,633.1049584999855,635.8411240999994,f,2.733221100002993,None,,,,,,,,,,,,,,,00017,001,2025-11-20_16h42.37.692,MST_task,2024.2.0,60.10605111242552,2025-11-20 16h42.45.477070 +0530,
,Scenes\044a.jpg,108,0,109,,,,,,,None,j,2.489954899996519,None,,,,,,109,0,108,635.8549134999921,,,,,,,,,,,,,,,,,,,,,,,635.8416403999727,635.8549134999921,636.3390440999938,,,,,,,,,,,,,,636.3829767999996,,,,,,,,,,,,,636.3796310999896,636.3829767999996,636.3829767999996,636.3829767999996,639.3559151999943,None,639.3561137999932,639.3717813999974,639.3717813999974,641.8735535999876,j,2.489954899996519,None,,,,,,,,,,,,,,,00017,001,2025-11-20_16h42.37.692,MST_task,2024.2.0,60.10605111242552,2025-11-20 16h42.45.477070 +0530,
,Scenes\076a.jpg,109,0,110,,,,,,,None,j,0.4254460000083782,None,,,,,,110,0,109,641.8882025999774,,,,,,,,,,,,,,,,,,,,,,,641.8739600999979,641.8882025999774,642.3727091999899,,,,,,,,,,,,,,642.4027619999833,,,,,,,,,,,,,642.3994572999945,642.4027619999833,642.4027619999833,642.4027619999833,645.3887558999995,None,645.3889978999796,645.4049483999843,645.4049483999843,645.8400086999754,j,0.4254460000083782,None,,,,,,,,,,,,,,,00017,001,2025-11-20_16h42.37.692,MST_task,2024.2.0,60.10605111242552,2025-11-20 16h42.45.477070 +0530,
,Scenes\035a.jpg,110,0,111,,,,,,,None,f,0.7937517999962438,None,,,,,,111,0,110,645.8549411999993,,,,,,,,,,,,,,,,,,,,,,,645.8404928999953,645.8549411999993,646.3394491999934,,,,,,,,,,,,,,646.3669863999821,,,,,,,,,,,,,646.3636778999935,646.3669863999821,646.3669863999821,646.3669863999821,649.3557038999861,None,649.3559141999867,649.3716341999825,649.3716341999825,650.1730096999963,f,0.7937517999962438,None,,,,,,,,,,,,,,,00017,001,2025-11-20_16h42.37.692,MST_task,2024.2.0,60.10605111242552,2025-11-20 16h42.45.477070 +0530,
,Scenes\022a.jpg,111,0,112,,,,,,,None,j,1.0050280000141356,None,,,,,,112,0,111,650.1880406999844,,,,,,,,,,,,,,,,,,,,,,,650.1731003999885,650.1880406999844,650.6729635999945,,,,,,,,,,,,,,650.7135274999891,,,,,,,,,,,,,650.7100992999913,650.7135274999891,650.7135274999891,650.7135274999891,653.688800199976,None,653.6890863999724,653.7051679999859,653.7051679999859,654.7235688999936,j,1.0050280000141356,None,,,,,,,,,,,,,,,00017,001,2025-11-20_16h42.37.692,MST_task,2024.2.0,60.10605111242552,2025-11-20 16h42.45.477070 +0530,
,Objects\175a.jpg,112,0,113,,,,,,,None,f,0.2947893000091426,None,,,,,,113,0,112,654.7381590000005,,,,,,,,,,,,,,,,,,,,,,,654.7240025999781,654.7381590000005,655.2229896999779,,,,,,,,,,,,,,655.2440464999818,,,,,,,,,,,,,655.2409235999803,655.2440464999818,655.2440464999818,655.2440464999818,658.2388986999867,None,658.2390903999913,658.2550060999929,658.2550060999929,658.5572960999853,f,0.2947893000091426,None,,,,,,,,,,,,,,,00017,001,2025-11-20_16h42.37.692,MST_task,2024.2.0,60.10605111242552,2025-11-20 16h42.45.477070 +0530,
,Objects\145a.jpg,113,0,114,,,,,,,None,f,0.3014446999877691,None,,,,,,114,0,113,658.5719016999938,,,,,,,,,,,,,,,,,,,,,,,658.5576715999923,658.5719016999938,659.0558329999913,,,,,,,,,,,,,,659.0794552999723,,,,,,,,,,,,,659.0765821999812,659.0794552999723,659.0794552999723,659.0794552999723,662.0724373999983,None,662.0726269999868,662.0883591999882,662.0883591999882,662.406639599998,f,0.3014446999877691,None,,,,,,,,,,,,,,,00017,001,2025-11-20_16h42.37.692,MST_task,2024.2.0,60.10605111242552,2025-11-20 16h42.45.477070 +0530,
,Objects\027a.jpg,114,0,115,,,,,,,None,f,0.3083590999885928,None,,,,,,115,0,114,662.4217349999817,,,,,,,,,,,,,,,,,,,,,,,662.4070803999784,662.4217349999817,662.9048583999975,,,,,,,,,,,,,,662.9217454999743,,,,,,,,,,,,,662.9150444999977,662.9217454999743,662.9217454999743,662.9217454999743,665.9072057999729,None,665.9074351999734,665.9218131999951,665.9218131999951,666.2406676999817,f,0.3083590999885928,None,,,665.9218131999951,665.9218131999951,665.9218131999951,,,,,,,,,,00017,001,2025-11-20_16h42.37.692,MST_task,2024.2.0,60.10605111242552,2025-11-20 16h42.45.477070 +0530,
,Objects\112a.jpg,115,0,116,,,,,,,None,f,2.921512000000803,None,,,,,,116,0,115,666.2549596999888,,,,,,,,,,,,,,,,,,,,,,,666.2410405999981,666.2549596999888,666.739555099979,,,,,,,,,,,,,,666.757609799999,,,,,,,,,,,,,666.7550842999772,666.757609799999,666.757609799999,666.757609799999,669.7557995999814,None,669.7560137999826,669.771722799982,669.771722799982,672.7053865999915,f,2.921512000000803,None,,,,,,,,,,,,,,,00017,001,2025-11-20_16h42.37.692,MST_task,2024.2.0,60.10605111242552,2025-11-20 16h42.45.477070 +0530,
,Objects\017a.jpg,116,0,117,,,,,,,None,f,0.791631200001575,None,,,,,,117,0,116,672.7216270999925,,,,,,,,,,,,,,,,,,,,,,,672.7055267999822,672.7216270999925,673.2064086999744,,,,,,,,,,,,,,673.2240588999994,,,,,,,,,,,,,673.2215838999837,673.2240588999994,673.2240588999994,673.2240588999994,676.2057751999819,None,676.2059810999781,676.2216391999973,676.2216391999973,677.0238525999885,f,0.791631200001575,None,,,,,,,,,,,,,,,00017,001,2025-11-20_16h42.37.692,MST_task,2024.2.0,60.10605111242552,2025-11-20 16h42.45.477070 +0530,
,Objects\146a.jpg,117,0,118,,,,,,,None,j,0.5630936000088695,None,,,,,,118,0,117,677.0381914999743,,,,,,,,,,,,,,,,,,,,,,,677.0241723999789,677.0381914999743,677.5229385999846,,,,,,,,,,,,,,677.5403541999985,,,,,,,,,,,,,677.5379171999812,677.5403541999985,677.5403541999985,677.5403541999985,680.5389058999717,None,680.5394013999903,680.5550541999983,680.5550541999983,681.1234574999835,j,0.5630936000088695,None,,,,,,,,,,,,,,,00017,001,2025-11-20_16h42.37.692,MST_task,2024.2.0,60.10605111242552,2025-11-20 16h42.45.477070 +0530,
,Objects\076a.jpg,118,0,119,,,,,,,None,j,0.3344593000074383,None,,,,,,119,0,118,681.1381900999986,,,,,,,,,,,,,,,,,,,,,,,681.1238152000005,681.1381900999986,681.6230102999834,,,,,,,,,,,,,,681.6595364999957,,,,,,,,,,,,,681.6567738999729,681.6595364999957,681.6595364999957,681.6595364999957,684.6388934999995,None,684.6391026999918,684.6549672999827,684.6549672999827,685.0065937999752,j,0.3344593000074383,None,,,,,,,,,,,,,,,00017,001,2025-11-20_16h42.37.692,MST_task,2024.2.0,60.10605111242552,2025-11-20 16h42.45.477070 +0530,
,Scenes\003a.jpg,119,0,120,,,,,,,None,f,0.3316480000212323,None,,,,,,120,0,119,685.0215609999723,,,,,,,,,,,,,,,,,,,,,,,685.0070241999929,685.0215609999723,685.5058976,,,,,,,,,,,,,,685.5326205999881,,,,,,,,,,,,,685.5293373999884,685.5326205999881,685.5326205999881,685.5326205999881,688.5222740999889,None,688.5225020999787,688.5382851999893,688.5382851999893,688.873892499978,f,0.3316480000212323,None,,,,,,,,,,,,,,,00017,001,2025-11-20_16h42.37.692,MST_task,2024.2.0,60.10605111242552,2025-11-20 16h42.45.477070 +0530,
,Scenes\072a.jpg,120,0,121,,,,,,,None,j,1.6012510000145994,None,,,,,,121,0,120,688.8883864999807,,,,,,,,,,,,,,,,,,,,,,,688.8743732000003,688.8883864999807,689.3729074999865,,,,,,,,,,,,,,689.4027854999877,,,,,,,,,,,,,689.3994684999925,689.4027854999877,689.4027854999877,689.4027854999877,692.3887233999849,None,692.3889119999949,692.4050032999949,692.4050032999949,694.0233186999976,j,1.6012510000145994,None,,,,,,,,,,,,,,,00017,001,2025-11-20_16h42.37.692,MST_task,2024.2.0,60.10605111242552,2025-11-20 16h42.45.477070 +0530,
,Scenes\156a.jpg,121,0,122,,,,,,,None,j,1.962429900013376,None,,,,,,122,0,121,694.0384129999729,,,,,,,,,,,,,,,,,,,,,,,694.0237481999793,694.0384129999729,694.5227632999886,,,,,,,,,,,,,,694.545758399996,,,,,,,,,,,,,694.5425178000005,694.545758399996,694.545758399996,694.545758399996,697.5387003999786,None,697.5388830999727,697.5552792999952,697.5552792999952,699.5234971999889,j,1.962429900013376,None,,,,,,,,,,,,,,,00017,001,2025-11-20_16h42.37.692,MST_task,2024.2.0,60.10605111242552,2025-11-20 16h42.45.477070 +0530,
,Scenes\004a.jpg,122,0,123,,,,,,,None,j,0.8383958000049461,None,,,,,,123,0,122,699.5381806999794,,,,,,,,,,,,,,,,,,,,,,,699.5239681999956,699.5381806999794,700.0231759999879,,,,,,,,,,,,,,700.048933699989,,,,,,,,,,,,,700.0453888999764,700.048933699989,700.048933699989,700.048933699989,703.0388776999898,None,703.0390694999951,703.054951099999,703.054951099999,703.9071344999829,j,0.8383958000049461,None,,,,,,,,,,,,,,,00017,001,2025-11-20_16h42.37.692,MST_task,2024.2.0,60.10605111242552,2025-11-20 16h42.45.477070 +0530,
,Scenes\112a.jpg,123,0,124,,,,,,,None,j,1.2075231999915559,None,,,,,,124,0,123,703.9216476999864,,,,,,,,,,,,,,,,,,,,,,,703.9076526999997,703.9216476999864,704.4060785999754,,,,,,,,,,,,,,704.4301313999749,,,,,,,,,,,,,704.4267424999853,704.4301313999749,704.4301313999749,704.4301313999749,707.4223759999732,None,707.4226076999912,707.4380310999986,707.4380310999986,708.6572252999758,j,1.2075231999915559,None,,,,,,,,,,,,,,,00017,001,2025-11-20_16h42.37.692,MST_task,2024.2.0,60.10605111242552,2025-11-20 16h42.45.477070 +0530,
,Scenes\101a.jpg,124,0,125,,,,,,,None,j,0.46584929997334257,None,,,,,,125,0,124,708.6716326999885,,,,,,,,,,,,,,,,,,,,,,,708.6575713999919,708.6716326999885,709.156283999997,,,,,,,,,,,,,,709.1817380999855,,,,,,,,,,,,,709.1784111999732,709.1817380999855,709.1817380999855,709.1817380999855,712.1722219999938,None,712.1724066999741,712.1882036999741,712.1882036999741,712.6569311999774,j,0.46584929997334257,None,,,,,,,,,,,,,,,00017,001,2025-11-20_16h42.37.692,MST_task,2024.2.0,60.10605111242552,2025-11-20 16h42.45.477070 +0530,
,Scenes\138a.jpg,125,0,126,,,,,,,None,j,1.1611699999775738,None,,,,,,126,0,125,712.6716757999966,,,,,,,,,,,,,,,,,,,,,,,712.6572299999825,712.6716757999966,713.1563630999881,,,,,,,,,,,,,,713.1776519999839,,,,,,,,,,,,,713.1749413999787,713.1776519999839,713.1776519999839,713.1776519999839,716.172517799976,None,716.172734199994,716.1881764999998,716.1881764999998,717.3570103999809,j,1.1611699999775738,None,,,,,,,,,,,,,,,00017,001,2025-11-20_16h42.37.692,MST_task,2024.2.0,60.10605111242552,2025-11-20 16h42.45.477070 +0530,
,Objects\148a.jpg,126,0,127,,,,,,,None,f,2.989634900004603,None,,,,,,127,0,126,717.371639799996,,,,,,,,,,,,,,,,,,,,,,,717.3574276999861,717.371639799996,717.8564944999816,,,,,,,,,,,,,,717.8760939999775,,,,,,,,,,,,,717.8729547999974,717.8760939999775,717.8760939999775,717.8760939999775,720.8723964999954,None,720.8725784999842,720.8882173999737,720.8882173999737,723.8902982999862,f,2.989634900004603,None,,,,,,,,,,,,,,,00017,001,2025-11-20_16h42.37.692,MST_task,2024.2.0,60.10605111242552,2025-11-20 16h42.45.477070 +0530,
,Objects\066a.jpg,127,0,128,,,,,,,None,f,0.39233400000375696,None,,,,,,128,0,127,723.9050000999996,,,,,,,,,,,,,,,,,,,,,,,723.8906382999849,723.9050000999996,724.3891942999908,,,,,,,,,,,,,,724.4347360999964,,,,,,,,,,,,,724.4318335999851,724.4347360999964,724.4347360999964,724.4347360999964,727.4057226999721,None,727.4060098999762,727.4216518999892,727.4216518999892,727.8236719999986,f,0.39233400000375696,None,,,,,,,,,,,,,,,00017,001,2025-11-20_16h42.37.692,MST_task,2024.2.0,60.10605111242552,2025-11-20 16h42.45.477070 +0530,
,Objects\086a.jpg,128,0,129,,,,,,,None,j,2.5221636000205763,None,,,,,,129,0,128,727.8381705999782,,,,,,,,,,,,,,,,,,,,,,,727.8240370999847,727.8381705999782,728.322926199995,,,,,,,,,,,,,,728.341588899988,,,,,,,,,,,,,728.339052699972,728.341588899988,728.341588899988,728.341588899988,731.3389110999997,None,731.3391367000004,731.3552456999896,731.3552456999896,733.8903774999781,j,2.5221636000205763,None,,,,,,,,,,,,,,,00017,001,2025-11-20_16h42.37.692,MST_task,2024.2.0,60.10605111242552,2025-11-20 16h42.45.477070 +0530,
,Objects\123a.jpg,129,0,130,,,,,,,None,j,0.6003559000091627,None,,,,,,130,0,129,733.904987499991,,,,,,,,,,,,,,,,,,,,,,,733.8908815999748,733.904987499991,734.3896509999759,,,,,,,,,,,,,,734.4084528999811,,,,,,,,,,,,,734.4058829999994,734.4084528999811,734.4084528999811,734.4084528999811,737.4055853999744,None,737.4057816999848,737.4218805999844,737.4218805999844,738.0245110999967,j,0.6003559000091627,None,,,,,,,,,,,,,,,00017,001,2025-11-20_16h42.37.692,MST_task,2024.2.0,60.10605111242552,2025-11-20 16h42.45.477070 +0530,
,Objects\008a.jpg,130,0,131,,,,,,,None,f,1.1862527999910526,None,,,,,,131,0,130,738.0383434999967,,,,,,,,,,,,,,,,,,,,,,,738.0248341999832,738.0383434999967,738.5228441999934,,,,,,,,,,,,,,738.5416834999924,,,,,,,,,,,,,738.5391404999828,738.5416834999924,738.5416834999924,738.5416834999924,741.5388819999935,None,741.5390718999843,741.555111099995,741.555111099995,742.7574747999897,f,1.1862527999910526,None,,,,,,,,,,,,,,,00017,001,2025-11-20_16h42.37.692,MST_task,2024.2.0,60.10605111242552,2025-11-20 16h42.45.477070 +0530,
,Objects\127a.jpg,131,0,132,,,,,,,None,f,1.2135362999979407,None,,,,,,132,0,131,742.7718331999786,,,,,,,,,,,,,,,,,,,,,,,742.7579360999807,742.7718331999786,743.2556869999971,,,,,,,,,,,,,,743.2735890999902,,,,,,,,,,,,,743.2710647999775,743.2735890999902,743.2735890999902,743.2735890999902,746.2719327999803,None,746.2720321999805,746.2880453999969,746.2880453999969,747.5069936999935,f,1.2135362999979407,None,,,,,,,,,,,,,,,00017,001,2025-11-20_16h42.37.692,MST_task,2024.2.0,60.10605111242552,2025-11-20 16h42.45.477070 +0530,
,Objects\083a.jpg,132,0,133,,,,,,,None,f,1.0310958000191022,None,,,,,,133,0,132,747.5217460999847,,,,,,,,,,,,,,,,,,,,,,,747.5072953999916,747.5217460999847,748.0062173999904,,,,,,,,,,,,,,748.0274694999971,,,,,,,,,,,,,748.0248497999855,748.0274694999971,748.0274694999971,748.0274694999971,751.0225003999949,None,751.0228212999937,751.0385968999763,751.0385968999763,752.0736675999942,f,1.0310958000191022,None,,,,,,,,,,,,,,,00017,001,2025-11-20_16h42.37.692,MST_task,2024.2.0,60.10605111242552,2025-11-20 16h42.45.477070 +0530,
,Scenes\192a.jpg,133,0,134,,,,,,,None,j,1.9130493999982718,None,,,,,,134,0,133,752.0882073999965,,,,,,,,,,,,,,,,,,,,,,,752.0739992999879,752.0882073999965,752.5729992999986,,,,,,,,,,,,,,752.598345299979,,,,,,,,,,,,,752.5952116999833,752.598345299979,752.598345299979,752.598345299979,755.5888840999978,None,755.5891085999901,755.6050851999898,755.6050851999898,757.5234218999976,j,1.9130493999982718,None,,,,,,,,,,,,,,,00017,001,2025-11-20_16h42.37.692,MST_task,2024.2.0,60.10605111242552,2025-11-20 16h42.45.477070 +0530,
,Scenes\065a.jpg,134,0,135,,,,,,,None,j,3.158722599997418,None,,,,,,135,0,134,757.5381657999824,,,,,,,,,,,,,,,,,,,,,,,757.5237480999785,757.5381657999824,758.0229771999875,,,,,,,,,,,,,,758.0460540999775,,,,,,,,,,,,,758.0428943999868,758.0460540999775,758.0460540999775,758.0460540999775,761.0388343999803,None,761.0390387999942,761.055052199983,761.055052199983,764.2236748999858,j,3.158722599997418,None,,,,,,,,,,,,,,,00017,001,2025-11-20_16h42.37.692,MST_task,2024.2.0,60.10605111242552,2025-11-20 16h42.45.477070 +0530,
,Scenes\043a.jpg,135,0,136,,,,,,,None,j,1.0988936000212561,None,,,,,,136,0,135,764.2382012999733,,,,,,,,,,,,,,,,,,,,,,,764.2242074999958,764.2382012999733,764.7221545999928,,,,,,,,,,,,,,764.7474821999785,,,,,,,,,,,,,764.7442924999923,764.7474821999785,764.7474821999785,764.7474821999785,767.7389297999907,None,767.7392608999799,767.7550354999839,767.7550354999839,768.8571884999983,j,1.0988936000212561,None,,,,,,,,,,,,,,,00017,001,2025-11-20_16h42.37.692,MST_task,2024.2.0,60.10605111242552,2025-11-20 16h42.45.477070 +0530,
,Scenes\005a.jpg,136,0,137,,,,,,,None,f,0.4338782999839168,None,,,,,,137,0,136,768.8717937999754,,,,,,,,,,,,,,,,,,,,,,,768.8576732999936,768.8717937999754,769.3562098999973,,,,,,,,,,,,,,769.384639899974,,,,,,,,,,,,,769.3813951999764,769.384639899974,769.384639899974,769.384639899974,772.3724604999879,None,772.3726486999949,772.3882352999935,772.3882352999935,772.8240500999964,f,0.4338782999839168,None,,,,,,,,,,,,,,,00017,001,2025-11-20_16h42.37.692,MST_task,2024.2.0,60.10605111242552,2025-11-20 16h42.45.477070 +0530,
,Scenes\134a.jpg,137,0,138,,,,,,,f,None,,,1.0633242999901995,0.15213450000737794,,,,138,0,137,772.8381994999945,,,,,,,,,,,,,,,,,,,,,,,772.8243793000001,772.8381994999945,773.3228350999998,,,,,,,,,,,,,,773.3507464999857,,,,,,,,,,,,,773.3474521999888,773.3507464999857,773.3507464999857,773.3507464999857,776.338837599993,f,776.3390670999943,,,776.3391270999855,None,,,1.0633242999901995,0.15213450000737794,,,,,,,,,,,,,00017,001,2025-11-20_16h42.37.692,MST_task,2024.2.0,60.10605111242552,2025-11-20 16h42.45.477070 +0530,
,Scenes\047a.jpg,138,0,139,,,,,,,None,j,1.2466510999947786,None,,,,,,139,0,138,776.3550894999935,,,,,,,,,,,,,,,,,,,,,,,776.3394845000003,776.3550894999935,776.8394114999974,,,,,,,,,,,,,,776.8693456999899,,,,,,,,,,,,,776.8663342999935,776.8693456999899,776.8693456999899,776.8693456999899,779.8556303999794,None,779.8558309999935,779.8716690999863,779.8716690999863,781.1239032999729,j,1.2466510999947786,None,,,,,,,,,,,,,,,00017,001,2025-11-20_16h42.37.692,MST_task,2024.2.0,60.10605111242552,2025-11-20 16h42.45.477070 +0530,
,Scenes\015a.jpg,139,0,140,,,,,,,None,j,0.4869617000222206,None,,,,,,140,0,139,781.1382071999833,,,,,,,,,,,,,,,,,,,,,,,781.1244235999766,781.1382071999833,781.6229906999797,,,,,,,,,,,,,,781.6524846999964,,,,,,,,,,,,,781.6491887999873,781.6524846999964,781.6524846999964,781.6524846999964,784.6388781999995,None,784.6390635999851,784.6549614999967,784.6549614999967,785.1567428999988,j,0.4869617000222206,None,,,,,,,,,,,,,,,00017,001,2025-11-20_16h42.37.692,MST_task,2024.2.0,60.10605111242552,2025-11-20 16h42.45.477070 +0530,
,Objects\032a.jpg,140,0,141,,,,,,,None,j,0.31730749999405816,None,,,,,,141,0,140,785.171609299985,,,,,,,,,,,,,,,,,,,,,,,785.1571164999914,785.171609299985,785.6562281999795,,,,,,,,,,,,,,785.6762494999857,,,,,,,,,,,,,785.6731002999877,785.6762494999857,785.6762494999857,785.6762494999857,788.6725076999865,None,788.6727663999773,788.6884144999785,788.6884144999785,789.0077110999846,j,0.31730749999405816,None,,,,,,,,,,,,,,,00017,001,2025-11-20_16h42.37.692,MST_task,2024.2.0,60.10605111242552,2025-11-20 16h42.45.477070 +0530,
,Objects\103a.jpg,141,0,142,,,,,,,None,f,0.4031316000036895,None,,,,,,142,0,141,789.0218527999823,,,,,,,,,,,,,,,,,,,,,,,789.0082064999733,789.0218527999823,789.5063163999876,,,,,,,,,,,,,,789.5291538999882,,,,,,,,,,,,,789.5262427999987,789.5291538999882,789.5291538999882,789.5291538999882,792.5223936999973,None,792.5226148999936,792.5383874999825,792.5383874999825,792.9575234999938,f,0.4031316000036895,None,,,,,,,,,,,,,,,00017,001,2025-11-20_16h42.37.692,MST_task,2024.2.0,60.10605111242552,2025-11-20 16h42.45.477070 +0530,
,Objects\075a.jpg,142,0,143,,,,,,,None,j,1.1179074999818113,None,,,,,,143,0,142,792.9718436999829,,,,,,,,,,,,,,,,,,,,,,,792.9580415999808,792.9718436999829,793.4565531999979,,,,,,,,,,,,,,793.4750308999792,,,,,,,,,,,,,793.4723418999929,793.4750308999792,793.4750308999792,793.4750308999792,796.4724604999938,None,796.4726806999824,796.4884324999875,796.4884324999875,797.6233999999822,j,1.1179074999818113,None,,,,,,,,,,,,,,,00017,001,2025-11-20_16h42.37.692,MST_task,2024.2.0,60.10605111242552,2025-11-20 16h42.45.477070 +0530,
,Objects\126a.jpg,143,0,144,,,,,,,None,f,4.4265736999805085,None,,,,,,144,0,143,797.6383906999836,,,,,,,,,,,,,,,,,,,,,,,797.6238834999967,797.6383906999836,798.1231189999962,,,,,,,,,,,,,,798.1408991999924,,,,,,,,,,,,,798.1382162999944,798.1408991999924,798.1408991999924,798.1408991999924,801.1391733999772,None,801.1393627999933,801.1551717999973,801.1551717999973,805.5905983999837,f,4.4265736999805085,None,,,,,,,,,,,,,,,00017,001,2025-11-20_16h42.37.692,MST_task,2024.2.0,60.10605111242552,2025-11-20 16h42.45.477070 +0530,
,Objects\057a.jpg,144,0,145,,,,,,,None,f,0.4277885000046808,None,,,,,,145,0,144,805.6049515999912,,,,,,,,,,,,,,,,,,,,,,,805.5909003999841,805.6049515999912,806.0894300999935,,,,,,,,,,,,,,806.1097888999793,,,,,,,,,,,,,806.107056399982,806.1097888999793,806.1097888999793,806.1097888999793,809.1057261999813,None,809.1059295999876,809.1219424999726,809.1219424999726,809.5572002999834,f,0.4277885000046808,None,,,,,,,,,,,,,,,00017,001,2025-11-20_16h42.37.692,MST_task,2024.2.0,60.10605111242552,2025-11-20 16h42.45.477070 +0530,
,Objects\128a.jpg,145,0,146,,,,,,,None,f,2.4295321999816224,None,,,,,,146,0,145,809.5717708999873,,,,,,,,,,,,,,,,,,,,,,,809.557542399998,809.5717708999873,810.0564034999989,,,,,,,,,,,,,,810.0757057999726,,,,,,,,,,,,,810.0730689999764,810.0757057999726,810.0757057999726,810.0757057999726,813.0724941999943,None,813.072732599976,813.0884076999791,813.0884076999791,815.5239451999951,f,2.4295321999816224,None,,,,,,,,,,,,,,,00017,001,2025-11-20_16h42.37.692,MST_task,2024.2.0,60.10605111242552,2025-11-20 16h42.45.477070 +0530,
,Objects\101a.jpg,146,0,147,,,,,,,None,f,3.718307199975243,None,,,,,,147,0,146,815.5383587999968,,,,,,,,,,,,,,,,,,,,,,,815.5242580999911,815.5383587999968,816.0231147999875,,,,,,,,,,,,,,816.0435348999745,,,,,,,,,,,,,816.0408953999868,816.0435348999745,816.0435348999745,816.0435348999745,819.0389524999773,None,819.0391375999898,819.0551998999726,819.0551998999726,822.7904423999717,f,3.718307199975243,None,,,,,,,,,,,,,,,00017,001,2025-11-20_16h42.37.692,MST_task,2024.2.0,60.10605111242552,2025-11-20 16h42.45.477070 +0530,
,Scenes\180a.jpg,147,0,148,,,,,,,None,j,0.3638452999875881,None,,,,,,148,0,147,822.8049818,,,,,,,,,,,,,,,,,,,,,,,822.7908114999882,822.8049818,823.2898214999877,,,,,,,,,,,,,,823.3156422999746,,,,,,,,,,,,,823.3122499999881,823.3156422999746,823.3156422999746,823.3156422999746,826.3055406999774,None,826.3057769999723,826.3217369999911,826.3217369999911,826.6903496999876,j,0.3638452999875881,None,,,,,,,,,,,,,,,00017,001,2025-11-20_16h42.37.692,MST_task,2024.2.0,60.10605111242552,2025-11-20 16h42.45.477070 +0530,
,Scenes\166a.jpg,148,0,149,,,,,,,None,j,0.36037010001018643,None,,,,,,149,0,148,826.704975199973,,,,,,,,,,,,,,,,,,,,,,,826.6906978999905,826.704975199973,827.189453399973,,,,,,,,,,,,,,827.2115969999868,,,,,,,,,,,,,827.2089658999757,827.2115969999868,827.2115969999868,827.2115969999868,830.2056516999728,None,830.2058178999869,830.2216485999816,830.2216485999816,830.5902122999832,j,0.36037010001018643,None,,,,,,,,,,,,,,,00017,001,2025-11-20_16h42.37.692,MST_task,2024.2.0,60.10605111242552,2025-11-20 16h42.45.477070 +0530,
,Scenes\151a.jpg,149,0,150,,,,,,,None,j,0.2762351999990642,None,,,,,,150,0,149,830.6051346999884,,,,,,,,,,,,,,,,,,,,,,,830.590541499987,830.6051346999884,831.0896460999793,,,,,,,,,,,,,,831.1151330999855,,,,,,,,,,,,,831.1119053000002,831.1151330999855,831.1151330999855,831.1151330999855,834.1056242999912,None,834.1059651999967,834.1216981999751,834.1216981999751,834.4070053999894,j,0.2762351999990642,None,,,,,,,,,,,,,,,00017,001,2025-11-20_16h42.37.692,MST_task,2024.2.0,60.10605111242552,2025-11-20 16h42.45.477070 +0530,
,Scenes\170a.jpg,150,0,151,,,,,,,None,j,1.179632399987895,None,,,,,,151,0,150,834.4216409999935,,,,,,,,,,,,,,,,,,,,,,,834.4073120999965,834.4216409999935,834.9062114999979,,,,,,,,,,,,,,834.9348454999854,,,,,,,,,,,,,834.9316521999717,834.9348454999854,834.9348454999854,834.9348454999854,837.9222767999745,None,837.9224611999816,837.938361699984,837.938361699984,839.1236730999954,j,1.179632399987895,None,,,,,,,,,,,,,,,00017,001,2025-11-20_16h42.37.692,MST_task,2024.2.0,60.10605111242552,2025-11-20 16h42.45.477070 +0530,
,Scenes\184a.jpg,151,0,152,,,,,,,None,j,0.5183084000018425,None,,,,,,152,0,151,839.1382004999905,,,,,,,,,,,,,,,,,,,,,,,839.1240283999941,839.1382004999905,839.6230248999782,,,,,,,,,,,,,,839.645739199972,,,,,,,,,,,,,839.642657599994,839.645739199972,839.645739199972,839.645739199972,842.6387969999923,None,842.6390023999847,842.6549956999952,842.6549956999952,843.1749519000005,j,0.5183084000018425,None,,,,,,,,,,,,,,,00017,001,2025-11-20_16h42.37.692,MST_task,2024.2.0,60.10605111242552,2025-11-20 16h42.45.477070 +0530,
,Scenes\036a.jpg,152,0,153,,,,,,,j,None,,,2.8151847000117414,None,,,,153,0,152,843.1883876999782,,,,,,,,,,,,,,,,,,,,,,,843.1752390999754,843.1883876999782,843.6728024999902,,,,,,,,,,,,,,843.6945435999951,,,,,,,,,,,,,843.6911697999749,843.6945435999951,843.6945435999951,843.6945435999951,846.6891900999763,j,846.689409899991,,,846.6894646999717,None,,,2.8151847000117414,None,,,,,,,,,,,,,00017,001,2025-11-20_16h42.37.692,MST_task,2024.2.0,60.10605111242552,2025-11-20 16h42.45.477070 +0530,
,Scenes\093a.jpg,153,0,154,,,,,,,j,None,,,0.34846660000039265,0.1920791000011377,,,,154,0,153,846.7050909999816,,,,,,,,,,,,,,,,,,,,,,,846.6897425999923,846.7050909999816,847.1897711999773,,,,,,,,,,,,,,847.217420299974,,,,,,,,,,,,,847.214258299995,847.217420299974,847.217420299974,847.217420299974,850.2061078999832,j,850.2063498999923,,,850.2064094999805,None,,,0.34846660000039265,0.1920791000011377,,,,,,,,,,,,,00017,001,2025-11-20_16h42.37.692,MST_task,2024.2.0,60.10605111242552,2025-11-20 16h42.45.477070 +0530,
,Objects\092a.jpg,154,0,155,,,,,,,None,f,1.5638719999988098,None,,,,,,155,0,154,850.2216881999921,,,,,,,,,,,,,,,,,,,,,,,850.2068061999744,850.2216881999921,850.7062645999831,,,,,,,,,,,,,,850.726049799996,,,,,,,,,,,,,850.7229413999885,850.726049799996,850.726049799996,850.726049799996,853.7225529999996,None,853.7227667999978,853.7383195000002,853.7383195000002,855.3075851999747,f,1.5638719999988098,None,,,,,,,,,,,,,,,00017,001,2025-11-20_16h42.37.692,MST_task,2024.2.0,60.10605111242552,2025-11-20 16h42.45.477070 +0530,
,Objects\005a.jpg,155,0,156,,,,,,,None,f,4.439833400014322,None,,,,,,156,0,155,855.3217141999921,,,,,,,,,,,,,,,,,,,,,,,855.3080680999847,855.3217141999921,855.8060926999897,,,,,,,,,,,,,,855.8259376999922,,,,,,,,,,,,,855.8233021999768,855.8259376999922,855.8259376999922,855.8259376999922,858.8223775999795,None,858.8225673999987,858.8385517999995,858.8385517999995,863.2902485999803,f,4.439833400014322,None,,,,,,,,,,,,,,,00017,001,2025-11-20_16h42.37.692,MST_task,2024.2.0,60.10605111242552,2025-11-20 16h42.45.477070 +0530,
,Objects\155a.jpg,156,0,157,,,,,,,None,f,0.351993099990068,None,,,,,,157,0,156,863.3050150999916,,,,,,,,,,,,,,,,,,,,,,,863.2907027999754,863.3050150999916,863.7896247999743,,,,,,,,,,,,,,863.8095585999836,,,,,,,,,,,,,863.8068938999786,863.8095585999836,863.8095585999836,863.8095585999836,866.8058919999748,None,866.8061030999816,866.8217642999953,866.8217642999953,867.1905697999755,f,0.351993099990068,None,,,,,,,,,,,,,,,00017,001,2025-11-20_16h42.37.692,MST_task,2024.2.0,60.10605111242552,2025-11-20 16h42.45.477070 +0530,
,Objects\113a.jpg,157,0,158,,,,,,,None,f,3.2198805999942124,None,,,,,,158,0,157,867.2050699999963,,,,,,,,,,,,,,,,,,,,,,,867.191093499976,867.2050699999963,867.6895961999835,,,,,,,,,,,,,,867.7106679999852,,,,,,,,,,,,,867.7080422999861,867.7106679999852,867.7106679999852,867.7106679999852,870.7055857999949,None,870.7057700000005,870.7218300999957,870.7218300999957,873.9568306999863,f,3.2198805999942124,None,,,,,,,,,,,,,,,00017,001,2025-11-20_16h42.37.692,MST_task,2024.2.0,60.10605111242552,2025-11-20 16h42.45.477070 +0530,
,Objects\007a.jpg,158,0,159,,,,,,,None,f,0.5092395000101533,None,,,,,,159,0,158,873.9716763999895,,,,,,,,,,,,,,,,,,,,,,,873.9571960999747,873.9716763999895,874.4563599999819,,,,,,,,,,,,,,874.4938853999774,,,,,,,,,,,,,874.4913942999847,874.4938853999774,874.4938853999774,874.4938853999774,877.4724856999819,None,877.4727193999861,877.4883979999868,877.4883979999868,878.0072028999857,f,0.5092395000101533,None,,,,,,,,,,,,,,,00017,001,2025-11-20_16h42.37.692,MST_task,2024.2.0,60.10605111242552,2025-11-20 16h42.45.477070 +0530,
,Objects\118a.jpg,159,0,160,,,,,,,None,j,0.9718708000145853,None,,,,,,160,0,159,878.0217885999882,,,,,,,,,,,,,,,,,,,,,,,878.0076024999726,878.0217885999882,878.506096499972,,,,,,,,,,,,,,878.5279026999779,,,,,,,,,,,,,878.5251135999861,878.5279026999779,878.5279026999779,878.5279026999779,881.522459699976,None,881.5227160999784,881.5384339999873,881.5384339999873,882.5235687999811,j,0.9718708000145853,None,,,,,,,,,,,,,,,00017,001,2025-11-20_16h42.37.692,MST_task,2024.2.0,60.10605111242552,2025-11-20 16h42.45.477070 +0530,
,Objects\110a.jpg,160,0,161,,,,,,,None,f,3.7023227000026964,None,,,,,,161,0,160,882.538275799976,,,,,,,,,,,,,,,,,,,,,,,882.5239293999912,882.538275799976,883.0227817999839,,,,,,,,,,,,,,883.0428645999928,,,,,,,,,,,,,883.0403791999852,883.0428645999928,883.0428645999928,883.0428645999928,886.0389939999732,None,886.0393342999741,886.0553029000002,886.0553029000002,889.7735918999824,f,3.7023227000026964,None,,,,,,,,,,,,,,,00017,001,2025-11-20_16h42.37.692,MST_task,2024.2.0,60.10605111242552,2025-11-20 16h42.45.477070 +0530,
,Scenes\042a.jpg,161,0,162,,,,,,,None,j,2.468614199984586,None,,,,,,162,0,161,889.7883154999872,,,,,,,,,,,,,,,,,,,,,,,889.7739193999732,889.7883154999872,890.2730891999963,,,,,,,,,,,,,,890.297390199994,,,,,,,,,,,,,890.294106699992,890.297390199994,890.297390199994,890.297390199994,893.2887994999764,None,893.2889731999894,893.3056488999864,893.3056488999864,895.7900201999873,j,2.468614199984586,None,,,,,,,,,,,,,,,00017,001,2025-11-20_16h42.37.692,MST_task,2024.2.0,60.10605111242552,2025-11-20 16h42.45.477070 +0530,
,Scenes\141a.jpg,162,0,163,,,,,,,None,j,0.3959210999892093,None,,,,,,163,0,162,895.8049911999842,,,,,,,,,,,,,,,,,,,,,,,895.7903494999919,895.8049911999842,896.2894779999915,,,,,,,,,,,,,,896.3134305999847,,,,,,,,,,,,,896.3101594999898,896.3134305999847,896.3134305999847,896.3134305999847,899.3056022999808,None,899.3059208999912,899.321707199997,899.321707199997,899.7226161999861,j,0.3959210999892093,None,,,,,,,,,,,,,,,00017,001,2025-11-20_16h42.37.692,MST_task,2024.2.0,60.10605111242552,2025-11-20 16h42.45.477070 +0530,
,Scenes\162a.jpg,163,0,164,,,,,,,None,j,2.671987200010335,None,,,,,,164,0,163,899.7381875999854,,,,,,,,,,,,,,,,,,,,,,,899.7228784999752,899.7381875999854,900.2226325999945,,,,,,,,,,,,,,900.2439574999735,,,,,,,,,,,,,900.2408682999958,900.2439574999735,900.2439574999735,900.2439574999735,903.223259099992,None,903.2235702999751,903.2383659999759,903.2383659999759,905.9235425999796,j,2.671987200010335,None,,,,,,,,,,,,,,,00017,001,2025-11-20_16h42.37.692,MST_task,2024.2.0,60.10605111242552,2025-11-20 16h42.45.477070 +0530,
,Scenes\107a.jpg,164,0,165,,,,,,,None,j,0.47923600001377054,None,,,,,,165,0,164,905.9382102999953,,,,,,,,,,,,,,,,,,,,,,,905.9240400999843,905.9382102999953,906.4229097999923,,,,,,,,,,,,,,906.4734357999987,,,,,,,,,,,,,906.4700043999765,906.4734357999987,906.4734357999987,906.4734357999987,909.4392739999748,None,909.4394588999858,909.4550119999913,909.4550119999913,909.9398466999992,j,0.47923600001377054,None,,,,,,,,,,,,,,,00017,001,2025-11-20_16h42.37.692,MST_task,2024.2.0,60.10605111242552,2025-11-20 16h42.45.477070 +0530,
,Scenes\126a.jpg,165,0,166,,,,,,,None,j,4.389954000012949,None,,,,,,166,0,165,909.9550183999818,,,,,,,,,,,,,,,,,,,,,,,909.9401128999889,909.9550183999818,910.4396761999815,,,,,,,,,,,,,,910.4677563000005,,,,,,,,,,,,,910.464421599987,910.4677563000005,910.4677563000005,910.4677563000005,913.4557288999786,None,913.4559509999817,913.4718648999988,913.4718648999988,917.8733096999931,j,4.389954000012949,None,,,,,,,,,,,,,,,00017,001,2025-11-20_16h42.37.692,MST_task,2024.2.0,60.10605111242552,2025-11-20 16h42.45.477070 +0530,
,Scenes\080a.jpg,166,0,167,,,,,,,None,j,0.4809326999820769,None,,,,,,167,0,166,917.888498699991,,,,,,,,,,,,,,,,,,,,,,,917.873752799991,917.888498699991,918.3729476999724,,,,,,,,,,,,,,918.3996194999781,,,,,,,,,,,,,918.3963184999884,918.3996194999781,918.3996194999781,918.3996194999781,921.3891358999826,None,921.3893152999808,921.4051979999931,921.4051979999931,921.8902590999787,j,0.4809326999820769,None,,,,,,,,,,,,,,,00017,001,2025-11-20_16h42.37.692,MST_task,2024.2.0,60.10605111242552,2025-11-20 16h42.45.477070 +0530,
,Scenes\087a.jpg,167,0,168,,,,,,,None,j,0.33559649999369867,None,,,,,,168,0,167,921.9050783999846,,,,,,,,,,,,,,,,,,,,,,,921.8907527999836,921.9050783999846,922.3896481999836,,,,,,,,,,,,,,922.4136322999839,,,,,,,,,,,,,922.4103108999843,922.4136322999839,922.4136322999839,922.4136322999839,925.405806899973,None,925.4061940999818,925.4218551999948,925.4218551999948,925.7737688999914,j,0.33559649999369867,None,,,,,,,,,,,,,,,00017,001,2025-11-20_16h42.37.692,MST_task,2024.2.0,60.10605111242552,2025-11-20 16h42.45.477070 +0530,
,Objects\047a.jpg,168,0,169,,,,,,,None,f,0.7971009999746457,None,,,,,,169,0,168,925.7885691999982,,,,,,,,,,,,,,,,,,,,,,,925.7741268999816,925.7885691999982,926.272804999986,,,,,,,,,,,,,,926.2930574999773,,,,,,,,,,,,,926.2897501999978,926.2930574999773,926.2930574999773,926.2930574999773,929.2890475999739,None,929.2892716999922,929.3050949999888,929.3050949999888,930.1072958000004,f,0.7971009999746457,None,,,,,,,,,,,,,,,00017,001,2025-11-20_16h42.37.692,MST_task,2024.2.0,60.10605111242552,2025-11-20 16h42.45.477070 +0530,
,Objects\187a.jpg,169,0,170,,,,,,,None,f,0.30279909999808297,None,,,,,,170,0,169,930.1218843999959,,,,,,,,,,,,,,,,,,,,,,,930.1077474999765,930.1218843999959,930.6063267999853,,,,,,,,,,,,,,930.6265698999923,,,,,,,,,,,,,930.6238176999905,930.6265698999923,930.6265698999923,930.6265698999923,933.6224207999767,None,933.6226147999987,933.6386132999905,933.6386132999905,933.9572502999799,f,0.30279909999808297,None,,,,,,,,,,,,,,,00017,001,2025-11-20_16h42.37.692,MST_task,2024.2.0,60.10605111242552,2025-11-20 16h42.45.477070 +0530,
,Objects\009a.jpg,170,0,171,,,,,,,None,f,3.8536184999975376,None,,,,,,171,0,170,933.9718454999966,,,,,,,,,,,,,,,,,,,,,,,933.957714499993,933.9718454999966,934.4561805999838,,,,,,,,,,,,,,934.4767128999811,,,,,,,,,,,,,934.4739209999971,934.4767128999811,934.4767128999811,934.4767128999811,937.472551599989,None,937.4727361999976,937.4886155999848,937.4886155999848,941.3567253999936,f,3.8536184999975376,None,,,,,,,,,,,,,,,00017,001,2025-11-20_16h42.37.692,MST_task,2024.2.0,60.10605111242552,2025-11-20 16h42.45.477070 +0530,
,Objects\176a.jpg,171,0,172,,,,,,,None,f,0.3095356999838259,None,,,,,,172,0,171,941.3716788999736,,,,,,,,,,,,,,,,,,,,,,,941.3571203999745,941.3716788999736,941.8562144999742,,,,,,,,,,,,,,941.8798662999761,,,,,,,,,,,,,941.8771819999965,941.8798662999761,941.8798662999761,941.8798662999761,944.872418599989,None,944.8726014999847,944.8885595999891,944.8885595999891,945.2071562999918,f,0.3095356999838259,None,,,,,,,,,,,,,,,00017,001,2025-11-20_16h42.37.692,MST_task,2024.2.0,60.10605111242552,2025-11-20 16h42.45.477070 +0530,
,Objects\048a.jpg,172,0,173,,,,,,,None,j,0.31570609999471344,None,,,,,,173,0,172,945.2217003999976,,,,,,,,,,,,,,,,,,,,,,,945.2076035999926,945.2217003999976,945.705856399989,,,,,,,,,,,,,,945.7253773999983,,,,,,,,,,,,,945.7228989999858,945.7253773999983,945.7253773999983,945.7253773999983,948.7223946999875,None,948.7225788999931,948.7385386999813,948.7385386999813,949.057422199985,j,0.31570609999471344,None,,,,,,,,,,,,,,,00017,001,2025-11-20_16h42.37.692,MST_task,2024.2.0,60.10605111242552,2025-11-20 16h42.45.477070 +0530,
,Objects\070a.jpg,173,0,174,,,,,,,None,f,0.3217838999989908,None,,,,,,174,0,173,949.0718790999963,,,,,,,,,,,,,,,,,,,,,,,949.0576958999736,949.0718790999963,949.5564943999925,,,,,,,,,,,,,,949.5772023999889,,,,,,,,,,,,,949.5744596000004,949.5772023999889,949.5772023999889,949.5772023999889,952.5719499999832,None,952.5720320999972,952.588382499991,952.588382499991,952.9223305999767,f,0.3217838999989908,None,,,,,,,,,,,,,,,00017,001,2025-11-20_16h42.37.692,MST_task,2024.2.0,60.10605111242552,2025-11-20 16h42.45.477070 +0530,
