Sl_no,image_path,thisN,thisTrialN,thisRepN,key_resp_5.keys,key_resp_7.keys,key_resp_7.rt,key_resp_7.duration,key_resp_5.rt,key_resp_5.duration,key_resp_9.keys,key_resp_9.rt,key_resp_9.duration,key_resp_8.keys,key_resp_8.rt,key_resp_8.duration,practice.thisRepN,practice.thisTrialN,practice.thisN,practice.thisIndex,trials.thisRepN,trials.thisTrialN,trials.thisN,trials.thisIndex,thisRow.t,notes,welcome_page.started,text.started,key_resp.started,welcome_page.stopped,key_resp.keys,key_resp.rt,key_resp.duration,instructions.started,ins.started,key_resp_2.started,instructions.stopped,key_resp_2.keys,key_resp_2.rt,key_resp_2.duration,objects_only_instruction.started,text_3.started,key_resp_3.started,objects_only_instruction.stopped,key_resp_3.keys,key_resp_3.rt,key_resp_3.duration,ISI.started,text_4.started,text_4.stopped,ISI.stopped,practice_block.started,image.started,text_5.started,key_resp_5.started,practice_block.stopped,practice.key_resp_5.keys,indoor_outdoor.started,text_7.started,key_resp_7.started,indoor_outdoor.stopped,practice.key_resp_7.keys,practice.key_resp_7.rt,practice.key_resp_7.duration,practice.key_resp_5.rt,practice.key_resp_5.duration,image.stopped,text_5.stopped,key_resp_5.stopped,practice_to_main.started,text_2.started,key_resp_4.started,practice_to_main.stopped,key_resp_4.keys,key_resp_4.rt,key_resp_4.duration,objects.started,image_2.started,text_9.started,key_resp_9.started,objects.stopped,trials.key_resp_9.keys,trials.key_resp_9.rt,trials.key_resp_9.duration,encoding_task.started,encoding_task.stopped,trials.key_resp_8.keys,text_8.started,key_resp_8.started,trials.key_resp_8.rt,trials.key_resp_8.duration,end_experiment.started,text_6.started,key_resp_6.started,end_experiment.stopped,key_resp_6.keys,key_resp_6.rt,key_resp_6.duration,list_of_stimuli,encoding_task_accuracy,participant,session,date,expName,psychopyVersion,frameRate,expStart,
,,,,,,,,,,,,,,,,,,,,,,,,,,,0.006875200000649784,0.0234667000004265,0.0234667000004265,7.608300600000803,space,7.5830258000005415,None,,,,,,,,,,,,,,,,,,,,,,,,,,,,,,,,,,,,,,,,,,,,,,,,,,,,,,,,,,,,,,,,,,,,00009,001,2025-11-11_06h02.51.248,MST_task,2024.2.2,60.000204000391584,2025-11-11 06h02.56.255867 +0530,
,,,,,,,,,,,,,,,,,,,,,,,,,,,,,,,,,,7.608330100000785,7.623175100000481,7.623175100000481,21.973279800000455,space,14.333561800000098,None,,,,,,,,,,,,,,,,,,,,,,,,,,,,,,,,,,,,,,,,,,,,,,,,,,,,,,,,,,,,,00009,001,2025-11-11_06h02.51.248,MST_task,2024.2.2,60.000204000391584,2025-11-11 06h02.56.255867 +0530,
,,,,,,,,,,,,,,,,,,,,,,,,,,,,,,,,,,,,,,,,,21.973312500000247,21.989556500000617,21.989556500000617,34.839503900000636,space,12.836121100000128,None,,,,,,,,,,,,,,,,,,,,,,,,,,,,,,,,,,,,,,,,,,,,,,,,,,,,,,00009,001,2025-11-11_06h02.51.248,MST_task,2024.2.2,60.000204000391584,2025-11-11 06h02.56.255867 +0530,
5,practice_images/139a.jpg,0,0,0,None,j,0.6829415000001973,None,,,,,,,,,0,0,0,4,,,,,34.855889800000114,,,,,,,,,,,,,,,,,,,,,,,34.843148400000246,34.855889800000114,35.372528600000805,35.339460500000314,35.36467580000044,35.372528600000805,35.372528600000805,35.372528600000805,38.372555800000555,None,38.37371460000031,38.3891663000004,38.3891663000004,39.07289149999997,j,0.6829415000001973,None,,,,,,,,,,,,,,,,,,,,,,,,,,,,,,,,,,,,,00009,001,2025-11-11_06h02.51.248,MST_task,2024.2.2,60.000204000391584,2025-11-11 06h02.56.255867 +0530,
4,practice_images/002b.jpg,1,1,0,f,None,,,1.9727720999999292,0.10582499999964057,,,,,,,0,1,1,3,,,,,39.08914890000051,,,,,,,,,,,,,,,,,,,,,,,39.07296330000008,39.08914890000051,39.6058051,39.57262119999996,39.58495760000005,39.6058051,39.6058051,39.6058051,42.589106400000674,f,42.58920730000045,,,42.58922630000052,None,,,1.9727720999999292,0.10582499999964057,,,,,,,,,,,,,,,,,,,,,,,,,,,,,,,,,,,00009,001,2025-11-11_06h02.51.248,MST_task,2024.2.2,60.000204000391584,2025-11-11 06h02.56.255867 +0530,
10,practice_images/182a.jpg,2,2,0,f,None,,,1.4623731000001499,0.10848970000006375,,,,,,,0,2,2,9,,,,,42.605763900000056,,,,,,,,,,,,,,,,,,,,,,,42.589288000000124,42.605763900000056,43.12238570000045,43.08932790000017,43.10603600000013,43.12238570000045,43.12238570000045,43.12238570000045,46.10568469999998,f,46.10572850000062,,,46.10573790000035,None,,,1.4623731000001499,0.10848970000006375,,,,,,,,,,,,,,,,,,,,,,,,,,,,,,,,,,,00009,001,2025-11-11_06h02.51.248,MST_task,2024.2.2,60.000204000391584,2025-11-11 06h02.56.255867 +0530,
8,practice_images/178a.jpg,3,3,0,j,None,,,1.7632252000003064,0.15858560000015132,,,,,,,0,3,3,7,,,,,46.12231560000055,,,,,,,,,,,,,,,,,,,,,,,46.10579839999991,46.12231560000055,46.63897630000065,46.60592369999995,46.62287760000072,46.63897630000065,46.63897630000065,46.63897630000065,49.62226890000056,j,49.62232060000042,,,49.622330400000465,None,,,1.7632252000003064,0.15858560000015132,,,,,,,,,,,,,,,,,,,,,,,,,,,,,,,,,,,00009,001,2025-11-11_06h02.51.248,MST_task,2024.2.2,60.000204000391584,2025-11-11 06h02.56.255867 +0530,
2,practice_images/031a.jpg,4,4,0,f,None,,,1.1615835000002335,0.19807509999918693,,,,,,,0,4,4,1,,,,,49.63891260000037,,,,,,,,,,,,,,,,,,,,,,,49.622388700000556,49.63891260000037,50.13890160000028,50.122336800000085,50.12908349999998,50.13890160000028,50.13890160000028,50.13890160000028,53.12226760000067,f,53.122307999999975,,,53.12231640000027,None,,,1.1615835000002335,0.19807509999918693,53.138854300000276,53.138854300000276,53.138854300000276,,,,,,,,,,,,,,,,,,,,,,,,,,,,,,,,00009,001,2025-11-11_06h02.51.248,MST_task,2024.2.2,60.000204000391584,2025-11-11 06h02.56.255867 +0530,
6,practice_images/158a.jpg,5,5,0,j,None,,,1.5222194999996645,0.1818185000001904,,,,,,,0,5,5,5,,,,,53.138854300000276,,,,,,,,,,,,,,,,,,,,,,,53.12237330000062,53.138854300000276,53.65548260000014,53.622362500000236,53.64321050000035,53.65548260000014,53.65548260000014,53.65548260000014,56.63880270000027,j,56.63897540000016,,,56.63898820000031,None,,,1.5222194999996645,0.1818185000001904,,,,,,,,,,,,,,,,,,,,,,,,,,,,,,,,,,,00009,001,2025-11-11_06h02.51.248,MST_task,2024.2.2,60.000204000391584,2025-11-11 06h02.56.255867 +0530,
9,practice_images/180a.jpg,6,6,0,f,None,,,0.8699642000001404,0.15661420000014914,,,,,,,0,6,6,8,,,,,56.65542980000009,,,,,,,,,,,,,,,,,,,,,,,56.639049800000066,56.65542980000009,57.155400600000576,57.13888300000053,57.146011499999986,57.155400600000576,57.155400600000576,57.155400600000576,60.1387835000005,f,60.13882950000061,,,60.138838200000464,None,,,0.8699642000001404,0.15661420000014914,60.15532890000031,60.15532890000031,60.15532890000031,,,,,,,,,,,,,,,,,,,,,,,,,,,,,,,,00009,001,2025-11-11_06h02.51.248,MST_task,2024.2.2,60.000204000391584,2025-11-11 06h02.56.255867 +0530,
3,practice_images/037a.jpg,7,7,0,f,None,,,1.1689748000007967,0.2589672999993127,,,,,,,0,7,7,2,,,,,60.15532890000031,,,,,,,,,,,,,,,,,,,,,,,60.13889250000011,60.15532890000031,60.67198720000033,60.63877450000018,60.65562690000024,60.67198720000033,60.67198720000033,60.67198720000033,63.65530350000063,f,63.65535,,,63.65535980000004,None,,,1.1689748000007967,0.2589672999993127,,,,,,,,,,,,,,,,,,,,,,,,,,,,,,,,,,,00009,001,2025-11-11_06h02.51.248,MST_task,2024.2.2,60.000204000391584,2025-11-11 06h02.56.255867 +0530,
7,practice_images/166a.jpg,8,8,0,f,None,,,1.5986534000003303,0.2512204999993628,,,,,,,0,8,8,6,,,,,63.67192790000081,,,,,,,,,,,,,,,,,,,,,,,63.65541830000075,63.67192790000081,64.17148830000042,64.15538610000021,64.1670879000003,64.17148830000042,64.17148830000042,64.17148830000042,67.15548760000001,f,67.15553580000051,,,67.15554460000021,None,,,1.5986534000003303,0.2512204999993628,67.1717920000001,67.1717920000001,67.1717920000001,,,,,,,,,,,,,,,,,,,,,,,,,,,,,,,,00009,001,2025-11-11_06h02.51.248,MST_task,2024.2.2,60.000204000391584,2025-11-11 06h02.56.255867 +0530,
1,practice_images/013a.jpg,9,9,0,j,None,,,1.0878116000003502,0.22411730000021635,,,,,,,0,9,9,0,,,,,67.1717920000001,,,,,,,,,,,,,,,,,,,,,,,67.15560020000066,67.1717920000001,67.68852340000012,67.65530519999993,67.67715700000008,67.68852340000012,67.68852340000012,67.68852340000012,70.67181600000004,j,70.6718707,,,70.67188070000066,None,,,1.0878116000003502,0.22411730000021635,,,,,,,,,,,,,,,,,,,,,,,,,,,,,,,,,,,00009,001,2025-11-11_06h02.51.248,MST_task,2024.2.2,60.000204000391584,2025-11-11 06h02.56.255867 +0530,
,,,,,,,,,,,,,,,,,,,,,,,,,,,,,,,,,,,,,,,,,,,,,,,,,,,,,,,,,,,,,,,,,,,,,,70.67191980000007,70.68838070000038,70.68838070000038,88.1550416,space,17.460194199999933,None,,,,,,,,,,,,,,,,,,,,,,,,,00009,001,2025-11-11_06h02.51.248,MST_task,2024.2.2,60.000204000391584,2025-11-11 06h02.56.255867 +0530,
,Objects\122a.jpg,0,0,0,,,,,,,f,1.8905561000001398,0.17639909999979864,None,,,,,,,0,0,0,0,88.17135020000023,,,,,,,,,,,,,,,,,,,,,,,88.15560110000024,88.17135020000023,88.70492310000009,88.65492280000035,,,,,,,,,,,,,,,,,,,,,,,,,,88.69604010000057,88.70492310000009,88.70492310000009,88.70492310000009,91.67134260000057,f,1.8905561000001398,0.17639909999979864,91.67241880000074,91.67243120000057,None,,,,,,,,,,,,,,00009,001,2025-11-11_06h02.51.248,MST_task,2024.2.2,60.000204000391584,2025-11-11 06h02.56.255867 +0530,
,Objects\135a.jpg,1,0,1,,,,,,,f,0.7000173999995241,0.16967290000047797,None,,,,,,,1,0,1,0,91.68798860000061,,,,,,,,,,,,,,,,,,,,,,,91.6724862000001,91.68798860000061,92.20472880000034,92.17139750000024,,,,,,,,,,,,,,,,,,,,,,,,,,92.19477869999992,92.20472880000034,92.20472880000034,92.20472880000034,95.18798590000006,f,0.7000173999995241,0.16967290000047797,95.18803640000078,95.18804679999994,None,,,,,,,,,,,,,,00009,001,2025-11-11_06h02.51.248,MST_task,2024.2.2,60.000204000391584,2025-11-11 06h02.56.255867 +0530,
,Objects\179a.jpg,2,0,2,,,,,,,j,2.409017099999801,0.22673109999959706,None,,,,,,,2,0,2,0,95.20453130000078,,,,,,,,,,,,,,,,,,,,,,,95.18812430000071,95.20453130000078,95.72118200000023,95.68810010000016,,,,,,,,,,,,,,,,,,,,,,,,,,95.70296760000019,95.72118200000023,95.72118200000023,95.72118200000023,98.70449480000025,j,2.409017099999801,0.22673109999959706,98.70454680000057,98.70455710000078,None,,,,,,,,,,,,,,00009,001,2025-11-11_06h02.51.248,MST_task,2024.2.2,60.000204000391584,2025-11-11 06h02.56.255867 +0530,
,Objects\055a.jpg,3,0,3,,,,,,,f,1.2071254000002227,0.19342299999971146,None,,,,,,,3,0,3,0,98.72111769999992,,,,,,,,,,,,,,,,,,,,,,,98.70463460000065,98.72111769999992,99.23780160000024,99.20460320000075,,,,,,,,,,,,,,,,,,,,,,,,,,99.22095080000054,99.23780160000024,99.23780160000024,99.23780160000024,102.22105240000019,f,1.2071254000002227,0.19342299999971146,102.22109670000009,102.22110960000009,None,,,,,,,,,,,,,,00009,001,2025-11-11_06h02.51.248,MST_task,2024.2.2,60.000204000391584,2025-11-11 06h02.56.255867 +0530,
,Objects\026a.jpg,4,0,4,,,,,,,j,1.7783866999998281,0.18934669999998732,None,,,,,,,4,0,4,0,102.23769690000063,,,,,,,,,,,,,,,,,,,,,,,102.22116600000027,102.23769690000063,102.75431180000032,102.72123230000034,,,,,,,,,,,,,,,,,,,,,,,,,,102.74190030000045,102.75431180000032,102.75431180000032,102.75431180000032,105.7376675000005,j,1.7783866999998281,0.18934669999998732,105.73771010000019,105.73772080000072,None,,,,,,,,,,,,,,00009,001,2025-11-11_06h02.51.248,MST_task,2024.2.2,60.000204000391584,2025-11-11 06h02.56.255867 +0530,
,Objects\088a.jpg,5,0,5,,,,,,,f,1.4115979999996853,0.2273777999998856,None,,,,,,,5,0,5,0,105.75428030000057,,,,,,,,,,,,,,,,,,,,,,,105.73779540000032,105.75428030000057,106.27092600000014,106.23778840000068,,,,,,,,,,,,,,,,,,,,,,,,,,106.25099040000077,106.27092600000014,106.27092600000014,106.27092600000014,109.25436480000008,f,1.4115979999996853,0.2273777999998856,109.25441060000048,109.2544211000004,None,,,,,,,,,,,,,,00009,001,2025-11-11_06h02.51.248,MST_task,2024.2.2,60.000204000391584,2025-11-11 06h02.56.255867 +0530,
,Objects\040a.jpg,6,0,6,,,,,,,f,2.2251930000002176,0.24904700000024604,None,,,,,,,6,0,6,0,109.27087560000018,,,,,,,,,,,,,,,,,,,,,,,109.25449870000011,109.27087560000018,109.78751720000037,109.75433060000069,,,,,,,,,,,,,,,,,,,,,,,,,,109.7713031000003,109.78751720000037,109.78751720000037,109.78751720000037,112.77094980000038,f,2.2251930000002176,0.24904700000024604,112.77099590000034,112.77100650000011,None,,,,,,,,,,,,,,00009,001,2025-11-11_06h02.51.248,MST_task,2024.2.2,60.000204000391584,2025-11-11 06h02.56.255867 +0530,
,Scenes\028a.jpg,7,0,7,,,,,,,j,0.831842399999914,0.28736120000030496,None,,,,,,,7,0,7,0,112.78745630000049,,,,,,,,,,,,,,,,,,,,,,,112.77106670000012,112.78745630000049,113.3210493000006,113.27104860000054,,,,,,,,,,,,,,,,,,,,,,,,,,113.29999140000018,113.3210493000006,113.3210493000006,113.3210493000006,116.28743860000031,j,0.831842399999914,0.28736120000030496,116.28748450000057,116.28749500000049,None,,,,,,,,,,,,,,00009,001,2025-11-11_06h02.51.248,MST_task,2024.2.2,60.000204000391584,2025-11-11 06h02.56.255867 +0530,
,Scenes\058a.jpg,8,0,8,,,,,,,f,1.8910373999997319,0.23446599999988393,None,,,,,,,8,0,8,0,116.30402810000032,,,,,,,,,,,,,,,,,,,,,,,116.2875711000006,116.30402810000032,116.83732300000065,116.78751770000054,,,,,,,,,,,,,,,,,,,,,,,,,,116.8204521000007,116.83732300000065,116.83732300000065,116.83732300000065,119.80400869999994,f,1.8910373999997319,0.23446599999988393,119.80406089999997,119.8040718000002,None,,,,,,,,,,,,,,00009,001,2025-11-11_06h02.51.248,MST_task,2024.2.2,60.000204000391584,2025-11-11 06h02.56.255867 +0530,
,Scenes\176a.jpg,9,0,9,,,,,,,j,1.011800499999481,0.21752850000029866,None,,,,,,,9,0,9,0,119.82061030000023,,,,,,,,,,,,,,,,,,,,,,,119.80415080000057,119.82061030000023,120.33724680000068,120.30409250000048,,,,,,,,,,,,,,,,,,,,,,,,,,120.32686590000048,120.33724680000068,120.33724680000068,120.33724680000068,123.32062200000018,j,1.011800499999481,0.21752850000029866,123.32067270000061,123.3206839000004,None,,,,,,,,,,,,,,00009,001,2025-11-11_06h02.51.248,MST_task,2024.2.2,60.000204000391584,2025-11-11 06h02.56.255867 +0530,
,Scenes\100a.jpg,10,0,10,,,,,,,f,2.4057503000003635,0.2524368999993385,None,,,,,,,10,0,10,0,123.33716380000078,,,,,,,,,,,,,,,,,,,,,,,123.32076280000001,123.33716380000078,123.8706944000005,123.82068610000078,,,,,,,,,,,,,,,,,,,,,,,,,,123.85384150000027,123.8706944000005,123.8706944000005,123.8706944000005,126.8372459000002,f,2.4057503000003635,0.2524368999993385,126.83729550000044,126.83730640000067,None,,,,,,,,,,,,,,00009,001,2025-11-11_06h02.51.248,MST_task,2024.2.2,60.000204000391584,2025-11-11 06h02.56.255867 +0530,
,Scenes\018a.jpg,11,0,11,,,,,,,f,2.809212099999968,None,None,,,,,,,11,0,11,0,126.85379990000001,,,,,,,,,,,,,,,,,,,,,,,126.8373889000004,126.85379990000001,127.38710720000017,127.33733329999995,,,,,,,,,,,,,,,,,,,,,,,,,,127.36467859999993,127.38710720000017,127.38710720000017,127.38710720000017,130.35374370000045,f,2.809212099999968,None,130.35378860000037,130.35380350000014,None,,,,,,,,,,,,,,00009,001,2025-11-11_06h02.51.248,MST_task,2024.2.2,60.000204000391584,2025-11-11 06h02.56.255867 +0530,
,Scenes\105a.jpg,12,0,12,,,,,,,j,1.3089489000003596,0.1942027999994025,None,,,,,,,12,0,12,0,130.3704032000005,,,,,,,,,,,,,,,,,,,,,,,130.35386470000049,130.3704032000005,,130.85386170000038,,,,,,,,,,,,,,,,,,,,,,,,,,130.89058970000042,130.90365920000022,130.90365920000022,130.90365920000022,133.8704613,j,1.3089489000003596,0.1942027999994025,133.87051130000054,133.87052070000027,None,,,,,,,,,,,,,,00009,001,2025-11-11_06h02.51.248,MST_task,2024.2.2,60.000204000391584,2025-11-11 06h02.56.255867 +0530,
,Scenes\070a.jpg,13,0,13,,,,,,,None,,,f,None,None,,,,,13,0,13,0,133.8869598000001,,,,,,,,,,,,,,,,,,,,,,,133.87059810000028,133.8869598000001,134.4202464,134.37044640000022,,,,,,,,,,,,,,,,,,,,,,,,,,134.40577910000047,134.4202464,134.4202464,134.4202464,137.38691749999998,None,,,137.3869590000004,137.63742420000017,f,137.40355309999995,137.40355309999995,None,None,,,,,,,,,,00009,001,2025-11-11_06h02.51.248,MST_task,2024.2.2,60.000204000391584,2025-11-11 06h02.56.255867 +0530,
,Objects\176a.jpg,14,0,14,,,,,,,f,2.667457999999897,0.16322000000036496,None,,,,,,,14,0,14,0,137.65350860000035,,,,,,,,,,,,,,,,,,,,,,,137.6375181000003,137.65350860000035,138.17042390000006,138.13714030000028,,,,,,,,,,,,,,,,,,,,,,,,,,138.16376480000054,138.17042390000006,138.17042390000006,138.17042390000006,141.15354879999995,f,2.667457999999897,0.16322000000036496,141.1536012000006,141.15361190000021,None,,,,,,,,,,,,,,00009,001,2025-11-11_06h02.51.248,MST_task,2024.2.2,60.000204000391584,2025-11-11 06h02.56.255867 +0530,
,Objects\057a.jpg,15,0,15,,,,,,,f,1.2559989000001224,0.2147731000004569,None,,,,,,,15,0,15,0,141.1700993000004,,,,,,,,,,,,,,,,,,,,,,,141.15370640000037,141.1700993000004,141.68637990000025,141.65360300000066,,,,,,,,,,,,,,,,,,,,,,,,,,141.6830428000003,141.68637990000025,141.68637990000025,141.68637990000025,144.67007400000057,f,1.2559989000001224,0.2147731000004569,144.67012400000021,144.6701350000003,None,,,,,,,,,,,,,,00009,001,2025-11-11_06h02.51.248,MST_task,2024.2.2,60.000204000391584,2025-11-11 06h02.56.255867 +0530,
,Objects\115a.jpg,16,0,16,,,,,,,f,1.4191578999998455,0.18096090000017284,None,,,,,,,16,0,16,0,144.68670920000022,,,,,,,,,,,,,,,,,,,,,,,144.67019770000024,144.68670920000022,145.22001940000064,145.17015080000056,,,,,,,,,,,,,,,,,,,,,,,,,,145.20006400000057,145.22001940000064,145.22001940000064,145.22001940000064,148.1867028000006,f,1.4191578999998455,0.18096090000017284,148.18674800000008,148.18675910000002,None,,,,,,,,,,,,,,00009,001,2025-11-11_06h02.51.248,MST_task,2024.2.2,60.000204000391584,2025-11-11 06h02.56.255867 +0530,
,Objects\024a.jpg,17,0,17,,,,,,,f,1.4859515000007377,0.21889109999938228,None,,,,,,,17,0,17,0,148.20330580000063,,,,,,,,,,,,,,,,,,,,,,,148.18683130000045,148.20330580000063,148.71992040000077,148.68681240000024,,,,,,,,,,,,,,,,,,,,,,,,,,148.7121874000004,148.71992040000077,148.71992040000077,148.71992040000077,151.70339590000003,f,1.4859515000007377,0.21889109999938228,151.70344139999997,151.70345160000034,None,,,,,,,,,,,,,,00009,001,2025-11-11_06h02.51.248,MST_task,2024.2.2,60.000204000391584,2025-11-11 06h02.56.255867 +0530,
,Objects\083a.jpg,18,0,18,,,,,,,f,1.3662103999995452,0.19876269999986107,None,,,,,,,18,0,18,0,151.71989550000035,,,,,,,,,,,,,,,,,,,,,,,151.70352340000045,151.71989550000035,152.23654130000068,152.2033895000004,,,,,,,,,,,,,,,,,,,,,,,,,,152.21903500000008,152.23654130000068,152.23654130000068,152.23654130000068,155.21987630000058,f,1.3662103999995452,0.19876269999986107,155.21992630000022,155.21993790000033,None,,,,,,,,,,,,,,00009,001,2025-11-11_06h02.51.248,MST_task,2024.2.2,60.000204000391584,2025-11-11 06h02.56.255867 +0530,
,Objects\073a.jpg,19,0,19,,,,,,,f,1.2309479999994437,0.19858949999979814,None,,,,,,,19,0,19,0,155.23656530000062,,,,,,,,,,,,,,,,,,,,,,,155.22000130000015,155.23656530000062,155.75309840000045,155.7199229000007,,,,,,,,,,,,,,,,,,,,,,,,,,155.74511230000007,155.75309840000045,155.75309840000045,155.75309840000045,158.73643960000027,f,1.2309479999994437,0.19858949999979814,158.73650410000027,158.73651410000002,None,,,,,,,,,,,,,,00009,001,2025-11-11_06h02.51.248,MST_task,2024.2.2,60.000204000391584,2025-11-11 06h02.56.255867 +0530,
,Objects\036a.jpg,20,0,20,,,,,,,f,1.3911016000001837,0.13954709999961779,None,,,,,,,20,0,20,0,158.75309520000064,,,,,,,,,,,,,,,,,,,,,,,158.73659580000003,158.75309520000064,159.2696715000002,159.2365443000008,,,,,,,,,,,,,,,,,,,,,,,,,,159.26519030000054,159.2696715000002,159.2696715000002,159.2696715000002,162.25305030000072,f,1.3911016000001837,0.13954709999961779,162.25310250000075,162.2531138000004,None,,,,,,,,,,,,,,00009,001,2025-11-11_06h02.51.248,MST_task,2024.2.2,60.000204000391584,2025-11-11 06h02.56.255867 +0530,
,Scenes\149a.jpg,21,0,21,,,,,,,f,2.6778330999995887,0.22225350000007893,None,,,,,,,21,0,21,0,162.2696401000003,,,,,,,,,,,,,,,,,,,,,,,162.25317470000027,162.2696401000003,162.8029320000005,162.75314010000056,,,,,,,,,,,,,,,,,,,,,,,,,,162.78445499999998,162.8029320000005,162.8029320000005,162.8029320000005,165.76962810000077,f,2.6778330999995887,0.22225350000007893,165.76967380000042,165.76968430000034,None,,,,,,,,,,,,,,00009,001,2025-11-11_06h02.51.248,MST_task,2024.2.2,60.000204000391584,2025-11-11 06h02.56.255867 +0530,
,Scenes\013a.jpg,22,0,22,,,,,,,j,1.504834899999878,0.23983080000016344,None,,,,,,,22,0,22,0,165.78623640000023,,,,,,,,,,,,,,,,,,,,,,,165.76974300000074,165.78623640000023,166.31951650000065,166.2697960000005,,,,,,,,,,,,,,,,,,,,,,,,,,166.29685390000031,166.31951650000065,166.31951650000065,166.31951650000065,169.28621810000004,j,1.504834899999878,0.23983080000016344,169.28626350000013,169.28627480000068,None,,,,,,,,,,,,,,00009,001,2025-11-11_06h02.51.248,MST_task,2024.2.2,60.000204000391584,2025-11-11 06h02.56.255867 +0530,
,Scenes\184a.jpg,23,0,23,,,,,,,j,1.1866073000001052,0.2022532000000865,None,,,,,,,23,0,23,0,169.30277490000026,,,,,,,,,,,,,,,,,,,,,,,169.28635880000002,169.30277490000026,,169.78633890000037,,,,,,,,,,,,,,,,,,,,,,,,,,169.81034679999993,169.81945730000007,169.81945730000007,169.81945730000007,172.80277370000022,j,1.1866073000001052,0.2022532000000865,172.80281820000073,172.80282700000043,None,,,,,,,,,,,,,,00009,001,2025-11-11_06h02.51.248,MST_task,2024.2.2,60.000204000391584,2025-11-11 06h02.56.255867 +0530,
,Scenes\109a.jpg,24,0,24,,,,,,,j,1.4143753000007564,0.20981899999969755,None,,,,,,,24,0,24,0,172.8193981000004,,,,,,,,,,,,,,,,,,,,,,,172.8028832,172.8193981000004,,173.30285650000042,,,,,,,,,,,,,,,,,,,,,,,,,,173.32573980000052,173.3362829000007,173.3362829000007,173.3362829000007,176.3193428000004,j,1.4143753000007564,0.20981899999969755,176.3193882000005,176.3194014999999,None,,,,,,,,,,,,,,00009,001,2025-11-11_06h02.51.248,MST_task,2024.2.2,60.000204000391584,2025-11-11 06h02.56.255867 +0530,
,Scenes\086a.jpg,25,0,25,,,,,,,j,0.9809913999997661,0.16976169999998092,None,,,,,,,25,0,25,0,176.33598520000032,,,,,,,,,,,,,,,,,,,,,,,176.31946310000058,176.33598520000032,176.86930140000004,176.81947720000062,,,,,,,,,,,,,,,,,,,,,,,,,,176.8480595000001,176.86930140000004,176.86930140000004,176.86930140000004,179.8359805,j,0.9809913999997661,0.16976169999998092,179.8360319000003,179.8360433000007,None,,,,,,,,,,,,,,00009,001,2025-11-11_06h02.51.248,MST_task,2024.2.2,60.000204000391584,2025-11-11 06h02.56.255867 +0530,
,Scenes\012a.jpg,26,0,26,,,,,,,j,0.8428266000000804,0.18994339999972,None,,,,,,,26,0,26,0,179.8525806000007,,,,,,,,,,,,,,,,,,,,,,,179.83610620000036,179.8525806000007,180.38589780000075,180.33612390000053,,,,,,,,,,,,,,,,,,,,,,,,,,180.36562080000022,180.38589780000075,180.38589780000075,180.38589780000075,183.35256270000082,j,0.8428266000000804,0.18994339999972,183.35260990000006,183.35262000000057,None,,,,,,,,,,,,,,00009,001,2025-11-11_06h02.51.248,MST_task,2024.2.2,60.000204000391584,2025-11-11 06h02.56.255867 +0530,
,Scenes\017a.jpg,27,0,27,,,,,,,f,1.6470483999992211,0.18996960000004037,None,,,,,,,27,0,27,0,183.3691490000001,,,,,,,,,,,,,,,,,,,,,,,183.35269460000018,183.3691490000001,183.9028343,183.85263870000017,,,,,,,,,,,,,,,,,,,,,,,,,,183.88539300000048,183.9028343,183.9028343,183.9028343,186.86924190000082,f,1.6470483999992211,0.18996960000004037,186.8692955000006,186.86930630000006,None,,,,,,,,,,,,,,00009,001,2025-11-11_06h02.51.248,MST_task,2024.2.2,60.000204000391584,2025-11-11 06h02.56.255867 +0530,
,Objects\017a.jpg,28,0,28,,,,,,,f,2.0013235000005807,0.16604860000006738,None,,,,,,,28,0,28,0,186.8857448000008,,,,,,,,,,,,,,,,,,,,,,,186.8693858000006,186.8857448000008,187.4026184000004,187.3693127000006,,,,,,,,,,,,,,,,,,,,,,,,,,187.39630260000013,187.4026184000004,187.4026184000004,187.4026184000004,190.38583390000076,f,2.0013235000005807,0.16604860000006738,190.38588310000068,190.3858934,None,,,,,,,,,,,,,,00009,001,2025-11-11_06h02.51.248,MST_task,2024.2.2,60.000204000391584,2025-11-11 06h02.56.255867 +0530,
,Objects\180a.jpg,29,0,29,,,,,,,f,2.6838529999995444,0.15699339999991935,None,,,,,,,29,0,29,0,190.4023511000005,,,,,,,,,,,,,,,,,,,,,,,190.38595140000052,190.4023511000005,190.91894260000026,190.8858039000006,,,,,,,,,,,,,,,,,,,,,,,,,,190.9095440000001,190.91894260000026,190.91894260000026,190.91894260000026,193.91894180000054,f,2.6838529999995444,0.15699339999991935,193.91899319999993,193.91900450000048,None,,,,,,,,,,,,,,00009,001,2025-11-11_06h02.51.248,MST_task,2024.2.2,60.000204000391584,2025-11-11 06h02.56.255867 +0530,
,Objects\005a.jpg,30,0,30,,,,,,,f,1.047352900000078,0.1728661999995893,None,,,,,,,30,0,30,0,193.93557670000064,,,,,,,,,,,,,,,,,,,,,,,193.9190645000008,193.93557670000064,194.45182280000063,194.41903750000074,,,,,,,,,,,,,,,,,,,,,,,,,,194.44852750000064,194.45182280000063,194.45182280000063,194.45182280000063,197.43554740000036,f,1.047352900000078,0.1728661999995893,197.43561410000075,197.43562530000054,None,,,,,,,,,,,,,,00009,001,2025-11-11_06h02.51.248,MST_task,2024.2.2,60.000204000391584,2025-11-11 06h02.56.255867 +0530,
,Objects\103a.jpg,31,0,31,,,,,,,f,1.189448000000084,0.16616370000065217,None,,,,,,,31,0,31,0,197.4521289000004,,,,,,,,,,,,,,,,,,,,,,,197.43572510000013,197.4521289000004,197.9687902000005,197.93563919999997,,,,,,,,,,,,,,,,,,,,,,,,,,197.96412039999996,197.9687902000005,197.9687902000005,197.9687902000005,200.9521117000004,f,1.189448000000084,0.16616370000065217,200.9521575000008,200.9521676000004,None,,,,,,,,,,,,,,00009,001,2025-11-11_06h02.51.248,MST_task,2024.2.2,60.000204000391584,2025-11-11 06h02.56.255867 +0530,
,Objects\042a.jpg,32,0,32,,,,,,,None,,,f,0.06496860000061133,None,,,,,32,0,32,0,200.96874630000002,,,,,,,,,,,,,,,,,,,,,,,200.95224550000057,200.96874630000002,201.48537699999997,201.45218879999993,,,,,,,,,,,,,,,,,,,,,,,,,,201.47489980000046,201.48537699999997,201.48537699999997,201.48537699999997,204.46870510000008,None,,,204.46874800000023,204.55225289999998,f,204.48533450000014,204.48533450000014,0.06496860000061133,None,,,,,,,,,,00009,001,2025-11-11_06h02.51.248,MST_task,2024.2.2,60.000204000391584,2025-11-11 06h02.56.255867 +0530,
,Objects\116a.jpg,33,0,33,,,,,,,None,,,f,5.3889030000000275,None,,,,,33,0,33,0,204.56869030000053,,,,,,,,,,,,,,,,,,,,,,,204.55231750000075,204.56869030000053,205.08537220000017,205.0521047000002,,,,,,,,,,,,,,,,,,,,,,,,,,205.0804422000001,205.08537220000017,205.08537220000017,205.08537220000017,208.06862210000054,None,,,208.06866720000016,213.48539299999993,f,208.08524650000072,208.08524650000072,5.3889030000000275,None,,,,,,,,,,00009,001,2025-11-11_06h02.51.248,MST_task,2024.2.2,60.000204000391584,2025-11-11 06h02.56.255867 +0530,
,Objects\183a.jpg,34,0,34,,,,,,,f,2.027683000000252,0.14362269999946875,None,,,,,,,34,0,34,0,213.50179170000047,,,,,,,,,,,,,,,,,,,,,,,213.48551730000054,213.50179170000047,214.0184603000007,213.98538680000001,,,,,,,,,,,,,,,,,,,,,,,,,,214.01083540000036,214.0184603000007,214.0184603000007,214.0184603000007,217.00180750000072,f,2.027683000000252,0.14362269999946875,217.00185800000054,217.0018695000008,None,,,,,,,,,,,,,,00009,001,2025-11-11_06h02.51.248,MST_task,2024.2.2,60.000204000391584,2025-11-11 06h02.56.255867 +0530,
,Scenes\021a.jpg,35,0,35,,,,,,,j,2.137955199999851,0.2185036000000764,None,,,,,,,35,0,35,0,217.01838150000003,,,,,,,,,,,,,,,,,,,,,,,217.00194830000055,217.01838150000003,217.5520004,217.5020284000002,,,,,,,,,,,,,,,,,,,,,,,,,,217.53535720000036,217.5520004,217.5520004,217.5520004,220.51845560000038,j,2.137955199999851,0.2185036000000764,220.5185089000006,220.51851890000034,None,,,,,,,,,,,,,,00009,001,2025-11-11_06h02.51.248,MST_task,2024.2.2,60.000204000391584,2025-11-11 06h02.56.255867 +0530,
,Scenes\156a.jpg,36,0,36,,,,,,,j,1.4535724000006667,0.1454846999995425,None,,,,,,,36,0,36,0,220.53497180000068,,,,,,,,,,,,,,,,,,,,,,,220.51858119999997,220.53497180000068,221.05269060000046,221.01855960000012,,,,,,,,,,,,,,,,,,,,,,,,,,221.04221990000042,221.05269060000046,221.05269060000046,221.05269060000046,224.03505180000047,j,1.4535724000006667,0.1454846999995425,224.03509850000046,224.03510920000008,None,,,,,,,,,,,,,,00009,001,2025-11-11_06h02.51.248,MST_task,2024.2.2,60.000204000391584,2025-11-11 06h02.56.255867 +0530,
,Scenes\059a.jpg,37,0,37,,,,,,,j,0.9409253000003446,0.17884499999945547,None,,,,,,,37,0,37,0,224.05155020000075,,,,,,,,,,,,,,,,,,,,,,,224.0351829000001,224.05155020000075,224.58488130000023,224.53513920000023,,,,,,,,,,,,,,,,,,,,,,,,,,224.57099150000067,224.58488130000023,224.58488130000023,224.58488130000023,227.55151690000002,j,0.9409253000003446,0.17884499999945547,227.55157570000028,227.55158699999993,None,,,,,,,,,,,,,,00009,001,2025-11-11_06h02.51.248,MST_task,2024.2.2,60.000204000391584,2025-11-11 06h02.56.255867 +0530,
,Scenes\037a.jpg,38,0,38,,,,,,,f,2.354246300000341,0.20336980000047333,None,,,,,,,38,0,38,0,227.56814160000067,,,,,,,,,,,,,,,,,,,,,,,227.5516636000002,227.56814160000067,228.10166449999997,228.05176269999993,,,,,,,,,,,,,,,,,,,,,,,,,,228.08429660000002,228.10166449999997,228.10166449999997,228.10166449999997,231.06807890000073,f,2.354246300000341,0.20336980000047333,231.06813630000033,231.06814710000071,None,,,,,,,,,,,,,,00009,001,2025-11-11_06h02.51.248,MST_task,2024.2.2,60.000204000391584,2025-11-11 06h02.56.255867 +0530,
,Scenes\031a.jpg,39,0,39,,,,,,,f,2.11947119999968,0.1706677000001946,None,,,,,,,39,0,39,0,231.08482650000042,,,,,,,,,,,,,,,,,,,,,,,231.0682071000001,231.08482650000042,,231.56819500000074,,,,,,,,,,,,,,,,,,,,,,,,,,231.59588060000078,231.61839450000025,231.61839450000025,231.61839450000025,234.58471100000042,f,2.11947119999968,0.1706677000001946,234.58475760000056,234.58476690000043,None,,,,,,,,,,,,,,00009,001,2025-11-11_06h02.51.248,MST_task,2024.2.2,60.000204000391584,2025-11-11 06h02.56.255867 +0530,
,Scenes\023a.jpg,40,0,40,,,,,,,f,1.0131559999999808,0.21003729999938514,None,,,,,,,40,0,40,0,234.60127040000043,,,,,,,,,,,,,,,,,,,,,,,234.58484510000017,234.60127040000043,235.13494510000055,235.08477510000012,,,,,,,,,,,,,,,,,,,,,,,,,,235.1214619000002,235.13494510000055,235.13494510000055,235.13494510000055,238.1012881000006,f,1.0131559999999808,0.21003729999938514,238.10133630000018,238.10134710000057,None,,,,,,,,,,,,,,00009,001,2025-11-11_06h02.51.248,MST_task,2024.2.2,60.000204000391584,2025-11-11 06h02.56.255867 +0530,
,Scenes\102a.jpg,41,0,41,,,,,,,f,1.0974899000002551,0.20143889999962994,None,,,,,,,41,0,41,0,238.1178684000006,,,,,,,,,,,,,,,,,,,,,,,238.10142240000005,238.1178684000006,238.65118210000037,238.60137550000036,,,,,,,,,,,,,,,,,,,,,,,,,,238.63544230000025,238.65118210000037,238.65118210000037,238.65118210000037,241.61784239999997,f,1.0974899000002551,0.20143889999962994,241.61788849999994,241.61789930000032,None,,,,,,,,,,,,,,00009,001,2025-11-11_06h02.51.248,MST_task,2024.2.2,60.000204000391584,2025-11-11 06h02.56.255867 +0530,
,Objects\155a.jpg,42,0,42,,,,,,,f,1.3519882999999027,0.23063490000004094,None,,,,,,,42,0,42,0,241.63448440000047,,,,,,,,,,,,,,,,,,,,,,,241.61797240000033,241.63448440000047,242.1680406000005,242.11802239999997,,,,,,,,,,,,,,,,,,,,,,,,,,242.14933660000042,242.1680406000005,242.1680406000005,242.1680406000005,245.13453430000027,f,1.3519882999999027,0.23063490000004094,245.1345820000006,245.13459280000006,None,,,,,,,,,,,,,,00009,001,2025-11-11_06h02.51.248,MST_task,2024.2.2,60.000204000391584,2025-11-11 06h02.56.255867 +0530,
,Objects\091a.jpg,43,0,43,,,,,,,None,,,j,0.2844253999992361,None,,,,,43,0,43,0,245.15106110000033,,,,,,,,,,,,,,,,,,,,,,,245.13466830000016,245.15106110000033,245.66788170000018,245.6345833000005,,,,,,,,,,,,,,,,,,,,,,,,,,245.66088290000062,245.66788170000018,245.66788170000018,245.66788170000018,248.65115870000045,None,,,248.65120250000018,248.96811180000077,j,248.6676550000002,248.6676550000002,0.2844253999992361,None,,,,,,,,,,00009,001,2025-11-11_06h02.51.248,MST_task,2024.2.2,60.000204000391584,2025-11-11 06h02.56.255867 +0530,
,Objects\087a.jpg,44,0,44,,,,,,,j,2.3168031000004703,0.1065005000000383,None,,,,,,,44,0,44,0,248.98432000000048,,,,,,,,,,,,,,,,,,,,,,,248.96820730000036,248.98432000000048,249.5009351000008,249.46799080000073,,,,,,,,,,,,,,,,,,,,,,,,,,249.48930569999993,249.5009351000008,249.5009351000008,249.5009351000008,252.48438720000013,j,2.3168031000004703,0.1065005000000383,252.4844331000004,252.4844436000003,None,,,,,,,,,,,,,,00009,001,2025-11-11_06h02.51.248,MST_task,2024.2.2,60.000204000391584,2025-11-11 06h02.56.255867 +0530,
,Objects\178a.jpg,45,0,45,,,,,,,j,1.964762999999948,0.11030370000025869,None,,,,,,,45,0,45,0,252.5009058000005,,,,,,,,,,,,,,,,,,,,,,,252.48452670000006,252.5009058000005,253.0175573000006,252.98448090000056,,,,,,,,,,,,,,,,,,,,,,,,,,253.00108080000064,253.0175573000006,253.0175573000006,253.0175573000006,256.00089950000074,j,1.964762999999948,0.11030370000025869,256.0009692000003,256.00098080000043,None,,,,,,,,,,,,,,00009,001,2025-11-11_06h02.51.248,MST_task,2024.2.2,60.000204000391584,2025-11-11 06h02.56.255867 +0530,
,Objects\034a.jpg,46,0,46,,,,,,,f,2.6393183000000136,0.09760910000022704,None,,,,,,,46,0,46,0,256.01749050000035,,,,,,,,,,,,,,,,,,,,,,,256.0010512000008,256.01749050000035,256.5508030000001,256.5009491999999,,,,,,,,,,,,,,,,,,,,,,,,,,256.5312238000006,256.5508030000001,256.5508030000001,256.5508030000001,259.51749330000075,f,2.6393183000000136,0.09760910000022704,259.51754020000044,259.5175509999999,None,,,,,,,,,,,,,,00009,001,2025-11-11_06h02.51.248,MST_task,2024.2.2,60.000204000391584,2025-11-11 06h02.56.255867 +0530,
,Objects\003a.jpg,47,0,47,,,,,,,j,2.4691213999994943,0.19088840000040364,None,,,,,,,47,0,47,0,259.53408170000057,,,,,,,,,,,,,,,,,,,,,,,259.51763590000064,259.53408170000057,260.0507348000001,260.0175536000006,,,,,,,,,,,,,,,,,,,,,,,,,,260.04275880000023,260.0507348000001,260.0507348000001,260.0507348000001,263.0341378000003,j,2.4691213999994943,0.19088840000040364,263.0341885000007,263.0341988,None,,,,,,,,,,,,,,00009,001,2025-11-11_06h02.51.248,MST_task,2024.2.2,60.000204000391584,2025-11-11 06h02.56.255867 +0530,
,Objects\112a.jpg,48,0,48,,,,,,,f,0.6391532999996343,0.17005799999969895,None,,,,,,,48,0,48,0,263.0506395000002,,,,,,,,,,,,,,,,,,,,,,,263.034267,263.0506395000002,263.56731390000004,263.53413,,,,,,,,,,,,,,,,,,,,,,,,,,263.5589748000002,263.56731390000004,263.56731390000004,263.56731390000004,266.5507460000008,f,0.6391532999996343,0.17005799999969895,266.5507935000005,266.5508036000001,None,,,,,,,,,,,,,,00009,001,2025-11-11_06h02.51.248,MST_task,2024.2.2,60.000204000391584,2025-11-11 06h02.56.255867 +0530,
,Scenes\084a.jpg,49,0,49,,,,,,,j,1.3085640000008425,0.15801699999974517,None,,,,,,,49,0,49,0,266.56720530000075,,,,,,,,,,,,,,,,,,,,,,,266.5508613000002,266.56720530000075,267.0838973,267.0507789000003,,,,,,,,,,,,,,,,,,,,,,,,,,267.0706157000004,267.0838973,267.0838973,267.0838973,270.06717910000043,j,1.3085640000008425,0.15801699999974517,270.0672415000008,270.06725240000014,None,,,,,,,,,,,,,,00009,001,2025-11-11_06h02.51.248,MST_task,2024.2.2,60.000204000391584,2025-11-11 06h02.56.255867 +0530,
,Scenes\097a.jpg,50,0,50,,,,,,,f,2.941041299999597,None,None,,,,,,,50,0,50,0,270.0838313000004,,,,,,,,,,,,,,,,,,,,,,,270.0673716000001,270.0838313000004,270.60075600000073,270.5673962000001,,,,,,,,,,,,,,,,,,,,,,,,,,270.5922991000007,270.60075600000073,270.60075600000073,270.60075600000073,273.5838696999999,f,2.941041299999597,None,273.58391460000075,273.5839253000004,None,,,,,,,,,,,,,,00009,001,2025-11-11_06h02.51.248,MST_task,2024.2.2,60.000204000391584,2025-11-11 06h02.56.255867 +0530,
,Scenes\179a.jpg,51,0,51,,,,,,,j,0.8572584999992614,0.1811717000000499,None,,,,,,,51,0,51,0,273.6004223,,,,,,,,,,,,,,,,,,,,,,,273.58400060000076,273.6004223,274.1172912000002,274.08389010000064,,,,,,,,,,,,,,,,,,,,,,,,,,274.1057924000006,274.1172912000002,274.1172912000002,274.1172912000002,277.1003786000001,j,0.8572584999992614,0.1811717000000499,277.1004358,277.1004468000001,None,,,,,,,,,,,,,,00009,001,2025-11-11_06h02.51.248,MST_task,2024.2.2,60.000204000391584,2025-11-11 06h02.56.255867 +0530,
,Scenes\062a.jpg,52,0,52,,,,,,,j,1.8977580000000671,0.21134119999987888,None,,,,,,,52,0,52,0,277.11699510000017,,,,,,,,,,,,,,,,,,,,,,,277.1005152000007,277.11699510000017,277.65032340000016,277.6005144999999,,,,,,,,,,,,,,,,,,,,,,,,,,277.62921330000063,277.65032340000016,277.65032340000016,277.65032340000016,280.6170039000008,j,1.8977580000000671,0.21134119999987888,280.61706460000005,280.61707470000056,None,,,,,,,,,,,,,,00009,001,2025-11-11_06h02.51.248,MST_task,2024.2.2,60.000204000391584,2025-11-11 06h02.56.255867 +0530,
,Scenes\087a.jpg,53,0,53,,,,,,,j,0.7022387000006347,0.20550339999954303,None,,,,,,,53,0,53,0,280.6336074999999,,,,,,,,,,,,,,,,,,,,,,,280.6171475000001,280.6336074999999,281.15051680000033,281.1170793000001,,,,,,,,,,,,,,,,,,,,,,,,,,281.1325835000007,281.15051680000033,281.15051680000033,281.15051680000033,284.1336996,j,0.7022387000006347,0.20550339999954303,284.1337508000006,284.13376160000007,None,,,,,,,,,,,,,,00009,001,2025-11-11_06h02.51.248,MST_task,2024.2.2,60.000204000391584,2025-11-11 06h02.56.255867 +0530,
,Scenes\103a.jpg,54,0,54,,,,,,,j,1.0388529000001654,0.1937870000001567,None,,,,,,,54,0,54,0,284.15017680000074,,,,,,,,,,,,,,,,,,,,,,,284.13382510000065,284.15017680000074,284.6834542000006,284.6337155000001,,,,,,,,,,,,,,,,,,,,,,,,,,284.6607905000001,284.6834542000006,284.6834542000006,284.6834542000006,287.6501566000006,j,1.0388529000001654,0.1937870000001567,287.6502049999999,287.650216,None,,,,,,,,,,,,,,00009,001,2025-11-11_06h02.51.248,MST_task,2024.2.2,60.000204000391584,2025-11-11 06h02.56.255867 +0530,
,Scenes\073a.jpg,55,0,55,,,,,,,j,0.8166393000001335,0.1694949999991877,None,,,,,,,55,0,55,0,287.6667614000007,,,,,,,,,,,,,,,,,,,,,,,287.6502915000001,287.6667614000007,288.20006080000076,288.15021830000023,,,,,,,,,,,,,,,,,,,,,,,,,,288.1823028000008,288.20006080000076,288.20006080000076,288.20006080000076,291.1666842000004,j,0.8166393000001335,0.1694949999991877,291.16673080000055,291.1667416,None,,,,,,,,,,,,,,00009,001,2025-11-11_06h02.51.248,MST_task,2024.2.2,60.000204000391584,2025-11-11 06h02.56.255867 +0530,
,Objects\038a.jpg,56,0,56,,,,,,,f,1.5695322999999917,0.2183629999999539,None,,,,,,,56,0,56,0,291.1833398000008,,,,,,,,,,,,,,,,,,,,,,,291.16681470000003,291.1833398000008,291.70023200000014,291.6669141000002,,,,,,,,,,,,,,,,,,,,,,,,,,291.6914908000008,291.70023200000014,291.70023200000014,291.70023200000014,294.6833565000006,f,1.5695322999999917,0.2183629999999539,294.6834080000008,294.68341899999996,None,,,,,,,,,,,,,,00009,001,2025-11-11_06h02.51.248,MST_task,2024.2.2,60.000204000391584,2025-11-11 06h02.56.255867 +0530,
,Objects\086a.jpg,57,0,57,,,,,,,j,1.597278400000505,0.15057029999934457,None,,,,,,,57,0,57,0,294.6998934000003,,,,,,,,,,,,,,,,,,,,,,,294.6835095000006,294.6998934000003,295.2166433000002,295.18339319999995,,,,,,,,,,,,,,,,,,,,,,,,,,295.2093988000006,295.2166433000002,295.2166433000002,295.2166433000002,298.19990270000017,j,1.597278400000505,0.15057029999934457,298.1999512000002,298.19996340000034,None,,,,,,,,,,,,,,00009,001,2025-11-11_06h02.51.248,MST_task,2024.2.2,60.000204000391584,2025-11-11 06h02.56.255867 +0530,
,Objects\060a.jpg,58,0,58,,,,,,,f,0.871706599999925,0.221119799999542,None,,,,,,,58,0,58,0,298.2164711000005,,,,,,,,,,,,,,,,,,,,,,,298.20004490000065,298.2164711000005,298.7331563000007,298.6999465000008,,,,,,,,,,,,,,,,,,,,,,,,,,298.7164784000006,298.7331563000007,298.7331563000007,298.7331563000007,301.71656620000067,f,0.871706599999925,0.221119799999542,301.7166147000007,301.71662520000064,None,,,,,,,,,,,,,,00009,001,2025-11-11_06h02.51.248,MST_task,2024.2.2,60.000204000391584,2025-11-11 06h02.56.255867 +0530,
,Objects\185a.jpg,59,0,59,,,,,,,f,1.4526080000005095,0.20558399999936228,None,,,,,,,59,0,59,0,301.73312630000055,,,,,,,,,,,,,,,,,,,,,,,301.71668370000043,301.73312630000055,302.24971600000026,302.2166194000001,,,,,,,,,,,,,,,,,,,,,,,,,,302.2363983000005,302.24971600000026,302.24971600000026,302.24971600000026,305.2330658000001,f,1.4526080000005095,0.20558399999936228,305.2331144,305.2331251000005,None,,,,,,,,,,,,,,00009,001,2025-11-11_06h02.51.248,MST_task,2024.2.2,60.000204000391584,2025-11-11 06h02.56.255867 +0530,
,Objects\082a.jpg,60,0,60,,,,,,,f,2.864259800000582,None,None,,,,,,,60,0,60,0,305.24968850000005,,,,,,,,,,,,,,,,,,,,,,,305.2332019000005,305.24968850000005,305.7663865000004,305.7331795,,,,,,,,,,,,,,,,,,,,,,,,,,305.7596143999999,305.7663865000004,305.7663865000004,305.7663865000004,308.7496549000007,f,2.864259800000582,None,308.74971470000037,308.7497256000006,None,,,,,,,,,,,,,,00009,001,2025-11-11_06h02.51.248,MST_task,2024.2.2,60.000204000391584,2025-11-11 06h02.56.255867 +0530,
,Objects\066a.jpg,61,0,61,,,,,,,None,,,j,0.8829616000002716,None,,,,,61,0,61,0,308.76627520000056,,,,,,,,,,,,,,,,,,,,,,,308.74982180000006,308.76627520000056,309.28289740000037,309.2496970000002,,,,,,,,,,,,,,,,,,,,,,,,,,309.27894259999994,309.28289740000037,309.28289740000037,309.28289740000037,312.2663480000001,None,,,312.2663981000005,313.1668115000002,j,312.2828569000003,312.2828569000003,0.8829616000002716,None,,,,,,,,,,00009,001,2025-11-11_06h02.51.248,MST_task,2024.2.2,60.000204000391584,2025-11-11 06h02.56.255867 +0530,
,Objects\081a.jpg,62,0,62,,,,,,,None,,,j,0.06247259999963717,None,,,,,62,0,62,0,313.18283210000027,,,,,,,,,,,,,,,,,,,,,,,313.1668870000003,313.18283210000027,313.69949280000037,313.6663268000002,,,,,,,,,,,,,,,,,,,,,,,,,,313.68183990000034,313.69949280000037,313.69949280000037,313.69949280000037,316.6828036000006,None,,,316.68284720000065,316.76662699999997,j,316.6994158000007,316.6994158000007,0.06247259999963717,None,,,,,,,,,,00009,001,2025-11-11_06h02.51.248,MST_task,2024.2.2,60.000204000391584,2025-11-11 06h02.56.255867 +0530,
,Scenes\079a.jpg,63,0,63,,,,,,,j,0.7405876000002536,0.21817579999969894,None,,,,,,,63,0,63,0,316.78275120000035,,,,,,,,,,,,,,,,,,,,,,,316.7667039000007,316.78275120000035,317.2996752000008,317.2664127000007,,,,,,,,,,,,,,,,,,,,,,,,,,317.2925444000002,317.2996752000008,317.2996752000008,317.2996752000008,320.2829042000003,j,0.7405876000002536,0.21817579999969894,320.2829619000004,320.2829733000008,None,,,,,,,,,,,,,,00009,001,2025-11-11_06h02.51.248,MST_task,2024.2.2,60.000204000391584,2025-11-11 06h02.56.255867 +0530,
,Scenes\178a.jpg,64,0,64,,,,,,,j,1.0070347000000766,0.23587510000015754,None,,,,,,,64,0,64,0,320.2994230000004,,,,,,,,,,,,,,,,,,,,,,,320.2830612000007,320.2994230000004,320.83292359999996,320.7829534000002,,,,,,,,,,,,,,,,,,,,,,,,,,320.81126290000066,320.83292359999996,320.83292359999996,320.83292359999996,323.7994144000004,j,1.0070347000000766,0.23587510000015754,323.7994613999999,323.7994774000008,None,,,,,,,,,,,,,,00009,001,2025-11-11_06h02.51.248,MST_task,2024.2.2,60.000204000391584,2025-11-11 06h02.56.255867 +0530,
,Scenes\005a.jpg,65,0,65,,,,,,,f,1.9492319999999381,0.20159260000036738,None,,,,,,,65,0,65,0,323.8160396000003,,,,,,,,,,,,,,,,,,,,,,,323.79953430000023,323.8160396000003,324.34937919999993,324.29951580000034,,,,,,,,,,,,,,,,,,,,,,,,,,324.33411500000057,324.34937919999993,324.34937919999993,324.34937919999993,327.3160574000003,f,1.9492319999999381,0.20159260000036738,327.3160987000001,327.3161090000003,None,,,,,,,,,,,,,,00009,001,2025-11-11_06h02.51.248,MST_task,2024.2.2,60.000204000391584,2025-11-11 06h02.56.255867 +0530,
,Scenes\185a.jpg,66,0,66,,,,,,,j,1.0805934999998499,0.20664750000014465,None,,,,,,,66,0,66,0,327.33262790000026,,,,,,,,,,,,,,,,,,,,,,,327.3161620000001,327.33262790000026,327.8491883000006,327.81605670000044,,,,,,,,,,,,,,,,,,,,,,,,,,327.8424478000006,327.8491883000006,327.8491883000006,327.8491883000006,330.83253740000055,j,1.0805934999998499,0.20664750000014465,330.8325831000002,330.83259330000055,None,,,,,,,,,,,,,,00009,001,2025-11-11_06h02.51.248,MST_task,2024.2.2,60.000204000391584,2025-11-11 06h02.56.255867 +0530,
,Scenes\168a.jpg,67,0,67,,,,,,,j,0.8009726000000228,0.16879709999921033,None,,,,,,,67,0,67,0,330.84921530000065,,,,,,,,,,,,,,,,,,,,,,,330.83264790000067,330.84921530000065,331.36588480000046,331.33272490000036,,,,,,,,,,,,,,,,,,,,,,,,,,331.3553359000007,331.36588480000046,331.36588480000046,331.36588480000046,334.34917680000035,j,0.8009726000000228,0.16879709999921033,334.3492182,334.3492283000005,None,,,,,,,,,,,,,,00009,001,2025-11-11_06h02.51.248,MST_task,2024.2.2,60.000204000391584,2025-11-11 06h02.56.255867 +0530,
,Scenes\061a.jpg,68,0,68,,,,,,,j,0.7360423000000083,0.18621650000022782,None,,,,,,,68,0,68,0,334.36574070000006,,,,,,,,,,,,,,,,,,,,,,,334.34928450000007,334.36574070000006,,334.8492741,,,,,,,,,,,,,,,,,,,,,,,,,,334.8782787,334.88217370000075,334.88217370000075,334.88217370000075,337.8657262000006,j,0.7360423000000083,0.18621650000022782,337.8657742000005,337.8657839000007,None,,,,,,,,,,,,,,00009,001,2025-11-11_06h02.51.248,MST_task,2024.2.2,60.000204000391584,2025-11-11 06h02.56.255867 +0530,
,Scenes\111a.jpg,69,0,69,,,,,,,j,0.8714643999992404,0.19767570000021806,None,,,,,,,69,0,69,0,337.88233180000043,,,,,,,,,,,,,,,,,,,,,,,337.8658606000008,337.88233180000043,338.39883929999996,338.3658806000003,,,,,,,,,,,,,,,,,,,,,,,,,,338.39155650000066,338.39883929999996,338.39883929999996,338.39883929999996,341.3823009000007,j,0.8714643999992404,0.19767570000021806,341.38234620000003,341.3823560999999,None,,,,,,,,,,,,,,00009,001,2025-11-11_06h02.51.248,MST_task,2024.2.2,60.000204000391584,2025-11-11 06h02.56.255867 +0530,
,Objects\107a.jpg,70,0,70,,,,,,,f,0.7541215999999622,0.1964497000008123,None,,,,,,,70,0,70,0,341.3989833000005,,,,,,,,,,,,,,,,,,,,,,,341.3824112000002,341.3989833000005,341.9155875000006,341.8823542,,,,,,,,,,,,,,,,,,,,,,,,,,341.91110480000043,341.9155875000006,341.9155875000006,341.9155875000006,344.89892860000054,f,0.7541215999999622,0.1964497000008123,344.8990119,344.8990231000007,None,,,,,,,,,,,,,,00009,001,2025-11-11_06h02.51.248,MST_task,2024.2.2,60.000204000391584,2025-11-11 06h02.56.255867 +0530,
,Objects\152a.jpg,71,0,71,,,,,,,f,0.8799712999998519,0.22844030000032944,None,,,,,,,71,0,71,0,344.91555790000075,,,,,,,,,,,,,,,,,,,,,,,344.89911570000004,344.91555790000075,345.43214440000065,345.3989728000006,,,,,,,,,,,,,,,,,,,,,,,,,,345.42408200000045,345.43214440000065,345.43214440000065,345.43214440000065,348.4154051000005,f,0.8799712999998519,0.22844030000032944,348.41545420000057,348.41546610000023,None,,,,,,,,,,,,,,00009,001,2025-11-11_06h02.51.248,MST_task,2024.2.2,60.000204000391584,2025-11-11 06h02.56.255867 +0530,
,Objects\023a.jpg,72,0,72,,,,,,,f,0.8472127000004548,0.23437319999993633,None,,,,,,,72,0,72,0,348.4320234000006,,,,,,,,,,,,,,,,,,,,,,,348.4155522000001,348.4320234000006,348.9486442000007,348.9154932000001,,,,,,,,,,,,,,,,,,,,,,,,,,348.94055560000015,348.9486442000007,348.9486442000007,348.9486442000007,351.9321103000002,f,0.8472127000004548,0.23437319999993633,351.9321536000007,351.93216420000044,None,,,,,,,,,,,,,,00009,001,2025-11-11_06h02.51.248,MST_task,2024.2.2,60.000204000391584,2025-11-11 06h02.56.255867 +0530,
,Objects\025a.jpg,73,0,73,,,,,,,j,2.3025513999991745,0.17882250000002387,None,,,,,,,73,0,73,0,351.94857910000064,,,,,,,,,,,,,,,,,,,,,,,351.9322211000008,351.94857910000064,352.4652242000002,352.43215450000025,,,,,,,,,,,,,,,,,,,,,,,,,,352.4538755000003,352.4652242000002,352.4652242000002,352.4652242000002,355.4486816000008,j,2.3025513999991745,0.17882250000002387,355.4487306000001,355.44874100000015,None,,,,,,,,,,,,,,00009,001,2025-11-11_06h02.51.248,MST_task,2024.2.2,60.000204000391584,2025-11-11 06h02.56.255867 +0530,
,Objects\113a.jpg,74,0,74,,,,,,,f,1.4138912999997046,0.2139990999994552,None,,,,,,,74,0,74,0,355.46519100000023,,,,,,,,,,,,,,,,,,,,,,,355.4488151000005,355.46519100000023,355.9818107000001,355.94880420000027,,,,,,,,,,,,,,,,,,,,,,,,,,355.9720259000005,355.9818107000001,355.9818107000001,355.9818107000001,358.9651633000003,f,1.4138912999997046,0.2139990999994552,358.9652206999999,358.9652308000004,None,,,,,,,,,,,,,,00009,001,2025-11-11_06h02.51.248,MST_task,2024.2.2,60.000204000391584,2025-11-11 06h02.56.255867 +0530,
,Objects\078a.jpg,75,0,75,,,,,,,j,1.5560334000001603,0.19859730000007403,None,,,,,,,75,0,75,0,358.98178160000043,,,,,,,,,,,,,,,,,,,,,,,358.96529050000026,358.98178160000043,359.4984035000007,359.4652581,,,,,,,,,,,,,,,,,,,,,,,,,,359.4883501000004,359.4984035000007,359.4984035000007,359.4984035000007,362.48174350000045,j,1.5560334000001603,0.19859730000007403,362.48179530000016,362.4818077,None,,,,,,,,,,,,,,00009,001,2025-11-11_06h02.51.248,MST_task,2024.2.2,60.000204000391584,2025-11-11 06h02.56.255867 +0530,
,Objects\029a.jpg,76,0,76,,,,,,,f,1.375366600000234,0.1782095999997182,None,,,,,,,76,0,76,0,362.49837190000017,,,,,,,,,,,,,,,,,,,,,,,362.4818969000007,362.49837190000017,363.0150031000003,362.98199079999995,,,,,,,,,,,,,,,,,,,,,,,,,,362.99844720000056,363.0150031000003,363.0150031000003,363.0150031000003,365.99832719999995,f,1.375366600000234,0.1782095999997182,365.9983787000001,365.99839020000036,None,,,,,,,,,,,,,,00009,001,2025-11-11_06h02.51.248,MST_task,2024.2.2,60.000204000391584,2025-11-11 06h02.56.255867 +0530,
,Scenes\050a.jpg,77,0,77,,,,,,,j,0.704168799999934,0.2252490000000762,None,,,,,,,77,0,77,0,366.01491090000036,,,,,,,,,,,,,,,,,,,,,,,365.99847560000035,366.01491090000036,366.5482294000003,366.4985064000002,,,,,,,,,,,,,,,,,,,,,,,,,,366.52888450000046,366.5482294000003,366.5482294000003,366.5482294000003,369.5150469,j,0.704168799999934,0.2252490000000762,369.51510320000034,369.51511520000076,None,,,,,,,,,,,,,,00009,001,2025-11-11_06h02.51.248,MST_task,2024.2.2,60.000204000391584,2025-11-11 06h02.56.255867 +0530,
,Scenes\129a.jpg,78,0,78,,,,,,,j,1.1602386000004117,0.2103452000001198,None,,,,,,,78,0,78,0,369.5314924000004,,,,,,,,,,,,,,,,,,,,,,,369.5152039000004,369.5314924000004,370.04779770000005,370.0150659000001,,,,,,,,,,,,,,,,,,,,,,,,,,370.0401935,370.04779770000005,370.04779770000005,370.04779770000005,373.03162500000053,j,1.1602386000004117,0.2103452000001198,373.03167120000035,373.03168150000056,None,,,,,,,,,,,,,,00009,001,2025-11-11_06h02.51.248,MST_task,2024.2.2,60.000204000391584,2025-11-11 06h02.56.255867 +0530,
,Scenes\052a.jpg,79,0,79,,,,,,,j,1.50924329999998,0.2079329999996844,None,,,,,,,79,0,79,0,373.04811530000006,,,,,,,,,,,,,,,,,,,,,,,373.0317455000004,373.04811530000006,373.58141720000003,373.5315380000002,,,,,,,,,,,,,,,,,,,,,,,,,,373.56231320000006,373.58141720000003,373.58141720000003,373.58141720000003,376.5480881000003,j,1.50924329999998,0.2079329999996844,376.54813300000023,376.5481432000006,None,,,,,,,,,,,,,,00009,001,2025-11-11_06h02.51.248,MST_task,2024.2.2,60.000204000391584,2025-11-11 06h02.56.255867 +0530,
,Scenes\036a.jpg,80,0,80,,,,,,,j,1.9162953999993988,0.21996190000027127,None,,,,,,,80,0,80,0,376.5646704999999,,,,,,,,,,,,,,,,,,,,,,,376.5482060000004,376.5646704999999,377.0815061000003,377.0481647000006,,,,,,,,,,,,,,,,,,,,,,,,,,377.0702917000008,377.0815061000003,377.0815061000003,377.0815061000003,380.0647005000001,j,1.9162953999993988,0.21996190000027127,380.06474980000075,380.0647607000001,None,,,,,,,,,,,,,,00009,001,2025-11-11_06h02.51.248,MST_task,2024.2.2,60.000204000391584,2025-11-11 06h02.56.255867 +0530,
,Scenes\042a.jpg,81,0,81,,,,,,,j,1.4733657000006133,0.20578329999989364,None,,,,,,,81,0,81,0,380.0812882,,,,,,,,,,,,,,,,,,,,,,,380.0648218000006,380.0812882,380.61462590000065,380.5647622000006,,,,,,,,,,,,,,,,,,,,,,,,,,380.5970646000005,380.61462590000065,380.61462590000065,380.61462590000065,383.5813902,j,1.4733657000006133,0.20578329999989364,383.5814390000005,383.58144919999995,None,,,,,,,,,,,,,,00009,001,2025-11-11_06h02.51.248,MST_task,2024.2.2,60.000204000391584,2025-11-11 06h02.56.255867 +0530,
,Scenes\125a.jpg,82,0,82,,,,,,,j,0.96449819999998,0.16264779999983148,None,,,,,,,82,0,82,0,383.5978679,,,,,,,,,,,,,,,,,,,,,,,383.5815072000005,383.5978679,384.13120190000063,384.08135459999994,,,,,,,,,,,,,,,,,,,,,,,,,,384.1131013000004,384.13120190000063,384.13120190000063,384.13120190000063,387.09783310000057,j,0.96449819999998,0.16264779999983148,387.0978797000007,387.09788970000045,None,,,,,,,,,,,,,,00009,001,2025-11-11_06h02.51.248,MST_task,2024.2.2,60.000204000391584,2025-11-11 06h02.56.255867 +0530,
,Scenes\131a.jpg,83,0,83,,,,,,,j,0.6301685000007637,0.16053789999932633,None,,,,,,,83,0,83,0,387.11445730000014,,,,,,,,,,,,,,,,,,,,,,,387.09796200000073,387.11445730000014,387.6313190999999,387.5979519000002,,,,,,,,,,,,,,,,,,,,,,,,,,387.6221802,387.6313190999999,387.6313190999999,387.6313190999999,390.61442870000064,j,0.6301685000007637,0.16053789999932633,390.6144739000001,390.61448420000033,None,,,,,,,,,,,,,,00009,001,2025-11-11_06h02.51.248,MST_task,2024.2.2,60.000204000391584,2025-11-11 06h02.56.255867 +0530,
,Objects\075a.jpg,84,0,84,,,,,,,f,1.1877585000002,0.2183125999999902,None,,,,,,,84,0,84,0,390.6310272999999,,,,,,,,,,,,,,,,,,,,,,,390.6145475000003,390.6310272999999,391.14788150000004,391.11453299999994,,,,,,,,,,,,,,,,,,,,,,,,,,391.1359687000004,391.14788150000004,391.14788150000004,391.14788150000004,394.1310919000007,f,1.1877585000002,0.2183125999999902,394.1311409,394.1311517000004,None,,,,,,,,,,,,,,00009,001,2025-11-11_06h02.51.248,MST_task,2024.2.2,60.000204000391584,2025-11-11 06h02.56.255867 +0530,
,Objects\139a.jpg,85,0,85,,,,,,,f,1.342333000000508,0.18568090000007942,None,,,,,,,85,0,85,0,394.1476399000003,,,,,,,,,,,,,,,,,,,,,,,394.1312286000002,394.1476399000003,394.6642930000007,394.6311330000008,,,,,,,,,,,,,,,,,,,,,,,,,,394.6538577000001,394.6642930000007,394.6642930000007,394.6642930000007,397.64772150000044,f,1.342333000000508,0.18568090000007942,397.6477663000005,397.64777700000013,None,,,,,,,,,,,,,,00009,001,2025-11-11_06h02.51.248,MST_task,2024.2.2,60.000204000391584,2025-11-11 06h02.56.255867 +0530,
,Objects\136a.jpg,86,0,86,,,,,,,f,0.8230289000002813,0.2303117999999813,None,,,,,,,86,0,86,0,397.6641840000002,,,,,,,,,,,,,,,,,,,,,,,397.64783480000006,397.6641840000002,398.1808802000005,398.14780640000026,,,,,,,,,,,,,,,,,,,,,,,,,,398.1708651000008,398.1808802000005,398.1808802000005,398.1808802000005,401.1641946,f,0.8230289000002813,0.2303117999999813,401.1642373000004,401.1642474,None,,,,,,,,,,,,,,00009,001,2025-11-11_06h02.51.248,MST_task,2024.2.2,60.000204000391584,2025-11-11 06h02.56.255867 +0530,
,Objects\006a.jpg,87,0,87,,,,,,,None,,,f,0.021547600000303646,None,,,,,87,0,87,0,401.18076700000074,,,,,,,,,,,,,,,,,,,,,,,401.16432130000067,401.18076700000074,401.6974415000004,401.66425290000006,,,,,,,,,,,,,,,,,,,,,,,,,,401.68072610000036,401.6974415000004,401.6974415000004,401.6974415000004,404.68073710000044,None,,,404.6807767,404.7309382000003,f,404.6982342000001,404.6982342000001,0.021547600000303646,None,,,,,,,,,,00009,001,2025-11-11_06h02.51.248,MST_task,2024.2.2,60.000204000391584,2025-11-11 06h02.56.255867 +0530,
,Objects\032a.jpg,88,0,88,,,,,,,j,0.9198162000002412,0.17810430000008637,None,,,,,,,88,0,88,0,404.7474213000005,,,,,,,,,,,,,,,,,,,,,,,404.7310055000007,404.7474213000005,405.2640138000006,405.2308705000005,,,,,,,,,,,,,,,,,,,,,,,,,,405.25266379999994,405.2640138000006,405.2640138000006,405.2640138000006,408.24735620000047,j,0.9198162000002412,0.17810430000008637,408.2474067000003,408.2474179999999,None,,,,,,,,,,,,,,00009,001,2025-11-11_06h02.51.248,MST_task,2024.2.2,60.000204000391584,2025-11-11 06h02.56.255867 +0530,
,Objects\187a.jpg,89,0,89,,,,,,,f,2.639958900000238,0.16307489999962854,None,,,,,,,89,0,89,0,408.2640287000004,,,,,,,,,,,,,,,,,,,,,,,408.2474983000002,408.2640287000004,408.78059200000007,408.7475503000005,,,,,,,,,,,,,,,,,,,,,,,,,,408.77015400000073,408.78059200000007,408.78059200000007,408.78059200000007,411.76401160000023,f,2.639958900000238,0.16307489999962854,411.76406600000064,411.7640777000006,None,,,,,,,,,,,,,,00009,001,2025-11-11_06h02.51.248,MST_task,2024.2.2,60.000204000391584,2025-11-11 06h02.56.255867 +0530,
,Objects\069a.jpg,90,0,90,,,,,,,j,1.507192899999609,0.2296773000007306,None,,,,,,,90,0,90,0,411.7807528000003,,,,,,,,,,,,,,,,,,,,,,,411.76415330000054,411.7807528000003,412.2972451000005,412.26418060000015,,,,,,,,,,,,,,,,,,,,,,,,,,412.2873960000006,412.2972451000005,412.2972451000005,412.2972451000005,415.2805324000001,j,1.507192899999609,0.2296773000007306,415.2805754000001,415.28058560000045,None,,,,,,,,,,,,,,00009,001,2025-11-11_06h02.51.248,MST_task,2024.2.2,60.000204000391584,2025-11-11 06h02.56.255867 +0530,
,Scenes\068a.jpg,91,0,91,,,,,,,j,1.7036731000007421,0.1557807999997749,None,,,,,,,91,0,91,0,415.2971271000006,,,,,,,,,,,,,,,,,,,,,,,415.2806578,415.2971271000006,415.83046680000007,415.78061330000037,,,,,,,,,,,,,,,,,,,,,,,,,,415.8112617000006,415.83046680000007,415.83046680000007,415.83046680000007,418.79707810000036,j,1.7036731000007421,0.1557807999997749,418.7971255000002,418.79713620000075,None,,,,,,,,,,,,,,00009,001,2025-11-11_06h02.51.248,MST_task,2024.2.2,60.000204000391584,2025-11-11 06h02.56.255867 +0530,
,Scenes\066a.jpg,92,0,92,,,,,,,j,2.192451699999765,0.15822709999974904,None,,,,,,,92,0,92,0,418.81373500000063,,,,,,,,,,,,,,,,,,,,,,,418.7972128000001,418.81373500000063,419.34747360000074,419.29727640000056,,,,,,,,,,,,,,,,,,,,,,,,,,419.3412463000004,419.34747360000074,419.34747360000074,419.34747360000074,422.31373990000066,j,2.192451699999765,0.15822709999974904,422.3137841000007,422.31379410000045,None,,,,,,,,,,,,,,00009,001,2025-11-11_06h02.51.248,MST_task,2024.2.2,60.000204000391584,2025-11-11 06h02.56.255867 +0530,
,Scenes\121a.jpg,93,0,93,,,,,,,j,0.7540933999998742,0.13788580000073125,None,,,,,,,93,0,93,0,422.3304502000001,,,,,,,,,,,,,,,,,,,,,,,422.3138673000003,422.3304502000001,422.8636987,422.81398609999997,,,,,,,,,,,,,,,,,,,,,,,,,,422.84856860000036,422.8636987,422.8636987,422.8636987,425.8304035000001,j,0.7540933999998742,0.13788580000073125,425.83045010000023,425.8304603000006,None,,,,,,,,,,,,,,00009,001,2025-11-11_06h02.51.248,MST_task,2024.2.2,60.000204000391584,2025-11-11 06h02.56.255867 +0530,
,Scenes\025a.jpg,94,0,94,,,,,,,j,0.617561800000658,0.15986209999937273,None,,,,,,,94,0,94,0,425.8470257000008,,,,,,,,,,,,,,,,,,,,,,,425.8305313999999,425.8470257000008,426.3805559000002,426.33054080000056,,,,,,,,,,,,,,,,,,,,,,,,,,426.36207060000015,426.3805559000002,426.3805559000002,426.3805559000002,429.3469180000002,j,0.617561800000658,0.15986209999937273,429.34696040000017,429.3469705000007,None,,,,,,,,,,,,,,00009,001,2025-11-11_06h02.51.248,MST_task,2024.2.2,60.000204000391584,2025-11-11 06h02.56.255867 +0530,
,Scenes\177a.jpg,95,0,95,,,,,,,j,0.6713153999999122,0.16615700000056677,None,,,,,,,95,0,95,0,429.3636318000008,,,,,,,,,,,,,,,,,,,,,,,429.34702760000073,429.3636318000008,429.89695440000014,429.8471948000006,,,,,,,,,,,,,,,,,,,,,,,,,,429.8785488000003,429.89695440000014,429.89695440000014,429.89695440000014,432.86354030000075,j,0.6713153999999122,0.16615700000056677,432.8635840000006,432.8636004,None,,,,,,,,,,,,,,00009,001,2025-11-11_06h02.51.248,MST_task,2024.2.2,60.000204000391584,2025-11-11 06h02.56.255867 +0530,
,Scenes\075a.jpg,96,0,96,,,,,,,j,0.6931322999998883,0.22579270000005636,None,,,,,,,96,0,96,0,432.88022309999997,,,,,,,,,,,,,,,,,,,,,,,432.8636572000005,432.88022309999997,433.39679140000044,433.36370420000003,,,,,,,,,,,,,,,,,,,,,,,,,,433.38907990000007,433.39679140000044,433.39679140000044,433.39679140000044,436.3801246000003,j,0.6931322999998883,0.22579270000005636,436.38016680000055,436.38017670000045,None,,,,,,,,,,,,,,00009,001,2025-11-11_06h02.51.248,MST_task,2024.2.2,60.000204000391584,2025-11-11 06h02.56.255867 +0530,
,Scenes\160a.jpg,97,0,97,,,,,,,j,1.3070842999995875,0.18520470000021305,None,,,,,,,97,0,97,0,436.3967999000006,,,,,,,,,,,,,,,,,,,,,,,436.3802542000003,436.3967999000006,436.91342930000064,436.8803340000004,,,,,,,,,,,,,,,,,,,,,,,,,,436.90025890000015,436.91342930000064,436.91342930000064,436.91342930000064,439.89672640000026,j,1.3070842999995875,0.18520470000021305,439.89676860000054,439.8967788,None,,,,,,,,,,,,,,00009,001,2025-11-11_06h02.51.248,MST_task,2024.2.2,60.000204000391584,2025-11-11 06h02.56.255867 +0530,
,Objects\031a.jpg,98,0,98,,,,,,,f,0.6279403000007733,0.20836679999956687,None,,,,,,,98,0,98,0,439.91333120000036,,,,,,,,,,,,,,,,,,,,,,,439.8968521000006,439.91333120000036,440.43020720000004,440.3969603000005,,,,,,,,,,,,,,,,,,,,,,,,,,440.4215541000003,440.43020720000004,440.43020720000004,440.43020720000004,443.4133317000005,f,0.6279403000007733,0.20836679999956687,443.4133718000003,443.41338630000064,None,,,,,,,,,,,,,,00009,001,2025-11-11_06h02.51.248,MST_task,2024.2.2,60.000204000391584,2025-11-11 06h02.56.255867 +0530,
,Objects\098a.jpg,99,0,99,,,,,,,f,1.7976802000002863,0.24690889999965293,None,,,,,,,99,0,99,0,443.42989000000034,,,,,,,,,,,,,,,,,,,,,,,443.413458,443.42989000000034,443.9466140000004,443.913364,,,,,,,,,,,,,,,,,,,,,,,,,,443.93970870000066,443.9466140000004,443.9466140000004,443.9466140000004,446.9299009000006,f,1.7976802000002863,0.24690889999965293,446.9299419000008,446.92995240000073,None,,,,,,,,,,,,,,00009,001,2025-11-11_06h02.51.248,MST_task,2024.2.2,60.000204000391584,2025-11-11 06h02.56.255867 +0530,
,Objects\181a.jpg,100,0,100,,,,,,,j,1.2573014999998122,0.18974969999999303,None,,,,,,,100,0,100,0,446.94647580000037,,,,,,,,,,,,,,,,,,,,,,,446.93002460000025,446.94647580000037,447.46321100000023,447.4300135000003,,,,,,,,,,,,,,,,,,,,,,,,,,447.45424770000045,447.46321100000023,447.46321100000023,447.46321100000023,450.4464299000001,j,1.2573014999998122,0.18974969999999303,450.44647110000005,450.4464813000004,None,,,,,,,,,,,,,,00009,001,2025-11-11_06h02.51.248,MST_task,2024.2.2,60.000204000391584,2025-11-11 06h02.56.255867 +0530,
,Objects\105a.jpg,101,0,101,,,,,,,f,1.4888351999998122,0.21661039999980858,None,,,,,,,101,0,101,0,450.46313350000037,,,,,,,,,,,,,,,,,,,,,,,450.4465401000007,450.46313350000037,450.99638030000006,450.9466116000003,,,,,,,,,,,,,,,,,,,,,,,,,,450.97665770000003,450.99638030000006,450.99638030000006,450.99638030000006,453.96302340000057,f,1.4888351999998122,0.21661039999980858,453.96309160000055,453.9631165999999,None,,,,,,,,,,,,,,00009,001,2025-11-11_06h02.51.248,MST_task,2024.2.2,60.000204000391584,2025-11-11 06h02.56.255867 +0530,
,Objects\001a.jpg,102,0,102,,,,,,,f,1.190084200000456,0.23216429999956745,None,,,,,,,102,0,102,0,453.9797116,,,,,,,,,,,,,,,,,,,,,,,453.9631870000003,453.9797116,454.4962991000002,454.4631790000003,,,,,,,,,,,,,,,,,,,,,,,,,,454.4782406000004,454.4962991000002,454.4962991000002,454.4962991000002,457.4796604000003,f,1.190084200000456,0.23216429999956745,457.47971300000063,457.47972329999993,None,,,,,,,,,,,,,,00009,001,2025-11-11_06h02.51.248,MST_task,2024.2.2,60.000204000391584,2025-11-11 06h02.56.255867 +0530,
,Objects\007a.jpg,103,0,103,,,,,,,f,1.2524891000002754,0.1810472999995909,None,,,,,,,103,0,103,0,457.4962979000002,,,,,,,,,,,,,,,,,,,,,,,457.47977960000026,457.4962979000002,458.01288250000016,457.97991960000036,,,,,,,,,,,,,,,,,,,,,,,,,,458.0050172000001,458.01288250000016,458.01288250000016,458.01288250000016,460.99626890000036,f,1.2524891000002754,0.1810472999995909,460.9963196000008,460.9963301000007,None,,,,,,,,,,,,,,00009,001,2025-11-11_06h02.51.248,MST_task,2024.2.2,60.000204000391584,2025-11-11 06h02.56.255867 +0530,
,Objects\133a.jpg,104,0,104,,,,,,,f,1.6861134999999194,0.15855509999983042,None,,,,,,,104,0,104,0,461.01282320000064,,,,,,,,,,,,,,,,,,,,,,,460.9963858000001,461.01282320000064,461.52954730000056,461.4962923000003,,,,,,,,,,,,,,,,,,,,,,,,,,461.5123736000005,461.52954730000056,461.52954730000056,461.52954730000056,464.5128317000008,f,1.6861134999999194,0.15855509999983042,464.51287649999995,464.5128865000006,None,,,,,,,,,,,,,,00009,001,2025-11-11_06h02.51.248,MST_task,2024.2.2,60.000204000391584,2025-11-11 06h02.56.255867 +0530,
,Scenes\026a.jpg,105,0,105,,,,,,,j,0.9389283000000432,0.1862593999994715,None,,,,,,,105,0,105,0,464.5294683000002,,,,,,,,,,,,,,,,,,,,,,,464.51294640000015,464.5294683000002,465.0631546000004,465.0128710000008,,,,,,,,,,,,,,,,,,,,,,,,,,465.0455703000007,465.0631546000004,465.0631546000004,465.0631546000004,468.02933460000077,j,0.9389283000000432,0.1862593999994715,468.0293977000001,468.02942710000025,None,,,,,,,,,,,,,,00009,001,2025-11-11_06h02.51.248,MST_task,2024.2.2,60.000204000391584,2025-11-11 06h02.56.255867 +0530,
,Scenes\162a.jpg,106,0,106,,,,,,,j,1.6551702999995541,0.12549200000012206,None,,,,,,,106,0,106,0,468.04595599999993,,,,,,,,,,,,,,,,,,,,,,,468.0295111000005,468.04595599999993,468.5795289000007,468.5295851000001,,,,,,,,,,,,,,,,,,,,,,,,,,468.5592796000001,468.5795289000007,468.5795289000007,468.5795289000007,471.54587770000035,j,1.6551702999995541,0.12549200000012206,471.5459219000004,471.54593320000004,None,,,,,,,,,,,,,,00009,001,2025-11-11_06h02.51.248,MST_task,2024.2.2,60.000204000391584,2025-11-11 06h02.56.255867 +0530,
,Scenes\180a.jpg,107,0,107,,,,,,,j,2.020004799999697,0.15795710000020335,None,,,,,,,107,0,107,0,471.56251969999994,,,,,,,,,,,,,,,,,,,,,,,471.5460085000004,471.56251969999994,472.0958706000001,472.0460485000003,,,,,,,,,,,,,,,,,,,,,,,,,,472.0742155000007,472.0958706000001,472.0958706000001,472.0958706000001,475.0625256000003,j,2.020004799999697,0.15795710000020335,475.0625677000007,475.0625774,None,,,,,,,,,,,,,,00009,001,2025-11-11_06h02.51.248,MST_task,2024.2.2,60.000204000391584,2025-11-11 06h02.56.255867 +0530,
,Scenes\010a.jpg,108,0,108,,,,,,,j,1.3394316000003528,0.20811129999947298,None,,,,,,,108,0,108,0,475.07910119999997,,,,,,,,,,,,,,,,,,,,,,,475.0626350000002,475.07910119999997,475.61238800000046,475.5626452000006,,,,,,,,,,,,,,,,,,,,,,,,,,475.5944276,475.61238800000046,475.61238800000046,475.61238800000046,478.5790730000008,j,1.3394316000003528,0.20811129999947298,478.5791143000006,478.5791241000006,None,,,,,,,,,,,,,,00009,001,2025-11-11_06h02.51.248,MST_task,2024.2.2,60.000204000391584,2025-11-11 06h02.56.255867 +0530,
,Scenes\107a.jpg,109,0,109,,,,,,,j,1.443435799999861,0.18630410000059783,None,,,,,,,109,0,109,0,478.59576880000077,,,,,,,,,,,,,,,,,,,,,,,478.5791956000003,478.59576880000077,479.1123068000006,479.07928300000003,,,,,,,,,,,,,,,,,,,,,,,,,,479.10214050000013,479.1123068000006,479.1123068000006,479.1123068000006,482.0957003000003,j,1.443435799999861,0.18630410000059783,482.0957612000002,482.0957821000002,None,,,,,,,,,,,,,,00009,001,2025-11-11_06h02.51.248,MST_task,2024.2.2,60.000204000391584,2025-11-11 06h02.56.255867 +0530,
,Scenes\019a.jpg,110,0,110,,,,,,,None,,,f,0.7787679000002754,None,,,,,110,0,110,0,482.11227430000054,,,,,,,,,,,,,,,,,,,,,,,482.09584970000014,482.11227430000054,482.64555910000036,482.59572190000017,,,,,,,,,,,,,,,,,,,,,,,,,,482.6255688000001,482.64555910000036,482.64555910000036,482.64555910000036,485.61231660000067,None,,,485.61236480000025,486.41260630000033,f,485.62885780000033,485.62885780000033,0.7787679000002754,None,,,,,,,,,,00009,001,2025-11-11_06h02.51.248,MST_task,2024.2.2,60.000204000391584,2025-11-11 06h02.56.255867 +0530,
,Scenes\164a.jpg,111,0,111,,,,,,,j,0.8609650000007605,0.2474616999998034,None,,,,,,,111,0,111,0,486.4288069000004,,,,,,,,,,,,,,,,,,,,,,,486.41268020000007,486.4288069000004,486.9450805000006,486.9123055,,,,,,,,,,,,,,,,,,,,,,,,,,486.9379162000005,486.9450805000006,486.9450805000006,486.9450805000006,489.92881470000066,j,0.8609650000007605,0.2474616999998034,489.9288679000001,489.92887990000054,None,,,,,,,,,,,,,,00009,001,2025-11-11_06h02.51.248,MST_task,2024.2.2,60.000204000391584,2025-11-11 06h02.56.255867 +0530,
,Objects\053a.jpg,112,0,112,,,,,,,f,1.3311498999992182,0.18536810000023252,None,,,,,,,112,0,112,0,489.9454284000003,,,,,,,,,,,,,,,,,,,,,,,489.92894479999995,489.9454284000003,490.47904259999996,490.4289004000002,,,,,,,,,,,,,,,,,,,,,,,,,,490.4624328,490.47904259999996,490.47904259999996,490.47904259999996,493.4454052000001,f,1.3311498999992182,0.18536810000023252,493.4454558000007,493.4454673,None,,,,,,,,,,,,,,00009,001,2025-11-11_06h02.51.248,MST_task,2024.2.2,60.000204000391584,2025-11-11 06h02.56.255867 +0530,
,Objects\127a.jpg,113,0,113,,,,,,,f,1.194488199999796,0.23572890000014013,None,,,,,,,113,0,113,0,493.46202560000074,,,,,,,,,,,,,,,,,,,,,,,493.44554960000005,493.46202560000074,493.9953873000004,493.94562790000055,,,,,,,,,,,,,,,,,,,,,,,,,,493.9769877000008,493.9953873000004,493.9953873000004,493.9953873000004,496.96197480000046,f,1.194488199999796,0.23572890000014013,496.9620302000003,496.9620405000005,None,,,,,,,,,,,,,,00009,001,2025-11-11_06h02.51.248,MST_task,2024.2.2,60.000204000391584,2025-11-11 06h02.56.255867 +0530,
,Objects\120a.jpg,114,0,114,,,,,,,f,0.7787441999998919,0.2457380000005287,None,,,,,,,114,0,114,0,496.9786002999999,,,,,,,,,,,,,,,,,,,,,,,496.9620979000001,496.9786002999999,497.49521430000004,497.4620575000008,,,,,,,,,,,,,,,,,,,,,,,,,,497.4900738000006,497.49521430000004,497.49521430000004,497.49521430000004,500.47862729999997,f,0.7787441999998919,0.2457380000005287,500.4786726000002,500.47868280000057,None,,,,,,,,,,,,,,00009,001,2025-11-11_06h02.51.248,MST_task,2024.2.2,60.000204000391584,2025-11-11 06h02.56.255867 +0530,
,Objects\184a.jpg,115,0,115,,,,,,,j,2.4346029000007547,0.14273899999989226,None,,,,,,,115,0,115,0,500.4951864000004,,,,,,,,,,,,,,,,,,,,,,,500.47874050000064,500.4951864000004,501.0117932000003,500.97873920000075,,,,,,,,,,,,,,,,,,,,,,,,,,501.0062362000008,501.0117932000003,501.0117932000003,501.0117932000003,503.99526870000045,j,2.4346029000007547,0.14273899999989226,503.99531730000035,503.99532760000056,None,,,,,,,,,,,,,,00009,001,2025-11-11_06h02.51.248,MST_task,2024.2.2,60.000204000391584,2025-11-11 06h02.56.255867 +0530,
,Objects\117a.jpg,116,0,116,,,,,,,f,1.1075337000002037,0.15667729999950097,None,,,,,,,116,0,116,0,504.0118130000001,,,,,,,,,,,,,,,,,,,,,,,503.9954037000007,504.0118130000001,504.52840689999994,504.4952966999999,,,,,,,,,,,,,,,,,,,,,,,,,,504.51949420000074,504.52840689999994,504.52840689999994,504.52840689999994,507.51187410000057,f,1.1075337000002037,0.15667729999950097,507.5119229000002,507.51193370000055,None,,,,,,,,,,,,,,00009,001,2025-11-11_06h02.51.248,MST_task,2024.2.2,60.000204000391584,2025-11-11 06h02.56.255867 +0530,
,Objects\022a.jpg,117,0,117,,,,,,,f,1.6668145000003278,0.15024829999947542,None,,,,,,,117,0,117,0,507.5283627000008,,,,,,,,,,,,,,,,,,,,,,,507.51199050000014,507.5283627000008,508.04497420000007,508.01189440000053,,,,,,,,,,,,,,,,,,,,,,,,,,508.03801470000053,508.04497420000007,508.04497420000007,508.04497420000007,511.0283896000001,f,1.6668145000003278,0.15024829999947542,511.02843630000007,511.0284464000006,None,,,,,,,,,,,,,,00009,001,2025-11-11_06h02.51.248,MST_task,2024.2.2,60.000204000391584,2025-11-11 06h02.56.255867 +0530,
,Objects\100a.jpg,118,0,118,,,,,,,j,2.716715900000054,0.1710025999991558,None,,,,,,,118,0,118,0,511.04489790000025,,,,,,,,,,,,,,,,,,,,,,,511.02850370000033,511.04489790000025,511.5615619,511.5284765000006,,,,,,,,,,,,,,,,,,,,,,,,,,511.5448400000005,511.5615619,511.5615619,511.5615619,514.5448917000003,j,2.716715900000054,0.1710025999991558,514.5449359000004,514.5449466,None,,,,,,,,,,,,,,00009,001,2025-11-11_06h02.51.248,MST_task,2024.2.2,60.000204000391584,2025-11-11 06h02.56.255867 +0530,
,Scenes\035a.jpg,119,0,119,,,,,,,None,,,j,0.45353500000055647,None,,,,,119,0,119,0,514.5615904000006,,,,,,,,,,,,,,,,,,,,,,,514.5450061000001,514.5615904000006,515.0781492000006,515.0449587000003,,,,,,,,,,,,,,,,,,,,,,,,,,515.0645981000007,515.0781492000006,515.0781492000006,515.0781492000006,518.0614552000006,None,,,518.0614972000003,518.5451398000005,j,518.0781171000008,518.0781171000008,0.45353500000055647,None,,,,,,,,,,00009,001,2025-11-11_06h02.51.248,MST_task,2024.2.2,60.000204000391584,2025-11-11 06h02.56.255867 +0530,
,Scenes\153a.jpg,120,0,120,,,,,,,None,,,j,0.5360375000000204,None,,,,,120,0,120,0,518.5613953000002,,,,,,,,,,,,,,,,,,,,,,,518.5452182000008,518.5613953000002,519.0947118000004,519.0448972000004,,,,,,,,,,,,,,,,,,,,,,,,,,519.0759133000001,519.0947118000004,519.0947118000004,519.0947118000004,522.0613897000003,None,,,522.0614359000001,522.6282659000008,j,522.0780266000002,522.0780266000002,0.5360375000000204,None,,,,,,,,,,00009,001,2025-11-11_06h02.51.248,MST_task,2024.2.2,60.000204000391584,2025-11-11 06h02.56.255867 +0530,
,Scenes\016a.jpg,121,0,121,,,,,,,j,0.7215673000000606,0.19029060000048048,None,,,,,,,121,0,121,0,522.6446745000003,,,,,,,,,,,,,,,,,,,,,,,522.6283560000002,522.6446745000003,523.1782929999999,523.1281625000001,,,,,,,,,,,,,,,,,,,,,,,,,,523.1577934000006,523.1782929999999,523.1782929999999,523.1782929999999,526.1446697000001,j,0.7215673000000606,0.19029060000048048,526.1447260000004,526.1447367000001,None,,,,,,,,,,,,,,00009,001,2025-11-11_06h02.51.248,MST_task,2024.2.2,60.000204000391584,2025-11-11 06h02.56.255867 +0530,
,Scenes\170a.jpg,122,0,122,,,,,,,j,1.7455971999997928,0.19393510000008973,None,,,,,,,122,0,122,0,526.1612169,,,,,,,,,,,,,,,,,,,,,,,526.1448082000006,526.1612169,526.6778964000005,526.6447246000007,,,,,,,,,,,,,,,,,,,,,,,,,,526.6682602999999,526.6778964000005,526.6778964000005,526.6778964000005,529.6612473000005,j,1.7455971999997928,0.19393510000008973,529.6612938000007,529.6613042000008,None,,,,,,,,,,,,,,00009,001,2025-11-11_06h02.51.248,MST_task,2024.2.2,60.000204000391584,2025-11-11 06h02.56.255867 +0530,
,Scenes\001a.jpg,123,0,123,,,,,,,f,0.9621205000003101,0.19419730000026902,None,,,,,,,123,0,123,0,529.6778030000005,,,,,,,,,,,,,,,,,,,,,,,529.6613664000006,529.6778030000005,530.2114005000003,530.1614398000002,,,,,,,,,,,,,,,,,,,,,,,,,,530.2005160000008,530.2114005000003,530.2114005000003,530.2114005000003,533.1777866000002,f,0.9621205000003101,0.19419730000026902,533.1778337000005,533.1778443000003,None,,,,,,,,,,,,,,00009,001,2025-11-11_06h02.51.248,MST_task,2024.2.2,60.000204000391584,2025-11-11 06h02.56.255867 +0530,
,Scenes\022a.jpg,124,0,124,,,,,,,j,0.699979600000006,0.17754919999970298,None,,,,,,,124,0,124,0,533.1944318000005,,,,,,,,,,,,,,,,,,,,,,,533.1779217000003,533.1944318000005,533.7280507000005,533.6778514000007,,,,,,,,,,,,,,,,,,,,,,,,,,533.7064230000005,533.7280507000005,533.7280507000005,533.7280507000005,536.6944854000003,j,0.699979600000006,0.17754919999970298,536.6945307000005,536.6945412000005,None,,,,,,,,,,,,,,00009,001,2025-11-11_06h02.51.248,MST_task,2024.2.2,60.000204000391584,2025-11-11 06h02.56.255867 +0530,
,Scenes\159a.jpg,125,0,125,,,,,,,j,1.2609206000006452,0.186658499999794,None,,,,,,,125,0,125,0,536.7110141000003,,,,,,,,,,,,,,,,,,,,,,,536.6946150000003,536.7110141000003,537.2447995000002,537.1946340000004,,,,,,,,,,,,,,,,,,,,,,,,,,537.2301952000007,537.2447995000002,537.2447995000002,537.2447995000002,540.2110839000006,j,1.2609206000006452,0.186658499999794,540.2111313000005,540.2111412000004,None,,,,,,,,,,,,,,00009,001,2025-11-11_06h02.51.248,MST_task,2024.2.2,60.000204000391584,2025-11-11 06h02.56.255867 +0530,
,Objects\045a.jpg,126,0,126,,,,,,,f,1.923675000000003,0.18598470000051748,None,,,,,,,126,0,126,0,540.2277274000007,,,,,,,,,,,,,,,,,,,,,,,540.2112128000008,540.2277274000007,540.7445755000008,540.7112875000003,,,,,,,,,,,,,,,,,,,,,,,,,,540.7268961,540.7445755000008,540.7445755000008,540.7445755000008,543.7277282000005,f,1.923675000000003,0.18598470000051748,543.7277716000008,543.7277818000002,None,,,,,,,,,,,,,,00009,001,2025-11-11_06h02.51.248,MST_task,2024.2.2,60.000204000391584,2025-11-11 06h02.56.255867 +0530,
,Objects\052a.jpg,127,0,127,,,,,,,f,0.7668469000000186,0.2125593000000663,None,,,,,,,127,0,127,0,543.7442773000002,,,,,,,,,,,,,,,,,,,,,,,543.7278565000006,543.7442773000002,544.2608387,544.2277161000002,,,,,,,,,,,,,,,,,,,,,,,,,,544.2521962999999,544.2608387,544.2608387,544.2608387,547.2442443,f,0.7668469000000186,0.2125593000000663,547.2444606000008,547.2444750000004,None,,,,,,,,,,,,,,00009,001,2025-11-11_06h02.51.248,MST_task,2024.2.2,60.000204000391584,2025-11-11 06h02.56.255867 +0530,
,Objects\004a.jpg,128,0,128,,,,,,,f,2.126721899999211,0.19741810000050464,None,,,,,,,128,0,128,0,547.2609644000004,,,,,,,,,,,,,,,,,,,,,,,547.2445360000002,547.2609644000004,547.7774802000004,547.7444173000004,,,,,,,,,,,,,,,,,,,,,,,,,,547.7696931,547.7774802000004,547.7774802000004,547.7774802000004,550.7608651,f,2.126721899999211,0.19741810000050464,550.7609114000006,550.7609213000005,None,,,,,,,,,,,,,,00009,001,2025-11-11_06h02.51.248,MST_task,2024.2.2,60.000204000391584,2025-11-11 06h02.56.255867 +0530,
,Objects\049a.jpg,129,0,129,,,,,,,f,2.375890499999514,0.1938138000004983,None,,,,,,,129,0,129,0,550.7774838000005,,,,,,,,,,,,,,,,,,,,,,,550.7609785000004,550.7774838000005,551.2941035000003,551.2609537000008,,,,,,,,,,,,,,,,,,,,,,,,,,551.2759631000008,551.2941035000003,551.2941035000003,551.2941035000003,554.2774293000002,f,2.375890499999514,0.1938138000004983,554.2774724000001,554.2774824000007,None,,,,,,,,,,,,,,00009,001,2025-11-11_06h02.51.248,MST_task,2024.2.2,60.000204000391584,2025-11-11 06h02.56.255867 +0530,
,Objects\077a.jpg,130,0,130,,,,,,,j,0.9767093000000386,0.2186439999995855,None,,,,,,,130,0,130,0,554.2940290000006,,,,,,,,,,,,,,,,,,,,,,,554.2775435000003,554.2940290000006,554.8273216000007,554.7774552999999,,,,,,,,,,,,,,,,,,,,,,,,,,554.8212088,554.8273216000007,554.8273216000007,554.8273216000007,557.7939192000003,j,0.9767093000000386,0.2186439999995855,557.7939668000008,557.7939765000001,None,,,,,,,,,,,,,,00009,001,2025-11-11_06h02.51.248,MST_task,2024.2.2,60.000204000391584,2025-11-11 06h02.56.255867 +0530,
,Objects\028a.jpg,131,0,131,,,,,,,f,1.4327665999999226,0.18645089999972697,None,,,,,,,131,0,131,0,557.8104869000008,,,,,,,,,,,,,,,,,,,,,,,557.7940545000001,557.8104869000008,558.3271490000006,558.2939990000004,,,,,,,,,,,,,,,,,,,,,,,,,,558.3102390000004,558.3271490000006,558.3271490000006,558.3271490000006,561.3105031000005,f,1.4327665999999226,0.18645089999972697,561.3105689000004,561.3105824000004,None,,,,,,,,,,,,,,00009,001,2025-11-11_06h02.51.248,MST_task,2024.2.2,60.000204000391584,2025-11-11 06h02.56.255867 +0530,
,Objects\125a.jpg,132,0,132,,,,,,,f,1.6738312999996197,0.19915630000014062,None,,,,,,,132,0,132,0,561.3270722000007,,,,,,,,,,,,,,,,,,,,,,,561.3106727000004,561.3270722000007,561.8437860000004,561.8105914000007,,,,,,,,,,,,,,,,,,,,,,,,,,561.8362297000003,561.8437860000004,561.8437860000004,561.8437860000004,564.8270513000007,f,1.6738312999996197,0.19915630000014062,564.8270936000008,564.8271039000001,None,,,,,,,,,,,,,,00009,001,2025-11-11_06h02.51.248,MST_task,2024.2.2,60.000204000391584,2025-11-11 06h02.56.255867 +0530,
,Scenes\009a.jpg,133,0,133,,,,,,,f,1.6669277999999395,0.20154460000048857,None,,,,,,,133,0,133,0,564.8437096000007,,,,,,,,,,,,,,,,,,,,,,,564.8271805000004,564.8437096000007,565.3772458000003,565.3271406000003,,,,,,,,,,,,,,,,,,,,,,,,,,565.3621380000004,565.3772458000003,565.3772458000003,565.3772458000003,568.3436356000002,f,1.6669277999999395,0.20154460000048857,568.3436987000005,568.3437084000007,None,,,,,,,,,,,,,,00009,001,2025-11-11_06h02.51.248,MST_task,2024.2.2,60.000204000391584,2025-11-11 06h02.56.255867 +0530,
,Scenes\055a.jpg,134,0,134,,,,,,,j,1.0741410999999061,0.16974209999989398,None,,,,,,,134,0,134,0,568.3602849000008,,,,,,,,,,,,,,,,,,,,,,,568.3437659000001,568.3602849000008,,568.8437880000001,,,,,,,,,,,,,,,,,,,,,,,,,,568.8724153000003,568.8939010000004,568.8939010000004,568.8939010000004,571.8602614000001,j,1.0741410999999061,0.16974209999989398,571.8603048000004,571.8603145000006,None,,,,,,,,,,,,,,00009,001,2025-11-11_06h02.51.248,MST_task,2024.2.2,60.000204000391584,2025-11-11 06h02.56.255867 +0530,
,Scenes\006a.jpg,135,0,135,,,,,,,f,2.0168054000005213,0.22190739999950893,None,,,,,,,135,0,135,0,571.8768672000006,,,,,,,,,,,,,,,,,,,,,,,571.8603733,571.8768672000006,572.3934947000007,572.3603526000006,,,,,,,,,,,,,,,,,,,,,,,,,,572.3829721000002,572.3934947000007,572.3934947000007,572.3934947000007,575.3768491999999,f,2.0168054000005213,0.22190739999950893,575.3769208000003,575.3769313000003,None,,,,,,,,,,,,,,00009,001,2025-11-11_06h02.51.248,MST_task,2024.2.2,60.000204000391584,2025-11-11 06h02.56.255867 +0530,
,Scenes\139a.jpg,136,0,136,,,,,,,j,0.7837062999997215,0.1821855999996842,None,,,,,,,136,0,136,0,575.3934675,,,,,,,,,,,,,,,,,,,,,,,575.3769879000001,575.3934675,575.9102411000003,575.8769313000003,,,,,,,,,,,,,,,,,,,,,,,,,,575.8928746000001,575.9102411000003,575.9102411000003,575.9102411000003,578.8934379000002,j,0.7837062999997215,0.1821855999996842,578.8934867000007,578.8934982999999,None,,,,,,,,,,,,,,00009,001,2025-11-11_06h02.51.248,MST_task,2024.2.2,60.000204000391584,2025-11-11 06h02.56.255867 +0530,
,Scenes\092a.jpg,137,0,137,,,,,,,j,1.6952196000002004,0.1694391999999425,None,,,,,,,137,0,137,0,578.9100474000006,,,,,,,,,,,,,,,,,,,,,,,578.8935841000002,578.9100474000006,579.4266672000003,579.3935438000008,,,,,,,,,,,,,,,,,,,,,,,,,,579.4169224000007,579.4266672000003,579.4266672000003,579.4266672000003,582.4100075000006,j,1.6952196000002004,0.1694391999999425,582.4100507000003,582.4100609000006,None,,,,,,,,,,,,,,00009,001,2025-11-11_06h02.51.248,MST_task,2024.2.2,60.000204000391584,2025-11-11 06h02.56.255867 +0530,
,Scenes\145a.jpg,138,0,138,,,,,,,j,1.3961669999998776,0.20194739999988087,None,,,,,,,138,0,138,0,582.4266253000005,,,,,,,,,,,,,,,,,,,,,,,582.4101154,582.4266253000005,582.9599367000001,582.9100980000003,,,,,,,,,,,,,,,,,,,,,,,,,,582.9395611,582.9599367000001,582.9599367000001,582.9599367000001,585.9266027000003,j,1.3961669999998776,0.20194739999988087,585.9266462000005,585.9266559000007,None,,,,,,,,,,,,,,00009,001,2025-11-11_06h02.51.248,MST_task,2024.2.2,60.000204000391584,2025-11-11 06h02.56.255867 +0530,
,Scenes\186a.jpg,139,0,139,,,,,,,j,2.658471499999905,0.2171208999998271,None,,,,,,,139,0,139,0,585.9432546000007,,,,,,,,,,,,,,,,,,,,,,,585.9267277000008,585.9432546000007,586.4765172000007,586.4267847000001,,,,,,,,,,,,,,,,,,,,,,,,,,586.4540473000006,586.4765172000007,586.4765172000007,586.4765172000007,589.4432986000002,j,2.658471499999905,0.2171208999998271,589.4433475000005,589.4433582000001,None,,,,,,,,,,,,,,00009,001,2025-11-11_06h02.51.248,MST_task,2024.2.2,60.000204000391584,2025-11-11 06h02.56.255867 +0530,
,Objects\170a.jpg,140,0,140,,,,,,,f,2.6950237999999445,0.15819250000004104,None,,,,,,,140,0,140,0,589.4597681000005,,,,,,,,,,,,,,,,,,,,,,,589.4434186000008,589.4597681000005,589.976721,589.9433498000008,,,,,,,,,,,,,,,,,,,,,,,,,,589.9615832,589.976721,589.976721,589.976721,592.9598351000004,f,2.6950237999999445,0.15819250000004104,592.9598798000006,592.9598904000004,None,,,,,,,,,,,,,,00009,001,2025-11-11_06h02.51.248,MST_task,2024.2.2,60.000204000391584,2025-11-11 06h02.56.255867 +0530,
,Objects\154a.jpg,141,0,141,,,,,,,f,2.596775100000741,0.21769249999942986,None,,,,,,,141,0,141,0,592.9763451000008,,,,,,,,,,,,,,,,,,,,,,,592.9599465000001,592.9763451000008,,593.4599163000003,,,,,,,,,,,,,,,,,,,,,,,,,,593.4876368000005,593.4930249000008,593.4930249000008,593.4930249000008,596.4763145000006,f,2.596775100000741,0.21769249999942986,596.4763778000006,596.4763867000001,None,,,,,,,,,,,,,,00009,001,2025-11-11_06h02.51.248,MST_task,2024.2.2,60.000204000391584,2025-11-11 06h02.56.255867 +0530,
,Objects\145a.jpg,142,0,142,,,,,,,f,2.325659199999791,0.2724533999999039,None,,,,,,,142,0,142,0,596.4929670000001,,,,,,,,,,,,,,,,,,,,,,,596.4764615000004,596.4929670000001,597.0096336000006,596.9764974,,,,,,,,,,,,,,,,,,,,,,,,,,597.0027763000007,597.0096336000006,597.0096336000006,597.0096336000006,599.9930277000003,f,2.325659199999791,0.2724533999999039,599.9930804000005,599.9930917000002,None,,,,,,,,,,,,,,00009,001,2025-11-11_06h02.51.248,MST_task,2024.2.2,60.000204000391584,2025-11-11 06h02.56.255867 +0530,
,Objects\172a.jpg,143,0,143,,,,,,,j,1.3416159999997035,0.16506659999959084,None,,,,,,,143,0,143,0,600.0095616000008,,,,,,,,,,,,,,,,,,,,,,,599.9931675000007,600.0095616000008,600.5429854000004,600.4931345000005,,,,,,,,,,,,,,,,,,,,,,,,,,600.5247327000006,600.5429854000004,600.5429854000004,600.5429854000004,603.5095496000004,j,1.3416159999997035,0.16506659999959084,603.5095954000008,603.5096063000001,None,,,,,,,,,,,,,,00009,001,2025-11-11_06h02.51.248,MST_task,2024.2.2,60.000204000391584,2025-11-11 06h02.56.255867 +0530,
,Objects\143a.jpg,144,0,144,,,,,,,f,2.2510452999995323,0.22366190000047936,None,,,,,,,144,0,144,0,603.5261522000001,,,,,,,,,,,,,,,,,,,,,,,603.5096810000005,603.5261522000001,604.0427546000001,604.0096148000002,,,,,,,,,,,,,,,,,,,,,,,,,,604.0350903000008,604.0427546000001,604.0427546000001,604.0427546000001,607.0262320000002,f,2.2510452999995323,0.22366190000047936,607.0262817000003,607.0262924000008,None,,,,,,,,,,,,,,00009,001,2025-11-11_06h02.51.248,MST_task,2024.2.2,60.000204000391584,2025-11-11 06h02.56.255867 +0530,
,Objects\157a.jpg,145,0,145,,,,,,,f,0.7054822000000058,0.20204800000010437,None,,,,,,,145,0,145,0,607.0427386000001,,,,,,,,,,,,,,,,,,,,,,,607.0263599,607.0427386000001,607.5760402000005,607.5262446000006,,,,,,,,,,,,,,,,,,,,,,,,,,607.5564759000008,607.5760402000005,607.5760402000005,607.5760402000005,610.5427342000003,f,0.7054822000000058,0.20204800000010437,610.5427783000005,610.5427887000005,None,,,,,,,,,,,,,,00009,001,2025-11-11_06h02.51.248,MST_task,2024.2.2,60.000204000391584,2025-11-11 06h02.56.255867 +0530,
,Objects\191a.jpg,146,0,146,,,,,,,f,2.795708100000411,None,None,,,,,,,146,0,146,0,610.5593441999999,,,,,,,,,,,,,,,,,,,,,,,610.5428589000003,610.5593441999999,611.0760247000007,611.0428641000008,,,,,,,,,,,,,,,,,,,,,,,,,,611.0622386000005,611.0760247000007,611.0760247000007,611.0760247000007,614.0593964,f,2.795708100000411,None,614.0594413000008,614.0594516000001,None,,,,,,,,,,,,,,00009,001,2025-11-11_06h02.51.248,MST_task,2024.2.2,60.000204000391584,2025-11-11 06h02.56.255867 +0530,
,Scenes\171a.jpg,147,0,147,,,,,,,f,0.8002199000002292,0.272422899999583,None,,,,,,,147,0,147,0,614.0759035000001,,,,,,,,,,,,,,,,,,,,,,,614.0595238000005,614.0759035000001,614.6095026000003,614.5594936000007,,,,,,,,,,,,,,,,,,,,,,,,,,614.5917626,614.6095026000003,614.6095026000003,614.6095026000003,617.5758737000006,f,0.8002199000002292,0.272422899999583,617.5759235000005,617.5759390000003,None,,,,,,,,,,,,,,00009,001,2025-11-11_06h02.51.248,MST_task,2024.2.2,60.000204000391584,2025-11-11 06h02.56.255867 +0530,
,Scenes\113a.jpg,148,0,148,,,,,,,j,0.69788139999946,0.22623320000002423,None,,,,,,,148,0,148,0,617.5924881999999,,,,,,,,,,,,,,,,,,,,,,,617.5760157000004,617.5924881999999,618.1258530000005,618.0760697000005,,,,,,,,,,,,,,,,,,,,,,,,,,618.1082802000001,618.1258530000005,618.1258530000005,618.1258530000005,621.0924622000002,j,0.69788139999946,0.22623320000002423,621.0925117000006,621.0925217000004,None,,,,,,,,,,,,,,00009,001,2025-11-11_06h02.51.248,MST_task,2024.2.2,60.000204000391584,2025-11-11 06h02.56.255867 +0530,
,Scenes\089a.jpg,149,0,149,,,,,,,j,1.764913500000148,0.17845349999970495,None,,,,,,,149,0,149,0,621.1090294000005,,,,,,,,,,,,,,,,,,,,,,,621.0925993000001,621.1090294000005,621.6426508000004,621.5925295000006,,,,,,,,,,,,,,,,,,,,,,,,,,621.6261060000006,621.6426508000004,621.6426508000004,621.6426508000004,624.6090424000004,j,1.764913500000148,0.17845349999970495,624.6090975000006,624.6091078,None,,,,,,,,,,,,,,00009,001,2025-11-11_06h02.51.248,MST_task,2024.2.2,60.000204000391584,2025-11-11 06h02.56.255867 +0530,
,Scenes\091a.jpg,150,0,150,,,,,,,j,0.5478945000004387,0.20925900000020192,None,,,,,,,150,0,150,0,624.6256336000006,,,,,,,,,,,,,,,,,,,,,,,624.6091673000001,624.6256336000006,625.1422730000004,625.1092033000004,,,,,,,,,,,,,,,,,,,,,,,,,,625.1327702000008,625.1422730000004,625.1422730000004,625.1422730000004,628.1256254,j,0.5478945000004387,0.20925900000020192,628.1256689000002,628.1256786000004,None,,,,,,,,,,,,,,00009,001,2025-11-11_06h02.51.248,MST_task,2024.2.2,60.000204000391584,2025-11-11 06h02.56.255867 +0530,
,Scenes\183a.jpg,151,0,151,,,,,,,f,1.7428979999995136,0.19515930000034132,None,,,,,,,151,0,151,0,628.1422428000005,,,,,,,,,,,,,,,,,,,,,,,628.1257518000002,628.1422428000005,628.6584855000001,628.6257621000004,,,,,,,,,,,,,,,,,,,,,,,,,,628.6514258000007,628.6584855000001,628.6584855000001,628.6584855000001,631.6421707,f,1.7428979999995136,0.19515930000034132,631.6422122000004,631.6422221000003,None,,,,,,,,,,,,,,00009,001,2025-11-11_06h02.51.248,MST_task,2024.2.2,60.000204000391584,2025-11-11 06h02.56.255867 +0530,
,Scenes\127a.jpg,152,0,152,,,,,,,j,0.6234146999995573,0.24361390000012761,None,,,,,,,152,0,152,0,631.6588377000007,,,,,,,,,,,,,,,,,,,,,,,631.6422948,631.6588377000007,632.1925812,632.1422997,,,,,,,,,,,,,,,,,,,,,,,,,,632.1773577000004,632.1925812,632.1925812,632.1925812,635.1587960000006,j,0.6234146999995573,0.24361390000012761,635.1588383000008,635.1588487000008,None,,,,,,,,,,,,,,00009,001,2025-11-11_06h02.51.248,MST_task,2024.2.2,60.000204000391584,2025-11-11 06h02.56.255867 +0530,
,Scenes\053a.jpg,153,0,153,,,,,,,j,1.3832221000002392,0.22246290000020963,None,,,,,,,153,0,153,0,635.1754115000003,,,,,,,,,,,,,,,,,,,,,,,635.1589249000008,635.1754115000003,635.6923229000004,635.6589953000002,,,,,,,,,,,,,,,,,,,,,,,,,,635.6785426000006,635.6923229000004,635.6923229000004,635.6923229000004,638.6753638,j,1.3832221000002392,0.22246290000020963,638.6754059000004,638.6754168000007,None,,,,,,,,,,,,,,00009,001,2025-11-11_06h02.51.248,MST_task,2024.2.2,60.000204000391584,2025-11-11 06h02.56.255867 +0530,
,Objects\051a.jpg,154,0,154,,,,,,,f,2.723937599999772,None,None,,,,,,,154,0,154,0,638.6920078000003,,,,,,,,,,,,,,,,,,,,,,,638.6754916,638.6920078000003,639.2423222000007,639.1756245000006,,,,,,,,,,,,,,,,,,,,,,,,,,639.2219416000007,639.2423222000007,639.2423222000007,639.2423222000007,642.1919760999999,f,2.723937599999772,None,642.1921512000008,642.1921650000004,None,,,,,,,,,,,,,,00009,001,2025-11-11_06h02.51.248,MST_task,2024.2.2,60.000204000391584,2025-11-11 06h02.56.255867 +0530,
,Objects\132a.jpg,155,0,155,,,,,,,f,2.541774400000577,0.19020799999998417,None,,,,,,,155,0,155,0,642.2085844000003,,,,,,,,,,,,,,,,,,,,,,,642.1922226000006,642.2085844000003,642.7420404000004,642.6920638000001,,,,,,,,,,,,,,,,,,,,,,,,,,642.7239727000006,642.7420404000004,642.7420404000004,642.7420404000004,645.7085810000008,f,2.541774400000577,0.19020799999998417,645.7086232000001,645.7086336000002,None,,,,,,,,,,,,,,00009,001,2025-11-11_06h02.51.248,MST_task,2024.2.2,60.000204000391584,2025-11-11 06h02.56.255867 +0530,
,Objects\161a.jpg,156,0,156,,,,,,,j,1.165795299999445,0.20598620000055234,None,,,,,,,156,0,156,0,645.7251670000005,,,,,,,,,,,,,,,,,,,,,,,645.7087090000005,645.7251670000005,646.2417885000004,646.2086576000002,,,,,,,,,,,,,,,,,,,,,,,,,,646.2364059000001,646.2417885000004,646.2417885000004,646.2417885000004,649.2251458000001,j,1.165795299999445,0.20598620000055234,649.2251882,649.2251986000001,None,,,,,,,,,,,,,,00009,001,2025-11-11_06h02.51.248,MST_task,2024.2.2,60.000204000391584,2025-11-11 06h02.56.255867 +0530,
,Objects\182a.jpg,157,0,157,,,,,,,f,1.5011297000000923,0.14994360000036977,None,,,,,,,157,0,157,0,649.2417598000002,,,,,,,,,,,,,,,,,,,,,,,649.2252559000008,649.2417598000002,649.7750351000004,649.7253450000007,,,,,,,,,,,,,,,,,,,,,,,,,,649.7553506000004,649.7750351000004,649.7750351000004,649.7750351000004,652.7417283000004,f,1.5011297000000923,0.14994360000036977,652.741771,652.7417811000005,None,,,,,,,,,,,,,,00009,001,2025-11-11_06h02.51.248,MST_task,2024.2.2,60.000204000391584,2025-11-11 06h02.56.255867 +0530,
,Objects\144a.jpg,158,0,158,,,,,,,f,1.283841399999801,0.19639439999991737,None,,,,,,,158,0,158,0,652.7583075000002,,,,,,,,,,,,,,,,,,,,,,,652.7418387000007,652.7583075000002,653.2916270000005,653.2419151000004,,,,,,,,,,,,,,,,,,,,,,,,,,653.2714205000002,653.2916270000005,653.2916270000005,653.2916270000005,656.2584315000004,f,1.283841399999801,0.19639439999991737,656.2584806000004,656.2584907,None,,,,,,,,,,,,,,00009,001,2025-11-11_06h02.51.248,MST_task,2024.2.2,60.000204000391584,2025-11-11 06h02.56.255867 +0530,
,Objects\084a.jpg,159,0,159,,,,,,,f,0.9223709000007148,0.19340990000000602,None,,,,,,,159,0,159,0,656.2748922999999,,,,,,,,,,,,,,,,,,,,,,,656.2585710000003,656.2748922999999,656.7915424000003,656.7584151000001,,,,,,,,,,,,,,,,,,,,,,,,,,656.7861385000006,656.7915424000003,656.7915424000003,656.7915424000003,659.7748581000005,f,0.9223709000007148,0.19340990000000602,659.7749030000004,659.7749168,None,,,,,,,,,,,,,,00009,001,2025-11-11_06h02.51.248,MST_task,2024.2.2,60.000204000391584,2025-11-11 06h02.56.255867 +0530,
,Objects\009a.jpg,160,0,160,,,,,,,f,2.6873490999996648,0.18632359999992332,None,,,,,,,160,0,160,0,659.7915186,,,,,,,,,,,,,,,,,,,,,,,659.7749966000001,659.7915186,660.3081814000006,660.2749460000005,,,,,,,,,,,,,,,,,,,,,,,,,,660.2914864000004,660.3081814000006,660.3081814000006,660.3081814000006,663.2750054000007,f,2.6873490999996648,0.18632359999992332,663.2750574000002,663.2750682000005,None,,,,,,,,,,,,,,00009,001,2025-11-11_06h02.51.248,MST_task,2024.2.2,60.000204000391584,2025-11-11 06h02.56.255867 +0530,
,Scenes\051a.jpg,161,0,161,,,,,,,None,,,j,0.1875171000001501,None,,,,,161,0,161,0,663.2913901000002,,,,,,,,,,,,,,,,,,,,,,,663.2751294,663.2913901000002,663.8080774,663.7749355000005,,,,,,,,,,,,,,,,,,,,,,,,,,663.7981979000006,663.8080774,663.8080774,663.8080774,666.7913693,None,,,666.7914128000002,667.0082532000006,j,666.8080034000004,666.8080034000004,0.1875171000001501,None,,,,,,,,,,00009,001,2025-11-11_06h02.51.248,MST_task,2024.2.2,60.000204000391584,2025-11-11 06h02.56.255867 +0530,
,Scenes\141a.jpg,162,0,162,,,,,,,j,2.0485315000005357,0.16608759999962786,None,,,,,,,162,0,162,0,667.0246754,,,,,,,,,,,,,,,,,,,,,,,667.0083426000001,667.0246754,667.5411302000002,667.5081605000005,,,,,,,,,,,,,,,,,,,,,,,,,,667.5354453,667.5411302000002,667.5411302000002,667.5411302000002,670.5247233,j,2.0485315000005357,0.16608759999962786,670.5247715000005,670.5247823,None,,,,,,,,,,,,,,00009,001,2025-11-11_06h02.51.248,MST_task,2024.2.2,60.000204000391584,2025-11-11 06h02.56.255867 +0530,
,Scenes\163a.jpg,163,0,163,,,,,,,j,1.0977161999999225,0.18568409999988944,None,,,,,,,163,0,163,0,670.5412723,,,,,,,,,,,,,,,,,,,,,,,670.5248663000002,670.5412723,671.0578817000005,671.0248208000003,,,,,,,,,,,,,,,,,,,,,,,,,,671.0483171000005,671.0578817000005,671.0578817000005,671.0578817000005,674.0413712,j,1.0977161999999225,0.18568409999988944,674.0414135000001,674.0414242000006,None,,,,,,,,,,,,,,00009,001,2025-11-11_06h02.51.248,MST_task,2024.2.2,60.000204000391584,2025-11-11 06h02.56.255867 +0530,
,Scenes\088a.jpg,164,0,164,,,,,,,j,0.6142394999997123,0.2019004000003406,None,,,,,,,164,0,164,0,674.0578535000004,,,,,,,,,,,,,,,,,,,,,,,674.0414963000003,674.0578535000004,674.5914467000002,674.5413732000006,,,,,,,,,,,,,,,,,,,,,,,,,,674.5780223000002,674.5914467000002,674.5914467000002,674.5914467000002,677.5578270000005,j,0.6142394999997123,0.2019004000003406,677.5578705000007,677.5578806000003,None,,,,,,,,,,,,,,00009,001,2025-11-11_06h02.51.248,MST_task,2024.2.2,60.000204000391584,2025-11-11 06h02.56.255867 +0530,
,Scenes\106a.jpg,165,0,165,,,,,,,j,0.7263095999996949,0.21011710000038875,None,,,,,,,165,0,165,0,677.5744575000008,,,,,,,,,,,,,,,,,,,,,,,677.5579558,677.5744575000008,678.1077241000003,678.0579052000003,,,,,,,,,,,,,,,,,,,,,,,,,,678.0853404,678.1077241000003,678.1077241000003,678.1077241000003,681.0744187,j,0.7263095999996949,0.21011710000038875,681.0744680000007,681.0744779000006,None,,,,,,,,,,,,,,00009,001,2025-11-11_06h02.51.248,MST_task,2024.2.2,60.000204000391584,2025-11-11 06h02.56.255867 +0530,
,Scenes\060a.jpg,166,0,166,,,,,,,j,0.616939800000182,0.20662699999957113,None,,,,,,,166,0,166,0,681.0910200000008,,,,,,,,,,,,,,,,,,,,,,,681.0745717,681.0910200000008,681.6412370000007,681.5744955,,,,,,,,,,,,,,,,,,,,,,,,,,681.6331048000002,681.6412370000007,681.6412370000007,681.6412370000007,684.5910018000004,j,0.616939800000182,0.20662699999957113,684.5910472000005,684.5910575000007,None,,,,,,,,,,,,,,00009,001,2025-11-11_06h02.51.248,MST_task,2024.2.2,60.000204000391584,2025-11-11 06h02.56.255867 +0530,
,Scenes\004a.jpg,167,0,167,,,,,,,j,0.5778679000004558,0.21487919999981386,None,,,,,,,167,0,167,0,684.6076055000003,,,,,,,,,,,,,,,,,,,,,,,684.5911351000004,684.6076055000003,685.1242542,685.0910669000004,,,,,,,,,,,,,,,,,,,,,,,,,,685.1103090000006,685.1242542,685.1242542,685.1242542,688.1075755000002,j,0.5778679000004558,0.21487919999981386,688.1076287000005,688.1076394000002,None,,,,,,,,,,,,,,00009,001,2025-11-11_06h02.51.248,MST_task,2024.2.2,60.000204000391584,2025-11-11 06h02.56.255867 +0530,
,Objects\192a.jpg,168,0,168,,,,,,,j,1.184007500000007,0.18965190000017174,None,,,,,,,168,0,168,0,688.1241528,,,,,,,,,,,,,,,,,,,,,,,688.1077136000004,688.1241528,688.6579048000003,688.6077272000002,,,,,,,,,,,,,,,,,,,,,,,,,,688.6391595000005,688.6579048000003,688.6579048000003,688.6579048000003,691.6242321,j,1.184007500000007,0.18965190000017174,691.6242820000007,691.6242930000008,None,,,,,,,,,,,,,,00009,001,2025-11-11_06h02.51.248,MST_task,2024.2.2,60.000204000391584,2025-11-11 06h02.56.255867 +0530,
,Objects\128a.jpg,169,0,169,,,,,,,f,2.8001279000000068,None,None,,,,,,,169,0,169,0,691.6407749,,,,,,,,,,,,,,,,,,,,,,,691.6243558000006,691.6407749,692.1573983000008,692.1242136000001,,,,,,,,,,,,,,,,,,,,,,,,,,692.1440419,692.1573983000008,692.1573983000008,692.1573983000008,695.1408123000001,f,2.8001279000000068,None,695.1408626000002,695.1408734000006,None,,,,,,,,,,,,,,00009,001,2025-11-11_06h02.51.248,MST_task,2024.2.2,60.000204000391584,2025-11-11 06h02.56.255867 +0530,
,Objects\068a.jpg,170,0,170,,,,,,,j,2.125406699999985,0.2072450999994544,None,,,,,,,170,0,170,0,695.1573643000002,,,,,,,,,,,,,,,,,,,,,,,695.1409348000007,695.1573643000002,695.6740367000002,695.6407960000006,,,,,,,,,,,,,,,,,,,,,,,,,,695.6670563000007,695.6740367000002,695.6740367000002,695.6740367000002,698.6574505000008,j,2.125406699999985,0.2072450999994544,698.6575016000006,698.6575133000006,None,,,,,,,,,,,,,,00009,001,2025-11-11_06h02.51.248,MST_task,2024.2.2,60.000204000391584,2025-11-11 06h02.56.255867 +0530,
,Objects\067a.jpg,171,0,171,,,,,,,f,2.1900525000000926,0.19425290000071982,None,,,,,,,171,0,171,0,698.6739499000005,,,,,,,,,,,,,,,,,,,,,,,698.6575758000008,698.6739499000005,699.2072907000002,699.1574453000003,,,,,,,,,,,,,,,,,,,,,,,,,,699.1879045000005,699.2072907000002,699.2072907000002,699.2072907000002,702.1740225000003,f,2.1900525000000926,0.19425290000071982,702.1740698000003,702.1740804000001,None,,,,,,,,,,,,,,00009,001,2025-11-11_06h02.51.248,MST_task,2024.2.2,60.000204000391584,2025-11-11 06h02.56.255867 +0530,
,Objects\080a.jpg,172,0,172,,,,,,,f,0.8429011999996874,0.26168030000008,None,,,,,,,172,0,172,0,702.1905274999999,,,,,,,,,,,,,,,,,,,,,,,702.1741359000007,702.1905274999999,702.7071488000001,702.6740762,,,,,,,,,,,,,,,,,,,,,,,,,,702.6968065000001,702.7071488000001,702.7071488000001,702.7071488000001,705.6905228000005,f,0.8429011999996874,0.26168030000008,705.6905768000006,705.6905871000008,None,,,,,,,,,,,,,,00009,001,2025-11-11_06h02.51.248,MST_task,2024.2.2,60.000204000391584,2025-11-11 06h02.56.255867 +0530,
,Objects\048a.jpg,173,0,173,,,,,,,j,1.1409706999993432,0.15240110000013374,None,,,,,,,173,0,173,0,705.7071248000002,,,,,,,,,,,,,,,,,,,,,,,705.6906455000008,705.7071248000002,706.2405099000007,706.1907144000006,,,,,,,,,,,,,,,,,,,,,,,,,,706.2221301,706.2405099000007,706.2405099000007,706.2405099000007,709.2070883000006,j,1.1409706999993432,0.15240110000013374,709.2071309000003,709.2071413000003,None,,,,,,,,,,,,,,00009,001,2025-11-11_06h02.51.248,MST_task,2024.2.2,60.000204000391584,2025-11-11 06h02.56.255867 +0530,
,Objects\114a.jpg,174,0,174,,,,,,,f,0.9914951000000656,0.12986369999998715,None,,,,,,,174,0,174,0,709.2236663000003,,,,,,,,,,,,,,,,,,,,,,,709.2071959000004,709.2236663000003,,709.7071829000006,,,,,,,,,,,,,,,,,,,,,,,,,,709.7312967000007,709.7403224,709.7403224,709.7403224,712.7237878000005,f,0.9914951000000656,0.12986369999998715,712.7238340000004,712.7238436000007,None,,,,,,,,,,,,,,00009,001,2025-11-11_06h02.51.248,MST_task,2024.2.2,60.000204000391584,2025-11-11 06h02.56.255867 +0530,
,Scenes\138a.jpg,175,0,175,,,,,,,j,0.5336459000000104,0.17855130000043573,None,,,,,,,175,0,175,0,712.7402951000004,,,,,,,,,,,,,,,,,,,,,,,712.7239022000003,712.7402951000004,713.2735709000008,713.2237061000005,,,,,,,,,,,,,,,,,,,,,,,,,,713.2551859000005,713.2735709000008,713.2735709000008,713.2735709000008,716.2403435000006,j,0.5336459000000104,0.17855130000043573,716.2403898000002,716.2404034000001,None,,,,,,,,,,,,,,00009,001,2025-11-11_06h02.51.248,MST_task,2024.2.2,60.000204000391584,2025-11-11 06h02.56.255867 +0530,
