Sl_no,image_path,thisN,thisTrialN,thisRepN,key_resp_5.keys,key_resp_7.keys,key_resp_7.rt,key_resp_7.duration,key_resp_5.rt,key_resp_5.duration,key_resp_9.keys,key_resp_9.rt,key_resp_9.duration,key_resp_8.keys,key_resp_8.rt,key_resp_8.duration,practice.thisRepN,practice.thisTrialN,practice.thisN,practice.thisIndex,trials.thisRepN,trials.thisTrialN,trials.thisN,trials.thisIndex,thisRow.t,notes,welcome_page.started,text.started,key_resp.started,welcome_page.stopped,key_resp.keys,key_resp.rt,key_resp.duration,instructions.started,ins.started,key_resp_2.started,instructions.stopped,key_resp_2.keys,key_resp_2.rt,key_resp_2.duration,objects_only_instruction.started,text_3.started,key_resp_3.started,objects_only_instruction.stopped,key_resp_3.keys,key_resp_3.rt,key_resp_3.duration,ISI.started,text_4.started,text_4.stopped,ISI.stopped,practice_block.started,image.started,text_5.started,key_resp_5.started,practice_block.stopped,practice.key_resp_5.keys,indoor_outdoor.started,text_7.started,key_resp_7.started,indoor_outdoor.stopped,practice.key_resp_7.keys,practice.key_resp_7.rt,practice.key_resp_7.duration,image.stopped,text_5.stopped,key_resp_5.stopped,practice.key_resp_5.rt,practice.key_resp_5.duration,practice_to_main.started,text_2.started,key_resp_4.started,practice_to_main.stopped,key_resp_4.keys,key_resp_4.rt,key_resp_4.duration,objects.started,image_2.started,text_9.started,key_resp_9.started,objects.stopped,trials.key_resp_9.keys,trials.key_resp_9.rt,trials.key_resp_9.duration,encoding_task.started,encoding_task.stopped,trials.key_resp_8.keys,text_8.started,key_resp_8.started,trials.key_resp_8.rt,trials.key_resp_8.duration,image_2.stopped,text_9.stopped,key_resp_9.stopped,end_experiment.started,text_6.started,key_resp_6.started,end_experiment.stopped,key_resp_6.keys,key_resp_6.rt,key_resp_6.duration,list_of_stimuli,encoding_task_accuracy,participant,session,date,expName,psychopyVersion,frameRate,expStart,
,,,,,,,,,,,,,,,,,,,,,,,,,,,0.018250000008265488,0.03480590000981465,0.03480590000981465,12.161510300007649,space,12.07278829999268,None,,,,,,,,,,,,,,,,,,,,,,,,,,,,,,,,,,,,,,,,,,,,,,,,,,,,,,,,,,,,,,,,,,,,,,,00004,001,2025-11-09_14h29.19.772,MST_task,2024.2.2,60.00092401253441,2025-11-09 14h29.25.287209 +0530,
,,,,,,,,,,,,,,,,,,,,,,,,,,,,,,,,,,12.161551700002747,12.184537300010561,12.184537300010561,60.30055520001042,space,48.11285679999855,None,,,,,,,,,,,,,,,,,,,,,,,,,,,,,,,,,,,,,,,,,,,,,,,,,,,,,,,,,,,,,,,,00004,001,2025-11-09_14h29.19.772,MST_task,2024.2.2,60.00092401253441,2025-11-09 14h29.25.287209 +0530,
,,,,,,,,,,,,,,,,,,,,,,,,,,,,,,,,,,,,,,,,,60.300589600010426,60.31688190001296,60.31688190001296,69.53378780001367,space,9.206914099995629,None,,,,,,,,,,,,,,,,,,,,,,,,,,,,,,,,,,,,,,,,,,,,,,,,,,,,,,,,,00004,001,2025-11-09_14h29.19.772,MST_task,2024.2.2,60.00092401253441,2025-11-09 14h29.25.287209 +0530,
6,practice_images/158a.jpg,0,0,0,None,j,0.2650073999975575,None,,,,,,,,,0,0,0,5,,,,,69.55000010000367,,,,,,,,,,,,,,,,,,,,,,,69.53736260000733,69.55000010000367,70.06667710001057,70.03351000000839,70.04756240001007,70.06667710001057,70.06667710001057,70.06667710001057,73.05001400000765,None,73.05126620001101,73.06662610000058,73.06662610000058,73.33362620000844,j,0.2650073999975575,None,,,,,,,,,,,,,,,,,,,,,,,,,,,,,,,,,,,,,,,,00004,001,2025-11-09_14h29.19.772,MST_task,2024.2.2,60.00092401253441,2025-11-09 14h29.25.287209 +0530,
4,practice_images/002b.jpg,1,1,0,f,None,,,2.1257612999906996,0.16258440000819974,,,,,,,0,1,1,3,,,,,73.34995550000167,,,,,,,,,,,,,,,,,,,,,,,73.3336946000054,73.34995550000167,73.84994580000057,73.8334215000068,73.840637900008,73.84994580000057,73.84994580000057,73.84994580000057,76.8334584000113,f,76.83350350000546,,,76.83351690000563,None,,,76.84989750001114,76.84989750001114,76.84989750001114,2.1257612999906996,0.16258440000819974,,,,,,,,,,,,,,,,,,,,,,,,,,,,,,,,,,,00004,001,2025-11-09_14h29.19.772,MST_task,2024.2.2,60.00092401253441,2025-11-09 14h29.25.287209 +0530,
7,practice_images/166a.jpg,2,2,0,f,None,,,2.1338346999982605,0.17123290000017732,,,,,,,0,2,2,6,,,,,76.84989750001114,,,,,,,,,,,,,,,,,,,,,,,76.83357260000776,76.84989750001114,77.34986600000411,77.33344300001045,77.34041140000045,77.34986600000411,77.34986600000411,77.34986600000411,80.3332642000023,f,80.33330710000882,,,80.33331640000688,None,,,80.3498060000129,80.3498060000129,80.3498060000129,2.1338346999982605,0.17123290000017732,,,,,,,,,,,,,,,,,,,,,,,,,,,,,,,,,,,00004,001,2025-11-09_14h29.19.772,MST_task,2024.2.2,60.00092401253441,2025-11-09 14h29.25.287209 +0530,
2,practice_images/031a.jpg,3,3,0,None,j,0.04599389999930281,None,,,,,,,,,0,3,3,1,,,,,80.3498060000129,,,,,,,,,,,,,,,,,,,,,,,80.33337320000282,80.3498060000129,80.8497897000052,80.83328840001195,80.84011640000972,80.8497897000052,80.8497897000052,80.8497897000052,83.83320450001338,None,83.83325760001026,83.84973510001146,83.84973510001146,83.90009010001086,j,0.04599389999930281,None,83.84973510001146,83.84973510001146,83.84973510001146,,,,,,,,,,,,,,,,,,,,,,,,,,,,,,,,,,,,,00004,001,2025-11-09_14h29.19.772,MST_task,2024.2.2,60.00092401253441,2025-11-09 14h29.25.287209 +0530,
3,practice_images/037a.jpg,4,4,0,j,None,,,2.142682400008198,0.11659930000314489,,,,,,,0,4,4,2,,,,,83.91640130001178,,,,,,,,,,,,,,,,,,,,,,,83.9001535000134,83.91640130001178,84.41638810001314,84.39986520000093,84.40652509999927,84.41638810001314,84.41638810001314,84.41638810001314,87.39984530000947,j,87.39989170001354,,,87.39990129999933,None,,,87.41632160000154,87.41632160000154,87.41632160000154,2.142682400008198,0.11659930000314489,,,,,,,,,,,,,,,,,,,,,,,,,,,,,,,,,,,00004,001,2025-11-09_14h29.19.772,MST_task,2024.2.2,60.00092401253441,2025-11-09 14h29.25.287209 +0530,
9,practice_images/180a.jpg,5,5,0,j,None,,,1.0276811000076123,0.07930719999421854,,,,,,,0,5,5,8,,,,,87.41632160000154,,,,,,,,,,,,,,,,,,,,,,,87.39995700000145,87.41632160000154,87.91627870000957,87.89981180000177,87.90667940001003,87.91627870000957,87.91627870000957,87.91627870000957,90.89986870001303,j,90.89991590000864,,,90.89992490000441,None,,,90.91625220001151,90.91625220001151,90.91625220001151,1.0276811000076123,0.07930719999421854,,,,,,,,,,,,,,,,,,,,,,,,,,,,,,,,,,,00004,001,2025-11-09_14h29.19.772,MST_task,2024.2.2,60.00092401253441,2025-11-09 14h29.25.287209 +0530,
8,practice_images/178a.jpg,6,6,0,j,None,,,1.3177679999935208,0.12125890000606887,,,,,,,0,6,6,7,,,,,90.91625220001151,,,,,,,,,,,,,,,,,,,,,,,90.8999790000089,90.91625220001151,91.41621270000178,91.39971320000768,91.4067633000086,91.41621270000178,91.41621270000178,91.41621270000178,94.39971710000827,j,94.39977050000743,,,94.39977940000244,None,,,94.41617780001252,94.41617780001252,94.41617780001252,1.3177679999935208,0.12125890000606887,,,,,,,,,,,,,,,,,,,,,,,,,,,,,,,,,,,00004,001,2025-11-09_14h29.19.772,MST_task,2024.2.2,60.00092401253441,2025-11-09 14h29.25.287209 +0530,
5,practice_images/139a.jpg,7,7,0,j,None,,,2.153806499991333,0.17389470001216978,,,,,,,0,7,7,4,,,,,94.41617780001252,,,,,,,,,,,,,,,,,,,,,,,94.3998328000016,94.41617780001252,94.91618330001074,94.89962380001089,94.90652850001061,94.91618330001074,94.91618330001074,94.91618330001074,97.89960340000107,j,97.89964840000903,,,97.89965750000556,None,,,97.9161116000032,97.9161116000032,97.9161116000032,2.153806499991333,0.17389470001216978,,,,,,,,,,,,,,,,,,,,,,,,,,,,,,,,,,,00004,001,2025-11-09_14h29.19.772,MST_task,2024.2.2,60.00092401253441,2025-11-09 14h29.25.287209 +0530,
10,practice_images/182a.jpg,8,8,0,f,None,,,1.0699366000044392,0.18393999998806976,,,,,,,0,8,8,9,,,,,97.9161116000032,,,,,,,,,,,,,,,,,,,,,,,97.8997156000114,97.9161116000032,98.41606570000295,98.39958240000124,98.40646920001018,98.41606570000295,98.41606570000295,98.41606570000295,101.39964730000065,f,101.3996979000076,,,101.39970740000717,None,,,101.41604000001098,101.41604000001098,101.41604000001098,1.0699366000044392,0.18393999998806976,,,,,,,,,,,,,,,,,,,,,,,,,,,,,,,,,,,00004,001,2025-11-09_14h29.19.772,MST_task,2024.2.2,60.00092401253441,2025-11-09 14h29.25.287209 +0530,
1,practice_images/013a.jpg,9,9,0,j,None,,,1.592068300000392,0.13721260000602342,,,,,,,0,9,9,0,,,,,101.41604000001098,,,,,,,,,,,,,,,,,,,,,,,101.39976520001073,101.41604000001098,101.91599690000294,101.89951020000444,101.90637050000078,101.91599690000294,101.91599690000294,101.91599690000294,104.89943260001019,j,104.89947770000435,,,104.89948610001011,None,,,104.91596540001046,104.91596540001046,104.91596540001046,1.592068300000392,0.13721260000602342,,,,,,,,,,,,,,,,,,,,,,,,,,,,,,,,,,,00004,001,2025-11-09_14h29.19.772,MST_task,2024.2.2,60.00092401253441,2025-11-09 14h29.25.287209 +0530,
,,,,,,,,,,,,,,,,,,,,,,,,,,,,,,,,,,,,,,,,,,,,,,,,,,,,,,,,,,,,,,,,,,,,,,104.89952380000614,104.91596540001046,104.91596540001046,111.79945109999971,space,6.871197200001916,None,,,,,,,,,,,,,,,,,,,,,,,,,,,,00004,001,2025-11-09_14h29.19.772,MST_task,2024.2.2,60.00092401253441,2025-11-09 14h29.25.287209 +0530,
,Scenes\042a.jpg,0,0,0,,,,,,,j,1.254835900006583,0.11361220000253525,None,,,,,,,0,0,0,0,111.8157923000108,,,,,,,,,,,,,,,,,,,,,,,111.8000069000118,111.8157923000108,112.33268130000215,112.29930410000088,,,,,,,,,,,,,,,,,,,,,,,,,,112.32112570000754,112.33268130000215,112.33268130000215,112.33268130000215,115.31578030000674,j,1.254835900006583,0.11361220000253525,115.3171224000107,115.31713510000554,None,,,,,,,,,,,,,,,,,00004,001,2025-11-09_14h29.19.772,MST_task,2024.2.2,60.00092401253441,2025-11-09 14h29.25.287209 +0530,
,Scenes\113a.jpg,1,0,1,,,,,,,j,2.0538644999905955,0.1343193000066094,None,,,,,,,1,0,1,0,115.33238960000745,,,,,,,,,,,,,,,,,,,,,,,115.3171982000058,115.33238960000745,115.84931270001107,115.8159197000059,,,,,,,,,,,,,,,,,,,,,,,,,,115.83374830000685,115.84931270001107,115.84931270001107,115.84931270001107,118.83235670000431,j,2.0538644999905955,0.1343193000066094,118.83240010000009,118.83241110001109,None,,,,,,,,,,,,,,,,,00004,001,2025-11-09_14h29.19.772,MST_task,2024.2.2,60.00092401253441,2025-11-09 14h29.25.287209 +0530,
,Scenes\040a.jpg,2,0,2,,,,,,,f,1.5924205999908736,0.1846405000105733,None,,,,,,,2,0,2,0,118.849014300009,,,,,,,,,,,,,,,,,,,,,,,118.83247920000576,118.849014300009,119.38232850001077,119.33256000000983,,,,,,,,,,,,,,,,,,,,,,,,,,119.36291619999975,119.38232850001077,119.38232850001077,119.38232850001077,122.34900980000384,f,1.5924205999908736,0.1846405000105733,122.34905900000012,122.34906960000808,None,,,,,,,,,,,,,,,,,00004,001,2025-11-09_14h29.19.772,MST_task,2024.2.2,60.00092401253441,2025-11-09 14h29.25.287209 +0530,
,Scenes\125a.jpg,3,0,3,,,,,,,j,1.4410528000007616,0.1420627999905264,None,,,,,,,3,0,3,0,122.36559739999939,,,,,,,,,,,,,,,,,,,,,,,122.3491473000031,122.36559739999939,122.88225870000315,122.84907140000723,,,,,,,,,,,,,,,,,,,,,,,,,,122.8625514000014,122.88225870000315,122.88225870000315,122.88225870000315,125.86554800000158,j,1.4410528000007616,0.1420627999905264,125.86559130001115,125.8656015000015,None,,,,,,,,,,,,,,,,,00004,001,2025-11-09_14h29.19.772,MST_task,2024.2.2,60.00092401253441,2025-11-09 14h29.25.287209 +0530,
,Scenes\176a.jpg,4,0,4,,,,,,,j,1.779133499992895,0.12105370000062976,None,,,,,,,4,0,4,0,125.88219080001,,,,,,,,,,,,,,,,,,,,,,,125.86567540001124,125.88219080001,126.39882000000216,126.36568090000947,,,,,,,,,,,,,,,,,,,,,,,,,,126.38093140001001,126.39882000000216,126.39882000000216,126.39882000000216,129.3822000000073,j,1.779133499992895,0.12105370000062976,129.3822450000007,129.3822564000002,None,,,,,,,,,,,,,,,,,00004,001,2025-11-09_14h29.19.772,MST_task,2024.2.2,60.00092401253441,2025-11-09 14h29.25.287209 +0530,
,Scenes\174a.jpg,5,0,5,,,,,,,j,1.4063910999975633,0.1253774000069825,None,,,,,,,5,0,5,0,129.39875710000342,,,,,,,,,,,,,,,,,,,,,,,129.38231620000442,129.39875710000342,129.91541820000566,129.88226510000823,,,,,,,,,,,,,,,,,,,,,,,,,,129.89760100000422,129.91541820000566,129.91541820000566,129.91541820000566,132.89874660001078,j,1.4063910999975633,0.1253774000069825,132.89878980000503,132.89880360000825,None,,,,,,,,,,,,,,,,,00004,001,2025-11-09_14h29.19.772,MST_task,2024.2.2,60.00092401253441,2025-11-09 14h29.25.287209 +0530,
,Scenes\158a.jpg,6,0,6,,,,,,,j,1.3122579000046244,0.1461871999927098,None,,,,,,,6,0,6,0,132.91535220001242,,,,,,,,,,,,,,,,,,,,,,,132.8988631000102,132.91535220001242,133.43200760000036,133.39886150001257,,,,,,,,,,,,,,,,,,,,,,,,,,133.4178588000068,133.43200760000036,133.43200760000036,133.43200760000036,136.41532130000996,j,1.3122579000046244,0.1461871999927098,136.41536720001022,136.4153781000059,None,,,,,,,,,,,,,,,,,00004,001,2025-11-09_14h29.19.772,MST_task,2024.2.2,60.00092401253441,2025-11-09 14h29.25.287209 +0530,
,Objects\145a.jpg,7,0,7,,,,,,,None,,,j,1.1831460999965202,None,,,,,7,0,7,0,136.43197430000873,,,,,,,,,,,,,,,,,,,,,,,136.4154409000039,136.43197430000873,136.94861640001182,136.91541410000355,,,,,,,,,,,,,,,,,,,,,,,,,,136.93671090000134,136.94861640001182,136.94861640001182,136.94861640001182,139.9319292,None,,,139.93197680001322,141.1322874000034,j,139.94857420001063,139.94857420001063,1.1831460999965202,None,,,,,,,,,,,,,00004,001,2025-11-09_14h29.19.772,MST_task,2024.2.2,60.00092401253441,2025-11-09 14h29.25.287209 +0530,
,Objects\149a.jpg,8,0,8,,,,,,,f,0.9989843999937875,0.16152760000841226,None,,,,,,,8,0,8,0,141.14854310000374,,,,,,,,,,,,,,,,,,,,,,,141.13239760001306,141.14854310000374,141.6651736000058,141.63204840000253,,,,,,,,,,,,,,,,,,,,,,,,,,141.64779350000026,141.6651736000058,141.6651736000058,141.6651736000058,144.6485371000017,f,0.9989843999937875,0.16152760000841226,144.64858880000247,144.64860100000806,None,,,,,,,,,,,,,,,,,00004,001,2025-11-09_14h29.19.772,MST_task,2024.2.2,60.00092401253441,2025-11-09 14h29.25.287209 +0530,
,Objects\168a.jpg,9,0,9,,,,,,,None,,,f,0.6202849999972386,None,,,,,9,0,9,0,144.66513420001138,,,,,,,,,,,,,,,,,,,,,,,144.64868009999918,144.66513420001138,145.18176870000025,145.1486799000122,,,,,,,,,,,,,,,,,,,,,,,,,,145.16433100000722,145.18176870000025,145.18176870000025,145.18176870000025,148.1651189000113,None,,,148.16515980000258,148.81543110001076,f,148.18174730001192,148.18174730001192,0.6202849999972386,None,,,,,,,,,,,,,00004,001,2025-11-09_14h29.19.772,MST_task,2024.2.2,60.00092401253441,2025-11-09 14h29.25.287209 +0530,
,Objects\103a.jpg,10,0,10,,,,,,,f,1.6608004000008805,0.13440999999875203,None,,,,,,,10,0,10,0,148.8316932000016,,,,,,,,,,,,,,,,,,,,,,,148.8155395000067,148.8316932000016,149.34836700001324,149.31519770000887,,,,,,,,,,,,,,,,,,,,,,,,,,149.3309600000066,149.34836700001324,149.34836700001324,149.34836700001324,152.33169890000136,f,1.6608004000008805,0.13440999999875203,152.3317495000083,152.331760400004,None,,,,,,,,,,,,,,,,,00004,001,2025-11-09_14h29.19.772,MST_task,2024.2.2,60.00092401253441,2025-11-09 14h29.25.287209 +0530,
,Objects\047a.jpg,11,0,11,,,,,,,f,0.9980738000012934,0.17983770000864752,None,,,,,,,11,0,11,0,152.3482944000134,,,,,,,,,,,,,,,,,,,,,,,152.33184430000256,152.3482944000134,152.86493960001098,152.83175940001092,,,,,,,,,,,,,,,,,,,,,,,,,,152.84792050000397,152.86493960001098,152.86493960001098,152.86493960001098,155.848238400009,f,0.9980738000012934,0.17983770000864752,155.84828650001145,155.84829770000943,None,,,,,,,,,,,,,,,,,00004,001,2025-11-09_14h29.19.772,MST_task,2024.2.2,60.00092401253441,2025-11-09 14h29.25.287209 +0530,
,Objects\053a.jpg,12,0,12,,,,,,,f,1.3185952000058023,0.14720890000171494,None,,,,,,,12,0,12,0,155.86493420001352,,,,,,,,,,,,,,,,,,,,,,,155.84837700000207,155.86493420001352,156.38153290000628,156.3484407000069,,,,,,,,,,,,,,,,,,,,,,,,,,156.36523220001254,156.38153290000628,156.38153290000628,156.38153290000628,159.36483400000725,f,1.3185952000058023,0.14720890000171494,159.36487900000066,159.36488950000785,None,,,,,,,,,,,,,,,,,00004,001,2025-11-09_14h29.19.772,MST_task,2024.2.2,60.00092401253441,2025-11-09 14h29.25.287209 +0530,
,Objects\185a.jpg,13,0,13,,,,,,,f,1.6553531999961706,0.17494630000146572,None,,,,,,,13,0,13,0,159.3814940000011,,,,,,,,,,,,,,,,,,,,,,,159.36496460001217,159.3814940000011,159.89812750001147,159.86500800000795,,,,,,,,,,,,,,,,,,,,,,,,,,159.88033980000182,159.89812750001147,159.89812750001147,159.89812750001147,162.881515400004,f,1.6553531999961706,0.17494630000146572,162.88157240000146,162.88158340001246,None,,,,,,,,,,,,,,,,,00004,001,2025-11-09_14h29.19.772,MST_task,2024.2.2,60.00092401253441,2025-11-09 14h29.25.287209 +0530,
,Scenes\074a.jpg,14,0,14,,,,,,,j,1.2430293999932474,0.17377490000217222,None,,,,,,,14,0,14,0,162.89809120001155,,,,,,,,,,,,,,,,,,,,,,,162.88166370001272,162.89809120001155,163.4147340000054,163.38163020000502,,,,,,,,,,,,,,,,,,,,,,,,,,163.39896620000945,163.4147340000054,163.4147340000054,163.4147340000054,166.39808100000664,j,1.2430293999932474,0.17377490000217222,166.39812620000157,166.39813700001105,None,,,,,,,,,,,,,,,,,00004,001,2025-11-09_14h29.19.772,MST_task,2024.2.2,60.00092401253441,2025-11-09 14h29.25.287209 +0530,
,Scenes\123a.jpg,15,0,15,,,,,,,j,1.0357284999918193,0.14578180000535212,None,,,,,,,15,0,15,0,166.41471420000016,,,,,,,,,,,,,,,,,,,,,,,166.39821880000818,166.41471420000016,166.93167560000438,166.89816670000437,,,,,,,,,,,,,,,,,,,,,,,,,,166.9132813000033,166.93167560000438,166.93167560000438,166.93167560000438,169.91464040000574,j,1.0357284999918193,0.14578180000535212,169.91468310001073,169.91469320000033,None,,,,,,,,,,,,,,,,,00004,001,2025-11-09_14h29.19.772,MST_task,2024.2.2,60.00092401253441,2025-11-09 14h29.25.287209 +0530,
,Scenes\058a.jpg,16,0,16,,,,,,,f,1.3439421000075527,0.1613126000011107,None,,,,,,,16,0,16,0,169.93127690000983,,,,,,,,,,,,,,,,,,,,,,,169.91476850000618,169.93127690000983,170.44790210000065,170.4148256000044,,,,,,,,,,,,,,,,,,,,,,,,,,170.43227300001308,170.44790210000065,170.44790210000065,170.44790210000065,173.43120479999925,f,1.3439421000075527,0.1613126000011107,173.4312487999996,173.43125920000602,None,,,,,,,,,,,,,,,,,00004,001,2025-11-09_14h29.19.772,MST_task,2024.2.2,60.00092401253441,2025-11-09 14h29.25.287209 +0530,
,Scenes\029a.jpg,17,0,17,,,,,,,j,1.0865341000026092,0.11394849998760037,None,,,,,,,17,0,17,0,173.44786240000394,,,,,,,,,,,,,,,,,,,,,,,173.4313317000051,173.44786240000394,173.9645346000034,173.93141560000367,,,,,,,,,,,,,,,,,,,,,,,,,,173.9457611000107,173.9645346000034,173.9645346000034,173.9645346000034,176.94781850000436,j,1.0865341000026092,0.11394849998760037,176.94786840000597,176.94787930000166,None,,,,,,,,,,,,,,,,,00004,001,2025-11-09_14h29.19.772,MST_task,2024.2.2,60.00092401253441,2025-11-09 14h29.25.287209 +0530,
,Scenes\047a.jpg,18,0,18,,,,,,,j,1.3123082999954931,0.12126169999828562,None,,,,,,,18,0,18,0,176.96446790000482,,,,,,,,,,,,,,,,,,,,,,,176.9479551000113,176.96446790000482,177.4814025000087,177.4479441000003,,,,,,,,,,,,,,,,,,,,,,,,,,177.4668978000118,177.4814025000087,177.4814025000087,177.4814025000087,180.46442480001133,j,1.3123082999954931,0.12126169999828562,180.4644696000032,180.46447970000736,None,,,,,,,,,,,,,,,,,00004,001,2025-11-09_14h29.19.772,MST_task,2024.2.2,60.00092401253441,2025-11-09 14h29.25.287209 +0530,
,Scenes\124a.jpg,19,0,19,,,,,,,j,1.531737900004373,0.14647279999917373,None,,,,,,,19,0,19,0,180.48103140000603,,,,,,,,,,,,,,,,,,,,,,,180.46456180000678,180.48103140000603,180.99769380000362,180.96462440000323,,,,,,,,,,,,,,,,,,,,,,,,,,180.9798892000108,180.99769380000362,180.99769380000362,180.99769380000362,183.98101750000205,j,1.531737900004373,0.14647279999917373,183.98107470000105,183.98108520000824,None,,,,,,,,,,,,,,,,,00004,001,2025-11-09_14h29.19.772,MST_task,2024.2.2,60.00092401253441,2025-11-09 14h29.25.287209 +0530,
,Scenes\002a.jpg,20,0,20,,,,,,,j,1.5352214000013191,0.16126139998959843,None,,,,,,,20,0,20,0,183.99761950000538,,,,,,,,,,,,,,,,,,,,,,,183.98116630000004,183.99761950000538,184.51460410001164,184.48112520000723,,,,,,,,,,,,,,,,,,,,,,,,,,184.5020838000055,184.51460410001164,184.51460410001164,184.51460410001164,187.4975994000124,j,1.5352214000013191,0.16126139998959843,187.49764450000657,187.49765509999997,None,,,,,,,,,,,,,,,,,00004,001,2025-11-09_14h29.19.772,MST_task,2024.2.2,60.00092401253441,2025-11-09 14h29.25.287209 +0530,
,Objects\088a.jpg,21,0,21,,,,,,,None,,,f,0.49683099999674596,None,,,,,21,0,21,0,187.51423840000643,,,,,,,,,,,,,,,,,,,,,,,187.49772830000438,187.51423840000643,188.03118090001226,187.99780550001014,,,,,,,,,,,,,,,,,,,,,,,,,,188.01660450000782,188.03118090001226,188.03118090001226,188.03118090001226,191.01419600000372,None,,,191.01423720001185,191.53126400000474,f,191.03087349999987,191.03087349999987,0.49683099999674596,None,,,,,,,,,,,,,00004,001,2025-11-09_14h29.19.772,MST_task,2024.2.2,60.00092401253441,2025-11-09 14h29.25.287209 +0530,
,Objects\184a.jpg,22,0,22,,,,,,,None,,,j,0.447727600010694,None,,,,,22,0,22,0,191.54751280001074,,,,,,,,,,,,,,,,,,,,,,,191.53137210001296,191.54751280001074,192.06413780000003,192.03106280000065,,,,,,,,,,,,,,,,,,,,,,,,,,192.0484228000132,192.06413780000003,192.06413780000003,192.06413780000003,195.04748200000904,None,,,195.047524300011,195.51443819999986,j,195.06408229999943,195.06408229999943,0.447727600010694,None,,,,,,,,,,,,,00004,001,2025-11-09_14h29.19.772,MST_task,2024.2.2,60.00092401253441,2025-11-09 14h29.25.287209 +0530,
,Objects\081a.jpg,23,0,23,,,,,,,f,2.4504515000007814,0.17823150000185706,None,,,,,,,23,0,23,0,195.53074670000933,,,,,,,,,,,,,,,,,,,,,,,195.51454980000563,195.53074670000933,196.04737080000632,196.0142160000105,,,,,,,,,,,,,,,,,,,,,,,,,,196.03184020001208,196.04737080000632,196.04737080000632,196.04737080000632,199.03072890000476,f,2.4504515000007814,0.17823150000185706,199.03077260000282,199.03078310001,None,,,,,,,,,,,,,,,,,00004,001,2025-11-09_14h29.19.772,MST_task,2024.2.2,60.00092401253441,2025-11-09 14h29.25.287209 +0530,
,Objects\040a.jpg,24,0,24,,,,,,,f,0.7056535000010626,0.16624030000821222,None,,,,,,,24,0,24,0,199.04733820000547,,,,,,,,,,,,,,,,,,,,,,,199.03083900001366,199.04733820000547,199.56396030000178,199.5308822000079,,,,,,,,,,,,,,,,,,,,,,,,,,199.54669560000184,199.56396030000178,199.56396030000178,199.56396030000178,202.54729300001054,f,0.7056535000010626,0.16624030000821222,202.54733739999938,202.54734790000657,None,,,,,,,,,,,,,,,,,00004,001,2025-11-09_14h29.19.772,MST_task,2024.2.2,60.00092401253441,2025-11-09 14h29.25.287209 +0530,
,Objects\031a.jpg,25,0,25,,,,,,,f,1.8005335999914678,0.15051380000659265,None,,,,,,,25,0,25,0,202.5639385000104,,,,,,,,,,,,,,,,,,,,,,,202.54740480000328,202.5639385000104,203.08055500000773,203.04744400001073,,,,,,,,,,,,,,,,,,,,,,,,,,203.06290680001257,203.08055500000773,203.08055500000773,203.08055500000773,206.06392050000431,f,1.8005335999914678,0.15051380000659265,206.0639654000115,206.0639763000072,None,,,,,,,,,,,,,,,,,00004,001,2025-11-09_14h29.19.772,MST_task,2024.2.2,60.00092401253441,2025-11-09 14h29.25.287209 +0530,
,Objects\018a.jpg,26,0,26,,,,,,,f,1.1061569000012241,0.13804399999207817,None,,,,,,,26,0,26,0,206.08052920000046,,,,,,,,,,,,,,,,,,,,,,,206.06405270000687,206.08052920000046,206.59718730000895,206.56407410000975,,,,,,,,,,,,,,,,,,,,,,,,,,206.58033080000314,206.59718730000895,206.59718730000895,206.59718730000895,209.58050430000003,f,1.1061569000012241,0.13804399999207817,209.5805495000095,209.5805648000096,None,,,,,,,,,,,,,,,,,00004,001,2025-11-09_14h29.19.772,MST_task,2024.2.2,60.00092401253441,2025-11-09 14h29.25.287209 +0530,
,Objects\085a.jpg,27,0,27,,,,,,,f,1.3097521999879973,0.14975100000447128,None,,,,,,,27,0,27,0,209.59712299999956,,,,,,,,,,,,,,,,,,,,,,,209.58062269999937,209.59712299999956,210.11377500000526,210.08063110000512,,,,,,,,,,,,,,,,,,,,,,,,,,210.09699370000453,210.11377500000526,210.11377500000526,210.11377500000526,213.0970704000065,f,1.3097521999879973,0.14975100000447128,213.09711480000988,213.09712600000785,None,,,,,,,,,,,,,,,,,00004,001,2025-11-09_14h29.19.772,MST_task,2024.2.2,60.00092401253441,2025-11-09 14h29.25.287209 +0530,
,Scenes\075a.jpg,28,0,28,,,,,,,j,1.0704688999976497,0.14376910000282805,None,,,,,,,28,0,28,0,213.1137172000017,,,,,,,,,,,,,,,,,,,,,,,213.09720020000532,213.1137172000017,213.63066240001353,213.59720290001133,,,,,,,,,,,,,,,,,,,,,,,,,,213.61169040000823,213.63066240001353,213.63066240001353,213.63066240001353,216.61367240000982,j,1.0704688999976497,0.14376910000282805,216.61372040001152,216.6137313000072,None,,,,,,,,,,,,,,,,,00004,001,2025-11-09_14h29.19.772,MST_task,2024.2.2,60.00092401253441,2025-11-09 14h29.25.287209 +0530,
,Scenes\088a.jpg,29,0,29,,,,,,,j,0.8945963000005577,0.12195269999210723,None,,,,,,,29,0,29,0,216.63027060001332,,,,,,,,,,,,,,,,,,,,,,,216.61384020000696,216.63027060001332,217.14720130000205,217.11378940001305,,,,,,,,,,,,,,,,,,,,,,,,,,217.13633220001066,217.14720130000205,217.14720130000205,217.14720130000205,220.13028830000258,j,0.8945963000005577,0.12195269999210723,220.13033360001282,220.13034410000546,None,,,,,,,,,,,,,,,,,00004,001,2025-11-09_14h29.19.772,MST_task,2024.2.2,60.00092401253441,2025-11-09 14h29.25.287209 +0530,
,Scenes\141a.jpg,30,0,30,,,,,,,j,0.827538800003822,0.13029180000012275,None,,,,,,,30,0,30,0,220.14689790000557,,,,,,,,,,,,,,,,,,,,,,,220.13042090000818,220.14689790000557,220.66352790000383,220.63038349999988,,,,,,,,,,,,,,,,,,,,,,,,,,220.64632150001125,220.66352790000383,220.66352790000383,220.66352790000383,223.64684800000396,j,0.827538800003822,0.13029180000012275,223.64689240000735,223.6469029,None,,,,,,,,,,,,,,,,,00004,001,2025-11-09_14h29.19.772,MST_task,2024.2.2,60.00092401253441,2025-11-09 14h29.25.287209 +0530,
,Scenes\180a.jpg,31,0,31,,,,,,,j,0.8712233999976888,0.1298477000091225,None,,,,,,,31,0,31,0,223.66349350000382,,,,,,,,,,,,,,,,,,,,,,,223.64697890001116,223.66349350000382,224.1801196000015,224.1469422000082,,,,,,,,,,,,,,,,,,,,,,,,,,224.1626898000104,224.1801196000015,224.1801196000015,224.1801196000015,227.16343500000949,j,0.8712233999976888,0.1298477000091225,227.16348090000974,227.16349140000239,None,,,,,,,,,,,,,,,,,00004,001,2025-11-09_14h29.19.772,MST_task,2024.2.2,60.00092401253441,2025-11-09 14h29.25.287209 +0530,
,Scenes\145a.jpg,32,0,32,,,,,,,j,1.5587740000046324,0.14448569998785388,None,,,,,,,32,0,32,0,227.18008990000817,,,,,,,,,,,,,,,,,,,,,,,227.1635505000013,227.18008990000817,227.6967134000006,227.66355820000172,,,,,,,,,,,,,,,,,,,,,,,,,,227.6828158000135,227.6967134000006,227.6967134000006,227.6967134000006,230.68003810000664,j,1.5587740000046324,0.14448569998785388,230.6800840000069,230.68009480000183,None,,,,,,,,,,,,,,,,,00004,001,2025-11-09_14h29.19.772,MST_task,2024.2.2,60.00092401253441,2025-11-09 14h29.25.287209 +0530,
,Scenes\065a.jpg,33,0,33,,,,,,,j,0.9697346999892034,0.13688750000437722,None,,,,,,,33,0,33,0,230.6966814000043,,,,,,,,,,,,,,,,,,,,,,,230.6801778000081,230.6966814000043,231.2135496000119,231.18016910000006,,,,,,,,,,,,,,,,,,,,,,,,,,231.19785510000656,231.2135496000119,231.2135496000119,231.2135496000119,234.19663260001107,j,0.9697346999892034,0.13688750000437722,234.1966817000066,234.1966933000076,None,,,,,,,,,,,,,,,,,00004,001,2025-11-09_14h29.19.772,MST_task,2024.2.2,60.00092401253441,2025-11-09 14h29.25.287209 +0530,
,Scenes\138a.jpg,34,0,34,,,,,,,j,2.1501620000053663,0.1415969999943627,None,,,,,,,34,0,34,0,234.21327400000882,,,,,,,,,,,,,,,,,,,,,,,234.19677540000703,234.21327400000882,234.72990290001326,234.69676150000305,,,,,,,,,,,,,,,,,,,,,,,,,,234.7124305000034,234.72990290001326,234.72990290001326,234.72990290001326,237.71323420001136,j,2.1501620000053663,0.1415969999943627,237.71327620001102,237.71328670000366,None,,,,,,,,,,,,,,,,,00004,001,2025-11-09_14h29.19.772,MST_task,2024.2.2,60.00092401253441,2025-11-09 14h29.25.287209 +0530,
,Objects\113a.jpg,35,0,35,,,,,,,f,2.242296099997475,0.16247280000243336,None,,,,,,,35,0,35,0,237.7298712000047,,,,,,,,,,,,,,,,,,,,,,,237.7133610000019,237.7298712000047,238.24682620000385,238.21334560000105,,,,,,,,,,,,,,,,,,,,,,,,,,238.22974390001036,238.24682620000385,238.24682620000385,238.24682620000385,241.22979110000597,f,2.242296099997475,0.16247280000243336,241.2298382000008,241.2298492000118,None,,,,,,,,,,,,,,,,,00004,001,2025-11-09_14h29.19.772,MST_task,2024.2.2,60.00092401253441,2025-11-09 14h29.25.287209 +0530,
,Objects\086a.jpg,36,0,36,,,,,,,j,1.8601252000080422,0.1346376000001328,None,,,,,,,36,0,36,0,241.24647750001168,,,,,,,,,,,,,,,,,,,,,,,241.2299081000092,241.24647750001168,241.76311940001324,241.72994660001132,,,,,,,,,,,,,,,,,,,,,,,,,,241.74599000001035,241.76311940001324,241.76311940001324,241.76311940001324,244.74640970000473,j,1.8601252000080422,0.1346376000001328,244.74645320000127,244.74646380000922,None,,,,,,,,,,,,,,,,,00004,001,2025-11-09_14h29.19.772,MST_task,2024.2.2,60.00092401253441,2025-11-09 14h29.25.287209 +0530,
,Objects\078a.jpg,37,0,37,,,,,,,j,1.4435031000029994,0.11416749999625608,None,,,,,,,37,0,37,0,244.76307130001078,,,,,,,,,,,,,,,,,,,,,,,244.74653709999984,244.76307130001078,245.27967660001013,245.24653380000382,,,,,,,,,,,,,,,,,,,,,,,,,,245.26254570001038,245.27967660001013,245.27967660001013,245.27967660001013,248.26301090000197,j,1.4435031000029994,0.11416749999625608,248.26305440001306,248.26306500000646,None,,,,,,,,,,,,,,,,,00004,001,2025-11-09_14h29.19.772,MST_task,2024.2.2,60.00092401253441,2025-11-09 14h29.25.287209 +0530,
,Objects\147a.jpg,38,0,38,,,,,,,f,1.0969570000015665,0.17431249999208376,None,,,,,,,38,0,38,0,248.27961770001275,,,,,,,,,,,,,,,,,,,,,,,248.26312390000385,248.27961770001275,248.79627160000382,248.76312610000605,,,,,,,,,,,,,,,,,,,,,,,,,,248.78051880000567,248.79627160000382,248.79627160000382,248.79627160000382,251.7796046000003,f,1.0969570000015665,0.17431249999208376,251.77965050000057,251.779660900007,None,,,,,,,,,,,,,,,,,00004,001,2025-11-09_14h29.19.772,MST_task,2024.2.2,60.00092401253441,2025-11-09 14h29.25.287209 +0530,
,Objects\067a.jpg,39,0,39,,,,,,,None,,,f,0.016732699994463474,None,,,,,39,0,39,0,251.79620790001354,,,,,,,,,,,,,,,,,,,,,,,251.77972010000667,251.79620790001354,252.31287960000918,252.2797636000032,,,,,,,,,,,,,,,,,,,,,,,,,,252.29783280000265,252.31287960000918,252.31287960000918,252.31287960000918,255.2961604000011,None,,,255.29620630000136,255.3300040000031,f,255.31283340000664,255.31283340000664,0.016732699994463474,None,,,,,,,,,,,,,00004,001,2025-11-09_14h29.19.772,MST_task,2024.2.2,60.00092401253441,2025-11-09 14h29.25.287209 +0530,
,Objects\166a.jpg,40,0,40,,,,,,,f,0.9489939999912167,0.13440530000661965,None,,,,,,,40,0,40,0,255.34618940000655,,,,,,,,,,,,,,,,,,,,,,,255.33006910000404,255.34618940000655,255.8628422000038,255.82969500000763,,,,,,,,,,,,,,,,,,,,,,,,,,255.8456656000053,255.8628422000038,255.8628422000038,255.8628422000038,258.84614630001306,f,0.9489939999912167,0.13440530000661965,258.84619770001154,258.84620860000723,None,,,,,,,,,,,,,,,,,00004,001,2025-11-09_14h29.19.772,MST_task,2024.2.2,60.00092401253441,2025-11-09 14h29.25.287209 +0530,
,Objects\158a.jpg,41,0,41,,,,,,,f,1.5295622999983607,0.14672979999158997,None,,,,,,,41,0,41,0,258.8627570000099,,,,,,,,,,,,,,,,,,,,,,,258.84629549999954,258.8627570000099,259.3794195000082,259.34638950000226,,,,,,,,,,,,,,,,,,,,,,,,,,259.3622508000117,259.3794195000082,259.3794195000082,259.3794195000082,262.3626890000014,f,1.5295622999983607,0.14672979999158997,262.36273330000404,262.3627434000082,None,,,,,,,,,,,,,,,,,00004,001,2025-11-09_14h29.19.772,MST_task,2024.2.2,60.00092401253441,2025-11-09 14h29.25.287209 +0530,
,Scenes\190a.jpg,42,0,42,,,,,,,j,1.2137096999940695,0.13399570000183303,None,,,,,,,42,0,42,0,262.37935330001346,,,,,,,,,,,,,,,,,,,,,,,262.3628199000086,262.37935330001346,262.8959797000134,262.86280980000447,,,,,,,,,,,,,,,,,,,,,,,,,,262.88268600001174,262.8959797000134,262.8959797000134,262.8959797000134,265.87927520000085,j,1.2137096999940695,0.13399570000183303,265.8793250000017,265.87934670000686,None,,,,,,,,,,,,,,,,,00004,001,2025-11-09_14h29.19.772,MST_task,2024.2.2,60.00092401253441,2025-11-09 14h29.25.287209 +0530,
,Scenes\105a.jpg,43,0,43,,,,,,,j,1.0048070000048028,0.142086299994844,None,,,,,,,43,0,43,0,265.8959402000037,,,,,,,,,,,,,,,,,,,,,,,265.8794049999997,265.8959402000037,266.41263930000423,266.3794521000091,,,,,,,,,,,,,,,,,,,,,,,,,,266.3932364000066,266.41263930000423,266.41263930000423,266.41263930000423,269.3959399000014,j,1.0048070000048028,0.142086299994844,269.3959840000025,269.39599460001045,None,,,,,,,,,,,,,,,,,00004,001,2025-11-09_14h29.19.772,MST_task,2024.2.2,60.00092401253441,2025-11-09 14h29.25.287209 +0530,
,Scenes\016a.jpg,44,0,44,,,,,,,j,0.899338400005945,0.11652300000423566,None,,,,,,,44,0,44,0,269.4125458000053,,,,,,,,,,,,,,,,,,,,,,,269.39606950001325,269.4125458000053,269.92937209999945,269.89600960000826,,,,,,,,,,,,,,,,,,,,,,,,,,269.9127326000016,269.92937209999945,269.92937209999945,269.92937209999945,272.912530600006,j,0.899338400005945,0.11652300000423566,272.91257960000075,272.91258980000566,None,,,,,,,,,,,,,,,,,00004,001,2025-11-09_14h29.19.772,MST_task,2024.2.2,60.00092401253441,2025-11-09 14h29.25.287209 +0530,
,Scenes\020a.jpg,45,0,45,,,,,,,f,2.3150606999988668,0.12661160000425298,None,,,,,,,45,0,45,0,272.9290992000024,,,,,,,,,,,,,,,,,,,,,,,272.9126832000038,272.9290992000024,273.44598610000685,273.41269770001236,,,,,,,,,,,,,,,,,,,,,,,,,,273.4352463000105,273.44598610000685,273.44598610000685,273.44598610000685,276.4291113000072,f,2.3150606999988668,0.12661160000425298,276.42915560000984,276.42916690000857,None,,,,,,,,,,,,,,,,,00004,001,2025-11-09_14h29.19.772,MST_task,2024.2.2,60.00092401253441,2025-11-09 14h29.25.287209 +0530,
,Scenes\120a.jpg,46,0,46,,,,,,,j,2.5482867999962764,0.1327099000045564,None,,,,,,,46,0,46,0,276.4456893000024,,,,,,,,,,,,,,,,,,,,,,,276.42924210001365,276.4456893000024,276.9626369000034,276.92922440000984,,,,,,,,,,,,,,,,,,,,,,,,,,276.951570300007,276.9626369000034,276.9626369000034,276.9626369000034,279.94564450001053,j,2.5482867999962764,0.1327099000045564,279.94568530000106,279.9456952000037,None,,,,,,,,,,,,,,,,,00004,001,2025-11-09_14h29.19.772,MST_task,2024.2.2,60.00092401253441,2025-11-09 14h29.25.287209 +0530,
,Scenes\030a.jpg,47,0,47,,,,,,,j,1.5205714000039734,0.14940129999013152,None,,,,,,,47,0,47,0,279.9623285000125,,,,,,,,,,,,,,,,,,,,,,,279.94576600000437,279.9623285000125,280.4792121000064,280.44583540000895,,,,,,,,,,,,,,,,,,,,,,,,,,280.4654417000129,280.4792121000064,280.4792121000064,280.4792121000064,283.4623191000137,j,1.5205714000039734,0.14940129999013152,283.4623680000077,283.4623786000011,None,,,,,,,,,,,,,,,,,00004,001,2025-11-09_14h29.19.772,MST_task,2024.2.2,60.00092401253441,2025-11-09 14h29.25.287209 +0530,
,Scenes\011a.jpg,48,0,48,,,,,,,j,1.8318889000074705,0.12674910000350792,None,,,,,,,48,0,48,0,283.47891320000053,,,,,,,,,,,,,,,,,,,,,,,283.4624409000098,283.47891320000053,283.99577280000085,283.96246190000966,,,,,,,,,,,,,,,,,,,,,,,,,,283.98554920000606,283.99577280000085,283.99577280000085,283.99577280000085,286.9788663000072,j,1.8318889000074705,0.12674910000350792,286.97891810000874,286.9789302999998,None,,,,,,,,,,,,,,,,,00004,001,2025-11-09_14h29.19.772,MST_task,2024.2.2,60.00092401253441,2025-11-09 14h29.25.287209 +0530,
,Objects\177a.jpg,49,0,49,,,,,,,j,1.472774699999718,0.1418351000029361,None,,,,,,,49,0,49,0,286.9955050999997,,,,,,,,,,,,,,,,,,,,,,,286.97901300000376,286.9955050999997,287.51245540000673,287.47898330001044,,,,,,,,,,,,,,,,,,,,,,,,,,287.49442430000636,287.51245540000673,287.51245540000673,287.51245540000673,290.4954859000136,j,1.472774699999718,0.1418351000029361,290.4955301000009,290.49554020000505,None,,,,,,,,,,,,,,,,,00004,001,2025-11-09_14h29.19.772,MST_task,2024.2.2,60.00092401253441,2025-11-09 14h29.25.287209 +0530,
,Objects\013a.jpg,50,0,50,,,,,,,j,2.76006430000416,0.1322232999955304,None,,,,,,,50,0,50,0,290.5121003000095,,,,,,,,,,,,,,,,,,,,,,,290.4956125000026,290.5121003000095,291.02877300001273,290.99562890001107,,,,,,,,,,,,,,,,,,,,,,,,,,291.01168000001053,291.02877300001273,291.02877300001273,291.02877300001273,294.0120295000088,j,2.76006430000416,0.1322232999955304,294.0120756000106,294.01208630000474,None,,,,,,,,,,,,,,,,,00004,001,2025-11-09_14h29.19.772,MST_task,2024.2.2,60.00092401253441,2025-11-09 14h29.25.287209 +0530,
,Objects\059a.jpg,51,0,51,,,,,,,j,1.6162307000049623,0.12177240000164602,None,,,,,,,51,0,51,0,294.02868310001213,,,,,,,,,,,,,,,,,,,,,,,294.0121485000127,294.02868310001213,294.54534050000075,294.51218710000103,,,,,,,,,,,,,,,,,,,,,,,,,,294.5282664000115,294.54534050000075,294.54534050000075,294.54534050000075,297.528704700002,j,1.6162307000049623,0.12177240000164602,297.5287738000043,297.5287887000013,None,,,,,,,,,,,,,,,,,00004,001,2025-11-09_14h29.19.772,MST_task,2024.2.2,60.00092401253441,2025-11-09 14h29.25.287209 +0530,
,Objects\060a.jpg,52,0,52,,,,,,,f,0.9768142000102671,0.16451249999227002,None,,,,,,,52,0,52,0,297.54530350001005,,,,,,,,,,,,,,,,,,,,,,,297.5288750000036,297.54530350001005,298.0619041000027,298.02882130000216,,,,,,,,,,,,,,,,,,,,,,,,,,298.04396680000355,298.0619041000027,298.0619041000027,298.0619041000027,301.04526579999947,f,0.9768142000102671,0.16451249999227002,301.04531070000667,301.0453211000131,None,,,,,,,,,,,,,,,,,00004,001,2025-11-09_14h29.19.772,MST_task,2024.2.2,60.00092401253441,2025-11-09 14h29.25.287209 +0530,
,Objects\174a.jpg,53,0,53,,,,,,,f,0.9672377999959281,0.14939240000967402,None,,,,,,,53,0,53,0,301.06187230000796,,,,,,,,,,,,,,,,,,,,,,,301.04538290000346,301.06187230000796,301.57850370000233,301.5454284000007,,,,,,,,,,,,,,,,,,,,,,,,,,301.56145330000436,301.57850370000233,301.57850370000233,301.57850370000233,304.56184930000745,f,0.9672377999959281,0.14939240000967402,304.5618964000023,304.56190760000027,None,,,,,,,,,,,,,,,,,00004,001,2025-11-09_14h29.19.772,MST_task,2024.2.2,60.00092401253441,2025-11-09 14h29.25.287209 +0530,
,Objects\099a.jpg,54,0,54,,,,,,,f,1.6525649999966845,0.19018530000175815,None,,,,,,,54,0,54,0,304.5784299000079,,,,,,,,,,,,,,,,,,,,,,,304.56198589999985,304.5784299000079,305.09511150000617,305.0620138000086,,,,,,,,,,,,,,,,,,,,,,,,,,305.07881050001015,305.09511150000617,305.09511150000617,305.09511150000617,308.0783964000002,f,1.6525649999966845,0.19018530000175815,308.078453500013,308.0784636000026,None,,,,,,,,,,,,,,,,,00004,001,2025-11-09_14h29.19.772,MST_task,2024.2.2,60.00092401253441,2025-11-09 14h29.25.287209 +0530,
,Objects\172a.jpg,55,0,55,,,,,,,j,1.3238888999912888,0.1777799999981653,None,,,,,,,55,0,55,0,308.0950826000044,,,,,,,,,,,,,,,,,,,,,,,308.0785210000031,308.0950826000044,308.6117207000061,308.57855850001215,,,,,,,,,,,,,,,,,,,,,,,,,,308.59456430000137,308.6117207000061,308.6117207000061,308.6117207000061,311.5949862000125,j,1.3238888999912888,0.1777799999981653,311.5950300000113,311.59504080000625,None,,,,,,,,,,,,,,,,,00004,001,2025-11-09_14h29.19.772,MST_task,2024.2.2,60.00092401253441,2025-11-09 14h29.25.287209 +0530,
,Scenes\090a.jpg,56,0,56,,,,,,,j,1.190928400013945,0.13589579999097623,None,,,,,,,56,0,56,0,311.61165520000213,,,,,,,,,,,,,,,,,,,,,,,311.59511270000075,311.61165520000213,312.12854150000203,312.09512410000025,,,,,,,,,,,,,,,,,,,,,,,,,,312.11633540000184,312.12854150000203,312.12854150000203,312.12854150000203,315.1115848000045,j,1.190928400013945,0.13589579999097623,315.1116355000122,315.1116458000033,None,,,,,,,,,,,,,,,,,00004,001,2025-11-09_14h29.19.772,MST_task,2024.2.2,60.00092401253441,2025-11-09 14h29.25.287209 +0530,
,Scenes\006a.jpg,57,0,57,,,,,,,j,2.901042799989227,None,None,,,,,,,57,0,57,0,315.12824390000605,,,,,,,,,,,,,,,,,,,,,,,315.1117200000008,315.12824390000605,315.6448749000119,315.61177139999927,,,,,,,,,,,,,,,,,,,,,,,,,,315.6271281000081,315.6448749000119,315.6448749000119,315.6448749000119,318.6281983000081,j,2.901042799989227,None,318.62824270001147,318.6282529000018,None,,,,,,,,,,,,,,,,,00004,001,2025-11-09_14h29.19.772,MST_task,2024.2.2,60.00092401253441,2025-11-09 14h29.25.287209 +0530,
,Scenes\013a.jpg,58,0,58,,,,,,,j,1.2175294000044232,0.16993750000256114,None,,,,,,,58,0,58,0,318.64483550000296,,,,,,,,,,,,,,,,,,,,,,,318.628311700013,318.64483550000296,319.16171290000784,319.1284005000052,,,,,,,,,,,,,,,,,,,,,,,,,,319.1475047999993,319.16171290000784,319.16171290000784,319.16171290000784,322.14480600001116,j,1.2175294000044232,0.16993750000256114,322.14485570001125,322.14486730001227,None,,,,,,,,,,,,,,,,,00004,001,2025-11-09_14h29.19.772,MST_task,2024.2.2,60.00092401253441,2025-11-09 14h29.25.287209 +0530,
,Scenes\012a.jpg,59,0,59,,,,,,,j,1.8010694999975385,0.16122620001260657,None,,,,,,,59,0,59,0,322.16142980000586,,,,,,,,,,,,,,,,,,,,,,,322.1449719000084,322.16142980000586,,322.66146700001264,,,,,,,,,,,,,,,,,,,,,,,,,,322.68126300000586,322.69472520001,322.69472520001,322.69472520001,325.66137940000044,j,1.8010694999975385,0.16122620001260657,325.66143260001263,325.66144429999986,None,,,,,,,,,,,,,,,,,00004,001,2025-11-09_14h29.19.772,MST_task,2024.2.2,60.00092401253441,2025-11-09 14h29.25.287209 +0530,
,Scenes\033a.jpg,60,0,60,,,,,,,j,1.3382484999892768,0.1542193000059342,None,,,,,,,60,0,60,0,325.6780271000025,,,,,,,,,,,,,,,,,,,,,,,325.66152250001323,325.6780271000025,326.19489830000384,326.1615129000129,,,,,,,,,,,,,,,,,,,,,,,,,,326.1760951000033,326.19489830000384,326.19489830000384,326.19489830000384,329.1780046000058,j,1.3382484999892768,0.1542193000059342,329.1780480000016,329.1780582000065,None,,,,,,,,,,,,,,,,,00004,001,2025-11-09_14h29.19.772,MST_task,2024.2.2,60.00092401253441,2025-11-09 14h29.25.287209 +0530,
,Scenes\053a.jpg,61,0,61,,,,,,,j,0.7426857000100426,0.16987620000145398,None,,,,,,,61,0,61,0,329.19460990000516,,,,,,,,,,,,,,,,,,,,,,,329.17811330000404,329.19460990000516,329.6946462000051,329.678155600006,,,,,,,,,,,,,,,,,,,,,,,,,,329.69054470000265,329.6946462000051,329.6946462000051,329.6946462000051,332.6781400000036,j,0.7426857000100426,0.16987620000145398,332.67818930000067,332.67819980000786,None,,,,,332.6945512000093,332.6945512000093,332.6945512000093,,,,,,,,,,00004,001,2025-11-09_14h29.19.772,MST_task,2024.2.2,60.00092401253441,2025-11-09 14h29.25.287209 +0530,
,Scenes\156a.jpg,62,0,62,,,,,,,j,1.2687745000002906,0.1611053999949945,None,,,,,,,62,0,62,0,332.6945512000093,,,,,,,,,,,,,,,,,,,,,,,332.67827980000584,332.6945512000093,333.2111697000073,333.1780422000011,,,,,,,,,,,,,,,,,,,,,,,,,,333.19407950001187,333.2111697000073,333.2111697000073,333.2111697000073,336.1944730000105,j,1.2687745000002906,0.1611053999949945,336.1945201000053,336.194531000001,None,,,,,,,,,,,,,,,,,00004,001,2025-11-09_14h29.19.772,MST_task,2024.2.2,60.00092401253441,2025-11-09 14h29.25.287209 +0530,
,Objects\072a.jpg,63,0,63,,,,,,,f,1.1638176999986172,0.16138309999951161,None,,,,,,,63,0,63,0,336.211135000005,,,,,,,,,,,,,,,,,,,,,,,336.1946056000015,336.211135000005,336.72797570000694,336.6945989000087,,,,,,,,,,,,,,,,,,,,,,,,,,336.71054600000207,336.72797570000694,336.72797570000694,336.72797570000694,339.7110923,f,1.1638176999986172,0.16138309999951161,339.71113930000865,339.7111505000066,None,,,,,,,,,,,,,,,,,00004,001,2025-11-09_14h29.19.772,MST_task,2024.2.2,60.00092401253441,2025-11-09 14h29.25.287209 +0530,
,Objects\191a.jpg,64,0,64,,,,,,,j,2.9169524000026286,None,None,,,,,,,64,0,64,0,339.72770149999997,,,,,,,,,,,,,,,,,,,,,,,339.71120730000257,339.72770149999997,340.2443568000017,340.2112787000078,,,,,,,,,,,,,,,,,,,,,,,,,,340.227959300013,340.2443568000017,340.2443568000017,340.2443568000017,343.227701300013,j,2.9169524000026286,None,343.22774480000953,343.2277555000037,None,,,,,,,,,,,,,,,,,00004,001,2025-11-09_14h29.19.772,MST_task,2024.2.2,60.00092401253441,2025-11-09 14h29.25.287209 +0530,
,Objects\165a.jpg,65,0,65,,,,,,,f,0.8711745999898994,0.19844690000172704,None,,,,,,,65,0,65,0,343.2443263000023,,,,,,,,,,,,,,,,,,,,,,,343.2278316000011,343.2443263000023,343.7609553000075,343.72779030000675,,,,,,,,,,,,,,,,,,,,,,,,,,343.7441262000066,343.7609553000075,343.7609553000075,343.7609553000075,346.7442609000136,f,0.8711745999898994,0.19844690000172704,346.7443084000115,346.7443187000026,None,,,,,,,,,,,,,,,,,00004,001,2025-11-09_14h29.19.772,MST_task,2024.2.2,60.00092401253441,2025-11-09 14h29.25.287209 +0530,
,Objects\069a.jpg,66,0,66,,,,,,,j,1.1022136000101455,0.1576020999928005,None,,,,,,,66,0,66,0,346.7609153000085,,,,,,,,,,,,,,,,,,,,,,,346.74439020000864,346.7609153000085,347.277559500013,347.24438660001033,,,,,,,,,,,,,,,,,,,,,,,,,,347.26108140000724,347.277559500013,347.277559500013,347.277559500013,350.2608409000095,j,1.1022136000101455,0.1576020999928005,350.2609003000107,350.26091070000257,None,,,,,,,,,,,,,,,,,00004,001,2025-11-09_14h29.19.772,MST_task,2024.2.2,60.00092401253441,2025-11-09 14h29.25.287209 +0530,
,Objects\140a.jpg,67,0,67,,,,,,,j,2.68091040001309,0.210409699997399,None,,,,,,,67,0,67,0,350.277522400007,,,,,,,,,,,,,,,,,,,,,,,350.260995500008,350.277522400007,350.79413110000314,350.7610340000101,,,,,,,,,,,,,,,,,,,,,,,,,,350.7764210000023,350.79413110000314,350.79413110000314,350.79413110000314,353.7775011000049,j,2.68091040001309,0.210409699997399,353.7775442000129,353.7775631000113,None,,,,,,,,,,,,,,,,,00004,001,2025-11-09_14h29.19.772,MST_task,2024.2.2,60.00092401253441,2025-11-09 14h29.25.287209 +0530,
,Objects\143a.jpg,68,0,68,,,,,,,f,1.0164428999996744,0.1466674000112107,None,,,,,,,68,0,68,0,353.79410420000204,,,,,,,,,,,,,,,,,,,,,,,353.77762210000947,353.79410420000204,354.3107325000019,354.2775990000082,,,,,,,,,,,,,,,,,,,,,,,,,,354.2937568000052,354.3107325000019,354.3107325000019,354.3107325000019,357.29403660001117,f,1.0164428999996744,0.1466674000112107,357.2940873000043,357.2940988000046,None,,,,,,,,,,,,,,,,,00004,001,2025-11-09_14h29.19.772,MST_task,2024.2.2,60.00092401253441,2025-11-09 14h29.25.287209 +0530,
,Objects\115a.jpg,69,0,69,,,,,,,f,0.7923269999882905,0.13364660000661388,None,,,,,,,69,0,69,0,357.3106914000091,,,,,,,,,,,,,,,,,,,,,,,357.2941562000051,357.3106914000091,357.8273506000114,357.79416720000154,,,,,,,,,,,,,,,,,,,,,,,,,,357.8097264000098,357.8273506000114,357.8273506000114,357.8273506000114,360.8106537999993,f,0.7923269999882905,0.13364660000661388,360.81069730001036,360.81070790000376,None,,,,,,,,,,,,,,,,,00004,001,2025-11-09_14h29.19.772,MST_task,2024.2.2,60.00092401253441,2025-11-09 14h29.25.287209 +0530,
,Scenes\017a.jpg,70,0,70,,,,,,,f,1.0795120999973733,0.14607299999624956,None,,,,,,,70,0,70,0,360.82730500001344,,,,,,,,,,,,,,,,,,,,,,,360.81078330001037,360.82730500001344,361.3442153000069,361.3108238999994,,,,,,,,,,,,,,,,,,,,,,,,,,361.33118550000654,361.3442153000069,361.3442153000069,361.3442153000069,364.3272358000104,f,1.0795120999973733,0.14607299999624956,364.3272961000039,364.3273074000026,None,,,,,,,,,,,,,,,,,00004,001,2025-11-09_14h29.19.772,MST_task,2024.2.2,60.00092401253441,2025-11-09 14h29.25.287209 +0530,
,Scenes\109a.jpg,71,0,71,,,,,,,j,1.8551440000010189,0.16557810000085738,None,,,,,,,71,0,71,0,364.3438801000011,,,,,,,,,,,,,,,,,,,,,,,364.32738390000304,364.3438801000011,364.8608019000094,364.8273840000038,,,,,,,,,,,,,,,,,,,,,,,,,,364.84400270000333,364.8608019000094,364.8608019000094,364.8608019000094,367.84382220001135,j,1.8551440000010189,0.16557810000085738,367.8438826000056,367.84389300001203,None,,,,,,,,,,,,,,,,,00004,001,2025-11-09_14h29.19.772,MST_task,2024.2.2,60.00092401253441,2025-11-09 14h29.25.287209 +0530,
,Scenes\024a.jpg,72,0,72,,,,,,,j,1.1181070000020554,0.12038510000274982,None,,,,,,,72,0,72,0,367.8604728000064,,,,,,,,,,,,,,,,,,,,,,,367.84395080000104,367.8604728000064,368.37740140000824,368.34393360000104,,,,,,,,,,,,,,,,,,,,,,,,,,368.36082810000516,368.37740140000824,368.37740140000824,368.37740140000824,371.36039850000816,j,1.1181070000020554,0.12038510000274982,371.3604417000024,371.36045300000114,None,,,,,,,,,,,,,,,,,00004,001,2025-11-09_14h29.19.772,MST_task,2024.2.2,60.00092401253441,2025-11-09 14h29.25.287209 +0530,
,Scenes\080a.jpg,73,0,73,,,,,,,j,1.147832799993921,0.15826880000531673,None,,,,,,,73,0,73,0,371.37710350001,,,,,,,,,,,,,,,,,,,,,,,371.36052980000386,371.37710350001,371.89372880000155,371.86057340000116,,,,,,,,,,,,,,,,,,,,,,,,,,371.8788942000101,371.89372880000155,371.89372880000155,371.89372880000155,374.8770374000014,j,1.147832799993921,0.15826880000531673,374.87709390000964,374.87710450000304,None,,,,,,,,,,,,,,,,,00004,001,2025-11-09_14h29.19.772,MST_task,2024.2.2,60.00092401253441,2025-11-09 14h29.25.287209 +0530,
,Scenes\059a.jpg,74,0,74,,,,,,,j,2.7267300999956205,0.13069600000744686,None,,,,,,,74,0,74,0,374.8936354000034,,,,,,,,,,,,,,,,,,,,,,,374.87718550000864,374.8936354000034,375.41031810001004,375.37720160000026,,,,,,,,,,,,,,,,,,,,,,,,,,375.39704390001134,375.41031810001004,375.41031810001004,375.41031810001004,378.3935826000088,j,2.7267300999956205,0.13069600000744686,378.39363020000746,378.39364050001313,None,,,,,,,,,,,,,,,,,00004,001,2025-11-09_14h29.19.772,MST_task,2024.2.2,60.00092401253441,2025-11-09 14h29.25.287209 +0530,
,Scenes\005a.jpg,75,0,75,,,,,,,j,1.9142812000063714,0.15443120000418276,None,,,,,,,75,0,75,0,378.4102564000059,,,,,,,,,,,,,,,,,,,,,,,378.39372820001154,378.4102564000059,378.92688330000965,378.89371190000384,,,,,,,,,,,,,,,,,,,,,,,,,,378.91055900001084,378.92688330000965,378.92688330000965,378.92688330000965,381.9101787000109,j,1.9142812000063714,0.15443120000418276,381.9102223000082,381.9102328000008,None,,,,,,,,,,,,,,,,,00004,001,2025-11-09_14h29.19.772,MST_task,2024.2.2,60.00092401253441,2025-11-09 14h29.25.287209 +0530,
,Scenes\083a.jpg,76,0,76,,,,,,,j,1.0140094999951543,0.1464783000119496,None,,,,,,,76,0,76,0,381.92684360001294,,,,,,,,,,,,,,,,,,,,,,,381.9102913000097,381.92684360001294,382.44349040000816,382.4103912999999,,,,,,,,,,,,,,,,,,,,,,,,,,382.427714800011,382.44349040000816,382.44349040000816,382.44349040000816,385.4268179000064,j,1.0140094999951543,0.1464783000119496,385.4268638000067,385.4268744000001,None,,,,,,,,,,,,,,,,,00004,001,2025-11-09_14h29.19.772,MST_task,2024.2.2,60.00092401253441,2025-11-09 14h29.25.287209 +0530,
,Objects\124a.jpg,77,0,77,,,,,,,j,1.2353902000031667,0.16949590000149328,None,,,,,,,77,0,77,0,385.44344220000494,,,,,,,,,,,,,,,,,,,,,,,385.4269549000019,385.44344220000494,385.9603424000088,385.92696160000924,,,,,,,,,,,,,,,,,,,,,,,,,,385.94271730000037,385.9603424000088,385.9603424000088,385.9603424000088,388.943399900003,j,1.2353902000031667,0.16949590000149328,388.9434545000113,388.943468100013,None,,,,,,,,,,,,,,,,,00004,001,2025-11-09_14h29.19.772,MST_task,2024.2.2,60.00092401253441,2025-11-09 14h29.25.287209 +0530,
,Objects\073a.jpg,78,0,78,,,,,,,f,1.2631590999953914,0.1459925000090152,None,,,,,,,78,0,78,0,388.960035600001,,,,,,,,,,,,,,,,,,,,,,,388.94354620001104,388.960035600001,389.47665220001363,389.44357840000885,,,,,,,,,,,,,,,,,,,,,,,,,,389.45916480000596,389.47665220001363,389.47665220001363,389.47665220001363,392.45999650000886,f,1.2631590999953914,0.1459925000090152,392.4600579000107,392.4600696000125,None,,,,,,,,,,,,,,,,,00004,001,2025-11-09_14h29.19.772,MST_task,2024.2.2,60.00092401253441,2025-11-09 14h29.25.287209 +0530,
,Objects\080a.jpg,79,0,79,,,,,,,f,2.876668199998676,None,None,,,,,,,79,0,79,0,392.4766249000095,,,,,,,,,,,,,,,,,,,,,,,392.46014890000515,392.4766249000095,392.993280900002,392.9601563000033,,,,,,,,,,,,,,,,,,,,,,,,,,392.97576420000405,392.993280900002,392.993280900002,392.993280900002,395.97660420001193,f,2.876668199998676,None,395.9766488000023,395.97665960001177,None,,,,,,,,,,,,,,,,,00004,001,2025-11-09_14h29.19.772,MST_task,2024.2.2,60.00092401253441,2025-11-09 14h29.25.287209 +0530,
,Objects\176a.jpg,80,0,80,,,,,,,j,0.8058717000094475,0.170000699989032,None,,,,,,,80,0,80,0,395.99320640000224,,,,,,,,,,,,,,,,,,,,,,,395.9767137000017,395.99320640000224,396.50987090000126,396.4768002000055,,,,,,,,,,,,,,,,,,,,,,,,,,396.4925449000002,396.50987090000126,396.50987090000126,396.50987090000126,399.4931595000089,j,0.8058717000094475,0.170000699989032,399.49320930000977,399.49322380000376,None,,,,,,,,,,,,,,,,,00004,001,2025-11-09_14h29.19.772,MST_task,2024.2.2,60.00092401253441,2025-11-09 14h29.25.287209 +0530,
,Objects\075a.jpg,81,0,81,,,,,,,f,1.6367144999967422,0.15690250000625383,None,,,,,,,81,0,81,0,399.5098044000042,,,,,,,,,,,,,,,,,,,,,,,399.49330400000326,399.5098044000042,400.02643910000916,399.99333870000555,,,,,,,,,,,,,,,,,,,,,,,,,,400.00881330000993,400.02643910000916,400.02643910000916,400.02643910000916,403.0097600000008,f,1.6367144999967422,0.15690250000625383,403.00980260000506,403.00981310001225,None,,,,,,,,,,,,,,,,,00004,001,2025-11-09_14h29.19.772,MST_task,2024.2.2,60.00092401253441,2025-11-09 14h29.25.287209 +0530,
,Objects\135a.jpg,82,0,82,,,,,,,f,1.2201631000061752,0.160113599995384,None,,,,,,,82,0,82,0,403.0263666000101,,,,,,,,,,,,,,,,,,,,,,,403.0098883000028,403.0263666000101,403.5430294000107,403.5099445000087,,,,,,,,,,,,,,,,,,,,,,,,,,403.5263827000017,403.5430294000107,403.5430294000107,403.5430294000107,406.5263578000013,f,1.2201631000061752,0.160113599995384,406.52641580000636,406.5264266000013,None,,,,,,,,,,,,,,,,,00004,001,2025-11-09_14h29.19.772,MST_task,2024.2.2,60.00092401253441,2025-11-09 14h29.25.287209 +0530,
,Objects\156a.jpg,83,0,83,,,,,,,f,1.2060190999909537,0.12643190000380855,None,,,,,,,83,0,83,0,406.54295900001307,,,,,,,,,,,,,,,,,,,,,,,406.52650790000916,406.54295900001307,,407.026526200003,,,,,,,,,,,,,,,,,,,,,,,,,,407.0430403000064,407.0596358000039,407.0596358000039,407.0596358000039,410.0429667000135,f,1.2060190999909537,0.12643190000380855,410.0430281000008,410.04303710001113,None,,,,,,,,,,,,,,,,,00004,001,2025-11-09_14h29.19.772,MST_task,2024.2.2,60.00092401253441,2025-11-09 14h29.25.287209 +0530,
,Scenes\163a.jpg,84,0,84,,,,,,,j,0.9198319000133779,0.15928819999680854,None,,,,,,,84,0,84,0,410.0595849000092,,,,,,,,,,,,,,,,,,,,,,,410.0431176000129,410.0595849000092,410.57622520001314,410.5431602000026,,,,,,,,,,,,,,,,,,,,,,,,,,410.55723299999954,410.57622520001314,410.57622520001314,410.57622520001314,413.55955320000066,j,0.9198319000133779,0.15928819999680854,413.55960610001057,413.55961750001006,None,,,,,,,,,,,,,,,,,00004,001,2025-11-09_14h29.19.772,MST_task,2024.2.2,60.00092401253441,2025-11-09 14h29.25.287209 +0530,
,Scenes\129a.jpg,85,0,85,,,,,,,j,1.5426657000061823,0.13803719999850728,None,,,,,,,85,0,85,0,413.576184000005,,,,,,,,,,,,,,,,,,,,,,,413.5597024000017,413.576184000005,414.09280880000733,414.05964830001176,,,,,,,,,,,,,,,,,,,,,,,,,,414.07406920001085,414.09280880000733,414.09280880000733,414.09280880000733,417.07611220001127,j,1.5426657000061823,0.13803719999850728,417.07617140001094,417.0761818000028,None,,,,,,,,,,,,,,,,,00004,001,2025-11-09_14h29.19.772,MST_task,2024.2.2,60.00092401253441,2025-11-09 14h29.25.287209 +0530,
,Scenes\021a.jpg,86,0,86,,,,,,,j,2.0643277000053786,0.15790009999182075,None,,,,,,,86,0,86,0,417.09276830000454,,,,,,,,,,,,,,,,,,,,,,,417.07624439999927,417.09276830000454,417.60941730000195,417.5763008000067,,,,,,,,,,,,,,,,,,,,,,,,,,417.5937902000005,417.60941730000195,417.60941730000195,417.60941730000195,420.5927207000059,j,2.0643277000053786,0.15790009999182075,420.59276440000394,420.59277440000733,None,,,,,,,,,,,,,,,,,00004,001,2025-11-09_14h29.19.772,MST_task,2024.2.2,60.00092401253441,2025-11-09 14h29.25.287209 +0530,
,Scenes\036a.jpg,87,0,87,,,,,,,j,1.4332244000106584,0.13441499999316875,None,,,,,,,87,0,87,0,420.6093608000083,,,,,,,,,,,,,,,,,,,,,,,420.5928348000016,420.6093608000083,421.1262764999992,421.09283980001055,,,,,,,,,,,,,,,,,,,,,,,,,,421.1062200000015,421.1262764999992,421.1262764999992,421.1262764999992,424.109289,j,1.4332244000106584,0.13441499999316875,424.10933130000194,424.10934100000304,None,,,,,,,,,,,,,,,,,00004,001,2025-11-09_14h29.19.772,MST_task,2024.2.2,60.00092401253441,2025-11-09 14h29.25.287209 +0530,
,Scenes\191a.jpg,88,0,88,,,,,,,j,1.033321299997624,0.16559839999536052,None,,,,,,,88,0,88,0,424.12595810000494,,,,,,,,,,,,,,,,,,,,,,,424.1093977000128,424.12595810000494,424.642654700001,424.6093993000104,,,,,,,,,,,,,,,,,,,,,,,,,,424.62105810000503,424.642654700001,424.642654700001,424.642654700001,427.62591390000307,j,1.033321299997624,0.16559839999536052,427.62595690001035,427.62596720000147,None,,,,,,,,,,,,,,,,,00004,001,2025-11-09_14h29.19.772,MST_task,2024.2.2,60.00092401253441,2025-11-09 14h29.25.287209 +0530,
,Scenes\069a.jpg,89,0,89,,,,,,,j,1.05477940000128,0.12640629999805242,None,,,,,,,89,0,89,0,427.6425498000026,,,,,,,,,,,,,,,,,,,,,,,427.62602470000274,427.6425498000026,428.1591991000023,428.1260021000053,,,,,,,,,,,,,,,,,,,,,,,,,,428.14063980001083,428.1591991000023,428.1591991000023,428.1591991000023,431.1426069000008,j,1.05477940000128,0.12640629999805242,431.1426582999993,431.14266920000955,None,,,,,,,,,,,,,,,,,00004,001,2025-11-09_14h29.19.772,MST_task,2024.2.2,60.00092401253441,2025-11-09 14h29.25.287209 +0530,
,Scenes\131a.jpg,90,0,90,,,,,,,j,1.5195753000007244,0.13340449999668635,None,,,,,,,90,0,90,0,431.1591761000018,,,,,,,,,,,,,,,,,,,,,,,431.1427473000076,431.1591761000018,431.67605210001057,431.6427393000049,,,,,,,,,,,,,,,,,,,,,,,,,,431.6616100000101,431.67605210001057,431.67605210001057,431.67605210001057,434.6591262000002,j,1.5195753000007244,0.13340449999668635,434.6591752000095,434.6591860000044,None,,,,,,,,,,,,,,,,,00004,001,2025-11-09_14h29.19.772,MST_task,2024.2.2,60.00092401253441,2025-11-09 14h29.25.287209 +0530,
,Objects\122a.jpg,91,0,91,,,,,,,None,,,f,0.561644499990507,None,,,,,91,0,91,0,434.67570510000223,,,,,,,,,,,,,,,,,,,,,,,434.6592490000039,434.67570510000223,435.19257970000035,435.15917620000255,,,,,,,,,,,,,,,,,,,,,,,,,,435.17621130000043,435.19257970000035,435.19257970000035,435.19257970000035,438.17569830000866,None,,,438.1757368000108,438.75925040000584,f,438.1923007000005,438.1923007000005,0.561644499990507,None,,,,,,,,,,,,,00004,001,2025-11-09_14h29.19.772,MST_task,2024.2.2,60.00092401253441,2025-11-09 14h29.25.287209 +0530,
,Objects\139a.jpg,92,0,92,,,,,,,f,0.9337570000061532,0.1428377999982331,None,,,,,,,92,0,92,0,438.7756621000008,,,,,,,,,,,,,,,,,,,,,,,438.75932530000864,438.7756621000008,439.2922774000035,439.2591203000047,,,,,,,,,,,,,,,,,,,,,,,,,,439.27428840000357,439.2922774000035,439.2922774000035,439.2922774000035,442.27560860000085,f,0.9337570000061532,0.1428377999982331,442.2756520000112,442.27566240000306,None,,,,,,,,,,,,,,,,,00004,001,2025-11-09_14h29.19.772,MST_task,2024.2.2,60.00092401253441,2025-11-09 14h29.25.287209 +0530,
,Objects\112a.jpg,93,0,93,,,,,,,f,0.8824229000019841,0.15427139999519568,None,,,,,,,93,0,93,0,442.29221210000105,,,,,,,,,,,,,,,,,,,,,,,442.2757236000034,442.29221210000105,,442.7757234000019,,,,,,,,,,,,,,,,,,,,,,,,,,442.7920330000052,442.8088720000087,442.8088720000087,442.8088720000087,445.79223040000943,f,0.8824229000019841,0.15427139999519568,445.79227980000724,445.79229120000673,None,,,,,,,,,,,,,,,,,00004,001,2025-11-09_14h29.19.772,MST_task,2024.2.2,60.00092401253441,2025-11-09 14h29.25.287209 +0530,
,Objects\102a.jpg,94,0,94,,,,,,,f,0.909765399992466,0.15049770000041462,None,,,,,,,94,0,94,0,445.808806800007,,,,,,,,,,,,,,,,,,,,,,,445.79235690001224,445.808806800007,446.3254605000111,446.2922707000107,,,,,,,,,,,,,,,,,,,,,,,,,,446.30845030001365,446.3254605000111,446.3254605000111,446.3254605000111,449.3087615000113,f,0.909765399992466,0.15049770000041462,449.3088051000086,449.308815700002,None,,,,,,,,,,,,,,,,,00004,001,2025-11-09_14h29.19.772,MST_task,2024.2.2,60.00092401253441,2025-11-09 14h29.25.287209 +0530,
,Objects\146a.jpg,95,0,95,,,,,,,f,1.049744499992812,0.1704131000005873,None,,,,,,,95,0,95,0,449.32542079999985,,,,,,,,,,,,,,,,,,,,,,,449.3088734000048,449.32542079999985,449.842089400001,449.80887790001,,,,,,,,,,,,,,,,,,,,,,,,,,449.825201700005,449.842089400001,449.842089400001,449.842089400001,452.82538300000306,f,1.049744499992812,0.1704131000005873,452.8254355000099,452.8254472000117,None,,,,,,,,,,,,,,,,,00004,001,2025-11-09_14h29.19.772,MST_task,2024.2.2,60.00092401253441,2025-11-09 14h29.25.287209 +0530,
,Objects\009a.jpg,96,0,96,,,,,,,f,0.9153260000020964,0.17723699999623932,None,,,,,,,96,0,96,0,452.84202390001155,,,,,,,,,,,,,,,,,,,,,,,452.82551260000037,452.84202390001155,453.35864920000313,453.3254897000006,,,,,,,,,,,,,,,,,,,,,,,,,,453.34154580000904,453.35864920000313,453.35864920000313,453.35864920000313,456.34199460000673,f,0.9153260000020964,0.17723699999623932,456.3420452000137,456.34205640001164,None,,,,,,,,,,,,,,,,,00004,001,2025-11-09_14h29.19.772,MST_task,2024.2.2,60.00092401253441,2025-11-09 14h29.25.287209 +0530,
,Objects\082a.jpg,97,0,97,,,,,,,j,0.9826279999979306,0.14365729999553878,None,,,,,,,97,0,97,0,456.35861000001023,,,,,,,,,,,,,,,,,,,,,,,456.3421201000019,456.35861000001023,456.87524450001365,456.84208910001325,,,,,,,,,,,,,,,,,,,,,,,,,,456.8581390000036,456.87524450001365,456.87524450001365,456.87524450001365,459.85856220001006,j,0.9826279999979306,0.14365729999553878,459.8586060000089,459.8586187000037,None,,,,,,,,,,,,,,,,,00004,001,2025-11-09_14h29.19.772,MST_task,2024.2.2,60.00092401253441,2025-11-09 14h29.25.287209 +0530,
,Scenes\050a.jpg,98,0,98,,,,,,,j,1.248925000007148,0.10844119999092072,None,,,,,,,98,0,98,0,459.87521510000806,,,,,,,,,,,,,,,,,,,,,,,459.8587019000115,459.87521510000806,460.3918371000036,460.3587399000098,,,,,,,,,,,,,,,,,,,,,,,,,,460.37378730000637,460.3918371000036,460.3918371000036,460.3918371000036,463.37518000000273,j,1.248925000007148,0.10844119999092072,463.3752245000069,463.3752347000118,None,,,,,,,,,,,,,,,,,00004,001,2025-11-09_14h29.19.772,MST_task,2024.2.2,60.00092401253441,2025-11-09 14h29.25.287209 +0530,
,Scenes\046a.jpg,99,0,99,,,,,,,j,0.8868137000099523,0.11628859999473207,None,,,,,,,99,0,99,0,463.3918196000013,,,,,,,,,,,,,,,,,,,,,,,463.3753346000012,463.3918196000013,463.90863920000265,463.8753216000041,,,,,,,,,,,,,,,,,,,,,,,,,,463.89954650000436,463.90863920000265,463.90863920000265,463.90863920000265,466.8917284000054,j,0.8868137000099523,0.11628859999473207,466.89176950001274,466.89178030000767,None,,,,,,,,,,,,,,,,,00004,001,2025-11-09_14h29.19.772,MST_task,2024.2.2,60.00092401253441,2025-11-09 14h29.25.287209 +0530,
,Scenes\060a.jpg,100,0,100,,,,,,,j,0.8417524999968009,0.11456010000256356,None,,,,,,,100,0,100,0,466.9083927000029,,,,,,,,,,,,,,,,,,,,,,,466.89185330001055,466.9083927000029,467.4417085000023,467.39187250001123,,,,,,,,,,,,,,,,,,,,,,,,,,467.42656120000174,467.4417085000023,467.4417085000023,467.4417085000023,470.4083433000051,j,0.8417524999968009,0.11456010000256356,470.408408400006,470.40841970000474,None,,,,,,,,,,,,,,,,,00004,001,2025-11-09_14h29.19.772,MST_task,2024.2.2,60.00092401253441,2025-11-09 14h29.25.287209 +0530,
,Scenes\126a.jpg,101,0,101,,,,,,,j,0.9400350000069011,0.13014969999494497,None,,,,,,,101,0,101,0,470.4249825000006,,,,,,,,,,,,,,,,,,,,,,,470.4085124000121,470.4249825000006,470.9416431000136,470.9084952000121,,,,,,,,,,,,,,,,,,,,,,,,,,470.92510560000665,470.9416431000136,470.9416431000136,470.9416431000136,473.92491490000975,j,0.9400350000069011,0.13014969999494497,473.924969300002,473.9249802000122,None,,,,,,,,,,,,,,,,,00004,001,2025-11-09_14h29.19.772,MST_task,2024.2.2,60.00092401253441,2025-11-09 14h29.25.287209 +0530,
,Scenes\167a.jpg,102,0,102,,,,,,,j,0.9508382000058191,0.14498270000331104,None,,,,,,,102,0,102,0,473.94155810000666,,,,,,,,,,,,,,,,,,,,,,,473.92505760000495,473.94155810000666,474.4584223000129,474.42506220001087,,,,,,,,,,,,,,,,,,,,,,,,,,474.44463130000804,474.4584223000129,474.4584223000129,474.4584223000129,477.44152640001266,j,0.9508382000058191,0.14498270000331104,477.44156840001233,477.4415796000103,None,,,,,,,,,,,,,,,,,00004,001,2025-11-09_14h29.19.772,MST_task,2024.2.2,60.00092401253441,2025-11-09 14h29.25.287209 +0530,
,Scenes\136a.jpg,103,0,103,,,,,,,j,2.3982995999976993,0.1981221000023652,None,,,,,,,103,0,103,0,477.4581642000121,,,,,,,,,,,,,,,,,,,,,,,477.4416532000032,477.4581642000121,477.97479400000884,477.9417727000109,,,,,,,,,,,,,,,,,,,,,,,,,,477.9576798000053,477.97479400000884,477.97479400000884,477.97479400000884,480.95810560000245,j,2.3982995999976993,0.1981221000023652,480.9581498000043,480.9581603000115,None,,,,,,,,,,,,,,,,,00004,001,2025-11-09_14h29.19.772,MST_task,2024.2.2,60.00092401253441,2025-11-09 14h29.25.287209 +0530,
,Scenes\018a.jpg,104,0,104,,,,,,,j,1.5646218000038061,0.13552349999372382,None,,,,,,,104,0,104,0,480.97476540000935,,,,,,,,,,,,,,,,,,,,,,,480.9582369000127,480.97476540000935,481.4913925000001,481.4582732000126,,,,,,,,,,,,,,,,,,,,,,,,,,481.47348640000564,481.4913925000001,481.4913925000001,481.4913925000001,484.47471439999936,j,1.5646218000038061,0.13552349999372382,484.4747572000051,484.47476800000004,None,,,,,,,,,,,,,,,,,00004,001,2025-11-09_14h29.19.772,MST_task,2024.2.2,60.00092401253441,2025-11-09 14h29.25.287209 +0530,
,Objects\153a.jpg,105,0,105,,,,,,,f,1.0154728000052273,0.17115019999619108,None,,,,,,,105,0,105,0,484.4913535000087,,,,,,,,,,,,,,,,,,,,,,,484.4748256000021,484.4913535000087,485.00823970000783,484.9748285000096,,,,,,,,,,,,,,,,,,,,,,,,,,484.9905484000046,485.00823970000783,485.00823970000783,485.00823970000783,487.9912825000065,f,1.0154728000052273,0.17115019999619108,487.99133110001276,487.9913416000054,None,,,,,,,,,,,,,,,,,00004,001,2025-11-09_14h29.19.772,MST_task,2024.2.2,60.00092401253441,2025-11-09 14h29.25.287209 +0530,
,Objects\058a.jpg,106,0,106,,,,,,,f,2.183447299990803,0.1614016000094125,None,,,,,,,106,0,106,0,488.0079722000082,,,,,,,,,,,,,,,,,,,,,,,487.9913995000097,488.0079722000082,488.5245958000014,488.49144660000456,,,,,,,,,,,,,,,,,,,,,,,,,,488.50705250000465,488.5245958000014,488.5245958000014,488.5245958000014,491.5079052000074,f,2.183447299990803,0.1614016000094125,491.50794960001076,491.50796020000416,None,,,,,,,,,,,,,,,,,00004,001,2025-11-09_14h29.19.772,MST_task,2024.2.2,60.00092401253441,2025-11-09 14h29.25.287209 +0530,
,Objects\064a.jpg,107,0,107,,,,,,,f,1.02854159999697,0.1820607999979984,None,,,,,,,107,0,107,0,491.5245697000064,,,,,,,,,,,,,,,,,,,,,,,491.5080164000101,491.5245697000064,492.04116600001,492.00801910000155,,,,,,,,,,,,,,,,,,,,,,,,,,492.02556050001294,492.04116600001,492.04116600001,492.04116600001,495.02449930000876,f,1.02854159999697,0.1820607999979984,495.0245438000129,495.024554100004,None,,,,,,,,,,,,,,,,,00004,001,2025-11-09_14h29.19.772,MST_task,2024.2.2,60.00092401253441,2025-11-09 14h29.25.287209 +0530,
,Objects\034a.jpg,108,0,108,,,,,,,f,0.9282632000104059,0.16580760000215378,None,,,,,,,108,0,108,0,495.04116649999924,,,,,,,,,,,,,,,,,,,,,,,495.0246396000002,495.04116649999924,495.5577778000006,495.52468950000184,,,,,,,,,,,,,,,,,,,,,,,,,,495.54190900000685,495.5577778000006,495.5577778000006,495.5577778000006,498.54107930000464,f,0.9282632000104059,0.16580760000215378,498.5411221000104,498.54113209999923,None,,,,,,,,,,,,,,,,,00004,001,2025-11-09_14h29.19.772,MST_task,2024.2.2,60.00092401253441,2025-11-09 14h29.25.287209 +0530,
,Objects\114a.jpg,109,0,109,,,,,,,f,1.0712318000005325,0.13807169999927282,None,,,,,,,109,0,109,0,498.55771670000104,,,,,,,,,,,,,,,,,,,,,,,498.54122860000643,498.55771670000104,499.0743868000136,499.0412828000117,,,,,,,,,,,,,,,,,,,,,,,,,,499.05704640000477,499.0743868000136,499.0743868000136,499.0743868000136,502.05766720000247,f,1.0712318000005325,0.13807169999927282,502.057710100009,502.0577201000124,None,,,,,,,,,,,,,,,,,00004,001,2025-11-09_14h29.19.772,MST_task,2024.2.2,60.00092401253441,2025-11-09 14h29.25.287209 +0530,
,Objects\007a.jpg,110,0,110,,,,,,,f,1.0743306999938795,0.12189540000690613,None,,,,,,,110,0,110,0,502.0743106000009,,,,,,,,,,,,,,,,,,,,,,,502.0577779000014,502.0743106000009,502.59094440001354,502.5578373000026,,,,,,,,,,,,,,,,,,,,,,,,,,502.5744487000047,502.59094440001354,502.59094440001354,502.59094440001354,505.5742956000031,f,1.0743306999938795,0.12189540000690613,505.57434030000877,505.5743505999999,None,,,,,,,,,,,,,,,,,00004,001,2025-11-09_14h29.19.772,MST_task,2024.2.2,60.00092401253441,2025-11-09 14h29.25.287209 +0530,
,Objects\005a.jpg,111,0,111,,,,,,,f,0.7880846999905771,0.1656014000036521,None,,,,,,,111,0,111,0,505.5908778000012,,,,,,,,,,,,,,,,,,,,,,,505.5744069000066,505.5908778000012,506.1075303000107,506.0744134000124,,,,,,,,,,,,,,,,,,,,,,,,,,506.090136800005,506.1075303000107,506.1075303000107,506.1075303000107,509.0908977000072,f,0.7880846999905771,0.1656014000036521,509.09094110000296,509.09095190001244,None,,,,,,,,,,,,,,,,,00004,001,2025-11-09_14h29.19.772,MST_task,2024.2.2,60.00092401253441,2025-11-09 14h29.25.287209 +0530,
,Scenes\181a.jpg,112,0,112,,,,,,,f,1.1791870000015479,0.1496335999981966,None,,,,,,,112,0,112,0,509.1074685000058,,,,,,,,,,,,,,,,,,,,,,,509.09102350000467,509.1074685000058,509.62416250001115,509.5910229000001,,,,,,,,,,,,,,,,,,,,,,,,,,509.6096613000118,509.62416250001115,509.62416250001115,509.62416250001115,512.6074312000128,f,1.1791870000015479,0.1496335999981966,512.607473600001,512.6074840000074,None,,,,,,,,,,,,,,,,,00004,001,2025-11-09_14h29.19.772,MST_task,2024.2.2,60.00092401253441,2025-11-09 14h29.25.287209 +0530,
,Scenes\110a.jpg,113,0,113,,,,,,,j,0.9884716999949887,0.1644005999987712,None,,,,,,,113,0,113,0,512.6240901000128,,,,,,,,,,,,,,,,,,,,,,,512.6075410000049,512.6240901000128,513.1409897000121,513.1076067000104,,,,,,,,,,,,,,,,,,,,,,,,,,513.1250770000042,513.1409897000121,513.1409897000121,513.1409897000121,516.1240510000061,j,0.9884716999949887,0.1644005999987712,516.1241088000097,516.1241198000062,None,,,,,,,,,,,,,,,,,00004,001,2025-11-09_14h29.19.772,MST_task,2024.2.2,60.00092401253441,2025-11-09 14h29.25.287209 +0530,
,Scenes\073a.jpg,114,0,114,,,,,,,j,0.7702729000011459,0.1416694999934407,None,,,,,,,114,0,114,0,516.1406907000055,,,,,,,,,,,,,,,,,,,,,,,516.1242072000023,516.1406907000055,516.6573091000027,516.6242262000014,,,,,,,,,,,,,,,,,,,,,,,,,,516.6405097000097,516.6573091000027,516.6573091000027,516.6573091000027,519.6406348000019,j,0.7702729000011459,0.1416694999934407,519.6406779000099,519.6406890000071,None,,,,,,,,,,,,,,,,,00004,001,2025-11-09_14h29.19.772,MST_task,2024.2.2,60.00092401253441,2025-11-09 14h29.25.287209 +0530,
,Scenes\098a.jpg,115,0,115,,,,,,,j,1.9113559999968857,0.15465700000640936,None,,,,,,,115,0,115,0,519.6572837999993,,,,,,,,,,,,,,,,,,,,,,,519.640764900003,519.6572837999993,520.1739208000072,520.1407602000108,,,,,,,,,,,,,,,,,,,,,,,,,,520.1568235000013,520.1739208000072,520.1739208000072,520.1739208000072,523.1572392000089,j,1.9113559999968857,0.15465700000640936,523.1572817000124,523.1572928000096,None,,,,,,,,,,,,,,,,,00004,001,2025-11-09_14h29.19.772,MST_task,2024.2.2,60.00092401253441,2025-11-09 14h29.25.287209 +0530,
,Scenes\160a.jpg,116,0,116,,,,,,,j,0.7169035999977496,0.1465868999948725,None,,,,,,,116,0,116,0,523.1739001000096,,,,,,,,,,,,,,,,,,,,,,,523.1573487000132,523.1739001000096,523.6904968000017,523.6573466000118,,,,,,,,,,,,,,,,,,,,,,,,,,523.673572700005,523.6904968000017,523.6904968000017,523.6904968000017,526.6738062000077,j,0.7169035999977496,0.1465868999948725,526.6738516000041,526.6738623000128,None,,,,,,,,,,,,,,,,,00004,001,2025-11-09_14h29.19.772,MST_task,2024.2.2,60.00092401253441,2025-11-09 14h29.25.287209 +0530,
,Scenes\150a.jpg,117,0,117,,,,,,,j,1.8063844999996945,0.13018659999943338,None,,,,,,,117,0,117,0,526.6904690000083,,,,,,,,,,,,,,,,,,,,,,,526.6739384000102,526.6904690000083,527.207083500005,527.1739624000038,,,,,,,,,,,,,,,,,,,,,,,,,,527.1914503000007,527.207083500005,527.207083500005,527.207083500005,530.1904240000003,j,1.8063844999996945,0.13018659999943338,530.1904686000053,530.1904798000032,None,,,,,,,,,,,,,,,,,00004,001,2025-11-09_14h29.19.772,MST_task,2024.2.2,60.00092401253441,2025-11-09 14h29.25.287209 +0530,
,Scenes\094a.jpg,118,0,118,,,,,,,j,1.8608296000020346,0.13730349999968894,None,,,,,,,118,0,118,0,530.207089500007,,,,,,,,,,,,,,,,,,,,,,,530.1905546000053,530.207089500007,530.7236833000061,530.69056860001,,,,,,,,,,,,,,,,,,,,,,,,,,530.7100548000017,530.7236833000061,530.7236833000061,530.7236833000061,533.7070024999994,j,1.8608296000020346,0.13730349999968894,533.7070511000056,533.7070616000128,None,,,,,,,,,,,,,,,,,00004,001,2025-11-09_14h29.19.772,MST_task,2024.2.2,60.00092401253441,2025-11-09 14h29.25.287209 +0530,
,Objects\017a.jpg,119,0,119,,,,,,,j,2.7508394999895245,0.18215130000317004,None,,,,,,,119,0,119,0,533.7236503000022,,,,,,,,,,,,,,,,,,,,,,,533.7071227000124,533.7236503000022,534.2405069000088,534.2071870000073,,,,,,,,,,,,,,,,,,,,,,,,,,534.2238238999998,534.2405069000088,534.2405069000088,534.2405069000088,537.2237858000008,j,2.7508394999895245,0.18215130000317004,537.2238566000015,537.2238677000132,None,,,,,,,,,,,,,,,,,00004,001,2025-11-09_14h29.19.772,MST_task,2024.2.2,60.00092401253441,2025-11-09 14h29.25.287209 +0530,
,Objects\186a.jpg,120,0,120,,,,,,,f,0.9237233000021661,0.14517780000460334,None,,,,,,,120,0,120,0,537.2402101000043,,,,,,,,,,,,,,,,,,,,,,,537.2239327000134,537.2402101000043,537.7568663000129,537.7236975000123,,,,,,,,,,,,,,,,,,,,,,,,,,537.7398763000092,537.7568663000129,537.7568663000129,537.7568663000129,540.7402452000097,f,0.9237233000021661,0.14517780000460334,540.7402903000038,540.7403055000032,None,,,,,,,,,,,,,,,,,00004,001,2025-11-09_14h29.19.772,MST_task,2024.2.2,60.00092401253441,2025-11-09 14h29.25.287209 +0530,
,Objects\036a.jpg,121,0,121,,,,,,,f,0.7302341000031447,0.1952342000004137,None,,,,,,,121,0,121,0,540.7568008000089,,,,,,,,,,,,,,,,,,,,,,,540.7403642000136,540.7568008000089,541.2734606000013,541.2403819000028,,,,,,,,,,,,,,,,,,,,,,,,,,541.2569092000049,541.2734606000013,541.2734606000013,541.2734606000013,544.2567861000134,f,0.7302341000031447,0.1952342000004137,544.2568308000045,544.2568415000133,None,,,,,,,,,,,,,,,,,00004,001,2025-11-09_14h29.19.772,MST_task,2024.2.2,60.00092401253441,2025-11-09 14h29.25.287209 +0530,
,Objects\189a.jpg,122,0,122,,,,,,,f,1.6372333000035724,0.13262879999820143,None,,,,,,,122,0,122,0,544.2734291000088,,,,,,,,,,,,,,,,,,,,,,,544.2569236000127,544.2734291000088,544.7900517000089,544.7568771000078,,,,,,,,,,,,,,,,,,,,,,,,,,544.7736060000025,544.7900517000089,544.7900517000089,544.7900517000089,547.7733489000093,f,1.6372333000035724,0.13262879999820143,547.7733938000019,547.7734046000114,None,,,,,,,,,,,,,,,,,00004,001,2025-11-09_14h29.19.772,MST_task,2024.2.2,60.00092401253441,2025-11-09 14h29.25.287209 +0530,
,Objects\137a.jpg,123,0,123,,,,,,,f,1.1447065000102157,0.20634209999116138,None,,,,,,,123,0,123,0,547.7900222000026,,,,,,,,,,,,,,,,,,,,,,,547.7734856000025,547.7900222000026,548.3066742000083,548.2734827000095,,,,,,,,,,,,,,,,,,,,,,,,,,548.2889548000094,548.3066742000083,548.3066742000083,548.3066742000083,551.2899373000109,f,1.1447065000102157,0.20634209999116138,551.2899846000073,551.2899949999992,None,,,,,,,,,,,,,,,,,00004,001,2025-11-09_14h29.19.772,MST_task,2024.2.2,60.00092401253441,2025-11-09 14h29.25.287209 +0530,
,Objects\171a.jpg,124,0,124,,,,,,,f,1.5587117999966722,0.1670114000007743,None,,,,,,,124,0,124,0,551.3066044000007,,,,,,,,,,,,,,,,,,,,,,,551.2900556000095,551.3066044000007,551.8232466000045,551.7901131000108,,,,,,,,,,,,,,,,,,,,,,,,,,551.8055253000057,551.8232466000045,551.8232466000045,551.8232466000045,554.8066011000046,f,1.5587117999966722,0.1670114000007743,554.8066573000106,554.8066677000024,None,,,,,,,,,,,,,,,,,00004,001,2025-11-09_14h29.19.772,MST_task,2024.2.2,60.00092401253441,2025-11-09 14h29.25.287209 +0530,
,Objects\076a.jpg,125,0,125,,,,,,,j,1.0762530000065453,0.1733345999964513,None,,,,,,,125,0,125,0,554.8232084000047,,,,,,,,,,,,,,,,,,,,,,,554.8067486000073,554.8232084000047,555.3398296000087,555.3067690000025,,,,,,,,,,,,,,,,,,,,,,,,,,555.3254810000071,555.3398296000087,555.3398296000087,555.3398296000087,558.3231233000115,j,1.0762530000065453,0.1733345999964513,558.3231703000056,558.3231809999997,None,,,,,,,,,,,,,,,,,00004,001,2025-11-09_14h29.19.772,MST_task,2024.2.2,60.00092401253441,2025-11-09 14h29.25.287209 +0530,
,Scenes\049a.jpg,126,0,126,,,,,,,j,0.9375311000039801,0.13019909999275114,None,,,,,,,126,0,126,0,558.3397834000061,,,,,,,,,,,,,,,,,,,,,,,558.3232592000131,558.3397834000061,558.8564217000094,558.8232707999996,,,,,,,,,,,,,,,,,,,,,,,,,,558.8402419000049,558.8564217000094,558.8564217000094,558.8564217000094,561.839721700002,j,0.9375311000039801,0.13019909999275114,561.8397698000044,561.8397805999994,None,,,,,,,,,,,,,,,,,00004,001,2025-11-09_14h29.19.772,MST_task,2024.2.2,60.00092401253441,2025-11-09 14h29.25.287209 +0530,
,Scenes\166a.jpg,127,0,127,,,,,,,j,0.6152825000026496,0.1774202999949921,None,,,,,,,127,0,127,0,561.8564148000005,,,,,,,,,,,,,,,,,,,,,,,561.839854100006,561.8564148000005,562.3563409000053,562.3398730000044,,,,,,,,,,,,,,,,,,,,,,,,,,562.3496240000095,562.3563409000053,562.3563409000053,562.3563409000053,565.339907600006,j,0.6152825000026496,0.1774202999949921,565.3399530000024,565.3399631000066,None,,,,,565.3563193000009,565.3563193000009,565.3563193000009,,,,,,,,,,00004,001,2025-11-09_14h29.19.772,MST_task,2024.2.2,60.00092401253441,2025-11-09 14h29.25.287209 +0530,
,Scenes\175a.jpg,128,0,128,,,,,,,j,0.7887309999932768,0.16179050000209827,None,,,,,,,128,0,128,0,565.3563193000009,,,,,,,,,,,,,,,,,,,,,,,565.3400167000073,565.3563193000009,565.8732116000028,565.8398073999997,,,,,,,,,,,,,,,,,,,,,,,,,,565.8549232000078,565.8732116000028,565.8732116000028,565.8732116000028,568.8562411000021,j,0.7887309999932768,0.16179050000209827,568.8562846999994,568.8562958000111,None,,,,,,,,,,,,,,,,,00004,001,2025-11-09_14h29.19.772,MST_task,2024.2.2,60.00092401253441,2025-11-09 14h29.25.287209 +0530,
,Scenes\003a.jpg,129,0,129,,,,,,,j,1.5136024999956135,0.17389039999397937,None,,,,,,,129,0,129,0,568.8729072000133,,,,,,,,,,,,,,,,,,,,,,,568.8563552000123,568.8729072000133,569.389531000008,569.3564477000036,,,,,,,,,,,,,,,,,,,,,,,,,,569.3760754000104,569.389531000008,569.389531000008,569.389531000008,572.372853000008,j,1.5136024999956135,0.17389039999397937,572.3728966000053,572.3729077000025,None,,,,,,,,,,,,,,,,,00004,001,2025-11-09_14h29.19.772,MST_task,2024.2.2,60.00092401253441,2025-11-09 14h29.25.287209 +0530,
,Scenes\076a.jpg,130,0,130,,,,,,,j,1.060729300006642,0.15027469999040477,None,,,,,,,130,0,130,0,572.3896944000007,,,,,,,,,,,,,,,,,,,,,,,572.3729896000004,572.3896944000007,,572.8729651000031,,,,,,,,,,,,,,,,,,,,,,,,,,572.8952758000087,572.9063956000027,572.9063956000027,572.9063956000027,575.8894527000084,j,1.060729300006642,0.15027469999040477,575.8894980000041,575.8895077000052,None,,,,,,,,,,,,,,,,,00004,001,2025-11-09_14h29.19.772,MST_task,2024.2.2,60.00092401253441,2025-11-09 14h29.25.287209 +0530,
,Scenes\078a.jpg,131,0,131,,,,,,,j,2.371209799995995,0.15379350000876002,None,,,,,,,131,0,131,0,575.906147200003,,,,,,,,,,,,,,,,,,,,,,,575.8895880000055,575.906147200003,576.4227760000067,576.3896496000089,,,,,,,,,,,,,,,,,,,,,,,,,,576.4072127000109,576.4227760000067,576.4227760000067,576.4227760000067,579.4060433000122,j,2.371209799995995,0.15379350000876002,579.4060858000012,579.4060959000053,None,,,,,,,,,,,,,,,,,00004,001,2025-11-09_14h29.19.772,MST_task,2024.2.2,60.00092401253441,2025-11-09 14h29.25.287209 +0530,
,Scenes\085a.jpg,132,0,132,,,,,,,j,2.0718089000001783,0.14590170000155922,None,,,,,,,132,0,132,0,579.422644300008,,,,,,,,,,,,,,,,,,,,,,,579.406169400012,579.422644300008,579.9393067000055,579.9062081000011,,,,,,,,,,,,,,,,,,,,,,,,,,579.9244663000136,579.9393067000055,579.9393067000055,579.9393067000055,582.9226309000078,j,2.0718089000001783,0.14590170000155922,582.9226756000135,582.9226862000069,None,,,,,,,,,,,,,,,,,00004,001,2025-11-09_14h29.19.772,MST_task,2024.2.2,60.00092401253441,2025-11-09 14h29.25.287209 +0530,
,Objects\029a.jpg,133,0,133,,,,,,,f,1.5895530999987386,0.10599979999824427,None,,,,,,,133,0,133,0,582.9392778000038,,,,,,,,,,,,,,,,,,,,,,,582.9227943000005,582.9392778000038,583.4562238000071,583.4227132000087,,,,,,,,,,,,,,,,,,,,,,,,,,583.4389135000092,583.4562238000071,583.4562238000071,583.4562238000071,586.4392245000054,f,1.5895530999987386,0.10599979999824427,586.4392676000134,586.4392793000006,None,,,,,,,,,,,,,,,,,00004,001,2025-11-09_14h29.19.772,MST_task,2024.2.2,60.00092401253441,2025-11-09 14h29.25.287209 +0530,
,Objects\130a.jpg,134,0,134,,,,,,,j,1.1701761000003899,0.2009706999961054,None,,,,,,,134,0,134,0,586.4558719000051,,,,,,,,,,,,,,,,,,,,,,,586.439354400005,586.4558719000051,586.972526100013,586.9393993000122,,,,,,,,,,,,,,,,,,,,,,,,,,586.9550548000116,586.972526100013,586.972526100013,586.972526100013,589.9558255000011,j,1.1701761000003899,0.2009706999961054,589.9558800000086,589.9558901000128,None,,,,,,,,,,,,,,,,,00004,001,2025-11-09_14h29.19.772,MST_task,2024.2.2,60.00092401253441,2025-11-09 14h29.25.287209 +0530,
,Objects\022a.jpg,135,0,135,,,,,,,f,1.5703821999923093,0.16966350001166575,None,,,,,,,135,0,135,0,589.9724836000096,,,,,,,,,,,,,,,,,,,,,,,589.9559493000124,589.9724836000096,590.4890965000086,590.4559339000116,,,,,,,,,,,,,,,,,,,,,,,,,,590.4716861000052,590.4890965000086,590.4890965000086,590.4890965000086,593.4724172999995,f,1.5703821999923093,0.16966350001166575,593.4724750000023,593.4724862000003,None,,,,,,,,,,,,,,,,,00004,001,2025-11-09_14h29.19.772,MST_task,2024.2.2,60.00092401253441,2025-11-09 14h29.25.287209 +0530,
,Objects\083a.jpg,136,0,136,,,,,,,f,2.755609600004391,0.17435970000224188,None,,,,,,,136,0,136,0,593.4890551000135,,,,,,,,,,,,,,,,,,,,,,,593.4725446000084,593.4890551000135,594.0056974000036,593.9725640000106,,,,,,,,,,,,,,,,,,,,,,,,,,593.9883010000049,594.0056974000036,594.0056974000036,594.0056974000036,596.9890332000068,f,2.755609600004391,0.17435970000224188,596.9890764000011,596.9890874000121,None,,,,,,,,,,,,,,,,,00004,001,2025-11-09_14h29.19.772,MST_task,2024.2.2,60.00092401253441,2025-11-09 14h29.25.287209 +0530,
,Objects\035a.jpg,137,0,137,,,,,,,f,0.9274107000092044,0.1699526999873342,None,,,,,,,137,0,137,0,597.0056963000097,,,,,,,,,,,,,,,,,,,,,,,596.9891448000126,597.0056963000097,597.5222988000023,597.4891804000072,,,,,,,,,,,,,,,,,,,,,,,,,,597.5048431000032,597.5222988000023,597.5222988000023,597.5222988000023,600.5056253000075,f,0.9274107000092044,0.1699526999873342,600.5056735000107,600.5056841000041,None,,,,,,,,,,,,,,,,,00004,001,2025-11-09_14h29.19.772,MST_task,2024.2.2,60.00092401253441,2025-11-09 14h29.25.287209 +0530,
,Objects\077a.jpg,138,0,138,,,,,,,j,1.2786814999999478,0.17920489999232814,None,,,,,,,138,0,138,0,600.5222319000022,,,,,,,,,,,,,,,,,,,,,,,600.5057420000085,600.5222319000022,601.0388595000113,601.0057428,,,,,,,,,,,,,,,,,,,,,,,,,,601.0216280000022,601.0388595000113,601.0388595000113,601.0388595000113,604.0221886000072,j,1.2786814999999478,0.17920489999232814,604.0222295999993,604.0222400000057,None,,,,,,,,,,,,,,,,,00004,001,2025-11-09_14h29.19.772,MST_task,2024.2.2,60.00092401253441,2025-11-09 14h29.25.287209 +0530,
,Objects\041a.jpg,139,0,139,,,,,,,j,1.7483291999960784,0.15218710000044666,None,,,,,,,139,0,139,0,604.0388220000023,,,,,,,,,,,,,,,,,,,,,,,604.0223140000016,604.0388220000023,604.555454500005,604.5223813000048,,,,,,,,,,,,,,,,,,,,,,,,,,604.5387675000093,604.555454500005,604.555454500005,604.555454500005,607.5388091000059,j,1.7483291999960784,0.15218710000044666,607.5388521999994,607.5388628000073,None,,,,,,,,,,,,,,,,,00004,001,2025-11-09_14h29.19.772,MST_task,2024.2.2,60.00092401253441,2025-11-09 14h29.25.287209 +0530,
,Scenes\100a.jpg,140,0,140,,,,,,,f,0.893631999992067,0.1341592000098899,None,,,,,,,140,0,140,0,607.5553885000118,,,,,,,,,,,,,,,,,,,,,,,607.53893960001,607.5553885000118,608.0720464000042,608.0389010000072,,,,,,,,,,,,,,,,,,,,,,,,,,608.0559251000086,608.0720464000042,608.0720464000042,608.0720464000042,611.0554021999997,f,0.893631999992067,0.1341592000098899,611.055446000013,611.0554813000053,None,,,,,,,,,,,,,,,,,00004,001,2025-11-09_14h29.19.772,MST_task,2024.2.2,60.00092401253441,2025-11-09 14h29.25.287209 +0530,
,Scenes\037a.jpg,141,0,141,,,,,,,j,1.6267871000018204,0.10623869999835733,None,,,,,,,141,0,141,0,611.0720080000028,,,,,,,,,,,,,,,,,,,,,,,611.0555582000088,611.0720080000028,611.5888550000091,611.5555053000135,,,,,,,,,,,,,,,,,,,,,,,,,,611.5755436000036,611.5888550000091,611.5888550000091,611.5888550000091,614.5719367000129,j,1.6267871000018204,0.10623869999835733,614.5719803000102,614.5719903999998,None,,,,,,,,,,,,,,,,,00004,001,2025-11-09_14h29.19.772,MST_task,2024.2.2,60.00092401253441,2025-11-09 14h29.25.287209 +0530,
,Scenes\010a.jpg,142,0,142,,,,,,,j,0.8925023000047076,0.14136019999568816,None,,,,,,,142,0,142,0,614.5886238000094,,,,,,,,,,,,,,,,,,,,,,,614.5720493000117,614.5886238000094,615.1052315000125,615.0721135000058,,,,,,,,,,,,,,,,,,,,,,,,,,615.091453800007,615.1052315000125,615.1052315000125,615.1052315000125,618.0885776000068,j,0.8925023000047076,0.14136019999568816,618.0886242000124,618.0886346000043,None,,,,,,,,,,,,,,,,,00004,001,2025-11-09_14h29.19.772,MST_task,2024.2.2,60.00092401253441,2025-11-09 14h29.25.287209 +0530,
,Scenes\077a.jpg,143,0,143,,,,,,,j,1.453299100001459,0.13452729998971336,None,,,,,,,143,0,143,0,618.1051993000001,,,,,,,,,,,,,,,,,,,,,,,618.0887176000106,618.1051993000001,618.6218244000047,618.5887380000058,,,,,,,,,,,,,,,,,,,,,,,,,,618.6077214000106,618.6218244000047,618.6218244000047,618.6218244000047,621.6051777000102,j,1.453299100001459,0.13452729998971336,621.6052270000073,621.6052477000048,None,,,,,,,,,,,,,,,,,00004,001,2025-11-09_14h29.19.772,MST_task,2024.2.2,60.00092401253441,2025-11-09 14h29.25.287209 +0530,
,Scenes\038a.jpg,144,0,144,,,,,,,j,1.7989373000018531,0.16179389999888372,None,,,,,,,144,0,144,0,621.6217892999994,,,,,,,,,,,,,,,,,,,,,,,621.6053200000024,621.6217892999994,622.1386856000026,622.1052254000097,,,,,,,,,,,,,,,,,,,,,,,,,,622.1260184999992,622.1386856000026,622.1386856000026,622.1386856000026,625.1217684000003,j,1.7989373000018531,0.16179389999888372,625.121815800012,625.1218260000023,None,,,,,,,,,,,,,,,,,00004,001,2025-11-09_14h29.19.772,MST_task,2024.2.2,60.00092401253441,2025-11-09 14h29.25.287209 +0530,
,Scenes\004a.jpg,145,0,145,,,,,,,j,0.746890299997176,0.12164680000569206,None,,,,,,,145,0,145,0,625.1383834000007,,,,,,,,,,,,,,,,,,,,,,,625.1219006000028,625.1383834000007,625.6550426000031,625.621927500004,,,,,,,,,,,,,,,,,,,,,,,,,,625.6412284000107,625.6550426000031,625.6550426000031,625.6550426000031,628.6383376000013,j,0.746890299997176,0.12164680000569206,628.6383940000087,628.638405900012,None,,,,,,,,,,,,,,,,,00004,001,2025-11-09_14h29.19.772,MST_task,2024.2.2,60.00092401253441,2025-11-09 14h29.25.287209 +0530,
,Scenes\035a.jpg,146,0,146,,,,,,,j,2.8195934999966994,None,None,,,,,,,146,0,146,0,628.6549744000076,,,,,,,,,,,,,,,,,,,,,,,628.6384940000135,628.6549744000076,629.1716142000078,629.1384407000005,,,,,,,,,,,,,,,,,,,,,,,,,,629.157242900008,629.1716142000078,629.1716142000078,629.1716142000078,632.1549008000002,j,2.8195934999966994,None,632.1549435000052,632.1549537000101,None,,,,,,,,,,,,,,,,,00004,001,2025-11-09_14h29.19.772,MST_task,2024.2.2,60.00092401253441,2025-11-09 14h29.25.287209 +0530,
,Objects\049a.jpg,147,0,147,,,,,,,f,2.0949358999932883,0.22397010000713635,None,,,,,,,147,0,147,0,632.1715675000014,,,,,,,,,,,,,,,,,,,,,,,632.15500720001,632.1715675000014,632.6885704000015,632.6551291000069,,,,,,,,,,,,,,,,,,,,,,,,,,632.6711428000126,632.6885704000015,632.6885704000015,632.6885704000015,635.6714920000086,f,2.0949358999932883,0.22397010000713635,635.6715478000115,635.6715581000026,None,,,,,,,,,,,,,,,,,00004,001,2025-11-09_14h29.19.772,MST_task,2024.2.2,60.00092401253441,2025-11-09 14h29.25.287209 +0530,
,Objects\014a.jpg,148,0,148,,,,,,,f,0.9228698999941116,0.1656669000076363,None,,,,,,,148,0,148,0,635.6881534000131,,,,,,,,,,,,,,,,,,,,,,,635.6716151,635.6881534000131,636.2047819,636.1716278000094,,,,,,,,,,,,,,,,,,,,,,,,,,636.1883297000022,636.2047819,636.2047819,636.2047819,639.1881613000005,f,0.9228698999941116,0.1656669000076363,639.1882194000063,639.1882305000036,None,,,,,,,,,,,,,,,,,00004,001,2025-11-09_14h29.19.772,MST_task,2024.2.2,60.00092401253441,2025-11-09 14h29.25.287209 +0530,
,Objects\020a.jpg,149,0,149,,,,,,,f,2.4066437000001315,0.11707120000210125,None,,,,,,,149,0,149,0,639.2047272000054,,,,,,,,,,,,,,,,,,,,,,,639.1883178000135,639.2047272000054,639.7213773000112,639.6882197000086,,,,,,,,,,,,,,,,,,,,,,,,,,639.7044851000101,639.7213773000112,639.7213773000112,639.7213773000112,642.7047020000027,f,2.4066437000001315,0.11707120000210125,642.7047495000006,642.7047605000116,None,,,,,,,,,,,,,,,,,00004,001,2025-11-09_14h29.19.772,MST_task,2024.2.2,60.00092401253441,2025-11-09 14h29.25.287209 +0530,
,Objects\110a.jpg,150,0,150,,,,,,,f,2.2958460000081686,0.1821557999937795,None,,,,,,,150,0,150,0,642.7213095000043,,,,,,,,,,,,,,,,,,,,,,,642.7048338000022,642.7213095000043,643.2379703000042,643.2047983000084,,,,,,,,,,,,,,,,,,,,,,,,,,643.2211605000048,643.2379703000042,643.2379703000042,643.2379703000042,646.2212678000069,f,2.2958460000081686,0.1821557999937795,646.2213104000111,646.2213202999992,None,,,,,,,,,,,,,,,,,00004,001,2025-11-09_14h29.19.772,MST_task,2024.2.2,60.00092401253441,2025-11-09 14h29.25.287209 +0530,
,Objects\028a.jpg,151,0,151,,,,,,,f,0.7274151000019629,0.14133640000363812,None,,,,,,,151,0,151,0,646.2379350000119,,,,,,,,,,,,,,,,,,,,,,,646.2213795999996,646.2379350000119,646.7545609000081,646.7214647000073,,,,,,,,,,,,,,,,,,,,,,,,,,646.7385324000061,646.7545609000081,646.7545609000081,646.7545609000081,649.7379141000129,f,0.7274151000019629,0.14133640000363812,649.7379578000109,649.7379689000081,None,,,,,,,,,,,,,,,,,00004,001,2025-11-09_14h29.19.772,MST_task,2024.2.2,60.00092401253441,2025-11-09 14h29.25.287209 +0530,
,Objects\117a.jpg,152,0,152,,,,,,,j,2.4039488000125857,0.20264309999765828,None,,,,,,,152,0,152,0,649.7545687000093,,,,,,,,,,,,,,,,,,,,,,,649.7380527000059,649.7545687000093,650.2711698000057,650.2380594999995,,,,,,,,,,,,,,,,,,,,,,,,,,650.2535247000051,650.2711698000057,650.2711698000057,650.2711698000057,653.2544918000058,j,2.4039488000125857,0.20264309999765828,653.2545394000044,653.2545548000053,None,,,,,,,,,,,,,,,,,00004,001,2025-11-09_14h29.19.772,MST_task,2024.2.2,60.00092401253441,2025-11-09 14h29.25.287209 +0530,
,Objects\173a.jpg,153,0,153,,,,,,,f,1.043028800006141,0.20687949999410193,None,,,,,,,153,0,153,0,653.2713924000127,,,,,,,,,,,,,,,,,,,,,,,653.2546120000043,653.2713924000127,653.7877456999995,653.7545928000036,,,,,,,,,,,,,,,,,,,,,,,,,,653.770087500001,653.7877456999995,653.7877456999995,653.7877456999995,656.7710796000028,f,1.043028800006141,0.20687949999410193,656.7711405000009,656.7711517000134,None,,,,,,,,,,,,,,,,,00004,001,2025-11-09_14h29.19.772,MST_task,2024.2.2,60.00092401253441,2025-11-09 14h29.25.287209 +0530,
,Scenes\183a.jpg,154,0,154,,,,,,,None,,,f,0.9834333000035258,None,,,,,154,0,154,0,656.7877152000001,,,,,,,,,,,,,,,,,,,,,,,656.7712381000019,656.7877152000001,657.3043766000046,657.2712803000031,,,,,,,,,,,,,,,,,,,,,,,,,,657.2888602000021,657.3043766000046,657.3043766000046,657.3043766000046,660.2876351000014,None,,,660.2876921000134,661.3044790999993,f,660.3043034000002,660.3043034000002,0.9834333000035258,None,,,,,,,,,,,,,00004,001,2025-11-09_14h29.19.772,MST_task,2024.2.2,60.00092401253441,2025-11-09 14h29.25.287209 +0530,
,Scenes\142a.jpg,155,0,155,,,,,,,j,0.9364284999901429,0.1410221999976784,None,,,,,,,155,0,155,0,661.3209485000116,,,,,,,,,,,,,,,,,,,,,,,661.3045789000025,661.3209485000116,661.8376423000009,661.8044324000075,,,,,,,,,,,,,,,,,,,,,,,,,,661.8169380000036,661.8376423000009,661.8376423000009,661.8376423000009,664.8209592000057,j,0.9364284999901429,0.1410221999976784,664.821002200013,664.8210133000102,None,,,,,,,,,,,,,,,,,00004,001,2025-11-09_14h29.19.772,MST_task,2024.2.2,60.00092401253441,2025-11-09 14h29.25.287209 +0530,
,Scenes\103a.jpg,156,0,156,,,,,,,j,0.8916981000074884,0.15638210000179242,None,,,,,,,156,0,156,0,664.8375100000121,,,,,,,,,,,,,,,,,,,,,,,664.8210875000077,664.8375100000121,665.3541934000095,665.3210510000063,,,,,,,,,,,,,,,,,,,,,,,,,,665.3349022000039,665.3541934000095,665.3541934000095,665.3541934000095,668.3374973000027,j,0.8916981000074884,0.15638210000179242,668.3375391000009,668.3375494000065,None,,,,,,,,,,,,,,,,,00004,001,2025-11-09_14h29.19.772,MST_task,2024.2.2,60.00092401253441,2025-11-09 14h29.25.287209 +0530,
,Scenes\189a.jpg,157,0,157,,,,,,,j,0.9532696000096621,0.11383030000433791,None,,,,,,,157,0,157,0,668.3541051000066,,,,,,,,,,,,,,,,,,,,,,,668.3376257000054,668.3541051000066,668.8707802000135,668.8376849000051,,,,,,,,,,,,,,,,,,,,,,,,,,668.851210000008,668.8707802000135,668.8707802000135,668.8707802000135,671.8540547000011,j,0.9532696000096621,0.11383030000433791,671.8540951000032,671.8541052000073,None,,,,,,,,,,,,,,,,,00004,001,2025-11-09_14h29.19.772,MST_task,2024.2.2,60.00092401253441,2025-11-09 14h29.25.287209 +0530,
,Scenes\171a.jpg,158,0,158,,,,,,,f,1.9835616999916965,0.12629680000827648,None,,,,,,,158,0,158,0,671.8707269000006,,,,,,,,,,,,,,,,,,,,,,,671.8541622000048,671.8707269000006,672.3876381000009,672.3542362000007,,,,,,,,,,,,,,,,,,,,,,,,,,672.3764467000001,672.3876381000009,672.3876381000009,672.3876381000009,675.3707045000046,f,1.9835616999916965,0.12629680000827648,675.3707623000082,675.3707732000039,None,,,,,,,,,,,,,,,,,00004,001,2025-11-09_14h29.19.772,MST_task,2024.2.2,60.00092401253441,2025-11-09 14h29.25.287209 +0530,
,Scenes\168a.jpg,159,0,159,,,,,,,j,0.6937226000009105,0.15024360000097658,None,,,,,,,159,0,159,0,675.3873496000015,,,,,,,,,,,,,,,,,,,,,,,675.3708525000111,675.3873496000015,675.9042474000016,675.8708549000003,,,,,,,,,,,,,,,,,,,,,,,,,,675.8863970000093,675.9042474000016,675.9042474000016,675.9042474000016,678.8872655000014,j,0.6937226000009105,0.15024360000097658,678.8873324000015,678.8873433000117,None,,,,,,,,,,,,,,,,,00004,001,2025-11-09_14h29.19.772,MST_task,2024.2.2,60.00092401253441,2025-11-09 14h29.25.287209 +0530,
,Scenes\023a.jpg,160,0,160,,,,,,,f,2.7572358000034,0.13125259999651462,None,,,,,,,160,0,160,0,678.9039056000038,,,,,,,,,,,,,,,,,,,,,,,678.8874031000014,678.9039056000038,679.420798200008,679.3874446000118,,,,,,,,,,,,,,,,,,,,,,,,,,679.4114391000039,679.420798200008,679.420798200008,679.420798200008,682.4038572999998,f,2.7572358000034,0.13125259999651462,682.4039029000123,682.4039126000134,None,,,,,,,,,,,,,,,,,00004,001,2025-11-09_14h29.19.772,MST_task,2024.2.2,60.00092401253441,2025-11-09 14h29.25.287209 +0530,
,Objects\116a.jpg,161,0,161,,,,,,,j,1.6740968000085559,0.21465039999748114,None,,,,,,,161,0,161,0,682.4205077000079,,,,,,,,,,,,,,,,,,,,,,,682.4039931000007,682.4205077000079,682.9373742000025,682.9039866000094,,,,,,,,,,,,,,,,,,,,,,,,,,682.9214639000129,682.9373742000025,682.9373742000025,682.9373742000025,685.9204959000053,j,1.6740968000085559,0.21465039999748114,685.9205385000096,685.9205492000037,None,,,,,,,,,,,,,,,,,00004,001,2025-11-09_14h29.19.772,MST_task,2024.2.2,60.00092401253441,2025-11-09 14h29.25.287209 +0530,
,Objects\141a.jpg,162,0,162,,,,,,,j,1.1395115000050282,0.1458682999946177,None,,,,,,,162,0,162,0,685.9370980000094,,,,,,,,,,,,,,,,,,,,,,,685.9206238000043,685.9370980000094,686.4537551000103,686.4206555000128,,,,,,,,,,,,,,,,,,,,,,,,,,686.4365822000109,686.4537551000103,686.4537551000103,686.4537551000103,689.4370439000049,j,1.1395115000050282,0.1458682999946177,689.4370977000071,689.4371100000135,None,,,,,,,,,,,,,,,,,00004,001,2025-11-09_14h29.19.772,MST_task,2024.2.2,60.00092401253441,2025-11-09 14h29.25.287209 +0530,
,Objects\111a.jpg,163,0,163,,,,,,,f,0.9573968999902718,0.1740890000073705,None,,,,,,,163,0,163,0,689.4536903000117,,,,,,,,,,,,,,,,,,,,,,,689.4371673999995,689.4536903000117,689.9703466000065,689.9372326000012,,,,,,,,,,,,,,,,,,,,,,,,,,689.9524171000085,689.9703466000065,689.9703466000065,689.9703466000065,692.9536416000046,f,0.9573968999902718,0.1740890000073705,692.9536923000123,692.9537031000073,None,,,,,,,,,,,,,,,,,00004,001,2025-11-09_14h29.19.772,MST_task,2024.2.2,60.00092401253441,2025-11-09 14h29.25.287209 +0530,
,Objects\038a.jpg,164,0,164,,,,,,,f,1.4329273999901488,0.11194020000402816,None,,,,,,,164,0,164,0,692.9702786000125,,,,,,,,,,,,,,,,,,,,,,,692.9537769000017,692.9702786000125,693.4869098000054,693.4538186000136,,,,,,,,,,,,,,,,,,,,,,,,,,693.4694097000029,693.4869098000054,693.4869098000054,693.4869098000054,696.4702223000058,f,1.4329273999901488,0.11194020000402816,696.4702803000109,696.4702911000059,None,,,,,,,,,,,,,,,,,00004,001,2025-11-09_14h29.19.772,MST_task,2024.2.2,60.00092401253441,2025-11-09 14h29.25.287209 +0530,
,Objects\008a.jpg,165,0,165,,,,,,,f,1.668042699995567,0.1695834999991348,None,,,,,,,165,0,165,0,696.486842000013,,,,,,,,,,,,,,,,,,,,,,,696.4703654000041,696.486842000013,697.0034969000117,696.9703739000106,,,,,,,,,,,,,,,,,,,,,,,,,,696.9863613000052,697.0034969000117,697.0034969000117,697.0034969000117,699.9868283000105,f,1.668042699995567,0.1695834999991348,699.9868864000018,699.9868975999998,None,,,,,,,,,,,,,,,,,00004,001,2025-11-09_14h29.19.772,MST_task,2024.2.2,60.00092401253441,2025-11-09 14h29.25.287209 +0530,
,Objects\048a.jpg,166,0,166,,,,,,,j,0.9178861999971559,0.1614516999979969,None,,,,,,,166,0,166,0,700.0034333000076,,,,,,,,,,,,,,,,,,,,,,,699.987003400005,700.0034333000076,700.5200942000083,700.4869242999994,,,,,,,,,,,,,,,,,,,,,,,,,,700.503303800011,700.5200942000083,700.5200942000083,700.5200942000083,703.503412200007,j,0.9178861999971559,0.1614516999979969,703.5034554000013,703.5034667,None,,,,,,,,,,,,,,,,,00004,001,2025-11-09_14h29.19.772,MST_task,2024.2.2,60.00092401253441,2025-11-09 14h29.25.287209 +0530,
,Objects\019a.jpg,167,0,167,,,,,,,f,2.9489516000030562,None,None,,,,,,,167,0,167,0,703.5200207000016,,,,,,,,,,,,,,,,,,,,,,,703.5035238000128,703.5200207000016,704.0366937000072,704.003569700013,,,,,,,,,,,,,,,,,,,,,,,,,,704.0200941000076,704.0366937000072,704.0366937000072,704.0366937000072,707.0199774000066,f,2.9489516000030562,None,707.0200197000086,707.020030700005,None,,,,,,,,,,,,,,,,,00004,001,2025-11-09_14h29.19.772,MST_task,2024.2.2,60.00092401253441,2025-11-09 14h29.25.287209 +0530,
,Scenes\032a.jpg,168,0,168,,,,,,,j,0.637689600000158,0.21037639999121893,None,,,,,,,168,0,168,0,707.0366535000067,,,,,,,,,,,,,,,,,,,,,,,707.020087500001,707.0366535000067,707.5537070000137,707.5201291000121,,,,,,,,,,,,,,,,,,,,,,,,,,707.5428696000017,707.5537070000137,707.5537070000137,707.5537070000137,710.536569200005,j,0.637689600000158,0.21037639999121893,710.5366123999993,710.5366224000027,None,,,,,,,,,,,,,,,,,00004,001,2025-11-09_14h29.19.772,MST_task,2024.2.2,60.00092401253441,2025-11-09 14h29.25.287209 +0530,
,Scenes\149a.jpg,169,0,169,,,,,,,j,2.6731314999924507,0.1620595999993384,None,,,,,,,169,0,169,0,710.5532402000099,,,,,,,,,,,,,,,,,,,,,,,710.5366808000108,710.5532402000099,711.0700830999995,711.0367901000136,,,,,,,,,,,,,,,,,,,,,,,,,,711.0552412000106,711.0700830999995,711.0700830999995,711.0700830999995,714.053207600009,j,2.6731314999924507,0.1620595999993384,714.0532508000033,714.0532610000082,None,,,,,,,,,,,,,,,,,00004,001,2025-11-09_14h29.19.772,MST_task,2024.2.2,60.00092401253441,2025-11-09 14h29.25.287209 +0530,
,Scenes\162a.jpg,170,0,170,,,,,,,j,0.6616043999965768,0.14505170000484213,None,,,,,,,170,0,170,0,714.0698314000037,,,,,,,,,,,,,,,,,,,,,,,714.0533182000072,714.0698314000037,714.5864571000129,714.5533602000069,,,,,,,,,,,,,,,,,,,,,,,,,,714.5686709000001,714.5864571000129,714.5864571000129,714.5864571000129,717.5697603000008,j,0.6616043999965768,0.14505170000484213,717.5698055000103,717.5698157000006,None,,,,,,,,,,,,,,,,,00004,001,2025-11-09_14h29.19.772,MST_task,2024.2.2,60.00092401253441,2025-11-09 14h29.25.287209 +0530,
,Scenes\014a.jpg,171,0,171,,,,,,,j,2.6685299999953713,0.15737190000072587,None,,,,,,,171,0,171,0,717.5864157000033,,,,,,,,,,,,,,,,,,,,,,,717.5698942000017,717.5864157000033,718.1032677000039,718.0698966000054,,,,,,,,,,,,,,,,,,,,,,,,,,718.0875318000035,718.1032677000039,718.1032677000039,718.1032677000039,721.0863742000074,j,2.6685299999953713,0.15737190000072587,721.0864166000101,721.0864279000089,None,,,,,,,,,,,,,,,,,00004,001,2025-11-09_14h29.19.772,MST_task,2024.2.2,60.00092401253441,2025-11-09 14h29.25.287209 +0530,
,Scenes\052a.jpg,172,0,172,,,,,,,j,2.625587300004554,0.15056969999568537,None,,,,,,,172,0,172,0,721.1030166000128,,,,,,,,,,,,,,,,,,,,,,,721.0864856000117,721.1030166000128,721.6196478000056,721.5864845000033,,,,,,,,,,,,,,,,,,,,,,,,,,721.6036791000079,721.6196478000056,721.6196478000056,721.6196478000056,724.5866062999994,j,2.625587300004554,0.15056969999568537,724.586652900005,724.586663500013,None,,,,,,,,,,,,,,,,,00004,001,2025-11-09_14h29.19.772,MST_task,2024.2.2,60.00092401253441,2025-11-09 14h29.25.287209 +0530,
