Sl_no,image_path,thisN,thisTrialN,thisRepN,key_resp_5.keys,key_resp_7.keys,key_resp_7.rt,key_resp_7.duration,key_resp_5.rt,key_resp_5.duration,key_resp_9.keys,key_resp_8.keys,key_resp_8.rt,key_resp_8.duration,key_resp_9.rt,key_resp_9.duration,practice.thisRepN,practice.thisTrialN,practice.thisN,practice.thisIndex,trials.thisRepN,trials.thisTrialN,trials.thisN,trials.thisIndex,thisRow.t,notes,welcome_page.started,text.started,key_resp.started,welcome_page.stopped,key_resp.keys,key_resp.rt,key_resp.duration,instructions.started,ins.started,key_resp_2.started,instructions.stopped,key_resp_2.keys,key_resp_2.rt,key_resp_2.duration,objects_only_instruction.started,text_3.started,key_resp_3.started,objects_only_instruction.stopped,key_resp_3.keys,key_resp_3.rt,key_resp_3.duration,ISI.started,text_4.started,text_4.stopped,ISI.stopped,practice_block.started,image.started,text_5.started,key_resp_5.started,image.stopped,text_5.stopped,key_resp_5.stopped,practice_block.stopped,practice.key_resp_5.keys,indoor_outdoor.started,text_7.started,key_resp_7.started,indoor_outdoor.stopped,practice.key_resp_7.keys,practice.key_resp_7.rt,practice.key_resp_7.duration,practice.key_resp_5.rt,practice.key_resp_5.duration,practice_to_main.started,text_2.started,key_resp_4.started,practice_to_main.stopped,key_resp_4.keys,key_resp_4.rt,key_resp_4.duration,objects.started,image_2.started,text_9.started,key_resp_9.started,image_2.stopped,text_9.stopped,key_resp_9.stopped,objects.stopped,trials.key_resp_9.keys,encoding_task.started,text_8.started,key_resp_8.started,encoding_task.stopped,trials.key_resp_8.keys,trials.key_resp_8.rt,trials.key_resp_8.duration,trials.key_resp_9.rt,trials.key_resp_9.duration,end_experiment.started,text_6.started,key_resp_6.started,end_experiment.stopped,key_resp_6.keys,key_resp_6.rt,key_resp_6.duration,list_of_stimuli,encoding_task_accuracy,participant,session,date,expName,psychopyVersion,frameRate,expStart,
,,,,,,,,,,,,,,,,,,,,,,,,,,,0.004532200000539888,0.02115090000006603,0.02115090000006603,15.955702500003099,space,15.924611900001764,None,,,,,,,,,,,,,,,,,,,,,,,,,,,,,,,,,,,,,,,,,,,,,,,,,,,,,,,,,,,,,,,,,,,,,,,00003,001,2025-11-08_22h19.46.477,MST_task,2024.2.2,59.972316778977444,2025-11-08 22h19.54.924977 +0530,
,,,,,,,,,,,,,,,,,,,,,,,,,,,,,,,,,,15.955734700000903,15.97087840000313,15.97087840000313,50.10363470000448,space,34.12548290000268,None,,,,,,,,,,,,,,,,,,,,,,,,,,,,,,,,,,,,,,,,,,,,,,,,,,,,,,,,,,,,,,,,00003,001,2025-11-08_22h19.46.477,MST_task,2024.2.2,59.972316778977444,2025-11-08 22h19.54.924977 +0530,
,,,,,,,,,,,,,,,,,,,,,,,,,,,,,,,,,,,,,,,,,50.10366100000101,50.120032900005754,50.120032900005754,72.06996710000385,space,21.943502999994962,None,,,,,,,,,,,,,,,,,,,,,,,,,,,,,,,,,,,,,,,,,,,,,,,,,,,,,,,,,00003,001,2025-11-08_22h19.46.477,MST_task,2024.2.2,59.972316778977444,2025-11-08 22h19.54.924977 +0530,
5,practice_images/139a.jpg,0,0,0,None,f,6.033975099999225,None,,,,,,,,,0,0,0,4,,,,,72.08618399999978,,,,,,,,,,,,,,,,,,,,,,,72.07573260000208,72.08618399999978,72.58620589999919,72.56971370000247,72.57649390000006,72.58620589999919,72.58620589999919,72.58620589999919,75.58612910000375,75.58612910000375,75.58612910000375,75.56965720000153,None,75.57098380000389,75.58612910000375,75.58612910000375,81.63636410000618,f,6.033975099999225,None,,,,,,,,,,,,,,,,,,,,,,,,,,,,,,,,,,,,,00003,001,2025-11-08_22h19.46.477,MST_task,2024.2.2,59.972316778977444,2025-11-08 22h19.54.924977 +0530,
1,practice_images/013a.jpg,1,1,0,None,j,2.3463897999972687,None,,,,,,,,,0,1,1,0,,,,,81.65264250000473,,,,,,,,,,,,,,,,,,,,,,,81.63645360000373,81.65264250000473,82.15266850000626,82.13618100000167,82.13782750000246,82.15266850000626,82.15266850000626,82.15266850000626,85.1526193000027,85.1526193000027,85.1526193000027,85.13615209999989,None,85.1361973000021,85.1526193000027,85.1526193000027,87.5029760000034,j,2.3463897999972687,None,,,,,,,,,,,,,,,,,,,,,,,,,,,,,,,,,,,,,00003,001,2025-11-08_22h19.46.477,MST_task,2024.2.2,59.972316778977444,2025-11-08 22h19.54.924977 +0530,
8,practice_images/178a.jpg,2,2,0,None,j,0.17444909999903757,None,,,,,,,,,0,2,2,7,,,,,87.51921360000415,,,,,,,,,,,,,,,,,,,,,,,87.5030568000002,87.51921360000415,88.01919320000161,88.00272039999982,88.003924800003,88.01919320000161,88.01919320000161,88.01919320000161,91.0191380000033,91.0191380000033,91.0191380000033,91.00266230000125,None,91.00271079999948,91.0191380000033,91.0191380000033,91.2028952000037,j,0.17444909999903757,None,,,,,,,,,,,,,,,,,,,,,,,,,,,,,,,,,,,,,00003,001,2025-11-08_22h19.46.477,MST_task,2024.2.2,59.972316778977444,2025-11-08 22h19.54.924977 +0530,
3,practice_images/037a.jpg,3,3,0,j,None,,,1.4723326999956043,0.13844550000067102,,,,,,,0,3,3,2,,,,,91.21913210000639,,,,,,,,,,,,,,,,,,,,,,,91.20297360000404,91.21913210000639,91.71912400000292,91.70272960000148,91.70390350000525,91.71912400000292,91.71912400000292,91.71912400000292,94.71905980000156,94.71905980000156,94.71905980000156,94.70278720000351,j,94.70283530000597,,,94.7028444000025,None,,,1.4723326999956043,0.13844550000067102,,,,,,,,,,,,,,,,,,,,,,,,,,,,,,,,,,,00003,001,2025-11-08_22h19.46.477,MST_task,2024.2.2,59.972316778977444,2025-11-08 22h19.54.924977 +0530,
9,practice_images/180a.jpg,4,4,0,j,None,,,1.8468986000007135,0.15578309999546036,,,,,,,0,4,4,8,,,,,94.71905980000156,,,,,,,,,,,,,,,,,,,,,,,94.7029027000026,94.71905980000156,95.21903990000283,95.20258830000239,95.2037777000005,95.21903990000283,95.21903990000283,95.21903990000283,98.21896850000485,98.21896850000485,98.21896850000485,98.2025930000018,j,98.20264020000468,,,98.20264870000392,None,,,1.8468986000007135,0.15578309999546036,,,,,,,,,,,,,,,,,,,,,,,,,,,,,,,,,,,00003,001,2025-11-08_22h19.46.477,MST_task,2024.2.2,59.972316778977444,2025-11-08 22h19.54.924977 +0530,
10,practice_images/182a.jpg,5,5,0,None,j,1.69919989999471,None,,,,,,,,,0,5,5,9,,,,,98.21896850000485,,,,,,,,,,,,,,,,,,,,,,,98.20270130000426,98.21896850000485,98.71896330000163,98.70257390000188,98.70384919999924,98.71896330000163,98.71896330000163,98.71896330000163,101.71890130000247,101.71890130000247,101.71890130000247,101.70253030000458,None,101.70256870000594,101.71890130000247,101.71890130000247,103.41912940000475,j,1.69919989999471,None,,,,,,,,,,,,,,,,,,,,,,,,,,,,,,,,,,,,,00003,001,2025-11-08_22h19.46.477,MST_task,2024.2.2,59.972316778977444,2025-11-08 22h19.54.924977 +0530,
6,practice_images/158a.jpg,6,6,0,f,None,,,0.9899839999998221,0.19389889999729348,,,,,,,0,6,6,5,,,,,103.4355188000045,,,,,,,,,,,,,,,,,,,,,,,103.41920470000332,103.4355188000045,103.93549329999951,103.91901499999949,103.92030860000523,103.93549329999951,103.93549329999951,103.93549329999951,106.9354525000017,106.9354525000017,106.9354525000017,106.9189761000016,f,106.9190254999994,,,106.91903550000279,None,,,0.9899839999998221,0.19389889999729348,,,,,,,,,,,,,,,,,,,,,,,,,,,,,,,,,,,00003,001,2025-11-08_22h19.46.477,MST_task,2024.2.2,59.972316778977444,2025-11-08 22h19.54.924977 +0530,
4,practice_images/002b.jpg,7,7,0,j,None,,,2.3046054000005824,0.1579619000040111,,,,,,,0,7,7,3,,,,,106.9354525000017,,,,,,,,,,,,,,,,,,,,,,,106.91909210000449,106.9354525000017,107.43543100000534,107.41910450000432,107.4205168000044,107.43543100000534,107.43543100000534,107.43543100000534,110.4353659000044,110.4353659000044,110.4353659000044,110.41890590000548,j,110.4189572000032,,,110.41896590000397,None,,,2.3046054000005824,0.1579619000040111,,,,,,,,,,,,,,,,,,,,,,,,,,,,,,,,,,,00003,001,2025-11-08_22h19.46.477,MST_task,2024.2.2,59.972316778977444,2025-11-08 22h19.54.924977 +0530,
2,practice_images/031a.jpg,8,8,0,j,None,,,1.736306999999215,0.17017200000555022,,,,,,,0,8,8,1,,,,,110.4353659000044,,,,,,,,,,,,,,,,,,,,,,,110.41901780000626,110.4353659000044,110.93542970000271,110.91894010000397,110.92014100000233,110.93542970000271,110.93542970000271,110.93542970000271,113.93530020000617,113.93530020000617,113.93530020000617,113.91893350000464,j,113.91898370000126,,,113.9189922000005,None,,,1.736306999999215,0.17017200000555022,,,,,,,,,,,,,,,,,,,,,,,,,,,,,,,,,,,00003,001,2025-11-08_22h19.46.477,MST_task,2024.2.2,59.972316778977444,2025-11-08 22h19.54.924977 +0530,
7,practice_images/166a.jpg,9,9,0,j,None,,,2.7330785999947693,0.18769650000467664,,,,,,,0,9,9,6,,,,,113.93530020000617,,,,,,,,,,,,,,,,,,,,,,,113.91904580000119,113.93530020000617,114.43528430000151,114.41882769999938,114.42001540000638,114.43528430000151,114.43528430000151,114.43528430000151,117.43522090000624,117.43522090000624,117.43522090000624,117.41876849999971,j,117.41881310000463,,,117.41882140000234,None,,,2.7330785999947693,0.18769650000467664,,,,,,,,,,,,,,,,,,,,,,,,,,,,,,,,,,,00003,001,2025-11-08_22h19.46.477,MST_task,2024.2.2,59.972316778977444,2025-11-08 22h19.54.924977 +0530,
,,,,,,,,,,,,,,,,,,,,,,,,,,,,,,,,,,,,,,,,,,,,,,,,,,,,,,,,,,,,,,,,,,,,,,117.41885880000336,117.43522090000624,117.43522090000624,138.8350328000015,space,21.39214570000331,None,,,,,,,,,,,,,,,,,,,,,,,,,,,,00003,001,2025-11-08_22h19.46.477,MST_task,2024.2.2,59.972316778977444,2025-11-08 22h19.54.924977 +0530,
,Objects\131a.jpg,0,0,0,,,,,,,None,j,0.06398359999730019,None,,,,,,,0,0,0,0,138.85140970000066,,,,,,,,,,,,,,,,,,,,,,,138.83558769999945,138.85140970000066,139.3516407000061,139.33485500000097,,,,,,,,,,,,,,,,,,,,,,,,,,139.3420566000059,139.3516407000061,139.3516407000061,139.3516407000061,142.35130059999938,142.35130059999938,142.35130059999938,142.33496580000065,None,142.33619710000494,142.35130059999938,142.35130059999938,142.41828490000626,j,0.06398359999730019,None,,,,,,,,,,,,00003,001,2025-11-08_22h19.46.477,MST_task,2024.2.2,59.972316778977444,2025-11-08 22h19.54.924977 +0530,
,Objects\104a.jpg,1,0,1,,,,,,,None,j,0.7316632000001846,None,,,,,,,1,0,1,0,142.43466099999932,,,,,,,,,,,,,,,,,,,,,,,142.4183462000001,142.43466099999932,142.93465330000618,142.91816839999956,,,,,,,,,,,,,,,,,,,,,,,,,,142.9204497000028,142.93465330000618,142.93465330000618,142.93465330000618,145.93457930000295,145.93457930000295,145.93457930000295,145.9182151999994,None,145.91825950000202,145.93457930000295,145.93457930000295,146.66832770000474,j,0.7316632000001846,None,,,,,,,,,,,,00003,001,2025-11-08_22h19.46.477,MST_task,2024.2.2,59.972316778977444,2025-11-08 22h19.54.924977 +0530,
,Objects\092a.jpg,2,0,2,,,,,,,j,None,,,2.4697337999969022,0.165241499998956,,,,,2,0,2,0,146.68459270000312,,,,,,,,,,,,,,,,,,,,,,,146.66843060000247,146.68459270000312,147.184580000001,147.16804690000572,,,,,,,,,,,,,,,,,,,,,,,,,,147.17039170000498,147.184580000001,147.184580000001,147.184580000001,150.18448860000353,150.18448860000353,150.18448860000353,150.16806899999938,j,150.16811260000395,,,150.168121900002,None,,,2.4697337999969022,0.165241499998956,,,,,,,,,,00003,001,2025-11-08_22h19.46.477,MST_task,2024.2.2,59.972316778977444,2025-11-08 22h19.54.924977 +0530,
,Objects\001a.jpg,3,0,3,,,,,,,None,j,1.8973445999945397,None,,,,,,,3,0,3,0,150.18448860000353,,,,,,,,,,,,,,,,,,,,,,,150.1681935000015,150.18448860000353,150.68444799999997,150.66799320000428,,,,,,,,,,,,,,,,,,,,,,,,,,150.67019699999946,150.68444799999997,150.68444799999997,150.68444799999997,153.68442300000606,153.68442300000606,153.68442300000606,153.66796920000343,None,153.6680078999998,153.68442300000606,153.68442300000606,155.58467660000315,j,1.8973445999945397,None,,,,,,,,,,,,00003,001,2025-11-08_22h19.46.477,MST_task,2024.2.2,59.972316778977444,2025-11-08 22h19.54.924977 +0530,
,Objects\076a.jpg,4,0,4,,,,,,,f,None,,,1.8918477000042913,0.2166919000010239,,,,,4,0,4,0,155.6010391000018,,,,,,,,,,,,,,,,,,,,,,,155.5847569000034,155.6010391000018,156.10100070000044,156.0845635000005,,,,,,,,,,,,,,,,,,,,,,,,,,156.08671400000458,156.10100070000044,156.10100070000044,156.10100070000044,159.10095930000534,159.10095930000534,159.10095930000534,159.0845205000005,f,159.0845666000023,,,159.08457669999916,None,,,1.8918477000042913,0.2166919000010239,,,,,,,,,,00003,001,2025-11-08_22h19.46.477,MST_task,2024.2.2,59.972316778977444,2025-11-08 22h19.54.924977 +0530,
,Objects\050a.jpg,5,0,5,,,,,,,f,None,,,1.5869701000046916,0.20151330000226153,,,,,5,0,5,0,159.10095930000534,,,,,,,,,,,,,,,,,,,,,,,159.08465060000162,159.10095930000534,159.60094519999984,159.58442189999914,,,,,,,,,,,,,,,,,,,,,,,,,,159.58658540000033,159.60094519999984,159.60094519999984,159.60094519999984,162.6008823000011,162.6008823000011,162.6008823000011,162.58445050000591,f,162.58449290000135,,,162.58450200000516,None,,,1.5869701000046916,0.20151330000226153,,,,,,,,,,00003,001,2025-11-08_22h19.46.477,MST_task,2024.2.2,59.972316778977444,2025-11-08 22h19.54.924977 +0530,
,Objects\006a.jpg,6,0,6,,,,,,,None,j,1.7167898999978206,None,,,,,,,6,0,6,0,162.6008823000011,,,,,,,,,,,,,,,,,,,,,,,162.58456000000297,162.6008823000011,163.10087770000246,163.0843290000048,,,,,,,,,,,,,,,,,,,,,,,,,,163.0863718000037,163.10087770000246,163.10087770000246,163.10087770000246,166.10080220000236,166.10080220000236,166.10080220000236,166.0844178000043,None,166.08446220000042,166.10080220000236,166.10080220000236,167.8179492000054,j,1.7167898999978206,None,,,,,,,,,,,,00003,001,2025-11-08_22h19.46.477,MST_task,2024.2.2,59.972316778977444,2025-11-08 22h19.54.924977 +0530,
,Scenes\012a.jpg,7,0,7,,,,,,,f,None,,,2.707172399997944,0.2093044000066584,,,,,7,0,7,0,167.83409500000562,,,,,,,,,,,,,,,,,,,,,,,167.81802980000066,167.83409500000562,168.35106030000316,168.3177238999997,,,,,,,,,,,,,,,,,,,,,,,,,,168.33180960000027,168.35106030000316,168.35106030000316,168.35106030000316,,,,171.33406100000138,f,171.3341056000063,,,171.33411600000545,None,,,2.707172399997944,0.2093044000066584,,,,,,,,,,00003,001,2025-11-08_22h19.46.477,MST_task,2024.2.2,59.972316778977444,2025-11-08 22h19.54.924977 +0530,
,Scenes\016a.jpg,8,0,8,,,,,,,f,None,,,1.2435145000054035,0.20116589999815915,,,,,8,0,8,0,171.35069400000066,,,,,,,,,,,,,,,,,,,,,,,171.33418820000225,171.35069400000066,171.8508959000028,171.83417490000284,,,,,,,,,,,,,,,,,,,,,,,,,,171.84456610000052,171.8508959000028,171.8508959000028,171.8508959000028,174.850612000002,174.850612000002,174.850612000002,174.83419900000445,f,174.8342413000064,,,174.83425100000022,None,,,1.2435145000054035,0.20116589999815915,,,,,,,,,,00003,001,2025-11-08_22h19.46.477,MST_task,2024.2.2,59.972316778977444,2025-11-08 22h19.54.924977 +0530,
,Scenes\162a.jpg,9,0,9,,,,,,,f,None,,,2.7583926000006613,None,,,,,9,0,9,0,174.850612000002,,,,,,,,,,,,,,,,,,,,,,,174.8343268000026,174.850612000002,175.3839322999993,175.33418540000275,,,,,,,,,,,,,,,,,,,,,,,,,,175.36487170000328,175.3839322999993,175.3839322999993,175.3839322999993,,,,178.35059110000293,f,178.35063939999964,,,178.35065020000184,None,,,2.7583926000006613,None,,,,,,,,,,00003,001,2025-11-08_22h19.46.477,MST_task,2024.2.2,59.972316778977444,2025-11-08 22h19.54.924977 +0530,
,Scenes\158a.jpg,10,0,10,,,,,,,f,None,,,1.8662564999976894,0.20156790000328328,,,,,10,0,10,0,178.3672093999994,,,,,,,,,,,,,,,,,,,,,,,178.35072610000498,178.3672093999994,178.88386020000326,178.85066709999955,,,,,,,,,,,,,,,,,,,,,,,,,,178.86375810000027,178.88386020000326,178.88386020000326,178.88386020000326,,,,181.8673037000044,f,181.86734850000357,,,181.86735970000154,None,,,1.8662564999976894,0.20156790000328328,,,,,,,,,,00003,001,2025-11-08_22h19.46.477,MST_task,2024.2.2,59.972316778977444,2025-11-08 22h19.54.924977 +0530,
,Scenes\007a.jpg,11,0,11,,,,,,,j,None,,,2.201327000002493,0.15442929999699118,,,,,11,0,11,0,181.8838262000063,,,,,,,,,,,,,,,,,,,,,,,181.86741520000214,181.8838262000063,182.4007128000012,182.36727420000534,,,,,,,,,,,,,,,,,,,,,,,,,,182.3795616999996,182.4007128000012,182.4007128000012,182.4007128000012,,,,185.38375390000147,j,185.38379740000528,,,185.3838079000052,None,,,2.201327000002493,0.15442929999699118,,,,,,,,,,00003,001,2025-11-08_22h19.46.477,MST_task,2024.2.2,59.972316778977444,2025-11-08 22h19.54.924977 +0530,
,Scenes\180a.jpg,12,0,12,,,,,,,f,None,,,1.7096269999965443,0.22241280000162078,,,,,12,0,12,0,185.4002490999992,,,,,,,,,,,,,,,,,,,,,,,185.38386440000613,185.4002490999992,185.90033880000556,185.88389370000368,,,,,,,,,,,,,,,,,,,,,,,,,,185.89390990000538,185.90033880000556,185.90033880000556,185.90033880000556,188.90030090000073,188.90030090000073,188.90030090000073,188.88386170000012,f,188.88390830000571,,,188.88391830000182,None,,,1.7096269999965443,0.22241280000162078,,,,,,,,,,00003,001,2025-11-08_22h19.46.477,MST_task,2024.2.2,59.972316778977444,2025-11-08 22h19.54.924977 +0530,
,Scenes\185a.jpg,13,0,13,,,,,,,f,None,,,1.3978438999984064,0.18129519999638433,,,,,13,0,13,0,188.90030090000073,,,,,,,,,,,,,,,,,,,,,,,188.8839741000047,188.90030090000073,189.4169261000061,189.38384240000596,,,,,,,,,,,,,,,,,,,,,,,,,,189.3958061000012,189.4169261000061,189.4169261000061,189.4169261000061,,,,192.4002285000024,f,192.40029270000377,,,192.40030310000293,None,,,1.3978438999984064,0.18129519999638433,,,,,,,,,,00003,001,2025-11-08_22h19.46.477,MST_task,2024.2.2,59.972316778977444,2025-11-08 22h19.54.924977 +0530,
,Objects\029a.jpg,14,0,14,,,,,,,None,f,4.002916899997217,None,,,,,,,14,0,14,0,192.416902200006,,,,,,,,,,,,,,,,,,,,,,,192.40036330000294,192.416902200006,192.91712190000544,192.90042070000345,,,,,,,,,,,,,,,,,,,,,,,,,,192.91006180000113,192.91712190000544,192.91712190000544,192.91712190000544,195.91692950000288,195.91692950000288,195.91692950000288,195.90039240000624,None,195.90043150000565,195.91692950000288,195.91692950000288,199.9337325000015,f,4.002916899997217,None,,,,,,,,,,,,00003,001,2025-11-08_22h19.46.477,MST_task,2024.2.2,59.972316778977444,2025-11-08 22h19.54.924977 +0530,
,Objects\108a.jpg,15,0,15,,,,,,,f,None,,,1.8379560999965179,0.1786984999998822,,,,,15,0,15,0,199.95006710000598,,,,,,,,,,,,,,,,,,,,,,,199.93384780000633,199.95006710000598,200.4500365999993,200.4335901000013,,,,,,,,,,,,,,,,,,,,,,,,,,200.4438988000038,200.4500365999993,200.4500365999993,200.4500365999993,203.44995820000622,203.44995820000622,203.44995820000622,203.4336803000042,f,203.43372660000023,,,203.4337366000036,None,,,1.8379560999965179,0.1786984999998822,,,,,,,,,,00003,001,2025-11-08_22h19.46.477,MST_task,2024.2.2,59.972316778977444,2025-11-08 22h19.54.924977 +0530,
,Objects\053a.jpg,16,0,16,,,,,,,None,f,4.375802199996542,None,,,,,,,16,0,16,0,203.44995820000622,,,,,,,,,,,,,,,,,,,,,,,203.43381349999981,203.44995820000622,203.94998180000402,203.93347970000468,,,,,,,,,,,,,,,,,,,,,,,,,,203.9434395000062,203.94998180000402,203.94998180000402,203.94998180000402,206.94987930000207,206.94987930000207,206.94987930000207,206.9335149000035,None,206.93355690000317,206.94987930000207,206.94987930000207,211.33339060000435,f,4.375802199996542,None,,,,,,,,,,,,00003,001,2025-11-08_22h19.46.477,MST_task,2024.2.2,59.972316778977444,2025-11-08 22h19.54.924977 +0530,
,Objects\003a.jpg,17,0,17,,,,,,,None,j,0.647518099998706,None,,,,,,,17,0,17,0,211.34985820000293,,,,,,,,,,,,,,,,,,,,,,,211.33349610000005,211.34985820000293,211.8497770000031,211.83332090000476,,,,,,,,,,,,,,,,,,,,,,,,,,211.84453000000212,211.8497770000031,211.8497770000031,211.8497770000031,214.84973549999995,214.84973549999995,214.84973549999995,214.83339530000376,None,214.83343750000495,214.84973549999995,214.84973549999995,215.50001350000093,j,0.647518099998706,None,,,,,,,,,,,,00003,001,2025-11-08_22h19.46.477,MST_task,2024.2.2,59.972316778977444,2025-11-08 22h19.54.924977 +0530,
,Objects\156a.jpg,18,0,18,,,,,,,f,None,,,1.6595671999966726,0.19351820000156295,,,,,18,0,18,0,215.51641419999942,,,,,,,,,,,,,,,,,,,,,,,215.50009520000458,215.51641419999942,216.01634380000178,215.9998360000027,,,,,,,,,,,,,,,,,,,,,,,,,,216.009221100001,216.01634380000178,216.01634380000178,216.01634380000178,219.016309000006,219.016309000006,219.016309000006,219.00002140000288,f,219.00006470000517,,,219.00007470000128,None,,,1.6595671999966726,0.19351820000156295,,,,,,,,,,00003,001,2025-11-08_22h19.46.477,MST_task,2024.2.2,59.972316778977444,2025-11-08 22h19.54.924977 +0530,
,Objects\099a.jpg,19,0,19,,,,,,,j,None,,,1.3833181000009063,0.17919529999926453,,,,,19,0,19,0,219.016309000006,,,,,,,,,,,,,,,,,,,,,,,219.00012889999925,219.016309000006,219.5163029000032,219.49991630000295,,,,,,,,,,,,,,,,,,,,,,,,,,219.51016480000544,219.5163029000032,219.5163029000032,219.5163029000032,222.51623480000126,222.51623480000126,222.51623480000126,222.49976830000378,j,222.49981030000345,,,222.49981970000226,None,,,1.3833181000009063,0.17919529999926453,,,,,,,,,,00003,001,2025-11-08_22h19.46.477,MST_task,2024.2.2,59.972316778977444,2025-11-08 22h19.54.924977 +0530,
,Objects\190a.jpg,20,0,20,,,,,,,None,j,0.7258243000032962,None,,,,,,,20,0,20,0,222.51623480000126,,,,,,,,,,,,,,,,,,,,,,,222.4998723000026,222.51623480000126,223.01623830000608,222.99969319999946,,,,,,,,,,,,,,,,,,,,,,,,,,223.00917360000312,223.01623830000608,223.01623830000608,223.01623830000608,226.0161586000031,226.0161586000031,226.0161586000031,225.99986100000388,None,225.99990520000574,226.0161586000031,226.0161586000031,226.74999790000584,j,0.7258243000032962,None,,,,,,,,,,,,00003,001,2025-11-08_22h19.46.477,MST_task,2024.2.2,59.972316778977444,2025-11-08 22h19.54.924977 +0530,
,Scenes\021a.jpg,21,0,21,,,,,,,f,None,,,2.503320399999211,0.21002140000200598,,,,,21,0,21,0,226.76616350000404,,,,,,,,,,,,,,,,,,,,,,,226.75007150000602,226.76616350000404,227.28297120000207,227.24961000000621,,,,,,,,,,,,,,,,,,,,,,,,,,227.2619255000027,227.28297120000207,227.28297120000207,227.28297120000207,,,,230.26621159999922,f,230.26626080000278,,,230.26627230000304,None,,,2.503320399999211,0.21002140000200598,,,,,,,,,,00003,001,2025-11-08_22h19.46.477,MST_task,2024.2.2,59.972316778977444,2025-11-08 22h19.54.924977 +0530,
,Scenes\141a.jpg,22,0,22,,,,,,,f,None,,,2.019742700002098,0.15462870000192197,,,,,22,0,22,0,230.28269680000085,,,,,,,,,,,,,,,,,,,,,,,230.26633060000313,230.28269680000085,230.78268850000313,230.76622180000413,,,,,,,,,,,,,,,,,,,,,,,,,,230.77556690000347,230.78268850000313,230.78268850000313,230.78268850000313,233.78267150000465,233.78267150000465,233.78267150000465,233.76621590000286,f,233.76626500000566,,,233.76627469999949,None,,,2.019742700002098,0.15462870000192197,,,,,,,,,,00003,001,2025-11-08_22h19.46.477,MST_task,2024.2.2,59.972316778977444,2025-11-08 22h19.54.924977 +0530,
,Scenes\070a.jpg,23,0,23,,,,,,,None,j,1.090712999997777,None,,,,,,,23,0,23,0,233.78267150000465,,,,,,,,,,,,,,,,,,,,,,,233.7663551000005,233.78267150000465,234.29929830000037,234.26616210000066,,,,,,,,,,,,,,,,,,,,,,,,,,234.27889270000014,234.29929830000037,234.29929830000037,234.29929830000037,,,,237.28263580000203,None,237.2826750000022,237.29920400000265,237.29920400000265,238.39979690000473,j,1.090712999997777,None,,,,,,,,,,,,00003,001,2025-11-08_22h19.46.477,MST_task,2024.2.2,59.972316778977444,2025-11-08 22h19.54.924977 +0530,
,Scenes\086a.jpg,24,0,24,,,,,,,j,None,,,2.4798500999968383,0.18976640000619227,,,,,24,0,24,0,238.4158884999997,,,,,,,,,,,,,,,,,,,,,,,238.39991070000542,238.4158884999997,238.91583560000436,238.89945889999944,,,,,,,,,,,,,,,,,,,,,,,,,,238.90723190000426,238.91583560000436,238.91583560000436,238.91583560000436,241.91576960000384,241.91576960000384,241.91576960000384,241.89942310000333,j,241.89946880000207,,,241.89947860000393,None,,,2.4798500999968383,0.18976640000619227,,,,,,,,,,00003,001,2025-11-08_22h19.46.477,MST_task,2024.2.2,59.972316778977444,2025-11-08 22h19.54.924977 +0530,
,Scenes\025a.jpg,25,0,25,,,,,,,j,None,,,1.3712643000035314,0.1783584999939194,,,,,25,0,25,0,241.91576960000384,,,,,,,,,,,,,,,,,,,,,,,241.89953990000504,241.91576960000384,242.43265170000086,242.3992947000006,,,,,,,,,,,,,,,,,,,,,,,,,,242.41658690000622,242.43265170000086,242.43265170000086,242.43265170000086,,,,245.41575170000579,j,245.41579520000232,,,245.41580570000224,None,,,1.3712643000035314,0.1783584999939194,,,,,,,,,,00003,001,2025-11-08_22h19.46.477,MST_task,2024.2.2,59.972316778977444,2025-11-08 22h19.54.924977 +0530,
,Scenes\153a.jpg,26,0,26,,,,,,,j,None,,,1.6254388000015751,0.1861986000003526,,,,,26,0,26,0,245.43239410000388,,,,,,,,,,,,,,,,,,,,,,,245.4158649000019,245.43239410000388,245.9322558000058,245.91585200000554,,,,,,,,,,,,,,,,,,,,,,,,,,245.92449599999964,245.9322558000058,245.9322558000058,245.9322558000058,248.93232759999955,248.93232759999955,248.93232759999955,248.91605010000058,j,248.9160938000059,,,248.91610349999974,None,,,1.6254388000015751,0.1861986000003526,,,,,,,,,,00003,001,2025-11-08_22h19.46.477,MST_task,2024.2.2,59.972316778977444,2025-11-08 22h19.54.924977 +0530,
,Scenes\036a.jpg,27,0,27,,,,,,,j,None,,,1.3318610999995144,0.1859799000012572,,,,,27,0,27,0,248.93232759999955,,,,,,,,,,,,,,,,,,,,,,,248.9161774000022,248.93232759999955,249.43248460000177,249.4158841000026,,,,,,,,,,,,,,,,,,,,,,,,,,249.42331430000195,249.43248460000177,249.43248460000177,249.43248460000177,252.43220629999996,252.43220629999996,252.43220629999996,252.41587230000005,j,252.4159157000031,,,252.41592500000115,None,,,1.3318610999995144,0.1859799000012572,,,,,,,,,,00003,001,2025-11-08_22h19.46.477,MST_task,2024.2.2,59.972316778977444,2025-11-08 22h19.54.924977 +0530,
,Objects\009a.jpg,28,0,28,,,,,,,f,None,,,1.977690400002757,0.20999350000056438,,,,,28,0,28,0,252.43220629999996,,,,,,,,,,,,,,,,,,,,,,,252.41598140000133,252.43220629999996,252.93248790000507,252.9157367000007,,,,,,,,,,,,,,,,,,,,,,,,,,252.9261467000033,252.93248790000507,252.93248790000507,252.93248790000507,255.93213670000114,255.93213670000114,255.93213670000114,255.91580760000215,f,255.91585190000478,,,255.91586150000512,None,,,1.977690400002757,0.20999350000056438,,,,,,,,,,00003,001,2025-11-08_22h19.46.477,MST_task,2024.2.2,59.972316778977444,2025-11-08 22h19.54.924977 +0530,
,Objects\025a.jpg,29,0,29,,,,,,,f,None,,,2.841443800003617,None,,,,,29,0,29,0,255.93213670000114,,,,,,,,,,,,,,,,,,,,,,,255.91591670000344,255.93213670000114,256.43212119999953,256.41566190000594,,,,,,,,,,,,,,,,,,,,,,,,,,256.4257046999992,256.43212119999953,256.43212119999953,256.43212119999953,259.43205450000096,259.43205450000096,259.43205450000096,259.41579099999944,f,259.41583390000596,,,259.41584290000173,None,,,2.841443800003617,None,,,,,,,,,,00003,001,2025-11-08_22h19.46.477,MST_task,2024.2.2,59.972316778977444,2025-11-08 22h19.54.924977 +0530,
,Objects\110a.jpg,30,0,30,,,,,,,f,None,,,1.2815272000007099,0.17809030000353232,,,,,30,0,30,0,259.43205450000096,,,,,,,,,,,,,,,,,,,,,,,259.41591220000555,259.43205450000096,259.9320430000007,259.9157197000022,,,,,,,,,,,,,,,,,,,,,,,,,,259.9273749000058,259.9320430000007,259.9320430000007,259.9320430000007,262.93201460000273,262.93201460000273,262.93201460000273,262.91578980000486,f,262.91583200000605,,,262.9158416999999,None,,,1.2815272000007099,0.17809030000353232,,,,,,,,,,00003,001,2025-11-08_22h19.46.477,MST_task,2024.2.2,59.972316778977444,2025-11-08 22h19.54.924977 +0530,
,Objects\187a.jpg,31,0,31,,,,,,,j,None,,,2.36189960000047,0.19759920000069542,,,,,31,0,31,0,262.93201460000273,,,,,,,,,,,,,,,,,,,,,,,262.9158960000059,262.93201460000273,263.43196870000247,263.4156526000006,,,,,,,,,,,,,,,,,,,,,,,,,,263.4267106000043,263.43196870000247,263.43196870000247,263.43196870000247,266.4319367000062,266.4319367000062,266.4319367000062,266.4155283,j,266.41557000000466,,,266.41558010000153,None,,,2.36189960000047,0.19759920000069542,,,,,,,,,,00003,001,2025-11-08_22h19.46.477,MST_task,2024.2.2,59.972316778977444,2025-11-08 22h19.54.924977 +0530,
,Objects\021a.jpg,32,0,32,,,,,,,f,None,,,2.2643225000065286,0.19073489999573212,,,,,32,0,32,0,266.4319367000062,,,,,,,,,,,,,,,,,,,,,,,266.41565220000484,266.4319367000062,266.93195480000577,266.91566220000095,,,,,,,,,,,,,,,,,,,,,,,,,,266.9266353999992,266.93195480000577,266.93195480000577,266.93195480000577,269.9318607000023,269.9318607000023,269.9318607000023,269.91556259999925,f,269.9156073000049,,,269.9156165000022,None,,,2.2643225000065286,0.19073489999573212,,,,,,,,,,00003,001,2025-11-08_22h19.46.477,MST_task,2024.2.2,59.972316778977444,2025-11-08 22h19.54.924977 +0530,
,Objects\102a.jpg,33,0,33,,,,,,,None,f,0.23965180000232067,None,,,,,,,33,0,33,0,269.9318607000023,,,,,,,,,,,,,,,,,,,,,,,269.9156693000041,269.9318607000023,270.431825700005,270.41533999999956,,,,,,,,,,,,,,,,,,,,,,,,,,270.4251390999998,270.431825700005,270.431825700005,270.431825700005,273.43178009999974,273.43178009999974,273.43178009999974,273.41537050000625,None,273.4154082000023,273.43178009999974,273.43178009999974,273.6820585000023,f,0.23965180000232067,None,,,,,,,,,,,,00003,001,2025-11-08_22h19.46.477,MST_task,2024.2.2,59.972316778977444,2025-11-08 22h19.54.924977 +0530,
,Objects\109a.jpg,34,0,34,,,,,,,f,None,,,2.129090200003702,0.14270419999957085,,,,,34,0,34,0,273.69844630000443,,,,,,,,,,,,,,,,,,,,,,,273.68212640000274,273.69844630000443,274.1984506000008,274.181998,,,,,,,,,,,,,,,,,,,,,,,,,,274.1920228000017,274.1984506000008,274.1984506000008,274.1984506000008,277.1983620000028,277.1983620000028,277.1983620000028,277.1820624000029,f,277.1821068999998,,,277.1821165000001,None,,,2.129090200003702,0.14270419999957085,,,,,,,,,,00003,001,2025-11-08_22h19.46.477,MST_task,2024.2.2,59.972316778977444,2025-11-08 22h19.54.924977 +0530,
,Scenes\142a.jpg,35,0,35,,,,,,,j,None,,,1.9624649999968824,0.2060531000024639,,,,,35,0,35,0,277.1983620000028,,,,,,,,,,,,,,,,,,,,,,,277.1821964000046,277.1983620000028,277.71537230000104,277.68196490000264,,,,,,,,,,,,,,,,,,,,,,,,,,277.69420260000334,277.71537230000104,277.71537230000104,277.71537230000104,,,,280.69837890000053,j,280.6984272000045,,,280.6984389000063,None,,,1.9624649999968824,0.2060531000024639,,,,,,,,,,00003,001,2025-11-08_22h19.46.477,MST_task,2024.2.2,59.972316778977444,2025-11-08 22h19.54.924977 +0530,
,Scenes\063a.jpg,36,0,36,,,,,,,j,None,,,1.0465401000037673,0.1855396999962977,,,,,36,0,36,0,280.71498620000057,,,,,,,,,,,,,,,,,,,,,,,280.69852700000047,280.71498620000057,281.23160800000187,281.19838220000383,,,,,,,,,,,,,,,,,,,,,,,,,,281.21039400000154,281.23160800000187,281.23160800000187,281.23160800000187,,,,284.21502670000336,j,284.21508360000007,,,284.2150951000003,None,,,1.0465401000037673,0.1855396999962977,,,,,,,,,,00003,001,2025-11-08_22h19.46.477,MST_task,2024.2.2,59.972316778977444,2025-11-08 22h19.54.924977 +0530,
,Scenes\120a.jpg,37,0,37,,,,,,,j,None,,,2.0403396999972756,0.1625824000002467,,,,,37,0,37,0,284.2315466,,,,,,,,,,,,,,,,,,,,,,,284.21517850000237,284.2315466,284.76519270000426,284.715033600005,,,,,,,,,,,,,,,,,,,,,,,,,,284.7471622000012,284.76519270000426,284.76519270000426,284.76519270000426,,,,287.7315174000032,j,287.7315619000001,,,287.73157280000305,None,,,2.0403396999972756,0.1625824000002467,,,,,,,,,,00003,001,2025-11-08_22h19.46.477,MST_task,2024.2.2,59.972316778977444,2025-11-08 22h19.54.924977 +0530,
,Scenes\062a.jpg,38,0,38,,,,,,,j,None,,,1.7808474999983446,0.15971400000125868,,,,,38,0,38,0,287.74813279999944,,,,,,,,,,,,,,,,,,,,,,,287.731663700004,287.74813279999944,288.264791900001,288.2316127000013,,,,,,,,,,,,,,,,,,,,,,,,,,288.24507740000263,288.264791900001,288.264791900001,288.264791900001,,,,291.24821850000444,j,291.2482716000013,,,291.2482825000043,None,,,1.7808474999983446,0.15971400000125868,,,,,,,,,,00003,001,2025-11-08_22h19.46.477,MST_task,2024.2.2,59.972316778977444,2025-11-08 22h19.54.924977 +0530,
,Scenes\119a.jpg,39,0,39,,,,,,,j,None,,,1.3227521000007982,0.18176349999703234,,,,,39,0,39,0,291.2647141000052,,,,,,,,,,,,,,,,,,,,,,,291.24836170000344,291.2647141000052,291.781616100001,291.74819710000156,,,,,,,,,,,,,,,,,,,,,,,,,,291.7624266000057,291.781616100001,291.781616100001,291.781616100001,,,,294.76471040000615,j,294.7647631,,,294.7647739000022,None,,,1.3227521000007982,0.18176349999703234,,,,,,,,,,00003,001,2025-11-08_22h19.46.477,MST_task,2024.2.2,59.972316778977444,2025-11-08 22h19.54.924977 +0530,
,Scenes\125a.jpg,40,0,40,,,,,,,j,None,,,0.6879512000014074,0.16639719999511726,,,,,40,0,40,0,294.7812731000013,,,,,,,,,,,,,,,,,,,,,,,294.7648610000033,294.7812731000013,295.2979295000041,295.2649132000006,,,,,,,,,,,,,,,,,,,,,,,,,,295.2772325000042,295.2979295000041,295.2979295000041,295.2979295000041,,,,298.28132530000585,j,298.2813699000035,,,298.28138050000416,None,,,0.6879512000014074,0.16639719999511726,,,,,,,,,,00003,001,2025-11-08_22h19.46.477,MST_task,2024.2.2,59.972316778977444,2025-11-08 22h19.54.924977 +0530,
,Scenes\157a.jpg,41,0,41,,,,,,,j,None,,,2.7575586999955704,0.171882500006177,,,,,41,0,41,0,298.2978623000017,,,,,,,,,,,,,,,,,,,,,,,298.28145629999926,298.2978623000017,298.7980725000016,298.7816676000002,,,,,,,,,,,,,,,,,,,,,,,,,,298.79131900000357,298.7980725000016,298.7980725000016,298.7980725000016,301.7977929000044,301.7977929000044,301.7977929000044,301.7814082000041,j,301.78145050000603,,,301.78145940000104,None,,,2.7575586999955704,0.171882500006177,,,,,,,,,,00003,001,2025-11-08_22h19.46.477,MST_task,2024.2.2,59.972316778977444,2025-11-08 22h19.54.924977 +0530,
,Objects\020a.jpg,42,0,42,,,,,,,f,None,,,1.7764470000038273,0.2016488999943249,,,,,42,0,42,0,301.7977929000044,,,,,,,,,,,,,,,,,,,,,,,301.78153170000587,301.7977929000044,302.298057,302.28130590000364,,,,,,,,,,,,,,,,,,,,,,,,,,302.2915367000023,302.298057,302.298057,302.298057,305.29775290000543,305.29775290000543,305.29775290000543,305.2814040000012,f,305.2814462000024,,,305.2814551000047,None,,,1.7764470000038273,0.2016488999943249,,,,,,,,,,00003,001,2025-11-08_22h19.46.477,MST_task,2024.2.2,59.972316778977444,2025-11-08 22h19.54.924977 +0530,
,Objects\169a.jpg,43,0,43,,,,,,,f,None,,,1.1040158000032534,0.21521479999501025,,,,,43,0,43,0,305.29775290000543,,,,,,,,,,,,,,,,,,,,,,,305.2815266000034,305.29775290000543,305.79769680000027,305.78131670000585,,,,,,,,,,,,,,,,,,,,,,,,,,305.792411800001,305.79769680000027,305.79769680000027,305.79769680000027,308.79767180000636,308.79767180000636,308.79767180000636,308.7812655000016,f,308.78130810000584,,,308.7813176000054,None,,,1.1040158000032534,0.21521479999501025,,,,,,,,,,00003,001,2025-11-08_22h19.46.477,MST_task,2024.2.2,59.972316778977444,2025-11-08 22h19.54.924977 +0530,
,Objects\135a.jpg,44,0,44,,,,,,,f,None,,,1.712098000003607,0.1304565999962506,,,,,44,0,44,0,308.79767180000636,,,,,,,,,,,,,,,,,,,,,,,308.78137280000374,308.79767180000636,309.2976220000055,309.2811242000025,,,,,,,,,,,,,,,,,,,,,,,,,,309.2918859000056,309.2976220000055,309.2976220000055,309.2976220000055,312.2975915999996,312.2975915999996,312.2975915999996,312.281155100005,f,312.2812045000028,,,312.2812145000062,None,,,1.712098000003607,0.1304565999962506,,,,,,,,,,00003,001,2025-11-08_22h19.46.477,MST_task,2024.2.2,59.972316778977444,2025-11-08 22h19.54.924977 +0530,
,Objects\128a.jpg,45,0,45,,,,,,,None,f,1.559034600002633,None,,,,,,,45,0,45,0,312.2975915999996,,,,,,,,,,,,,,,,,,,,,,,312.28129260000424,312.2975915999996,312.79754330000287,312.7810462000052,,,,,,,,,,,,,,,,,,,,,,,,,,312.7906978000028,312.79754330000287,312.79754330000287,312.79754330000287,315.79751730000135,315.79751730000135,315.79751730000135,315.7810945000019,None,315.7811351000055,315.79751730000135,315.79751730000135,317.36446630000137,f,1.559034600002633,None,,,,,,,,,,,,00003,001,2025-11-08_22h19.46.477,MST_task,2024.2.2,59.972316778977444,2025-11-08 22h19.54.924977 +0530,
,Objects\155a.jpg,46,0,46,,,,,,,f,None,,,1.0422703999938676,0.1971484000023338,,,,,46,0,46,0,317.38081590000365,,,,,,,,,,,,,,,,,,,,,,,317.3645519000056,317.38081590000365,317.8807730000044,317.86429450000287,,,,,,,,,,,,,,,,,,,,,,,,,,317.87401970000064,317.8807730000044,317.8807730000044,317.8807730000044,320.8807436000061,320.8807436000061,320.8807436000061,320.8643379999994,f,320.86438640000415,,,320.86439670000254,None,,,1.0422703999938676,0.1971484000023338,,,,,,,,,,00003,001,2025-11-08_22h19.46.477,MST_task,2024.2.2,59.972316778977444,2025-11-08 22h19.54.924977 +0530,
,Objects\183a.jpg,47,0,47,,,,,,,None,f,0.48773890000302345,None,,,,,,,47,0,47,0,320.8807436000061,,,,,,,,,,,,,,,,,,,,,,,320.86447079999925,320.8807436000061,321.38069160000305,321.36421660000633,,,,,,,,,,,,,,,,,,,,,,,,,,321.3742920000004,321.38069160000305,321.38069160000305,321.38069160000305,324.380662800002,324.380662800002,324.380662800002,324.36424290000286,None,324.3642844999995,324.380662800002,324.380662800002,324.88093110000045,f,0.48773890000302345,None,,,,,,,,,,,,00003,001,2025-11-08_22h19.46.477,MST_task,2024.2.2,59.972316778977444,2025-11-08 22h19.54.924977 +0530,
,Objects\059a.jpg,48,0,48,,,,,,,f,None,,,1.3186798000024282,0.19007330000022193,,,,,48,0,48,0,324.897323600002,,,,,,,,,,,,,,,,,,,,,,,324.8810245000059,324.897323600002,325.39727370000037,325.380773900004,,,,,,,,,,,,,,,,,,,,,,,,,,325.3909860000058,325.39727370000037,325.39727370000037,325.39727370000037,328.3972544999997,328.3972544999997,328.3972544999997,328.3809382000036,f,328.38098050000553,,,328.38098990000435,None,,,1.3186798000024282,0.19007330000022193,,,,,,,,,,00003,001,2025-11-08_22h19.46.477,MST_task,2024.2.2,59.972316778977444,2025-11-08 22h19.54.924977 +0530,
,Scenes\041a.jpg,49,0,49,,,,,,,j,None,,,1.0409709000014118,0.18422840000130236,,,,,49,0,49,0,328.3972544999997,,,,,,,,,,,,,,,,,,,,,,,328.38106759999937,328.3972544999997,328.914285400002,328.8807383000021,,,,,,,,,,,,,,,,,,,,,,,,,,328.89392030000454,328.914285400002,328.914285400002,328.914285400002,,,,331.8971836000055,j,331.8972419000056,,,331.8972530000028,None,,,1.0409709000014118,0.18422840000130236,,,,,,,,,,00003,001,2025-11-08_22h19.46.477,MST_task,2024.2.2,59.972316778977444,2025-11-08 22h19.54.924977 +0530,
,Scenes\081a.jpg,50,0,50,,,,,,,j,None,,,2.43193969999993,0.16927929999656044,,,,,50,0,50,0,331.9138268000024,,,,,,,,,,,,,,,,,,,,,,,331.8973177000007,331.9138268000024,,332.3973138000001,,,,,,,,,,,,,,,,,,,,,,,,,,332.4106915000011,332.4304809000023,332.4304809000023,332.4304809000023,,,,335.4137789000015,j,335.41383390000556,,,335.4138432000036,None,,,2.43193969999993,0.16927929999656044,,,,,,,,,,00003,001,2025-11-08_22h19.46.477,MST_task,2024.2.2,59.972316778977444,2025-11-08 22h19.54.924977 +0530,
,Scenes\035a.jpg,51,0,51,,,,,,,j,None,,,1.473921299999347,0.17349729999841657,,,,,51,0,51,0,335.4304160000029,,,,,,,,,,,,,,,,,,,,,,,335.4139189000052,335.4304160000029,335.9303702000034,335.91393550000066,,,,,,,,,,,,,,,,,,,,,,,,,,335.9212983000034,335.9303702000034,335.9303702000034,335.9303702000034,338.93033280000236,338.93033280000236,338.93033280000236,338.9140186000004,j,338.91406180000195,,,338.91407090000575,None,,,1.473921299999347,0.17349729999841657,,,,,,,,,,00003,001,2025-11-08_22h19.46.477,MST_task,2024.2.2,59.972316778977444,2025-11-08 22h19.54.924977 +0530,
,Scenes\059a.jpg,52,0,52,,,,,,,j,None,,,1.521685300001991,0.17321009999432135,,,,,52,0,52,0,338.93033280000236,,,,,,,,,,,,,,,,,,,,,,,338.9141249000022,338.93033280000236,339.44699020000553,339.41382420000446,,,,,,,,,,,,,,,,,,,,,,,,,,339.42779410000367,339.44699020000553,339.44699020000553,339.44699020000553,,,,342.43033540000033,j,342.43038140000135,,,342.43039160000626,None,,,1.521685300001991,0.17321009999432135,,,,,,,,,,00003,001,2025-11-08_22h19.46.477,MST_task,2024.2.2,59.972316778977444,2025-11-08 22h19.54.924977 +0530,
,Scenes\034a.jpg,53,0,53,,,,,,,f,None,,,1.2363698999979533,0.20184729999891715,,,,,53,0,53,0,342.4469272999995,,,,,,,,,,,,,,,,,,,,,,,342.4304778000005,342.4469272999995,342.96380090000457,342.9304812000046,,,,,,,,,,,,,,,,,,,,,,,,,,342.95095220000076,342.96380090000457,342.96380090000457,342.96380090000457,,,,345.9468874000013,f,345.94693240000197,,,345.94694300000265,None,,,1.2363698999979533,0.20184729999891715,,,,,,,,,,00003,001,2025-11-08_22h19.46.477,MST_task,2024.2.2,59.972316778977444,2025-11-08 22h19.54.924977 +0530,
,Scenes\168a.jpg,54,0,54,,,,,,,j,None,,,1.7597713000068325,0.14653159999579657,,,,,54,0,54,0,345.963488100002,,,,,,,,,,,,,,,,,,,,,,,345.94701820000046,345.963488100002,346.4637767000022,346.4469922999997,,,,,,,,,,,,,,,,,,,,,,,,,,346.4561815000052,346.4637767000022,346.4637767000022,346.4637767000022,349.46344220000174,349.46344220000174,349.46344220000174,349.44700820000435,j,349.4470513000051,,,349.4470605000024,None,,,1.7597713000068325,0.14653159999579657,,,,,,,,,,00003,001,2025-11-08_22h19.46.477,MST_task,2024.2.2,59.972316778977444,2025-11-08 22h19.54.924977 +0530,
,Scenes\155a.jpg,55,0,55,,,,,,,j,None,,,1.495292999999947,0.17713309999817284,,,,,55,0,55,0,349.46344220000174,,,,,,,,,,,,,,,,,,,,,,,349.44711370000005,349.46344220000174,349.98116490000393,349.9469708000033,,,,,,,,,,,,,,,,,,,,,,,,,,349.958286400004,349.98116490000393,349.98116490000393,349.98116490000393,,,,352.96341580000444,j,352.96347439999954,,,352.9634861000013,None,,,1.495292999999947,0.17713309999817284,,,,,,,,,,00003,001,2025-11-08_22h19.46.477,MST_task,2024.2.2,59.972316778977444,2025-11-08 22h19.54.924977 +0530,
,Objects\118a.jpg,56,0,56,,,,,,,None,j,0.00011979999544564635,None,,,,,,,56,0,56,0,352.9800020000039,,,,,,,,,,,,,,,,,,,,,,,352.96357560000615,352.9800020000039,353.48025269999926,353.4636415999994,,,,,,,,,,,,,,,,,,,,,,,,,,353.47423600000184,353.48025269999926,353.48025269999926,353.48025269999926,356.4799239999993,356.4799239999993,356.4799239999993,356.46368330000405,None,356.46372970000084,356.4799239999993,356.4799239999993,356.4804820999998,j,0.00011979999544564635,None,,,,,,,,,,,,00003,001,2025-11-08_22h19.46.477,MST_task,2024.2.2,59.972316778977444,2025-11-08 22h19.54.924977 +0530,
,Objects\051a.jpg,57,0,57,,,,,,,f,None,,,1.0774233999982243,0.1900512000065646,,,,,57,0,57,0,356.49661700000433,,,,,,,,,,,,,,,,,,,,,,,356.4805484000026,356.49661700000433,356.9966115000061,356.98014780000085,,,,,,,,,,,,,,,,,,,,,,,,,,356.9901697000023,356.9966115000061,356.9966115000061,356.9966115000061,359.9965353000007,359.9965353000007,359.9965353000007,359.9801634000032,f,359.98020800000086,,,359.98021820000577,None,,,1.0774233999982243,0.1900512000065646,,,,,,,,,,00003,001,2025-11-08_22h19.46.477,MST_task,2024.2.2,59.972316778977444,2025-11-08 22h19.54.924977 +0530,
,Objects\082a.jpg,58,0,58,,,,,,,f,None,,,1.6687483999994583,0.16604699999879813,,,,,58,0,58,0,359.9965353000007,,,,,,,,,,,,,,,,,,,,,,,359.980278300005,359.9965353000007,360.5132073999994,360.4801387000043,,,,,,,,,,,,,,,,,,,,,,,,,,360.4969895000031,360.5132073999994,360.5132073999994,360.5132073999994,,,,363.49648040000466,f,363.49652620000415,,,363.49653620000026,None,,,1.6687483999994583,0.16604699999879813,,,,,,,,,,00003,001,2025-11-08_22h19.46.477,MST_task,2024.2.2,59.972316778977444,2025-11-08 22h19.54.924977 +0530,
,Objects\142a.jpg,59,0,59,,,,,,,f,None,,,1.8218183999997564,0.1620044000010239,,,,,59,0,59,0,363.51314249999996,,,,,,,,,,,,,,,,,,,,,,,363.49661440000637,363.51314249999996,,363.99665470000036,,,,,,,,,,,,,,,,,,,,,,,,,,364.0188718999998,364.0297602999999,364.0297602999999,364.0297602999999,,,,367.0130669000064,f,367.0131237000023,,,367.01313280000613,None,,,1.8218183999997564,0.1620044000010239,,,,,,,,,,00003,001,2025-11-08_22h19.46.477,MST_task,2024.2.2,59.972316778977444,2025-11-08 22h19.54.924977 +0530,
,Objects\157a.jpg,60,0,60,,,,,,,f,None,,,0.9639379999935045,0.1739101000057417,,,,,60,0,60,0,367.02971050000633,,,,,,,,,,,,,,,,,,,,,,,367.013208700002,367.02971050000633,367.52969880000455,367.51328950000607,,,,,,,,,,,,,,,,,,,,,,,,,,367.5231356000004,367.52969880000455,367.52969880000455,367.52969880000455,370.52964910000446,370.52964910000446,370.52964910000446,370.5132420000009,f,370.51328210000065,,,370.5132911000037,None,,,0.9639379999935045,0.1739101000057417,,,,,,,,,,00003,001,2025-11-08_22h19.46.477,MST_task,2024.2.2,59.972316778977444,2025-11-08 22h19.54.924977 +0530,
,Objects\026a.jpg,61,0,61,,,,,,,j,None,,,0.9147033999979612,0.171607899996161,,,,,61,0,61,0,370.52964910000446,,,,,,,,,,,,,,,,,,,,,,,370.51336060000176,370.52964910000446,371.0296001000024,371.0132236999998,,,,,,,,,,,,,,,,,,,,,,,,,,371.02311990000453,371.0296001000024,371.0296001000024,371.0296001000024,374.02957170000445,374.02957170000445,374.02957170000445,374.0131204999998,j,374.013162700001,,,374.013171700004,None,,,0.9147033999979612,0.171607899996161,,,,,,,,,,00003,001,2025-11-08_22h19.46.477,MST_task,2024.2.2,59.972316778977444,2025-11-08 22h19.54.924977 +0530,
,Objects\186a.jpg,62,0,62,,,,,,,None,f,0.29085009999835165,None,,,,,,,62,0,62,0,374.02957170000445,,,,,,,,,,,,,,,,,,,,,,,374.01324020000175,374.02957170000445,374.5295225000009,374.5130219999992,,,,,,,,,,,,,,,,,,,,,,,,,,374.5224151000002,374.5295225000009,374.5295225000009,374.5295225000009,377.5294592000064,377.5294592000064,377.5294592000064,377.5130779000028,None,377.5131232000058,377.5294592000064,377.5294592000064,377.8298347000018,f,0.29085009999835165,None,,,,,,,,,,,,00003,001,2025-11-08_22h19.46.477,MST_task,2024.2.2,59.972316778977444,2025-11-08 22h19.54.924977 +0530,
,Scenes\031a.jpg,63,0,63,,,,,,,f,None,,,2.880700400004571,None,,,,,63,0,63,0,377.8461580000003,,,,,,,,,,,,,,,,,,,,,,,377.8299033000003,377.8461580000003,378.36297520000517,378.3296238000039,,,,,,,,,,,,,,,,,,,,,,,,,,378.34308740000415,378.36297520000517,378.36297520000517,378.36297520000517,,,,381.3461410000018,f,381.34618559999944,,,381.34619609999936,None,,,2.880700400004571,None,,,,,,,,,,00003,001,2025-11-08_22h19.46.477,MST_task,2024.2.2,59.972316778977444,2025-11-08 22h19.54.924977 +0530,
,Scenes\037a.jpg,64,0,64,,,,,,,j,None,,,0.9226551999963704,0.1706763999973191,,,,,64,0,64,0,381.3627439000047,,,,,,,,,,,,,,,,,,,,,,,381.34628930000326,381.3627439000047,381.87957490000554,381.8462744999997,,,,,,,,,,,,,,,,,,,,,,,,,,381.85970649999945,381.87957490000554,381.87957490000554,381.87957490000554,,,,384.86279910000303,j,384.8628450000033,,,384.86285540000245,None,,,0.9226551999963704,0.1706763999973191,,,,,,,,,,00003,001,2025-11-08_22h19.46.477,MST_task,2024.2.2,59.972316778977444,2025-11-08 22h19.54.924977 +0530,
,Scenes\068a.jpg,65,0,65,,,,,,,j,None,,,2.4100082000004477,0.13877720000164118,,,,,65,0,65,0,384.8793414000029,,,,,,,,,,,,,,,,,,,,,,,384.8629157000032,384.8793414000029,385.3959840000025,385.3629125000007,,,,,,,,,,,,,,,,,,,,,,,,,,385.3753993000064,385.3959840000025,385.3959840000025,385.3959840000025,,,,388.3793444000039,j,388.3793896999996,,,388.3794001999995,None,,,2.4100082000004477,0.13877720000164118,,,,,,,,,,00003,001,2025-11-08_22h19.46.477,MST_task,2024.2.2,59.972316778977444,2025-11-08 22h19.54.924977 +0530,
,Scenes\126a.jpg,66,0,66,,,,,,,j,None,,,0.6965402999994694,0.15022410000528907,,,,,66,0,66,0,388.3959268000035,,,,,,,,,,,,,,,,,,,,,,,388.3794756999996,388.3959268000035,388.9292285000047,388.8795048000029,,,,,,,,,,,,,,,,,,,,,,,,,,388.90761100000236,388.9292285000047,388.9292285000047,388.9292285000047,,,,391.8958927000058,j,391.8959401000029,,,391.89595550000377,None,,,0.6965402999994694,0.15022410000528907,,,,,,,,,,00003,001,2025-11-08_22h19.46.477,MST_task,2024.2.2,59.972316778977444,2025-11-08 22h19.54.924977 +0530,
,Scenes\102a.jpg,67,0,67,,,,,,,f,None,,,0.8709631999954581,0.17831290000322042,,,,,67,0,67,0,391.91252350000286,,,,,,,,,,,,,,,,,,,,,,,391.8960365000021,391.91252350000286,392.42915809999977,392.39605940000183,,,,,,,,,,,,,,,,,,,,,,,,,,392.4094822000043,392.42915809999977,392.42915809999977,392.42915809999977,,,,395.4125831000056,f,395.41263170000457,,,395.412642700001,None,,,0.8709631999954581,0.17831290000322042,,,,,,,,,,00003,001,2025-11-08_22h19.46.477,MST_task,2024.2.2,59.972316778977444,2025-11-08 22h19.54.924977 +0530,
,Scenes\171a.jpg,68,0,68,,,,,,,f,None,,,1.22942139999941,0.1445220000023255,,,,,68,0,68,0,395.42909570000484,,,,,,,,,,,,,,,,,,,,,,,395.4127349000046,395.42909570000484,395.9460468000034,395.91270830000576,,,,,,,,,,,,,,,,,,,,,,,,,,395.9296675000005,395.9460468000034,395.9460468000034,395.9460468000034,,,,398.92906620000576,f,398.92912369999976,,,398.9291344000012,None,,,1.22942139999941,0.1445220000023255,,,,,,,,,,00003,001,2025-11-08_22h19.46.477,MST_task,2024.2.2,59.972316778977444,2025-11-08 22h19.54.924977 +0530,
,Scenes\042a.jpg,69,0,69,,,,,,,f,None,,,0.5621262999993633,0.2938953999982914,,,,,69,0,69,0,398.9456485000046,,,,,,,,,,,,,,,,,,,,,,,398.929217900004,398.9456485000046,399.4456496000057,399.42920120000053,,,,,,,,,,,,,,,,,,,,,,,,,,399.4387577000016,399.4456496000057,399.4456496000057,399.4456496000057,402.4456053000031,402.4456053000031,402.4456053000031,402.4291616000046,f,402.4292071000018,,,402.42921860000206,None,,,0.5621262999993633,0.2938953999982914,,,,,,,,,,00003,001,2025-11-08_22h19.46.477,MST_task,2024.2.2,59.972316778977444,2025-11-08 22h19.54.924977 +0530,
,Objects\184a.jpg,70,0,70,,,,,,,f,None,,,1.4308928999962518,0.1789201999999932,,,,,70,0,70,0,402.4456053000031,,,,,,,,,,,,,,,,,,,,,,,402.4292731000023,402.4456053000031,402.97917090000556,402.9293051000059,,,,,,,,,,,,,,,,,,,,,,,,,,402.96218260000023,402.97917090000556,402.97917090000556,402.97917090000556,,,,405.94572809999954,f,405.945779200003,,,405.94578940000065,None,,,1.4308928999962518,0.1789201999999932,,,,,,,,,,00003,001,2025-11-08_22h19.46.477,MST_task,2024.2.2,59.972316778977444,2025-11-08 22h19.54.924977 +0530,
,Objects\087a.jpg,71,0,71,,,,,,,None,f,1.5776321000012103,None,,,,,,,71,0,71,0,405.9621649000037,,,,,,,,,,,,,,,,,,,,,,,405.9458767000033,405.9621649000037,406.4621537999992,406.4457345000046,,,,,,,,,,,,,,,,,,,,,,,,,,406.4574045000045,406.4621537999992,406.4621537999992,406.4621537999992,409.46209450000606,409.46209450000606,409.46209450000606,409.4457070000062,None,409.44575830000394,409.46209450000606,409.46209450000606,411.04577530000097,f,1.5776321000012103,None,,,,,,,,,,,,00003,001,2025-11-08_22h19.46.477,MST_task,2024.2.2,59.972316778977444,2025-11-08 22h19.54.924977 +0530,
,Objects\124a.jpg,72,0,72,,,,,,,f,None,,,1.2292568999982905,0.1885379000013927,,,,,72,0,72,0,411.06211850000545,,,,,,,,,,,,,,,,,,,,,,,411.0458953000052,411.06211850000545,411.56204000000434,411.54563580000104,,,,,,,,,,,,,,,,,,,,,,,,,,411.5567078000022,411.56204000000434,411.56204000000434,411.56204000000434,414.56200670000544,414.56200670000544,414.56200670000544,414.5455901000023,f,414.5456326000058,,,414.5456422000061,None,,,1.2292568999982905,0.1885379000013927,,,,,,,,,,00003,001,2025-11-08_22h19.46.477,MST_task,2024.2.2,59.972316778977444,2025-11-08 22h19.54.924977 +0530,
,Objects\030a.jpg,73,0,73,,,,,,,f,None,,,1.5544891000026837,0.15783689999807393,,,,,73,0,73,0,414.56200670000544,,,,,,,,,,,,,,,,,,,,,,,414.5457122000007,414.56200670000544,415.0619621000005,415.0455107000016,,,,,,,,,,,,,,,,,,,,,,,,,,415.0563317000051,415.0619621000005,415.0619621000005,415.0619621000005,418.0619299000027,418.0619299000027,418.0619299000027,418.04557800000475,f,418.0456256000034,,,418.0456350000022,None,,,1.5544891000026837,0.15783689999807393,,,,,,,,,,00003,001,2025-11-08_22h19.46.477,MST_task,2024.2.2,59.972316778977444,2025-11-08 22h19.54.924977 +0530,
,Objects\151a.jpg,74,0,74,,,,,,,j,None,,,1.2107347999990452,0.13184670000191545,,,,,74,0,74,0,418.0619299000027,,,,,,,,,,,,,,,,,,,,,,,418.0457119999992,418.0619299000027,418.56188730000576,418.5454469000033,,,,,,,,,,,,,,,,,,,,,,,,,,418.5551880000057,418.56188730000576,418.56188730000576,418.56188730000576,421.56184910000593,421.56184910000593,421.56184910000593,421.54552440000407,j,421.5455684000044,,,421.5455781000055,None,,,1.2107347999990452,0.13184670000191545,,,,,,,,,,00003,001,2025-11-08_22h19.46.477,MST_task,2024.2.2,59.972316778977444,2025-11-08 22h19.54.924977 +0530,
,Objects\159a.jpg,75,0,75,,,,,,,None,f,0.7282641999991029,None,,,,,,,75,0,75,0,421.56184910000593,,,,,,,,,,,,,,,,,,,,,,,421.54563520000374,421.56184910000593,422.0618119999999,422.0453753000038,,,,,,,,,,,,,,,,,,,,,,,,,,422.0551223000002,422.0618119999999,422.0618119999999,422.0618119999999,425.06177520000347,425.06177520000347,425.06177520000347,425.04533580000134,None,425.04537490000075,425.06177520000347,425.06177520000347,425.79542100000253,f,0.7282641999991029,None,,,,,,,,,,,,00003,001,2025-11-08_22h19.46.477,MST_task,2024.2.2,59.972316778977444,2025-11-08 22h19.54.924977 +0530,
,Objects\028a.jpg,76,0,76,,,,,,,f,None,,,1.1427287999977125,0.17383580000023358,,,,,76,0,76,0,425.81176220000634,,,,,,,,,,,,,,,,,,,,,,,425.79553470000246,425.81176220000634,426.3117426000026,426.29533860000083,,,,,,,,,,,,,,,,,,,,,,,,,,426.30526900000405,426.3117426000026,426.3117426000026,426.3117426000026,429.3116517000017,429.3116517000017,429.3116517000017,429.29545590000635,f,429.29550290000043,,,429.2955130000046,None,,,1.1427287999977125,0.17383580000023358,,,,,,,,,,00003,001,2025-11-08_22h19.46.477,MST_task,2024.2.2,59.972316778977444,2025-11-08 22h19.54.924977 +0530,
,Scenes\038a.jpg,77,0,77,,,,,,,j,None,,,2.1405211000019335,0.17457629999989877,,,,,77,0,77,0,429.3116517000017,,,,,,,,,,,,,,,,,,,,,,,429.2955937000006,429.3116517000017,429.8286880000014,429.7952071000036,,,,,,,,,,,,,,,,,,,,,,,,,,429.8099313999992,429.8286880000014,429.8286880000014,429.8286880000014,,,,432.81164710000303,j,432.8116969000039,,,432.81170860000566,None,,,2.1405211000019335,0.17457629999989877,,,,,,,,,,00003,001,2025-11-08_22h19.46.477,MST_task,2024.2.2,59.972316778977444,2025-11-08 22h19.54.924977 +0530,
,Scenes\177a.jpg,78,0,78,,,,,,,j,None,,,2.6238422999958857,0.12916519999998854,,,,,78,0,78,0,432.8282756000044,,,,,,,,,,,,,,,,,,,,,,,432.8117934000038,432.8282756000044,433.3280056000003,433.3117266000045,,,,,,,,,,,,,,,,,,,,,,,,,,433.32233040000574,433.3280056000003,433.3280056000003,433.3280056000003,436.32820899999933,436.32820899999933,436.32820899999933,436.3118325000032,j,436.3118736000033,,,436.31188350000593,None,,,2.6238422999958857,0.12916519999998854,,,,,,,,,,00003,001,2025-11-08_22h19.46.477,MST_task,2024.2.2,59.972316778977444,2025-11-08 22h19.54.924977 +0530,
,Scenes\032a.jpg,79,0,79,,,,,,,j,None,,,0.8487028000017744,0.1415802999981679,,,,,79,0,79,0,436.32820899999933,,,,,,,,,,,,,,,,,,,,,,,436.3119372000001,436.32820899999933,436.845167200001,436.8117147000012,,,,,,,,,,,,,,,,,,,,,,,,,,436.8282065000021,436.845167200001,436.845167200001,436.845167200001,,,,439.8281225000028,j,439.82816500000627,,,439.82817559999967,None,,,0.8487028000017744,0.1415802999981679,,,,,,,,,,00003,001,2025-11-08_22h19.46.477,MST_task,2024.2.2,59.972316778977444,2025-11-08 22h19.54.924977 +0530,
,Scenes\084a.jpg,80,0,80,,,,,,,j,None,,,0.5602887999993982,0.14787720000458648,,,,,80,0,80,0,439.8447817000051,,,,,,,,,,,,,,,,,,,,,,,439.82823060000374,439.8447817000051,,440.32827080000425,,,,,,,,,,,,,,,,,,,,,,,,,,440.3423690000054,440.3614551999999,440.3614551999999,440.3614551999999,,,,443.344866200001,j,443.3449169000014,,,443.3449263000002,None,,,0.5602887999993982,0.14787720000458648,,,,,,,,,,00003,001,2025-11-08_22h19.46.477,MST_task,2024.2.2,59.972316778977444,2025-11-08 22h19.54.924977 +0530,
,Scenes\173a.jpg,81,0,81,,,,,,,j,None,,,1.299442800001998,0.1263861999977962,,,,,81,0,81,0,443.3613792000033,,,,,,,,,,,,,,,,,,,,,,,443.3450054000059,443.3613792000033,443.8780375999995,443.84487350000563,,,,,,,,,,,,,,,,,,,,,,,,,,443.8569248000058,443.8780375999995,443.8780375999995,443.8780375999995,,,,446.86144640000566,j,446.86149670000304,,,446.8615074000045,None,,,1.299442800001998,0.1263861999977962,,,,,,,,,,00003,001,2025-11-08_22h19.46.477,MST_task,2024.2.2,59.972316778977444,2025-11-08 22h19.54.924977 +0530,
,Scenes\133a.jpg,82,0,82,,,,,,,j,None,,,0.8890618999939761,0.14262340000277618,,,,,82,0,82,0,446.87797010000213,,,,,,,,,,,,,,,,,,,,,,,446.86156409999967,446.87797010000213,447.3946575000009,447.36151860000246,,,,,,,,,,,,,,,,,,,,,,,,,,447.3734126000054,447.3946575000009,447.3946575000009,447.3946575000009,,,,450.3780662000063,j,450.37811330000113,,,450.3781240000026,None,,,0.8890618999939761,0.14262340000277618,,,,,,,,,,00003,001,2025-11-08_22h19.46.477,MST_task,2024.2.2,59.972316778977444,2025-11-08 22h19.54.924977 +0530,
,Scenes\039a.jpg,83,0,83,,,,,,,None,j,0.48335050000605406,None,,,,,,,83,0,83,0,450.3945598999999,,,,,,,,,,,,,,,,,,,,,,,450.3782102000041,450.3945598999999,450.8945145000034,450.8780284000022,,,,,,,,,,,,,,,,,,,,,,,,,,450.88187550000293,450.8945145000034,450.8945145000034,450.8945145000034,453.8944808000015,453.8944808000015,453.8944808000015,453.8780728000056,None,453.878111500002,453.8944808000015,453.8944808000015,454.3782840999993,j,0.48335050000605406,None,,,,,,,,,,,,00003,001,2025-11-08_22h19.46.477,MST_task,2024.2.2,59.972316778977444,2025-11-08 22h19.54.924977 +0530,
,Objects\143a.jpg,84,0,84,,,,,,,f,None,,,0.8294668000016827,0.1855809999979101,,,,,84,0,84,0,454.3944749000002,,,,,,,,,,,,,,,,,,,,,,,454.3783915000022,454.3944749000002,454.8946830999994,454.877960100006,,,,,,,,,,,,,,,,,,,,,,,,,,454.8878304000027,454.8946830999994,454.8946830999994,454.8946830999994,457.89439870000206,457.89439870000206,457.89439870000206,457.87796530000196,f,457.87800940000307,,,457.8780193999992,None,,,0.8294668000016827,0.1855809999979101,,,,,,,,,,00003,001,2025-11-08_22h19.46.477,MST_task,2024.2.2,59.972316778977444,2025-11-08 22h19.54.924977 +0530,
,Objects\158a.jpg,85,0,85,,,,,,,f,None,,,0.7253835999945295,0.17379900000378257,,,,,85,0,85,0,457.89439870000206,,,,,,,,,,,,,,,,,,,,,,,457.87807410000096,457.89439870000206,458.3944030000057,458.3778722000061,,,,,,,,,,,,,,,,,,,,,,,,,,458.3879633000033,458.3944030000057,458.3944030000057,458.3944030000057,461.39435710000544,461.39435710000544,461.39435710000544,461.3779076999999,f,461.37795069999993,,,461.37796000000526,None,,,0.7253835999945295,0.17379900000378257,,,,,,,,,,00003,001,2025-11-08_22h19.46.477,MST_task,2024.2.2,59.972316778977444,2025-11-08 22h19.54.924977 +0530,
,Objects\079a.jpg,86,0,86,,,,,,,f,None,,,0.8575320999952964,0.17857640000147512,,,,,86,0,86,0,461.39435710000544,,,,,,,,,,,,,,,,,,,,,,,461.3780337999997,461.39435710000544,461.8943423000019,461.87799169999926,,,,,,,,,,,,,,,,,,,,,,,,,,461.88831620000565,461.8943423000019,461.8943423000019,461.8943423000019,464.8942451000039,464.8942451000039,464.8942451000039,464.8778261000043,f,464.8778672000044,,,464.8778756000029,None,,,0.8575320999952964,0.17857640000147512,,,,,,,,,,00003,001,2025-11-08_22h19.46.477,MST_task,2024.2.2,59.972316778977444,2025-11-08 22h19.54.924977 +0530,
,Objects\171a.jpg,87,0,87,,,,,,,f,None,,,0.981933899995056,0.17510659999970812,,,,,87,0,87,0,464.8942451000039,,,,,,,,,,,,,,,,,,,,,,,464.8779436000041,464.8942451000039,465.3942423000044,465.3778550000061,,,,,,,,,,,,,,,,,,,,,,,,,,465.38797350000095,465.3942423000044,465.3942423000044,465.3942423000044,468.39412950000406,468.39412950000406,468.39412950000406,468.3777315000043,f,468.377771200001,,,468.37778020000405,None,,,0.981933899995056,0.17510659999970812,,,,,,,,,,00003,001,2025-11-08_22h19.46.477,MST_task,2024.2.2,59.972316778977444,2025-11-08 22h19.54.924977 +0530,
,Objects\103a.jpg,88,0,88,,,,,,,f,None,,,1.0052309000020614,0.1458173999999417,,,,,88,0,88,0,468.39412950000406,,,,,,,,,,,,,,,,,,,,,,,468.37785050000093,468.39412950000406,468.9107901000025,468.8776427000048,,,,,,,,,,,,,,,,,,,,,,,,,,468.89677030000166,468.9107901000025,468.9107901000025,468.9107901000025,,,,471.89414840000245,f,471.89418950000254,,,471.8941997000002,None,,,1.0052309000020614,0.1458173999999417,,,,,,,,,,00003,001,2025-11-08_22h19.46.477,MST_task,2024.2.2,59.972316778977444,2025-11-08 22h19.54.924977 +0530,
,Objects\089a.jpg,89,0,89,,,,,,,f,None,,,2.051035000004049,0.14993369999865536,,,,,89,0,89,0,471.9107654000036,,,,,,,,,,,,,,,,,,,,,,,471.8942712000062,471.9107654000036,472.42739870000514,472.3943020000006,,,,,,,,,,,,,,,,,,,,,,,,,,472.4110870000004,472.42739870000514,472.42739870000514,472.42739870000514,,,,475.4107315000001,f,475.4107748000024,,,475.41078500000003,None,,,2.051035000004049,0.14993369999865536,,,,,,,,,,00003,001,2025-11-08_22h19.46.477,MST_task,2024.2.2,59.972316778977444,2025-11-08 22h19.54.924977 +0530,
,Objects\067a.jpg,90,0,90,,,,,,,f,None,,,2.101062199995795,0.2098005000007106,,,,,90,0,90,0,475.4273373000033,,,,,,,,,,,,,,,,,,,,,,,475.41086570000334,475.4273373000033,475.9272981000031,475.9109804000036,,,,,,,,,,,,,,,,,,,,,,,,,,475.92075620000105,475.9272981000031,475.9272981000031,475.9272981000031,478.9272617000024,478.9272617000024,478.9272617000024,478.9108422999998,f,478.91088570000284,,,478.91089510000165,None,,,2.101062199995795,0.2098005000007106,,,,,,,,,,00003,001,2025-11-08_22h19.46.477,MST_task,2024.2.2,59.972316778977444,2025-11-08 22h19.54.924977 +0530,
,Scenes\046a.jpg,91,0,91,,,,,,,j,None,,,2.8615953999978956,None,,,,,91,0,91,0,478.9272617000024,,,,,,,,,,,,,,,,,,,,,,,478.91095110000606,478.9272617000024,479.44416150000325,479.4108569000018,,,,,,,,,,,,,,,,,,,,,,,,,,479.42917590000434,479.44416150000325,479.44416150000325,479.44416150000325,,,,482.4272545999993,j,482.42729710000276,,,482.42730770000344,None,,,2.8615953999978956,None,,,,,,,,,,00003,001,2025-11-08_22h19.46.477,MST_task,2024.2.2,59.972316778977444,2025-11-08 22h19.54.924977 +0530,
,Scenes\073a.jpg,92,0,92,,,,,,,j,None,,,0.8942997999984073,0.17259850000118604,,,,,92,0,92,0,482.443855000005,,,,,,,,,,,,,,,,,,,,,,,482.427377400003,482.443855000005,482.9607681000052,482.92736259999947,,,,,,,,,,,,,,,,,,,,,,,,,,482.9390010999996,482.9607681000052,482.9607681000052,482.9607681000052,,,,485.9438397000049,j,485.9438831000007,,,485.9438938000021,None,,,0.8942997999984073,0.17259850000118604,,,,,,,,,,00003,001,2025-11-08_22h19.46.477,MST_task,2024.2.2,59.972316778977444,2025-11-08 22h19.54.924977 +0530,
,Scenes\065a.jpg,93,0,93,,,,,,,j,None,,,1.5284026999943308,0.14196369999990566,,,,,93,0,93,0,485.9605083999995,,,,,,,,,,,,,,,,,,,,,,,485.94396830000187,485.9605083999995,486.47728850000567,486.44402770000306,,,,,,,,,,,,,,,,,,,,,,,,,,486.45602870000585,486.47728850000567,486.47728850000567,486.47728850000567,,,,489.46052520000376,j,489.46057350000046,,,489.46058460000495,None,,,1.5284026999943308,0.14196369999990566,,,,,,,,,,00003,001,2025-11-08_22h19.46.477,MST_task,2024.2.2,59.972316778977444,2025-11-08 22h19.54.924977 +0530,
,Scenes\188a.jpg,94,0,94,,,,,,,None,j,0.9045321000012336,None,,,,,,,94,0,94,0,489.47703130000446,,,,,,,,,,,,,,,,,,,,,,,489.4606621000057,489.47703130000446,489.9769899000021,489.9605068000019,,,,,,,,,,,,,,,,,,,,,,,,,,489.96491660000174,489.9769899000021,489.9769899000021,489.9769899000021,492.9769577000043,492.9769577000043,492.9769577000043,492.96056160000444,None,492.96060020000004,492.9769577000043,492.9769577000043,493.8938586000004,j,0.9045321000012336,None,,,,,,,,,,,,00003,001,2025-11-08_22h19.46.477,MST_task,2024.2.2,59.972316778977444,2025-11-08 22h19.54.924977 +0530,
,Scenes\154a.jpg,95,0,95,,,,,,,j,None,,,0.8971182999957819,0.1455234000022756,,,,,95,0,95,0,493.9102325999993,,,,,,,,,,,,,,,,,,,,,,,493.89392970000335,493.9102325999993,494.4269229000056,494.3937833000018,,,,,,,,,,,,,,,,,,,,,,,,,,494.4153477,494.4269229000056,494.4269229000056,494.4269229000056,,,,497.410212200004,j,497.4102600000042,,,497.41027100000065,None,,,0.8971182999957819,0.1455234000022756,,,,,,,,,,00003,001,2025-11-08_22h19.46.477,MST_task,2024.2.2,59.972316778977444,2025-11-08 22h19.54.924977 +0530,
,Scenes\130a.jpg,96,0,96,,,,,,,j,None,,,1.3737757000053534,0.17972979999467498,,,,,96,0,96,0,497.4268616000045,,,,,,,,,,,,,,,,,,,,,,,497.4103501999998,497.4268616000045,497.94379850000405,497.91034729999956,,,,,,,,,,,,,,,,,,,,,,,,,,497.92529210000066,497.94379850000405,497.94379850000405,497.94379850000405,,,,500.92686250000406,j,500.92690920000314,,,500.9269204000011,None,,,1.3737757000053534,0.17972979999467498,,,,,,,,,,00003,001,2025-11-08_22h19.46.477,MST_task,2024.2.2,59.972316778977444,2025-11-08 22h19.54.924977 +0530,
,Scenes\103a.jpg,97,0,97,,,,,,,j,None,,,1.2178109000014956,0.17818860000261338,,,,,97,0,97,0,500.9434834999993,,,,,,,,,,,,,,,,,,,,,,,500.9269817000022,500.9434834999993,501.4601279000053,501.42694499999925,,,,,,,,,,,,,,,,,,,,,,,,,,501.44052640000154,501.4601279000053,501.4601279000053,501.4601279000053,,,,504.44344020000426,j,504.4434842000046,,,504.44349520000105,None,,,1.2178109000014956,0.17818860000261338,,,,,,,,,,00003,001,2025-11-08_22h19.46.477,MST_task,2024.2.2,59.972316778977444,2025-11-08 22h19.54.924977 +0530,
,Objects\055a.jpg,98,0,98,,,,,,,j,None,,,2.6173857000030694,0.18231099999684375,,,,,98,0,98,0,504.46003180000116,,,,,,,,,,,,,,,,,,,,,,,504.44358510000166,504.46003180000116,504.9603010999999,504.9435452000034,,,,,,,,,,,,,,,,,,,,,,,,,,504.9535856000002,504.9603010999999,504.9603010999999,504.9603010999999,507.9599928000025,507.9599928000025,507.9599928000025,507.9435556000026,j,507.9435960000046,,,507.94360480000614,None,,,2.6173857000030694,0.18231099999684375,,,,,,,,,,00003,001,2025-11-08_22h19.46.477,MST_task,2024.2.2,59.972316778977444,2025-11-08 22h19.54.924977 +0530,
,Objects\150a.jpg,99,0,99,,,,,,,f,None,,,2.6701243999996223,0.217300600001181,,,,,99,0,99,0,507.9599928000025,,,,,,,,,,,,,,,,,,,,,,,507.94365590000234,507.9599928000025,508.4600170000049,508.4434476000024,,,,,,,,,,,,,,,,,,,,,,,,,,508.4534144000063,508.4600170000049,508.4600170000049,508.4600170000049,511.45988910000597,511.45988910000597,511.45988910000597,511.4434706000029,f,511.443523300004,,,511.44353319999937,None,,,2.6701243999996223,0.217300600001181,,,,,,,,,,00003,001,2025-11-08_22h19.46.477,MST_task,2024.2.2,59.972316778977444,2025-11-08 22h19.54.924977 +0530,
,Objects\106a.jpg,100,0,100,,,,,,,f,None,,,2.3637333000006038,0.17003370000020368,,,,,100,0,100,0,511.45988910000597,,,,,,,,,,,,,,,,,,,,,,,511.44359310000436,511.45988910000597,511.9598948999992,511.9433726000061,,,,,,,,,,,,,,,,,,,,,,,,,,511.95301350000227,511.9598948999992,511.9598948999992,511.9598948999992,514.9598115000044,514.9598115000044,514.9598115000044,514.9433449999997,f,514.9433882000012,,,514.9433974000058,None,,,2.3637333000006038,0.17003370000020368,,,,,,,,,,00003,001,2025-11-08_22h19.46.477,MST_task,2024.2.2,59.972316778977444,2025-11-08 22h19.54.924977 +0530,
,Objects\167a.jpg,101,0,101,,,,,,,f,None,,,1.3844452999983332,0.1990423000024748,,,,,101,0,101,0,514.9598115000044,,,,,,,,,,,,,,,,,,,,,,,514.943469100006,514.9598115000044,515.4931080000024,515.4433869999993,,,,,,,,,,,,,,,,,,,,,,,,,,515.4743174000032,515.4931080000024,515.4931080000024,515.4931080000024,,,,518.4598450000049,f,518.4598913000009,,,518.4599019000016,None,,,1.3844452999983332,0.1990423000024748,,,,,,,,,,00003,001,2025-11-08_22h19.46.477,MST_task,2024.2.2,59.972316778977444,2025-11-08 22h19.54.924977 +0530,
,Objects\178a.jpg,102,0,102,,,,,,,f,None,,,0.981681800003571,0.20210569999471772,,,,,102,0,102,0,518.4764368000033,,,,,,,,,,,,,,,,,,,,,,,518.4599593000021,518.4764368000033,518.9764200000063,518.9598564000044,,,,,,,,,,,,,,,,,,,,,,,,,,518.9702302000005,518.9764200000063,518.9764200000063,518.9764200000063,521.9763250000033,521.9763250000033,521.9763250000033,521.9598815999998,f,521.9599281000046,,,521.9599391000011,None,,,0.981681800003571,0.20210569999471772,,,,,,,,,,00003,001,2025-11-08_22h19.46.477,MST_task,2024.2.2,59.972316778977444,2025-11-08 22h19.54.924977 +0530,
,Objects\063a.jpg,103,0,103,,,,,,,f,None,,,0.9134808000017074,0.1740384999939124,,,,,103,0,103,0,521.9763250000033,,,,,,,,,,,,,,,,,,,,,,,521.9599923999995,521.9763250000033,522.4763196000058,522.4598030000052,,,,,,,,,,,,,,,,,,,,,,,,,,522.4697289000032,522.4763196000058,522.4763196000058,522.4763196000058,525.4762413999997,525.4762413999997,525.4762413999997,525.4597938000006,f,525.4598402000047,,,525.4598496000035,None,,,0.9134808000017074,0.1740384999939124,,,,,,,,,,00003,001,2025-11-08_22h19.46.477,MST_task,2024.2.2,59.972316778977444,2025-11-08 22h19.54.924977 +0530,
,Objects\064a.jpg,104,0,104,,,,,,,j,None,,,1.7298536999951466,0.2056120000052033,,,,,104,0,104,0,525.4762413999997,,,,,,,,,,,,,,,,,,,,,,,525.459932400001,525.4762413999997,525.9762405000001,525.9596879000019,,,,,,,,,,,,,,,,,,,,,,,,,,525.9696048000042,525.9762405000001,525.9762405000001,525.9762405000001,528.9761717000001,528.9761717000001,528.9761717000001,528.9597781000048,j,528.9598229000039,,,528.9598330000008,None,,,1.7298536999951466,0.2056120000052033,,,,,,,,,,00003,001,2025-11-08_22h19.46.477,MST_task,2024.2.2,59.972316778977444,2025-11-08 22h19.54.924977 +0530,
,Scenes\091a.jpg,105,0,105,,,,,,,j,None,,,1.510536100002355,0.16836299999704352,,,,,105,0,105,0,528.9761717000001,,,,,,,,,,,,,,,,,,,,,,,528.9599073999998,528.9761717000001,529.4928566000017,529.4596319000048,,,,,,,,,,,,,,,,,,,,,,,,,,529.4714392000024,529.4928566000017,529.4928566000017,529.4928566000017,,,,532.4761089000021,j,532.476152400006,,,532.4761633000016,None,,,1.510536100002355,0.16836299999704352,,,,,,,,,,00003,001,2025-11-08_22h19.46.477,MST_task,2024.2.2,59.972316778977444,2025-11-08 22h19.54.924977 +0530,
,Scenes\175a.jpg,106,0,106,,,,,,,j,None,,,1.305351700000756,0.1459160000013071,,,,,106,0,106,0,532.4928400000063,,,,,,,,,,,,,,,,,,,,,,,532.4762383000052,532.4928400000063,532.9924733000007,532.9763443000047,,,,,,,,,,,,,,,,,,,,,,,,,,532.9853756000011,532.9924733000007,532.9924733000007,532.9924733000007,535.9926792000042,535.9926792000042,535.9926792000042,535.9762545000049,j,535.9762960000007,,,535.9763060000041,None,,,1.305351700000756,0.1459160000013071,,,,,,,,,,00003,001,2025-11-08_22h19.46.477,MST_task,2024.2.2,59.972316778977444,2025-11-08 22h19.54.924977 +0530,
,Scenes\022a.jpg,107,0,107,,,,,,,j,None,,,1.178425399994012,0.15785150000010617,,,,,107,0,107,0,535.9926792000042,,,,,,,,,,,,,,,,,,,,,,,535.9763648000007,535.9926792000042,536.4929718000058,536.476116400001,,,,,,,,,,,,,,,,,,,,,,,,,,536.482692000005,536.4929718000058,536.4929718000058,536.4929718000058,539.4926020999992,539.4926020999992,539.4926020999992,539.4761466000054,j,539.4761911000023,,,539.4762005000011,None,,,1.178425399994012,0.15785150000010617,,,,,,,,,,00003,001,2025-11-08_22h19.46.477,MST_task,2024.2.2,59.972316778977444,2025-11-08 22h19.54.924977 +0530,
,Scenes\112a.jpg,108,0,108,,,,,,,j,None,,,2.03605239999888,0.18658989999676123,,,,,108,0,108,0,539.4926020999992,,,,,,,,,,,,,,,,,,,,,,,539.4762747000059,539.4926020999992,540.0095975000004,539.9761605000022,,,,,,,,,,,,,,,,,,,,,,,,,,539.9896277000007,540.0095975000004,540.0095975000004,540.0095975000004,,,,542.9925498000011,j,542.9925959000029,,,542.9926068999994,None,,,2.03605239999888,0.18658989999676123,,,,,,,,,,00003,001,2025-11-08_22h19.46.477,MST_task,2024.2.2,59.972316778977444,2025-11-08 22h19.54.924977 +0530,
,Scenes\123a.jpg,109,0,109,,,,,,,j,None,,,0.975123900003382,0.18583639999997104,,,,,109,0,109,0,543.0091945000022,,,,,,,,,,,,,,,,,,,,,,,542.9926646000022,543.0091945000022,543.5089086000007,543.492674400004,,,,,,,,,,,,,,,,,,,,,,,,,,543.5030881000057,543.5089086000007,543.5089086000007,543.5089086000007,546.5091222000046,546.5091222000046,546.5091222000046,546.4927094000013,j,546.4927545000028,,,546.4927643000046,None,,,0.975123900003382,0.18583639999997104,,,,,,,,,,00003,001,2025-11-08_22h19.46.477,MST_task,2024.2.2,59.972316778977444,2025-11-08 22h19.54.924977 +0530,
,Scenes\187a.jpg,110,0,110,,,,,,,j,None,,,0.6583727999968687,0.19015370000124676,,,,,110,0,110,0,546.5091222000046,,,,,,,,,,,,,,,,,,,,,,,546.4928390000059,546.5091222000046,547.025942100001,546.9925581999996,,,,,,,,,,,,,,,,,,,,,,,,,,547.0053771000021,547.025942100001,547.025942100001,547.025942100001,,,,550.0092076000001,j,550.0092713000049,,,550.0092827000044,None,,,0.6583727999968687,0.19015370000124676,,,,,,,,,,00003,001,2025-11-08_22h19.46.477,MST_task,2024.2.2,59.972316778977444,2025-11-08 22h19.54.924977 +0530,
,Scenes\074a.jpg,111,0,111,,,,,,,j,None,,,1.0515709000028437,0.19854440000199247,,,,,111,0,111,0,550.0257117000001,,,,,,,,,,,,,,,,,,,,,,,550.0093517000059,550.0257117000001,550.5423566000027,550.5091845000061,,,,,,,,,,,,,,,,,,,,,,,,,,550.5225349000029,550.5423566000027,550.5423566000027,550.5423566000027,,,,553.5257725000047,j,553.5258209000021,,,553.5258316000036,None,,,1.0515709000028437,0.19854440000199247,,,,,,,,,,00003,001,2025-11-08_22h19.46.477,MST_task,2024.2.2,59.972316778977444,2025-11-08 22h19.54.924977 +0530,
,Objects\120a.jpg,112,0,112,,,,,,,f,None,,,1.9073921000017435,0.1981043999985559,,,,,112,0,112,0,553.5423286000005,,,,,,,,,,,,,,,,,,,,,,,553.5259147000033,553.5423286000005,554.0424857000035,554.0257837000026,,,,,,,,,,,,,,,,,,,,,,,,,,554.0363004000028,554.0424857000035,554.0424857000035,554.0424857000035,557.0422155000051,557.0422155000051,557.0422155000051,557.0258109999995,f,557.025855800006,,,557.025865100004,None,,,1.9073921000017435,0.1981043999985559,,,,,,,,,,00003,001,2025-11-08_22h19.46.477,MST_task,2024.2.2,59.972316778977444,2025-11-08 22h19.54.924977 +0530,
,Objects\013a.jpg,113,0,113,,,,,,,None,f,0.19737899999745423,None,,,,,,,113,0,113,0,557.0422155000051,,,,,,,,,,,,,,,,,,,,,,,557.025921600005,557.0422155000051,557.5422197000007,557.5256943000059,,,,,,,,,,,,,,,,,,,,,,,,,,557.5355679000058,557.5422197000007,557.5422197000007,557.5422197000007,560.5421703000029,560.5421703000029,560.5421703000029,560.5257378000024,None,560.5257803000059,560.5421703000029,560.5421703000029,560.7424103000012,f,0.19737899999745423,None,,,,,,,,,,,,00003,001,2025-11-08_22h19.46.477,MST_task,2024.2.2,59.972316778977444,2025-11-08 22h19.54.924977 +0530,
,Objects\134a.jpg,114,0,114,,,,,,,f,None,,,0.8500596000012592,0.1751524999999674,,,,,114,0,114,0,560.7588067000033,,,,,,,,,,,,,,,,,,,,,,,560.7424757000044,560.7588067000033,561.2587590000039,561.2424027000015,,,,,,,,,,,,,,,,,,,,,,,,,,561.2524790000025,561.2587590000039,561.2587590000039,561.2587590000039,564.2587284000037,564.2587284000037,564.2587284000037,564.2423555000059,f,564.2423976000064,,,564.2424068000037,None,,,0.8500596000012592,0.1751524999999674,,,,,,,,,,00003,001,2025-11-08_22h19.46.477,MST_task,2024.2.2,59.972316778977444,2025-11-08 22h19.54.924977 +0530,
,Objects\140a.jpg,115,0,115,,,,,,,f,None,,,1.7895778000020073,0.16920440000103554,,,,,115,0,115,0,564.2587284000037,,,,,,,,,,,,,,,,,,,,,,,564.2424753000014,564.2587284000037,564.7587381000048,564.7424201000031,,,,,,,,,,,,,,,,,,,,,,,,,,564.752383900006,564.7587381000048,564.7587381000048,564.7587381000048,567.7586570000058,567.7586570000058,567.7586570000058,567.742244400004,f,567.742284800006,,,567.7422938000018,None,,,1.7895778000020073,0.16920440000103554,,,,,,,,,,00003,001,2025-11-08_22h19.46.477,MST_task,2024.2.2,59.972316778977444,2025-11-08 22h19.54.924977 +0530,
,Objects\114a.jpg,116,0,116,,,,,,,f,None,,,0.9530798999985564,0.2718055000004824,,,,,116,0,116,0,567.7586570000058,,,,,,,,,,,,,,,,,,,,,,,567.7423460999998,567.7586570000058,568.2586426000053,568.2422599000056,,,,,,,,,,,,,,,,,,,,,,,,,,568.2521999000019,568.2586426000053,568.2586426000053,568.2586426000053,571.258573900006,571.258573900006,571.258573900006,571.2421581000017,f,571.2422004000036,,,571.2422096000009,None,,,0.9530798999985564,0.2718055000004824,,,,,,,,,,00003,001,2025-11-08_22h19.46.477,MST_task,2024.2.2,59.972316778977444,2025-11-08 22h19.54.924977 +0530,
,Objects\035a.jpg,117,0,117,,,,,,,j,None,,,1.3551527000017813,0.21813470000051893,,,,,117,0,117,0,571.258573900006,,,,,,,,,,,,,,,,,,,,,,,571.242264600005,571.258573900006,571.7585575000048,571.7420504000038,,,,,,,,,,,,,,,,,,,,,,,,,,571.7519952000002,571.7585575000048,571.7585575000048,571.7585575000048,574.7584892000013,574.7584892000013,574.7584892000013,574.7420284000036,j,574.742069800006,,,574.7420794000063,None,,,1.3551527000017813,0.21813470000051893,,,,,,,,,,00003,001,2025-11-08_22h19.46.477,MST_task,2024.2.2,59.972316778977444,2025-11-08 22h19.54.924977 +0530,
,Objects\081a.jpg,118,0,118,,,,,,,f,None,,,2.597537800000282,0.2939000999976997,,,,,118,0,118,0,574.7584892000013,,,,,,,,,,,,,,,,,,,,,,,574.7421332000013,574.7584892000013,575.2584984000059,575.2420391000051,,,,,,,,,,,,,,,,,,,,,,,,,,575.2517475999994,575.2584984000059,575.2584984000059,575.2584984000059,578.258448200002,578.258448200002,578.258448200002,578.2419784000012,f,578.2420216000028,,,578.2420334000053,None,,,2.597537800000282,0.2939000999976997,,,,,,,,,,00003,001,2025-11-08_22h19.46.477,MST_task,2024.2.2,59.972316778977444,2025-11-08 22h19.54.924977 +0530,
,Scenes\067a.jpg,119,0,119,,,,,,,j,None,,,1.730658599997696,0.20622390000062296,,,,,119,0,119,0,578.258448200002,,,,,,,,,,,,,,,,,,,,,,,578.2420880000063,578.258448200002,578.7750736000016,578.7418894000002,,,,,,,,,,,,,,,,,,,,,,,,,,578.7531930000041,578.7750736000016,578.7750736000016,578.7750736000016,,,,581.7584557000009,j,581.7585034000003,,,581.7585143000033,None,,,1.730658599997696,0.20622390000062296,,,,,,,,,,00003,001,2025-11-08_22h19.46.477,MST_task,2024.2.2,59.972316778977444,2025-11-08 22h19.54.924977 +0530,
,Scenes\010a.jpg,120,0,120,,,,,,,f,None,,,2.240689000005659,0.28589699999429286,,,,,120,0,120,0,581.7750089000037,,,,,,,,,,,,,,,,,,,,,,,581.7585957000047,581.7750089000037,582.2916679000045,582.2586487000008,,,,,,,,,,,,,,,,,,,,,,,,,,582.2715804000036,582.2916679000045,582.2916679000045,582.2916679000045,,,,585.2750082999992,f,585.2750538000037,,,585.2750646999993,None,,,2.240689000005659,0.28589699999429286,,,,,,,,,,00003,001,2025-11-08_22h19.46.477,MST_task,2024.2.2,59.972316778977444,2025-11-08 22h19.54.924977 +0530,
,Scenes\004a.jpg,121,0,121,,,,,,,j,None,,,1.567661200002476,0.2622222999998485,,,,,121,0,121,0,585.2916736000043,,,,,,,,,,,,,,,,,,,,,,,585.2751578000025,585.2916736000043,585.8082582000061,585.7750889000017,,,,,,,,,,,,,,,,,,,,,,,,,,585.7885030000034,585.8082582000061,585.8082582000061,585.8082582000061,,,,588.7915700000012,j,588.7916345000049,,,588.7916494000019,None,,,1.567661200002476,0.2622222999998485,,,,,,,,,,00003,001,2025-11-08_22h19.46.477,MST_task,2024.2.2,59.972316778977444,2025-11-08 22h19.54.924977 +0530,
,Scenes\163a.jpg,122,0,122,,,,,,,j,None,,,1.187754099999438,0.2267446000041673,,,,,122,0,122,0,588.8081940000047,,,,,,,,,,,,,,,,,,,,,,,588.7917362000007,588.8081940000047,589.3081401000018,589.2916669000042,,,,,,,,,,,,,,,,,,,,,,,,,,589.3002486000041,589.3081401000018,589.3081401000018,589.3081401000018,592.3081152000013,592.3081152000013,592.3081152000013,592.2917207000064,j,592.2917629000003,,,592.2917720000041,None,,,1.187754099999438,0.2267446000041673,,,,,,,,,,00003,001,2025-11-08_22h19.46.477,MST_task,2024.2.2,59.972316778977444,2025-11-08 22h19.54.924977 +0530,
,Scenes\115a.jpg,123,0,123,,,,,,,j,None,,,1.3575906999976723,0.1817540000047302,,,,,123,0,123,0,592.3081152000013,,,,,,,,,,,,,,,,,,,,,,,592.2918426000033,592.3081152000013,592.8247716000042,592.7917174000031,,,,,,,,,,,,,,,,,,,,,,,,,,592.8038220000017,592.8247716000042,592.8247716000042,592.8247716000042,,,,595.8082009999998,j,595.8082508000007,,,595.808262700004,None,,,1.3575906999976723,0.1817540000047302,,,,,,,,,,00003,001,2025-11-08_22h19.46.477,MST_task,2024.2.2,59.972316778977444,2025-11-08 22h19.54.924977 +0530,
,Scenes\049a.jpg,124,0,124,,,,,,,j,None,,,2.113397500004794,0.17710499999520835,,,,,124,0,124,0,595.8247900999995,,,,,,,,,,,,,,,,,,,,,,,595.8083262,595.8247900999995,596.3414768000002,596.3082458999997,,,,,,,,,,,,,,,,,,,,,,,,,,596.3194642000017,596.3414768000002,596.3414768000002,596.3414768000002,,,,599.324669900001,j,599.324715200004,,,599.3247254000016,None,,,2.113397500004794,0.17710499999520835,,,,,,,,,,00003,001,2025-11-08_22h19.46.477,MST_task,2024.2.2,59.972316778977444,2025-11-08 22h19.54.924977 +0530,
,Scenes\002a.jpg,125,0,125,,,,,,,None,j,0.1641421000022092,None,,,,,,,125,0,125,0,599.3412936000022,,,,,,,,,,,,,,,,,,,,,,,599.3248017000005,599.3412936000022,,599.8247733000026,,,,,,,,,,,,,,,,,,,,,,,,,,599.8395674999992,599.8582524000012,599.8582524000012,599.8582524000012,,,,602.8412630000021,None,602.8413040000014,602.8578714000032,602.8578714000032,603.0247969000047,j,0.1641421000022092,None,,,,,,,,,,,,00003,001,2025-11-08_22h19.46.477,MST_task,2024.2.2,59.972316778977444,2025-11-08 22h19.54.924977 +0530,
,Objects\144a.jpg,126,0,126,,,,,,,f,None,,,1.9141800999932457,0.2147596000068006,,,,,126,0,126,0,603.0412098000015,,,,,,,,,,,,,,,,,,,,,,,603.024897000003,603.0412098000015,603.5414218000005,603.5248044000036,,,,,,,,,,,,,,,,,,,,,,,,,,603.5357819000055,603.5414218000005,603.5414218000005,603.5414218000005,606.5411743000004,606.5411743000004,606.5411743000004,606.5247380000001,f,606.5247811000008,,,606.5247911000042,None,,,1.9141800999932457,0.2147596000068006,,,,,,,,,,00003,001,2025-11-08_22h19.46.477,MST_task,2024.2.2,59.972316778977444,2025-11-08 22h19.54.924977 +0530,
,Objects\044a.jpg,127,0,127,,,,,,,f,None,,,2.276987700002792,0.26749890000064624,,,,,127,0,127,0,606.5411743000004,,,,,,,,,,,,,,,,,,,,,,,606.5248624000014,606.5411743000004,607.0410769000009,607.0245952000041,,,,,,,,,,,,,,,,,,,,,,,,,,607.0344800000021,607.0410769000009,607.0410769000009,607.0410769000009,610.0410584000056,610.0410584000056,610.0410584000056,610.0247243000049,f,610.0247684999995,,,610.024777700004,None,,,2.276987700002792,0.26749890000064624,,,,,,,,,,00003,001,2025-11-08_22h19.46.477,MST_task,2024.2.2,59.972316778977444,2025-11-08 22h19.54.924977 +0530,
,Objects\065a.jpg,128,0,128,,,,,,,f,None,,,1.4091695000024629,0.20170119999966118,,,,,128,0,128,0,610.0410584000056,,,,,,,,,,,,,,,,,,,,,,,610.0248336000004,610.0410584000056,610.5410164000059,610.5246437000023,,,,,,,,,,,,,,,,,,,,,,,,,,610.5345058000021,610.5410164000059,610.5410164000059,610.5410164000059,613.5409727000006,613.5409727000006,613.5409727000006,613.5245790000045,f,613.5246251999997,,,613.5246348000001,None,,,1.4091695000024629,0.20170119999966118,,,,,,,,,,00003,001,2025-11-08_22h19.46.477,MST_task,2024.2.2,59.972316778977444,2025-11-08 22h19.54.924977 +0530,
,Objects\097a.jpg,129,0,129,,,,,,,j,None,,,2.4394323000014992,0.20617739999579499,,,,,129,0,129,0,613.5409727000006,,,,,,,,,,,,,,,,,,,,,,,613.5247122000001,613.5409727000006,614.0409338000027,614.0245895000044,,,,,,,,,,,,,,,,,,,,,,,,,,614.0343008000054,614.0409338000027,614.0409338000027,614.0409338000027,617.0409031000017,617.0409031000017,617.0409031000017,617.0244822000022,j,617.0245255000045,,,617.0245347000018,None,,,2.4394323000014992,0.20617739999579499,,,,,,,,,,00003,001,2025-11-08_22h19.46.477,MST_task,2024.2.2,59.972316778977444,2025-11-08 22h19.54.924977 +0530,
,Objects\163a.jpg,130,0,130,,,,,,,f,None,,,0.9469632000036654,0.19391669999458827,,,,,130,0,130,0,617.0409031000017,,,,,,,,,,,,,,,,,,,,,,,617.0245896000051,617.0409031000017,617.5409062000035,617.5244497000022,,,,,,,,,,,,,,,,,,,,,,,,,,617.5343328000017,617.5409062000035,617.5409062000035,617.5409062000035,620.5408341000002,620.5408341000002,620.5408341000002,620.5244688000021,f,620.5245170000053,,,620.5245269000006,None,,,0.9469632000036654,0.19391669999458827,,,,,,,,,,00003,001,2025-11-08_22h19.46.477,MST_task,2024.2.2,59.972316778977444,2025-11-08 22h19.54.924977 +0530,
,Objects\192a.jpg,131,0,131,,,,,,,j,None,,,2.587329800000589,0.21779999999853317,,,,,131,0,131,0,620.5408341000002,,,,,,,,,,,,,,,,,,,,,,,620.5245804000006,620.5408341000002,621.0408476000011,621.0244263000059,,,,,,,,,,,,,,,,,,,,,,,,,,621.0345237000001,621.0408476000011,621.0408476000011,621.0408476000011,624.0407504000032,624.0407504000032,624.0407504000032,624.0243296000044,j,624.0243706000037,,,624.0243797000003,None,,,2.587329800000589,0.21779999999853317,,,,,,,,,,00003,001,2025-11-08_22h19.46.477,MST_task,2024.2.2,59.972316778977444,2025-11-08 22h19.54.924977 +0530,
,Objects\066a.jpg,132,0,132,,,,,,,f,None,,,2.3428242999943905,0.19900030000280822,,,,,132,0,132,0,624.0407504000032,,,,,,,,,,,,,,,,,,,,,,,624.0244317000033,624.0407504000032,624.5407376000003,624.5243496000039,,,,,,,,,,,,,,,,,,,,,,,,,,624.534591100004,624.5407376000003,624.5407376000003,624.5407376000003,627.5406749000031,627.5406749000031,627.5406749000031,627.5243820000032,f,627.5244295000011,,,627.5244407999999,None,,,2.3428242999943905,0.19900030000280822,,,,,,,,,,00003,001,2025-11-08_22h19.46.477,MST_task,2024.2.2,59.972316778977444,2025-11-08 22h19.54.924977 +0530,
,Scenes\169a.jpg,133,0,133,,,,,,,j,None,,,0.677557800001523,0.22823950000019977,,,,,133,0,133,0,627.5406749000031,,,,,,,,,,,,,,,,,,,,,,,627.5245009999999,627.5406749000031,628.0403993,628.0241397000063,,,,,,,,,,,,,,,,,,,,,,,,,,628.0336616999994,628.0403993,628.0403993,628.0403993,631.0405849000017,631.0405849000017,631.0405849000017,631.0241317000036,j,631.024175700004,,,631.0241858000009,None,,,0.677557800001523,0.22823950000019977,,,,,,,,,,00003,001,2025-11-08_22h19.46.477,MST_task,2024.2.2,59.972316778977444,2025-11-08 22h19.54.924977 +0530,
,Scenes\047a.jpg,134,0,134,,,,,,,j,None,,,1.7831084999997984,0.20898640000086743,,,,,134,0,134,0,631.0405849000017,,,,,,,,,,,,,,,,,,,,,,,631.024242200001,631.0405849000017,631.5574654000011,631.5241306000025,,,,,,,,,,,,,,,,,,,,,,,,,,631.5377798000045,631.5574654000011,631.5574654000011,631.5574654000011,,,,634.5405871000039,j,634.540630800002,,,634.5406417000049,None,,,1.7831084999997984,0.20898640000086743,,,,,,,,,,00003,001,2025-11-08_22h19.46.477,MST_task,2024.2.2,59.972316778977444,2025-11-08 22h19.54.924977 +0530,
,Scenes\093a.jpg,135,0,135,,,,,,,f,None,,,2.0380720000030124,0.1937534999960917,,,,,135,0,135,0,634.5571830000044,,,,,,,,,,,,,,,,,,,,,,,634.5407406000013,634.5571830000044,635.0738549000016,635.040797900001,,,,,,,,,,,,,,,,,,,,,,,,,,635.0528658000039,635.0738549000016,635.0738549000016,635.0738549000016,,,,638.0572143000027,f,638.0572572000019,,,638.0572675000003,None,,,2.0380720000030124,0.1937534999960917,,,,,,,,,,00003,001,2025-11-08_22h19.46.477,MST_task,2024.2.2,59.972316778977444,2025-11-08 22h19.54.924977 +0530,
,Scenes\096a.jpg,136,0,136,,,,,,,j,None,,,2.5756151999958092,0.21358290000353009,,,,,136,0,136,0,638.0738406000019,,,,,,,,,,,,,,,,,,,,,,,638.0573669000005,638.0738406000019,638.5906069000048,638.5572147000057,,,,,,,,,,,,,,,,,,,,,,,,,,638.570618400001,638.5906069000048,638.5906069000048,638.5906069000048,,,,641.5737615000035,j,641.5738038000054,,,641.5738146000003,None,,,2.5756151999958092,0.21358290000353009,,,,,,,,,,00003,001,2025-11-08_22h19.46.477,MST_task,2024.2.2,59.972316778977444,2025-11-08 22h19.54.924977 +0530,
,Scenes\001a.jpg,137,0,137,,,,,,,f,None,,,2.3944131000025664,0.19988549999834504,,,,,137,0,137,0,641.5903719000053,,,,,,,,,,,,,,,,,,,,,,,641.5739169000008,641.5903719000053,642.107204400003,642.073790800001,,,,,,,,,,,,,,,,,,,,,,,,,,642.0910403000016,642.107204400003,642.107204400003,642.107204400003,,,,645.0904373000012,f,645.0904845000041,,,645.0904952000055,None,,,2.3944131000025664,0.19988549999834504,,,,,,,,,,00003,001,2025-11-08_22h19.46.477,MST_task,2024.2.2,59.972316778977444,2025-11-08 22h19.54.924977 +0530,
,Scenes\111a.jpg,138,0,138,,,,,,,j,None,,,2.5711195999974734,0.22272950000478886,,,,,138,0,138,0,645.1069459999999,,,,,,,,,,,,,,,,,,,,,,,645.0905781000038,645.1069459999999,645.640516200001,645.5904290000035,,,,,,,,,,,,,,,,,,,,,,,,,,645.6215282000048,645.640516200001,645.640516200001,645.640516200001,,,,648.6069372000056,j,648.6069779000027,,,648.6069877000045,None,,,2.5711195999974734,0.22272950000478886,,,,,,,,,,00003,001,2025-11-08_22h19.46.477,MST_task,2024.2.2,59.972316778977444,2025-11-08 22h19.54.924977 +0530,
,Scenes\019a.jpg,139,0,139,,,,,,,f,None,,,1.6718336999983876,0.20200050000130432,,,,,139,0,139,0,648.6235385000036,,,,,,,,,,,,,,,,,,,,,,,648.607042100004,648.6235385000036,649.1402027000004,649.1070751000007,,,,,,,,,,,,,,,,,,,,,,,,,,649.1203138000055,649.1402027000004,649.1402027000004,649.1402027000004,,,,652.1235161000004,f,652.1235671000031,,,652.1235772,None,,,1.6718336999983876,0.20200050000130432,,,,,,,,,,00003,001,2025-11-08_22h19.46.477,MST_task,2024.2.2,59.972316778977444,2025-11-08 22h19.54.924977 +0530,
,Objects\011a.jpg,140,0,140,,,,,,,f,None,,,1.231198499997845,0.2024292999994941,,,,,140,0,140,0,652.1401511000004,,,,,,,,,,,,,,,,,,,,,,,652.1236424000017,652.1401511000004,652.640340900005,652.6235962999999,,,,,,,,,,,,,,,,,,,,,,,,,,652.6349352000034,652.640340900005,652.640340900005,652.640340900005,655.6400573999999,655.6400573999999,655.6400573999999,655.6237946000037,f,655.6238412000021,,,655.6238509000032,None,,,1.231198499997845,0.2024292999994941,,,,,,,,,,00003,001,2025-11-08_22h19.46.477,MST_task,2024.2.2,59.972316778977444,2025-11-08 22h19.54.924977 +0530,
,Objects\148a.jpg,141,0,141,,,,,,,f,None,,,1.5389770999972825,0.2231967000043369,,,,,141,0,141,0,655.6400573999999,,,,,,,,,,,,,,,,,,,,,,,655.6239066000053,655.6400573999999,656.1734364000004,656.1236411999998,,,,,,,,,,,,,,,,,,,,,,,,,,656.156885700002,656.1734364000004,656.1734364000004,656.1734364000004,,,,659.1400041000015,f,659.1400512000037,,,659.1400614000013,None,,,1.5389770999972825,0.2231967000043369,,,,,,,,,,00003,001,2025-11-08_22h19.46.477,MST_task,2024.2.2,59.972316778977444,2025-11-08 22h19.54.924977 +0530,
,Objects\138a.jpg,142,0,142,,,,,,,None,f,0.5464530999961426,None,,,,,,,142,0,142,0,659.1566063000064,,,,,,,,,,,,,,,,,,,,,,,659.1401209000032,659.1566063000064,659.6565962000022,659.6401343000034,,,,,,,,,,,,,,,,,,,,,,,,,,659.6500382000013,659.6565962000022,659.6565962000022,659.6565962000022,662.6565912000005,662.6565912000005,662.6565912000005,662.6401435000007,None,662.6401815000063,662.6565912000005,662.6565912000005,663.2069052000006,f,0.5464530999961426,None,,,,,,,,,,,,00003,001,2025-11-08_22h19.46.477,MST_task,2024.2.2,59.972316778977444,2025-11-08 22h19.54.924977 +0530,
,Objects\046a.jpg,143,0,143,,,,,,,f,None,,,0.7591897000020253,0.16753820000303676,,,,,143,0,143,0,663.2232666000054,,,,,,,,,,,,,,,,,,,,,,,663.2070095000017,663.2232666000054,663.7231971000001,663.7066779000015,,,,,,,,,,,,,,,,,,,,,,,,,,663.7161555000057,663.7231971000001,663.7231971000001,663.7231971000001,666.7231552000012,666.7231552000012,666.7231552000012,666.7068063000042,f,666.7068515999999,,,666.7068618000048,None,,,0.7591897000020253,0.16753820000303676,,,,,,,,,,00003,001,2025-11-08_22h19.46.477,MST_task,2024.2.2,59.972316778977444,2025-11-08 22h19.54.924977 +0530,
,Objects\014a.jpg,144,0,144,,,,,,,f,None,,,2.036863599998469,0.18216470000334084,,,,,144,0,144,0,666.7231552000012,,,,,,,,,,,,,,,,,,,,,,,666.7069183999993,666.7231552000012,667.2231511999998,667.2066004000008,,,,,,,,,,,,,,,,,,,,,,,,,,667.2166905000049,667.2231511999998,667.2231511999998,667.2231511999998,670.2230714000034,670.2230714000034,670.2230714000034,670.2066535000049,f,670.2066959000003,,,670.2067052999992,None,,,2.036863599998469,0.18216470000334084,,,,,,,,,,00003,001,2025-11-08_22h19.46.477,MST_task,2024.2.2,59.972316778977444,2025-11-08 22h19.54.924977 +0530,
,Objects\122a.jpg,145,0,145,,,,,,,f,None,,,1.0826808999991044,0.21548410000104923,,,,,145,0,145,0,670.2230714000034,,,,,,,,,,,,,,,,,,,,,,,670.2067774000025,670.2230714000034,670.7230796000003,670.706637400006,,,,,,,,,,,,,,,,,,,,,,,,,,670.7166204000023,670.7230796000003,670.7230796000003,670.7230796000003,673.723009500005,673.723009500005,673.723009500005,673.7066521000015,f,673.7066960000011,,,673.706705800003,None,,,1.0826808999991044,0.21548410000104923,,,,,,,,,,00003,001,2025-11-08_22h19.46.477,MST_task,2024.2.2,59.972316778977444,2025-11-08 22h19.54.924977 +0530,
,Objects\177a.jpg,146,0,146,,,,,,,f,None,,,1.392704900004901,0.16233389999979408,,,,,146,0,146,0,673.723009500005,,,,,,,,,,,,,,,,,,,,,,,673.7067624000047,673.723009500005,674.2229745000004,674.2065418999991,,,,,,,,,,,,,,,,,,,,,,,,,,674.2161472000007,674.2229745000004,674.2229745000004,674.2229745000004,677.2229160000061,677.2229160000061,677.2229160000061,677.2064925000013,f,677.2065396000035,,,677.2065498000011,None,,,1.392704900004901,0.16233389999979408,,,,,,,,,,00003,001,2025-11-08_22h19.46.477,MST_task,2024.2.2,59.972316778977444,2025-11-08 22h19.54.924977 +0530,
,Scenes\088a.jpg,147,0,147,,,,,,,j,None,,,2.3605962000001455,0.21346340000309283,,,,,147,0,147,0,677.2229160000061,,,,,,,,,,,,,,,,,,,,,,,677.2066305000044,677.2229160000061,677.7398204000056,677.7064430000028,,,,,,,,,,,,,,,,,,,,,,,,,,677.7223778000043,677.7398204000056,677.7398204000056,677.7398204000056,,,,680.7228335000036,j,680.7228804000042,,,680.7228909000041,None,,,2.3605962000001455,0.21346340000309283,,,,,,,,,,00003,001,2025-11-08_22h19.46.477,MST_task,2024.2.2,59.972316778977444,2025-11-08 22h19.54.924977 +0530,
,Scenes\077a.jpg,148,0,148,,,,,,,f,None,,,2.567470800000592,0.20047920000070008,,,,,148,0,148,0,680.7395393000043,,,,,,,,,,,,,,,,,,,,,,,680.7229641000013,680.7395393000043,681.2563623000024,681.222910000004,,,,,,,,,,,,,,,,,,,,,,,,,,681.2346634999994,681.2563623000024,681.2563623000024,681.2563623000024,,,,684.2394686000043,f,684.239527100006,,,684.2395384000047,None,,,2.567470800000592,0.20047920000070008,,,,,,,,,,00003,001,2025-11-08_22h19.46.477,MST_task,2024.2.2,59.972316778977444,2025-11-08 22h19.54.924977 +0530,
,Scenes\023a.jpg,149,0,149,,,,,,,None,f,0.08494880000216654,None,,,,,,,149,0,149,0,684.2561143999992,,,,,,,,,,,,,,,,,,,,,,,684.2396126000021,684.2561143999992,,684.7395742000008,,,,,,,,,,,,,,,,,,,,,,,,,,684.7566115000009,684.7729934000017,684.7729934000017,684.7729934000017,,,,687.7562209000025,None,687.756266700002,687.7727052000046,687.7727052000046,687.8729540999993,f,0.08494880000216654,None,,,,,,,,,,,,00003,001,2025-11-08_22h19.46.477,MST_task,2024.2.2,59.972316778977444,2025-11-08 22h19.54.924977 +0530,
,Scenes\106a.jpg,150,0,150,,,,,,,j,None,,,1.974920500004373,0.19015650000073947,,,,,150,0,150,0,687.8893519000048,,,,,,,,,,,,,,,,,,,,,,,687.8730427000046,687.8893519000048,688.4059835000007,688.3728174999997,,,,,,,,,,,,,,,,,,,,,,,,,,688.3864169000008,688.4059835000007,688.4059835000007,688.4059835000007,,,,691.3893227000008,j,691.3893666000004,,,691.3893773000018,None,,,1.974920500004373,0.19015650000073947,,,,,,,,,,00003,001,2025-11-08_22h19.46.477,MST_task,2024.2.2,59.972316778977444,2025-11-08 22h19.54.924977 +0530,
,Scenes\160a.jpg,151,0,151,,,,,,,j,None,,,1.3177679000000353,0.1907238000057987,,,,,151,0,151,0,691.4059282000017,,,,,,,,,,,,,,,,,,,,,,,691.389468100002,691.4059282000017,691.9058989000041,691.8895539000005,,,,,,,,,,,,,,,,,,,,,,,,,,691.8990763000038,691.9058989000041,691.9058989000041,691.9058989000041,694.9058586000028,694.9058586000028,694.9058586000028,694.889430400006,j,694.8894702000034,,,694.8894793,None,,,1.3177679000000353,0.1907238000057987,,,,,,,,,,00003,001,2025-11-08_22h19.46.477,MST_task,2024.2.2,59.972316778977444,2025-11-08 22h19.54.924977 +0530,
,Scenes\159a.jpg,152,0,152,,,,,,,j,None,,,1.4317479000019375,0.17948799999430776,,,,,152,0,152,0,694.9058586000028,,,,,,,,,,,,,,,,,,,,,,,694.8895527999994,694.9058586000028,695.4224796000053,695.3893341000003,,,,,,,,,,,,,,,,,,,,,,,,,,695.4026213000034,695.4224796000053,695.4224796000053,695.4224796000053,,,,698.4059253000014,j,698.4059737000061,,,698.4059846000018,None,,,1.4317479000019375,0.17948799999430776,,,,,,,,,,00003,001,2025-11-08_22h19.46.477,MST_task,2024.2.2,59.972316778977444,2025-11-08 22h19.54.924977 +0530,
,Scenes\050a.jpg,153,0,153,,,,,,,j,None,,,0.5038437000039266,0.19426479999674484,,,,,153,0,153,0,698.4224121000007,,,,,,,,,,,,,,,,,,,,,,,698.4060680000039,698.4224121000007,698.9224093000012,698.9060039000033,,,,,,,,,,,,,,,,,,,,,,,,,,698.9153114000001,698.9224093000012,698.9224093000012,698.9224093000012,701.9223822000058,701.9223822000058,701.9223822000058,701.9060200000022,j,701.9060609000007,,,701.9060700000045,None,,,0.5038437000039266,0.19426479999674484,,,,,,,,,,00003,001,2025-11-08_22h19.46.477,MST_task,2024.2.2,59.972316778977444,2025-11-08 22h19.54.924977 +0530,
,Objects\058a.jpg,154,0,154,,,,,,,f,None,,,0.7851789000051212,0.17786029999842867,,,,,154,0,154,0,701.9223822000058,,,,,,,,,,,,,,,,,,,,,,,701.9061394000018,701.9223822000058,702.4225909000015,702.4059491000007,,,,,,,,,,,,,,,,,,,,,,,,,,702.4171791000044,702.4225909000015,702.4225909000015,702.4225909000015,705.4222985000015,705.4222985000015,705.4222985000015,705.4059878000044,f,705.4060336000039,,,705.4060436,None,,,0.7851789000051212,0.17786029999842867,,,,,,,,,,00003,001,2025-11-08_22h19.46.477,MST_task,2024.2.2,59.972316778977444,2025-11-08 22h19.54.924977 +0530,
,Objects\031a.jpg,155,0,155,,,,,,,f,None,,,1.084041599999182,0.22565039999608416,,,,,155,0,155,0,705.4222985000015,,,,,,,,,,,,,,,,,,,,,,,705.4061025000046,705.4222985000015,705.9221335000038,705.9058128000033,,,,,,,,,,,,,,,,,,,,,,,,,,705.9169208000021,705.9221335000038,705.9221335000038,705.9221335000038,708.9221890000044,708.9221890000044,708.9221890000044,708.905857100006,f,708.9059109000009,,,708.9059217000031,None,,,1.084041599999182,0.22565039999608416,,,,,,,,,,00003,001,2025-11-08_22h19.46.477,MST_task,2024.2.2,59.972316778977444,2025-11-08 22h19.54.924977 +0530,
,Objects\005a.jpg,156,0,156,,,,,,,None,f,0.6476342999958433,None,,,,,,,156,0,156,0,708.9221890000044,,,,,,,,,,,,,,,,,,,,,,,708.9060041000048,708.9221890000044,709.4221730999998,709.4056937000059,,,,,,,,,,,,,,,,,,,,,,,,,,709.4158449000024,709.4221730999998,709.4221730999998,709.4221730999998,712.4221132000021,712.4221132000021,712.4221132000021,712.4057393000039,None,712.4057839000016,712.4221132000021,712.4221132000021,713.0723967000013,f,0.6476342999958433,None,,,,,,,,,,,,00003,001,2025-11-08_22h19.46.477,MST_task,2024.2.2,59.972316778977444,2025-11-08 22h19.54.924977 +0530,
,Objects\094a.jpg,157,0,157,,,,,,,f,None,,,1.3672779999978957,0.22980980000284035,,,,,157,0,157,0,713.0887953000056,,,,,,,,,,,,,,,,,,,,,,,713.0724977999998,713.0887953000056,713.5888054000025,713.5723791000055,,,,,,,,,,,,,,,,,,,,,,,,,,713.5822999000011,713.5888054000025,713.5888054000025,713.5888054000025,716.5887180999998,716.5887180999998,716.5887180999998,716.5722872000042,f,716.5723381999996,,,716.5723491000026,None,,,1.3672779999978957,0.22980980000284035,,,,,,,,,,00003,001,2025-11-08_22h19.46.477,MST_task,2024.2.2,59.972316778977444,2025-11-08 22h19.54.924977 +0530,
,Objects\010a.jpg,158,0,158,,,,,,,f,None,,,0.736955799999123,0.22009609999804525,,,,,158,0,158,0,716.5887180999998,,,,,,,,,,,,,,,,,,,,,,,716.5724343000038,716.5887180999998,717.0887217000054,717.072193,,,,,,,,,,,,,,,,,,,,,,,,,,717.081832200005,717.0887217000054,717.0887217000054,717.0887217000054,720.0886470000041,720.0886470000041,720.0886470000041,720.0722706000015,f,720.0723154000007,,,720.0723253000033,None,,,0.736955799999123,0.22009609999804525,,,,,,,,,,00003,001,2025-11-08_22h19.46.477,MST_task,2024.2.2,59.972316778977444,2025-11-08 22h19.54.924977 +0530,
,Objects\141a.jpg,159,0,159,,,,,,,f,None,,,0.6954551000017091,0.14949670000351034,,,,,159,0,159,0,720.0886470000041,,,,,,,,,,,,,,,,,,,,,,,720.0723844000022,720.0886470000041,720.5886460000038,720.5721080000003,,,,,,,,,,,,,,,,,,,,,,,,,,720.5817889000027,720.5886460000038,720.5886460000038,720.5886460000038,723.5886857000005,723.5886857000005,723.5886857000005,723.572172500004,f,723.5722170000008,,,723.5722262000054,None,,,0.6954551000017091,0.14949670000351034,,,,,,,,,,00003,001,2025-11-08_22h19.46.477,MST_task,2024.2.2,59.972316778977444,2025-11-08 22h19.54.924977 +0530,
,Objects\145a.jpg,160,0,160,,,,,,,f,None,,,0.5385017000007792,0.2167401999977301,,,,,160,0,160,0,723.5886857000005,,,,,,,,,,,,,,,,,,,,,,,723.5722775000031,723.5886857000005,724.0886930000052,724.0720893000034,,,,,,,,,,,,,,,,,,,,,,,,,,724.0818340000042,724.0886930000052,724.0886930000052,724.0886930000052,727.0885008000041,727.0885008000041,727.0885008000041,727.0721131000028,f,727.0721654000008,,,727.0721764000045,None,,,0.5385017000007792,0.2167401999977301,,,,,,,,,,00003,001,2025-11-08_22h19.46.477,MST_task,2024.2.2,59.972316778977444,2025-11-08 22h19.54.924977 +0530,
,Scenes\024a.jpg,161,0,161,,,,,,,j,None,,,0.8463752999959979,0.22330990000045858,,,,,161,0,161,0,727.0885008000041,,,,,,,,,,,,,,,,,,,,,,,727.0722577000051,727.0885008000041,727.6051731000043,727.5719342000011,,,,,,,,,,,,,,,,,,,,,,,,,,727.5831509000054,727.6051731000043,727.6051731000043,727.6051731000043,,,,730.5885202000063,j,730.5885752000031,,,730.5885856000023,None,,,0.8463752999959979,0.22330990000045858,,,,,,,,,,00003,001,2025-11-08_22h19.46.477,MST_task,2024.2.2,59.972316778977444,2025-11-08 22h19.54.924977 +0530,
,Scenes\178a.jpg,162,0,162,,,,,,,j,None,,,0.8940662000022712,0.23089990000153193,,,,,162,0,162,0,730.6051991000058,,,,,,,,,,,,,,,,,,,,,,,730.5886623000042,730.6051991000058,731.1218461000026,731.0886918000033,,,,,,,,,,,,,,,,,,,,,,,,,,731.0992447000026,731.1218461000026,731.1218461000026,731.1218461000026,,,,734.1051001000014,j,734.1051432000022,,,734.1051590999996,None,,,0.8940662000022712,0.23089990000153193,,,,,,,,,,00003,001,2025-11-08_22h19.46.477,MST_task,2024.2.2,59.972316778977444,2025-11-08 22h19.54.924977 +0530,
