Sl_no,image_path,thisN,thisTrialN,thisRepN,key_resp_5.keys,key_resp_7.keys,key_resp_7.rt,key_resp_7.duration,key_resp_5.rt,key_resp_5.duration,key_resp_9.keys,key_resp_9.rt,key_resp_9.duration,key_resp_8.keys,key_resp_8.rt,key_resp_8.duration,practice.thisRepN,practice.thisTrialN,practice.thisN,practice.thisIndex,trials.thisRepN,trials.thisTrialN,trials.thisN,trials.thisIndex,thisRow.t,notes,welcome_page.started,text.started,key_resp.started,welcome_page.stopped,key_resp.keys,key_resp.rt,key_resp.duration,instructions.started,ins.started,key_resp_2.started,instructions.stopped,key_resp_2.keys,key_resp_2.rt,key_resp_2.duration,objects_only_instruction.started,text_3.started,key_resp_3.started,objects_only_instruction.stopped,key_resp_3.keys,key_resp_3.rt,key_resp_3.duration,ISI.started,text_4.started,text_4.stopped,ISI.stopped,practice_block.started,image.started,text_5.started,key_resp_5.started,image.stopped,text_5.stopped,key_resp_5.stopped,practice_block.stopped,practice.key_resp_5.keys,indoor_outdoor.started,text_7.started,key_resp_7.started,indoor_outdoor.stopped,practice.key_resp_7.keys,practice.key_resp_7.rt,practice.key_resp_7.duration,practice.key_resp_5.rt,practice.key_resp_5.duration,practice_to_main.started,text_2.started,key_resp_4.started,practice_to_main.stopped,key_resp_4.keys,key_resp_4.rt,key_resp_4.duration,objects.started,image_2.started,text_9.started,key_resp_9.started,objects.stopped,trials.key_resp_9.keys,trials.key_resp_9.rt,trials.key_resp_9.duration,encoding_task.started,encoding_task.stopped,trials.key_resp_8.keys,image_2.stopped,text_9.stopped,key_resp_9.stopped,text_8.started,key_resp_8.started,trials.key_resp_8.rt,trials.key_resp_8.duration,end_experiment.started,text_6.started,key_resp_6.started,end_experiment.stopped,key_resp_6.keys,key_resp_6.rt,key_resp_6.duration,list_of_stimuli,encoding_task_accuracy,participant,session,date,expName,psychopyVersion,frameRate,expStart,
,,,,,,,,,,,,,,,,,,,,,,,,,,,0.006497599999420345,0.023037699997075833,0.023037699997075833,21.22447370000009,space,21.199731400003657,None,,,,,,,,,,,,,,,,,,,,,,,,,,,,,,,,,,,,,,,,,,,,,,,,,,,,,,,,,,,,,,,,,,,,,,,00006,001,2025-11-09_19h25.43.020,MST_task,2024.2.2,60.001104019989214,2025-11-09 19h25.49.288282 +0530,
,,,,,,,,,,,,,,,,,,,,,,,,,,,,,,,,,,21.224504300000262,21.239316299994243,21.239316299994243,47.13908989999618,space,25.8902936999948,None,,,,,,,,,,,,,,,,,,,,,,,,,,,,,,,,,,,,,,,,,,,,,,,,,,,,,,,,,,,,,,,,00006,001,2025-11-09_19h25.43.020,MST_task,2024.2.2,60.001104019989214,2025-11-09 19h25.49.288282 +0530,
,,,,,,,,,,,,,,,,,,,,,,,,,,,,,,,,,,,,,,,,,47.13912100000016,47.15535529999761,47.15535529999761,74.65516520000529,space,27.485851899997215,None,,,,,,,,,,,,,,,,,,,,,,,,,,,,,,,,,,,,,,,,,,,,,,,,,,,,,,,,,00006,001,2025-11-09_19h25.43.020,MST_task,2024.2.2,60.001104019989214,2025-11-09 19h25.49.288282 +0530,
7,practice_images/166a.jpg,0,0,0,None,j,1.8713741999963531,None,,,,,,,,,0,0,0,6,,,,,74.67142020000028,,,,,,,,,,,,,,,,,,,,,,,74.66130789999443,74.67142020000028,75.17154049999954,75.1550508000073,75.16194799999357,75.17154049999954,75.17154049999954,75.17154049999954,78.17135119999875,78.17135119999875,78.17135119999875,78.15495779999765,None,78.1562649999978,78.17135119999875,78.17135119999875,80.05508249999548,j,1.8713741999963531,None,,,,,,,,,,,,,,,,,,,,,,,,,,,,,,,,,,,,,00006,001,2025-11-09_19h25.43.020,MST_task,2024.2.2,60.001104019989214,2025-11-09 19h25.49.288282 +0530,
6,practice_images/158a.jpg,1,1,0,f,None,,,1.9233670000103302,0.1539757999998983,,,,,,,0,1,1,5,,,,,80.07134290000249,,,,,,,,,,,,,,,,,,,,,,,80.05516449999413,80.07134290000249,80.57130690000486,80.55487389999325,80.5561893999984,80.57130690000486,80.57130690000486,80.57130690000486,83.57125730000553,83.57125730000553,83.57125730000553,83.55483429999731,f,83.55488019999757,,,83.554890600004,None,,,1.9233670000103302,0.1539757999998983,,,,,,,,,,,,,,,,,,,,,,,,,,,,,,,,,,,00006,001,2025-11-09_19h25.43.020,MST_task,2024.2.2,60.001104019989214,2025-11-09 19h25.49.288282 +0530,
4,practice_images/002b.jpg,2,2,0,None,f,6.963001799987978,None,,,,,,,,,0,2,2,3,,,,,83.57125730000553,,,,,,,,,,,,,,,,,,,,,,,83.55494279999402,83.57125730000553,84.07125140000426,84.05480670000543,84.05616629999713,84.07125140000426,84.07125140000426,84.07125140000426,87.0712160999974,87.0712160999974,87.0712160999974,87.05479789999663,None,87.05484110000543,87.0712160999974,87.0712160999974,94.03815629999735,f,6.963001799987978,None,,,,,,,,,,,,,,,,,,,,,,,,,,,,,,,,,,,,,00006,001,2025-11-09_19h25.43.020,MST_task,2024.2.2,60.001104019989214,2025-11-09 19h25.49.288282 +0530,
9,practice_images/180a.jpg,3,3,0,f,None,,,1.6122494000010192,0.1789608999970369,,,,,,,0,3,3,8,,,,,94.05439289999777,,,,,,,,,,,,,,,,,,,,,,,94.03823659999762,94.05439289999777,94.55432680000376,94.53801920000114,94.53936540000723,94.55432680000376,94.55432680000376,94.55432680000376,97.55428769999708,97.55428769999708,97.55428769999708,97.53789350000443,f,97.5379385999986,,,97.53794759999437,None,,,1.6122494000010192,0.1789608999970369,,,,,,,,,,,,,,,,,,,,,,,,,,,,,,,,,,,00006,001,2025-11-09_19h25.43.020,MST_task,2024.2.2,60.001104019989214,2025-11-09 19h25.49.288282 +0530,
3,practice_images/037a.jpg,4,4,0,f,None,,,1.7487177000002703,0.18182810000143945,,,,,,,0,4,4,2,,,,,97.55428769999708,,,,,,,,,,,,,,,,,,,,,,,97.53800240000419,97.55428769999708,98.0542759999953,98.03782700000738,98.03903410000203,98.0542759999953,98.0542759999953,98.0542759999953,101.0542090999952,101.0542090999952,101.0542090999952,101.03780370000459,f,101.03785340000468,,,101.03786240000045,None,,,1.7487177000002703,0.18182810000143945,,,,,,,,,,,,,,,,,,,,,,,,,,,,,,,,,,,00006,001,2025-11-09_19h25.43.020,MST_task,2024.2.2,60.001104019989214,2025-11-09 19h25.49.288282 +0530,
2,practice_images/031a.jpg,5,5,0,f,None,,,1.065273200001684,0.16564069999731146,,,,,,,0,5,5,1,,,,,101.0542090999952,,,,,,,,,,,,,,,,,,,,,,,101.03792010000325,101.0542090999952,101.55416519999562,101.53777520000585,101.53904909999983,101.55416519999562,101.55416519999562,101.55416519999562,104.55415530000755,104.55415530000755,104.55415530000755,104.53767109999899,f,104.53772130000289,,,104.53772969999409,None,,,1.065273200001684,0.16564069999731146,,,,,,,,,,,,,,,,,,,,,,,,,,,,,,,,,,,00006,001,2025-11-09_19h25.43.020,MST_task,2024.2.2,60.001104019989214,2025-11-09 19h25.49.288282 +0530,
1,practice_images/013a.jpg,6,6,0,j,None,,,2.155136500005028,0.16596579999895766,,,,,,,0,6,6,0,,,,,104.55415530000755,,,,,,,,,,,,,,,,,,,,,,,104.53778199999942,104.55415530000755,105.05409809999401,105.0377090999973,105.03907319999416,105.05409809999401,105.05409809999401,105.05409809999401,108.0540297999978,108.0540297999978,108.0540297999978,108.03763869999966,j,108.03768500000297,,,108.03769399999874,None,,,2.155136500005028,0.16596579999895766,,,,,,,,,,,,,,,,,,,,,,,,,,,,,,,,,,,00006,001,2025-11-09_19h25.43.020,MST_task,2024.2.2,60.001104019989214,2025-11-09 19h25.49.288282 +0530,
5,practice_images/139a.jpg,7,7,0,j,None,,,2.3510153999959584,0.15756599999440368,,,,,,,0,7,7,4,,,,,108.0540297999978,,,,,,,,,,,,,,,,,,,,,,,108.03774450000492,108.0540297999978,108.55405900000187,108.53766750000068,108.53890200000023,108.55405900000187,108.55405900000187,108.55405900000187,111.55395729999873,111.55395729999873,111.55395729999873,111.53749299999618,j,111.5375531000027,,,111.53756209999847,None,,,2.3510153999959584,0.15756599999440368,,,,,,,,,,,,,,,,,,,,,,,,,,,,,,,,,,,00006,001,2025-11-09_19h25.43.020,MST_task,2024.2.2,60.001104019989214,2025-11-09 19h25.49.288282 +0530,
10,practice_images/182a.jpg,8,8,0,f,None,,,0.8233200000104262,0.20594449999043718,,,,,,,0,8,8,9,,,,,111.55395729999873,,,,,,,,,,,,,,,,,,,,,,,111.5376139,111.55395729999873,112.05397660000017,112.03753349999897,112.03872009999759,112.05397660000017,112.05397660000017,112.05397660000017,115.05388039999525,115.05388039999525,115.05388039999525,115.03752830000303,f,115.03757400000177,,,115.03758279999602,None,,,0.8233200000104262,0.20594449999043718,,,,,,,,,,,,,,,,,,,,,,,,,,,,,,,,,,,00006,001,2025-11-09_19h25.43.020,MST_task,2024.2.2,60.001104019989214,2025-11-09 19h25.49.288282 +0530,
8,practice_images/178a.jpg,9,9,0,j,None,,,2.090994700003648,0.17453229999227915,,,,,,,0,9,9,7,,,,,115.05388039999525,,,,,,,,,,,,,,,,,,,,,,,115.03764419999789,115.05388039999525,115.55389870000363,115.5374426000053,115.53864640000393,115.55389870000363,115.55389870000363,115.55389870000363,118.55382960000134,118.55382960000134,118.55382960000134,118.53736649999337,j,118.53741540000192,,,118.53742389999388,None,,,2.090994700003648,0.17453229999227915,,,,,,,,,,,,,,,,,,,,,,,,,,,,,,,,,,,00006,001,2025-11-09_19h25.43.020,MST_task,2024.2.2,60.001104019989214,2025-11-09 19h25.49.288282 +0530,
,,,,,,,,,,,,,,,,,,,,,,,,,,,,,,,,,,,,,,,,,,,,,,,,,,,,,,,,,,,,,,,,,,,,,,118.53746029999456,118.55382960000134,118.55382960000134,147.92012039999827,space,29.35734119999688,None,,,,,,,,,,,,,,,,,,,,,,,,,,,,00006,001,2025-11-09_19h25.43.020,MST_task,2024.2.2,60.001104019989214,2025-11-09 19h25.49.288282 +0530,
,Scenes\025a.jpg,0,0,0,,,,,,,j,1.2153469000040786,0.13378689999808557,None,,,,,,,0,0,0,0,147.9365359999938,,,,,,,,,,,,,,,,,,,,,,,147.92067300000053,147.9365359999938,148.4534799999965,148.42003249999834,,,,,,,,,,,,,,,,,,,,,,,,,,148.4387088999938,148.4534799999965,148.4534799999965,148.4534799999965,151.4364862000075,j,1.2153469000040786,0.13378689999808557,151.43763939999917,151.43765259999782,None,,,,,,,,,,,,,,,,,00006,001,2025-11-09_19h25.43.020,MST_task,2024.2.2,60.001104019989214,2025-11-09 19h25.49.288282 +0530,
,Scenes\144a.jpg,1,0,1,,,,,,,j,1.1174679999967339,0.14225039999291766,None,,,,,,,1,0,1,0,151.4531391000055,,,,,,,,,,,,,,,,,,,,,,,151.437708700003,151.4531391000055,151.97007749999466,151.93673509999644,,,,,,,,,,,,,,,,,,,,,,,,,,151.95636809999996,151.97007749999466,151.97007749999466,151.97007749999466,154.95312970000668,j,1.1174679999967339,0.14225039999291766,154.95317459999933,154.95318520000728,None,,,,,,,,,,,,,,,,,00006,001,2025-11-09_19h25.43.020,MST_task,2024.2.2,60.001104019989214,2025-11-09 19h25.49.288282 +0530,
,Scenes\013a.jpg,2,0,2,,,,,,,j,1.1276603999867802,0.15279990000999533,None,,,,,,,2,0,2,0,154.96971510000003,,,,,,,,,,,,,,,,,,,,,,,154.95325429999502,154.96971510000003,155.4865748000011,155.453224900004,,,,,,,,,,,,,,,,,,,,,,,,,,155.46671120000246,155.4865748000011,155.4865748000011,155.4865748000011,158.46965389999968,j,1.1276603999867802,0.15279990000999533,158.46969979999994,158.4697101000056,None,,,,,,,,,,,,,,,,,00006,001,2025-11-09_19h25.43.020,MST_task,2024.2.2,60.001104019989214,2025-11-09 19h25.49.288282 +0530,
,Scenes\178a.jpg,3,0,3,,,,,,,j,1.6676392999943346,0.186488699997426,None,,,,,,,3,0,3,0,158.48629919999803,,,,,,,,,,,,,,,,,,,,,,,158.4697848999931,158.48629919999803,159.0029535000067,158.96988160000183,,,,,,,,,,,,,,,,,,,,,,,,,,158.98095120000653,159.0029535000067,159.0029535000067,159.0029535000067,161.9863425999938,j,1.6676392999943346,0.186488699997426,161.98639429999457,161.98640449999948,None,,,,,,,,,,,,,,,,,00006,001,2025-11-09_19h25.43.020,MST_task,2024.2.2,60.001104019989214,2025-11-09 19h25.49.288282 +0530,
,Scenes\129a.jpg,4,0,4,,,,,,,j,1.9334554999950342,0.1530681000003824,None,,,,,,,4,0,4,0,162.00288929999806,,,,,,,,,,,,,,,,,,,,,,,161.98646260000532,162.00288929999806,162.5028489999968,162.48638620000565,,,,,,,,,,,,,,,,,,,,,,,,,,162.4947816000058,162.5028489999968,162.5028489999968,162.5028489999968,165.48642129999644,j,1.9334554999950342,0.1530681000003824,165.48646650000592,165.4864760000055,None,165.50282209999568,165.50282209999568,165.50282209999568,,,,,,,,,,,,,,00006,001,2025-11-09_19h25.43.020,MST_task,2024.2.2,60.001104019989214,2025-11-09 19h25.49.288282 +0530,
,Scenes\192a.jpg,5,0,5,,,,,,,j,1.0314830000133952,0.16633579999324866,None,,,,,,,5,0,5,0,165.50282209999568,,,,,,,,,,,,,,,,,,,,,,,165.4865346000006,165.50282209999568,166.01978550000058,165.98643580000498,,,,,,,,,,,,,,,,,,,,,,,,,,165.9980532000045,166.01978550000058,166.01978550000058,166.01978550000058,169.00277789999382,j,1.0314830000133952,0.16633579999324866,169.0028231000033,169.0028336999967,None,,,,,,,,,,,,,,,,,00006,001,2025-11-09_19h25.43.020,MST_task,2024.2.2,60.001104019989214,2025-11-09 19h25.49.288282 +0530,
,Scenes\123a.jpg,6,0,6,,,,,,,j,1.4692998999962583,0.16542029999254737,None,,,,,,,6,0,6,0,169.01941320000333,,,,,,,,,,,,,,,,,,,,,,,169.00289160000102,169.01941320000333,169.5360362000065,169.50291140000627,,,,,,,,,,,,,,,,,,,,,,,,,,169.51443629999994,169.5360362000065,169.5360362000065,169.5360362000065,172.51936269999715,j,1.4692998999962583,0.16542029999254737,172.51944220000587,172.5194535000046,None,,,,,,,,,,,,,,,,,00006,001,2025-11-09_19h25.43.020,MST_task,2024.2.2,60.001104019989214,2025-11-09 19h25.49.288282 +0530,
,Objects\098a.jpg,7,0,7,,,,,,,f,0.817937300002086,0.21257940000214148,None,,,,,,,7,0,7,0,172.535999300002,,,,,,,,,,,,,,,,,,,,,,,172.5195429000014,172.535999300002,173.05297629999404,173.01948750000156,,,,,,,,,,,,,,,,,,,,,,,,,,173.03709209999943,173.05297629999404,173.05297629999404,173.05297629999404,176.03598669999337,f,0.817937300002086,0.21257940000214148,176.03603299999668,176.0360428999993,None,,,,,,,,,,,,,,,,,00006,001,2025-11-09_19h25.43.020,MST_task,2024.2.2,60.001104019989214,2025-11-09 19h25.49.288282 +0530,
,Objects\061a.jpg,8,0,8,,,,,,,None,,,j,1.423837000009371,None,,,,,8,0,8,0,176.05266180000035,,,,,,,,,,,,,,,,,,,,,,,176.0361195000005,176.05266180000035,176.55254249999416,176.53614100000414,,,,,,,,,,,,,,,,,,,,,,,,,,176.54763309999544,176.55254249999416,176.55254249999416,176.55254249999416,179.53614090000337,None,,,179.53618530000676,180.98616869999387,j,179.55266549999942,179.55266549999942,179.55266549999942,179.55266549999942,179.55266549999942,1.423837000009371,None,,,,,,,,,,00006,001,2025-11-09_19h25.43.020,MST_task,2024.2.2,60.001104019989214,2025-11-09 19h25.49.288282 +0530,
,Objects\029a.jpg,9,0,9,,,,,,,f,1.0782058999902802,0.20188280000002123,None,,,,,,,9,0,9,0,181.00248579999607,,,,,,,,,,,,,,,,,,,,,,,180.9862923000037,181.00248579999607,181.50255049999396,181.4859870000073,,,,,,,,,,,,,,,,,,,,,,,,,,181.49586779999663,181.50255049999396,181.50255049999396,181.50255049999396,184.48602769999707,f,1.0782058999902802,0.20188280000002123,184.48607379999885,184.48608400000376,None,184.5024090999941,184.5024090999941,184.5024090999941,,,,,,,,,,,,,,00006,001,2025-11-09_19h25.43.020,MST_task,2024.2.2,60.001104019989214,2025-11-09 19h25.49.288282 +0530,
,Objects\137a.jpg,10,0,10,,,,,,,None,,,f,2.1423317000007955,None,,,,,10,0,10,0,184.5024090999941,,,,,,,,,,,,,,,,,,,,,,,184.48616319999564,184.5024090999941,185.0024059999996,184.98590319999494,,,,,,,,,,,,,,,,,,,,,,,,,,184.99609440000495,185.0024059999996,185.0024059999996,185.0024059999996,187.9858988000051,None,,,187.98594250000315,190.15265430000727,f,188.00233170000138,188.00233170000138,188.00233170000138,188.00233170000138,188.00233170000138,2.1423317000007955,None,,,,,,,,,,00006,001,2025-11-09_19h25.43.020,MST_task,2024.2.2,60.001104019989214,2025-11-09 19h25.49.288282 +0530,
,Objects\174a.jpg,11,0,11,,,,,,,f,1.0701122999889776,0.17911470000399277,None,,,,,,,11,0,11,0,190.16896579999593,,,,,,,,,,,,,,,,,,,,,,,190.15273820000584,190.16896579999593,190.6689095000038,190.65251620000345,,,,,,,,,,,,,,,,,,,,,,,,,,190.6632787999988,190.6689095000038,190.6689095000038,190.6689095000038,193.65256220000447,f,1.0701122999889776,0.17911470000399277,193.65261020000617,193.65262049999728,None,193.66887809999753,193.66887809999753,193.66887809999753,,,,,,,,,,,,,,00006,001,2025-11-09_19h25.43.020,MST_task,2024.2.2,60.001104019989214,2025-11-09 19h25.49.288282 +0530,
,Objects\063a.jpg,12,0,12,,,,,,,f,0.7478656999883242,0.18958310000016354,None,,,,,,,12,0,12,0,193.66887809999753,,,,,,,,,,,,,,,,,,,,,,,193.65269550000085,193.66887809999753,194.18550180000602,194.15246579999803,,,,,,,,,,,,,,,,,,,,,,,,,,194.16840100000263,194.18550180000602,194.18550180000602,194.18550180000602,197.16880640000454,f,0.7478656999883242,0.18958310000016354,197.1688512999972,197.16886170000362,None,,,,,,,,,,,,,,,,,00006,001,2025-11-09_19h25.43.020,MST_task,2024.2.2,60.001104019989214,2025-11-09 19h25.49.288282 +0530,
,Objects\041a.jpg,13,0,13,,,,,,,None,,,j,1.1939248999988195,None,,,,,13,0,13,0,197.1854306000023,,,,,,,,,,,,,,,,,,,,,,,197.1689355999988,197.1854306000023,197.68542470000102,197.66903410000668,,,,,,,,,,,,,,,,,,,,,,,,,,197.6793234999932,197.68542470000102,197.68542470000102,197.68542470000102,200.66899790000753,None,,,200.6690424999979,201.88578399999824,j,200.68539290000626,200.68539290000626,200.68539290000626,200.68539290000626,200.68539290000626,1.1939248999988195,None,,,,,,,,,,00006,001,2025-11-09_19h25.43.020,MST_task,2024.2.2,60.001104019989214,2025-11-09 19h25.49.288282 +0530,
,Scenes\147a.jpg,14,0,14,,,,,,,j,0.9299306000029901,0.20195489999605343,None,,,,,,,14,0,14,0,201.90202369999315,,,,,,,,,,,,,,,,,,,,,,,201.8858884000074,201.90202369999315,202.41883789999702,202.38560019999568,,,,,,,,,,,,,,,,,,,,,,,,,,202.39506700000493,202.41883789999702,202.41883789999702,202.41883789999702,205.40196760000254,j,0.9299306000029901,0.20195489999605343,205.4020121000067,205.4020227000001,None,,,,,,,,,,,,,,,,,00006,001,2025-11-09_19h25.43.020,MST_task,2024.2.2,60.001104019989214,2025-11-09 19h25.49.288282 +0530,
,Scenes\078a.jpg,15,0,15,,,,,,,j,2.3855161999963457,0.14608839999709744,None,,,,,,,15,0,15,0,205.4186536000052,,,,,,,,,,,,,,,,,,,,,,,205.4020956000022,205.4186536000052,205.93556490000628,205.90211389999604,,,,,,,,,,,,,,,,,,,,,,,,,,205.91496480000205,205.93556490000628,205.93556490000628,205.93556490000628,208.9185429000063,j,2.3855161999963457,0.14608839999709744,208.91858959999809,208.918611400004,None,,,,,,,,,,,,,,,,,00006,001,2025-11-09_19h25.43.020,MST_task,2024.2.2,60.001104019989214,2025-11-09 19h25.49.288282 +0530,
,Scenes\168a.jpg,16,0,16,,,,,,,j,0.7617256999947131,0.15776590000314172,None,,,,,,,16,0,16,0,208.9352157999965,,,,,,,,,,,,,,,,,,,,,,,208.91868370000157,208.9352157999965,209.43509309999354,209.41875430000073,,,,,,,,,,,,,,,,,,,,,,,,,,209.42854789999546,209.43509309999354,209.43509309999354,209.43509309999354,212.4187008000008,j,0.7617256999947131,0.15776590000314172,212.4187474000064,212.41875690000597,None,212.43514519999735,212.43514519999735,212.43514519999735,,,,,,,,,,,,,,00006,001,2025-11-09_19h25.43.020,MST_task,2024.2.2,60.001104019989214,2025-11-09 19h25.49.288282 +0530,
,Scenes\158a.jpg,17,0,17,,,,,,,j,1.7201598999963608,0.18085710000013933,None,,,,,,,17,0,17,0,212.43514519999735,,,,,,,,,,,,,,,,,,,,,,,212.41881200000353,212.43514519999735,212.95176660000288,212.91864109999733,,,,,,,,,,,,,,,,,,,,,,,,,,212.93166370000108,212.95176660000288,212.95176660000288,212.95176660000288,215.9351214000053,j,1.7201598999963608,0.18085710000013933,215.93516799999634,215.935178300002,None,,,,,,,,,,,,,,,,,00006,001,2025-11-09_19h25.43.020,MST_task,2024.2.2,60.001104019989214,2025-11-09 19h25.49.288282 +0530,
,Scenes\190a.jpg,18,0,18,,,,,,,f,1.0024814000062179,0.20309999999881256,None,,,,,,,18,0,18,0,215.95176120000542,,,,,,,,,,,,,,,,,,,,,,,215.9352363999933,215.95176120000542,,216.43521340000734,,,,,,,,,,,,,,,,,,,,,,,,,,216.4491180000041,216.4683897000068,216.4683897000068,216.4683897000068,219.45164810000279,f,1.0024814000062179,0.20309999999881256,219.45170439999492,219.451713500006,None,,,,,,,,,,,,,,,,,00006,001,2025-11-09_19h25.43.020,MST_task,2024.2.2,60.001104019989214,2025-11-09 19h25.49.288282 +0530,
,Scenes\095a.jpg,19,0,19,,,,,,,None,,,j,0.21606429999519605,None,,,,,19,0,19,0,219.46831939999538,,,,,,,,,,,,,,,,,,,,,,,219.45177319999493,219.46831939999538,219.98516959999688,219.95180130000517,,,,,,,,,,,,,,,,,,,,,,,,,,219.96419929999684,219.98516959999688,219.98516959999688,219.98516959999688,222.96827260000282,None,,,222.96831320000638,223.20191829999385,j,,,,222.98490650000167,222.98490650000167,0.21606429999519605,None,,,,,,,,,,00006,001,2025-11-09_19h25.43.020,MST_task,2024.2.2,60.001104019989214,2025-11-09 19h25.49.288282 +0530,
,Scenes\128a.jpg,20,0,20,,,,,,,j,2.209998499994981,0.14993580000009388,None,,,,,,,20,0,20,0,223.2182257999957,,,,,,,,,,,,,,,,,,,,,,,223.2020046999969,223.2182257999957,223.7348878000048,223.70184160000645,,,,,,,,,,,,,,,,,,,,,,,,,,223.71488549999776,223.7348878000048,223.7348878000048,223.7348878000048,226.71823600000062,j,2.209998499994981,0.14993580000009388,226.71829809999326,226.71831130000646,None,,,,,,,,,,,,,,,,,00006,001,2025-11-09_19h25.43.020,MST_task,2024.2.2,60.001104019989214,2025-11-09 19h25.49.288282 +0530,
,Objects\091a.jpg,21,0,21,,,,,,,f,2.3962089999986347,0.18552529999578837,None,,,,,,,21,0,21,0,226.73486650000268,,,,,,,,,,,,,,,,,,,,,,,226.7183914000052,226.73486650000268,227.23501659999602,227.21842380000453,,,,,,,,,,,,,,,,,,,,,,,,,,227.22854300000472,227.23501659999602,227.23501659999602,227.23501659999602,230.2184355000063,f,2.3962089999986347,0.18552529999578837,230.21847789999447,230.2184874999948,None,230.234735799997,230.234735799997,230.234735799997,,,,,,,,,,,,,,00006,001,2025-11-09_19h25.43.020,MST_task,2024.2.2,60.001104019989214,2025-11-09 19h25.49.288282 +0530,
,Objects\055a.jpg,22,0,22,,,,,,,f,0.8721841000078712,0.16234369999438059,None,,,,,,,22,0,22,0,230.234735799997,,,,,,,,,,,,,,,,,,,,,,,230.2185657999944,230.234735799997,230.73470970000199,230.7182271000056,,,,,,,,,,,,,,,,,,,,,,,,,,230.72946550000052,230.73470970000199,230.73470970000199,230.73470970000199,233.71842879999895,f,0.8721841000078712,0.16234369999438059,233.71847540000454,233.71848530000716,None,233.73470250000537,233.73470250000537,233.73470250000537,,,,,,,,,,,,,,00006,001,2025-11-09_19h25.43.020,MST_task,2024.2.2,60.001104019989214,2025-11-09 19h25.49.288282 +0530,
,Objects\052a.jpg,23,0,23,,,,,,,f,1.0641383999900427,0.18254920000617858,None,,,,,,,23,0,23,0,233.73470250000537,,,,,,,,,,,,,,,,,,,,,,,233.71854580000218,233.73470250000537,234.2346322999947,234.21823559999757,,,,,,,,,,,,,,,,,,,,,,,,,,234.22946899999806,234.2346322999947,234.2346322999947,234.2346322999947,237.21832719999657,f,1.0641383999900427,0.18254920000617858,237.2183714999992,237.21838079999725,None,237.23463479999918,237.23463479999918,237.23463479999918,,,,,,,,,,,,,,00006,001,2025-11-09_19h25.43.020,MST_task,2024.2.2,60.001104019989214,2025-11-09 19h25.49.288282 +0530,
,Objects\168a.jpg,24,0,24,,,,,,,f,2.147085700009484,0.1578519999893615,None,,,,,,,24,0,24,0,237.23463479999918,,,,,,,,,,,,,,,,,,,,,,,237.21843219999573,237.23463479999918,237.73460379999597,237.71822939999402,,,,,,,,,,,,,,,,,,,,,,,,,,237.72817380000197,237.73460379999597,237.73460379999597,237.73460379999597,240.7180842999951,f,2.147085700009484,0.1578519999893615,240.71812849999696,240.71813799999654,None,240.73452319999342,240.73452319999342,240.73452319999342,,,,,,,,,,,,,,00006,001,2025-11-09_19h25.43.020,MST_task,2024.2.2,60.001104019989214,2025-11-09 19h25.49.288282 +0530,
,Objects\090a.jpg,25,0,25,,,,,,,None,,,j,0.29482749999442603,None,,,,,25,0,25,0,240.73452319999342,,,,,,,,,,,,,,,,,,,,,,,240.71820649999427,240.73452319999342,241.23448440000357,241.21812059999502,,,,,,,,,,,,,,,,,,,,,,,,,,241.22832039999776,241.23448440000357,241.23448440000357,241.23448440000357,244.21816170000238,None,,,244.21820289999596,244.5347477000032,j,244.23447860000306,244.23447860000306,244.23447860000306,244.23447860000306,244.23447860000306,0.29482749999442603,None,,,,,,,,,,00006,001,2025-11-09_19h25.43.020,MST_task,2024.2.2,60.001104019989214,2025-11-09 19h25.49.288282 +0530,
,Objects\172a.jpg,26,0,26,,,,,,,j,0.9065388000017265,0.2056414999970002,None,,,,,,,26,0,26,0,244.55110969999805,,,,,,,,,,,,,,,,,,,,,,,244.5348202000023,244.55110969999805,245.05106880000676,245.03465400000277,,,,,,,,,,,,,,,,,,,,,,,,,,245.04547199999797,245.05106880000676,245.05106880000676,245.05106880000676,248.03460749999795,j,0.9065388000017265,0.2056414999970002,248.03465329999744,248.03466350000235,None,248.05103479999525,248.05103479999525,248.05103479999525,,,,,,,,,,,,,,00006,001,2025-11-09_19h25.43.020,MST_task,2024.2.2,60.001104019989214,2025-11-09 19h25.49.288282 +0530,
,Objects\068a.jpg,27,0,27,,,,,,,j,2.0550717000005534,0.19031030000769533,None,,,,,,,27,0,27,0,248.05103479999525,,,,,,,,,,,,,,,,,,,,,,,248.03474479999568,248.05103479999525,248.55099010000413,248.53457340000023,,,,,,,,,,,,,,,,,,,,,,,,,,248.54427159999614,248.55099010000413,248.55099010000413,248.55099010000413,251.53456539999752,j,2.0550717000005534,0.19031030000769533,251.53461240000615,251.53462249999575,None,251.55096039999626,251.55096039999626,251.55096039999626,,,,,,,,,,,,,,00006,001,2025-11-09_19h25.43.020,MST_task,2024.2.2,60.001104019989214,2025-11-09 19h25.49.288282 +0530,
,Scenes\105a.jpg,28,0,28,,,,,,,j,0.7833477999956813,0.21398400000180118,None,,,,,,,28,0,28,0,251.55096039999626,,,,,,,,,,,,,,,,,,,,,,,251.5346772000048,251.55096039999626,252.06761749999714,252.03449400000682,,,,,,,,,,,,,,,,,,,,,,,,,,252.0482542999962,252.06761749999714,252.06761749999714,252.06761749999714,255.05088989999786,j,0.7833477999956813,0.21398400000180118,255.0509493999998,255.0509594000032,None,,,,,,,,,,,,,,,,,00006,001,2025-11-09_19h25.43.020,MST_task,2024.2.2,60.001104019989214,2025-11-09 19h25.49.288282 +0530,
,Scenes\131a.jpg,29,0,29,,,,,,,j,2.0874649999896064,0.15305170000647195,None,,,,,,,29,0,29,0,255.06754519999959,,,,,,,,,,,,,,,,,,,,,,,255.051040499995,255.06754519999959,255.584171399998,255.551028700007,,,,,,,,,,,,,,,,,,,,,,,,,,255.5627494000073,255.584171399998,255.584171399998,255.584171399998,258.56755059999705,j,2.0874649999896064,0.15305170000647195,258.5676080999983,258.567618999994,None,,,,,,,,,,,,,,,,,00006,001,2025-11-09_19h25.43.020,MST_task,2024.2.2,60.001104019989214,2025-11-09 19h25.49.288282 +0530,
,Scenes\182a.jpg,30,0,30,,,,,,,j,2.423742699989816,0.2007610000000568,None,,,,,,,30,0,30,0,258.5841020999942,,,,,,,,,,,,,,,,,,,,,,,258.56767620000755,258.5841020999942,259.10088460000406,259.0676773000014,,,,,,,,,,,,,,,,,,,,,,,,,,259.0782416000002,259.10088460000406,259.10088460000406,259.10088460000406,262.0841073000047,j,2.423742699989816,0.2007610000000568,262.0841511000035,262.0841614999954,None,,,,,,,,,,,,,,,,,00006,001,2025-11-09_19h25.43.020,MST_task,2024.2.2,60.001104019989214,2025-11-09 19h25.49.288282 +0530,
,Scenes\054a.jpg,31,0,31,,,,,,,j,1.1383754000125919,0.21731129998806864,None,,,,,,,31,0,31,0,262.1006992000039,,,,,,,,,,,,,,,,,,,,,,,262.0842166000075,262.1006992000039,,262.58421010000166,,,,,,,,,,,,,,,,,,,,,,,,,,262.59772380000504,262.6174141999945,262.6174141999945,262.6174141999945,265.60078940000676,j,1.1383754000125919,0.21731129998806864,265.6008415999968,265.6008506999933,None,,,,,,,,,,,,,,,,,00006,001,2025-11-09_19h25.43.020,MST_task,2024.2.2,60.001104019989214,2025-11-09 19h25.49.288282 +0530,
,Scenes\115a.jpg,32,0,32,,,,,,,j,2.038325600005919,0.160705299989786,None,,,,,,,32,0,32,0,265.6173215000017,,,,,,,,,,,,,,,,,,,,,,,265.60092769999756,265.6173215000017,266.13398790000065,266.1009019000048,,,,,,,,,,,,,,,,,,,,,,,,,,266.11274219999905,266.13398790000065,266.13398790000065,266.13398790000065,269.1172666000057,j,2.038325600005919,0.160705299989786,269.11731169999985,269.11732279999705,None,,,,,,,,,,,,,,,,,00006,001,2025-11-09_19h25.43.020,MST_task,2024.2.2,60.001104019989214,2025-11-09 19h25.49.288282 +0530,
,Scenes\181a.jpg,33,0,33,,,,,,,f,0.9969586000079289,0.20148340000014286,None,,,,,,,33,0,33,0,269.13391469999624,,,,,,,,,,,,,,,,,,,,,,,269.117379000003,269.13391469999624,269.650587199998,269.61744859999453,,,,,,,,,,,,,,,,,,,,,,,,,,269.6308425000025,269.650587199998,269.650587199998,269.650587199998,272.6338401999965,f,0.9969586000079289,0.20148340000014286,272.63388470000064,272.6338948000048,None,,,,,,,,,,,,,,,,,00006,001,2025-11-09_19h25.43.020,MST_task,2024.2.2,60.001104019989214,2025-11-09 19h25.49.288282 +0530,
,Scenes\107a.jpg,34,0,34,,,,,,,None,,,f,0.16913799999747425,None,,,,,34,0,34,0,272.6505169000011,,,,,,,,,,,,,,,,,,,,,,,272.63395149999997,272.6505169000011,,273.13398149999557,,,,,,,,,,,,,,,,,,,,,,,,,,273.1447158999945,273.167197200004,273.167197200004,273.167197200004,276.15049129999534,None,,,276.15054370000144,276.35076810000464,f,,,,276.1671231000073,276.1671231000073,0.16913799999747425,None,,,,,,,,,,00006,001,2025-11-09_19h25.43.020,MST_task,2024.2.2,60.001104019989214,2025-11-09 19h25.49.288282 +0530,
,Objects\125a.jpg,35,0,35,,,,,,,j,2.085863000000245,0.18263349999324419,None,,,,,,,35,0,35,0,276.36708850000286,,,,,,,,,,,,,,,,,,,,,,,276.3508385000023,276.36708850000286,276.8670429000049,276.8505953999993,,,,,,,,,,,,,,,,,,,,,,,,,,276.8608666999935,276.8670429000049,276.8670429000049,276.8670429000049,279.85059089999413,j,2.085863000000245,0.18263349999324419,279.8506325000053,279.8506422000064,None,279.8670507000061,279.8670507000061,279.8670507000061,,,,,,,,,,,,,,00006,001,2025-11-09_19h25.43.020,MST_task,2024.2.2,60.001104019989214,2025-11-09 19h25.49.288282 +0530,
,Objects\047a.jpg,36,0,36,,,,,,,f,0.7661033000040334,0.16215279999596532,None,,,,,,,36,0,36,0,279.8670507000061,,,,,,,,,,,,,,,,,,,,,,,279.85071810000227,279.8670507000061,280.36696840000513,280.35047089999716,,,,,,,,,,,,,,,,,,,,,,,,,,280.3599302000075,280.36696840000513,280.36696840000513,280.36696840000513,283.3505013999966,f,0.7661033000040334,0.16215279999596532,283.35054660000606,283.35055719999946,None,283.366935500002,283.366935500002,283.366935500002,,,,,,,,,,,,,,00006,001,2025-11-09_19h25.43.020,MST_task,2024.2.2,60.001104019989214,2025-11-09 19h25.49.288282 +0530,
,Objects\179a.jpg,37,0,37,,,,,,,f,0.8595238999987487,0.21180699999968056,None,,,,,,,37,0,37,0,283.366935500002,,,,,,,,,,,,,,,,,,,,,,,283.3506320000015,283.366935500002,283.86695700000564,283.8504211999971,,,,,,,,,,,,,,,,,,,,,,,,,,283.8601157999947,283.86695700000564,283.86695700000564,283.86695700000564,286.85046450000664,f,0.8595238999987487,0.21180699999968056,286.8505079000024,286.850517400002,None,286.86685989999387,286.86685989999387,286.86685989999387,,,,,,,,,,,,,,00006,001,2025-11-09_19h25.43.020,MST_task,2024.2.2,60.001104019989214,2025-11-09 19h25.49.288282 +0530,
,Objects\011a.jpg,38,0,38,,,,,,,f,0.8445225999894319,0.20606320000661071,None,,,,,,,38,0,38,0,286.86685989999387,,,,,,,,,,,,,,,,,,,,,,,286.85058850000496,286.86685989999387,287.366866700002,287.3503674999956,,,,,,,,,,,,,,,,,,,,,,,,,,287.3602641000034,287.366866700002,287.366866700002,287.366866700002,290.3504965000029,f,0.8445225999894319,0.20606320000661071,290.35054050000326,290.3505503000051,None,290.3667875999963,290.3667875999963,290.3667875999963,,,,,,,,,,,,,,00006,001,2025-11-09_19h25.43.020,MST_task,2024.2.2,60.001104019989214,2025-11-09 19h25.49.288282 +0530,
,Objects\037a.jpg,39,0,39,,,,,,,f,0.500321300001815,0.18972490000305697,None,,,,,,,39,0,39,0,290.3667875999963,,,,,,,,,,,,,,,,,,,,,,,290.35060330000124,290.3667875999963,290.8667609999975,290.8502309000032,,,,,,,,,,,,,,,,,,,,,,,,,,290.8605053000065,290.8667609999975,290.8667609999975,290.8667609999975,293.8503444999951,f,0.500321300001815,0.18972490000305697,293.8503911000007,293.85040019999724,None,293.866711900002,293.866711900002,293.866711900002,,,,,,,,,,,,,,00006,001,2025-11-09_19h25.43.020,MST_task,2024.2.2,60.001104019989214,2025-11-09 19h25.49.288282 +0530,
,Objects\058a.jpg,40,0,40,,,,,,,f,1.20275810000021,0.17901579999306705,None,,,,,,,40,0,40,0,293.866711900002,,,,,,,,,,,,,,,,,,,,,,,293.8504679000034,293.866711900002,294.36672390000604,294.35025499999756,,,,,,,,,,,,,,,,,,,,,,,,,,294.3601779000019,294.36672390000604,294.36672390000604,294.36672390000604,297.3502121000056,f,1.20275810000021,0.17901579999306705,297.35025699999824,297.3502670000016,None,297.36662739999883,297.36662739999883,297.36662739999883,,,,,,,,,,,,,,00006,001,2025-11-09_19h25.43.020,MST_task,2024.2.2,60.001104019989214,2025-11-09 19h25.49.288282 +0530,
,Objects\184a.jpg,41,0,41,,,,,,,None,,,j,0.18811219999042805,None,,,,,41,0,41,0,297.36662739999883,,,,,,,,,,,,,,,,,,,,,,,297.35032169999613,297.36662739999883,297.86658659999375,297.8500720000011,,,,,,,,,,,,,,,,,,,,,,,,,,297.86000369999965,297.86658659999375,297.86658659999375,297.86658659999375,300.85028169999714,None,,,300.8503270000074,301.0669465999963,j,300.8665528999991,300.8665528999991,300.8665528999991,300.8665528999991,300.8665528999991,0.18811219999042805,None,,,,,,,,,,00006,001,2025-11-09_19h25.43.020,MST_task,2024.2.2,60.001104019989214,2025-11-09 19h25.49.288282 +0530,
,Scenes\110a.jpg,42,0,42,,,,,,,j,2.2172138999885647,0.19755300000542775,None,,,,,,,42,0,42,0,301.08322919999773,,,,,,,,,,,,,,,,,,,,,,,301.067051799997,301.08322919999773,301.6000922999956,301.56667420000304,,,,,,,,,,,,,,,,,,,,,,,,,,301.57888240000466,301.6000922999956,301.6000922999956,301.6000922999956,304.5832736000011,j,2.2172138999885647,0.19755300000542775,304.5833463000017,304.5833571999974,None,,,,,,,,,,,,,,,,,00006,001,2025-11-09_19h25.43.020,MST_task,2024.2.2,60.001104019989214,2025-11-09 19h25.49.288282 +0530,
,Scenes\151a.jpg,43,0,43,,,,,,,j,0.8229106000071624,0.23012989999551792,None,,,,,,,43,0,43,0,304.5998193999985,,,,,,,,,,,,,,,,,,,,,,,304.5834309000056,304.5998193999985,305.10006270000304,305.08322919999773,,,,,,,,,,,,,,,,,,,,,,,,,,305.09189880000486,305.10006270000304,305.10006270000304,305.10006270000304,308.08341700000165,j,0.8229106000071624,0.23012989999551792,308.08346589999564,308.08347610000055,None,308.099739199999,308.099739199999,308.099739199999,,,,,,,,,,,,,,00006,001,2025-11-09_19h25.43.020,MST_task,2024.2.2,60.001104019989214,2025-11-09 19h25.49.288282 +0530,
,Scenes\036a.jpg,44,0,44,,,,,,,j,2.9655932000023313,None,None,,,,,,,44,0,44,0,308.099739199999,,,,,,,,,,,,,,,,,,,,,,,308.0835353000002,308.099739199999,308.5999557000032,308.58317830000306,,,,,,,,,,,,,,,,,,,,,,,,,,308.59065420000115,308.5999557000032,308.5999557000032,308.5999557000032,311.583378299998,j,2.9655932000023313,None,311.58342910000647,311.58343949999835,None,311.59966750000603,311.59966750000603,311.59966750000603,,,,,,,,,,,,,,00006,001,2025-11-09_19h25.43.020,MST_task,2024.2.2,60.001104019989214,2025-11-09 19h25.49.288282 +0530,
,Scenes\004a.jpg,45,0,45,,,,,,,j,0.7284536999941338,0.22855180001351982,None,,,,,,,45,0,45,0,311.59966750000603,,,,,,,,,,,,,,,,,,,,,,,311.58350049999717,311.59966750000603,312.11628879999625,312.0832032000035,,,,,,,,,,,,,,,,,,,,,,,,,,312.0960252999939,312.11628879999625,312.11628879999625,312.11628879999625,315.09961730000214,j,0.7284536999941338,0.22855180001351982,315.0996659999946,315.09967640000104,None,,,,,,,,,,,,,,,,,00006,001,2025-11-09_19h25.43.020,MST_task,2024.2.2,60.001104019989214,2025-11-09 19h25.49.288282 +0530,
,Scenes\187a.jpg,46,0,46,,,,,,,j,1.492817999998806,0.18499200000951532,None,,,,,,,46,0,46,0,315.11624719999963,,,,,,,,,,,,,,,,,,,,,,,315.0997505999985,315.11624719999963,315.63288069999544,315.599749800007,,,,,,,,,,,,,,,,,,,,,,,,,,315.61221459999797,315.63288069999544,315.63288069999544,315.63288069999544,318.616305699994,j,1.492817999998806,0.18499200000951532,318.61638140000287,318.6163918999955,None,,,,,,,,,,,,,,,,,00006,001,2025-11-09_19h25.43.020,MST_task,2024.2.2,60.001104019989214,2025-11-09 19h25.49.288282 +0530,
,Scenes\035a.jpg,47,0,47,,,,,,,j,2.751147300004959,0.19448299999930896,None,,,,,,,47,0,47,0,318.63284599999315,,,,,,,,,,,,,,,,,,,,,,,318.6164493999968,318.63284599999315,319.149470999997,319.1165030999982,,,,,,,,,,,,,,,,,,,,,,,,,,319.12923109999974,319.149470999997,319.149470999997,319.149470999997,322.1327934000001,j,2.751147300004959,0.19448299999930896,322.1328383000073,322.1328483999969,None,,,,,,,,,,,,,,,,,00006,001,2025-11-09_19h25.43.020,MST_task,2024.2.2,60.001104019989214,2025-11-09 19h25.49.288282 +0530,
,Scenes\058a.jpg,48,0,48,,,,,,,f,1.6613257999997586,0.21785449999151751,None,,,,,,,48,0,48,0,322.1494356000039,,,,,,,,,,,,,,,,,,,,,,,322.13290280000365,322.1494356000039,322.64941729999555,322.6329123000032,,,,,,,,,,,,,,,,,,,,,,,,,,322.6396123000013,322.64941729999555,322.64941729999555,322.64941729999555,325.6331097999937,f,1.6613257999997586,0.21785449999151751,325.6331590000045,325.63316949999717,None,325.649356599999,325.649356599999,325.649356599999,,,,,,,,,,,,,,00006,001,2025-11-09_19h25.43.020,MST_task,2024.2.2,60.001104019989214,2025-11-09 19h25.49.288282 +0530,
,Objects\026a.jpg,49,0,49,,,,,,,f,0.8943223999958718,0.14079750000382774,None,,,,,,,49,0,49,0,325.649356599999,,,,,,,,,,,,,,,,,,,,,,,325.6332479999983,325.649356599999,326.14956849999726,326.13282709999476,,,,,,,,,,,,,,,,,,,,,,,,,,326.1433743999951,326.14956849999726,326.14956849999726,326.14956849999726,329.1328625000024,f,0.8943223999958718,0.14079750000382774,329.1329115999979,329.1329220000043,None,329.14927749999333,329.14927749999333,329.14927749999333,,,,,,,,,,,,,,00006,001,2025-11-09_19h25.43.020,MST_task,2024.2.2,60.001104019989214,2025-11-09 19h25.49.288282 +0530,
,Objects\126a.jpg,50,0,50,,,,,,,j,2.5778947999933735,0.21826100000180304,None,,,,,,,50,0,50,0,329.14927749999333,,,,,,,,,,,,,,,,,,,,,,,329.13300070000696,329.14927749999333,329.64923350000754,329.6327220999956,,,,,,,,,,,,,,,,,,,,,,,,,,329.64315499999793,329.64923350000754,329.64923350000754,329.64923350000754,332.63275040000735,j,2.5778947999933735,0.21826100000180304,332.63279459999467,332.6328039999935,None,332.64920610000263,332.64920610000263,332.64920610000263,,,,,,,,,,,,,,00006,001,2025-11-09_19h25.43.020,MST_task,2024.2.2,60.001104019989214,2025-11-09 19h25.49.288282 +0530,
,Objects\171a.jpg,51,0,51,,,,,,,f,1.1400026000046637,0.1661071999988053,None,,,,,,,51,0,51,0,332.64920610000263,,,,,,,,,,,,,,,,,,,,,,,332.63286090000474,332.64920610000263,333.14922740000475,333.1327474999998,,,,,,,,,,,,,,,,,,,,,,,,,,333.14250770000217,333.14922740000475,333.14922740000475,333.14922740000475,336.13267809999525,f,1.1400026000046637,0.1661071999988053,336.13272249999864,336.13273440000194,None,336.14913140000135,336.14913140000135,336.14913140000135,,,,,,,,,,,,,,00006,001,2025-11-09_19h25.43.020,MST_task,2024.2.2,60.001104019989214,2025-11-09 19h25.49.288282 +0530,
,Objects\030a.jpg,52,0,52,,,,,,,f,2.611451799995848,0.1819751000002725,None,,,,,,,52,0,52,0,336.14913140000135,,,,,,,,,,,,,,,,,,,,,,,336.13280370000575,336.14913140000135,336.66575879999436,336.63263700000243,,,,,,,,,,,,,,,,,,,,,,,,,,336.65109030000167,336.66575879999436,336.66575879999436,336.66575879999436,339.649087400001,f,2.611451799995848,0.1819751000002725,339.649130100006,339.6491398999933,None,,,,,,,,,,,,,,,,,00006,001,2025-11-09_19h25.43.020,MST_task,2024.2.2,60.001104019989214,2025-11-09 19h25.49.288282 +0530,
,Objects\170a.jpg,53,0,53,,,,,,,f,1.8555070999864256,0.20038740000745747,None,,,,,,,53,0,53,0,339.6657438999973,,,,,,,,,,,,,,,,,,,,,,,339.6492236000049,339.6657438999973,340.16567580000265,340.149210699994,,,,,,,,,,,,,,,,,,,,,,,,,,340.15905990000465,340.16567580000265,340.16567580000265,340.16567580000265,343.14920889999485,f,1.8555070999864256,0.20038740000745747,343.14925519999815,343.14926489999925,None,343.16564750000543,343.16564750000543,343.16564750000543,,,,,,,,,,,,,,00006,001,2025-11-09_19h25.43.020,MST_task,2024.2.2,60.001104019989214,2025-11-09 19h25.49.288282 +0530,
,Objects\105a.jpg,54,0,54,,,,,,,f,0.7859599999937927,0.2236782999971183,None,,,,,,,54,0,54,0,343.16564750000543,,,,,,,,,,,,,,,,,,,,,,,343.14932229999977,343.16564750000543,343.66565830000036,343.64911949999805,,,,,,,,,,,,,,,,,,,,,,,,,,343.658955299994,343.66565830000036,343.66565830000036,343.66565830000036,346.6491459999961,f,0.7859599999937927,0.2236782999971183,346.6491909000033,346.6492034999974,None,346.66556979999586,346.66556979999586,346.66556979999586,,,,,,,,,,,,,,00006,001,2025-11-09_19h25.43.020,MST_task,2024.2.2,60.001104019989214,2025-11-09 19h25.49.288282 +0530,
,Objects\106a.jpg,55,0,55,,,,,,,f,0.7291945000033593,0.19869729998754337,None,,,,,,,55,0,55,0,346.66556979999586,,,,,,,,,,,,,,,,,,,,,,,346.6492572999996,346.66556979999586,347.1655821000022,347.1491151999944,,,,,,,,,,,,,,,,,,,,,,,,,,347.1587317999947,347.1655821000022,347.1655821000022,347.1655821000022,350.1491774000024,f,0.7291945000033593,0.19869729998754337,350.14922029999434,350.14922999999544,None,350.16559839999536,350.16559839999536,350.16559839999536,,,,,,,,,,,,,,00006,001,2025-11-09_19h25.43.020,MST_task,2024.2.2,60.001104019989214,2025-11-09 19h25.49.288282 +0530,
,Scenes\121a.jpg,56,0,56,,,,,,,j,1.259038199990755,0.19165740000607911,None,,,,,,,56,0,56,0,350.16559839999536,,,,,,,,,,,,,,,,,,,,,,,350.1493034000014,350.16559839999536,350.68218909999996,350.6490496000042,,,,,,,,,,,,,,,,,,,,,,,,,,350.6617714000022,350.68218909999996,350.68218909999996,350.68218909999996,353.66541770000185,j,1.259038199990755,0.19165740000607911,353.6654787000007,353.66548939999484,None,,,,,,,,,,,,,,,,,00006,001,2025-11-09_19h25.43.020,MST_task,2024.2.2,60.001104019989214,2025-11-09 19h25.49.288282 +0530,
,Scenes\026a.jpg,57,0,57,,,,,,,j,1.5949653999996372,0.1436962999869138,None,,,,,,,57,0,57,0,353.6821101999958,,,,,,,,,,,,,,,,,,,,,,,353.6655699999974,353.6821101999958,354.1988776999933,354.1656557999959,,,,,,,,,,,,,,,,,,,,,,,,,,354.1824697999982,354.1988776999933,354.1988776999933,354.1988776999933,357.18204929999774,j,1.5949653999996372,0.1436962999869138,357.1820955000003,357.1821059000067,None,,,,,,,,,,,,,,,,,00006,001,2025-11-09_19h25.43.020,MST_task,2024.2.2,60.001104019989214,2025-11-09 19h25.49.288282 +0530,
,Scenes\027a.jpg,58,0,58,,,,,,,f,0.9074790000013309,0.18186499999137595,None,,,,,,,58,0,58,0,357.19867939999676,,,,,,,,,,,,,,,,,,,,,,,357.18216330000723,357.19867939999676,357.7155080999946,357.68224939999345,,,,,,,,,,,,,,,,,,,,,,,,,,357.6944141999993,357.7155080999946,357.7155080999946,357.7155080999946,360.698601600001,f,0.9074790000013309,0.18186499999137595,360.69864550000057,360.69865550000395,None,,,,,,,,,,,,,,,,,00006,001,2025-11-09_19h25.43.020,MST_task,2024.2.2,60.001104019989214,2025-11-09 19h25.49.288282 +0530,
,Scenes\028a.jpg,59,0,59,,,,,,,j,0.7048326999938581,0.14976060000481084,None,,,,,,,59,0,59,0,360.7152686000045,,,,,,,,,,,,,,,,,,,,,,,360.69871169999533,360.7152686000045,361.23213699999906,361.1988302999962,,,,,,,,,,,,,,,,,,,,,,,,,,361.2112988000008,361.23213699999906,361.23213699999906,361.23213699999906,364.21519109999645,j,0.7048326999938581,0.14976060000481084,364.215234999996,364.21524570000474,None,,,,,,,,,,,,,,,,,00006,001,2025-11-09_19h25.43.020,MST_task,2024.2.2,60.001104019989214,2025-11-09 19h25.49.288282 +0530,
,Scenes\101a.jpg,60,0,60,,,,,,,j,0.7292471000109799,0.19806029999745078,None,,,,,,,60,0,60,0,364.2318632999959,,,,,,,,,,,,,,,,,,,,,,,364.2153193999984,364.2318632999959,364.73181430000113,364.7153485000017,,,,,,,,,,,,,,,,,,,,,,,,,,364.7220196999988,364.73181430000113,364.73181430000113,364.73181430000113,367.7153096999973,j,0.7292471000109799,0.19806029999745078,367.71535179999773,367.71536089999427,None,367.731784699994,367.731784699994,367.731784699994,,,,,,,,,,,,,,00006,001,2025-11-09_19h25.43.020,MST_task,2024.2.2,60.001104019989214,2025-11-09 19h25.49.288282 +0530,
,Scenes\165a.jpg,61,0,61,,,,,,,f,2.322770099999616,0.19006910000462085,None,,,,,,,61,0,61,0,367.731784699994,,,,,,,,,,,,,,,,,,,,,,,367.7154131999996,367.731784699994,368.2484492999938,368.21532950000255,,,,,,,,,,,,,,,,,,,,,,,,,,368.22745150000264,368.2484492999938,368.2484492999938,368.2484492999938,371.2317270000058,f,2.322770099999616,0.19006910000462085,371.2317913000006,371.231801899994,None,,,,,,,,,,,,,,,,,00006,001,2025-11-09_19h25.43.020,MST_task,2024.2.2,60.001104019989214,2025-11-09 19h25.49.288282 +0530,
,Scenes\149a.jpg,62,0,62,,,,,,,f,1.5933121999987634,0.20062260000850074,None,,,,,,,62,0,62,0,371.2483804000076,,,,,,,,,,,,,,,,,,,,,,,371.2318732999993,371.2483804000076,371.7483459000068,371.7318946000014,,,,,,,,,,,,,,,,,,,,,,,,,,371.7386337000062,371.7483459000068,371.7483459000068,371.7483459000068,374.73187220000545,f,1.5933121999987634,0.20062260000850074,374.73192079999717,374.73193130000436,None,374.7482982000074,374.7482982000074,374.7482982000074,,,,,,,,,,,,,,00006,001,2025-11-09_19h25.43.020,MST_task,2024.2.2,60.001104019989214,2025-11-09 19h25.49.288282 +0530,
,Objects\028a.jpg,63,0,63,,,,,,,f,0.5688979999977164,0.1991340999957174,None,,,,,,,63,0,63,0,374.7482982000074,,,,,,,,,,,,,,,,,,,,,,,374.73198749999574,374.7482982000074,375.2486252999952,375.2318881999963,,,,,,,,,,,,,,,,,,,,,,,,,,375.24230250000255,375.2486252999952,375.2486252999952,375.2486252999952,378.23182420000376,f,0.5688979999977164,0.1991340999957174,378.23187139999936,378.2318809999997,None,378.248219000001,378.248219000001,378.248219000001,,,,,,,,,,,,,,00006,001,2025-11-09_19h25.43.020,MST_task,2024.2.2,60.001104019989214,2025-11-09 19h25.49.288282 +0530,
,Objects\067a.jpg,64,0,64,,,,,,,f,1.3168947999947704,0.20217129999946337,None,,,,,,,64,0,64,0,378.248219000001,,,,,,,,,,,,,,,,,,,,,,,378.23195549999946,378.248219000001,378.74817330000224,378.73172440000053,,,,,,,,,,,,,,,,,,,,,,,,,,378.74172839999665,378.74817330000224,378.74817330000224,378.74817330000224,381.731812900005,f,1.3168947999947704,0.20217129999946337,381.73185779999767,381.73186780000106,None,381.7482846000057,381.7482846000057,381.7482846000057,,,,,,,,,,,,,,00006,001,2025-11-09_19h25.43.020,MST_task,2024.2.2,60.001104019989214,2025-11-09 19h25.49.288282 +0530,
,Objects\042a.jpg,65,0,65,,,,,,,f,0.8728891000064323,0.18674849999661092,None,,,,,,,65,0,65,0,381.7482846000057,,,,,,,,,,,,,,,,,,,,,,,381.73192310000013,381.7482846000057,382.24818999999843,382.2316961000033,,,,,,,,,,,,,,,,,,,,,,,,,,382.24155130000145,382.24818999999843,382.24818999999843,382.24818999999843,385.2318688999949,f,0.8728891000064323,0.18674849999661092,385.2319162000058,385.23192639999615,None,385.248190600003,385.248190600003,385.248190600003,,,,,,,,,,,,,,00006,001,2025-11-09_19h25.43.020,MST_task,2024.2.2,60.001104019989214,2025-11-09 19h25.49.288282 +0530,
,Objects\087a.jpg,66,0,66,,,,,,,j,2.4363835000112886,0.20976030000019819,None,,,,,,,66,0,66,0,385.248190600003,,,,,,,,,,,,,,,,,,,,,,,385.23198510000657,385.248190600003,385.7647977000015,385.7317475000018,,,,,,,,,,,,,,,,,,,,,,,,,,385.74911879999854,385.7647977000015,385.7647977000015,385.7647977000015,388.74811220000265,j,2.4363835000112886,0.20976030000019819,388.74815699999453,388.74816719999944,None,,,,,,,,,,,,,,,,,00006,001,2025-11-09_19h25.43.020,MST_task,2024.2.2,60.001104019989214,2025-11-09 19h25.49.288282 +0530,
,Objects\085a.jpg,67,0,67,,,,,,,f,0.8167549000063445,0.2056389999925159,None,,,,,,,67,0,67,0,388.7647380999988,,,,,,,,,,,,,,,,,,,,,,,388.7482377999986,388.7647380999988,389.2647150999983,389.2482614000037,,,,,,,,,,,,,,,,,,,,,,,,,,389.2583874999982,389.2647150999983,389.2647150999983,389.2647150999983,392.2483141999983,f,0.8167549000063445,0.2056389999925159,392.2483577999956,392.2483668000059,None,392.264674200007,392.264674200007,392.264674200007,,,,,,,,,,,,,,00006,001,2025-11-09_19h25.43.020,MST_task,2024.2.2,60.001104019989214,2025-11-09 19h25.49.288282 +0530,
,Objects\189a.jpg,68,0,68,,,,,,,f,0.8623481999966316,0.2097966000001179,None,,,,,,,68,0,68,0,392.264674200007,,,,,,,,,,,,,,,,,,,,,,,392.2484383999981,392.264674200007,392.76462990000437,392.7481126000057,,,,,,,,,,,,,,,,,,,,,,,,,,392.7583641999954,392.76462990000437,392.76462990000437,392.76462990000437,395.7482406000054,f,0.8623481999966316,0.2097966000001179,395.74828230000276,395.74829200000386,None,395.7646359000064,395.7646359000064,395.7646359000064,,,,,,,,,,,,,,00006,001,2025-11-09_19h25.43.020,MST_task,2024.2.2,60.001104019989214,2025-11-09 19h25.49.288282 +0530,
,Objects\038a.jpg,69,0,69,,,,,,,f,1.2386769000004278,0.18620200001168996,None,,,,,,,69,0,69,0,395.7646359000064,,,,,,,,,,,,,,,,,,,,,,,395.74836080000387,395.7646359000064,396.2645593000052,396.2481089000066,,,,,,,,,,,,,,,,,,,,,,,,,,396.25773130000744,396.2645593000052,396.2645593000052,396.2645593000052,399.24814660000266,f,1.2386769000004278,0.18620200001168996,399.2481933999952,399.2482033999986,None,399.2644418999989,399.2644418999989,399.2644418999989,,,,,,,,,,,,,,00006,001,2025-11-09_19h25.43.020,MST_task,2024.2.2,60.001104019989214,2025-11-09 19h25.49.288282 +0530,
,Scenes\062a.jpg,70,0,70,,,,,,,j,1.1817430999944918,0.16268410001066513,None,,,,,,,70,0,70,0,399.2644418999989,,,,,,,,,,,,,,,,,,,,,,,399.2482808000059,399.2644418999989,399.7811045999988,399.7479097000032,,,,,,,,,,,,,,,,,,,,,,,,,,399.7613805000001,399.7811045999988,399.7811045999988,399.7811045999988,402.76441960000375,j,1.1817430999944918,0.16268410001066513,402.7644641999941,402.7644741999975,None,,,,,,,,,,,,,,,,,00006,001,2025-11-09_19h25.43.020,MST_task,2024.2.2,60.001104019989214,2025-11-09 19h25.49.288282 +0530,
,Scenes\044a.jpg,71,0,71,,,,,,,f,2.555158400005894,0.19448669999837875,None,,,,,,,71,0,71,0,402.7810174000042,,,,,,,,,,,,,,,,,,,,,,,402.7645533000032,402.7810174000042,403.2976469999994,403.2646256000007,,,,,,,,,,,,,,,,,,,,,,,,,,403.27555560000474,403.2976469999994,403.2976469999994,403.2976469999994,406.2809797999944,f,2.555158400005894,0.19448669999837875,406.28106110000226,406.2810749000055,None,,,,,,,,,,,,,,,,,00006,001,2025-11-09_19h25.43.020,MST_task,2024.2.2,60.001104019989214,2025-11-09 19h25.49.288282 +0530,
,Scenes\175a.jpg,72,0,72,,,,,,,j,0.7389727999980096,0.16601689999515656,None,,,,,,,72,0,72,0,406.29769079999824,,,,,,,,,,,,,,,,,,,,,,,406.2811373000004,406.29769079999824,406.79779979999876,406.78111149999313,,,,,,,,,,,,,,,,,,,,,,,,,,406.7900293999992,406.79779979999876,406.79779979999876,406.79779979999876,409.7812171999976,j,0.7389727999980096,0.16601689999515656,409.78126030000567,409.78127000000677,None,409.7975385000027,409.7975385000027,409.7975385000027,,,,,,,,,,,,,,00006,001,2025-11-09_19h25.43.020,MST_task,2024.2.2,60.001104019989214,2025-11-09 19h25.49.288282 +0530,
,Scenes\072a.jpg,73,0,73,,,,,,,j,1.1269688999891514,0.1664438000007067,None,,,,,,,73,0,73,0,409.7975385000027,,,,,,,,,,,,,,,,,,,,,,,409.78132259999984,409.7975385000027,410.3142002999957,410.2810749000055,,,,,,,,,,,,,,,,,,,,,,,,,,410.2950531999959,410.3142002999957,410.3142002999957,410.3142002999957,413.297484900002,j,1.1269688999891514,0.1664438000007067,413.29755780000414,413.29756770000677,None,,,,,,,,,,,,,,,,,00006,001,2025-11-09_19h25.43.020,MST_task,2024.2.2,60.001104019989214,2025-11-09 19h25.49.288282 +0530,
,Scenes\160a.jpg,74,0,74,,,,,,,j,0.8633200000040233,0.1701521000068169,None,,,,,,,74,0,74,0,413.3141426000075,,,,,,,,,,,,,,,,,,,,,,,413.29764350000187,413.3141426000075,413.8140795000072,413.797607600005,,,,,,,,,,,,,,,,,,,,,,,,,,413.80728710000403,413.8140795000072,413.8140795000072,413.8140795000072,416.7976258999988,j,0.8633200000040233,0.1701521000068169,416.7976686000038,416.7976801000041,None,416.8140770000027,416.8140770000027,416.8140770000027,,,,,,,,,,,,,,00006,001,2025-11-09_19h25.43.020,MST_task,2024.2.2,60.001104019989214,2025-11-09 19h25.49.288282 +0530,
,Scenes\001a.jpg,75,0,75,,,,,,,f,0.5523455000075046,0.22118459999910556,None,,,,,,,75,0,75,0,416.8140770000027,,,,,,,,,,,,,,,,,,,,,,,416.7977511000063,416.8140770000027,417.33095430000685,417.29763859999366,,,,,,,,,,,,,,,,,,,,,,,,,,417.3148669000075,417.33095430000685,417.33095430000685,417.33095430000685,420.31402970000636,f,0.5523455000075046,0.22118459999910556,420.31411059999664,420.31412130000535,None,,,,,,,,,,,,,,,,,00006,001,2025-11-09_19h25.43.020,MST_task,2024.2.2,60.001104019989214,2025-11-09 19h25.49.288282 +0530,
,Scenes\087a.jpg,76,0,76,,,,,,,j,1.1260422000050312,0.16222990000096615,None,,,,,,,76,0,76,0,420.3306506999943,,,,,,,,,,,,,,,,,,,,,,,420.3142077999946,420.3306506999943,420.8310206000024,420.81417880000663,,,,,,,,,,,,,,,,,,,,,,,,,,420.8241701999941,420.8310206000024,420.8310206000024,420.8310206000024,423.8142310999974,j,1.1260422000050312,0.16222990000096615,423.81427649999387,423.81428649999725,None,423.83057020000706,423.83057020000706,423.83057020000706,,,,,,,,,,,,,,00006,001,2025-11-09_19h25.43.020,MST_task,2024.2.2,60.001104019989214,2025-11-09 19h25.49.288282 +0530,
,Objects\181a.jpg,77,0,77,,,,,,,j,2.2292615000042133,0.116280000002007,None,,,,,,,77,0,77,0,423.83057020000706,,,,,,,,,,,,,,,,,,,,,,,423.8143427000032,423.83057020000706,424.3475311000075,424.31405369999993,,,,,,,,,,,,,,,,,,,,,,,,,,424.33254170000146,424.3475311000075,424.3475311000075,424.3475311000075,427.3305490000057,j,2.2292615000042133,0.116280000002007,427.33059420000063,427.33062269999937,None,,,,,,,,,,,,,,,,,00006,001,2025-11-09_19h25.43.020,MST_task,2024.2.2,60.001104019989214,2025-11-09 19h25.49.288282 +0530,
,Objects\138a.jpg,78,0,78,,,,,,,j,2.7393429999938235,0.1535544999933336,None,,,,,,,78,0,78,0,427.34712249999575,,,,,,,,,,,,,,,,,,,,,,,427.33067799999844,427.34712249999575,427.84711020000395,427.8306328000035,,,,,,,,,,,,,,,,,,,,,,,,,,427.8418432000035,427.84711020000395,427.84711020000395,427.84711020000395,430.8306617000053,j,2.7393429999938235,0.1535544999933336,430.83070960000623,430.8307199999981,None,430.8471591999987,430.8471591999987,430.8471591999987,,,,,,,,,,,,,,00006,001,2025-11-09_19h25.43.020,MST_task,2024.2.2,60.001104019989214,2025-11-09 19h25.49.288282 +0530,
,Objects\188a.jpg,79,0,79,,,,,,,f,1.217792900002678,0.20204709999961779,None,,,,,,,79,0,79,0,430.8471591999987,,,,,,,,,,,,,,,,,,,,,,,430.8308029000036,430.8471591999987,431.3470429000008,431.33070180000504,,,,,,,,,,,,,,,,,,,,,,,,,,431.34172719999333,431.3470429000008,431.3470429000008,431.3470429000008,434.33057890000055,f,1.217792900002678,0.20204709999961779,434.33062350000546,434.3306333000073,None,434.3470113000076,434.3470113000076,434.3470113000076,,,,,,,,,,,,,,00006,001,2025-11-09_19h25.43.020,MST_task,2024.2.2,60.001104019989214,2025-11-09 19h25.49.288282 +0530,
,Objects\186a.jpg,80,0,80,,,,,,,f,0.8563029999932041,0.20991590000630822,None,,,,,,,80,0,80,0,434.3470113000076,,,,,,,,,,,,,,,,,,,,,,,434.33070760000555,434.3470113000076,434.84697129999404,434.83051060000435,,,,,,,,,,,,,,,,,,,,,,,,,,434.8405158999958,434.84697129999404,434.84697129999404,434.84697129999404,437.83047620000434,f,0.8563029999932041,0.20991590000630822,437.8305188999948,437.83052889999817,None,437.8469257999968,437.8469257999968,437.8469257999968,,,,,,,,,,,,,,00006,001,2025-11-09_19h25.43.020,MST_task,2024.2.2,60.001104019989214,2025-11-09 19h25.49.288282 +0530,
,Objects\059a.jpg,81,0,81,,,,,,,f,1.7359222999948543,0.16622929999721237,None,,,,,,,81,0,81,0,437.8469257999968,,,,,,,,,,,,,,,,,,,,,,,437.83058389999496,437.8469257999968,438.3468888000061,438.3304941999959,,,,,,,,,,,,,,,,,,,,,,,,,,438.3407426000049,438.3468888000061,438.3468888000061,438.3468888000061,441.3304275999981,f,1.7359222999948543,0.16622929999721237,441.3304708999931,441.3304804000072,None,441.3469771999953,441.3469771999953,441.3469771999953,,,,,,,,,,,,,,00006,001,2025-11-09_19h25.43.020,MST_task,2024.2.2,60.001104019989214,2025-11-09 19h25.49.288282 +0530,
,Objects\102a.jpg,82,0,82,,,,,,,f,0.989962599996943,0.2225412999978289,None,,,,,,,82,0,82,0,441.3469771999953,,,,,,,,,,,,,,,,,,,,,,,441.33055220000097,441.3469771999953,441.84681800000544,441.8304177999962,,,,,,,,,,,,,,,,,,,,,,,,,,441.84087679999357,441.84681800000544,441.84681800000544,441.84681800000544,444.83040150000306,f,0.989962599996943,0.2225412999978289,444.8304458000057,444.8304552000045,None,444.84677940000256,444.84677940000256,444.84677940000256,,,,,,,,,,,,,,00006,001,2025-11-09_19h25.43.020,MST_task,2024.2.2,60.001104019989214,2025-11-09 19h25.49.288282 +0530,
,Objects\080a.jpg,83,0,83,,,,,,,f,0.7145792999945115,0.16573559999233112,None,,,,,,,83,0,83,0,444.84677940000256,,,,,,,,,,,,,,,,,,,,,,,444.83050860000367,444.84677940000256,445.3467399999936,445.33024920000753,,,,,,,,,,,,,,,,,,,,,,,,,,445.34035929999663,445.3467399999936,445.3467399999936,445.3467399999936,448.33027890000085,f,0.7145792999945115,0.16573559999233112,448.3303297999955,448.3303394999966,None,448.3467335000023,448.3467335000023,448.3467335000023,,,,,,,,,,,,,,00006,001,2025-11-09_19h25.43.020,MST_task,2024.2.2,60.001104019989214,2025-11-09 19h25.49.288282 +0530,
,Scenes\116a.jpg,84,0,84,,,,,,,j,1.0580050999997184,0.21373920000041835,None,,,,,,,84,0,84,0,448.3467335000023,,,,,,,,,,,,,,,,,,,,,,,448.33039400000416,448.3467335000023,448.86365480000677,448.83020539999416,,,,,,,,,,,,,,,,,,,,,,,,,,448.8412754000019,448.86365480000677,448.86365480000677,448.86365480000677,451.8467716000014,j,1.0580050999997184,0.21373920000041835,451.846821500003,451.8468320999964,None,,,,,,,,,,,,,,,,,00006,001,2025-11-09_19h25.43.020,MST_task,2024.2.2,60.001104019989214,2025-11-09 19h25.49.288282 +0530,
,Scenes\037a.jpg,85,0,85,,,,,,,j,1.452185999994981,0.16107390000252053,None,,,,,,,85,0,85,0,451.8634328000044,,,,,,,,,,,,,,,,,,,,,,,451.84691130000283,451.8634328000044,452.38024009999936,452.3468053999968,,,,,,,,,,,,,,,,,,,,,,,,,,452.36070639999525,452.38024009999936,452.38024009999936,452.38024009999936,455.3632767999952,j,1.452185999994981,0.16107390000252053,455.3633245999954,455.3633350000018,None,,,,,,,,,,,,,,,,,00006,001,2025-11-09_19h25.43.020,MST_task,2024.2.2,60.001104019989214,2025-11-09 19h25.49.288282 +0530,
,Scenes\102a.jpg,86,0,86,,,,,,,j,2.2385789999971166,0.1625404999940656,None,,,,,,,86,0,86,0,455.3798856000067,,,,,,,,,,,,,,,,,,,,,,,455.3633947000053,455.3798856000067,455.8965104999952,455.86337490000005,,,,,,,,,,,,,,,,,,,,,,,,,,455.8774221000058,455.8965104999952,455.8965104999952,455.8965104999952,458.87983879999956,j,2.2385789999971166,0.1625404999940656,458.87988459999906,458.87989480000397,None,,,,,,,,,,,,,,,,,00006,001,2025-11-09_19h25.43.020,MST_task,2024.2.2,60.001104019989214,2025-11-09 19h25.49.288282 +0530,
,Scenes\002a.jpg,87,0,87,,,,,,,j,1.6180029999959515,0.16668429999845102,None,,,,,,,87,0,87,0,458.89651970000705,,,,,,,,,,,,,,,,,,,,,,,458.87997179999365,458.89651970000705,459.41331780000473,459.38002609999967,,,,,,,,,,,,,,,,,,,,,,,,,,459.3949855999963,459.41331780000473,459.41331780000473,459.41331780000473,462.396504999997,j,1.6180029999959515,0.16668429999845102,462.39654970000265,462.39655999999377,None,,,,,,,,,,,,,,,,,00006,001,2025-11-09_19h25.43.020,MST_task,2024.2.2,60.001104019989214,2025-11-09 19h25.49.288282 +0530,
,Scenes\088a.jpg,88,0,88,,,,,,,j,0.9230901999981143,0.17381199999363162,None,,,,,,,88,0,88,0,462.4131472000008,,,,,,,,,,,,,,,,,,,,,,,462.39663430000655,462.4131472000008,462.93001589999767,462.89668950000487,,,,,,,,,,,,,,,,,,,,,,,,,,462.91283909999765,462.93001589999767,462.93001589999767,462.93001589999767,465.91301610000664,j,0.9230901999981143,0.17381199999363162,465.91305970000394,465.91307049999887,None,,,,,,,,,,,,,,,,,00006,001,2025-11-09_19h25.43.020,MST_task,2024.2.2,60.001104019989214,2025-11-09 19h25.49.288282 +0530,
,Scenes\038a.jpg,89,0,89,,,,,,,j,0.6463228999928106,0.16686300000583287,None,,,,,,,89,0,89,0,465.9296539000061,,,,,,,,,,,,,,,,,,,,,,,465.91315930000565,465.9296539000061,466.4463063000003,466.41312529999414,,,,,,,,,,,,,,,,,,,,,,,,,,466.4279435000062,466.4463063000003,466.4463063000003,466.4463063000003,469.429607500002,j,0.6463228999928106,0.16686300000583287,469.42965590000676,469.4296660999971,None,,,,,,,,,,,,,,,,,00006,001,2025-11-09_19h25.43.020,MST_task,2024.2.2,60.001104019989214,2025-11-09 19h25.49.288282 +0530,
,Scenes\076a.jpg,90,0,90,,,,,,,j,0.8466492000006838,0.17310960000031628,None,,,,,,,90,0,90,0,469.446245500003,,,,,,,,,,,,,,,,,,,,,,,469.42974209999375,469.446245500003,469.9628792000003,469.9298359999957,,,,,,,,,,,,,,,,,,,,,,,,,,469.9456593000068,469.9628792000003,469.9628792000003,469.9628792000003,472.946240499994,j,0.8466492000006838,0.17310960000031628,472.9462851999997,472.94629619999614,None,,,,,,,,,,,,,,,,,00006,001,2025-11-09_19h25.43.020,MST_task,2024.2.2,60.001104019989214,2025-11-09 19h25.49.288282 +0530,
,Objects\060a.jpg,91,0,91,,,,,,,f,1.4447345999942627,0.20948350000253413,None,,,,,,,91,0,91,0,472.9628489000024,,,,,,,,,,,,,,,,,,,,,,,472.94637279999733,472.9628489000024,473.46313210000517,473.44634579999547,,,,,,,,,,,,,,,,,,,,,,,,,,473.4565822000004,473.46313210000517,473.46313210000517,473.46313210000517,476.44646540000394,f,1.4447345999942627,0.20948350000253413,476.4465160999971,476.44652589999896,None,476.46276029999717,476.46276029999717,476.46276029999717,,,,,,,,,,,,,,00006,001,2025-11-09_19h25.43.020,MST_task,2024.2.2,60.001104019989214,2025-11-09 19h25.49.288282 +0530,
,Objects\081a.jpg,92,0,92,,,,,,,j,1.052581399999326,0.1820196000044234,None,,,,,,,92,0,92,0,476.46276029999717,,,,,,,,,,,,,,,,,,,,,,,476.44658000000345,476.46276029999717,476.9627637999947,476.9463819999946,,,,,,,,,,,,,,,,,,,,,,,,,,476.95647960000497,476.9627637999947,476.9627637999947,476.9627637999947,479.9462688000058,j,1.052581399999326,0.1820196000044234,479.9463137999992,479.946323199998,None,479.96268539999437,479.96268539999437,479.96268539999437,,,,,,,,,,,,,,00006,001,2025-11-09_19h25.43.020,MST_task,2024.2.2,60.001104019989214,2025-11-09 19h25.49.288282 +0530,
,Objects\146a.jpg,93,0,93,,,,,,,j,1.4566504999966128,0.1821672999940347,None,,,,,,,93,0,93,0,479.96268539999437,,,,,,,,,,,,,,,,,,,,,,,479.9463761999941,479.96268539999437,480.462666499996,480.44617349999317,,,,,,,,,,,,,,,,,,,,,,,,,,480.4560197999963,480.462666499996,480.462666499996,480.462666499996,483.44620700000087,j,1.4566504999966128,0.1821672999940347,483.44626149999385,483.4462704000034,None,483.46260800000164,483.46260800000164,483.46260800000164,,,,,,,,,,,,,,00006,001,2025-11-09_19h25.43.020,MST_task,2024.2.2,60.001104019989214,2025-11-09 19h25.49.288282 +0530,
,Objects\142a.jpg,94,0,94,,,,,,,f,2.022818000012194,0.17327289999229833,None,,,,,,,94,0,94,0,483.46260800000164,,,,,,,,,,,,,,,,,,,,,,,483.44632479999564,483.46260800000164,483.9625735000009,483.9461180000071,,,,,,,,,,,,,,,,,,,,,,,,,,483.95630730000266,483.9625735000009,483.9625735000009,483.9625735000009,486.9461180000071,f,2.022818000012194,0.17327289999229833,486.94616269999824,486.9461722999986,None,486.9625357000041,486.9625357000041,486.9625357000041,,,,,,,,,,,,,,00006,001,2025-11-09_19h25.43.020,MST_task,2024.2.2,60.001104019989214,2025-11-09 19h25.49.288282 +0530,
,Objects\169a.jpg,95,0,95,,,,,,,j,2.1186603999958606,0.15965829999186099,None,,,,,,,95,0,95,0,486.9625357000041,,,,,,,,,,,,,,,,,,,,,,,486.94624699999986,486.9625357000041,487.46256189999986,487.44599360000575,,,,,,,,,,,,,,,,,,,,,,,,,,487.4559003000031,487.46256189999986,487.46256189999986,487.46256189999986,490.44607960000576,j,2.1186603999958606,0.15965829999186099,490.44611990000703,490.4461292000051,None,490.4624290000065,490.4624290000065,490.4624290000065,,,,,,,,,,,,,,00006,001,2025-11-09_19h25.43.020,MST_task,2024.2.2,60.001104019989214,2025-11-09 19h25.49.288282 +0530,
,Objects\110a.jpg,96,0,96,,,,,,,f,1.190402100008214,0.20639759999176022,None,,,,,,,96,0,96,0,490.4624290000065,,,,,,,,,,,,,,,,,,,,,,,490.4461789000052,490.4624290000065,490.962411600005,490.9459135999932,,,,,,,,,,,,,,,,,,,,,,,,,,490.95575989999634,490.962411600005,490.962411600005,490.962411600005,493.94605339999544,f,1.190402100008214,0.20639759999176022,493.94609680000576,493.94610600000306,None,493.96235469999374,493.96235469999374,493.96235469999374,,,,,,,,,,,,,,00006,001,2025-11-09_19h25.43.020,MST_task,2024.2.2,60.001104019989214,2025-11-09 19h25.49.288282 +0530,
,Objects\069a.jpg,97,0,97,,,,,,,j,1.190642099987599,0.17867300000216346,None,,,,,,,97,0,97,0,493.96235469999374,,,,,,,,,,,,,,,,,,,,,,,493.94616069999756,493.96235469999374,494.46233930000744,494.4458955000009,,,,,,,,,,,,,,,,,,,,,,,,,,494.4563208000036,494.46233930000744,494.46233930000744,494.46233930000744,497.44588600000134,j,1.190642099987599,0.17867300000216346,497.4459282000025,497.44593780000287,None,497.46227770000405,497.46227770000405,497.46227770000405,,,,,,,,,,,,,,00006,001,2025-11-09_19h25.43.020,MST_task,2024.2.2,60.001104019989214,2025-11-09 19h25.49.288282 +0530,
,Scenes\126a.jpg,98,0,98,,,,,,,j,1.086974599995301,0.16608490000362508,None,,,,,,,98,0,98,0,497.46227770000405,,,,,,,,,,,,,,,,,,,,,,,497.44600729999365,497.46227770000405,497.9624732999946,497.94595870000194,,,,,,,,,,,,,,,,,,,,,,,,,,497.95588720000524,497.9624732999946,497.9624732999946,497.9624732999946,500.94584850000683,j,1.086974599995301,0.16608490000362508,500.94589540000015,500.9459077000065,None,500.9622105000017,500.9622105000017,500.9622105000017,,,,,,,,,,,,,,00006,001,2025-11-09_19h25.43.020,MST_task,2024.2.2,60.001104019989214,2025-11-09 19h25.49.288282 +0530,
,Scenes\132a.jpg,99,0,99,,,,,,,j,2.5605773999996018,0.16618410000228323,None,,,,,,,99,0,99,0,500.9622105000017,,,,,,,,,,,,,,,,,,,,,,,500.94598889999907,500.9622105000017,501.46220330000506,501.4457997999998,,,,,,,,,,,,,,,,,,,,,,,,,,501.45001099999354,501.46220330000506,501.46220330000506,501.46220330000506,504.4457095999969,j,2.5605773999996018,0.16618410000228323,504.4457512999943,504.44576050000614,None,504.46215920000395,504.46215920000395,504.46215920000395,,,,,,,,,,,,,,00006,001,2025-11-09_19h25.43.020,MST_task,2024.2.2,60.001104019989214,2025-11-09 19h25.49.288282 +0530,
,Scenes\069a.jpg,100,0,100,,,,,,,j,2.026855299991439,0.17419220000738278,None,,,,,,,100,0,100,0,504.46215920000395,,,,,,,,,,,,,,,,,,,,,,,504.4458137000038,504.46215920000395,504.9621211000049,504.9456608000037,,,,,,,,,,,,,,,,,,,,,,,,,,504.9497968000069,504.9621211000049,504.9621211000049,504.9621211000049,507.94564839999657,j,2.026855299991439,0.17419220000738278,507.94569039999624,507.9456999999966,None,507.9620999000035,507.9620999000035,507.9620999000035,,,,,,,,,,,,,,00006,001,2025-11-09_19h25.43.020,MST_task,2024.2.2,60.001104019989214,2025-11-09 19h25.49.288282 +0530,
,Scenes\034a.jpg,101,0,101,,,,,,,j,0.8366215999994893,0.19754189999366645,None,,,,,,,101,0,101,0,507.9620999000035,,,,,,,,,,,,,,,,,,,,,,,507.94577469999786,507.9620999000035,508.4790670000075,508.4456729999947,,,,,,,,,,,,,,,,,,,,,,,,,,508.466311199998,508.4790670000075,508.4790670000075,508.4790670000075,511.46203609999793,j,0.8366215999994893,0.19754189999366645,511.4620836999966,511.4620939000015,None,,,,,,,,,,,,,,,,,00006,001,2025-11-09_19h25.43.020,MST_task,2024.2.2,60.001104019989214,2025-11-09 19h25.49.288282 +0530,
,Scenes\106a.jpg,102,0,102,,,,,,,j,0.7754515999986324,0.1700704999966547,None,,,,,,,102,0,102,0,511.4786400000012,,,,,,,,,,,,,,,,,,,,,,,511.4621677999967,511.4786400000012,511.99530130000494,511.96216120000463,,,,,,,,,,,,,,,,,,,,,,,,,,511.9744903999963,511.99530130000494,511.99530130000494,511.99530130000494,514.9786520000052,j,0.7754515999986324,0.1700704999966547,514.9787107000011,514.978720900006,None,,,,,,,,,,,,,,,,,00006,001,2025-11-09_19h25.43.020,MST_task,2024.2.2,60.001104019989214,2025-11-09 19h25.49.288282 +0530,
,Scenes\053a.jpg,103,0,103,,,,,,,j,0.807398099990678,0.18158990000665653,None,,,,,,,103,0,103,0,514.9952343000041,,,,,,,,,,,,,,,,,,,,,,,514.9788016999955,514.9952343000041,515.4956311999995,515.4787482999964,,,,,,,,,,,,,,,,,,,,,,,,,,515.4858233999985,515.4956311999995,515.4956311999995,515.4956311999995,518.4787744000059,j,0.807398099990678,0.18158990000665653,518.4788155999995,518.4788250999991,None,518.4951602000074,518.4951602000074,518.4951602000074,,,,,,,,,,,,,,00006,001,2025-11-09_19h25.43.020,MST_task,2024.2.2,60.001104019989214,2025-11-09 19h25.49.288282 +0530,
,Scenes\104a.jpg,104,0,104,,,,,,,j,2.661019100007252,0.2237713999929838,None,,,,,,,104,0,104,0,518.4951602000074,,,,,,,,,,,,,,,,,,,,,,,518.4788954999967,518.4951602000074,519.0120199999947,518.9786905999936,,,,,,,,,,,,,,,,,,,,,,,,,,518.9907800000074,519.0120199999947,519.0120199999947,519.0120199999947,521.9951862000016,j,2.661019100007252,0.2237713999929838,521.9952312999958,521.9952424999938,None,,,,,,,,,,,,,,,,,00006,001,2025-11-09_19h25.43.020,MST_task,2024.2.2,60.001104019989214,2025-11-09 19h25.49.288282 +0530,
,Objects\143a.jpg,105,0,105,,,,,,,j,2.313131400005659,0.1775640999985626,None,,,,,,,105,0,105,0,522.0117458000022,,,,,,,,,,,,,,,,,,,,,,,521.9953007000004,522.0117458000022,522.5119462000002,522.4953804999968,,,,,,,,,,,,,,,,,,,,,,,,,,522.5057649999944,522.5119462000002,522.5119462000002,522.5119462000002,525.4953449000022,j,2.313131400005659,0.1775640999985626,525.495393499994,525.4954033999966,None,525.5116982000036,525.5116982000036,525.5116982000036,,,,,,,,,,,,,,00006,001,2025-11-09_19h25.43.020,MST_task,2024.2.2,60.001104019989214,2025-11-09 19h25.49.288282 +0530,
,Objects\151a.jpg,106,0,106,,,,,,,f,2.2572714000125416,0.21357829999760725,None,,,,,,,106,0,106,0,525.5116982000036,,,,,,,,,,,,,,,,,,,,,,,525.4954584999941,525.5116982000036,526.028330000001,525.9951812999934,,,,,,,,,,,,,,,,,,,,,,,,,,526.0141532999987,526.028330000001,526.028330000001,526.028330000001,529.0116505000042,f,2.2572714000125416,0.21357829999760725,529.0117226000002,529.0117342000012,None,,,,,,,,,,,,,,,,,00006,001,2025-11-09_19h25.43.020,MST_task,2024.2.2,60.001104019989214,2025-11-09 19h25.49.288282 +0530,
,Objects\159a.jpg,107,0,107,,,,,,,f,0.618811000007554,0.20824059999722522,None,,,,,,,107,0,107,0,529.0282957000018,,,,,,,,,,,,,,,,,,,,,,,529.0117923000071,529.0282957000018,529.5282613000018,529.511866300003,,,,,,,,,,,,,,,,,,,,,,,,,,529.521497099995,529.5282613000018,529.5282613000018,529.5282613000018,532.5118183000013,f,0.618811000007554,0.20824059999722522,532.5118605000025,532.5118701000029,None,532.5282198000059,532.5282198000059,532.5282198000059,,,,,,,,,,,,,,00006,001,2025-11-09_19h25.43.020,MST_task,2024.2.2,60.001104019989214,2025-11-09 19h25.49.288282 +0530,
,Objects\040a.jpg,108,0,108,,,,,,,f,0.5310067999962484,0.19009570000343956,None,,,,,,,108,0,108,0,532.5282198000059,,,,,,,,,,,,,,,,,,,,,,,532.5119449000049,532.5282198000059,533.028171900005,533.0117043000064,,,,,,,,,,,,,,,,,,,,,,,,,,533.021265000003,533.028171900005,533.028171900005,533.028171900005,536.011731999999,f,0.5310067999962484,0.19009570000343956,536.0117739999987,536.0117830999952,None,536.0281107000046,536.0281107000046,536.0281107000046,,,,,,,,,,,,,,00006,001,2025-11-09_19h25.43.020,MST_task,2024.2.2,60.001104019989214,2025-11-09 19h25.49.288282 +0530,
,Objects\120a.jpg,109,0,109,,,,,,,f,1.3534225000039442,0.20975429999816697,None,,,,,,,109,0,109,0,536.0281107000046,,,,,,,,,,,,,,,,,,,,,,,536.0118365999951,536.0281107000046,536.528098499999,536.5117959000054,,,,,,,,,,,,,,,,,,,,,,,,,,536.5219708999939,536.528098499999,536.528098499999,536.528098499999,539.5116600000038,f,1.3534225000039442,0.20975429999816697,539.5117052999994,539.5117144999967,None,539.5280579999962,539.5280579999962,539.5280579999962,,,,,,,,,,,,,,00006,001,2025-11-09_19h25.43.020,MST_task,2024.2.2,60.001104019989214,2025-11-09 19h25.49.288282 +0530,
,Objects\144a.jpg,110,0,110,,,,,,,f,1.7965682999929413,0.18328300000575837,None,,,,,,,110,0,110,0,539.5280579999962,,,,,,,,,,,,,,,,,,,,,,,539.5117667000013,539.5280579999962,540.0280629000044,540.0117749000055,,,,,,,,,,,,,,,,,,,,,,,,,,540.023597899999,540.0280629000044,540.0280629000044,540.0280629000044,543.0117063999933,f,1.7965682999929413,0.18328300000575837,543.0117525999958,543.0117622999969,None,543.0279574000015,543.0279574000015,543.0279574000015,,,,,,,,,,,,,,00006,001,2025-11-09_19h25.43.020,MST_task,2024.2.2,60.001104019989214,2025-11-09 19h25.49.288282 +0530,
,Objects\082a.jpg,111,0,111,,,,,,,j,1.641680400003679,0.18580179999116808,None,,,,,,,111,0,111,0,543.0279574000015,,,,,,,,,,,,,,,,,,,,,,,543.0118425999972,543.0279574000015,543.5279415999976,543.5115942999983,,,,,,,,,,,,,,,,,,,,,,,,,,543.5231615999946,543.5279415999976,543.5279415999976,543.5279415999976,546.5114761000004,j,1.641680400003679,0.18580179999116808,546.5115205000038,546.5115318000026,None,546.5279231000022,546.5279231000022,546.5279231000022,,,,,,,,,,,,,,00006,001,2025-11-09_19h25.43.020,MST_task,2024.2.2,60.001104019989214,2025-11-09 19h25.49.288282 +0530,
,Scenes\166a.jpg,112,0,112,,,,,,,j,1.8795022999984212,0.2088515999930678,None,,,,,,,112,0,112,0,546.5279231000022,,,,,,,,,,,,,,,,,,,,,,,546.5116101000021,546.5279231000022,547.0278741000075,547.0114085999958,,,,,,,,,,,,,,,,,,,,,,,,,,547.0197779000009,547.0278741000075,547.0278741000075,547.0278741000075,550.0114273999934,j,1.8795022999984212,0.2088515999930678,550.0114717999968,550.0114815999987,None,550.0278445000004,550.0278445000004,550.0278445000004,,,,,,,,,,,,,,00006,001,2025-11-09_19h25.43.020,MST_task,2024.2.2,60.001104019989214,2025-11-09 19h25.49.288282 +0530,
,Scenes\179a.jpg,113,0,113,,,,,,,j,1.1279479999939213,0.1505372000101488,None,,,,,,,113,0,113,0,550.0278445000004,,,,,,,,,,,,,,,,,,,,,,,550.0115385999961,550.0278445000004,550.528034899995,550.5113883000013,,,,,,,,,,,,,,,,,,,,,,,,,,550.5207993999938,550.528034899995,550.528034899995,550.528034899995,553.5113585999934,j,1.1279479999939213,0.1505372000101488,553.5114044000075,553.5114139999932,None,553.5277673999954,553.5277673999954,553.5277673999954,,,,,,,,,,,,,,00006,001,2025-11-09_19h25.43.020,MST_task,2024.2.2,60.001104019989214,2025-11-09 19h25.49.288282 +0530,
,Scenes\020a.jpg,114,0,114,,,,,,,f,1.1684448000014527,0.1943693999928655,None,,,,,,,114,0,114,0,553.5277673999954,,,,,,,,,,,,,,,,,,,,,,,553.511465699994,553.5277673999954,554.0446669999947,554.0113508000068,,,,,,,,,,,,,,,,,,,,,,,,,,554.0275813000044,554.0446669999947,554.0446669999947,554.0446669999947,557.0276885000058,f,1.1684448000014527,0.1943693999928655,557.0277341000037,557.0277440000064,None,,,,,,,,,,,,,,,,,00006,001,2025-11-09_19h25.43.020,MST_task,2024.2.2,60.001104019989214,2025-11-09 19h25.49.288282 +0530,
,Scenes\172a.jpg,115,0,115,,,,,,,j,0.5836248999985401,0.2113718000036897,None,,,,,,,115,0,115,0,557.0443549000047,,,,,,,,,,,,,,,,,,,,,,,557.0278339999932,557.0443549000047,557.5612680000049,557.5278393000044,,,,,,,,,,,,,,,,,,,,,,,,,,557.5386842000007,557.5612680000049,557.5612680000049,557.5612680000049,560.544320800007,j,0.5836248999985401,0.2113718000036897,560.5443633999967,560.5443737000023,None,,,,,,,,,,,,,,,,,00006,001,2025-11-09_19h25.43.020,MST_task,2024.2.2,60.001104019989214,2025-11-09 19h25.49.288282 +0530,
,Scenes\079a.jpg,116,0,116,,,,,,,j,1.247521900004358,0.25470980000682175,None,,,,,,,116,0,116,0,560.5609083000018,,,,,,,,,,,,,,,,,,,,,,,560.5444293000037,560.5609083000018,,561.0444355999934,,,,,,,,,,,,,,,,,,,,,,,,,,561.0540402000042,561.0611723000038,561.0611723000038,561.0611723000038,564.0444022000011,j,1.247521900004358,0.25470980000682175,564.0444431999931,564.0444509999943,None,564.0608357000019,564.0608357000019,564.0608357000019,,,,,,,,,,,,,,00006,001,2025-11-09_19h25.43.020,MST_task,2024.2.2,60.001104019989214,2025-11-09 19h25.49.288282 +0530,
,Scenes\071a.jpg,117,0,117,,,,,,,j,2.849423999999999,None,None,,,,,,,117,0,117,0,564.0608357000019,,,,,,,,,,,,,,,,,,,,,,,564.0445218999957,564.0608357000019,564.5778030999936,564.5444126000075,,,,,,,,,,,,,,,,,,,,,,,,,,564.556832000002,564.5778030999936,564.5778030999936,564.5778030999936,567.5609541000013,j,2.849423999999999,None,567.5610014999984,567.5610121000063,None,,,,,,,,,,,,,,,,,00006,001,2025-11-09_19h25.43.020,MST_task,2024.2.2,60.001104019989214,2025-11-09 19h25.49.288282 +0530,
,Scenes\159a.jpg,118,0,118,,,,,,,j,1.130694899999071,0.23788289999356493,None,,,,,,,118,0,118,0,567.5774305999948,,,,,,,,,,,,,,,,,,,,,,,567.5610673000047,567.5774305999948,568.0942909000005,568.0609945000033,,,,,,,,,,,,,,,,,,,,,,,,,,568.0745549999992,568.0942909000005,568.0942909000005,568.0942909000005,571.0775240999938,j,1.130694899999071,0.23788289999356493,571.0775717999932,571.077588900007,None,,,,,,,,,,,,,,,,,00006,001,2025-11-09_19h25.43.020,MST_task,2024.2.2,60.001104019989214,2025-11-09 19h25.49.288282 +0530,
,Objects\107a.jpg,119,0,119,,,,,,,f,1.994848100002855,0.1857593999884557,None,,,,,,,119,0,119,0,571.0940544000041,,,,,,,,,,,,,,,,,,,,,,,571.0776679999981,571.0940544000041,571.5942803999933,571.5776104999968,,,,,,,,,,,,,,,,,,,,,,,,,,571.5876597000024,571.5942803999933,571.5942803999933,571.5942803999933,574.5776566999994,f,1.994848100002855,0.1857593999884557,574.5777022999973,574.577712600003,None,574.593944799999,574.593944799999,574.593944799999,,,,,,,,,,,,,,00006,001,2025-11-09_19h25.43.020,MST_task,2024.2.2,60.001104019989214,2025-11-09 19h25.49.288282 +0530,
,Objects\150a.jpg,120,0,120,,,,,,,f,1.134840799990343,0.16301600000588223,None,,,,,,,120,0,120,0,574.593944799999,,,,,,,,,,,,,,,,,,,,,,,574.5777890000027,574.593944799999,575.1106422000012,575.0775144999934,,,,,,,,,,,,,,,,,,,,,,,,,,575.0951978999947,575.1106422000012,575.1106422000012,575.1106422000012,578.0939074000053,f,1.134840799990343,0.16301600000588223,578.0939707999933,578.0939859000064,None,,,,,,,,,,,,,,,,,00006,001,2025-11-09_19h25.43.020,MST_task,2024.2.2,60.001104019989214,2025-11-09 19h25.49.288282 +0530,
,Objects\111a.jpg,121,0,121,,,,,,,f,1.3081459999957588,0.18852419999893755,None,,,,,,,121,0,121,0,578.1106173000007,,,,,,,,,,,,,,,,,,,,,,,578.0940511999943,578.1106173000007,578.6105327999976,578.5940069000062,,,,,,,,,,,,,,,,,,,,,,,,,,578.6035473999946,578.6105327999976,578.6105327999976,578.6105327999976,581.5940413000062,f,1.3081459999957588,0.18852419999893755,581.5940845000005,581.5940937999985,None,581.6104938000062,581.6104938000062,581.6104938000062,,,,,,,,,,,,,,00006,001,2025-11-09_19h25.43.020,MST_task,2024.2.2,60.001104019989214,2025-11-09 19h25.49.288282 +0530,
,Objects\045a.jpg,122,0,122,,,,,,,f,1.1466191000072286,0.21000479999929667,None,,,,,,,122,0,122,0,581.6104938000062,,,,,,,,,,,,,,,,,,,,,,,581.5941650000022,581.6104938000062,582.1104477000044,582.0939307999943,,,,,,,,,,,,,,,,,,,,,,,,,,582.1038900999993,582.1104477000044,582.1104477000044,582.1104477000044,585.0940185999934,f,1.1466191000072286,0.21000479999929667,585.0940607999946,585.094069800005,None,585.1104365000065,585.1104365000065,585.1104365000065,,,,,,,,,,,,,,00006,001,2025-11-09_19h25.43.020,MST_task,2024.2.2,60.001104019989214,2025-11-09 19h25.49.288282 +0530,
,Objects\121a.jpg,123,0,123,,,,,,,f,2.0483096999960253,0.18293249999987893,None,,,,,,,123,0,123,0,585.1104365000065,,,,,,,,,,,,,,,,,,,,,,,585.0941438000009,585.1104365000065,585.6103682999965,585.5939982999989,,,,,,,,,,,,,,,,,,,,,,,,,,585.604324400003,585.6103682999965,585.6103682999965,585.6103682999965,588.5940337000065,f,2.0483096999960253,0.18293249999987893,588.5940750000009,588.5940838999959,None,588.6103414999961,588.6103414999961,588.6103414999961,,,,,,,,,,,,,,00006,001,2025-11-09_19h25.43.020,MST_task,2024.2.2,60.001104019989214,2025-11-09 19h25.49.288282 +0530,
,Objects\104a.jpg,124,0,124,,,,,,,f,0.6763261000014609,0.2924438999907579,None,,,,,,,124,0,124,0,588.6103414999961,,,,,,,,,,,,,,,,,,,,,,,588.594137299995,588.6103414999961,589.1102998999995,589.0939535999933,,,,,,,,,,,,,,,,,,,,,,,,,,589.1040266000055,589.1102998999995,589.1102998999995,589.1102998999995,592.0939792999998,f,0.6763261000014609,0.2924438999907579,592.0940238000039,592.094033500005,None,592.1102394000045,592.1102394000045,592.1102394000045,,,,,,,,,,,,,,00006,001,2025-11-09_19h25.43.020,MST_task,2024.2.2,60.001104019989214,2025-11-09 19h25.49.288282 +0530,
,Objects\155a.jpg,125,0,125,,,,,,,f,0.6705367999966256,0.20399040001211688,None,,,,,,,125,0,125,0,592.1102394000045,,,,,,,,,,,,,,,,,,,,,,,592.094105199998,592.1102394000045,592.6102238000021,592.5938656000071,,,,,,,,,,,,,,,,,,,,,,,,,,592.6054535000003,592.6102238000021,592.6102238000021,592.6102238000021,595.5939650000073,f,0.6705367999966256,0.20399040001211688,595.5940124000044,595.5940226999955,None,595.610282099995,595.610282099995,595.610282099995,,,,,,,,,,,,,,00006,001,2025-11-09_19h25.43.020,MST_task,2024.2.2,60.001104019989214,2025-11-09 19h25.49.288282 +0530,
,Scenes\010a.jpg,126,0,126,,,,,,,j,1.0032035000040196,0.1732754999975441,None,,,,,,,126,0,126,0,595.610282099995,,,,,,,,,,,,,,,,,,,,,,,595.5941049999965,595.610282099995,596.1269464999932,596.0937973999971,,,,,,,,,,,,,,,,,,,,,,,,,,596.1071363999945,596.1269464999932,596.1269464999932,596.1269464999932,599.1101710999937,j,1.0032035000040196,0.1732754999975441,599.110214100001,599.1102244000067,None,,,,,,,,,,,,,,,,,00006,001,2025-11-09_19h25.43.020,MST_task,2024.2.2,60.001104019989214,2025-11-09 19h25.49.288282 +0530,
,Scenes\041a.jpg,127,0,127,,,,,,,j,0.6433891000051517,0.15583760000299662,None,,,,,,,127,0,127,0,599.1267457000067,,,,,,,,,,,,,,,,,,,,,,,599.1103115000005,599.1267457000067,599.6434299999964,599.6102642000042,,,,,,,,,,,,,,,,,,,,,,,,,,599.6226823000034,599.6434299999964,599.6434299999964,599.6434299999964,602.6267406999978,j,0.6433891000051517,0.15583760000299662,602.6267858000065,602.6267958999961,None,,,,,,,,,,,,,,,,,00006,001,2025-11-09_19h25.43.020,MST_task,2024.2.2,60.001104019989214,2025-11-09 19h25.49.288282 +0530,
,Scenes\060a.jpg,128,0,128,,,,,,,j,0.6572537000029115,0.16958149999845773,None,,,,,,,128,0,128,0,602.6433741999936,,,,,,,,,,,,,,,,,,,,,,,602.6268528999935,602.6433741999936,603.1602653000009,603.1268502000021,,,,,,,,,,,,,,,,,,,,,,,,,,603.1413901000051,603.1602653000009,603.1602653000009,603.1602653000009,606.1268251000001,j,0.6572537000029115,0.16958149999845773,606.1268698000058,606.1269090999995,None,,,,,,,,,,,,,,,,,00006,001,2025-11-09_19h25.43.020,MST_task,2024.2.2,60.001104019989214,2025-11-09 19h25.49.288282 +0530,
,Scenes\177a.jpg,129,0,129,,,,,,,j,1.64855979999993,0.23631910000403877,None,,,,,,,129,0,129,0,606.1432688000059,,,,,,,,,,,,,,,,,,,,,,,606.1269827999931,606.1432688000059,606.6599205999955,606.6268606999947,,,,,,,,,,,,,,,,,,,,,,,,,,606.6379530999984,606.6599205999955,606.6599205999955,606.6599205999955,609.6433204000059,j,1.64855979999993,0.23631910000403877,609.6433636000002,609.6433736000035,None,,,,,,,,,,,,,,,,,00006,001,2025-11-09_19h25.43.020,MST_task,2024.2.2,60.001104019989214,2025-11-09 19h25.49.288282 +0530,
,Scenes\084a.jpg,130,0,130,,,,,,,j,0.6382434999977704,0.2403234999947017,None,,,,,,,130,0,130,0,609.6599759999954,,,,,,,,,,,,,,,,,,,,,,,609.6434308000025,609.6599759999954,610.1766289999941,610.1435359000025,,,,,,,,,,,,,,,,,,,,,,,,,,610.156816600007,610.1766289999941,610.1766289999941,610.1766289999941,613.1599088999938,j,0.6382434999977704,0.2403234999947017,613.1599558000016,613.159966399995,None,,,,,,,,,,,,,,,,,00006,001,2025-11-09_19h25.43.020,MST_task,2024.2.2,60.001104019989214,2025-11-09 19h25.49.288282 +0530,
,Scenes\039a.jpg,131,0,131,,,,,,,j,0.8299676999886287,0.19382150001183618,None,,,,,,,131,0,131,0,613.1765969999979,,,,,,,,,,,,,,,,,,,,,,,613.1600432999985,613.1765969999979,613.6932214999979,613.6600577000063,,,,,,,,,,,,,,,,,,,,,,,,,,613.6760056000057,613.6932214999979,613.6932214999979,613.6932214999979,616.6765076000011,j,0.8299676999886287,0.19382150001183618,616.6765780999995,616.6765883000044,None,,,,,,,,,,,,,,,,,00006,001,2025-11-09_19h25.43.020,MST_task,2024.2.2,60.001104019989214,2025-11-09 19h25.49.288282 +0530,
,Scenes\162a.jpg,132,0,132,,,,,,,j,2.8223152999999,None,None,,,,,,,132,0,132,0,616.6931964999967,,,,,,,,,,,,,,,,,,,,,,,616.6766632000072,616.6931964999967,617.1931215999939,617.1767592999968,,,,,,,,,,,,,,,,,,,,,,,,,,617.180826900003,617.1931215999939,617.1931215999939,617.1931215999939,620.1766768999951,j,2.8223152999999,None,620.1767216000007,620.1767316000041,None,620.1930808000034,620.1930808000034,620.1930808000034,,,,,,,,,,,,,,00006,001,2025-11-09_19h25.43.020,MST_task,2024.2.2,60.001104019989214,2025-11-09 19h25.49.288282 +0530,
,Objects\078a.jpg,133,0,133,,,,,,,j,1.565533700006199,0.21426940000674222,None,,,,,,,133,0,133,0,620.1930808000034,,,,,,,,,,,,,,,,,,,,,,,620.1768084999931,620.1930808000034,620.693300400002,620.6766086999996,,,,,,,,,,,,,,,,,,,,,,,,,,620.6868345999974,620.693300400002,620.693300400002,620.693300400002,623.6766205000022,j,1.565533700006199,0.21426940000674222,623.676664700004,623.6766745000059,None,623.6930488999933,623.6930488999933,623.6930488999933,,,,,,,,,,,,,,00006,001,2025-11-09_19h25.43.020,MST_task,2024.2.2,60.001104019989214,2025-11-09 19h25.49.288282 +0530,
,Objects\154a.jpg,134,0,134,,,,,,,f,1.833847899993998,0.1450224000000162,None,,,,,,,134,0,134,0,623.6930488999933,,,,,,,,,,,,,,,,,,,,,,,623.676727500002,623.6930488999933,624.1929789999995,624.1766747000074,,,,,,,,,,,,,,,,,,,,,,,,,,624.1866368000046,624.1929789999995,624.1929789999995,624.1929789999995,627.1765790000063,f,1.833847899993998,0.1450224000000162,627.1766274999973,627.1766378000029,None,627.1930687999993,627.1930687999993,627.1930687999993,,,,,,,,,,,,,,00006,001,2025-11-09_19h25.43.020,MST_task,2024.2.2,60.001104019989214,2025-11-09 19h25.49.288282 +0530,
,Objects\064a.jpg,135,0,135,,,,,,,j,1.9821305999939796,0.16646530000434723,None,,,,,,,135,0,135,0,627.1930687999993,,,,,,,,,,,,,,,,,,,,,,,627.1767185000062,627.1930687999993,627.6929168000061,627.6765733000066,,,,,,,,,,,,,,,,,,,,,,,,,,627.6864586000011,627.6929168000061,627.6929168000061,627.6929168000061,630.6765179000067,j,1.9821305999939796,0.16646530000434723,630.676564399997,630.6765748000034,None,630.6929172999953,630.6929172999953,630.6929172999953,,,,,,,,,,,,,,00006,001,2025-11-09_19h25.43.020,MST_task,2024.2.2,60.001104019989214,2025-11-09 19h25.49.288282 +0530,
,Objects\002a.jpg,136,0,136,,,,,,,j,2.2768842999939807,0.1812594000075478,None,,,,,,,136,0,136,0,630.6929172999953,,,,,,,,,,,,,,,,,,,,,,,630.6766562999983,630.6929172999953,631.1928436000017,631.1763452000014,,,,,,,,,,,,,,,,,,,,,,,,,,631.1859876999952,631.1928436000017,631.1928436000017,631.1928436000017,634.176372700007,j,2.2768842999939807,0.1812594000075478,634.1764182000043,634.1764281000069,None,634.1927780999977,634.1927780999977,634.1927780999977,,,,,,,,,,,,,,00006,001,2025-11-09_19h25.43.020,MST_task,2024.2.2,60.001104019989214,2025-11-09 19h25.49.288282 +0530,
,Objects\013a.jpg,137,0,137,,,,,,,f,1.1305602000065846,0.20176999999966938,None,,,,,,,137,0,137,0,634.1927780999977,,,,,,,,,,,,,,,,,,,,,,,634.1764972999954,634.1927780999977,634.6927432999946,634.6762137000042,,,,,,,,,,,,,,,,,,,,,,,,,,634.6857904000062,634.6927432999946,634.6927432999946,634.6927432999946,637.6762821000011,f,1.1305602000065846,0.20176999999966938,637.6763279000006,637.676338300007,None,637.6926986000035,637.6926986000035,637.6926986000035,,,,,,,,,,,,,,00006,001,2025-11-09_19h25.43.020,MST_task,2024.2.2,60.001104019989214,2025-11-09 19h25.49.288282 +0530,
,Objects\006a.jpg,138,0,138,,,,,,,None,,,j,0.4823018999886699,None,,,,,138,0,138,0,637.6926986000035,,,,,,,,,,,,,,,,,,,,,,,637.6763945999992,637.6926986000035,638.1926706999948,638.1761912999937,,,,,,,,,,,,,,,,,,,,,,,,,,638.1855457000056,638.1926706999948,638.1926706999948,638.1926706999948,641.1761167999939,None,,,641.1761555999983,641.6762626999989,j,641.1925322000025,641.1925322000025,641.1925322000025,641.1925322000025,641.1925322000025,0.4823018999886699,None,,,,,,,,,,00006,001,2025-11-09_19h25.43.020,MST_task,2024.2.2,60.001104019989214,2025-11-09 19h25.49.288282 +0530,
,Objects\147a.jpg,139,0,139,,,,,,,f,1.2567875000095228,0.17831789999036118,None,,,,,,,139,0,139,0,641.6925277999981,,,,,,,,,,,,,,,,,,,,,,,641.6763454000029,641.6925277999981,642.1924854999961,642.1761256000027,,,,,,,,,,,,,,,,,,,,,,,,,,642.1861616999959,642.1924854999961,642.1924854999961,642.1924854999961,645.1761348,f,1.2567875000095228,0.17831789999036118,645.1761832000047,645.1761957999988,None,645.1924149999977,645.1924149999977,645.1924149999977,,,,,,,,,,,,,,00006,001,2025-11-09_19h25.43.020,MST_task,2024.2.2,60.001104019989214,2025-11-09 19h25.49.288282 +0530,
,Scenes\029a.jpg,140,0,140,,,,,,,j,0.912448700008099,0.24775969999609515,None,,,,,,,140,0,140,0,645.1924149999977,,,,,,,,,,,,,,,,,,,,,,,645.1762502000056,645.1924149999977,645.7090730000054,645.6761184000061,,,,,,,,,,,,,,,,,,,,,,,,,,645.6892272999976,645.7090730000054,645.7090730000054,645.7090730000054,648.6925368999946,j,0.912448700008099,0.24775969999609515,648.6925959000073,648.6926067000022,None,,,,,,,,,,,,,,,,,00006,001,2025-11-09_19h25.43.020,MST_task,2024.2.2,60.001104019989214,2025-11-09 19h25.49.288282 +0530,
,Scenes\043a.jpg,141,0,141,,,,,,,j,0.7629180000076303,0.2590061999944737,None,,,,,,,141,0,141,0,648.7090313999943,,,,,,,,,,,,,,,,,,,,,,,648.6927031999949,648.7090313999943,649.209004999997,649.1925095000042,,,,,,,,,,,,,,,,,,,,,,,,,,649.200294299997,649.209004999997,649.209004999997,649.209004999997,652.1925330999948,j,0.7629180000076303,0.2590061999944737,652.1925755999982,652.1925855000009,None,652.2089383999992,652.2089383999992,652.2089383999992,,,,,,,,,,,,,,00006,001,2025-11-09_19h25.43.020,MST_task,2024.2.2,60.001104019989214,2025-11-09 19h25.49.288282 +0530,
,Scenes\191a.jpg,142,0,142,,,,,,,j,2.57354190001206,0.15072309999959543,None,,,,,,,142,0,142,0,652.2089383999992,,,,,,,,,,,,,,,,,,,,,,,652.192659399996,652.2089383999992,652.7092873999936,652.6925665000017,,,,,,,,,,,,,,,,,,,,,,,,,,652.7017263000016,652.7092873999936,652.7092873999936,652.7092873999936,655.6925957000058,j,2.57354190001206,0.15072309999959543,655.6926423999976,655.6926519999979,None,655.7088641000009,655.7088641000009,655.7088641000009,,,,,,,,,,,,,,00006,001,2025-11-09_19h25.43.020,MST_task,2024.2.2,60.001104019989214,2025-11-09 19h25.49.288282 +0530,
,Scenes\092a.jpg,143,0,143,,,,,,,j,2.149696699998458,0.16186520000337623,None,,,,,,,143,0,143,0,655.7088641000009,,,,,,,,,,,,,,,,,,,,,,,655.692704800007,655.7088641000009,656.2255336999951,656.192466499997,,,,,,,,,,,,,,,,,,,,,,,,,,656.2033071000042,656.2255336999951,656.2255336999951,656.2255336999951,659.2089759999944,j,2.149696699998458,0.16186520000337623,659.2090274999937,659.2090375999978,None,,,,,,,,,,,,,,,,,00006,001,2025-11-09_19h25.43.020,MST_task,2024.2.2,60.001104019989214,2025-11-09 19h25.49.288282 +0530,
,Scenes\066a.jpg,144,0,144,,,,,,,j,0.8466238000110025,0.24413479999930132,None,,,,,,,144,0,144,0,659.2254524000018,,,,,,,,,,,,,,,,,,,,,,,659.2090936000022,659.2254524000018,659.7424242999987,659.7090794999967,,,,,,,,,,,,,,,,,,,,,,,,,,659.7289135000028,659.7424242999987,659.7424242999987,659.7424242999987,662.7255218000064,j,0.8466238000110025,0.24413479999930132,662.7255663999968,662.7255757999956,None,,,,,,,,,,,,,,,,,00006,001,2025-11-09_19h25.43.020,MST_task,2024.2.2,60.001104019989214,2025-11-09 19h25.49.288282 +0530,
,Scenes\137a.jpg,145,0,145,,,,,,,j,0.6805260999972234,0.2217574000096647,None,,,,,,,145,0,145,0,662.7421904999937,,,,,,,,,,,,,,,,,,,,,,,662.7256507999991,662.7421904999937,663.2589601999935,663.2256942999957,,,,,,,,,,,,,,,,,,,,,,,,,,663.2374569999956,663.2589601999935,663.2589601999935,663.2589601999935,666.2420393000066,j,0.6805260999972234,0.2217574000096647,666.242086600003,666.2420977000002,None,,,,,,,,,,,,,,,,,00006,001,2025-11-09_19h25.43.020,MST_task,2024.2.2,60.001104019989214,2025-11-09 19h25.49.288282 +0530,
,Scenes\065a.jpg,146,0,146,,,,,,,j,0.6539118000073358,0.16583459998946637,None,,,,,,,146,0,146,0,666.2586699999956,,,,,,,,,,,,,,,,,,,,,,,666.2421845000063,666.2586699999956,666.775547199999,666.7422511000041,,,,,,,,,,,,,,,,,,,,,,,,,,666.7551832000026,666.775547199999,666.775547199999,666.775547199999,669.758714800002,j,0.6539118000073358,0.16583459998946637,669.7587907999987,669.7588011000043,None,,,,,,,,,,,,,,,,,00006,001,2025-11-09_19h25.43.020,MST_task,2024.2.2,60.001104019989214,2025-11-09 19h25.49.288282 +0530,
,Objects\129a.jpg,147,0,147,,,,,,,f,1.7951429000095231,0.21267199999419972,None,,,,,,,147,0,147,0,669.775263500007,,,,,,,,,,,,,,,,,,,,,,,669.7588770000002,669.775263500007,670.2754552999977,670.2586890999955,,,,,,,,,,,,,,,,,,,,,,,,,,670.2686832000036,670.2754552999977,670.2754552999977,670.2754552999977,673.2587535000057,f,1.7951429000095231,0.21267199999419972,673.2587952000031,673.2588047000027,None,673.275175799994,673.275175799994,673.275175799994,,,,,,,,,,,,,,00006,001,2025-11-09_19h25.43.020,MST_task,2024.2.2,60.001104019989214,2025-11-09 19h25.49.288282 +0530,
,Objects\044a.jpg,148,0,148,,,,,,,None,,,j,0.37656230000720825,None,,,,,148,0,148,0,673.275175799994,,,,,,,,,,,,,,,,,,,,,,,673.2588749999995,673.275175799994,673.7751806000015,673.7587698999996,,,,,,,,,,,,,,,,,,,,,,,,,,673.7686038999964,673.7751806000015,673.7751806000015,673.7751806000015,676.7586497000011,None,,,676.7586889999948,677.1589421999961,j,676.775106999994,676.775106999994,676.775106999994,676.775106999994,676.775106999994,0.37656230000720825,None,,,,,,,,,,00006,001,2025-11-09_19h25.43.020,MST_task,2024.2.2,60.001104019989214,2025-11-09 19h25.49.288282 +0530,
,Objects\141a.jpg,149,0,149,,,,,,,f,1.4926275999896461,0.22956380000687204,None,,,,,,,149,0,149,0,677.1751003999962,,,,,,,,,,,,,,,,,,,,,,,677.1590227999986,677.1751003999962,677.6750891999982,677.6585724000033,,,,,,,,,,,,,,,,,,,,,,,,,,677.6681461999979,677.6750891999982,677.6750891999982,677.6750891999982,680.6587306000001,f,1.4926275999896461,0.22956380000687204,680.6587753000058,680.6587854999962,None,680.6750308000046,680.6750308000046,680.6750308000046,,,,,,,,,,,,,,00006,001,2025-11-09_19h25.43.020,MST_task,2024.2.2,60.001104019989214,2025-11-09 19h25.49.288282 +0530,
,Objects\065a.jpg,150,0,150,,,,,,,f,1.2050851999956649,0.23441610000736546,None,,,,,,,150,0,150,0,680.6750308000046,,,,,,,,,,,,,,,,,,,,,,,680.658838000003,680.6750308000046,681.1749974999984,681.1584322999988,,,,,,,,,,,,,,,,,,,,,,,,,,681.1679573000001,681.1749974999984,681.1749974999984,681.1749974999984,684.1585058000055,f,1.2050851999956649,0.23441610000736546,684.1585477000044,684.1585650000052,None,684.174941499994,684.174941499994,684.174941499994,,,,,,,,,,,,,,00006,001,2025-11-09_19h25.43.020,MST_task,2024.2.2,60.001104019989214,2025-11-09 19h25.49.288282 +0530,
,Objects\158a.jpg,151,0,151,,,,,,,f,1.5916789000038989,0.23630039999261498,None,,,,,,,151,0,151,0,684.174941499994,,,,,,,,,,,,,,,,,,,,,,,684.158637200002,684.174941499994,684.6748968000029,684.6583675000002,,,,,,,,,,,,,,,,,,,,,,,,,,684.6683955000044,684.6748968000029,684.6748968000029,684.6748968000029,687.6584786000021,f,1.5916789000038989,0.23630039999261498,687.6585214999941,687.6585310999944,None,687.6748952000053,687.6748952000053,687.6748952000053,,,,,,,,,,,,,,00006,001,2025-11-09_19h25.43.020,MST_task,2024.2.2,60.001104019989214,2025-11-09 19h25.49.288282 +0530,
,Objects\161a.jpg,152,0,152,,,,,,,j,1.1700984000053722,0.18372390000149608,None,,,,,,,152,0,152,0,687.6748952000053,,,,,,,,,,,,,,,,,,,,,,,687.6586057999957,687.6748952000053,688.174822800007,688.1584346000018,,,,,,,,,,,,,,,,,,,,,,,,,,688.1684726999956,688.174822800007,688.174822800007,688.174822800007,691.1584674000042,j,1.1700984000053722,0.18372390000149608,691.1585130000021,691.1585229000048,None,691.1747963999951,691.1747963999951,691.1747963999951,,,,,,,,,,,,,,00006,001,2025-11-09_19h25.43.020,MST_task,2024.2.2,60.001104019989214,2025-11-09 19h25.49.288282 +0530,
,Objects\048a.jpg,153,0,153,,,,,,,j,0.5423725000000559,0.25262369999836665,None,,,,,,,153,0,153,0,691.1747963999951,,,,,,,,,,,,,,,,,,,,,,,691.158580000003,691.1747963999951,691.6747459000035,691.6584121000051,,,,,,,,,,,,,,,,,,,,,,,,,,691.6687695,691.6747459000035,691.6747459000035,691.6747459000035,694.6584320999973,j,0.5423725000000559,0.25262369999836665,694.6584748000023,694.6584850999934,None,694.6747162999964,694.6747162999964,694.6747162999964,,,,,,,,,,,,,,00006,001,2025-11-09_19h25.43.020,MST_task,2024.2.2,60.001104019989214,2025-11-09 19h25.49.288282 +0530,
,Scenes\047a.jpg,154,0,154,,,,,,,j,0.833284399996046,0.17969990000710823,None,,,,,,,154,0,154,0,694.6747162999964,,,,,,,,,,,,,,,,,,,,,,,694.658537700001,694.6747162999964,695.191547800001,695.1581638000062,,,,,,,,,,,,,,,,,,,,,,,,,,695.170769400007,695.191547800001,695.191547800001,695.191547800001,698.1746824000002,j,0.833284399996046,0.17969990000710823,698.1747239999968,698.1747348000063,None,,,,,,,,,,,,,,,,,00006,001,2025-11-09_19h25.43.020,MST_task,2024.2.2,60.001104019989214,2025-11-09 19h25.49.288282 +0530,
,Scenes\120a.jpg,155,0,155,,,,,,,j,0.9253926999954274,0.18500569999741856,None,,,,,,,155,0,155,0,698.1912807000044,,,,,,,,,,,,,,,,,,,,,,,698.1748077999946,698.1912807000044,698.708252299999,698.6747399000014,,,,,,,,,,,,,,,,,,,,,,,,,,698.6924081000034,698.708252299999,698.708252299999,698.708252299999,701.691353400005,j,0.9253926999954274,0.18500569999741856,701.6914040999982,701.6914151999954,None,,,,,,,,,,,,,,,,,00006,001,2025-11-09_19h25.43.020,MST_task,2024.2.2,60.001104019989214,2025-11-09 19h25.49.288282 +0530,
,Scenes\138a.jpg,156,0,156,,,,,,,j,1.0610162999946624,0.1698515000025509,None,,,,,,,156,0,156,0,701.7078937000042,,,,,,,,,,,,,,,,,,,,,,,701.6914995999978,701.7078937000042,,702.1921199000062,,,,,,,,,,,,,,,,,,,,,,,,,,702.2034626999957,702.2245488000044,702.2245488000044,702.2245488000044,705.2079224000045,j,1.0610162999946624,0.1698515000025509,705.2079667000071,705.2079760000051,None,,,,,,,,,,,,,,,,,00006,001,2025-11-09_19h25.43.020,MST_task,2024.2.2,60.001104019989214,2025-11-09 19h25.49.288282 +0530,
,Scenes\051a.jpg,157,0,157,,,,,,,j,0.9954240999941248,0.17027780000353232,None,,,,,,,157,0,157,0,705.2251786999987,,,,,,,,,,,,,,,,,,,,,,,705.2080559000024,705.2251786999987,705.724221299999,705.7079706999939,,,,,,,,,,,,,,,,,,,,,,,,,,705.7176538000058,705.724221299999,705.724221299999,705.724221299999,708.7082210999943,j,0.9954240999941248,0.17027780000353232,708.7082700000028,708.7082798000047,None,708.7244433000014,708.7244433000014,708.7244433000014,,,,,,,,,,,,,,00006,001,2025-11-09_19h25.43.020,MST_task,2024.2.2,60.001104019989214,2025-11-09 19h25.49.288282 +0530,
,Scenes\082a.jpg,158,0,158,,,,,,,f,0.9081177000043681,0.1939252000011038,None,,,,,,,158,0,158,0,708.7244433000014,,,,,,,,,,,,,,,,,,,,,,,708.7083502000023,708.7244433000014,709.241059699998,709.2079083999997,,,,,,,,,,,,,,,,,,,,,,,,,,709.2216465999954,709.241059699998,709.241059699998,709.241059699998,712.2243805000035,f,0.9081177000043681,0.1939252000011038,712.2244302000036,712.2244409999985,None,,,,,,,,,,,,,,,,,00006,001,2025-11-09_19h25.43.020,MST_task,2024.2.2,60.001104019989214,2025-11-09 19h25.49.288282 +0530,
,Scenes\171a.jpg,159,0,159,,,,,,,f,1.0889448000089033,0.18985260000044946,None,,,,,,,159,0,159,0,712.2410316000023,,,,,,,,,,,,,,,,,,,,,,,712.2245258000039,712.2410316000023,712.7579202000052,712.7245292000007,,,,,,,,,,,,,,,,,,,,,,,,,,712.7409278999985,712.7579202000052,712.7579202000052,712.7579202000052,715.7410065000004,f,1.0889448000089033,0.18985260000044946,715.7410496999946,715.741060100001,None,,,,,,,,,,,,,,,,,00006,001,2025-11-09_19h25.43.020,MST_task,2024.2.2,60.001104019989214,2025-11-09 19h25.49.288282 +0530,
,Scenes\189a.jpg,160,0,160,,,,,,,j,0.6951049000053899,0.19421040000452194,None,,,,,,,160,0,160,0,715.7575990000041,,,,,,,,,,,,,,,,,,,,,,,715.7411373000068,715.7575990000041,716.2742472999962,716.2411049999937,,,,,,,,,,,,,,,,,,,,,,,,,,716.2543930999964,716.2742472999962,716.2742472999962,716.2742472999962,719.2575723000045,j,0.6951049000053899,0.19421040000452194,719.2576253000007,719.2576368000009,None,,,,,,,,,,,,,,,,,00006,001,2025-11-09_19h25.43.020,MST_task,2024.2.2,60.001104019989214,2025-11-09 19h25.49.288282 +0530,
,Objects\099a.jpg,161,0,161,,,,,,,f,2.2610263000096893,0.19837889999325853,None,,,,,,,161,0,161,0,719.2741853000043,,,,,,,,,,,,,,,,,,,,,,,719.2576963000029,719.2741853000043,719.7744890000031,719.7577790999931,,,,,,,,,,,,,,,,,,,,,,,,,,719.7685899000062,719.7744890000031,719.7744890000031,719.7744890000031,722.7577877000003,f,2.2610263000096893,0.19837889999325853,722.7578359000036,722.7578463999962,None,722.7741107000038,722.7741107000038,722.7741107000038,,,,,,,,,,,,,,00006,001,2025-11-09_19h25.43.020,MST_task,2024.2.2,60.001104019989214,2025-11-09 19h25.49.288282 +0530,
,Objects\062a.jpg,162,0,162,,,,,,,f,1.6929082999995444,0.20639079999818932,None,,,,,,,162,0,162,0,722.7741107000038,,,,,,,,,,,,,,,,,,,,,,,722.7579039999982,722.7741107000038,723.2740863999934,723.2576111999952,,,,,,,,,,,,,,,,,,,,,,,,,,723.2676843999943,723.2740863999934,723.2740863999934,723.2740863999934,726.257638199997,f,1.6929082999995444,0.20639079999818932,726.257680900002,726.2576900999993,None,726.2740648000035,726.2740648000035,726.2740648000035,,,,,,,,,,,,,,00006,001,2025-11-09_19h25.43.020,MST_task,2024.2.2,60.001104019989214,2025-11-09 19h25.49.288282 +0530,
