Sl_no,image_path,thisN,thisTrialN,thisRepN,key_resp_5.keys,key_resp_7.keys,key_resp_7.rt,key_resp_7.duration,key_resp_5.rt,key_resp_5.duration,key_resp_9.keys,key_resp_9.rt,key_resp_9.duration,key_resp_8.keys,key_resp_8.rt,key_resp_8.duration,practice.thisRepN,practice.thisTrialN,practice.thisN,practice.thisIndex,trials.thisRepN,trials.thisTrialN,trials.thisN,trials.thisIndex,thisRow.t,notes,welcome_page.started,text.started,key_resp.started,welcome_page.stopped,key_resp.keys,key_resp.rt,key_resp.duration,instructions.started,ins.started,key_resp_2.started,instructions.stopped,key_resp_2.keys,key_resp_2.rt,key_resp_2.duration,objects_only_instruction.started,text_3.started,key_resp_3.started,objects_only_instruction.stopped,key_resp_3.keys,key_resp_3.rt,key_resp_3.duration,ISI.started,text_4.started,text_4.stopped,ISI.stopped,practice_block.started,image.started,text_5.started,key_resp_5.started,practice_block.stopped,practice.key_resp_5.keys,indoor_outdoor.started,text_7.started,key_resp_7.started,indoor_outdoor.stopped,practice.key_resp_7.keys,practice.key_resp_7.rt,practice.key_resp_7.duration,image.stopped,text_5.stopped,key_resp_5.stopped,practice.key_resp_5.rt,practice.key_resp_5.duration,practice_to_main.started,text_2.started,key_resp_4.started,practice_to_main.stopped,key_resp_4.keys,key_resp_4.rt,key_resp_4.duration,objects.started,image_2.started,text_9.started,key_resp_9.started,objects.stopped,trials.key_resp_9.keys,trials.key_resp_9.rt,trials.key_resp_9.duration,encoding_task.started,encoding_task.stopped,trials.key_resp_8.keys,text_8.started,key_resp_8.started,trials.key_resp_8.rt,trials.key_resp_8.duration,end_experiment.started,text_6.started,key_resp_6.started,end_experiment.stopped,key_resp_6.keys,key_resp_6.rt,key_resp_6.duration,list_of_stimuli,encoding_task_accuracy,participant,session,date,expName,psychopyVersion,frameRate,expStart,
,,,,,,,,,,,,,,,,,,,,,,,,,,,0.048830500000008215,0.08210610000000429,0.08210610000000429,2.840611600000017,space,2.6675884999999937,None,,,,,,,,,,,,,,,,,,,,,,,,,,,,,,,,,,,,,,,,,,,,,,,,,,,,,,,,,,,,,,,,,,,,00008,001,2025-11-10_16h35.03.177,MST_task,2024.2.2,60.40412777647035,2025-11-10 16h35.14.813484 +0530,
,,,,,,,,,,,,,,,,,,,,,,,,,,,,,,,,,,2.8406467000000077,2.864756,2.864756,33.66496510000002,space,30.79089189999999,None,,,,,,,,,,,,,,,,,,,,,,,,,,,,,,,,,,,,,,,,,,,,,,,,,,,,,,,,,,,,,00008,001,2025-11-10_16h35.03.177,MST_task,2024.2.2,60.40412777647035,2025-11-10 16h35.14.813484 +0530,
,,,,,,,,,,,,,,,,,,,,,,,,,,,,,,,,,,,,,,,,,33.664996100000025,33.68132730000002,33.68132730000002,51.447923900000006,space,17.7623533,None,,,,,,,,,,,,,,,,,,,,,,,,,,,,,,,,,,,,,,,,,,,,,,,,,,,,,,00008,001,2025-11-10_16h35.03.177,MST_task,2024.2.2,60.40412777647035,2025-11-10 16h35.14.813484 +0530,
1,practice_images/013a.jpg,0,0,0,None,j,6.158735400000012,None,,,,,,,,,0,0,0,0,,,,,51.464266200000026,,,,,,,,,,,,,,,,,,,,,,,51.4603903,51.464266200000026,52.0142864,51.947760800000026,51.99323340000001,52.0142864,52.0142864,52.0142864,54.9642475,None,54.96539760000002,54.98089620000002,54.98089620000002,61.14770610000002,j,6.158735400000012,None,,,,,,,,,,,,,,,,,,,,,,,,,,,,,,,,,,,,,00008,001,2025-11-10_16h35.03.177,MST_task,2024.2.2,60.40412777647035,2025-11-10 16h35.14.813484 +0530,
5,practice_images/139a.jpg,1,1,0,None,j,0.8975642999999991,None,,,,,,,,,0,1,1,4,,,,,61.16413020000002,,,,,,,,,,,,,,,,,,,,,,,61.14778620000001,61.16413020000002,61.697526900000014,61.64758890000002,61.67906860000002,61.697526900000014,61.697526900000014,61.697526900000014,64.6640965,None,64.66414030000001,64.68072610000002,64.68072610000002,65.58095880000002,j,0.8975642999999991,None,,,,,,,,,,,,,,,,,,,,,,,,,,,,,,,,,,,,,00008,001,2025-11-10_16h35.03.177,MST_task,2024.2.2,60.40412777647035,2025-11-10 16h35.14.813484 +0530,
9,practice_images/180a.jpg,2,2,0,None,f,3.504699400000021,None,,,,,,,,,0,2,2,8,,,,,65.59732690000001,,,,,,,,,,,,,,,,,,,,,,,65.5810233,65.59732690000001,66.097294,66.08077780000002,66.08929930000002,66.097294,66.097294,66.097294,69.08092350000001,None,69.0809663,69.0972577,69.0972577,72.61419840000002,f,3.504699400000021,None,69.0972577,69.0972577,69.0972577,,,,,,,,,,,,,,,,,,,,,,,,,,,,,,,,,,00008,001,2025-11-10_16h35.03.177,MST_task,2024.2.2,60.40412777647035,2025-11-10 16h35.14.813484 +0530,
10,practice_images/182a.jpg,3,3,0,None,f,0.8030512999999928,None,,,,,,,,,0,3,3,9,,,,,72.630481,,,,,,,,,,,,,,,,,,,,,,,72.61426800000001,72.630481,73.1302986,73.11398120000001,73.1257731,73.1302986,73.1302986,73.1302986,76.11402140000001,None,76.11406960000002,76.13041140000001,76.13041140000001,76.9475003,f,0.8030512999999928,None,76.13041140000001,76.13041140000001,76.13041140000001,,,,,,,,,,,,,,,,,,,,,,,,,,,,,,,,,,00008,001,2025-11-10_16h35.03.177,MST_task,2024.2.2,60.40412777647035,2025-11-10 16h35.14.813484 +0530,
3,practice_images/037a.jpg,4,4,0,f,None,,,2.0795868000000155,0.1733563000000231,,,,,,,0,4,4,2,,,,,76.96371670000002,,,,,,,,,,,,,,,,,,,,,,,76.94757170000003,76.96371670000002,77.48046820000002,77.4472949,77.47375780000002,77.48046820000002,77.48046820000002,77.48046820000002,80.46374200000002,f,80.46378620000002,,,80.46379590000004,None,,,,,,2.0795868000000155,0.1733563000000231,,,,,,,,,,,,,,,,,,,,,,,,,,,,,,,,00008,001,2025-11-10_16h35.03.177,MST_task,2024.2.2,60.40412777647035,2025-11-10 16h35.14.813484 +0530,
7,practice_images/166a.jpg,5,5,0,None,f,0.9407459999999901,None,,,,,,,,,0,5,5,6,,,,,80.48034060000003,,,,,,,,,,,,,,,,,,,,,,,80.46385020000002,80.48034060000003,80.99699680000003,80.9638367,80.98484480000002,80.99699680000003,80.99699680000003,80.99699680000003,83.98030080000001,None,83.98034130000002,83.99690759999999,83.99690759999999,84.9471676,f,0.9407459999999901,None,,,,,,,,,,,,,,,,,,,,,,,,,,,,,,,,,,,,,00008,001,2025-11-10_16h35.03.177,MST_task,2024.2.2,60.40412777647035,2025-11-10 16h35.14.813484 +0530,
2,practice_images/031a.jpg,6,6,0,None,f,0.0569985999999858,None,,,,,,,,,0,6,6,1,,,,,84.9636208,,,,,,,,,,,,,,,,,,,,,,,84.94723670000002,84.9636208,85.4635998,85.44707499999998,85.45420999999999,85.4635998,85.4635998,85.4635998,88.4471016,None,88.44714370000003,88.46347200000002,88.46347200000002,88.53059130000003,f,0.0569985999999858,None,88.46347200000002,88.46347200000002,88.46347200000002,,,,,,,,,,,,,,,,,,,,,,,,,,,,,,,,,,00008,001,2025-11-10_16h35.03.177,MST_task,2024.2.2,60.40412777647035,2025-11-10 16h35.14.813484 +0530,
8,practice_images/178a.jpg,7,7,0,j,None,,,1.5894830999999954,0.14967450000000326,,,,,,,0,7,7,7,,,,,88.5468641,,,,,,,,,,,,,,,,,,,,,,,88.53065559999999,88.5468641,89.08016040000001,89.03034960000002,89.06991729999999,89.08016040000001,89.08016040000001,89.08016040000001,92.04671510000003,j,92.04677300000003,,,92.0467827,None,,,,,,1.5894830999999954,0.14967450000000326,,,,,,,,,,,,,,,,,,,,,,,,,,,,,,,,00008,001,2025-11-10_16h35.03.177,MST_task,2024.2.2,60.40412777647035,2025-11-10 16h35.14.813484 +0530,
4,practice_images/002b.jpg,8,8,0,f,None,,,2.6280102999999713,0.1738426000000004,,,,,,,0,8,8,3,,,,,92.06329010000002,,,,,,,,,,,,,,,,,,,,,,,92.04683610000001,92.06329010000002,92.58010730000001,92.54688620000002,92.57048739999999,92.58010730000001,92.58010730000001,92.58010730000001,95.56326960000001,f,95.56333849999999,,,95.56335089999999,None,,,,,,2.6280102999999713,0.1738426000000004,,,,,,,,,,,,,,,,,,,,,,,,,,,,,,,,00008,001,2025-11-10_16h35.03.177,MST_task,2024.2.2,60.40412777647035,2025-11-10 16h35.14.813484 +0530,
6,practice_images/158a.jpg,9,9,0,j,None,,,2.502431300000012,0.05851940000002287,,,,,,,0,9,9,5,,,,,95.5799844,,,,,,,,,,,,,,,,,,,,,,,95.56340990000001,95.5799844,,96.0633985,96.08016320000002,96.09663649999999,96.09663649999999,96.09663649999999,99.07992540000004,j,99.07997850000004,,,99.07998950000001,None,,,,,,2.502431300000012,0.05851940000002287,,,,,,,,,,,,,,,,,,,,,,,,,,,,,,,,00008,001,2025-11-10_16h35.03.177,MST_task,2024.2.2,60.40412777647035,2025-11-10 16h35.14.813484 +0530,
,,,,,,,,,,,,,,,,,,,,,,,,,,,,,,,,,,,,,,,,,,,,,,,,,,,,,,,,,,,,,,,,,,,,,,99.08002909999999,99.096494,99.096494,136.1127497,space,37.00327569999996,None,,,,,,,,,,,,,,,,,,,,,,,,,00008,001,2025-11-10_16h35.03.177,MST_task,2024.2.2,60.40412777647035,2025-11-10 16h35.14.813484 +0530,
,Scenes\037a.jpg,0,0,0,,,,,,,j,2.0323221999999532,0.1429096000000527,None,,,,,,,0,0,0,0,136.12902780000002,,,,,,,,,,,,,,,,,,,,,,,136.1134169,136.12902780000002,136.662552,136.6125874,,,,,,,,,,,,,,,,,,,,,,,,,,136.6472288,136.662552,136.662552,136.662552,139.62901880000004,j,2.0323221999999532,0.1429096000000527,139.63016340000001,139.63018110000002,None,,,,,,,,,,,,,,00008,001,2025-11-10_16h35.03.177,MST_task,2024.2.2,60.40412777647035,2025-11-10 16h35.14.813484 +0530,
,Scenes\036a.jpg,1,0,1,,,,,,,j,2.8168838999999934,None,None,,,,,,,1,0,1,0,139.6456376,,,,,,,,,,,,,,,,,,,,,,,139.6302356,139.6456376,140.16253269999999,140.129095,,,,,,,,,,,,,,,,,,,,,,,,,,140.15055820000003,140.16253269999999,140.16253269999999,140.16253269999999,143.1455421,j,2.8168838999999934,None,143.1455992,143.1456101,None,,,,,,,,,,,,,,00008,001,2025-11-10_16h35.03.177,MST_task,2024.2.2,60.40412777647035,2025-11-10 16h35.14.813484 +0530,
,Scenes\078a.jpg,2,0,2,,,,,,,None,,,j,0.9762814000000049,None,,,,,2,0,2,0,143.16221590000004,,,,,,,,,,,,,,,,,,,,,,,143.1456652,143.16221590000004,143.695694,143.64569240000003,,,,,,,,,,,,,,,,,,,,,,,,,,143.68504990000002,143.695694,143.695694,143.695694,146.6621695,None,,,146.6622099,147.66249620000002,j,146.6787819,146.6787819,0.9762814000000049,None,,,,,,,,,,00008,001,2025-11-10_16h35.03.177,MST_task,2024.2.2,60.40412777647035,2025-11-10 16h35.14.813484 +0530,
,Scenes\058a.jpg,3,0,3,,,,,,,None,,,f,1.9624774999999772,None,,,,,3,0,3,0,147.67879390000002,,,,,,,,,,,,,,,,,,,,,,,147.66258570000002,147.67879390000002,148.21217769999998,148.1623599,,,,,,,,,,,,,,,,,,,,,,,,,,148.1901532,148.21217769999998,148.21217769999998,148.21217769999998,151.1787893,None,,,151.1788361,153.16225350000002,f,151.1953792,151.1953792,1.9624774999999772,None,,,,,,,,,,00008,001,2025-11-10_16h35.03.177,MST_task,2024.2.2,60.40412777647035,2025-11-10 16h35.14.813484 +0530,
,Scenes\108a.jpg,4,0,4,,,,,,,j,1.7189319999999952,0.13869550000003983,None,,,,,,,4,0,4,0,153.1786727,,,,,,,,,,,,,,,,,,,,,,,153.16236480000003,153.1786727,153.7123201,153.66223159999998,,,,,,,,,,,,,,,,,,,,,,,,,,153.69872050000004,153.7123201,153.7123201,153.7123201,156.67871690000004,j,1.7189319999999952,0.13869550000003983,156.6787693,156.67878210000003,None,,,,,,,,,,,,,,00008,001,2025-11-10_16h35.03.177,MST_task,2024.2.2,60.40412777647035,2025-11-10 16h35.14.813484 +0530,
,Scenes\062a.jpg,5,0,5,,,,,,,None,,,j,0.15813259999998763,None,,,,,5,0,5,0,156.6955013,,,,,,,,,,,,,,,,,,,,,,,156.67884780000003,156.6955013,157.22856590000004,157.178765,,,,,,,,,,,,,,,,,,,,,,,,,,157.2175168,157.22856590000004,157.22856590000004,157.22856590000004,160.2119679,None,,,160.2120102,160.39548360000003,j,160.22863440000003,160.22863440000003,0.15813259999998763,None,,,,,,,,,,00008,001,2025-11-10_16h35.03.177,MST_task,2024.2.2,60.40412777647035,2025-11-10 16h35.14.813484 +0530,
,Scenes\192a.jpg,6,0,6,,,,,,,None,,,j,1.1910824999999932,None,,,,,6,0,6,0,160.41196630000002,,,,,,,,,,,,,,,,,,,,,,,160.3955808,160.41196630000002,160.945471,160.89535190000004,,,,,,,,,,,,,,,,,,,,,,,,,,160.92680860000002,160.945471,160.945471,160.945471,163.9119829,None,,,163.91202420000002,165.12873180000003,j,163.92845770000002,163.92845770000002,1.1910824999999932,None,,,,,,,,,,00008,001,2025-11-10_16h35.03.177,MST_task,2024.2.2,60.40412777647035,2025-11-10 16h35.14.813484 +0530,
,Objects\160a.jpg,7,0,7,,,,,,,None,,,j,0.20010589999998274,None,,,,,7,0,7,0,165.14513980000004,,,,,,,,,,,,,,,,,,,,,,,165.12881350000004,165.14513980000004,165.69539630000003,165.62863959999999,,,,,,,,,,,,,,,,,,,,,,,,,,165.6791495,165.69539630000003,165.69539630000003,165.69539630000003,168.6451571,None,,,168.64519740000003,168.87871970000003,j,168.6617812,168.6617812,0.20010589999998274,None,,,,,,,,,,00008,001,2025-11-10_16h35.03.177,MST_task,2024.2.2,60.40412777647035,2025-11-10 16h35.14.813484 +0530,
,Objects\022a.jpg,8,0,8,,,,,,,f,2.123122800000033,0.19828539999997474,None,,,,,,,8,0,8,0,168.8950228,,,,,,,,,,,,,,,,,,,,,,,168.87879300000003,168.8950228,169.42837610000004,169.3785504,,,,,,,,,,,,,,,,,,,,,,,,,,169.41731099999998,169.42837610000004,169.42837610000004,169.42837610000004,172.3950008,f,2.123122800000033,0.19828539999997474,172.39504540000001,172.39505660000003,None,,,,,,,,,,,,,,00008,001,2025-11-10_16h35.03.177,MST_task,2024.2.2,60.40412777647035,2025-11-10 16h35.14.813484 +0530,
,Objects\005a.jpg,9,0,9,,,,,,,f,1.9302159000000074,0.15127069999999776,None,,,,,,,9,0,9,0,172.4117076,,,,,,,,,,,,,,,,,,,,,,,172.3951113,172.4117076,172.9449591,172.89509910000004,,,,,,,,,,,,,,,,,,,,,,,,,,172.9327604,172.9449591,172.9449591,172.9449591,175.91160410000003,f,1.9302159000000074,0.15127069999999776,175.91167130000002,175.91168270000003,None,,,,,,,,,,,,,,00008,001,2025-11-10_16h35.03.177,MST_task,2024.2.2,60.40412777647035,2025-11-10 16h35.14.813484 +0530,
,Objects\136a.jpg,10,0,10,,,,,,,None,,,f,6.2732618,None,,,,,10,0,10,0,175.9282324,,,,,,,,,,,,,,,,,,,,,,,175.91176490000004,175.9282324,176.511571,176.4117708,,,,,,,,,,,,,,,,,,,,,,,,,,176.4985595,176.511571,176.511571,176.511571,179.42761590000003,None,,,179.427662,185.7282525,f,179.44424880000003,179.44424880000003,6.2732618,None,,,,,,,,,,00008,001,2025-11-10_16h35.03.177,MST_task,2024.2.2,60.40412777647035,2025-11-10 16h35.14.813484 +0530,
,Objects\192a.jpg,11,0,11,,,,,,,None,,,j,2.4925316000000066,None,,,,,11,0,11,0,185.744692,,,,,,,,,,,,,,,,,,,,,,,185.72836110000003,185.744692,186.261343,186.22815930000002,,,,,,,,,,,,,,,,,,,,,,,,,,186.2542097,186.261343,186.261343,186.261343,189.24466590000003,None,,,189.24470639999998,191.7615229,j,189.26133220000003,189.26133220000003,2.4925316000000066,None,,,,,,,,,,00008,001,2025-11-10_16h35.03.177,MST_task,2024.2.2,60.40412777647035,2025-11-10 16h35.14.813484 +0530,
,Objects\102a.jpg,12,0,12,,,,,,,f,1.780689300000006,0.16677849999996397,None,,,,,,,12,0,12,0,191.77791489999998,,,,,,,,,,,,,,,,,,,,,,,191.7615947,191.77791489999998,192.2945562,192.26141130000002,,,,,,,,,,,,,,,,,,,,,,,,,,192.28539560000002,192.2945562,192.2945562,192.2945562,195.27787390000003,f,1.780689300000006,0.16677849999996397,195.27791960000002,195.27793030000004,None,,,,,,,,,,,,,,00008,001,2025-11-10_16h35.03.177,MST_task,2024.2.2,60.40412777647035,2025-11-10 16h35.14.813484 +0530,
,Objects\039a.jpg,13,0,13,,,,,,,j,2.6029297000000042,0.1528585000000362,None,,,,,,,13,0,13,0,195.2945021,,,,,,,,,,,,,,,,,,,,,,,195.2779903,195.2945021,195.8277951,195.77802990000004,,,,,,,,,,,,,,,,,,,,,,,,,,195.8191926,195.8277951,195.8277951,195.8277951,198.79438880000004,j,2.6029297000000042,0.1528585000000362,198.794439,198.7944503,None,,,,,,,,,,,,,,00008,001,2025-11-10_16h35.03.177,MST_task,2024.2.2,60.40412777647035,2025-11-10 16h35.14.813484 +0530,
,Scenes\079a.jpg,14,0,14,,,,,,,j,1.2249024999999847,0.1541428000000451,None,,,,,,,14,0,14,0,198.81100860000004,,,,,,,,,,,,,,,,,,,,,,,198.7945272,198.81100860000004,199.3442998,199.29452730000003,,,,,,,,,,,,,,,,,,,,,,,,,,199.3377747,199.3442998,199.3442998,199.3442998,202.31098830000002,j,1.2249024999999847,0.1541428000000451,202.3110388,202.3110499,None,,,,,,,,,,,,,,00008,001,2025-11-10_16h35.03.177,MST_task,2024.2.2,60.40412777647035,2025-11-10 16h35.14.813484 +0530,
,Scenes\145a.jpg,15,0,15,,,,,,,j,2.756101000000001,0.15726119999999355,None,,,,,,,15,0,15,0,202.32756030000002,,,,,,,,,,,,,,,,,,,,,,,202.3111525,202.32756030000002,202.87792590000004,202.81114200000002,,,,,,,,,,,,,,,,,,,,,,,,,,202.8554095,202.87792590000004,202.87792590000004,202.87792590000004,205.82758060000003,j,2.756101000000001,0.15726119999999355,205.82762710000003,205.82763770000003,None,,,,,,,,,,,,,,00008,001,2025-11-10_16h35.03.177,MST_task,2024.2.2,60.40412777647035,2025-11-10 16h35.14.813484 +0530,
,Scenes\174a.jpg,16,0,16,,,,,,,j,2.7775100000000066,0.16268639999998413,None,,,,,,,16,0,16,0,205.84414750000002,,,,,,,,,,,,,,,,,,,,,,,205.82771310000004,205.84414750000002,206.37762600000002,206.32767990000002,,,,,,,,,,,,,,,,,,,,,,,,,,206.36721370000004,206.37762600000002,206.37762600000002,206.37762600000002,209.34416880000003,j,2.7775100000000066,0.16268639999998413,209.3442228,209.34423450000003,None,,,,,,,,,,,,,,00008,001,2025-11-10_16h35.03.177,MST_task,2024.2.2,60.40412777647035,2025-11-10 16h35.14.813484 +0530,
,Scenes\055a.jpg,17,0,17,,,,,,,j,1.5176823999999556,0.16232550000000856,None,,,,,,,17,0,17,0,209.36073930000003,,,,,,,,,,,,,,,,,,,,,,,209.34429420000004,209.36073930000003,209.8774403,209.84425680000004,,,,,,,,,,,,,,,,,,,,,,,,,,209.86624460000002,209.8774403,209.8774403,209.8774403,212.86071700000002,j,1.5176823999999556,0.16232550000000856,212.860812,212.86082900000002,None,,,,,,,,,,,,,,00008,001,2025-11-10_16h35.03.177,MST_task,2024.2.2,60.40412777647035,2025-11-10 16h35.14.813484 +0530,
,Scenes\068a.jpg,18,0,18,,,,,,,None,,,j,2.9337654999999927,None,,,,,18,0,18,0,212.87737370000002,,,,,,,,,,,,,,,,,,,,,,,212.86090010000004,212.87737370000002,213.4106971,213.36090010000004,,,,,,,,,,,,,,,,,,,,,,,,,,213.3910796,213.4106971,213.4106971,213.4106971,216.37746300000003,None,,,216.37751030000004,219.3442839,j,216.3940222,216.3940222,2.9337654999999927,None,,,,,,,,,,00008,001,2025-11-10_16h35.03.177,MST_task,2024.2.2,60.40412777647035,2025-11-10 16h35.14.813484 +0530,
,Scenes\119a.jpg,19,0,19,,,,,,,None,,,j,0.1944220000000314,None,,,,,19,0,19,0,219.36052519999998,,,,,,,,,,,,,,,,,,,,,,,219.34438720000003,219.36052519999998,219.8941784,219.84411360000001,,,,,,,,,,,,,,,,,,,,,,,,,,219.8812995,219.8941784,219.8941784,219.8941784,222.86057520000003,None,,,222.860616,223.0775653,j,222.8771129,222.8771129,0.1944220000000314,None,,,,,,,,,,00008,001,2025-11-10_16h35.03.177,MST_task,2024.2.2,60.40412777647035,2025-11-10 16h35.14.813484 +0530,
,Scenes\146a.jpg,20,0,20,,,,,,,j,1.4757131000000072,0.16021069999999327,None,,,,,,,20,0,20,0,223.0938119,,,,,,,,,,,,,,,,,,,,,,,223.0776581,223.0938119,223.6271259,223.57738310000002,,,,,,,,,,,,,,,,,,,,,,,,,,223.61530190000002,223.6271259,223.6271259,223.6271259,226.59377670000003,j,1.4757131000000072,0.16021069999999327,226.5938334,226.5938448,None,,,,,,,,,,,,,,00008,001,2025-11-10_16h35.03.177,MST_task,2024.2.2,60.40412777647035,2025-11-10 16h35.14.813484 +0530,
,Objects\025a.jpg,21,0,21,,,,,,,j,2.7941232000000014,0.14645949999999175,None,,,,,,,21,0,21,0,226.61043160000003,,,,,,,,,,,,,,,,,,,,,,,226.59392480000002,226.61043160000003,227.12731100000002,227.0939376,,,,,,,,,,,,,,,,,,,,,,,,,,227.12239190000003,227.12731100000002,227.12731100000002,227.12731100000002,230.1104916,j,2.7941232000000014,0.14645949999999175,230.11054330000002,230.11055400000004,None,,,,,,,,,,,,,,00008,001,2025-11-10_16h35.03.177,MST_task,2024.2.2,60.40412777647035,2025-11-10 16h35.14.813484 +0530,
,Objects\071a.jpg,22,0,22,,,,,,,None,,,j,0.002922899999987294,None,,,,,22,0,22,0,230.1269636,,,,,,,,,,,,,,,,,,,,,,,230.11062500000003,230.1269636,230.66027810000003,230.6105235,,,,,,,,,,,,,,,,,,,,,,,,,,230.6535897,230.66027810000003,230.66027810000003,230.66027810000003,233.62706890000004,None,,,233.62715680000002,233.6606466,j,233.6436319,233.6436319,0.002922899999987294,None,,,,,,,,,,00008,001,2025-11-10_16h35.03.177,MST_task,2024.2.2,60.40412777647035,2025-11-10 16h35.14.813484 +0530,
,Objects\116a.jpg,23,0,23,,,,,,,f,2.896137500000009,None,None,,,,,,,23,0,23,0,233.67703920000002,,,,,,,,,,,,,,,,,,,,,,,233.66075160000003,233.67703920000002,234.19368710000003,234.16055240000003,,,,,,,,,,,,,,,,,,,,,,,,,,234.1833183,234.19368710000003,234.19368710000003,234.19368710000003,237.176893,f,2.896137500000009,None,237.17695230000004,237.17696340000003,None,,,,,,,,,,,,,,00008,001,2025-11-10_16h35.03.177,MST_task,2024.2.2,60.40412777647035,2025-11-10 16h35.14.813484 +0530,
,Objects\061a.jpg,24,0,24,,,,,,,j,2.6428940000000125,0.16572759999996833,None,,,,,,,24,0,24,0,237.19346870000004,,,,,,,,,,,,,,,,,,,,,,,237.1770394,237.19346870000004,237.72678710000002,237.67705690000003,,,,,,,,,,,,,,,,,,,,,,,,,,237.7107345,237.72678710000002,237.72678710000002,237.72678710000002,240.69349,j,2.6428940000000125,0.16572759999996833,240.69354530000004,240.69355769999999,None,,,,,,,,,,,,,,00008,001,2025-11-10_16h35.03.177,MST_task,2024.2.2,60.40412777647035,2025-11-10 16h35.14.813484 +0530,
,Objects\058a.jpg,25,0,25,,,,,,,None,,,f,1.7327799000000255,None,,,,,25,0,25,0,240.71010490000003,,,,,,,,,,,,,,,,,,,,,,,240.69364339999998,240.71010490000003,241.2434037,241.19370630000003,,,,,,,,,,,,,,,,,,,,,,,,,,241.23332700000003,241.2434037,241.2434037,241.2434037,244.21011529999998,None,,,244.2101654,245.96040020000004,f,244.22680510000004,244.22680510000004,1.7327799000000255,None,,,,,,,,,,00008,001,2025-11-10_16h35.03.177,MST_task,2024.2.2,60.40412777647035,2025-11-10 16h35.14.813484 +0530,
,Objects\015a.jpg,26,0,26,,,,,,,j,1.3139591999999993,0.16210960000000796,None,,,,,,,26,0,26,0,245.97666860000004,,,,,,,,,,,,,,,,,,,,,,,245.96048310000003,245.97666860000004,246.4932655,246.46019790000003,,,,,,,,,,,,,,,,,,,,,,,,,,246.48432990000003,246.4932655,246.4932655,246.4932655,249.47659529999999,j,1.3139591999999993,0.16210960000000796,249.47664200000003,249.4766532,None,,,,,,,,,,,,,,00008,001,2025-11-10_16h35.03.177,MST_task,2024.2.2,60.40412777647035,2025-11-10 16h35.14.813484 +0530,
,Objects\132a.jpg,27,0,27,,,,,,,j,2.8054482000000007,0.14238359999995964,None,,,,,,,27,0,27,0,249.49322870000003,,,,,,,,,,,,,,,,,,,,,,,249.47672770000003,249.49322870000003,250.00985460000004,249.9767218,,,,,,,,,,,,,,,,,,,,,,,,,,249.9992974,250.00985460000004,250.00985460000004,250.00985460000004,252.99319410000004,j,2.8054482000000007,0.14238359999995964,252.99325420000002,252.99326460000003,None,,,,,,,,,,,,,,00008,001,2025-11-10_16h35.03.177,MST_task,2024.2.2,60.40412777647035,2025-11-10 16h35.14.813484 +0530,
,Scenes\016a.jpg,28,0,28,,,,,,,j,1.9328927999999905,0.1391339999999559,None,,,,,,,28,0,28,0,253.00981819999998,,,,,,,,,,,,,,,,,,,,,,,252.9933383,253.00981819999998,253.5267905,253.49346890000004,,,,,,,,,,,,,,,,,,,,,,,,,,253.5204905,253.5267905,253.5267905,253.5267905,256.5098371,j,1.9328927999999905,0.1391339999999559,256.5098865,256.5098986,None,,,,,,,,,,,,,,00008,001,2025-11-10_16h35.03.177,MST_task,2024.2.2,60.40412777647035,2025-11-10 16h35.14.813484 +0530,
,Scenes\063a.jpg,29,0,29,,,,,,,j,2.937721300000021,None,None,,,,,,,29,0,29,0,256.5264737,,,,,,,,,,,,,,,,,,,,,,,256.50998300000003,256.5264737,257.0600912,257.010063,,,,,,,,,,,,,,,,,,,,,,,,,,257.03796900000003,257.0600912,257.0600912,257.0600912,260.026422,j,2.937721300000021,None,260.02646630000004,260.026479,None,,,,,,,,,,,,,,00008,001,2025-11-10_16h35.03.177,MST_task,2024.2.2,60.40412777647035,2025-11-10 16h35.14.813484 +0530,
,Scenes\113a.jpg,30,0,30,,,,,,,j,1.189077500000053,0.1583878999999797,None,,,,,,,30,0,30,0,260.04301380000004,,,,,,,,,,,,,,,,,,,,,,,260.02656410000003,260.04301380000004,260.5764032,260.52662430000004,,,,,,,,,,,,,,,,,,,,,,,,,,260.55618960000004,260.5764032,260.5764032,260.5764032,263.5429601,j,1.189077500000053,0.1583878999999797,263.54300470000004,263.5430149,None,,,,,,,,,,,,,,00008,001,2025-11-10_16h35.03.177,MST_task,2024.2.2,60.40412777647035,2025-11-10 16h35.14.813484 +0530,
,Scenes\039a.jpg,31,0,31,,,,,,,j,1.4621958000000177,0.15989289999998846,None,,,,,,,31,0,31,0,263.55960350000004,,,,,,,,,,,,,,,,,,,,,,,263.54309570000004,263.55960350000004,264.0928867,264.0431441,,,,,,,,,,,,,,,,,,,,,,,,,,264.0782173,264.0928867,264.0928867,264.0928867,267.0595817,j,1.4621958000000177,0.15989289999998846,267.05963,267.0596406,None,,,,,,,,,,,,,,00008,001,2025-11-10_16h35.03.177,MST_task,2024.2.2,60.40412777647035,2025-11-10 16h35.14.813484 +0530,
,Scenes\002a.jpg,32,0,32,,,,,,,j,1.4719132999999829,0.14552680000002738,None,,,,,,,32,0,32,0,267.0761868,,,,,,,,,,,,,,,,,,,,,,,267.0597197,267.0761868,267.6097719,267.55974280000004,,,,,,,,,,,,,,,,,,,,,,,,,,267.5939851,267.6097719,267.6097719,267.6097719,270.5761383,j,1.4719132999999829,0.14552680000002738,270.57619850000003,270.5762092,None,,,,,,,,,,,,,,00008,001,2025-11-10_16h35.03.177,MST_task,2024.2.2,60.40412777647035,2025-11-10 16h35.14.813484 +0530,
,Scenes\183a.jpg,33,0,33,,,,,,,None,,,f,0.45656029999997827,None,,,,,33,0,33,0,270.5927827,,,,,,,,,,,,,,,,,,,,,,,270.5762867,270.5927827,271.1260944,271.0763658,,,,,,,,,,,,,,,,,,,,,,,,,,271.1108345,271.1260944,271.1260944,271.1260944,274.09286510000004,None,,,274.092908,274.57628470000003,f,274.10936960000004,274.10936960000004,0.45656029999997827,None,,,,,,,,,,00008,001,2025-11-10_16h35.03.177,MST_task,2024.2.2,60.40412777647035,2025-11-10 16h35.14.813484 +0530,
,Scenes\117a.jpg,34,0,34,,,,,,,j,0.8456322000000114,0.15663030000001754,None,,,,,,,34,0,34,0,274.59269090000004,,,,,,,,,,,,,,,,,,,,,,,274.5763834,274.59269090000004,275.1096431,275.0762829,,,,,,,,,,,,,,,,,,,,,,,,,,275.0994455,275.1096431,275.1096431,275.1096431,278.0926323,j,0.8456322000000114,0.15663030000001754,278.0926784,278.092689,None,,,,,,,,,,,,,,00008,001,2025-11-10_16h35.03.177,MST_task,2024.2.2,60.40412777647035,2025-11-10 16h35.14.813484 +0530,
,Objects\186a.jpg,35,0,35,,,,,,,None,,,f,1.095672200000024,None,,,,,35,0,35,0,278.109284,,,,,,,,,,,,,,,,,,,,,,,278.0927773,278.109284,278.62617240000003,278.5928101,,,,,,,,,,,,,,,,,,,,,,,,,,278.6206303,278.62617240000003,278.62617240000003,278.62617240000003,281.6092579,None,,,281.6093027,282.7261212,f,281.62586830000004,281.62586830000004,1.095672200000024,None,,,,,,,,,,00008,001,2025-11-10_16h35.03.177,MST_task,2024.2.2,60.40412777647035,2025-11-10 16h35.14.813484 +0530,
,Objects\117a.jpg,36,0,36,,,,,,,None,,,j,1.4283061999999518,None,,,,,36,0,36,0,282.7425112,,,,,,,,,,,,,,,,,,,,,,,282.7261964,282.7425112,283.2591712,283.225989,,,,,,,,,,,,,,,,,,,,,,,,,,283.2463174,283.2591712,283.2591712,283.2591712,286.2424781,None,,,286.242521,287.6927362,j,286.2590601,286.2590601,1.4283061999999518,None,,,,,,,,,,00008,001,2025-11-10_16h35.03.177,MST_task,2024.2.2,60.40412777647035,2025-11-10 16h35.14.813484 +0530,
,Objects\181a.jpg,37,0,37,,,,,,,j,2.201609499999961,0.16651849999999513,None,,,,,,,37,0,37,0,287.7090678,,,,,,,,,,,,,,,,,,,,,,,287.6928085,287.7090678,288.2257493,288.1925416,,,,,,,,,,,,,,,,,,,,,,,,,,288.2216868,288.2257493,288.2257493,288.2257493,291.2090518,j,2.201609499999961,0.16651849999999513,291.2091004,291.20911140000004,None,,,,,,,,,,,,,,00008,001,2025-11-10_16h35.03.177,MST_task,2024.2.2,60.40412777647035,2025-11-10 16h35.14.813484 +0530,
,Objects\082a.jpg,38,0,38,,,,,,,f,2.1010440000000017,0.16909309999999778,None,,,,,,,38,0,38,0,291.2256575,,,,,,,,,,,,,,,,,,,,,,,291.2091715,291.2256575,291.7589687,291.7091366,,,,,,,,,,,,,,,,,,,,,,,,,,291.7400526,291.7589687,291.7589687,291.7589687,294.72565180000004,f,2.1010440000000017,0.16909309999999778,294.7256997,294.7257105,None,,,,,,,,,,,,,,00008,001,2025-11-10_16h35.03.177,MST_task,2024.2.2,60.40412777647035,2025-11-10 16h35.14.813484 +0530,
,Objects\007a.jpg,39,0,39,,,,,,,None,,,f,2.5842473000000155,None,,,,,39,0,39,0,294.7422497,,,,,,,,,,,,,,,,,,,,,,,294.72578980000003,294.7422497,295.275556,295.2257361,,,,,,,,,,,,,,,,,,,,,,,,,,295.256163,295.275556,295.275556,295.275556,298.2422356,None,,,298.2422795,300.8590404,f,298.2588867,298.2588867,2.5842473000000155,None,,,,,,,,,,00008,001,2025-11-10_16h35.03.177,MST_task,2024.2.2,60.40412777647035,2025-11-10 16h35.14.813484 +0530,
,Objects\104a.jpg,40,0,40,,,,,,,j,1.7129540000000247,0.14242050000001427,None,,,,,,,40,0,40,0,300.87545470000003,,,,,,,,,,,,,,,,,,,,,,,300.859122,300.87545470000003,301.3920627,301.3589984,,,,,,,,,,,,,,,,,,,,,,,,,,301.3852165,301.3920627,301.3920627,301.3920627,304.3754305,j,1.7129540000000247,0.14242050000001427,304.3754746,304.375485,None,,,,,,,,,,,,,,00008,001,2025-11-10_16h35.03.177,MST_task,2024.2.2,60.40412777647035,2025-11-10 16h35.14.813484 +0530,
,Objects\066a.jpg,41,0,41,,,,,,,None,,,j,0.6673873999999955,None,,,,,41,0,41,0,304.39199890000003,,,,,,,,,,,,,,,,,,,,,,,304.3755579,304.39199890000003,304.9086792,304.8755377,,,,,,,,,,,,,,,,,,,,,,,,,,304.9010136,304.9086792,304.9086792,304.9086792,307.8921289,None,,,307.8921754,308.59231090000003,j,307.9085883,307.9085883,0.6673873999999955,None,,,,,,,,,,00008,001,2025-11-10_16h35.03.177,MST_task,2024.2.2,60.40412777647035,2025-11-10 16h35.14.813484 +0530,
,Scenes\147a.jpg,42,0,42,,,,,,,None,,,j,1.0346651000000406,None,,,,,42,0,42,0,308.6085842,,,,,,,,,,,,,,,,,,,,,,,308.59237840000003,308.6085842,309.1255094,309.09221740000004,,,,,,,,,,,,,,,,,,,,,,,,,,309.1127594,309.1255094,309.1255094,309.1255094,312.1085507,None,,,312.10859980000004,313.1754466,j,312.12520820000003,312.12520820000003,1.0346651000000406,None,,,,,,,,,,00008,001,2025-11-10_16h35.03.177,MST_task,2024.2.2,60.40412777647035,2025-11-10 16h35.14.813484 +0530,
,Scenes\041a.jpg,43,0,43,,,,,,,j,1.8181506999999897,0.15528299999999717,None,,,,,,,43,0,43,0,313.1918485,,,,,,,,,,,,,,,,,,,,,,,313.1755549,313.1918485,313.7251266,313.6753559,,,,,,,,,,,,,,,,,,,,,,,,,,313.7027867,313.7251266,313.7251266,313.7251266,316.69182,j,1.8181506999999897,0.15528299999999717,316.6918642,316.69187600000004,None,,,,,,,,,,,,,,00008,001,2025-11-10_16h35.03.177,MST_task,2024.2.2,60.40412777647035,2025-11-10 16h35.14.813484 +0530,
,Scenes\008a.jpg,44,0,44,,,,,,,f,2.0137339999999995,0.18177879999996094,None,,,,,,,44,0,44,0,316.7084491,,,,,,,,,,,,,,,,,,,,,,,316.691933,316.7084491,317.24210120000004,317.1919105,,,,,,,,,,,,,,,,,,,,,,,,,,317.2231482,317.24210120000004,317.24210120000004,317.24210120000004,320.2084388,f,2.0137339999999995,0.18177879999996094,320.2084846,320.20849530000004,None,,,,,,,,,,,,,,00008,001,2025-11-10_16h35.03.177,MST_task,2024.2.2,60.40412777647035,2025-11-10 16h35.14.813484 +0530,
,Scenes\185a.jpg,45,0,45,,,,,,,j,1.2674844000000007,0.15000710000003892,None,,,,,,,45,0,45,0,320.2249813,,,,,,,,,,,,,,,,,,,,,,,320.2085503,320.2249813,320.7419256,320.7085566,,,,,,,,,,,,,,,,,,,,,,,,,,320.73208700000004,320.7419256,320.7419256,320.7419256,323.7249625,j,1.2674844000000007,0.15000710000003892,323.725012,323.7250231,None,,,,,,,,,,,,,,00008,001,2025-11-10_16h35.03.177,MST_task,2024.2.2,60.40412777647035,2025-11-10 16h35.14.813484 +0530,
,Scenes\075a.jpg,46,0,46,,,,,,,None,,,j,1.9433832999999936,None,,,,,46,0,46,0,323.7416175,,,,,,,,,,,,,,,,,,,,,,,323.7250798,323.7416175,324.2580032,324.2250556,,,,,,,,,,,,,,,,,,,,,,,,,,324.25091610000004,324.2580032,324.2580032,324.2580032,327.2415537,None,,,327.2415958,329.20850690000003,j,327.2582079,327.2582079,1.9433832999999936,None,,,,,,,,,,00008,001,2025-11-10_16h35.03.177,MST_task,2024.2.2,60.40412777647035,2025-11-10 16h35.14.813484 +0530,
,Scenes\030a.jpg,47,0,47,,,,,,,j,1.4376882999999907,0.13812500000000227,None,,,,,,,47,0,47,0,329.2248323,,,,,,,,,,,,,,,,,,,,,,,329.2086277,329.2248323,329.7414468,329.70841,,,,,,,,,,,,,,,,,,,,,,,,,,329.7336407,329.7414468,329.7414468,329.7414468,332.7248076,j,1.4376882999999907,0.13812500000000227,332.7248512,332.7248622,None,,,,,,,,,,,,,,00008,001,2025-11-10_16h35.03.177,MST_task,2024.2.2,60.40412777647035,2025-11-10 16h35.14.813484 +0530,
,Scenes\074a.jpg,48,0,48,,,,,,,None,,,j,1.5169961000000285,None,,,,,48,0,48,0,332.7413816,,,,,,,,,,,,,,,,,,,,,,,332.7249191,332.7413816,333.2580603,333.2248875,,,,,,,,,,,,,,,,,,,,,,,,,,333.2487406,333.2580603,333.2580603,333.2580603,336.24141230000004,None,,,336.24146290000004,337.79184319999996,j,336.25798860000003,336.25798860000003,1.5169961000000285,None,,,,,,,,,,00008,001,2025-11-10_16h35.03.177,MST_task,2024.2.2,60.40412777647035,2025-11-10 16h35.14.813484 +0530,
,Objects\185a.jpg,49,0,49,,,,,,,f,2.56445640000004,0.1947987999999441,None,,,,,,,49,0,49,0,337.8079799,,,,,,,,,,,,,,,,,,,,,,,337.79194580000006,337.8079799,338.32483099999996,338.2915482,,,,,,,,,,,,,,,,,,,,,,,,,,338.31792920000004,338.32483099999996,338.32483099999996,338.32483099999996,341.30806060000003,f,2.56445640000004,0.1947987999999441,341.3081129,341.30812380000003,None,,,,,,,,,,,,,,00008,001,2025-11-10_16h35.03.177,MST_task,2024.2.2,60.40412777647035,2025-11-10 16h35.14.813484 +0530,
,Objects\006a.jpg,50,0,50,,,,,,,None,,,f,2.714179299999955,None,,,,,50,0,50,0,341.3245659,,,,,,,,,,,,,,,,,,,,,,,341.3082,341.3245659,341.8411987,341.8080706,,,,,,,,,,,,,,,,,,,,,,,,,,341.83013510000006,341.8411987,341.8411987,341.8411987,344.82452170000005,None,,,344.8245619,347.5581894,f,344.84115920000005,344.84115920000005,2.714179299999955,None,,,,,,,,,,00008,001,2025-11-10_16h35.03.177,MST_task,2024.2.2,60.40412777647035,2025-11-10 16h35.14.813484 +0530,
,Objects\065a.jpg,51,0,51,,,,,,,None,,,f,0.7146241000000373,None,,,,,51,0,51,0,347.5744255,,,,,,,,,,,,,,,,,,,,,,,347.55827089999997,347.5744255,348.1077115,348.05797820000004,,,,,,,,,,,,,,,,,,,,,,,,,,348.0885825,348.1077115,348.1077115,348.1077115,351.07447859999996,None,,,351.07452730000006,351.8080785,f,351.0910128,351.0910128,0.7146241000000373,None,,,,,,,,,,00008,001,2025-11-10_16h35.03.177,MST_task,2024.2.2,60.40412777647035,2025-11-10 16h35.14.813484 +0530,
,Objects\106a.jpg,52,0,52,,,,,,,f,2.3447951000000558,0.17395009999995636,None,,,,,,,52,0,52,0,351.8243286,,,,,,,,,,,,,,,,,,,,,,,351.80818089999997,351.8243286,352.3409546,352.30782930000004,,,,,,,,,,,,,,,,,,,,,,,,,,352.3333233,352.3409546,352.3409546,352.3409546,355.32432750000004,f,2.3447951000000558,0.17395009999995636,355.32437899999996,355.3243895,None,,,,,,,,,,,,,,00008,001,2025-11-10_16h35.03.177,MST_task,2024.2.2,60.40412777647035,2025-11-10 16h35.14.813484 +0530,
,Objects\084a.jpg,53,0,53,,,,,,,f,2.848462300000051,None,None,,,,,,,53,0,53,0,355.34094769999996,,,,,,,,,,,,,,,,,,,,,,,355.3244663,355.34094769999996,355.8575494,355.8243934,,,,,,,,,,,,,,,,,,,,,,,,,,355.8453715,355.8575494,355.8575494,355.8575494,358.84096460000006,f,2.848462300000051,None,358.84100889999996,358.8410188,None,,,,,,,,,,,,,,00008,001,2025-11-10_16h35.03.177,MST_task,2024.2.2,60.40412777647035,2025-11-10 16h35.14.813484 +0530,
,Objects\188a.jpg,54,0,54,,,,,,,None,,,f,0.7661692000000357,None,,,,,54,0,54,0,358.85751869999996,,,,,,,,,,,,,,,,,,,,,,,358.8410972,358.85751869999996,359.37413,359.3410055,,,,,,,,,,,,,,,,,,,,,,,,,,359.3646742,359.37413,359.37413,359.37413,362.3575927,None,,,362.35763579999997,363.1411132,f,362.37410830000005,362.37410830000005,0.7661692000000357,None,,,,,,,,,,00008,001,2025-11-10_16h35.03.177,MST_task,2024.2.2,60.40412777647035,2025-11-10 16h35.14.813484 +0530,
,Objects\004a.jpg,55,0,55,,,,,,,None,,,j,0.9369923000000426,None,,,,,55,0,55,0,363.1574258,,,,,,,,,,,,,,,,,,,,,,,363.14121059999997,363.1574258,363.6739554,363.64102470000006,,,,,,,,,,,,,,,,,,,,,,,,,,363.67028980000003,363.6739554,363.6739554,363.6739554,366.65739920000004,None,,,366.65745510000005,367.6242884,j,366.6740186,366.6740186,0.9369923000000426,None,,,,,,,,,,00008,001,2025-11-10_16h35.03.177,MST_task,2024.2.2,60.40412777647035,2025-11-10 16h35.14.813484 +0530,
,Scenes\187a.jpg,56,0,56,,,,,,,None,,,j,1.040657900000042,None,,,,,56,0,56,0,367.64065580000005,,,,,,,,,,,,,,,,,,,,,,,367.6243828,367.64065580000005,368.1572753,368.12414970000003,,,,,,,,,,,,,,,,,,,,,,,,,,368.1487384,368.1572753,368.1572753,368.1572753,371.14062170000005,None,,,371.1406646,372.2074909,j,371.1572679,371.1572679,1.040657900000042,None,,,,,,,,,,00008,001,2025-11-10_16h35.03.177,MST_task,2024.2.2,60.40412777647035,2025-11-10 16h35.14.813484 +0530,
,Scenes\053a.jpg,57,0,57,,,,,,,j,2.0144195999999965,0.13541809999992438,None,,,,,,,57,0,57,0,372.2238961,,,,,,,,,,,,,,,,,,,,,,,372.20756339999997,372.2238961,372.7407126,372.70743569999996,,,,,,,,,,,,,,,,,,,,,,,,,,372.73064300000004,372.7407126,372.7407126,372.7407126,375.72395009999997,j,2.0144195999999965,0.13541809999992438,375.7239987,375.72400999999996,None,,,,,,,,,,,,,,00008,001,2025-11-10_16h35.03.177,MST_task,2024.2.2,60.40412777647035,2025-11-10 16h35.14.813484 +0530,
,Scenes\112a.jpg,58,0,58,,,,,,,j,2.1989132000001064,0.12940819999994346,None,,,,,,,58,0,58,0,375.7404836,,,,,,,,,,,,,,,,,,,,,,,375.72409039999997,375.7404836,376.25686509999997,376.2241168,,,,,,,,,,,,,,,,,,,,,,,,,,376.25063200000005,376.25686509999997,376.25686509999997,376.25686509999997,379.24046160000006,j,2.1989132000001064,0.12940819999994346,379.24050600000004,379.2405164,None,,,,,,,,,,,,,,00008,001,2025-11-10_16h35.03.177,MST_task,2024.2.2,60.40412777647035,2025-11-10 16h35.14.813484 +0530,
,Scenes\155a.jpg,59,0,59,,,,,,,j,1.3879441999999926,0.1616557999999486,None,,,,,,,59,0,59,0,379.2570811,,,,,,,,,,,,,,,,,,,,,,,379.2405786,379.2570811,379.77369819999996,379.74050930000004,,,,,,,,,,,,,,,,,,,,,,,,,,379.76688370000005,379.77369819999996,379.77369819999996,379.77369819999996,382.75705940000006,j,1.3879441999999926,0.1616557999999486,382.7571109,382.75712160000006,None,,,,,,,,,,,,,,00008,001,2025-11-10_16h35.03.177,MST_task,2024.2.2,60.40412777647035,2025-11-10 16h35.14.813484 +0530,
,Scenes\001a.jpg,60,0,60,,,,,,,None,,,f,1.0595565999999508,None,,,,,60,0,60,0,382.7736607,,,,,,,,,,,,,,,,,,,,,,,382.75720040000004,382.7736607,383.3072695,383.257237,,,,,,,,,,,,,,,,,,,,,,,,,,383.2962349,383.3072695,383.3072695,383.3072695,386.273701,None,,,386.27374449999996,387.3572909,f,386.29026719999996,386.29026719999996,1.0595565999999508,None,,,,,,,,,,00008,001,2025-11-10_16h35.03.177,MST_task,2024.2.2,60.40412777647035,2025-11-10 16h35.14.813484 +0530,
,Scenes\121a.jpg,61,0,61,,,,,,,None,,,j,0.829243599999927,None,,,,,61,0,61,0,387.3735853,,,,,,,,,,,,,,,,,,,,,,,387.3573935,387.3735853,387.90688040000003,387.85711080000004,,,,,,,,,,,,,,,,,,,,,,,,,,387.8874983,387.90688040000003,387.90688040000003,387.90688040000003,390.87350410000005,None,,,390.8735462,391.72376760000003,j,390.89016369999996,390.89016369999996,0.829243599999927,None,,,,,,,,,,00008,001,2025-11-10_16h35.03.177,MST_task,2024.2.2,60.40412777647035,2025-11-10 16h35.14.813484 +0530,
,Scenes\159a.jpg,62,0,62,,,,,,,None,,,j,0.21093150000001515,None,,,,,62,0,62,0,391.74010430000004,,,,,,,,,,,,,,,,,,,,,,,391.72386290000003,391.74010430000004,392.25638,392.223596,,,,,,,,,,,,,,,,,,,,,,,,,,392.2502765,392.25638,392.25638,392.25638,395.2401488,None,,,395.24019360000005,395.4736803,j,395.25675070000005,395.25675070000005,0.21093150000001515,None,,,,,,,,,,00008,001,2025-11-10_16h35.03.177,MST_task,2024.2.2,60.40412777647035,2025-11-10 16h35.14.813484 +0530,
,Objects\014a.jpg,63,0,63,,,,,,,None,,,f,0.8418123000000151,None,,,,,63,0,63,0,395.4900548,,,,,,,,,,,,,,,,,,,,,,,395.4737706,395.4900548,396.0237735,395.9736003,,,,,,,,,,,,,,,,,,,,,,,,,,396.00605350000006,396.0237735,396.0237735,396.0237735,398.9900323,None,,,398.99022070000007,399.85689640000004,f,399.00664969999997,399.00664969999997,0.8418123000000151,None,,,,,,,,,,00008,001,2025-11-10_16h35.03.177,MST_task,2024.2.2,60.40412777647035,2025-11-10 16h35.14.813484 +0530,
,Objects\158a.jpg,64,0,64,,,,,,,None,,,j,0.15734869999994316,None,,,,,64,0,64,0,399.87332440000006,,,,,,,,,,,,,,,,,,,,,,,399.85699430000005,399.87332440000006,400.40661040000003,400.3567674,,,,,,,,,,,,,,,,,,,,,,,,,,400.38819029999996,400.40661040000003,400.40661040000003,400.40661040000003,403.3732786,None,,,403.37331750000004,403.5568232,j,403.3899062,403.3899062,0.15734869999994316,None,,,,,,,,,,00008,001,2025-11-10_16h35.03.177,MST_task,2024.2.2,60.40412777647035,2025-11-10 16h35.14.813484 +0530,
,Objects\091a.jpg,65,0,65,,,,,,,None,,,f,1.2020295999999462,None,,,,,65,0,65,0,403.57321410000003,,,,,,,,,,,,,,,,,,,,,,,403.5569065,403.57321410000003,404.10654930000004,404.056768,,,,,,,,,,,,,,,,,,,,,,,,,,404.0869866,404.10654930000004,404.10654930000004,404.10654930000004,407.0733018,None,,,407.0733452,408.30681340000007,f,407.0898033,407.0898033,1.2020295999999462,None,,,,,,,,,,00008,001,2025-11-10_16h35.03.177,MST_task,2024.2.2,60.40412777647035,2025-11-10 16h35.14.813484 +0530,
,Objects\165a.jpg,66,0,66,,,,,,,None,,,f,4.313744200000087,None,,,,,66,0,66,0,408.32310079999996,,,,,,,,,,,,,,,,,,,,,,,408.3069119,408.32310079999996,408.8564107,408.8066504,,,,,,,,,,,,,,,,,,,,,,,,,,408.8363506,408.8564107,408.8564107,408.8564107,411.82321830000006,None,,,411.82326489999997,416.15669800000006,f,411.8397041,411.8397041,4.313744200000087,None,,,,,,,,,,00008,001,2025-11-10_16h35.03.177,MST_task,2024.2.2,60.40412777647035,2025-11-10 16h35.14.813484 +0530,
,Objects\174a.jpg,67,0,67,,,,,,,None,,,j,3.165623900000014,None,,,,,67,0,67,0,416.1729257,,,,,,,,,,,,,,,,,,,,,,,416.1568202,416.1729257,416.6895956,416.65651800000006,,,,,,,,,,,,,,,,,,,,,,,,,,416.68152790000005,416.6895956,416.6895956,416.6895956,419.68960069999997,None,,,419.68964090000003,422.8732035,j,419.7061961,419.7061961,3.165623900000014,None,,,,,,,,,,00008,001,2025-11-10_16h35.03.177,MST_task,2024.2.2,60.40412777647035,2025-11-10 16h35.14.813484 +0530,
,Objects\073a.jpg,68,0,68,,,,,,,f,1.8162722999999232,0.17824590000009266,None,,,,,,,68,0,68,0,422.8894102,,,,,,,,,,,,,,,,,,,,,,,422.87330420000006,422.8894102,423.42276680000003,423.373048,,,,,,,,,,,,,,,,,,,,,,,,,,423.40347119999996,423.42276680000003,423.42276680000003,423.42276680000003,426.38954570000004,f,1.8162722999999232,0.17824590000009266,426.3896001,426.38961180000007,None,,,,,,,,,,,,,,00008,001,2025-11-10_16h35.03.177,MST_task,2024.2.2,60.40412777647035,2025-11-10 16h35.14.813484 +0530,
,Objects\166a.jpg,69,0,69,,,,,,,None,,,f,6.127256500000044,None,,,,,69,0,69,0,426.40605380000005,,,,,,,,,,,,,,,,,,,,,,,426.3896944,426.40605380000005,426.92268129999997,426.88953050000003,,,,,,,,,,,,,,,,,,,,,,,,,,426.9065351,426.92268129999997,426.92268129999997,426.92268129999997,429.90599230000004,None,,,429.9060397,436.05608120000005,f,429.9226299,429.9226299,6.127256500000044,None,,,,,,,,,,00008,001,2025-11-10_16h35.03.177,MST_task,2024.2.2,60.40412777647035,2025-11-10 16h35.14.813484 +0530,
,Scenes\049a.jpg,70,0,70,,,,,,,j,1.9425046999999722,0.1499668000000156,None,,,,,,,70,0,70,0,436.0725101,,,,,,,,,,,,,,,,,,,,,,,436.0562035,436.0725101,436.58911860000006,436.5560913,,,,,,,,,,,,,,,,,,,,,,,,,,436.57926520000007,436.58911860000006,436.58911860000006,436.58911860000006,439.57254660000007,j,1.9425046999999722,0.1499668000000156,439.57259430000005,439.5726054,None,,,,,,,,,,,,,,00008,001,2025-11-10_16h35.03.177,MST_task,2024.2.2,60.40412777647035,2025-11-10 16h35.14.813484 +0530,
,Scenes\175a.jpg,71,0,71,,,,,,,j,1.267494499999998,0.16551269999990836,None,,,,,,,71,0,71,0,439.58908879999996,,,,,,,,,,,,,,,,,,,,,,,439.57268600000003,439.58908879999996,440.10594010000005,440.0725792,,,,,,,,,,,,,,,,,,,,,,,,,,440.09843559999996,440.10594010000005,440.10594010000005,440.10594010000005,443.08920170000005,j,1.267494499999998,0.16551269999990836,443.08924540000004,443.08925590000007,None,,,,,,,,,,,,,,00008,001,2025-11-10_16h35.03.177,MST_task,2024.2.2,60.40412777647035,2025-11-10 16h35.14.813484 +0530,
,Scenes\156a.jpg,72,0,72,,,,,,,None,,,j,1.1474183000000266,None,,,,,72,0,72,0,443.10577070000005,,,,,,,,,,,,,,,,,,,,,,,443.08931580000007,443.10577070000005,443.6223736,443.5892651,,,,,,,,,,,,,,,,,,,,,,,,,,443.6157562,443.6223736,443.6223736,443.6223736,446.60565750000006,None,,,446.60570379999996,447.77254450000004,j,446.6222549,446.6222549,1.1474183000000266,None,,,,,,,,,,00008,001,2025-11-10_16h35.03.177,MST_task,2024.2.2,60.40412777647035,2025-11-10 16h35.14.813484 +0530,
,Scenes\105a.jpg,73,0,73,,,,,,,j,1.0050963999999567,0.15022450000003573,None,,,,,,,73,0,73,0,447.78891300000004,,,,,,,,,,,,,,,,,,,,,,,447.77265030000007,447.78891300000004,448.32221740000006,448.27238259999996,,,,,,,,,,,,,,,,,,,,,,,,,,448.3065443,448.32221740000006,448.32221740000006,448.32221740000006,451.2889055,j,1.0050963999999567,0.15022450000003573,451.288963,451.288974,None,,,,,,,,,,,,,,00008,001,2025-11-10_16h35.03.177,MST_task,2024.2.2,60.40412777647035,2025-11-10 16h35.14.813484 +0530,
,Scenes\047a.jpg,74,0,74,,,,,,,None,,,j,1.1611523000000261,None,,,,,74,0,74,0,451.30556540000003,,,,,,,,,,,,,,,,,,,,,,,451.28905149999997,451.30556540000003,451.8389729,451.78907970000006,,,,,,,,,,,,,,,,,,,,,,,,,,451.8161637,451.8389729,451.8389729,451.8389729,454.8054792,None,,,454.80564670000007,455.98915330000005,j,454.8220938,454.8220938,1.1611523000000261,None,,,,,,,,,,00008,001,2025-11-10_16h35.03.177,MST_task,2024.2.2,60.40412777647035,2025-11-10 16h35.14.813484 +0530,
,Scenes\097a.jpg,75,0,75,,,,,,,None,,,f,0.7510406999999759,None,,,,,75,0,75,0,456.0053946,,,,,,,,,,,,,,,,,,,,,,,455.98927080000004,456.0053946,456.5389476,456.4888918,,,,,,,,,,,,,,,,,,,,,,,,,,456.53169829999996,456.5389476,456.5389476,456.5389476,459.50537119999996,None,,,459.5054137,460.28903629999996,f,459.52205240000006,459.52205240000006,0.7510406999999759,None,,,,,,,,,,00008,001,2025-11-10_16h35.03.177,MST_task,2024.2.2,60.40412777647035,2025-11-10 16h35.14.813484 +0530,
,Scenes\052a.jpg,76,0,76,,,,,,,None,,,j,1.6456421000000319,None,,,,,76,0,76,0,460.3053081,,,,,,,,,,,,,,,,,,,,,,,460.28914330000003,460.3053081,460.82192190000006,460.7887904,,,,,,,,,,,,,,,,,,,,,,,,,,460.8140503,460.82192190000006,460.82192190000006,460.82192190000006,463.80529440000004,None,,,463.80533600000007,465.4723297,j,463.82190169999996,463.82190169999996,1.6456421000000319,None,,,,,,,,,,00008,001,2025-11-10_16h35.03.177,MST_task,2024.2.2,60.40412777647035,2025-11-10 16h35.14.813484 +0530,
,Objects\075a.jpg,77,0,77,,,,,,,j,2.54702199999997,0.13420129999997243,None,,,,,,,77,0,77,0,465.4885353,,,,,,,,,,,,,,,,,,,,,,,465.47241260000004,465.4885353,466.02206559999996,465.97205160000004,,,,,,,,,,,,,,,,,,,,,,,,,,466.0043672,466.02206559999996,466.02206559999996,466.02206559999996,468.9885178,j,2.54702199999997,0.13420129999997243,468.98856330000007,468.98857460000005,None,,,,,,,,,,,,,,00008,001,2025-11-10_16h35.03.177,MST_task,2024.2.2,60.40412777647035,2025-11-10 16h35.14.813484 +0530,
,Objects\178a.jpg,78,0,78,,,,,,,j,1.5098381000000245,0.14018060000000787,None,,,,,,,78,0,78,0,469.0051169,,,,,,,,,,,,,,,,,,,,,,,468.9886522,469.0051169,469.5217442,469.48859339999996,,,,,,,,,,,,,,,,,,,,,,,,,,469.50914860000006,469.5217442,469.5217442,469.5217442,472.50514749999996,j,1.5098381000000245,0.14018060000000787,472.5051924,472.505203,None,,,,,,,,,,,,,,00008,001,2025-11-10_16h35.03.177,MST_task,2024.2.2,60.40412777647035,2025-11-10 16h35.14.813484 +0530,
,Objects\142a.jpg,79,0,79,,,,,,,f,1.474865500000078,0.19797840000001088,None,,,,,,,79,0,79,0,472.5217673,,,,,,,,,,,,,,,,,,,,,,,472.5052593,472.5217673,473.03853910000004,473.00518059999996,,,,,,,,,,,,,,,,,,,,,,,,,,473.03456650000004,473.03853910000004,473.03853910000004,473.03853910000004,476.02171430000004,f,1.474865500000078,0.19797840000001088,476.021761,476.02177180000007,None,,,,,,,,,,,,,,00008,001,2025-11-10_16h35.03.177,MST_task,2024.2.2,60.40412777647035,2025-11-10 16h35.14.813484 +0530,
,Objects\037a.jpg,80,0,80,,,,,,,f,2.3215051000000813,0.20399029999998675,None,,,,,,,80,0,80,0,476.03829820000004,,,,,,,,,,,,,,,,,,,,,,,476.0218491,476.03829820000004,476.5715806,476.52188129999996,,,,,,,,,,,,,,,,,,,,,,,,,,476.55365,476.5715806,476.5715806,476.5715806,479.5382622,f,2.3215051000000813,0.20399029999998675,479.5383082,479.5383185,None,,,,,,,,,,,,,,00008,001,2025-11-10_16h35.03.177,MST_task,2024.2.2,60.40412777647035,2025-11-10 16h35.14.813484 +0530,
,Objects\191a.jpg,81,0,81,,,,,,,f,1.6858687999999802,0.14260119999994458,None,,,,,,,81,0,81,0,479.5548885,,,,,,,,,,,,,,,,,,,,,,,479.53839480000005,479.5548885,480.0715406,480.038515,,,,,,,,,,,,,,,,,,,,,,,,,,480.05888799999997,480.0715406,480.0715406,480.0715406,483.05484329999996,f,1.6858687999999802,0.14260119999994458,483.05489000000006,483.05490019999996,None,,,,,,,,,,,,,,00008,001,2025-11-10_16h35.03.177,MST_task,2024.2.2,60.40412777647035,2025-11-10 16h35.14.813484 +0530,
,Objects\049a.jpg,82,0,82,,,,,,,None,,,f,0.7025234000000182,None,,,,,82,0,82,0,483.07143750000006,,,,,,,,,,,,,,,,,,,,,,,483.05498630000005,483.07143750000006,483.58811900000006,483.5549652,,,,,,,,,,,,,,,,,,,,,,,,,,483.5798169,483.58811900000006,483.58811900000006,483.58811900000006,486.57151760000005,None,,,486.5715631,487.3050798,f,486.5880596,486.5880596,0.7025234000000182,None,,,,,,,,,,00008,001,2025-11-10_16h35.03.177,MST_task,2024.2.2,60.40412777647035,2025-11-10 16h35.14.813484 +0530,
,Objects\076a.jpg,83,0,83,,,,,,,j,1.6414630000000443,0.12333730000000287,None,,,,,,,83,0,83,0,487.32139490000003,,,,,,,,,,,,,,,,,,,,,,,487.30515370000006,487.32139490000003,487.83803960000006,487.80497610000003,,,,,,,,,,,,,,,,,,,,,,,,,,487.8331699,487.83803960000006,487.83803960000006,487.83803960000006,490.82134560000003,j,1.6414630000000443,0.12333730000000287,490.8213914,490.8214019,None,,,,,,,,,,,,,,00008,001,2025-11-10_16h35.03.177,MST_task,2024.2.2,60.40412777647035,2025-11-10 16h35.14.813484 +0530,
,Scenes\098a.jpg,84,0,84,,,,,,,f,1.8741988000000447,0.17391939999993156,None,,,,,,,84,0,84,0,490.83797180000005,,,,,,,,,,,,,,,,,,,,,,,490.8214969,490.83797180000005,491.3712946,491.3214394,,,,,,,,,,,,,,,,,,,,,,,,,,491.34947000000005,491.3712946,491.3712946,491.3712946,494.33794489999997,f,1.8741988000000447,0.17391939999993156,494.33799189999996,494.33800220000006,None,,,,,,,,,,,,,,00008,001,2025-11-10_16h35.03.177,MST_task,2024.2.2,60.40412777647035,2025-11-10 16h35.14.813484 +0530,
,Scenes\080a.jpg,85,0,85,,,,,,,j,2.4363898999999947,0.16658240000003843,None,,,,,,,85,0,85,0,494.35459480000003,,,,,,,,,,,,,,,,,,,,,,,494.33806069999997,494.35459480000003,494.87118630000003,494.8381371,,,,,,,,,,,,,,,,,,,,,,,,,,494.863185,494.87118630000003,494.87118630000003,494.87118630000003,497.8545204,j,2.4363898999999947,0.16658240000003843,497.8545644,497.85457479999997,None,,,,,,,,,,,,,,00008,001,2025-11-10_16h35.03.177,MST_task,2024.2.2,60.40412777647035,2025-11-10 16h35.14.813484 +0530,
,Scenes\143a.jpg,86,0,86,,,,,,,j,2.6625844000000143,0.15424399999994876,None,,,,,,,86,0,86,0,497.8711557,,,,,,,,,,,,,,,,,,,,,,,497.8546465,497.8711557,498.40445819999997,498.3546683,,,,,,,,,,,,,,,,,,,,,,,,,,498.38275519999996,498.40445819999997,498.40445819999997,498.40445819999997,501.3711143,j,2.6625844000000143,0.15424399999994876,501.3711725,501.3711828,None,,,,,,,,,,,,,,00008,001,2025-11-10_16h35.03.177,MST_task,2024.2.2,60.40412777647035,2025-11-10 16h35.14.813484 +0530,
,Scenes\054a.jpg,87,0,87,,,,,,,j,2.362931200000048,0.15826389999995172,None,,,,,,,87,0,87,0,501.38774440000003,,,,,,,,,,,,,,,,,,,,,,,501.37125740000005,501.38774440000003,501.9043916,501.8712324,,,,,,,,,,,,,,,,,,,,,,,,,,501.89345110000005,501.9043916,501.9043916,501.9043916,504.88771049999997,j,2.362931200000048,0.15826389999995172,504.88776790000003,504.8877783,None,,,,,,,,,,,,,,00008,001,2025-11-10_16h35.03.177,MST_task,2024.2.2,60.40412777647035,2025-11-10 16h35.14.813484 +0530,
,Scenes\180a.jpg,88,0,88,,,,,,,j,1.8502330999999685,0.18195920000005117,None,,,,,,,88,0,88,0,504.90429250000005,,,,,,,,,,,,,,,,,,,,,,,504.88785509999997,504.90429250000005,505.43762680000003,505.3878695,,,,,,,,,,,,,,,,,,,,,,,,,,505.41653260000004,505.43762680000003,505.43762680000003,505.43762680000003,508.40429020000005,j,1.8502330999999685,0.18195920000005117,508.40434110000007,508.4043519,None,,,,,,,,,,,,,,00008,001,2025-11-10_16h35.03.177,MST_task,2024.2.2,60.40412777647035,2025-11-10 16h35.14.813484 +0530,
,Scenes\017a.jpg,89,0,89,,,,,,,f,1.8388082999999824,0.18178490000002512,None,,,,,,,89,0,89,0,508.42088670000004,,,,,,,,,,,,,,,,,,,,,,,508.4044105,508.42088670000004,508.95441710000006,508.9044836,,,,,,,,,,,,,,,,,,,,,,,,,,508.9348955,508.95441710000006,508.95441710000006,508.95441710000006,511.92089760000005,f,1.8388082999999824,0.18178490000002512,511.920949,511.9209602,None,,,,,,,,,,,,,,00008,001,2025-11-10_16h35.03.177,MST_task,2024.2.2,60.40412777647035,2025-11-10 16h35.14.813484 +0530,
,Scenes\126a.jpg,90,0,90,,,,,,,j,2.325063,0.16968440000005103,None,,,,,,,90,0,90,0,511.9375286,,,,,,,,,,,,,,,,,,,,,,,511.9210449,511.9375286,512.4708291,512.4210499000001,,,,,,,,,,,,,,,,,,,,,,,,,,512.4527343,512.4708291,512.4708291,512.4708291,515.4374636,j,2.325063,0.16968440000005103,515.4375285000001,515.4375413,None,,,,,,,,,,,,,,00008,001,2025-11-10_16h35.03.177,MST_task,2024.2.2,60.40412777647035,2025-11-10 16h35.14.813484 +0530,
,Objects\163a.jpg,91,0,91,,,,,,,None,,,j,2.6744412000000466,None,,,,,91,0,91,0,515.4541108999999,,,,,,,,,,,,,,,,,,,,,,,515.4376311999999,515.4541108999999,515.9877501000001,515.9377509999999,,,,,,,,,,,,,,,,,,,,,,,,,,515.9669293,515.9877501000001,515.9877501000001,515.9877501000001,518.9540923,None,,,518.9541397,521.6542448,j,518.9706996,518.9706996,2.6744412000000466,None,,,,,,,,,,00008,001,2025-11-10_16h35.03.177,MST_task,2024.2.2,60.40412777647035,2025-11-10 16h35.14.813484 +0530,
,Objects\112a.jpg,92,0,92,,,,,,,None,,,f,0.5462254999999914,None,,,,,92,0,92,0,521.6706314,,,,,,,,,,,,,,,,,,,,,,,521.6543207,521.6706314,522.2039207,522.1543173,,,,,,,,,,,,,,,,,,,,,,,,,,522.1982965,522.2039207,522.2039207,522.2039207,525.1706356,None,,,525.1706907,525.7375678000001,f,525.1872612,525.1872612,0.5462254999999914,None,,,,,,,,,,00008,001,2025-11-10_16h35.03.177,MST_task,2024.2.2,60.40412777647035,2025-11-10 16h35.14.813484 +0530,
,Objects\008a.jpg,93,0,93,,,,,,,None,,,f,1.1306817999998202,None,,,,,93,0,93,0,525.7539085000001,,,,,,,,,,,,,,,,,,,,,,,525.7376446999999,525.7539085000001,526.2705714000001,526.2373210999999,,,,,,,,,,,,,,,,,,,,,,,,,,526.2630041,526.2705714000001,526.2705714000001,526.2705714000001,529.2538936000001,None,,,529.2539486999999,530.4041953000001,f,529.2704920000001,529.2704920000001,1.1306817999998202,None,,,,,,,,,,00008,001,2025-11-10_16h35.03.177,MST_task,2024.2.2,60.40412777647035,2025-11-10 16h35.14.813484 +0530,
,Objects\133a.jpg,94,0,94,,,,,,,None,,,j,0.3981239000002006,None,,,,,94,0,94,0,530.4204345,,,,,,,,,,,,,,,,,,,,,,,530.4043074000001,530.4204345,530.9370673000001,530.9039719,,,,,,,,,,,,,,,,,,,,,,,,,,530.9315611,530.9370673000001,530.9370673000001,530.9370673000001,533.9204254000001,None,,,533.9204748,534.3374002999999,j,533.9370468,533.9370468,0.3981239000002006,None,,,,,,,,,,00008,001,2025-11-10_16h35.03.177,MST_task,2024.2.2,60.40412777647035,2025-11-10 16h35.14.813484 +0530,
,Objects\190a.jpg,95,0,95,,,,,,,f,1.1549875000000611,0.19001079999998183,None,,,,,,,95,0,95,0,534.3536919999999,,,,,,,,,,,,,,,,,,,,,,,534.3374847,534.3536919999999,534.8870052,534.8371605,,,,,,,,,,,,,,,,,,,,,,,,,,534.8685757999999,534.8870052,534.8870052,534.8870052,537.8536517,f,1.1549875000000611,0.19001079999998183,537.8536939,537.853705,None,,,,,,,,,,,,,,00008,001,2025-11-10_16h35.03.177,MST_task,2024.2.2,60.40412777647035,2025-11-10 16h35.14.813484 +0530,
,Objects\060a.jpg,96,0,96,,,,,,,j,2.334365299999945,0.16247569999995903,None,,,,,,,96,0,96,0,537.8702526,,,,,,,,,,,,,,,,,,,,,,,537.8537609,537.8702526,538.3869265000001,538.3538745999999,,,,,,,,,,,,,,,,,,,,,,,,,,538.3703565000001,538.3869265000001,538.3869265000001,538.3869265000001,541.3702129999999,j,2.334365299999945,0.16247569999995903,541.3702611000001,541.3702717000001,None,,,,,,,,,,,,,,00008,001,2025-11-10_16h35.03.177,MST_task,2024.2.2,60.40412777647035,2025-11-10 16h35.14.813484 +0530,
,Objects\095a.jpg,97,0,97,,,,,,,None,,,f,2.4216844999998557,None,,,,,97,0,97,0,541.3868777,,,,,,,,,,,,,,,,,,,,,,,541.3703279000001,541.3868777,541.9035361000001,541.8703598,,,,,,,,,,,,,,,,,,,,,,,,,,541.8976904000001,541.9035361000001,541.9035361000001,541.9035361000001,544.8868268000001,None,,,544.8868726999999,547.3372589999999,f,544.9034612,544.9034612,2.4216844999998557,None,,,,,,,,,,00008,001,2025-11-10_16h35.03.177,MST_task,2024.2.2,60.40412777647035,2025-11-10 16h35.14.813484 +0530,
,Scenes\087a.jpg,98,0,98,,,,,,,j,1.2573743000000377,0.1889441999999235,None,,,,,,,98,0,98,0,547.3534087,,,,,,,,,,,,,,,,,,,,,,,547.3373933,547.3534087,547.9036567,547.8369032,,,,,,,,,,,,,,,,,,,,,,,,,,547.8859646000001,547.9036567,547.9036567,547.9036567,550.8534988000001,j,1.2573743000000377,0.1889441999999235,550.8535417999999,550.8535522,None,,,,,,,,,,,,,,00008,001,2025-11-10_16h35.03.177,MST_task,2024.2.2,60.40412777647035,2025-11-10 16h35.14.813484 +0530,
,Scenes\169a.jpg,99,0,99,,,,,,,j,1.8405589999999847,0.17423110000004272,None,,,,,,,99,0,99,0,550.869997,,,,,,,,,,,,,,,,,,,,,,,550.8536057000001,550.869997,551.3868608,551.3535402,,,,,,,,,,,,,,,,,,,,,,,,,,551.376348,551.3868608,551.3868608,551.3868608,554.3699873,j,1.8405589999999847,0.17423110000004272,554.3700512,554.3700630999999,None,,,,,,,,,,,,,,00008,001,2025-11-10_16h35.03.177,MST_task,2024.2.2,60.40412777647035,2025-11-10 16h35.14.813484 +0530,
,Scenes\124a.jpg,100,0,100,,,,,,,f,2.918714399999999,None,None,,,,,,,100,0,100,0,554.3865716,,,,,,,,,,,,,,,,,,,,,,,554.3701275999999,554.3865716,554.9032295,554.8701191,,,,,,,,,,,,,,,,,,,,,,,,,,554.8906403999999,554.9032295,554.9032295,554.9032295,557.8865442000001,f,2.918714399999999,None,557.8865886000001,557.8865985,None,,,,,,,,,,,,,,00008,001,2025-11-10_16h35.03.177,MST_task,2024.2.2,60.40412777647035,2025-11-10 16h35.14.813484 +0530,
,Scenes\025a.jpg,101,0,101,,,,,,,None,,,j,1.4297793000000638,None,,,,,101,0,101,0,557.9031468999999,,,,,,,,,,,,,,,,,,,,,,,557.8866684,557.9031468999999,,558.3866957,,,,,,,,,,,,,,,,,,,,,,,,,,558.4173232999999,558.4367345999999,558.4367345999999,558.4367345999999,561.4030925,None,,,561.4031451000001,562.8534788,j,561.4197766,561.4197766,1.4297793000000638,None,,,,,,,,,,00008,001,2025-11-10_16h35.03.177,MST_task,2024.2.2,60.40412777647035,2025-11-10 16h35.14.813484 +0530,
,Scenes\043a.jpg,102,0,102,,,,,,,None,,,f,1.2151185999998688,None,,,,,102,0,102,0,562.8697376,,,,,,,,,,,,,,,,,,,,,,,562.8535509000001,562.8697376,563.4030762,563.3533341,,,,,,,,,,,,,,,,,,,,,,,,,,563.3876829999999,563.4030762,563.4030762,563.4030762,566.3697212,None,,,566.3697619,567.6033259999999,f,566.3863243000001,566.3863243000001,1.2151185999998688,None,,,,,,,,,,00008,001,2025-11-10_16h35.03.177,MST_task,2024.2.2,60.40412777647035,2025-11-10 16h35.14.813484 +0530,
,Scenes\106a.jpg,103,0,103,,,,,,,None,,,j,0.7659640000001673,None,,,,,103,0,103,0,567.6196424,,,,,,,,,,,,,,,,,,,,,,,567.6034327,567.6196424,568.1362733999999,568.1031088,,,,,,,,,,,,,,,,,,,,,,,,,,568.1295462,568.1362733999999,568.1362733999999,568.1362733999999,571.1195866999999,None,,,571.1196417000001,571.9032003,j,571.1362331,571.1362331,0.7659640000001673,None,,,,,,,,,,00008,001,2025-11-10_16h35.03.177,MST_task,2024.2.2,60.40412777647035,2025-11-10 16h35.14.813484 +0530,
,Scenes\069a.jpg,104,0,104,,,,,,,j,2.805013400000007,0.1345430999999735,None,,,,,,,104,0,104,0,571.9195072,,,,,,,,,,,,,,,,,,,,,,,571.9033058,571.9195072,572.4528302000001,572.4031276000001,,,,,,,,,,,,,,,,,,,,,,,,,,572.4310969000001,572.4528302000001,572.4528302000001,572.4528302000001,575.4194915999999,j,2.805013400000007,0.1345430999999735,575.4195474999999,575.4195583999999,None,,,,,,,,,,,,,,00008,001,2025-11-10_16h35.03.177,MST_task,2024.2.2,60.40412777647035,2025-11-10 16h35.14.813484 +0530,
,Objects\110a.jpg,105,0,105,,,,,,,None,,,j,0.6133376000000226,None,,,,,105,0,105,0,575.4360922000001,,,,,,,,,,,,,,,,,,,,,,,575.4196325,575.4360922000001,575.9525452,575.9196366000001,,,,,,,,,,,,,,,,,,,,,,,,,,575.9487494,575.9525452,575.9525452,575.9525452,578.9360417,None,,,578.936095,579.5697417000001,j,578.9527235999999,578.9527235999999,0.6133376000000226,None,,,,,,,,,,00008,001,2025-11-10_16h35.03.177,MST_task,2024.2.2,60.40412777647035,2025-11-10 16h35.14.813484 +0530,
,Objects\099a.jpg,106,0,106,,,,,,,None,,,f,0.08921439999994618,None,,,,,106,0,106,0,579.5860438,,,,,,,,,,,,,,,,,,,,,,,579.5698206,579.5860438,580.1027045000001,580.0695933,,,,,,,,,,,,,,,,,,,,,,,,,,580.095597,580.1027045000001,580.1027045000001,580.1027045000001,583.0860035999999,None,,,583.0860458,583.2030084,f,583.1026323000001,583.1026323000001,0.08921439999994618,None,,,,,,,,,,00008,001,2025-11-10_16h35.03.177,MST_task,2024.2.2,60.40412777647035,2025-11-10 16h35.14.813484 +0530,
,Objects\083a.jpg,107,0,107,,,,,,,f,1.7619991000001392,0.2273662999998578,None,,,,,,,107,0,107,0,583.2192976000001,,,,,,,,,,,,,,,,,,,,,,,583.2030786,583.2192976000001,583.7359140000001,583.7028402999999,,,,,,,,,,,,,,,,,,,,,,,,,,583.7318563000001,583.7359140000001,583.7359140000001,583.7359140000001,586.7193001999999,f,1.7619991000001392,0.2273662999998578,586.7193488,586.7193597,None,,,,,,,,,,,,,,00008,001,2025-11-10_16h35.03.177,MST_task,2024.2.2,60.40412777647035,2025-11-10 16h35.14.813484 +0530,
,Objects\035a.jpg,108,0,108,,,,,,,f,1.7430398999999852,0.19161400000007234,None,,,,,,,108,0,108,0,586.7358466000001,,,,,,,,,,,,,,,,,,,,,,,586.7194176,586.7358466000001,587.2524965,587.2194388,,,,,,,,,,,,,,,,,,,,,,,,,,587.2465307,587.2524965,587.2524965,587.2524965,590.235893,f,1.7430398999999852,0.19161400000007234,590.2359475000001,590.2359601,None,,,,,,,,,,,,,,00008,001,2025-11-10_16h35.03.177,MST_task,2024.2.2,60.40412777647035,2025-11-10 16h35.14.813484 +0530,
,Objects\085a.jpg,109,0,109,,,,,,,None,,,f,0.8191576000001533,None,,,,,109,0,109,0,590.2525095999999,,,,,,,,,,,,,,,,,,,,,,,590.2360269999999,590.2525095999999,590.7691232,590.7359641999999,,,,,,,,,,,,,,,,,,,,,,,,,,590.7608629000001,590.7691232,590.7691232,590.7691232,593.7525215000001,None,,,593.7525648000001,594.6027568,f,593.7690674,593.7690674,0.8191576000001533,None,,,,,,,,,,00008,001,2025-11-10_16h35.03.177,MST_task,2024.2.2,60.40412777647035,2025-11-10 16h35.14.813484 +0530,
,Objects\064a.jpg,110,0,110,,,,,,,None,,,j,1.4544213000001491,None,,,,,110,0,110,0,594.6190434,,,,,,,,,,,,,,,,,,,,,,,594.6028593000001,594.6190434,595.1523276,595.1026426999999,,,,,,,,,,,,,,,,,,,,,,,,,,595.1324317000001,595.1523276,595.1523276,595.1523276,598.1191354,None,,,598.119187,599.6028656999999,j,598.1356327000001,598.1356327000001,1.4544213000001491,None,,,,,,,,,,00008,001,2025-11-10_16h35.03.177,MST_task,2024.2.2,60.40412777647035,2025-11-10 16h35.14.813484 +0530,
,Objects\090a.jpg,111,0,111,,,,,,,j,2.153477400000156,0.18638659999987794,None,,,,,,,111,0,111,0,599.6190276,,,,,,,,,,,,,,,,,,,,,,,599.6029759999999,599.6190276,600.1355536000001,600.1024229,,,,,,,,,,,,,,,,,,,,,,,,,,600.1286877,600.1355536000001,600.1355536000001,600.1355536000001,603.1189245,j,2.153477400000156,0.18638659999987794,603.1189704000001,603.1189810999999,None,,,,,,,,,,,,,,00008,001,2025-11-10_16h35.03.177,MST_task,2024.2.2,60.40412777647035,2025-11-10 16h35.14.813484 +0530,
,Scenes\178a.jpg,112,0,112,,,,,,,j,0.8575854000000618,0.1978146999999808,None,,,,,,,112,0,112,0,603.1355286,,,,,,,,,,,,,,,,,,,,,,,603.1190371,603.1355286,,603.6190296,,,,,,,,,,,,,,,,,,,,,,,,,,603.6391942,603.6521888,603.6521888,603.6521888,606.6355040000001,j,0.8575854000000618,0.1978146999999808,606.6355761,606.635591,None,,,,,,,,,,,,,,00008,001,2025-11-10_16h35.03.177,MST_task,2024.2.2,60.40412777647035,2025-11-10 16h35.14.813484 +0530,
,Scenes\168a.jpg,113,0,113,,,,,,,j,1.058014700000058,0.18645790000005036,None,,,,,,,113,0,113,0,606.6521237,,,,,,,,,,,,,,,,,,,,,,,606.6356592,606.6521237,607.1690331,607.1355997000001,,,,,,,,,,,,,,,,,,,,,,,,,,607.1567835999999,607.1690331,607.1690331,607.1690331,610.1521183,j,1.058014700000058,0.18645790000005036,610.1523142000001,610.152331,None,,,,,,,,,,,,,,00008,001,2025-11-10_16h35.03.177,MST_task,2024.2.2,60.40412777647035,2025-11-10 16h35.14.813484 +0530,
,Scenes\181a.jpg,114,0,114,,,,,,,None,,,f,1.0379727000001822,None,,,,,114,0,114,0,610.1687062999999,,,,,,,,,,,,,,,,,,,,,,,610.1523999000001,610.1687062999999,610.6853254,610.6521689000001,,,,,,,,,,,,,,,,,,,,,,,,,,610.6767987999999,610.6853254,610.6853254,610.6853254,613.6686884999999,None,,,613.6687340000001,614.7355448000001,f,613.6852593000001,613.6852593000001,1.0379727000001822,None,,,,,,,,,,00008,001,2025-11-10_16h35.03.177,MST_task,2024.2.2,60.40412777647035,2025-11-10 16h35.14.813484 +0530,
,Scenes\114a.jpg,115,0,115,,,,,,,j,2.5423658999998224,0.14950710000016443,None,,,,,,,115,0,115,0,614.7519285999999,,,,,,,,,,,,,,,,,,,,,,,614.735617,614.7519285999999,615.2852267000001,615.2354315,,,,,,,,,,,,,,,,,,,,,,,,,,615.2631124,615.2852267000001,615.2852267000001,615.2852267000001,618.2519628,j,2.5423658999998224,0.14950710000016443,618.252007,618.2520188999999,None,,,,,,,,,,,,,,00008,001,2025-11-10_16h35.03.177,MST_task,2024.2.2,60.40412777647035,2025-11-10 16h35.14.813484 +0530,
,Scenes\013a.jpg,116,0,116,,,,,,,j,1.1694623999999294,0.15751410000007127,None,,,,,,,116,0,116,0,618.2685354,,,,,,,,,,,,,,,,,,,,,,,618.2520927,618.2685354,618.8021042,618.7522277999999,,,,,,,,,,,,,,,,,,,,,,,,,,618.7858061,618.8021042,618.8021042,618.8021042,621.7684695,j,1.1694623999999294,0.15751410000007127,621.7685212000001,621.7685315000001,None,,,,,,,,,,,,,,00008,001,2025-11-10_16h35.03.177,MST_task,2024.2.2,60.40412777647035,2025-11-10 16h35.14.813484 +0530,
,Scenes\044a.jpg,117,0,117,,,,,,,j,1.9960535000000164,0.189369299999953,None,,,,,,,117,0,117,0,621.7851132999999,,,,,,,,,,,,,,,,,,,,,,,621.7686059,621.7851132999999,622.3017365999999,622.268603,,,,,,,,,,,,,,,,,,,,,,,,,,622.2902803,622.3017365999999,622.3017365999999,622.3017365999999,625.2850962,j,1.9960535000000164,0.189369299999953,625.2851384,625.285149,None,,,,,,,,,,,,,,00008,001,2025-11-10_16h35.03.177,MST_task,2024.2.2,60.40412777647035,2025-11-10 16h35.14.813484 +0530,
,Scenes\172a.jpg,118,0,118,,,,,,,j,1.8748802999998588,0.16978860000017448,None,,,,,,,118,0,118,0,625.3016952,,,,,,,,,,,,,,,,,,,,,,,625.2852037,625.3016952,625.8183236,625.7852471000001,,,,,,,,,,,,,,,,,,,,,,,,,,625.8110667000001,625.8183236,625.8183236,625.8183236,628.8016911,j,1.8748802999998588,0.16978860000017448,628.8017348999999,628.801745,None,,,,,,,,,,,,,,00008,001,2025-11-10_16h35.03.177,MST_task,2024.2.2,60.40412777647035,2025-11-10 16h35.14.813484 +0530,
,Objects\149a.jpg,119,0,119,,,,,,,f,1.6174882000000252,0.20958059999998113,None,,,,,,,119,0,119,0,628.8183329999999,,,,,,,,,,,,,,,,,,,,,,,628.8017992,628.8183329999999,629.3346888000001,629.3017247,,,,,,,,,,,,,,,,,,,,,,,,,,629.3306445999999,629.3346888000001,629.3346888000001,629.3346888000001,632.3182349000001,f,1.6174882000000252,0.20958059999998113,632.3182793000001,632.3182899000001,None,,,,,,,,,,,,,,00008,001,2025-11-10_16h35.03.177,MST_task,2024.2.2,60.40412777647035,2025-11-10 16h35.14.813484 +0530,
,Objects\034a.jpg,120,0,120,,,,,,,None,,,f,0.7136487000000216,None,,,,,120,0,120,0,632.3348929000001,,,,,,,,,,,,,,,,,,,,,,,632.3183627000001,632.3348929000001,632.8682188,632.8183652,,,,,,,,,,,,,,,,,,,,,,,,,,632.848569,632.8682188,632.8682188,632.8682188,635.8348988,None,,,635.8349423,636.5684299,f,635.8514792000001,635.8514792000001,0.7136487000000216,None,,,,,,,,,,00008,001,2025-11-10_16h35.03.177,MST_task,2024.2.2,60.40412777647035,2025-11-10 16h35.14.813484 +0530,
,Objects\159a.jpg,121,0,121,,,,,,,f,1.7874672000000373,0.17410210000002735,None,,,,,,,121,0,121,0,636.5847939,,,,,,,,,,,,,,,,,,,,,,,636.5685338000001,636.5847939,637.1014534999999,637.0682843,,,,,,,,,,,,,,,,,,,,,,,,,,637.0838228,637.1014534999999,637.1014534999999,637.1014534999999,640.0847748000001,f,1.7874672000000373,0.17410210000002735,640.0848189000001,640.08483,None,,,,,,,,,,,,,,00008,001,2025-11-10_16h35.03.177,MST_task,2024.2.2,60.40412777647035,2025-11-10 16h35.14.813484 +0530,
,Objects\170a.jpg,122,0,122,,,,,,,None,,,f,0.7430810000000747,None,,,,,122,0,122,0,640.1013851,,,,,,,,,,,,,,,,,,,,,,,640.0849052000001,640.1013851,,640.5848851999999,,,,,,,,,,,,,,,,,,,,,,,,,,640.6132983,640.6180051000001,640.6180051000001,640.6180051000001,643.6014084000001,None,,,643.6014528999999,644.3682274,f,643.6179787000001,643.6179787000001,0.7430810000000747,None,,,,,,,,,,00008,001,2025-11-10_16h35.03.177,MST_task,2024.2.2,60.40412777647035,2025-11-10 16h35.14.813484 +0530,
,Objects\114a.jpg,123,0,123,,,,,,,f,1.4788529999998445,0.12408110000001216,None,,,,,,,123,0,123,0,644.3846251,,,,,,,,,,,,,,,,,,,,,,,644.3682928999999,644.3846251,644.9012481,644.8680972,,,,,,,,,,,,,,,,,,,,,,,,,,644.8930425000001,644.9012481,644.9012481,644.9012481,647.8846225,f,1.4788529999998445,0.12408110000001216,647.8846782999999,647.8846894000001,None,,,,,,,,,,,,,,00008,001,2025-11-10_16h35.03.177,MST_task,2024.2.2,60.40412777647035,2025-11-10 16h35.14.813484 +0530,
,Objects\140a.jpg,124,0,124,,,,,,,f,2.85503279999989,None,None,,,,,,,124,0,124,0,647.9012192,,,,,,,,,,,,,,,,,,,,,,,647.8847469,647.9012192,648.4345968,648.384675,,,,,,,,,,,,,,,,,,,,,,,,,,648.415295,648.4345968,648.4345968,648.4345968,651.4012889,f,2.85503279999989,None,651.4013335,651.4013554999999,None,,,,,,,,,,,,,,00008,001,2025-11-10_16h35.03.177,MST_task,2024.2.2,60.40412777647035,2025-11-10 16h35.14.813484 +0530,
,Objects\172a.jpg,125,0,125,,,,,,,j,0.9780688999999256,0.16501020000009703,None,,,,,,,125,0,125,0,651.4178904,,,,,,,,,,,,,,,,,,,,,,,651.4014112,651.4178904,651.9345257,651.9013735000001,,,,,,,,,,,,,,,,,,,,,,,,,,651.9299013,651.9345257,651.9345257,651.9345257,654.9178895,j,0.9780688999999256,0.16501020000009703,654.9179311,654.9179419,None,,,,,,,,,,,,,,00008,001,2025-11-10_16h35.03.177,MST_task,2024.2.2,60.40412777647035,2025-11-10 16h35.14.813484 +0530,
,Scenes\130a.jpg,126,0,126,,,,,,,j,1.5927173000000039,0.16832869999984723,None,,,,,,,126,0,126,0,654.9345851999999,,,,,,,,,,,,,,,,,,,,,,,654.9180160000001,654.9345851999999,655.4681416000001,655.4179349999999,,,,,,,,,,,,,,,,,,,,,,,,,,655.4490212000001,655.4681416000001,655.4681416000001,655.4681416000001,658.4345734999999,j,1.5927173000000039,0.16832869999984723,658.4346188,658.4346293000001,None,,,,,,,,,,,,,,00008,001,2025-11-10_16h35.03.177,MST_task,2024.2.2,60.40412777647035,2025-11-10 16h35.14.813484 +0530,
,Scenes\073a.jpg,127,0,127,,,,,,,j,2.3097072999999,0.1656557999999677,None,,,,,,,127,0,127,0,658.4510381,,,,,,,,,,,,,,,,,,,,,,,658.4346858000001,658.4510381,658.9679375999999,658.9346653,,,,,,,,,,,,,,,,,,,,,,,,,,658.9562354,658.9679375999999,658.9679375999999,658.9679375999999,661.9510511000001,j,2.3097072999999,0.1656557999999677,661.9510923,661.9511027000001,None,,,,,,,,,,,,,,00008,001,2025-11-10_16h35.03.177,MST_task,2024.2.2,60.40412777647035,2025-11-10 16h35.14.813484 +0530,
,Scenes\128a.jpg,128,0,128,,,,,,,j,1.307354900000064,0.17007429999989654,None,,,,,,,128,0,128,0,661.9676445,,,,,,,,,,,,,,,,,,,,,,,661.9511795000001,661.9676445,662.4839177000001,662.4511895,,,,,,,,,,,,,,,,,,,,,,,,,,662.4763862,662.4839177000001,662.4839177000001,662.4839177000001,665.4675119999999,j,1.307354900000064,0.17007429999989654,665.4675560000001,665.4675665,None,,,,,,,,,,,,,,00008,001,2025-11-10_16h35.03.177,MST_task,2024.2.2,60.40412777647035,2025-11-10 16h35.14.813484 +0530,
,Scenes\007a.jpg,129,0,129,,,,,,,f,2.713249899999937,0.19425679999994827,None,,,,,,,129,0,129,0,665.4841676000001,,,,,,,,,,,,,,,,,,,,,,,665.4676471,665.4841676000001,666.0176974000001,665.9675973999999,,,,,,,,,,,,,,,,,,,,,,,,,,665.9976319,666.0176974000001,666.0176974000001,666.0176974000001,668.9840972,f,2.713249899999937,0.19425679999994827,668.9841409999999,668.9841515,None,,,,,,,,,,,,,,00008,001,2025-11-10_16h35.03.177,MST_task,2024.2.2,60.40412777647035,2025-11-10 16h35.14.813484 +0530,
,Scenes\186a.jpg,130,0,130,,,,,,,None,,,f,4.999733200000037,None,,,,,130,0,130,0,669.0007552,,,,,,,,,,,,,,,,,,,,,,,668.9842057999999,669.0007552,669.5341739,669.4842532,,,,,,,,,,,,,,,,,,,,,,,,,,669.5151266,669.5341739,669.5341739,669.5341739,672.5007436999999,None,,,672.5007845,677.5176730000001,f,672.5173532000001,672.5173532000001,4.999733200000037,None,,,,,,,,,,00008,001,2025-11-10_16h35.03.177,MST_task,2024.2.2,60.40412777647035,2025-11-10 16h35.14.813484 +0530,
,Scenes\091a.jpg,131,0,131,,,,,,,j,1.9072014000000763,0.16973719999987225,None,,,,,,,131,0,131,0,677.5338997000001,,,,,,,,,,,,,,,,,,,,,,,677.5177609,677.5338997000001,678.0505201999999,678.0174813000001,,,,,,,,,,,,,,,,,,,,,,,,,,678.0415184000001,678.0505201999999,678.0505201999999,678.0505201999999,681.0338787999999,j,1.9072014000000763,0.16973719999987225,681.0339246000001,681.0339352000001,None,,,,,,,,,,,,,,00008,001,2025-11-10_16h35.03.177,MST_task,2024.2.2,60.40412777647035,2025-11-10 16h35.14.813484 +0530,
,Scenes\022a.jpg,132,0,132,,,,,,,j,2.671667399999933,0.17986880000012206,None,,,,,,,132,0,132,0,681.0505019,,,,,,,,,,,,,,,,,,,,,,,681.0340103000001,681.0505019,681.5842878000001,681.5339623,,,,,,,,,,,,,,,,,,,,,,,,,,681.5618933000001,681.5842878000001,681.5842878000001,681.5842878000001,684.5506114,j,2.671667399999933,0.17986880000012206,684.5506588000001,684.5506691,None,,,,,,,,,,,,,,00008,001,2025-11-10_16h35.03.177,MST_task,2024.2.2,60.40412777647035,2025-11-10 16h35.14.813484 +0530,
,Objects\179a.jpg,133,0,133,,,,,,,f,1.4049821000000975,0.20692669999993996,None,,,,,,,133,0,133,0,684.5670871,,,,,,,,,,,,,,,,,,,,,,,684.5507418,684.5670871,685.0839515,685.0507660999999,,,,,,,,,,,,,,,,,,,,,,,,,,685.0751967000001,685.0839515,685.0839515,685.0839515,688.0670326,f,1.4049821000000975,0.20692669999993996,688.0670742,688.0670851,None,,,,,,,,,,,,,,00008,001,2025-11-10_16h35.03.177,MST_task,2024.2.2,60.40412777647035,2025-11-10 16h35.14.813484 +0530,
,Objects\105a.jpg,134,0,134,,,,,,,f,1.5654308000000583,0.16569559999993544,None,,,,,,,134,0,134,0,688.0836727000001,,,,,,,,,,,,,,,,,,,,,,,688.0671571,688.0836727000001,688.6003135000001,688.567114,,,,,,,,,,,,,,,,,,,,,,,,,,688.5935297999999,688.6003135000001,688.6003135000001,688.6003135000001,691.5836578999999,f,1.5654308000000583,0.16569559999993544,691.5836992,691.5837099,None,,,,,,,,,,,,,,00008,001,2025-11-10_16h35.03.177,MST_task,2024.2.2,60.40412777647035,2025-11-10 16h35.14.813484 +0530,
,Objects\069a.jpg,135,0,135,,,,,,,j,2.339451899999858,0.18132890000015323,None,,,,,,,135,0,135,0,691.6002211,,,,,,,,,,,,,,,,,,,,,,,691.5837683,691.6002211,692.1168803999999,692.0837331,,,,,,,,,,,,,,,,,,,,,,,,,,692.1091918,692.1168803999999,692.1168803999999,692.1168803999999,695.1002708999999,j,2.339451899999858,0.18132890000015323,695.1003143,695.1003254,None,,,,,,,,,,,,,,00008,001,2025-11-10_16h35.03.177,MST_task,2024.2.2,60.40412777647035,2025-11-10 16h35.14.813484 +0530,
,Objects\043a.jpg,136,0,136,,,,,,,None,,,f,2.6339159000001473,None,,,,,136,0,136,0,695.1168104999999,,,,,,,,,,,,,,,,,,,,,,,695.1003956,695.1168104999999,695.6335136,695.6004668,,,,,,,,,,,,,,,,,,,,,,,,,,695.6266926999999,695.6335136,695.6335136,695.6335136,698.6167684,None,,,698.6168097,701.2837674,f,698.6334374999999,698.6334374999999,2.6339159000001473,None,,,,,,,,,,00008,001,2025-11-10_16h35.03.177,MST_task,2024.2.2,60.40412777647035,2025-11-10 16h35.14.813484 +0530,
,Objects\009a.jpg,137,0,137,,,,,,,None,,,f,5.426544100000001,None,,,,,137,0,137,0,701.3000569999999,,,,,,,,,,,,,,,,,,,,,,,701.2838527000001,701.3000569999999,701.8166956,701.7835448999999,,,,,,,,,,,,,,,,,,,,,,,,,,701.8061518,701.8166956,701.8166956,701.8166956,704.7999989,None,,,704.8000384,710.2502291000001,f,704.8166369999999,704.8166369999999,5.426544100000001,None,,,,,,,,,,00008,001,2025-11-10_16h35.03.177,MST_task,2024.2.2,60.40412777647035,2025-11-10 16h35.14.813484 +0530,
,Objects\052a.jpg,138,0,138,,,,,,,None,,,f,1.3035288999999466,None,,,,,138,0,138,0,710.2665253,,,,,,,,,,,,,,,,,,,,,,,710.2503138,710.2665253,710.7831338999999,710.7500250999999,,,,,,,,,,,,,,,,,,,,,,,,,,710.7732281000001,710.7831338999999,710.7831338999999,710.7831338999999,713.7664848,None,,,713.7665255,715.1000213,f,713.7831034000001,713.7831034000001,1.3035288999999466,None,,,,,,,,,,00008,001,2025-11-10_16h35.03.177,MST_task,2024.2.2,60.40412777647035,2025-11-10 16h35.14.813484 +0530,
,Objects\072a.jpg,139,0,139,,,,,,,None,,,f,2.9306573999999728,None,,,,,139,0,139,0,715.1164157999999,,,,,,,,,,,,,,,,,,,,,,,715.1000913,715.1164157999999,715.6330366,715.6000002999999,,,,,,,,,,,,,,,,,,,,,,,,,,715.6284889000001,715.6330366,715.6330366,715.6330366,718.616366,None,,,718.6164061,721.5666956,f,718.6330064000001,718.6330064000001,2.9306573999999728,None,,,,,,,,,,00008,001,2025-11-10_16h35.03.177,MST_task,2024.2.2,60.40412777647035,2025-11-10 16h35.14.813484 +0530,
,Scenes\032a.jpg,140,0,140,,,,,,,None,,,j,0.9607330999999704,None,,,,,140,0,140,0,721.5830266,,,,,,,,,,,,,,,,,,,,,,,721.5667771000001,721.5830266,722.1165940000001,722.066546,,,,,,,,,,,,,,,,,,,,,,,,,,722.1048374,722.1165940000001,722.1165940000001,722.1165940000001,725.0829222,None,,,725.0829644,726.0664435000001,j,725.0995330000001,725.0995330000001,0.9607330999999704,None,,,,,,,,,,00008,001,2025-11-10_16h35.03.177,MST_task,2024.2.2,60.40412777647035,2025-11-10 16h35.14.813484 +0530,
,Scenes\118a.jpg,141,0,141,,,,,,,None,,,j,0.7657197000000906,None,,,,,141,0,141,0,726.0828526,,,,,,,,,,,,,,,,,,,,,,,726.066513,726.0828526,726.6164661,726.5663778999999,,,,,,,,,,,,,,,,,,,,,,,,,,726.5949257,726.6164661,726.6164661,726.6164661,729.5828197999999,None,,,729.5828601000001,730.3665848999999,j,729.5994303,729.5994303,0.7657197000000906,None,,,,,,,,,,00008,001,2025-11-10_16h35.03.177,MST_task,2024.2.2,60.40412777647035,2025-11-10 16h35.14.813484 +0530,
,Scenes\149a.jpg,142,0,142,,,,,,,f,2.3832855000000563,0.18970720000015717,None,,,,,,,142,0,142,0,730.3827478999999,,,,,,,,,,,,,,,,,,,,,,,730.366683,730.3827478999999,730.9160982000001,730.8662855,,,,,,,,,,,,,,,,,,,,,,,,,,730.8972882,730.9160982000001,730.9160982000001,730.9160982000001,733.8826927,f,2.3832855000000563,0.18970720000015717,733.8827398000001,733.8827506,None,,,,,,,,,,,,,,00008,001,2025-11-10_16h35.03.177,MST_task,2024.2.2,60.40412777647035,2025-11-10 16h35.14.813484 +0530,
,Scenes\014a.jpg,143,0,143,,,,,,,None,,,f,0.20000789999994595,None,,,,,143,0,143,0,733.8993370999999,,,,,,,,,,,,,,,,,,,,,,,733.8828074999999,733.8993370999999,734.4162494,734.3828444999999,,,,,,,,,,,,,,,,,,,,,,,,,,734.4083387000001,734.4162494,734.4162494,734.4162494,737.3993763999999,None,,,737.3994250999999,737.6162525,f,737.4159381,737.4159381,0.20000789999994595,None,,,,,,,,,,00008,001,2025-11-10_16h35.03.177,MST_task,2024.2.2,60.40412777647035,2025-11-10 16h35.14.813484 +0530,
,Scenes\006a.jpg,144,0,144,,,,,,,None,,,f,0.8202393999999913,None,,,,,144,0,144,0,737.6325936999999,,,,,,,,,,,,,,,,,,,,,,,737.6163174000001,737.6325936999999,738.1492122,738.1160686000001,,,,,,,,,,,,,,,,,,,,,,,,,,738.1408594,738.1492122,738.1492122,738.1492122,741.13257,None,,,741.1326144,741.9828372,f,741.1491847,741.1491847,0.8202393999999913,None,,,,,,,,,,00008,001,2025-11-10_16h35.03.177,MST_task,2024.2.2,60.40412777647035,2025-11-10 16h35.14.813484 +0530,
,Scenes\094a.jpg,145,0,145,,,,,,,j,2.8825140999999803,None,None,,,,,,,145,0,145,0,741.9991678000001,,,,,,,,,,,,,,,,,,,,,,,741.9829053999999,741.9991678000001,742.5324447,742.4827746000001,,,,,,,,,,,,,,,,,,,,,,,,,,742.5148721999999,742.5324447,742.5324447,742.5324447,745.4990967000001,j,2.8825140999999803,None,745.4991385999999,745.4991496,None,,,,,,,,,,,,,,00008,001,2025-11-10_16h35.03.177,MST_task,2024.2.2,60.40412777647035,2025-11-10 16h35.14.813484 +0530,
,Scenes\166a.jpg,146,0,146,,,,,,,None,,,j,2.3005181999999422,None,,,,,146,0,146,0,745.5157581999999,,,,,,,,,,,,,,,,,,,,,,,745.4992027999999,745.5157581999999,746.0320239,745.9991966,,,,,,,,,,,,,,,,,,,,,,,,,,746.0257065000001,746.0320239,746.0320239,746.0320239,749.0157398000001,None,,,749.0157802000001,751.3493136,j,749.0323462000001,749.0323462000001,2.3005181999999422,None,,,,,,,,,,00008,001,2025-11-10_16h35.03.177,MST_task,2024.2.2,60.40412777647035,2025-11-10 16h35.14.813484 +0530,
,Objects\153a.jpg,147,0,147,,,,,,,f,1.5988251999999648,0.1745542999999543,None,,,,,,,147,0,147,0,751.3656439000001,,,,,,,,,,,,,,,,,,,,,,,751.3493933,751.3656439000001,751.8824790000001,751.8491022000001,,,,,,,,,,,,,,,,,,,,,,,,,,751.8779138,751.8824790000001,751.8824790000001,751.8824790000001,754.8656183999999,f,1.5988251999999648,0.1745542999999543,754.8656619000001,754.8656735,None,,,,,,,,,,,,,,00008,001,2025-11-10_16h35.03.177,MST_task,2024.2.2,60.40412777647035,2025-11-10 16h35.14.813484 +0530,
,Objects\028a.jpg,148,0,148,,,,,,,f,2.3010913999999048,0.17349699999999757,None,,,,,,,148,0,148,0,754.8822147000001,,,,,,,,,,,,,,,,,,,,,,,754.8657304999999,754.8822147000001,755.3988333,755.3658084000001,,,,,,,,,,,,,,,,,,,,,,,,,,755.3933,755.3988333,755.3988333,755.3988333,758.3821883,f,2.3010913999999048,0.17349699999999757,758.3822324,758.3822435,None,,,,,,,,,,,,,,00008,001,2025-11-10_16h35.03.177,MST_task,2024.2.2,60.40412777647035,2025-11-10 16h35.14.813484 +0530,
,Objects\120a.jpg,149,0,149,,,,,,,f,1.2015834999999697,0.1938551999999163,None,,,,,,,149,0,149,0,758.3988032,,,,,,,,,,,,,,,,,,,,,,,758.3823213000001,758.3988032,758.9320866999999,758.8823526000001,,,,,,,,,,,,,,,,,,,,,,,,,,758.9132331000001,758.9320866999999,758.9320866999999,758.9320866999999,761.8988945000001,f,1.2015834999999697,0.1938551999999163,761.8989389000001,761.8989497,None,,,,,,,,,,,,,,00008,001,2025-11-10_16h35.03.177,MST_task,2024.2.2,60.40412777647035,2025-11-10 16h35.14.813484 +0530,
,Objects\019a.jpg,150,0,150,,,,,,,None,,,f,6.88735429999997,None,,,,,150,0,150,0,761.9153845999999,,,,,,,,,,,,,,,,,,,,,,,761.8990051999999,761.9153845999999,762.4320092,762.3989746,,,,,,,,,,,,,,,,,,,,,,,,,,762.4262183000001,762.4320092,762.4320092,762.4320092,765.4155043999999,None,,,765.4155744,772.3323473,f,765.4319453,765.4319453,6.88735429999997,None,,,,,,,,,,00008,001,2025-11-10_16h35.03.177,MST_task,2024.2.2,60.40412777647035,2025-11-10 16h35.14.813484 +0530,
,Objects\162a.jpg,151,0,151,,,,,,,f,2.621679100000165,0.17364299999985633,None,,,,,,,151,0,151,0,772.3485198999999,,,,,,,,,,,,,,,,,,,,,,,772.3324344,772.3485198999999,772.8818122,772.8321116,,,,,,,,,,,,,,,,,,,,,,,,,,772.8616234000001,772.8818122,772.8818122,772.8818122,775.8485390999999,f,2.621679100000165,0.17364299999985633,775.8485909000001,775.8486022,None,,,,,,,,,,,,,,00008,001,2025-11-10_16h35.03.177,MST_task,2024.2.2,60.40412777647035,2025-11-10 16h35.14.813484 +0530,
,Objects\078a.jpg,152,0,152,,,,,,,None,,,j,0.9615442000001622,None,,,,,152,0,152,0,775.8650934,,,,,,,,,,,,,,,,,,,,,,,775.8486578,775.8650934,776.3817604999999,776.3485704,,,,,,,,,,,,,,,,,,,,,,,,,,776.3744953,776.3817604999999,776.3817604999999,776.3817604999999,779.3651808,None,,,779.3652235,780.3485813,j,779.3816767000001,779.3816767000001,0.9615442000001622,None,,,,,,,,,,00008,001,2025-11-10_16h35.03.177,MST_task,2024.2.2,60.40412777647035,2025-11-10 16h35.14.813484 +0530,
,Objects\111a.jpg,153,0,153,,,,,,,f,2.8281725000001643,None,None,,,,,,,153,0,153,0,780.3649906999999,,,,,,,,,,,,,,,,,,,,,,,780.3486542999999,780.3649906999999,780.8816199,780.8484198000001,,,,,,,,,,,,,,,,,,,,,,,,,,780.8770968000001,780.8816199,780.8816199,780.8816199,783.8649289,f,2.8281725000001643,None,783.8651026,783.8651192,None,,,,,,,,,,,,,,00008,001,2025-11-10_16h35.03.177,MST_task,2024.2.2,60.40412777647035,2025-11-10 16h35.14.813484 +0530,
,Scenes\010a.jpg,154,0,154,,,,,,,None,,,j,0.6572026999999707,None,,,,,154,0,154,0,783.8816967,,,,,,,,,,,,,,,,,,,,,,,783.8651950999999,783.8816967,784.4149268000001,784.3651612000001,,,,,,,,,,,,,,,,,,,,,,,,,,784.3964065,784.4149268000001,784.4149268000001,784.4149268000001,787.3815635999999,None,,,787.3816048000001,788.065051,j,787.3981673000001,787.3981673000001,0.6572026999999707,None,,,,,,,,,,00008,001,2025-11-10_16h35.03.177,MST_task,2024.2.2,60.40412777647035,2025-11-10 16h35.14.813484 +0530,
,Scenes\011a.jpg,155,0,155,,,,,,,j,2.434296599999925,0.1502519000000575,None,,,,,,,155,0,155,0,788.0815098999999,,,,,,,,,,,,,,,,,,,,,,,788.0651449,788.0815098999999,788.614969,788.5650026999999,,,,,,,,,,,,,,,,,,,,,,,,,,788.6036257000001,788.614969,788.614969,788.614969,791.5815655000001,j,2.434296599999925,0.1502519000000575,791.5816126,791.5816236999999,None,,,,,,,,,,,,,,00008,001,2025-11-10_16h35.03.177,MST_task,2024.2.2,60.40412777647035,2025-11-10 16h35.14.813484 +0530,
,Scenes\141a.jpg,156,0,156,,,,,,,None,,,j,4.092412199999899,None,,,,,156,0,156,0,791.5980849,,,,,,,,,,,,,,,,,,,,,,,791.5816977,791.5980849,792.1146987,792.0816385,,,,,,,,,,,,,,,,,,,,,,,,,,792.1047317,792.1146987,792.1146987,792.1146987,795.0980853000001,None,,,795.098125,799.2149654,j,795.1146659000001,795.1146659000001,4.092412199999899,None,,,,,,,,,,00008,001,2025-11-10_16h35.03.177,MST_task,2024.2.2,60.40412777647035,2025-11-10 16h35.14.813484 +0530,
,Scenes\131a.jpg,157,0,157,,,,,,,j,1.0497058999999354,0.13315120000015668,None,,,,,,,157,0,157,0,799.231252,,,,,,,,,,,,,,,,,,,,,,,799.2150916,799.231252,799.7480452,799.7147421,,,,,,,,,,,,,,,,,,,,,,,,,,799.7332928000001,799.7480452,799.7480452,799.7480452,802.7311924999999,j,1.0497058999999354,0.13315120000015668,802.7312359,802.7312465,None,,,,,,,,,,,,,,00008,001,2025-11-10_16h35.03.177,MST_task,2024.2.2,60.40412777647035,2025-11-10 16h35.14.813484 +0530,
,Scenes\035a.jpg,158,0,158,,,,,,,None,,,j,3.2892830999999205,None,,,,,158,0,158,0,802.7478357,,,,,,,,,,,,,,,,,,,,,,,802.7313021,802.7478357,803.2811181,803.231297,,,,,,,,,,,,,,,,,,,,,,,,,,803.2602377000001,803.2811181,803.2811181,803.2811181,806.2478377,None,,,806.2478779999999,809.5646006,j,806.2644287999999,806.2644287999999,3.2892830999999205,None,,,,,,,,,,00008,001,2025-11-10_16h35.03.177,MST_task,2024.2.2,60.40412777647035,2025-11-10 16h35.14.813484 +0530,
,Scenes\009a.jpg,159,0,159,,,,,,,j,2.8989047000000028,None,None,,,,,,,159,0,159,0,809.581074,,,,,,,,,,,,,,,,,,,,,,,809.564676,809.581074,810.1145916,810.0645588,,,,,,,,,,,,,,,,,,,,,,,,,,810.1007758999999,810.1145916,810.1145916,810.1145916,813.0810375000001,j,2.8989047000000028,None,813.0810862000001,813.0810973,None,,,,,,,,,,,,,,00008,001,2025-11-10_16h35.03.177,MST_task,2024.2.2,60.40412777647035,2025-11-10 16h35.14.813484 +0530,
,Scenes\176a.jpg,160,0,160,,,,,,,j,2.224792799999932,0.17720780000013292,None,,,,,,,160,0,160,0,813.0976144000001,,,,,,,,,,,,,,,,,,,,,,,813.0811566,813.0976144000001,813.6308951999999,813.5810763,,,,,,,,,,,,,,,,,,,,,,,,,,813.6115173000001,813.6308951999999,813.6308951999999,813.6308951999999,816.5976911,j,2.224792799999932,0.17720780000013292,816.5977448000001,816.5977568000001,None,,,,,,,,,,,,,,00008,001,2025-11-10_16h35.03.177,MST_task,2024.2.2,60.40412777647035,2025-11-10 16h35.14.813484 +0530,
,Objects\002a.jpg,161,0,161,,,,,,,None,,,j,1.1689233000001877,None,,,,,161,0,161,0,816.6141548999999,,,,,,,,,,,,,,,,,,,,,,,816.5978133000001,816.6141548999999,817.131124,817.0976556,,,,,,,,,,,,,,,,,,,,,,,,,,817.1239837999999,817.131124,817.131124,817.131124,820.1141561,None,,,820.114214,821.3143444,j,820.1308283000001,820.1308283000001,1.1689233000001877,None,,,,,,,,,,00008,001,2025-11-10_16h35.03.177,MST_task,2024.2.2,60.40412777647035,2025-11-10 16h35.14.813484 +0530,
,Objects\053a.jpg,162,0,162,,,,,,,None,,,f,0.08832910000000993,None,,,,,162,0,162,0,821.3307629999999,,,,,,,,,,,,,,,,,,,,,,,821.3144542,821.3307629999999,821.8474295000001,821.8143307,,,,,,,,,,,,,,,,,,,,,,,,,,821.8415846,821.8474295000001,821.8474295000001,821.8474295000001,824.8307255,None,,,824.8307679,824.9478345,f,824.8473501999999,824.8473501999999,0.08832910000000993,None,,,,,,,,,,00008,001,2025-11-10_16h35.03.177,MST_task,2024.2.2,60.40412777647035,2025-11-10 16h35.14.813484 +0530,
,Objects\146a.jpg,163,0,163,,,,,,,None,,,f,0.5564961000000039,None,,,,,163,0,163,0,824.964072,,,,,,,,,,,,,,,,,,,,,,,824.9479438000001,824.964072,825.4806676999999,825.4475625,,,,,,,,,,,,,,,,,,,,,,,,,,825.4700025,825.4806676999999,825.4806676999999,825.4806676999999,828.46399,None,,,828.4640426000001,829.0475707,f,828.4806169000001,828.4806169000001,0.5564961000000039,None,,,,,,,,,,00008,001,2025-11-10_16h35.03.177,MST_task,2024.2.2,60.40412777647035,2025-11-10 16h35.14.813484 +0530,
,Objects\059a.jpg,164,0,164,,,,,,,None,,,j,0.6325277000000824,None,,,,,164,0,164,0,829.0639325,,,,,,,,,,,,,,,,,,,,,,,829.0476519000001,829.0639325,829.5805742,829.5473984,,,,,,,,,,,,,,,,,,,,,,,,,,829.5686311,829.5805742,829.5805742,829.5805742,832.5640128,None,,,832.5640585000001,833.2141486,j,832.5805098000001,832.5805098000001,0.6325277000000824,None,,,,,,,,,,00008,001,2025-11-10_16h35.03.177,MST_task,2024.2.2,60.40412777647035,2025-11-10 16h35.14.813484 +0530,
,Objects\026a.jpg,165,0,165,,,,,,,None,,,j,1.6099896999999146,None,,,,,165,0,165,0,833.2305018,,,,,,,,,,,,,,,,,,,,,,,833.2142575,833.2305018,833.7638282,833.7139688,,,,,,,,,,,,,,,,,,,,,,,,,,833.7470697000001,833.7638282,833.7638282,833.7638282,836.7305827,None,,,836.7306308,838.3639208,j,836.7470559999999,836.7470559999999,1.6099896999999146,None,,,,,,,,,,00008,001,2025-11-10_16h35.03.177,MST_task,2024.2.2,60.40412777647035,2025-11-10 16h35.14.813484 +0530,
,Objects\148a.jpg,166,0,166,,,,,,,None,,,f,3.8283398999999463,None,,,,,166,0,166,0,838.3803928,,,,,,,,,,,,,,,,,,,,,,,838.3640178999999,838.3803928,838.8970119,838.8638149000001,,,,,,,,,,,,,,,,,,,,,,,,,,838.8901171,838.8970119,838.8970119,838.8970119,841.8803603000001,None,,,841.8804017,845.7306173,f,841.8969793000001,841.8969793000001,3.8283398999999463,None,,,,,,,,,,00008,001,2025-11-10_16h35.03.177,MST_task,2024.2.2,60.40412777647035,2025-11-10 16h35.14.813484 +0530,
,Objects\087a.jpg,167,0,167,,,,,,,None,,,f,3.652085500000112,None,,,,,167,0,167,0,845.7468616000001,,,,,,,,,,,,,,,,,,,,,,,845.7306991,845.7468616000001,846.2635600000001,846.2305194,,,,,,,,,,,,,,,,,,,,,,,,,,846.2506381999999,846.2635600000001,846.2635600000001,846.2635600000001,849.2468528000002,None,,,849.2468917000001,852.9304574,f,849.2634482000001,849.2634482000001,3.652085500000112,None,,,,,,,,,,00008,001,2025-11-10_16h35.03.177,MST_task,2024.2.2,60.40412777647035,2025-11-10 16h35.14.813484 +0530,
,Scenes\154a.jpg,168,0,168,,,,,,,j,1.3624405999998999,0.16580210000006446,None,,,,,,,168,0,168,0,852.9467397000001,,,,,,,,,,,,,,,,,,,,,,,852.9305714,852.9467397000001,853.4633619000001,853.4302448000001,,,,,,,,,,,,,,,,,,,,,,,,,,853.4529859000002,853.4633619000001,853.4633619000001,853.4633619000001,856.4466999000001,j,1.3624405999998999,0.16580210000006446,856.4467408,856.4467522,None,,,,,,,,,,,,,,00008,001,2025-11-10_16h35.03.177,MST_task,2024.2.2,60.40412777647035,2025-11-10 16h35.14.813484 +0530,
,Scenes\083a.jpg,169,0,169,,,,,,,j,1.2807201000000532,0.16735270000003766,None,,,,,,,169,0,169,0,856.4632951000001,,,,,,,,,,,,,,,,,,,,,,,856.4468291000001,856.4632951000001,856.9966208000001,856.9468711000002,,,,,,,,,,,,,,,,,,,,,,,,,,856.9810056000001,856.9966208000001,856.9966208000001,856.9966208000001,859.9633342,j,1.2807201000000532,0.16735270000003766,859.9633926000001,859.9634031,None,,,,,,,,,,,,,,00008,001,2025-11-10_16h35.03.177,MST_task,2024.2.2,60.40412777647035,2025-11-10 16h35.14.813484 +0530,
,Scenes\144a.jpg,170,0,170,,,,,,,j,1.1117601000000832,0.20342009999990296,None,,,,,,,170,0,170,0,859.9798866000001,,,,,,,,,,,,,,,,,,,,,,,859.9634827,859.9798866000001,860.513211,860.463391,,,,,,,,,,,,,,,,,,,,,,,,,,860.4907354000002,860.513211,860.513211,860.513211,863.4799753,j,1.1117601000000832,0.20342009999990296,863.4800199000001,863.4800312,None,,,,,,,,,,,,,,00008,001,2025-11-10_16h35.03.177,MST_task,2024.2.2,60.40412777647035,2025-11-10 16h35.14.813484 +0530,
,Scenes\040a.jpg,171,0,171,,,,,,,None,,,f,0.3982570000000578,None,,,,,171,0,171,0,863.4965204,,,,,,,,,,,,,,,,,,,,,,,863.4801086,863.4965204,864.0298742,863.9800676,,,,,,,,,,,,,,,,,,,,,,,,,,864.0125680000001,864.0298742,864.0298742,864.0298742,866.9964699,None,,,866.9965111000001,867.4134968000001,f,867.0131105,867.0131105,0.3982570000000578,None,,,,,,,,,,00008,001,2025-11-10_16h35.03.177,MST_task,2024.2.2,60.40412777647035,2025-11-10 16h35.14.813484 +0530,
,Scenes\109a.jpg,172,0,172,,,,,,,j,1.67992449999997,0.15001120000010815,None,,,,,,,172,0,172,0,867.4297616000001,,,,,,,,,,,,,,,,,,,,,,,867.4135889000001,867.4297616000001,867.9632786,867.9132400000001,,,,,,,,,,,,,,,,,,,,,,,,,,867.9442158000002,867.9632786,867.9632786,867.9632786,870.9296816000001,j,1.67992449999997,0.15001120000010815,870.9297278000001,870.9297432000001,None,,,,,,,,,,,,,,00008,001,2025-11-10_16h35.03.177,MST_task,2024.2.2,60.40412777647035,2025-11-10 16h35.14.813484 +0530,
,Scenes\173a.jpg,173,0,173,,,,,,,j,2.5318196000000626,0.14665190000005168,None,,,,,,,173,0,173,0,870.9463640000001,,,,,,,,,,,,,,,,,,,,,,,870.9298006000001,870.9463640000001,871.4796372000001,871.4299243,,,,,,,,,,,,,,,,,,,,,,,,,,871.467232,871.4796372000001,871.4796372000001,871.4796372000001,874.4464196000001,j,2.5318196000000626,0.14665190000005168,874.4464742,874.4464847000002,None,,,,,,,,,,,,,,00008,001,2025-11-10_16h35.03.177,MST_task,2024.2.2,60.40412777647035,2025-11-10 16h35.14.813484 +0530,
,Scenes\012a.jpg,174,0,174,,,,,,,None,,,j,1.2530272999999852,None,,,,,174,0,174,0,874.4630554,,,,,,,,,,,,,,,,,,,,,,,874.4465384,874.4630554,874.9963809000001,874.9466167,,,,,,,,,,,,,,,,,,,,,,,,,,874.9824831000001,874.9963809000001,874.9963809000001,874.9963809000001,877.9630796000001,None,,,877.9631293,879.2466247,j,877.9796481000001,877.9796481000001,1.2530272999999852,None,,,,,,,,,,00008,001,2025-11-10_16h35.03.177,MST_task,2024.2.2,60.40412777647035,2025-11-10 16h35.14.813484 +0530,
,Objects\118a.jpg,175,0,175,,,,,,,j,0.9729479000000083,0.17537900000002082,None,,,,,,,175,0,175,0,879.2630912,,,,,,,,,,,,,,,,,,,,,,,879.2467246000001,879.2630912,879.796497,879.7465008000001,,,,,,,,,,,,,,,,,,,,,,,,,,879.7796473000001,879.796497,879.796497,879.796497,882.7628811,j,0.9729479000000083,0.17537900000002082,882.7629244,882.7629344000002,None,,,,,,,,,,,,,,00008,001,2025-11-10_16h35.03.177,MST_task,2024.2.2,60.40412777647035,2025-11-10 16h35.14.813484 +0530,
,Objects\157a.jpg,176,0,176,,,,,,,f,1.2693980999999894,0.21395720000009533,None,,,,,,,176,0,176,0,882.7796453000001,,,,,,,,,,,,,,,,,,,,,,,882.7629889,882.7796453000001,883.2961372,883.2630565000002,,,,,,,,,,,,,,,,,,,,,,,,,,883.2892412000001,883.2961372,883.2961372,883.2961372,886.2796604,f,1.2693980999999894,0.21395720000009533,886.2797074,886.2797182000002,None,,,,,,,,,,,,,,00008,001,2025-11-10_16h35.03.177,MST_task,2024.2.2,60.40412777647035,2025-11-10 16h35.14.813484 +0530,
,Objects\021a.jpg,177,0,177,,,,,,,None,,,f,1.182305499999984,None,,,,,177,0,177,0,886.2961363000002,,,,,,,,,,,,,,,,,,,,,,,886.2797986,886.2961363000002,886.8460828,886.7795594000002,,,,,,,,,,,,,,,,,,,,,,,,,,886.8295354000002,886.8460828,886.8460828,886.8460828,889.7960297,None,,,889.79611,890.9963258,f,889.8126669000001,889.8126669000001,1.182305499999984,None,,,,,,,,,,00008,001,2025-11-10_16h35.03.177,MST_task,2024.2.2,60.40412777647035,2025-11-10 16h35.14.813484 +0530,
,Objects\093a.jpg,178,0,178,,,,,,,j,1.181922699999859,0.16576789999999164,None,,,,,,,178,0,178,0,891.0126658000001,,,,,,,,,,,,,,,,,,,,,,,890.9963989,891.0126658000001,891.5459797000001,891.4961212000001,,,,,,,,,,,,,,,,,,,,,,,,,,891.5395071,891.5459797000001,891.5459797000001,891.5459797000001,894.5126204000001,j,1.181922699999859,0.16576789999999164,894.5126615000001,894.5126726000001,None,,,,,,,,,,,,,,00008,001,2025-11-10_16h35.03.177,MST_task,2024.2.2,60.40412777647035,2025-11-10 16h35.14.813484 +0530,
,Objects\045a.jpg,179,0,179,,,,,,,None,,,f,3.809215799999947,None,,,,,179,0,179,0,894.5292171000001,,,,,,,,,,,,,,,,,,,,,,,894.5127247,894.5292171000001,895.0625779000002,895.0128171000001,,,,,,,,,,,,,,,,,,,,,,,,,,895.0448414,895.0625779000002,895.0625779000002,895.0625779000002,898.0292455000001,None,,,898.0292909,901.8628124000002,f,898.0458115000001,898.0458115000001,3.809215799999947,None,,,,,,,,,,00008,001,2025-11-10_16h35.03.177,MST_task,2024.2.2,60.40412777647035,2025-11-10 16h35.14.813484 +0530,
,Objects\154a.jpg,180,0,180,,,,,,,None,,,j,0.06544050000002244,None,,,,,180,0,180,0,901.8791185,,,,,,,,,,,,,,,,,,,,,,,901.8629242000002,901.8791185,902.3957879,902.3626799000001,,,,,,,,,,,,,,,,,,,,,,,,,,902.3907457,902.3957879,902.3957879,902.3957879,905.3790104,None,,,905.3790493000001,905.4627648000001,j,905.3957143,905.3957143,0.06544050000002244,None,,,,,,,,,,00008,001,2025-11-10_16h35.03.177,MST_task,2024.2.2,60.40412777647035,2025-11-10 16h35.14.813484 +0530,
,Objects\183a.jpg,181,0,181,,,,,,,f,1.610202099999924,0.20570819999988998,None,,,,,,,181,0,181,0,905.4790420000002,,,,,,,,,,,,,,,,,,,,,,,905.4628533,905.4790420000002,905.9956538000001,905.9625214,,,,,,,,,,,,,,,,,,,,,,,,,,905.9860875000002,905.9956538000001,905.9956538000001,905.9956538000001,908.9790242000001,f,1.610202099999924,0.20570819999988998,908.9790647,908.9790758000001,None,,,,,,,,,,,,,,00008,001,2025-11-10_16h35.03.177,MST_task,2024.2.2,60.40412777647035,2025-11-10 16h35.14.813484 +0530,
,Scenes\023a.jpg,182,0,182,,,,,,,f,2.9649531999998544,None,None,,,,,,,182,0,182,0,908.9955726000001,,,,,,,,,,,,,,,,,,,,,,,908.9791457000001,908.9955726000001,909.5124592,909.4790791,,,,,,,,,,,,,,,,,,,,,,,,,,909.5021904,909.5124592,909.5124592,909.5124592,912.4955959000001,f,2.9649531999998544,None,912.4956363000001,912.4956473,None,,,,,,,,,,,,,,00008,001,2025-11-10_16h35.03.177,MST_task,2024.2.2,60.40412777647035,2025-11-10 16h35.14.813484 +0530,
,Scenes\045a.jpg,183,0,183,,,,,,,f,1.4590937000000395,0.2066171999999824,None,,,,,,,183,0,183,0,912.5122257,,,,,,,,,,,,,,,,,,,,,,,912.4957144,912.5122257,913.0458613000001,912.9957851000001,,,,,,,,,,,,,,,,,,,,,,,,,,913.0253017,913.0458613000001,913.0458613000001,913.0458613000001,916.0122084,f,1.4590937000000395,0.2066171999999824,916.0122555,916.0122661,None,,,,,,,,,,,,,,00008,001,2025-11-10_16h35.03.177,MST_task,2024.2.2,60.40412777647035,2025-11-10 16h35.14.813484 +0530,
,Scenes\095a.jpg,184,0,184,,,,,,,f,1.4737688000000162,0.20191540000018904,None,,,,,,,184,0,184,0,916.0287879,,,,,,,,,,,,,,,,,,,,,,,916.0123204000001,916.0287879,916.562109,916.5122606,,,,,,,,,,,,,,,,,,,,,,,,,,916.545278,916.562109,916.562109,916.562109,919.5287823000001,f,1.4737688000000162,0.20191540000018904,919.5288272,919.5288381,None,,,,,,,,,,,,,,00008,001,2025-11-10_16h35.03.177,MST_task,2024.2.2,60.40412777647035,2025-11-10 16h35.14.813484 +0530,
,Scenes\031a.jpg,185,0,185,,,,,,,None,,,f,0.5524350000000595,None,,,,,185,0,185,0,919.5454101,,,,,,,,,,,,,,,,,,,,,,,919.5289149,919.5454101,920.0621996,920.0288094,,,,,,,,,,,,,,,,,,,,,,,,,,920.0534947000001,920.0621996,920.0621996,920.0621996,923.0453427,None,,,923.0453857,923.6290039,f,923.0618912,923.0618912,0.5524350000000595,None,,,,,,,,,,00008,001,2025-11-10_16h35.03.177,MST_task,2024.2.2,60.40412777647035,2025-11-10 16h35.14.813484 +0530,
,Scenes\004a.jpg,186,0,186,,,,,,,j,1.3616628999998284,0.1369128000001183,None,,,,,,,186,0,186,0,923.6453084,,,,,,,,,,,,,,,,,,,,,,,923.6290944,923.6453084,924.178664,924.1288154000001,,,,,,,,,,,,,,,,,,,,,,,,,,924.1620223,924.178664,924.178664,924.178664,927.1453108000001,j,1.3616628999998284,0.1369128000001183,927.1453783000002,927.1453953,None,,,,,,,,,,,,,,00008,001,2025-11-10_16h35.03.177,MST_task,2024.2.2,60.40412777647035,2025-11-10 16h35.14.813484 +0530,
,Scenes\077a.jpg,187,0,187,,,,,,,j,0.9368925000001127,0.16214199999990342,None,,,,,,,187,0,187,0,927.1618990000002,,,,,,,,,,,,,,,,,,,,,,,927.1454854000001,927.1618990000002,927.6781271,927.6452851000001,,,,,,,,,,,,,,,,,,,,,,,,,,927.6706579000002,927.6781271,927.6781271,927.6781271,930.6618589,j,0.9368925000001127,0.16214199999990342,930.6619028,930.6619136000002,None,,,,,,,,,,,,,,00008,001,2025-11-10_16h35.03.177,MST_task,2024.2.2,60.40412777647035,2025-11-10 16h35.14.813484 +0530,
,Scenes\051a.jpg,188,0,188,,,,,,,j,1.5384460000000217,0.16201750000004722,None,,,,,,,188,0,188,0,930.6784317000001,,,,,,,,,,,,,,,,,,,,,,,930.6619734000001,930.6784317000001,931.195344,931.1619602000001,,,,,,,,,,,,,,,,,,,,,,,,,,931.1780298000001,931.195344,931.195344,931.195344,934.1783322000001,j,1.5384460000000217,0.16201750000004722,934.1783890000002,934.1783990000001,None,,,,,,,,,,,,,,00008,001,2025-11-10_16h35.03.177,MST_task,2024.2.2,60.40412777647035,2025-11-10 16h35.14.813484 +0530,
,Objects\001a.jpg,189,0,189,,,,,,,f,2.188015399999813,0.1906138000001647,None,,,,,,,189,0,189,0,934.1949353,,,,,,,,,,,,,,,,,,,,,,,934.1784779,934.1949353,934.7119412,934.6784069,,,,,,,,,,,,,,,,,,,,,,,,,,934.7076514,934.7119412,934.7119412,934.7119412,937.6949088000001,f,2.188015399999813,0.1906138000001647,937.6949563000001,937.6949675000001,None,,,,,,,,,,,,,,00008,001,2025-11-10_16h35.03.177,MST_task,2024.2.2,60.40412777647035,2025-11-10 16h35.14.813484 +0530,
,Objects\063a.jpg,190,0,190,,,,,,,f,1.8752450000001772,0.17841169999996964,None,,,,,,,190,0,190,0,937.7115865000001,,,,,,,,,,,,,,,,,,,,,,,937.695023,937.7115865000001,938.2278014000001,938.1950174000001,,,,,,,,,,,,,,,,,,,,,,,,,,938.2241768000001,938.2278014000001,938.2278014000001,938.2278014000001,941.2116045,f,1.8752450000001772,0.17841169999996964,941.2116547,941.2116658,None,,,,,,,,,,,,,,00008,001,2025-11-10_16h35.03.177,MST_task,2024.2.2,60.40412777647035,2025-11-10 16h35.14.813484 +0530,
