thisN,thisTrialN,thisRepN,key_resp_3.keys,key_resp_3.rt,key_resp_3.duration,trials.thisRepN,trials.thisTrialN,trials.thisN,thisRow.t,notes,intro_page.started,text.started,key_resp.started,intro_page.stopped,key_resp.keys,key_resp.rt,key_resp.duration,instructions.started,text_2.started,key_resp_2.started,instructions.stopped,key_resp_2.keys,key_resp_2.rt,key_resp_2.duration,demo1.started,image_1.started,image_2.started,text_7.started,key_resp_6.started,text_9.started,demo1.stopped,key_resp_6.keys,key_resp_6.rt,key_resp_6.duration,demo2.started,image_5.started,image_6.started,text_11.started,text_12.started,key_resp_8.started,demo2.stopped,key_resp_8.keys,key_resp_8.rt,key_resp_8.duration,demo_conclusion.started,text_13.started,key_resp_9.started,demo_conclusion.stopped,key_resp_9.keys,key_resp_9.rt,key_resp_9.duration,start_test.started,text_6.started,key_resp_5.started,start_test.stopped,key_resp_5.keys,key_resp_5.rt,key_resp_5.duration,ISI.started,text_4.started,text_4.stopped,ISI.stopped,routine_1.started,image.started,text_3.started,key_resp_3.started,routine_1.stopped,image_path,position_of_stimuli,trials.key_resp_3.keys,trials.key_resp_3.rt,trials.key_resp_3.duration,End_page.started,text_5.started,key_resp_4.started,End_page.stopped,key_resp_4.keys,key_resp_4.rt,key_resp_4.duration,participant,session,date,expName,psychopyVersion,frameRate,expStart,
,,,,,,,,,,,0.0019146999984513968,0.004049100010888651,0.004049100010888651,4.410845000005793,space,4.359628000005614,None,,,,,,,,,,,,,,,,,,,,,,,,,,,,,,,,,,,,,,,,,,,,,,,,,,,,,,,,,,,,,,,00017,001,2025-11-20_17h14.07.925,MST_test,2024.2.0,59.941473146566125,2025-11-20 17h14.16.768055 +0530,
,,,,,,,,,,,,,,,,,,4.410886600002414,4.420614100003149,4.420614100003149,24.450247300002957,space,20.014886399992974,None,,,,,,,,,,,,,,,,,,,,,,,,,,,,,,,,,,,,,,,,,,,,,,,,,,,,,,,,00017,001,2025-11-20_17h14.07.925,MST_test,2024.2.0,59.941473146566125,2025-11-20 17h14.16.768055 +0530,
,,,,,,,,,,,,,,,,,,,,,,,,,24.450334699999075,24.466343500011135,24.466343500011135,24.466343500011135,24.466343500011135,24.466343500011135,35.41759749999619,space,10.945065700012492,None,,,,,,,,,,,,,,,,,,,,,,,,,,,,,,,,,,,,,,,,,,,,,,00017,001,2025-11-20_17h14.07.925,MST_test,2024.2.0,59.941473146566125,2025-11-20 17h14.16.768055 +0530,
,,,,,,,,,,,,,,,,,,,,,,,,,,,,,,,,,,,35.41769420000492,35.432758000009926,35.432758000009926,35.432758000009926,35.432758000009926,35.432758000009926,41.218276600004174,space,5.771896699996432,None,,,,,,,,,,,,,,,,,,,,,,,,,,,,,,,,,,,,00017,001,2025-11-20_17h14.07.925,MST_test,2024.2.0,59.941473146566125,2025-11-20 17h14.16.768055 +0530,
,,,,,,,,,,,,,,,,,,,,,,,,,,,,,,,,,,,,,,,,,,,,,41.21839409999666,41.23220779999974,41.23220779999974,193.96781579998787,space,152.72276760000386,None,,,,,,,,,,,,,,,,,,,,,,,,,,,,,00017,001,2025-11-20_17h14.07.925,MST_test,2024.2.0,59.941473146566125,2025-11-20 17h14.16.768055 +0530,
,,,,,,,,,,,,,,,,,,,,,,,,,,,,,,,,,,,,,,,,,,,,,,,,,,,,193.9679560000077,193.98231849999866,193.98231849999866,229.23448439998901,space,35.23650629998883,None,,,,,,,,,,,,,,,,,,,,,,00017,001,2025-11-20_17h14.07.925,MST_test,2024.2.0,59.941473146566125,2025-11-20 17h14.16.768055 +0530,
0,0,1,s,4.399733099999139,None,1,0,0,229.24848139999085,,,,,,,,,,,,,,,,,,,,,,,,,,,,,,,,,,,,,,,,,,,,,,,,,,229.2424413000117,229.24848139999085,229.75543339998694,229.73358729999745,229.75258979998762,229.75543339998694,229.75543339998694,229.75543339998694,234.16802069998812,Objects\129a.jpg,post,s,4.399733099999139,None,,,,,,,,00017,001,2025-11-20_17h14.07.925,MST_test,2024.2.0,59.941473146566125,2025-11-20 17h14.16.768055 +0530,
1,0,2,o,5.04222609999124,None,2,0,1,234.18204519999563,,,,,,,,,,,,,,,,,,,,,,,,,,,,,,,,,,,,,,,,,,,,,,,,,,234.16850729999715,234.18204519999563,234.6970236999914,234.66672629999812,234.69396760000382,234.6970236999914,234.6970236999914,234.6970236999914,239.75077640000382,Scenes\015a.jpg,pre,o,5.04222609999124,None,,,,,,,,00017,001,2025-11-20_17h14.07.925,MST_test,2024.2.0,59.941473146566125,2025-11-20 17h14.16.768055 +0530,
2,0,3,o,8.191835499979788,None,3,0,2,239.76545850001276,,,,,,,,,,,,,,,,,,,,,,,,,,,,,,,,,,,,,,,,,,,,,,,,,,239.7510680000123,239.76545850001276,240.2677788999863,240.24992460000794,240.26543440000387,240.2677788999863,240.2677788999863,240.2677788999863,248.46774339998956,Objects\175a.jpg,post,o,8.191835499979788,None,,,,,,,,00017,001,2025-11-20_17h14.07.925,MST_test,2024.2.0,59.941473146566125,2025-11-20 17h14.16.768055 +0530,
3,0,4,o,3.722387499990873,None,4,0,3,248.48210269998526,,,,,,,,,,,,,,,,,,,,,,,,,,,,,,,,,,,,,,,,,,,,,,,,,,248.46810349999578,248.48210269998526,248.9844608999847,248.96677679999266,248.98168490000535,248.9844608999847,248.9844608999847,248.9844608999847,252.71728710000752,Objects\130a.jpg,pre,o,3.722387499990873,None,,,,,,,,00017,001,2025-11-20_17h14.07.925,MST_test,2024.2.0,59.941473146566125,2025-11-20 17h14.16.768055 +0530,
4,0,5,s,3.8034582999825943,None,5,0,4,252.73216409998713,,,,,,,,,,,,,,,,,,,,,,,,,,,,,,,,,,,,,,,,,,,,,,,,,,252.71758979998413,252.73216409998713,253.26391939999303,253.2166295000061,253.26136730000144,253.26391939999303,253.26391939999303,253.26391939999303,257.08411699999124,Foils\058a.jpg,none,s,3.8034582999825943,None,,,,,,,,00017,001,2025-11-20_17h14.07.925,MST_test,2024.2.0,59.941473146566125,2025-11-20 17h14.16.768055 +0530,
5,0,6,o,3.3382285999832675,None,6,0,5,257.09871920000296,,,,,,,,,,,,,,,,,,,,,,,,,,,,,,,,,,,,,,,,,,,,,,,,,,257.08442619998823,257.09871920000296,257.6014085999923,257.5834582000098,257.598856800003,257.6014085999923,257.6014085999923,257.6014085999923,260.9510506000079,Objects\092a.jpg,post,o,3.3382285999832675,None,,,,,,,,00017,001,2025-11-20_17h14.07.925,MST_test,2024.2.0,59.941473146566125,2025-11-20 17h14.16.768055 +0530,
6,0,7,s,5.641906000004383,None,7,0,6,260.9655490999867,,,,,,,,,,,,,,,,,,,,,,,,,,,,,,,,,,,,,,,,,,,,,,,,,,260.9514546999999,260.9655490999867,261.4741144999862,261.45012080000015,261.4711496999953,261.4741144999862,261.4741144999862,261.4741144999862,267.1185085999896,Scenes\073b.jpg,post,s,5.641906000004383,None,,,,,,,,00017,001,2025-11-20_17h14.07.925,MST_test,2024.2.0,59.941473146566125,2025-11-20 17h14.16.768055 +0530,
7,0,8,s,5.256254200008698,None,8,0,7,267.1322373999865,,,,,,,,,,,,,,,,,,,,,,,,,,,,,,,,,,,,,,,,,,,,,,,,,,267.1188032999926,267.1322373999865,267.6349465000094,267.6166654000117,267.6320158999879,267.6349465000094,267.6349465000094,267.6349465000094,272.90062540001236,Scenes\022a.jpg,pre,s,5.256254200008698,None,,,,,,,,00017,001,2025-11-20_17h14.07.925,MST_test,2024.2.0,59.941473146566125,2025-11-20 17h14.16.768055 +0530,
8,0,9,o,3.1775341000175104,None,9,0,8,272.91544969999813,,,,,,,,,,,,,,,,,,,,,,,,,,,,,,,,,,,,,,,,,,,,,,,,,,272.90094679998583,272.91544969999813,273.42537099999026,273.39987490000203,273.42252369999187,273.42537099999026,273.42537099999026,273.42537099999026,276.6178794000007,Scenes\083b.jpg,mid,o,3.1775341000175104,None,,,,,,,,00017,001,2025-11-20_17h14.07.925,MST_test,2024.2.0,59.941473146566125,2025-11-20 17h14.16.768055 +0530,
9,0,10,o,4.471378599992022,None,10,0,9,276.63208539999323,,,,,,,,,,,,,,,,,,,,,,,,,,,,,,,,,,,,,,,,,,,,,,,,,,276.6182591000106,276.63208539999323,277.1399846000131,277.1164953999978,277.13750849998905,277.1399846000131,277.1399846000131,277.1399846000131,281.617645499995,Scenes\176a.jpg,pre,o,4.471378599992022,None,,,,,,,,00017,001,2025-11-20_17h14.07.925,MST_test,2024.2.0,59.941473146566125,2025-11-20 17h14.16.768055 +0530,
10,0,11,o,3.7487677999888547,None,11,0,10,281.63212910000584,,,,,,,,,,,,,,,,,,,,,,,,,,,,,,,,,,,,,,,,,,,,,,,,,,281.61803630000213,281.63212910000584,282.14212500001304,282.11670069998945,282.13915860001,282.14212500001304,282.14212500001304,282.14212500001304,285.90060829999857,Scenes\158a.jpg,post,o,3.7487677999888547,None,,,,,,,,00017,001,2025-11-20_17h14.07.925,MST_test,2024.2.0,59.941473146566125,2025-11-20 17h14.16.768055 +0530,
11,0,12,n,5.518443000008119,None,12,0,11,285.91548150000744,,,,,,,,,,,,,,,,,,,,,,,,,,,,,,,,,,,,,,,,,,,,,,,,,,285.9009916000068,285.91548150000744,286.4207424999913,286.3995800999983,286.4179285999853,286.4207424999913,286.4207424999913,286.4207424999913,291.9512592999963,Foils\033a.jpg,none,n,5.518443000008119,None,,,,,,,,00017,001,2025-11-20_17h14.07.925,MST_test,2024.2.0,59.941473146566125,2025-11-20 17h14.16.768055 +0530,
12,0,13,s,4.839616400015075,None,13,0,12,291.96546350000426,,,,,,,,,,,,,,,,,,,,,,,,,,,,,,,,,,,,,,,,,,,,,,,,,,291.9516091000114,291.96546350000426,292.4672974999994,292.4494715000037,292.4648879999877,292.4672974999994,292.4672974999994,292.4672974999994,297.3175043000083,Objects\026b.jpg,post,s,4.839616400015075,None,,,,,,,,00017,001,2025-11-20_17h14.07.925,MST_test,2024.2.0,59.941473146566125,2025-11-20 17h14.16.768055 +0530,
13,0,14,o,13.676776000007521,None,14,0,13,297.33213590001105,,,,,,,,,,,,,,,,,,,,,,,,,,,,,,,,,,,,,,,,,,,,,,,,,,297.3179250000103,297.33213590001105,297.8387701000029,297.81643050001003,297.8360500999843,297.8387701000029,297.8387701000029,297.8387701000029,311.5164034999907,Objects\062b.jpg,pre,o,13.676776000007521,None,,,,,,,,00017,001,2025-11-20_17h14.07.925,MST_test,2024.2.0,59.941473146566125,2025-11-20 17h14.16.768055 +0530,
14,0,15,s,6.062323399994057,None,15,0,14,311.53206019999925,,,,,,,,,,,,,,,,,,,,,,,,,,,,,,,,,,,,,,,,,,,,,,,,,,311.51650140000856,311.53206019999925,312.05391449999297,312.01668150001206,312.0514606999932,312.05391449999297,312.05391449999297,312.05391449999297,318.1183714999934,Objects\031b.jpg,pre,s,6.062323399994057,None,,,,,,,,00017,001,2025-11-20_17h14.07.925,MST_test,2024.2.0,59.941473146566125,2025-11-20 17h14.16.768055 +0530,
15,0,16,o,3.345944900007453,None,16,0,15,318.13213220000034,,,,,,,,,,,,,,,,,,,,,,,,,,,,,,,,,,,,,,,,,,,,,,,,,,318.11879899998894,318.13213220000034,318.63393680000445,318.6167024000024,318.631555400003,318.63393680000445,318.63393680000445,318.63393680000445,321.98480750000454,Objects\173a.jpg,mid,o,3.345944900007453,None,,,,,,,,00017,001,2025-11-20_17h14.07.925,MST_test,2024.2.0,59.941473146566125,2025-11-20 17h14.16.768055 +0530,
16,0,17,s,5.607659400004195,None,17,0,16,321.9986261999875,,,,,,,,,,,,,,,,,,,,,,,,,,,,,,,,,,,,,,,,,,,,,,,,,,321.9852383999969,321.9986261999875,322.4997747000016,322.4834445999877,322.49742759999936,322.4997747000016,322.4997747000016,322.4997747000016,328.1175160999992,Foils\050a.jpg,none,s,5.607659400004195,None,,,,,,,,00017,001,2025-11-20_17h14.07.925,MST_test,2024.2.0,59.941473146566125,2025-11-20 17h14.16.768055 +0530,
17,0,18,s,18.854602999985218,None,18,0,17,328.1321966999967,,,,,,,,,,,,,,,,,,,,,,,,,,,,,,,,,,,,,,,,,,,,,,,,,,328.1177991000004,328.1321966999967,328.6369223000074,328.6166541999846,328.6346256000106,328.6369223000074,328.6369223000074,328.6369223000074,347.50173150000046,Foils\081a.jpg,none,s,18.854602999985218,None,,,,,,,,00017,001,2025-11-20_17h14.07.925,MST_test,2024.2.0,59.941473146566125,2025-11-20 17h14.16.768055 +0530,
18,0,19,o,6.735015899990685,None,19,0,18,347.51537909999024,,,,,,,,,,,,,,,,,,,,,,,,,,,,,,,,,,,,,,,,,,,,,,,,,,347.5022989999852,347.51537909999024,348.0202009000059,348.0000988999964,348.0175382999878,348.0202009000059,348.0202009000059,348.0202009000059,354.7682281000016,Scenes\053b.jpg,mid,o,6.735015899990685,None,,,,,,,,00017,001,2025-11-20_17h14.07.925,MST_test,2024.2.0,59.941473146566125,2025-11-20 17h14.16.768055 +0530,
19,0,20,o,1.4076804000069387,None,20,0,19,354.78221279999707,,,,,,,,,,,,,,,,,,,,,,,,,,,,,,,,,,,,,,,,,,,,,,,,,,354.7685402999923,354.78221279999707,355.28398800001014,355.26673450000817,355.2813077000028,355.28398800001014,355.28398800001014,355.28398800001014,356.70148300001165,Objects\083a.jpg,pre,o,1.4076804000069387,None,,,,,,,,00017,001,2025-11-20_17h14.07.925,MST_test,2024.2.0,59.941473146566125,2025-11-20 17h14.16.768055 +0530,
20,0,21,n,4.3577385999960825,None,21,0,20,356.7154090999975,,,,,,,,,,,,,,,,,,,,,,,,,,,,,,,,,,,,,,,,,,,,,,,,,,356.70179530000314,356.7154090999975,357.2297694000008,357.19987469998887,357.22691190001206,357.2297694000008,357.2297694000008,357.2297694000008,361.6015534999897,Scenes\190b.jpg,mid,n,4.3577385999960825,None,,,,,,,,00017,001,2025-11-20_17h14.07.925,MST_test,2024.2.0,59.941473146566125,2025-11-20 17h14.16.768055 +0530,
21,0,22,o,1.6516510999936145,None,22,0,21,361.615684599994,,,,,,,,,,,,,,,,,,,,,,,,,,,,,,,,,,,,,,,,,,,,,,,,,,361.60188760000165,361.615684599994,362.11917329998687,362.09903250000207,362.1162190999894,362.11917329998687,362.11917329998687,362.11917329998687,363.7843494999979,Scenes\001b.jpg,post,o,1.6516510999936145,None,,,,,,,,00017,001,2025-11-20_17h14.07.925,MST_test,2024.2.0,59.941473146566125,2025-11-20 17h14.16.768055 +0530,
22,0,23,n,1.5470255000109319,None,23,0,22,363.79887739999685,,,,,,,,,,,,,,,,,,,,,,,,,,,,,,,,,,,,,,,,,,,,,,,,,,363.7846408000041,363.79887739999685,364.3201405,364.2833999999857,364.3165974000003,364.3201405,364.3201405,364.3201405,365.883215400012,Foils\scenes23.jpg,none,n,1.5470255000109319,None,,,,,,,,00017,001,2025-11-20_17h14.07.925,MST_test,2024.2.0,59.941473146566125,2025-11-20 17h14.16.768055 +0530,
23,0,24,o,1.396218299982138,None,24,0,23,365.8987544999982,,,,,,,,,,,,,,,,,,,,,,,,,,,,,,,,,,,,,,,,,,,,,,,,,,365.88339480001014,365.8987544999982,366.4079969000013,366.38363249998656,366.4054957999906,366.4079969000013,366.4079969000013,366.4079969000013,367.81794290000107,Scenes\160a.jpg,pre,o,1.396218299982138,None,,,,,,,,00017,001,2025-11-20_17h14.07.925,MST_test,2024.2.0,59.941473146566125,2025-11-20 17h14.16.768055 +0530,
24,0,25,s,7.314884499995969,None,25,0,24,367.8322530000005,,,,,,,,,,,,,,,,,,,,,,,,,,,,,,,,,,,,,,,,,,,,,,,,,,367.81837140000425,367.8322530000005,368.3371114000038,368.31681590000517,368.3342040999851,368.3371114000038,368.3371114000038,368.3371114000038,375.6677255000104,Foils\scenes6.jpg,none,s,7.314884499995969,None,,,,,,,,00017,001,2025-11-20_17h14.07.925,MST_test,2024.2.0,59.941473146566125,2025-11-20 17h14.16.768055 +0530,
25,0,26,o,1.105646300013177,None,26,0,25,375.6823876000126,,,,,,,,,,,,,,,,,,,,,,,,,,,,,,,,,,,,,,,,,,,,,,,,,,375.6681094999949,375.6823876000126,376.18531860000803,376.16680549999,376.1826208999846,376.18531860000803,376.18531860000803,376.18531860000803,377.3011637000018,Objects\172a.jpg,pre,o,1.105646300013177,None,,,,,,,,00017,001,2025-11-20_17h14.07.925,MST_test,2024.2.0,59.941473146566125,2025-11-20 17h14.16.768055 +0530,
26,0,27,o,2.275812899984885,None,27,0,26,377.31576420000056,,,,,,,,,,,,,,,,,,,,,,,,,,,,,,,,,,,,,,,,,,,,,,,,,,377.3015701000113,377.31576420000056,377.81604519998655,377.7985740999866,377.8128902000026,377.81604519998655,377.81604519998655,377.81604519998655,380.1013837000064,Scenes\004b.jpg,mid,o,2.275812899984885,None,,,,,,,,00017,001,2025-11-20_17h14.07.925,MST_test,2024.2.0,59.941473146566125,2025-11-20 17h14.16.768055 +0530,
27,0,28,o,1.4967258000106085,None,28,0,27,380.1157192999963,,,,,,,,,,,,,,,,,,,,,,,,,,,,,,,,,,,,,,,,,,,,,,,,,,380.10179210000206,380.1157192999963,380.618212100002,380.60018410001067,380.6151760999928,380.618212100002,380.618212100002,380.618212100002,382.118137100013,Objects\052a.jpg,post,o,1.4967258000106085,None,,,,,,,,00017,001,2025-11-20_17h14.07.925,MST_test,2024.2.0,59.941473146566125,2025-11-20 17h14.16.768055 +0530,
28,0,29,n,1.702990099991439,None,29,0,28,382.1324314000085,,,,,,,,,,,,,,,,,,,,,,,,,,,,,,,,,,,,,,,,,,,,,,,,,,382.11853919998975,382.1324314000085,382.6360680999933,382.61684949998744,382.6335868999886,382.6360680999933,382.6360680999933,382.6360680999933,384.3508331000048,Foils\098a.jpg,none,n,1.702990099991439,None,,,,,,,,00017,001,2025-11-20_17h14.07.925,MST_test,2024.2.0,59.941473146566125,2025-11-20 17h14.16.768055 +0530,
29,0,30,n,1.2722888000134844,None,30,0,29,384.3655704999983,,,,,,,,,,,,,,,,,,,,,,,,,,,,,,,,,,,,,,,,,,,,,,,,,,384.35125420000986,384.3655704999983,384.874710700009,384.8501823999977,384.87184340000385,384.874710700009,384.874710700009,384.874710700009,386.1510821999982,Scenes\044b.jpg,mid,n,1.2722888000134844,None,,,,,,,,00017,001,2025-11-20_17h14.07.925,MST_test,2024.2.0,59.941473146566125,2025-11-20 17h14.16.768055 +0530,
30,0,31,n,0.9594776000012644,None,31,0,30,386.1656223000027,,,,,,,,,,,,,,,,,,,,,,,,,,,,,,,,,,,,,,,,,,,,,,,,,,386.15148649999173,386.1656223000027,386.66767470000195,386.649894400005,386.66475259998697,386.66767470000195,386.66767470000195,386.66767470000195,387.6346310999943,Foils\090a.jpg,none,n,0.9594776000012644,None,,,,,,,,00017,001,2025-11-20_17h14.07.925,MST_test,2024.2.0,59.941473146566125,2025-11-20 17h14.16.768055 +0530,
31,0,32,o,4.059436499985168,None,32,0,31,387.6487541999959,,,,,,,,,,,,,,,,,,,,,,,,,,,,,,,,,,,,,,,,,,,,,,,,,,387.63501309999265,387.6487541999959,388.1522011999914,388.13346129999263,388.14982160000363,388.1522011999914,388.1522011999914,388.1522011999914,392.2181571999972,Objects\182b.jpg,pre,o,4.059436499985168,None,,,,,,,,00017,001,2025-11-20_17h14.07.925,MST_test,2024.2.0,59.941473146566125,2025-11-20 17h14.16.768055 +0530,
32,0,33,o,1.2068818999978248,None,33,0,32,392.2321815000032,,,,,,,,,,,,,,,,,,,,,,,,,,,,,,,,,,,,,,,,,,,,,,,,,,392.21849189998466,392.2321815000032,392.73294049999095,392.7162127000047,392.730595800007,392.73294049999095,392.73294049999095,392.73294049999095,393.9507708000019,Objects\032b.jpg,post,o,1.2068818999978248,None,,,,,,,,00017,001,2025-11-20_17h14.07.925,MST_test,2024.2.0,59.941473146566125,2025-11-20 17h14.16.768055 +0530,
33,0,34,o,0.9865351999760605,None,34,0,33,393.96547470000223,,,,,,,,,,,,,,,,,,,,,,,,,,,,,,,,,,,,,,,,,,,,,,,,,,393.9511765000061,393.96547470000223,394.47251640001195,394.4497632999846,394.4694582000084,394.47251640001195,394.47251640001195,394.47251640001195,395.4677897999936,Scenes\107a.jpg,mid,o,0.9865351999760605,None,,,,,,,,00017,001,2025-11-20_17h14.07.925,MST_test,2024.2.0,59.941473146566125,2025-11-20 17h14.16.768055 +0530,
34,0,35,s,16.258130600006552,None,35,0,34,395.4822864999878,,,,,,,,,,,,,,,,,,,,,,,,,,,,,,,,,,,,,,,,,,,,,,,,,,395.4681474000099,395.4822864999878,395.9849048999895,395.9666062000033,395.9821693999984,395.9849048999895,395.9849048999895,395.9849048999895,412.25098740000976,Objects\056b.jpg,mid,s,16.258130600006552,None,,,,,,,,00017,001,2025-11-20_17h14.07.925,MST_test,2024.2.0,59.941473146566125,2025-11-20 17h14.16.768055 +0530,
35,0,36,o,9.011484399990877,None,36,0,35,412.2655538000108,,,,,,,,,,,,,,,,,,,,,,,,,,,,,,,,,,,,,,,,,,,,,,,,,,412.2513547000126,412.2655538000108,412.77590430001146,412.7499392000027,412.7728830999986,412.77590430001146,412.77590430001146,412.77590430001146,421.8014630000107,Scenes\130a.jpg,pre,o,9.011484399990877,None,,,,,,,,00017,001,2025-11-20_17h14.07.925,MST_test,2024.2.0,59.941473146566125,2025-11-20 17h14.16.768055 +0530,
36,0,37,o,1.540299700020114,None,37,0,36,421.8156946999952,,,,,,,,,,,,,,,,,,,,,,,,,,,,,,,,,,,,,,,,,,,,,,,,,,421.8019156999944,421.8156946999952,422.31958199999644,422.2999851999921,422.31658149999566,422.31958199999644,422.31958199999644,422.31958199999644,423.86823960000766,Objects\065b.jpg,post,o,1.540299700020114,None,,,,,,,,00017,001,2025-11-20_17h14.07.925,MST_test,2024.2.0,59.941473146566125,2025-11-20 17h14.16.768055 +0530,
37,0,38,o,1.0130510999879334,None,38,0,37,423.8822029999865,,,,,,,,,,,,,,,,,,,,,,,,,,,,,,,,,,,,,,,,,,,,,,,,,,423.8686546999961,423.8822029999865,424.38252419998753,424.3669394000026,424.380196299986,424.38252419998753,424.38252419998753,424.38252419998753,425.4016186000081,Objects\138a.jpg,mid,o,1.0130510999879334,None,,,,,,,,00017,001,2025-11-20_17h14.07.925,MST_test,2024.2.0,59.941473146566125,2025-11-20 17h14.16.768055 +0530,
38,0,39,n,3.212861200008774,None,39,0,38,425.4154266999976,,,,,,,,,,,,,,,,,,,,,,,,,,,,,,,,,,,,,,,,,,,,,,,,,,425.40201140000136,425.4154266999976,425.9183528999856,425.8999550000008,425.9157363999984,425.9183528999856,425.9183528999856,425.9183528999856,429.1347710000118,Foils\scenes3.jpg,none,n,3.212861200008774,None,,,,,,,,00017,001,2025-11-20_17h14.07.925,MST_test,2024.2.0,59.941473146566125,2025-11-20 17h14.16.768055 +0530,
39,0,40,o,1.0090700000000652,None,40,0,39,429.1487751000095,,,,,,,,,,,,,,,,,,,,,,,,,,,,,,,,,,,,,,,,,,,,,,,,,,429.13513619999867,429.1487751000095,429.65845449999324,429.633474000002,429.6556741000095,429.65845449999324,429.65845449999324,429.65845449999324,430.68452249999973,Scenes\159a.jpg,pre,o,1.0090700000000652,None,,,,,,,,00017,001,2025-11-20_17h14.07.925,MST_test,2024.2.0,59.941473146566125,2025-11-20 17h14.16.768055 +0530,
40,0,41,o,0.8264808999956585,None,41,0,40,430.6988629999978,,,,,,,,,,,,,,,,,,,,,,,,,,,,,,,,,,,,,,,,,,,,,,,,,,430.6848855999997,430.6988629999978,431.20120929999393,431.1835024000029,431.19836069998564,431.20120929999393,431.20120929999393,431.20120929999393,432.03472870000405,Objects\078a.jpg,mid,o,0.8264808999956585,None,,,,,,,,00017,001,2025-11-20_17h14.07.925,MST_test,2024.2.0,59.941473146566125,2025-11-20 17h14.16.768055 +0530,
41,0,42,o,0.7781958999985363,None,42,0,41,432.0488966999983,,,,,,,,,,,,,,,,,,,,,,,,,,,,,,,,,,,,,,,,,,,,,,,,,,432.0351454000047,432.0488966999983,432.55287240000325,432.53350930000306,432.5503553999879,432.55287240000325,432.55287240000325,432.55287240000325,433.3346472000121,Objects\166b.jpg,post,o,0.7781958999985363,None,,,,,,,,00017,001,2025-11-20_17h14.07.925,MST_test,2024.2.0,59.941473146566125,2025-11-20 17h14.16.768055 +0530,
42,0,43,o,1.1654897999833338,None,43,0,42,433.34868299998925,,,,,,,,,,,,,,,,,,,,,,,,,,,,,,,,,,,,,,,,,,,,,,,,,,433.33505180000793,433.34868299998925,433.85358070000075,433.8334041000053,433.85068529998534,433.85358070000075,433.85358070000075,433.85358070000075,435.0343836999964,Scenes\087b.jpg,pre,o,1.1654897999833338,None,,,,,,,,00017,001,2025-11-20_17h14.07.925,MST_test,2024.2.0,59.941473146566125,2025-11-20 17h14.16.768055 +0530,
43,0,44,o,1.0897939999995288,None,44,0,43,435.04881139998906,,,,,,,,,,,,,,,,,,,,,,,,,,,,,,,,,,,,,,,,,,,,,,,,,,435.0346804999863,435.04881139998906,435.55399580000085,435.5331981999916,435.55122279998614,435.55399580000085,435.55399580000085,435.55399580000085,436.65071799998987,Objects\124b.jpg,mid,o,1.0897939999995288,None,,,,,,,,00017,001,2025-11-20_17h14.07.925,MST_test,2024.2.0,59.941473146566125,2025-11-20 17h14.16.768055 +0530,
44,0,45,o,5.812579000019468,None,45,0,44,436.6655519999913,,,,,,,,,,,,,,,,,,,,,,,,,,,,,,,,,,,,,,,,,,,,,,,,,,436.6510849999904,436.6655519999913,437.1663983000035,437.1497657999862,437.1638590999937,437.1663983000035,437.1663983000035,437.1663983000035,442.98479529999895,Objects\047a.jpg,post,o,5.812579000019468,None,,,,,,,,00017,001,2025-11-20_17h14.07.925,MST_test,2024.2.0,59.941473146566125,2025-11-20 17h14.16.768055 +0530,
45,0,46,o,0.9913235999993049,None,46,0,45,442.9986305999919,,,,,,,,,,,,,,,,,,,,,,,,,,,,,,,,,,,,,,,,,,,,,,,,,,442.98514380000415,442.9986305999919,443.49960189999547,443.4835894999851,443.4972815999936,443.49960189999547,443.49960189999547,443.49960189999547,444.5007304000028,Objects\108a.jpg,mid,o,0.9913235999993049,None,,,,,,,,00017,001,2025-11-20_17h14.07.925,MST_test,2024.2.0,59.941473146566125,2025-11-20 17h14.16.768055 +0530,
46,0,47,o,1.0737503999844193,None,47,0,46,444.51548949998687,,,,,,,,,,,,,,,,,,,,,,,,,,,,,,,,,,,,,,,,,,,,,,,,,,444.50102799999877,444.51548949998687,445.01760769999237,444.99985029999516,445.0153253999888,445.01760769999237,445.01760769999237,445.01760769999237,446.10098819999257,Objects\169a.jpg,mid,o,1.0737503999844193,None,,,,,,,,00017,001,2025-11-20_17h14.07.925,MST_test,2024.2.0,59.941473146566125,2025-11-20 17h14.16.768055 +0530,
47,0,48,o,9.897523200022988,None,48,0,47,446.11568570000236,,,,,,,,,,,,,,,,,,,,,,,,,,,,,,,,,,,,,,,,,,,,,,,,,,446.1013546999893,446.11568570000236,446.62623120000353,446.5997722999891,446.6234298000054,446.62623120000353,446.62623120000353,446.62623120000353,456.53468859998975,Scenes\150b.jpg,pre,o,9.897523200022988,None,,,,,,,,00017,001,2025-11-20_17h14.07.925,MST_test,2024.2.0,59.941473146566125,2025-11-20 17h14.16.768055 +0530,
48,0,49,o,1.669856599997729,None,49,0,48,456.54879900001106,,,,,,,,,,,,,,,,,,,,,,,,,,,,,,,,,,,,,,,,,,,,,,,,,,456.5350441999908,456.54879900001106,457.0533301999967,457.0334959999891,457.05025000000023,457.0533301999967,457.0533301999967,457.0533301999967,458.7345367000089,Objects\098b.jpg,post,o,1.669856599997729,None,,,,,,,,00017,001,2025-11-20_17h14.07.925,MST_test,2024.2.0,59.941473146566125,2025-11-20 17h14.16.768055 +0530,
49,0,50,o,1.008782400022028,None,50,0,49,458.7488713999919,,,,,,,,,,,,,,,,,,,,,,,,,,,,,,,,,,,,,,,,,,,,,,,,,,458.73486359999515,458.7488713999919,459.25059290000354,459.2332788000058,459.2482072999992,459.25059290000354,459.25059290000354,459.25059290000354,460.26800149999326,Objects\067a.jpg,post,o,1.008782400022028,None,,,,,,,,00017,001,2025-11-20_17h14.07.925,MST_test,2024.2.0,59.941473146566125,2025-11-20 17h14.16.768055 +0530,
50,0,51,s,5.332464799983427,None,51,0,50,460.2824232999992,,,,,,,,,,,,,,,,,,,,,,,,,,,,,,,,,,,,,,,,,,,,,,,,,,460.26840239999,460.2824232999992,460.7909276999999,460.76646829998936,460.78792060000706,460.7909276999999,460.7909276999999,460.7909276999999,466.1343984999985,Scenes\108b.jpg,post,s,5.332464799983427,None,,,,,,,,00017,001,2025-11-20_17h14.07.925,MST_test,2024.2.0,59.941473146566125,2025-11-20 17h14.16.768055 +0530,
51,0,52,o,2.7192012000014074,None,52,0,51,466.14896590000717,,,,,,,,,,,,,,,,,,,,,,,,,,,,,,,,,,,,,,,,,,,,,,,,,,466.13478279998526,466.14896590000717,466.66002030001255,466.63357509998605,466.65683359999093,466.66002030001255,466.66002030001255,466.66002030001255,469.38458700000774,Scenes\010a.jpg,post,o,2.7192012000014074,None,,,,,,,,00017,001,2025-11-20_17h14.07.925,MST_test,2024.2.0,59.941473146566125,2025-11-20 17h14.16.768055 +0530,
52,0,53,n,2.282011400006013,None,53,0,52,469.3989096999867,,,,,,,,,,,,,,,,,,,,,,,,,,,,,,,,,,,,,,,,,,,,,,,,,,469.38499109999975,469.3989096999867,469.9056355000066,469.8835897000099,469.9023806999903,469.9056355000066,469.9056355000066,469.9056355000066,472.2014092000027,Scenes\169a.jpg,pre,n,2.282011400006013,None,,,,,,,,00017,001,2025-11-20_17h14.07.925,MST_test,2024.2.0,59.941473146566125,2025-11-20 17h14.16.768055 +0530,
53,0,54,o,1.1653131000057328,None,54,0,53,472.21567410000716,,,,,,,,,,,,,,,,,,,,,,,,,,,,,,,,,,,,,,,,,,,,,,,,,,472.20183770000585,472.21567410000716,472.7266406999843,472.7000709999993,472.7233689999848,472.7266406999843,472.7266406999843,472.7266406999843,473.90133329998935,Scenes\031a.jpg,pre,o,1.1653131000057328,None,,,,,,,,00017,001,2025-11-20_17h14.07.925,MST_test,2024.2.0,59.941473146566125,2025-11-20 17h14.16.768055 +0530,
54,0,55,s,5.040504600008717,None,55,0,54,473.9155725000019,,,,,,,,,,,,,,,,,,,,,,,,,,,,,,,,,,,,,,,,,,,,,,,,,,473.9017337000114,473.9155725000019,474.41925679999986,474.4002254999941,474.4163797000074,474.41925679999986,474.41925679999986,474.41925679999986,479.46805950001,Objects\153b.jpg,pre,s,5.040504600008717,None,,,,,,,,00017,001,2025-11-20_17h14.07.925,MST_test,2024.2.0,59.941473146566125,2025-11-20 17h14.16.768055 +0530,
55,0,56,s,2.247211599984439,None,56,0,55,479.48243860001094,,,,,,,,,,,,,,,,,,,,,,,,,,,,,,,,,,,,,,,,,,,,,,,,,,479.4684641000058,479.48243860001094,479.9961442000058,479.96684430001187,479.99296529998537,479.9961442000058,479.9961442000058,479.9961442000058,482.25164800000493,Scenes\029b.jpg,pre,s,2.247211599984439,None,,,,,,,,00017,001,2025-11-20_17h14.07.925,MST_test,2024.2.0,59.941473146566125,2025-11-20 17h14.16.768055 +0530,
56,0,57,s,15.963276499998756,None,57,0,56,482.2658648999932,,,,,,,,,,,,,,,,,,,,,,,,,,,,,,,,,,,,,,,,,,,,,,,,,,482.2520521999977,482.2658648999932,482.77572370000416,482.75024719999055,482.7725317000004,482.77572370000416,482.77572370000416,482.77572370000416,498.75103370001307,Objects\132b.jpg,pre,s,15.963276499998756,None,,,,,,,,00017,001,2025-11-20_17h14.07.925,MST_test,2024.2.0,59.941473146566125,2025-11-20 17h14.16.768055 +0530,
57,0,58,o,3.242686599987792,None,58,0,57,498.765587300004,,,,,,,,,,,,,,,,,,,,,,,,,,,,,,,,,,,,,,,,,,,,,,,,,,498.7513818999869,498.765587300004,499.2732764999964,499.24977920000674,499.270299900003,499.2732764999964,499.2732764999964,499.2732764999964,502.51804629998514,Scenes\042a.jpg,post,o,3.242686599987792,None,,,,,,,,00017,001,2025-11-20_17h14.07.925,MST_test,2024.2.0,59.941473146566125,2025-11-20 17h14.16.768055 +0530,
58,0,59,n,5.103817800001707,None,59,0,58,502.53237999998964,,,,,,,,,,,,,,,,,,,,,,,,,,,,,,,,,,,,,,,,,,,,,,,,,,502.5184559999907,502.53237999998964,503.03551650000736,503.01655339999706,503.0326849000121,503.03551650000736,503.03551650000736,503.03551650000736,508.1511407000071,Foils\017a.jpg,none,n,5.103817800001707,None,,,,,,,,00017,001,2025-11-20_17h14.07.925,MST_test,2024.2.0,59.941473146566125,2025-11-20 17h14.16.768055 +0530,
59,0,60,n,1.1437175999744795,None,60,0,59,508.16572600000654,,,,,,,,,,,,,,,,,,,,,,,,,,,,,,,,,,,,,,,,,,,,,,,,,,508.151511700009,508.16572600000654,508.66808579998906,508.6501677999913,508.6656299000024,508.66808579998906,508.66808579998906,508.66808579998906,509.81829870000365,Foils\082a.jpg,none,n,1.1437175999744795,None,,,,,,,,00017,001,2025-11-20_17h14.07.925,MST_test,2024.2.0,59.941473146566125,2025-11-20 17h14.16.768055 +0530,
60,0,61,n,1.299470800004201,None,61,0,60,509.83208490000106,,,,,,,,,,,,,,,,,,,,,,,,,,,,,,,,,,,,,,,,,,,,,,,,,,509.8186987999943,509.83208490000106,510.3361307999876,510.3168345000013,510.3334123000095,510.3361307999876,510.3361307999876,510.3361307999876,511.6514776000113,Foils\scenes29.jpg,none,n,1.299470800004201,None,,,,,,,,00017,001,2025-11-20_17h14.07.925,MST_test,2024.2.0,59.941473146566125,2025-11-20 17h14.16.768055 +0530,
61,0,62,n,1.1020298000075854,None,62,0,61,511.6657417000097,,,,,,,,,,,,,,,,,,,,,,,,,,,,,,,,,,,,,,,,,,,,,,,,,,511.651875200012,511.6657417000097,512.1734021999873,512.150086699985,512.1705840000068,512.1734021999873,512.1734021999873,512.1734021999873,513.2852759000089,Scenes\116b.jpg,post,n,1.1020298000075854,None,,,,,,,,00017,001,2025-11-20_17h14.07.925,MST_test,2024.2.0,59.941473146566125,2025-11-20 17h14.16.768055 +0530,
62,0,63,o,2.5309210999985225,None,63,0,62,513.2989066999871,,,,,,,,,,,,,,,,,,,,,,,,,,,,,,,,,,,,,,,,,,,,,,,,,,513.2856227000011,513.2989066999871,513.8007024000108,513.7835587000009,513.7977087000036,513.8007024000108,513.8007024000108,513.8007024000108,516.3345585000061,Objects\136a.jpg,mid,o,2.5309210999985225,None,,,,,,,,00017,001,2025-11-20_17h14.07.925,MST_test,2024.2.0,59.941473146566125,2025-11-20 17h14.16.768055 +0530,
63,0,64,o,1.4542528000019956,None,64,0,63,516.348859699996,,,,,,,,,,,,,,,,,,,,,,,,,,,,,,,,,,,,,,,,,,,,,,,,,,516.3349575999891,516.348859699996,516.8778671000036,516.8334473999857,516.8749448999879,516.8778671000036,516.8778671000036,516.8778671000036,518.3344818000041,Scenes\078b.jpg,pre,o,1.4542528000019956,None,,,,,,,,00017,001,2025-11-20_17h14.07.925,MST_test,2024.2.0,59.941473146566125,2025-11-20 17h14.16.768055 +0530,
64,0,65,n,1.6956124999851454,None,65,0,64,518.3487273000064,,,,,,,,,,,,,,,,,,,,,,,,,,,,,,,,,,,,,,,,,,,,,,,,,,518.3348457000102,518.3487273000064,518.8594225000124,518.8333430000057,518.8562396999914,518.8594225000124,518.8594225000124,518.8594225000124,520.5674900999875,Scenes\093b.jpg,pre,n,1.6956124999851454,None,,,,,,,,00017,001,2025-11-20_17h14.07.925,MST_test,2024.2.0,59.941473146566125,2025-11-20 17h14.16.768055 +0530,
65,0,66,n,0.9471098000067286,None,66,0,65,520.5822019999905,,,,,,,,,,,,,,,,,,,,,,,,,,,,,,,,,,,,,,,,,,,,,,,,,,520.5677718000079,520.5822019999905,521.0880603000114,521.0667699000041,521.0849535999878,521.0880603000114,521.0880603000114,521.0880603000114,522.0510580000118,Foils\101b.jpg,none,n,0.9471098000067286,None,,,,,,,,00017,001,2025-11-20_17h14.07.925,MST_test,2024.2.0,59.941473146566125,2025-11-20 17h14.16.768055 +0530,
66,0,67,o,1.0880104000098072,None,67,0,66,522.0656044000061,,,,,,,,,,,,,,,,,,,,,,,,,,,,,,,,,,,,,,,,,,,,,,,,,,522.051455000008,522.0656044000061,522.5713920000126,522.5487354999932,522.5685658000002,522.5713920000126,522.5713920000126,522.5713920000126,523.668221400003,Scenes\145b.jpg,mid,o,1.0880104000098072,None,,,,,,,,00017,001,2025-11-20_17h14.07.925,MST_test,2024.2.0,59.941473146566125,2025-11-20 17h14.16.768055 +0530,
67,0,68,o,6.193209999997634,None,68,0,67,523.6821747999929,,,,,,,,,,,,,,,,,,,,,,,,,,,,,,,,,,,,,,,,,,,,,,,,,,523.668608899985,523.6821747999929,524.1866594000021,524.1662462000095,524.1842951999861,524.1866594000021,524.1866594000021,524.1866594000021,530.384796600003,Scenes\170a.jpg,mid,o,6.193209999997634,None,,,,,,,,00017,001,2025-11-20_17h14.07.925,MST_test,2024.2.0,59.941473146566125,2025-11-20 17h14.16.768055 +0530,
68,0,69,o,1.3942924999864772,None,69,0,68,530.3987135000061,,,,,,,,,,,,,,,,,,,,,,,,,,,,,,,,,,,,,,,,,,,,,,,,,,530.3851415000099,530.3987135000061,530.9134994999913,530.8833864000044,530.9110247000062,530.9134994999913,530.9134994999913,530.9134994999913,532.316318600002,Scenes\003b.jpg,post,o,1.3942924999864772,None,,,,,,,,00017,001,2025-11-20_17h14.07.925,MST_test,2024.2.0,59.941473146566125,2025-11-20 17h14.16.768055 +0530,
69,0,70,o,1.6481618999969214,None,70,0,69,532.3320797999913,,,,,,,,,,,,,,,,,,,,,,,,,,,,,,,,,,,,,,,,,,,,,,,,,,532.3164139,532.3320797999913,532.8436995999946,532.8168464000046,532.8407456999994,532.8436995999946,532.8436995999946,532.8436995999946,534.5010626000003,Scenes\071a.jpg,pre,o,1.6481618999969214,None,,,,,,,,00017,001,2025-11-20_17h14.07.925,MST_test,2024.2.0,59.941473146566125,2025-11-20 17h14.16.768055 +0530,
70,0,71,o,2.190806699974928,None,71,0,70,534.5156777999946,,,,,,,,,,,,,,,,,,,,,,,,,,,,,,,,,,,,,,,,,,,,,,,,,,534.5014350999845,534.5156777999946,535.0206649999891,535.0000963000057,535.0177512000082,535.0206649999891,535.0206649999891,535.0206649999891,537.2182845000061,Objects\110a.jpg,pre,o,2.190806699974928,None,,,,,,,,00017,001,2025-11-20_17h14.07.925,MST_test,2024.2.0,59.941473146566125,2025-11-20 17h14.16.768055 +0530,
71,0,72,n,13.149973599996883,None,72,0,71,537.2323382000031,,,,,,,,,,,,,,,,,,,,,,,,,,,,,,,,,,,,,,,,,,,,,,,,,,537.218687799992,537.2323382000031,537.7333204000024,537.7166731999896,537.730762399995,537.7333204000024,537.7333204000024,537.7333204000024,550.8851692999888,Foils\scenes16.jpg,none,n,13.149973599996883,None,,,,,,,,00017,001,2025-11-20_17h14.07.925,MST_test,2024.2.0,59.941473146566125,2025-11-20 17h14.16.768055 +0530,
72,0,73,n,2.4204323000158183,None,73,0,72,550.8988217999868,,,,,,,,,,,,,,,,,,,,,,,,,,,,,,,,,,,,,,,,,,,,,,,,,,550.8855827999942,550.8988217999868,551.4073943000112,551.3833237999934,551.4045930999855,551.4073943000112,551.4073943000112,551.4073943000112,553.8348294000025,Scenes\100b.jpg,mid,n,2.4204323000158183,None,,,,,,,,00017,001,2025-11-20_17h14.07.925,MST_test,2024.2.0,59.941473146566125,2025-11-20 17h14.16.768055 +0530,
73,0,74,o,0.8974615999904927,None,74,0,73,553.848762300011,,,,,,,,,,,,,,,,,,,,,,,,,,,,,,,,,,,,,,,,,,,,,,,,,,553.8351460999984,553.848762300011,554.3540488999861,554.3333756999928,554.3510253000131,554.3540488999861,554.3540488999861,554.3540488999861,555.2677454999939,Objects\123a.jpg,mid,o,0.8974615999904927,None,,,,,,,,00017,001,2025-11-20_17h14.07.925,MST_test,2024.2.0,59.941473146566125,2025-11-20 17h14.16.768055 +0530,
74,0,75,n,1.2655032000038773,None,75,0,74,555.2821900999988,,,,,,,,,,,,,,,,,,,,,,,,,,,,,,,,,,,,,,,,,,,,,,,,,,555.2681435999984,555.2821900999988,555.7862443999911,555.7667453000031,555.7838740999869,555.7862443999911,555.7862443999911,555.7862443999911,557.0675176999939,Foils\074a.jpg,none,n,1.2655032000038773,None,,,,,,,,00017,001,2025-11-20_17h14.07.925,MST_test,2024.2.0,59.941473146566125,2025-11-20 17h14.16.768055 +0530,
75,0,76,o,1.042205700010527,None,76,0,75,557.0823692000122,,,,,,,,,,,,,,,,,,,,,,,,,,,,,,,,,,,,,,,,,,,,,,,,,,557.0679639999871,557.0823692000122,557.5932955000026,557.5667966000037,557.5902461000078,557.5932955000026,557.5932955000026,557.5932955000026,558.6516501999868,Scenes\114a.jpg,pre,o,1.042205700010527,None,,,,,,,,00017,001,2025-11-20_17h14.07.925,MST_test,2024.2.0,59.941473146566125,2025-11-20 17h14.16.768055 +0530,
76,0,77,n,0.9349725999927614,None,77,0,76,558.6657127999933,,,,,,,,,,,,,,,,,,,,,,,,,,,,,,,,,,,,,,,,,,,,,,,,,,558.6520451999968,558.6657127999933,559.2366057999898,559.1502908999973,559.2323667999881,559.2366057999898,559.2366057999898,559.2366057999898,560.1847268000129,Foils\scenes25.jpg,none,n,0.9349725999927614,None,,,,,,,,00017,001,2025-11-20_17h14.07.925,MST_test,2024.2.0,59.941473146566125,2025-11-20 17h14.16.768055 +0530,
77,0,78,n,1.662078699999256,None,78,0,77,560.1989193999907,,,,,,,,,,,,,,,,,,,,,,,,,,,,,,,,,,,,,,,,,,,,,,,,,,560.1850684999954,560.1989193999907,560.717118600005,560.6832565999939,560.711562499986,560.717118600005,560.717118600005,560.717118600005,562.3844123999879,Scenes\088b.jpg,pre,n,1.662078699999256,None,,,,,,,,00017,001,2025-11-20_17h14.07.925,MST_test,2024.2.0,59.941473146566125,2025-11-20 17h14.16.768055 +0530,
78,0,79,n,1.6363011000212282,None,79,0,78,562.398843300005,,,,,,,,,,,,,,,,,,,,,,,,,,,,,,,,,,,,,,,,,,,,,,,,,,562.3847790999862,562.398843300005,562.911700800003,562.8834901000082,562.9083868000016,562.911700800003,562.911700800003,562.911700800003,564.5514257999894,Scenes\109b.jpg,pre,n,1.6363011000212282,None,,,,,,,,00017,001,2025-11-20_17h14.07.925,MST_test,2024.2.0,59.941473146566125,2025-11-20 17h14.16.768055 +0530,
79,0,80,n,1.1016250999819022,None,80,0,79,564.5656541000062,,,,,,,,,,,,,,,,,,,,,,,,,,,,,,,,,,,,,,,,,,,,,,,,,,564.5517918000114,564.5656541000062,565.0694838000054,565.0494758999848,565.0666400000046,565.0694838000054,565.0694838000054,565.0694838000054,566.1847669999988,Foils\106a.jpg,none,n,1.1016250999819022,None,,,,,,,,00017,001,2025-11-20_17h14.07.925,MST_test,2024.2.0,59.941473146566125,2025-11-20 17h14.16.768055 +0530,
80,0,81,o,1.1486436999985017,None,81,0,80,566.1989468999964,,,,,,,,,,,,,,,,,,,,,,,,,,,,,,,,,,,,,,,,,,,,,,,,,,566.1851711999916,566.1989468999964,566.7108329999901,566.6832181999926,566.7078685000015,566.7108329999901,566.7108329999901,566.7108329999901,567.8676464000018,Scenes\094a.jpg,post,o,1.1486436999985017,None,,,,,,,,00017,001,2025-11-20_17h14.07.925,MST_test,2024.2.0,59.941473146566125,2025-11-20 17h14.16.768055 +0530,
81,0,82,n,1.255763699999079,None,82,0,81,567.8821951999853,,,,,,,,,,,,,,,,,,,,,,,,,,,,,,,,,,,,,,,,,,,,,,,,,,567.8680335000099,567.8821951999853,568.3879713999922,568.3668999999936,568.384884500003,568.3879713999922,568.3879713999922,568.3879713999922,569.6514716999955,Objects\064b.jpg,mid,n,1.255763699999079,None,,,,,,,,00017,001,2025-11-20_17h14.07.925,MST_test,2024.2.0,59.941473146566125,2025-11-20 17h14.16.768055 +0530,
82,0,83,o,3.4665591999946628,None,83,0,82,569.6656906999997,,,,,,,,,,,,,,,,,,,,,,,,,,,,,,,,,,,,,,,,,,,,,,,,,,569.6518690999947,569.6656906999997,570.1685385000019,570.1501096999855,570.166032899986,570.1685385000019,570.1685385000019,570.1685385000019,573.6517671000038,Foils\065a.jpg,none,o,3.4665591999946628,None,,,,,,,,00017,001,2025-11-20_17h14.07.925,MST_test,2024.2.0,59.941473146566125,2025-11-20 17h14.16.768055 +0530,
83,0,84,n,2.9796389999974053,None,84,0,83,573.6656876000052,,,,,,,,,,,,,,,,,,,,,,,,,,,,,,,,,,,,,,,,,,,,,,,,,,573.6521238000132,573.6656876000052,574.1682690999878,574.1502431000117,574.1654891000071,574.1682690999878,574.1682690999878,574.1682690999878,577.1514058999892,Foils\scenes8.jpg,none,n,2.9796389999974053,None,,,,,,,,00017,001,2025-11-20_17h14.07.925,MST_test,2024.2.0,59.941473146566125,2025-11-20 17h14.16.768055 +0530,
84,0,85,o,1.4719694000086747,None,85,0,84,577.165689299989,,,,,,,,,,,,,,,,,,,,,,,,,,,,,,,,,,,,,,,,,,,,,,,,,,577.1517536999891,577.165689299989,577.6685779000109,577.6504188000108,577.6659332999843,577.6685779000109,577.6685779000109,577.6685779000109,579.1508249999897,Objects\106b.jpg,pre,o,1.4719694000086747,None,,,,,,,,00017,001,2025-11-20_17h14.07.925,MST_test,2024.2.0,59.941473146566125,2025-11-20 17h14.16.768055 +0530,
85,0,86,o,1.023646900022868,None,86,0,85,579.1656169999915,,,,,,,,,,,,,,,,,,,,,,,,,,,,,,,,,,,,,,,,,,,,,,,,,,579.1512017000059,579.1656169999915,579.6675642000046,579.650393399992,579.6649614000053,579.6675642000046,579.6675642000046,579.6675642000046,580.7009210000106,Objects\095a.jpg,pre,o,1.023646900022868,None,,,,,,,,00017,001,2025-11-20_17h14.07.925,MST_test,2024.2.0,59.941473146566125,2025-11-20 17h14.16.768055 +0530,
86,0,87,o,2.064658799994504,None,87,0,86,580.7154249000014,,,,,,,,,,,,,,,,,,,,,,,,,,,,,,,,,,,,,,,,,,,,,,,,,,580.7012961999862,580.7154249000014,581.2185824000044,581.1996968000021,581.2158885000099,581.2185824000044,581.2185824000044,581.2185824000044,583.3000240999972,Objects\157a.jpg,pre,o,2.064658799994504,None,,,,,,,,00017,001,2025-11-20_17h14.07.925,MST_test,2024.2.0,59.941473146566125,2025-11-20 17h14.16.768055 +0530,
87,0,88,n,5.410199599980842,None,88,0,87,583.3155210000114,,,,,,,,,,,,,,,,,,,,,,,,,,,,,,,,,,,,,,,,,,,,,,,,,,583.3002801999974,583.3155210000114,583.8178727999912,583.7999108000076,583.8151347000094,583.8178727999912,583.8178727999912,583.8178727999912,589.2347050000099,Foils\scenes19.jpg,none,n,5.410199599980842,None,,,,,,,,00017,001,2025-11-20_17h14.07.925,MST_test,2024.2.0,59.941473146566125,2025-11-20 17h14.16.768055 +0530,
88,0,89,o,1.177309899998363,None,89,0,88,589.2489809000108,,,,,,,,,,,,,,,,,,,,,,,,,,,,,,,,,,,,,,,,,,,,,,,,,,589.2351488999848,589.2489809000108,589.753961200011,589.7330485999992,589.7512755999924,589.753961200011,589.753961200011,589.753961200011,590.934768999985,Objects\090b.jpg,pre,o,1.177309899998363,None,,,,,,,,00017,001,2025-11-20_17h14.07.925,MST_test,2024.2.0,59.941473146566125,2025-11-20 17h14.16.768055 +0530,
89,0,90,o,1.6093932000221685,None,90,0,89,590.9489322000009,,,,,,,,,,,,,,,,,,,,,,,,,,,,,,,,,,,,,,,,,,,,,,,,,,590.9351602999959,590.9489322000009,591.4502244000032,591.4334416000056,591.447694100003,591.4502244000032,591.4502244000032,591.4502244000032,593.0678734999965,Objects\116a.jpg,post,o,1.6093932000221685,None,,,,,,,,00017,001,2025-11-20_17h14.07.925,MST_test,2024.2.0,59.941473146566125,2025-11-20 17h14.16.768055 +0530,
90,0,91,n,1.7197202000243124,None,91,0,90,593.0823078000103,,,,,,,,,,,,,,,,,,,,,,,,,,,,,,,,,,,,,,,,,,,,,,,,,,593.0682794000022,593.0823078000103,593.5873171999992,593.5664074000088,593.5843924999936,593.5873171999992,593.5873171999992,593.5873171999992,595.3177708000003,Scenes\049a.jpg,post,n,1.7197202000243124,None,,,,,,,,00017,001,2025-11-20_17h14.07.925,MST_test,2024.2.0,59.941473146566125,2025-11-20 17h14.16.768055 +0530,
91,0,92,n,1.0566453999781515,None,92,0,91,595.3322620000108,,,,,,,,,,,,,,,,,,,,,,,,,,,,,,,,,,,,,,,,,,,,,,,,,,595.3181504000095,595.3322620000108,595.8424606999906,595.8167675999866,595.8394465000019,595.8424606999906,595.8424606999906,595.8424606999906,596.9011147000128,Scenes\161a.jpg,pre,n,1.0566453999781515,None,,,,,,,,00017,001,2025-11-20_17h14.07.925,MST_test,2024.2.0,59.941473146566125,2025-11-20 17h14.16.768055 +0530,
92,0,93,o,1.1511257000092883,None,93,0,92,596.9155332999944,,,,,,,,,,,,,,,,,,,,,,,,,,,,,,,,,,,,,,,,,,,,,,,,,,596.9014711999916,596.9155332999944,597.4215572999965,597.4001251999871,597.4185438000131,597.4215572999965,597.4215572999965,597.4215572999965,598.5849242999975,Objects\054b.jpg,post,o,1.1511257000092883,None,,,,,,,,00017,001,2025-11-20_17h14.07.925,MST_test,2024.2.0,59.941473146566125,2025-11-20 17h14.16.768055 +0530,
93,0,94,o,1.4242534000077285,None,94,0,93,598.5989906000032,,,,,,,,,,,,,,,,,,,,,,,,,,,,,,,,,,,,,,,,,,,,,,,,,,598.5853110000025,598.5989906000032,599.0996319999977,599.0832149999915,599.0973617999989,599.0996319999977,599.0996319999977,599.0996319999977,600.5346349999891,Objects\076a.jpg,pre,o,1.4242534000077285,None,,,,,,,,00017,001,2025-11-20_17h14.07.925,MST_test,2024.2.0,59.941473146566125,2025-11-20 17h14.16.768055 +0530,
94,0,95,n,2.839791900012642,None,95,0,94,600.5488088999991,,,,,,,,,,,,,,,,,,,,,,,,,,,,,,,,,,,,,,,,,,,,,,,,,,600.535054100008,600.5488088999991,601.0512831000087,601.0333031000046,601.0489384999964,601.0512831000087,601.0512831000087,601.0512831000087,603.9011718000111,Foils\093b.jpg,none,n,2.839791900012642,None,,,,,,,,00017,001,2025-11-20_17h14.07.925,MST_test,2024.2.0,59.941473146566125,2025-11-20 17h14.16.768055 +0530,
95,0,96,o,1.1021915999881458,None,96,0,95,603.9155152000021,,,,,,,,,,,,,,,,,,,,,,,,,,,,,,,,,,,,,,,,,,,,,,,,,,603.9015177999972,603.9155152000021,604.4216888000083,604.40010910001,604.4189125999983,604.4216888000083,604.4216888000083,604.4216888000083,605.5348767999967,Scenes\027a.jpg,mid,o,1.1021915999881458,None,,,,,,,,00017,001,2025-11-20_17h14.07.925,MST_test,2024.2.0,59.941473146566125,2025-11-20 17h14.16.768055 +0530,
96,0,97,o,1.1616478999785613,None,97,0,96,605.5488508999988,,,,,,,,,,,,,,,,,,,,,,,,,,,,,,,,,,,,,,,,,,,,,,,,,,605.5352225000097,605.5488508999988,606.0494510999997,606.032981700002,606.0460582000087,606.0494510999997,606.0494510999997,606.0494510999997,607.2181618000031,Objects\029a.jpg,mid,o,1.1616478999785613,None,,,,,,,,00017,001,2025-11-20_17h14.07.925,MST_test,2024.2.0,59.941473146566125,2025-11-20 17h14.16.768055 +0530,
97,0,98,o,0.8843708999920636,None,98,0,97,607.2322144999926,,,,,,,,,,,,,,,,,,,,,,,,,,,,,,,,,,,,,,,,,,,,,,,,,,607.218524099997,607.2322144999926,607.7346311000001,607.7162652999978,607.7323524999956,607.7346311000001,607.7346311000001,607.7346311000001,608.6345337000093,Objects\050b.jpg,pre,o,0.8843708999920636,None,,,,,,,,00017,001,2025-11-20_17h14.07.925,MST_test,2024.2.0,59.941473146566125,2025-11-20 17h14.16.768055 +0530,
98,0,99,o,1.6592602000164334,None,99,0,98,608.6487886999967,,,,,,,,,,,,,,,,,,,,,,,,,,,,,,,,,,,,,,,,,,,,,,,,,,608.6348467000062,608.6487886999967,609.1520481999905,609.1334922999959,609.1497757000034,609.1520481999905,609.1520481999905,609.1520481999905,610.8179031999898,Objects\191b.jpg,mid,o,1.6592602000164334,None,,,,,,,,00017,001,2025-11-20_17h14.07.925,MST_test,2024.2.0,59.941473146566125,2025-11-20 17h14.16.768055 +0530,
99,0,100,n,1.6155362999998033,None,100,0,99,610.832175699994,,,,,,,,,,,,,,,,,,,,,,,,,,,,,,,,,,,,,,,,,,,,,,,,,,610.8182603000023,610.832175699994,611.3398889999953,611.3167214000132,611.3368663000001,611.3398889999953,611.3398889999953,611.3398889999953,612.9682247999881,Scenes\144b.jpg,post,n,1.6155362999998033,None,,,,,,,,00017,001,2025-11-20_17h14.07.925,MST_test,2024.2.0,59.941473146566125,2025-11-20 17h14.16.768055 +0530,
100,0,101,n,1.5169060000043828,None,101,0,100,612.9823707999894,,,,,,,,,,,,,,,,,,,,,,,,,,,,,,,,,,,,,,,,,,,,,,,,,,612.9686048000003,612.9823707999894,613.5185239999846,613.4667679000122,613.5145376999862,613.5185239999846,613.5185239999846,613.5185239999846,615.0512645000126,Foils\scenes15.jpg,none,n,1.5169060000043828,None,,,,,,,,00017,001,2025-11-20_17h14.07.925,MST_test,2024.2.0,59.941473146566125,2025-11-20 17h14.16.768055 +0530,
101,0,102,o,1.4215293999877758,None,102,0,101,615.0654466999986,,,,,,,,,,,,,,,,,,,,,,,,,,,,,,,,,,,,,,,,,,,,,,,,,,615.051627000008,615.0654466999986,615.5737488000013,615.5503041000047,615.5689376000082,615.5737488000013,615.5737488000013,615.5737488000013,617.0010426999943,Scenes\024a.jpg,mid,o,1.4215293999877758,None,,,,,,,,00017,001,2025-11-20_17h14.07.925,MST_test,2024.2.0,59.941473146566125,2025-11-20 17h14.16.768055 +0530,
102,0,103,o,0.9183437999745365,None,103,0,102,617.01543639999,,,,,,,,,,,,,,,,,,,,,,,,,,,,,,,,,,,,,,,,,,,,,,,,,,617.001406299998,617.01543639999,617.5252051999851,617.500253700011,617.5221927000093,617.5252051999851,617.5252051999851,617.5252051999851,618.4512367999996,Scenes\084a.jpg,post,o,0.9183437999745365,None,,,,,,,,00017,001,2025-11-20_17h14.07.925,MST_test,2024.2.0,59.941473146566125,2025-11-20 17h14.16.768055 +0530,
103,0,104,o,1.4034308999835048,None,104,0,103,618.4653819999949,,,,,,,,,,,,,,,,,,,,,,,,,,,,,,,,,,,,,,,,,,,,,,,,,,618.451591399993,618.4653819999949,618.9766205000051,618.950153999991,618.9735322000051,618.9766205000051,618.9766205000051,618.9766205000051,620.3847950999916,Scenes\125b.jpg,post,o,1.4034308999835048,None,,,,,,,,00017,001,2025-11-20_17h14.07.925,MST_test,2024.2.0,59.941473146566125,2025-11-20 17h14.16.768055 +0530,
104,0,105,o,1.2421637999941595,None,105,0,104,620.398918699997,,,,,,,,,,,,,,,,,,,,,,,,,,,,,,,,,,,,,,,,,,,,,,,,,,620.3851977000013,620.398918699997,620.9050935000123,620.8836873999971,620.9020010000095,620.9050935000123,620.9050935000123,620.9050935000123,622.1516773999901,Scenes\178a.jpg,mid,o,1.2421637999941595,None,,,,,,,,00017,001,2025-11-20_17h14.07.925,MST_test,2024.2.0,59.941473146566125,2025-11-20 17h14.16.768055 +0530,
105,0,106,n,2.1679947999946307,None,106,0,105,622.165511500003,,,,,,,,,,,,,,,,,,,,,,,,,,,,,,,,,,,,,,,,,,,,,,,,,,622.1520439999877,622.165511500003,622.6669785999984,622.6502321999869,622.6640794000123,622.6669785999984,622.6669785999984,622.6669785999984,624.8510403000109,Objects\148a.jpg,post,n,2.1679947999946307,None,,,,,,,,00017,001,2025-11-20_17h14.07.925,MST_test,2024.2.0,59.941473146566125,2025-11-20 17h14.16.768055 +0530,
106,0,107,n,2.188812499982305,None,107,0,106,624.865479,,,,,,,,,,,,,,,,,,,,,,,,,,,,,,,,,,,,,,,,,,,,,,,,,,624.8513863999979,624.865479,625.3674700999982,625.3502140000055,625.3651141999871,625.3674700999982,625.3674700999982,625.3674700999982,627.5673641999892,Objects\154a.jpg,pre,n,2.188812499982305,None,,,,,,,,00017,001,2025-11-20_17h14.07.925,MST_test,2024.2.0,59.941473146566125,2025-11-20 17h14.16.768055 +0530,
107,0,108,n,1.2144554000115022,None,108,0,107,627.5822148000007,,,,,,,,,,,,,,,,,,,,,,,,,,,,,,,,,,,,,,,,,,,,,,,,,,627.5676945000014,627.5822148000007,628.0925053000101,628.0663394999865,628.0896658000129,628.0925053000101,628.0925053000101,628.0925053000101,629.3175114000042,Scenes\098b.jpg,mid,n,1.2144554000115022,None,,,,,,,,00017,001,2025-11-20_17h14.07.925,MST_test,2024.2.0,59.941473146566125,2025-11-20 17h14.16.768055 +0530,
108,0,109,n,0.8790801000141073,None,109,0,108,629.3321950999962,,,,,,,,,,,,,,,,,,,,,,,,,,,,,,,,,,,,,,,,,,,,,,,,,,629.317865399993,629.3321950999962,629.8361161999928,629.816381200013,629.8331871000119,629.8361161999928,629.8361161999928,629.8361161999928,630.7170744999894,Foils\009a.jpg,none,n,0.8790801000141073,None,,,,,,,,00017,001,2025-11-20_17h14.07.925,MST_test,2024.2.0,59.941473146566125,2025-11-20 17h14.16.768055 +0530,
109,0,110,n,0.958728900004644,None,110,0,109,630.7322300999949,,,,,,,,,,,,,,,,,,,,,,,,,,,,,,,,,,,,,,,,,,,,,,,,,,630.7173817000003,630.7322300999949,631.2365331999899,631.2165425999847,631.2341286999872,631.2365331999899,631.2365331999899,631.2365331999899,632.2008589000034,Objects\126b.jpg,mid,n,0.958728900004644,None,,,,,,,,00017,001,2025-11-20_17h14.07.925,MST_test,2024.2.0,59.941473146566125,2025-11-20 17h14.16.768055 +0530,
110,0,111,n,6.79720780000207,None,111,0,110,632.2153679000039,,,,,,,,,,,,,,,,,,,,,,,,,,,,,,,,,,,,,,,,,,,,,,,,,,632.2012086999894,632.2153679000039,632.726073400001,632.700101399998,632.7231732000073,632.726073400001,632.726073400001,632.726073400001,639.5343670999864,Scenes\172b.jpg,post,n,6.79720780000207,None,,,,,,,,00017,001,2025-11-20_17h14.07.925,MST_test,2024.2.0,59.941473146566125,2025-11-20 17h14.16.768055 +0530,
111,0,112,o,0.9673150000162423,None,112,0,111,639.5488725999894,,,,,,,,,,,,,,,,,,,,,,,,,,,,,,,,,,,,,,,,,,,,,,,,,,639.5346500999876,639.5488725999894,640.0522534000047,640.0336703000066,640.0492953000066,640.0522534000047,640.0522534000047,640.0522534000047,641.0346572000126,Objects\082a.jpg,mid,o,0.9673150000162423,None,,,,,,,,00017,001,2025-11-20_17h14.07.925,MST_test,2024.2.0,59.941473146566125,2025-11-20 17h14.16.768055 +0530,
112,0,113,s,6.64166260001366,None,113,0,112,641.0489491999906,,,,,,,,,,,,,,,,,,,,,,,,,,,,,,,,,,,,,,,,,,,,,,,,,,641.035008100007,641.0489491999906,641.5538860000088,641.5336438000086,641.551512200007,641.5538860000088,641.5538860000088,641.5538860000088,648.2010392000084,Objects\176b.jpg,mid,s,6.64166260001366,None,,,,,,,,00017,001,2025-11-20_17h14.07.925,MST_test,2024.2.0,59.941473146566125,2025-11-20 17h14.16.768055 +0530,
113,0,114,n,1.7838822999910917,None,114,0,113,648.2154363000009,,,,,,,,,,,,,,,,,,,,,,,,,,,,,,,,,,,,,,,,,,,,,,,,,,648.2013767999888,648.2154363000009,648.7231769000064,648.6997972000099,648.7208884999854,648.7231769000064,648.7231769000064,648.7231769000064,650.517445400008,Objects\165b.jpg,post,n,1.7838822999910917,None,,,,,,,,00017,001,2025-11-20_17h14.07.925,MST_test,2024.2.0,59.941473146566125,2025-11-20 17h14.16.768055 +0530,
114,0,115,o,1.2666058000177145,None,115,0,114,650.5322125999955,,,,,,,,,,,,,,,,,,,,,,,,,,,,,,,,,,,,,,,,,,,,,,,,,,650.5177191999974,650.5322125999955,651.0413279999921,651.0160077000037,651.0384339999873,651.0413279999921,651.0413279999921,651.0413279999921,652.3182819999929,Scenes\009b.jpg,mid,o,1.2666058000177145,None,,,,,,,,00017,001,2025-11-20_17h14.07.925,MST_test,2024.2.0,59.941473146566125,2025-11-20 17h14.16.768055 +0530,
115,0,116,n,1.3701027999923099,None,116,0,115,652.3324618999904,,,,,,,,,,,,,,,,,,,,,,,,,,,,,,,,,,,,,,,,,,,,,,,,,,652.3186966000067,652.3324618999904,652.8418139999849,652.8169065999973,652.8385264000099,652.8418139999849,652.8418139999849,652.8418139999849,654.217613899993,Scenes\180a.jpg,post,n,1.3701027999923099,None,,,,,,,,00017,001,2025-11-20_17h14.07.925,MST_test,2024.2.0,59.941473146566125,2025-11-20 17h14.16.768055 +0530,
116,0,117,n,1.5813648000184912,None,117,0,116,654.2322562999907,,,,,,,,,,,,,,,,,,,,,,,,,,,,,,,,,,,,,,,,,,,,,,,,,,654.2179321000003,654.2322562999907,654.7339994999929,654.7165918000101,654.7310308000015,654.7339994999929,654.7339994999929,654.7339994999929,656.3181322999881,Objects\119b.jpg,post,n,1.5813648000184912,None,,,,,,,,00017,001,2025-11-20_17h14.07.925,MST_test,2024.2.0,59.941473146566125,2025-11-20 17h14.16.768055 +0530,
117,0,118,o,1.3178198999958113,None,118,0,117,656.3322173999914,,,,,,,,,,,,,,,,,,,,,,,,,,,,,,,,,,,,,,,,,,,,,,,,,,656.3185658000002,656.3322173999914,656.8371813000122,656.8166108999867,656.834363300004,656.8371813000122,656.8371813000122,656.8371813000122,658.1674672999943,Scenes\091a.jpg,mid,o,1.3178198999958113,None,,,,,,,,00017,001,2025-11-20_17h14.07.925,MST_test,2024.2.0,59.941473146566125,2025-11-20 17h14.16.768055 +0530,
118,0,119,o,1.0241083999862894,None,119,0,118,658.1822709999979,,,,,,,,,,,,,,,,,,,,,,,,,,,,,,,,,,,,,,,,,,,,,,,,,,658.1679352000065,658.1822709999979,658.6838614000008,658.6665592000063,658.6809527000005,658.6838614000008,658.6838614000008,658.6838614000008,659.7175925000047,Objects\087a.jpg,mid,o,1.0241083999862894,None,,,,,,,,00017,001,2025-11-20_17h14.07.925,MST_test,2024.2.0,59.941473146566125,2025-11-20 17h14.16.768055 +0530,
119,0,120,s,2.5218678999808617,None,120,0,119,659.7322346000001,,,,,,,,,,,,,,,,,,,,,,,,,,,,,,,,,,,,,,,,,,,,,,,,,,659.7180186999904,659.7322346000001,660.2334383999987,660.216620399995,660.2310378999973,660.2334383999987,660.2334383999987,660.2334383999987,662.7675683000125,Objects\141a.jpg,post,s,2.5218678999808617,None,,,,,,,,00017,001,2025-11-20_17h14.07.925,MST_test,2024.2.0,59.941473146566125,2025-11-20 17h14.16.768055 +0530,
120,0,121,o,2.009161599999061,None,121,0,120,662.7822429999942,,,,,,,,,,,,,,,,,,,,,,,,,,,,,,,,,,,,,,,,,,,,,,,,,,662.7679331999971,662.7822429999942,663.2827139000001,663.2660994000034,663.2796603000024,663.2827139000001,663.2827139000001,663.2827139000001,665.3011988000071,Foils\scenes1.jpg,none,o,2.009161599999061,None,,,,,,,,00017,001,2025-11-20_17h14.07.925,MST_test,2024.2.0,59.941473146566125,2025-11-20 17h14.16.768055 +0530,
121,0,122,n,1.423556900001131,None,122,0,121,665.3154418999911,,,,,,,,,,,,,,,,,,,,,,,,,,,,,,,,,,,,,,,,,,,,,,,,,,665.301524599985,665.3154418999911,665.8360798000067,665.7999740999949,665.8336547999934,665.8360798000067,665.8360798000067,665.8360798000067,667.2680311999866,Foils\scenes4.jpg,none,n,1.423556900001131,None,,,,,,,,00017,001,2025-11-20_17h14.07.925,MST_test,2024.2.0,59.941473146566125,2025-11-20 17h14.16.768055 +0530,
122,0,123,n,2.6423256999987643,None,123,0,122,667.2822006999922,,,,,,,,,,,,,,,,,,,,,,,,,,,,,,,,,,,,,,,,,,,,,,,,,,667.2684182999947,667.2822006999922,667.7848236999998,667.7668146000069,667.7822530000121,667.7848236999998,667.7848236999998,667.7848236999998,670.434987399989,Objects\079b.jpg,mid,n,2.6423256999987643,None,,,,,,,,00017,001,2025-11-20_17h14.07.925,MST_test,2024.2.0,59.941473146566125,2025-11-20 17h14.16.768055 +0530,
123,0,124,n,4.615434799983632,None,124,0,123,670.448841800011,,,,,,,,,,,,,,,,,,,,,,,,,,,,,,,,,,,,,,,,,,,,,,,,,,670.4354166999983,670.448841800011,670.9559013000107,670.9334925999865,670.9531375000079,670.9559013000107,670.9559013000107,670.9559013000107,675.5845556999848,Scenes\138b.jpg,pre,n,4.615434799983632,None,,,,,,,,00017,001,2025-11-20_17h14.07.925,MST_test,2024.2.0,59.941473146566125,2025-11-20 17h14.16.768055 +0530,
124,0,125,n,0.9798433999822009,None,125,0,124,675.5990967999969,,,,,,,,,,,,,,,,,,,,,,,,,,,,,,,,,,,,,,,,,,,,,,,,,,675.584892599989,675.5990967999969,676.1033297000104,676.0835044000123,676.1008896999992,676.1033297000104,676.1033297000104,676.1033297000104,677.0850018000056,Scenes\069a.jpg,mid,n,0.9798433999822009,None,,,,,,,,00017,001,2025-11-20_17h14.07.925,MST_test,2024.2.0,59.941473146566125,2025-11-20 17h14.16.768055 +0530,
125,0,126,n,0.9426773999875877,None,126,0,125,677.0989864000003,,,,,,,,,,,,,,,,,,,,,,,,,,,,,,,,,,,,,,,,,,,,,,,,,,677.0853923000104,677.0989864000003,677.6285788000096,677.58285050001,677.6251507000125,677.6285788000096,677.6285788000096,677.6285788000096,678.584777000011,Foils\scenes28.jpg,none,n,0.9426773999875877,None,,,,,,,,00017,001,2025-11-20_17h14.07.925,MST_test,2024.2.0,59.941473146566125,2025-11-20 17h14.16.768055 +0530,
126,0,127,n,0.9964624999847729,None,127,0,126,678.5989116999845,,,,,,,,,,,,,,,,,,,,,,,,,,,,,,,,,,,,,,,,,,,,,,,,,,678.5851551000087,678.5989116999845,679.1029045000032,679.0834806000057,679.1005958000023,679.1029045000032,679.1029045000032,679.1029045000032,680.1020127999946,Foils\scenes17.jpg,none,n,0.9964624999847729,None,,,,,,,,00017,001,2025-11-20_17h14.07.925,MST_test,2024.2.0,59.941473146566125,2025-11-20 17h14.16.768055 +0530,
127,0,128,o,1.359788000001572,None,128,0,127,680.1156115999911,,,,,,,,,,,,,,,,,,,,,,,,,,,,,,,,,,,,,,,,,,,,,,,,,,680.1023432000075,680.1156115999911,680.6272640000097,680.6000423000078,680.6245427000104,680.6272640000097,680.6272640000097,680.6272640000097,682.0011853000033,Scenes\026a.jpg,mid,o,1.359788000001572,None,,,,,,,,00017,001,2025-11-20_17h14.07.925,MST_test,2024.2.0,59.941473146566125,2025-11-20 17h14.16.768055 +0530,
128,0,129,n,1.3572603999928106,None,129,0,128,682.0154117000056,,,,,,,,,,,,,,,,,,,,,,,,,,,,,,,,,,,,,,,,,,,,,,,,,,682.0015046999906,682.0154117000056,682.5264108999982,682.5002767000115,682.523236500012,682.5264108999982,682.5264108999982,682.5264108999982,683.9012430000002,Scenes\171b.jpg,mid,n,1.3572603999928106,None,,,,,,,,00017,001,2025-11-20_17h14.07.925,MST_test,2024.2.0,59.941473146566125,2025-11-20 17h14.16.768055 +0530,
129,0,130,o,1.1120795000169892,None,130,0,129,683.9154023999872,,,,,,,,,,,,,,,,,,,,,,,,,,,,,,,,,,,,,,,,,,,,,,,,,,683.9015736999863,683.9154023999872,684.4192219999968,684.4001200000057,684.4162726000068,684.4192219999968,684.4192219999968,684.4192219999968,685.5347711000068,Objects\101b.jpg,pre,o,1.1120795000169892,None,,,,,,,,00017,001,2025-11-20_17h14.07.925,MST_test,2024.2.0,59.941473146566125,2025-11-20 17h14.16.768055 +0530,
130,0,131,o,2.509574600000633,None,131,0,130,685.5489143999876,,,,,,,,,,,,,,,,,,,,,,,,,,,,,,,,,,,,,,,,,,,,,,,,,,685.5351014999906,685.5489143999876,686.0535093999933,686.03359430001,686.0506634000049,686.0535093999933,686.0535093999933,686.0535093999933,688.5679403000104,Scenes\113a.jpg,post,o,2.509574600000633,None,,,,,,,,00017,001,2025-11-20_17h14.07.925,MST_test,2024.2.0,59.941473146566125,2025-11-20 17h14.16.768055 +0530,
131,0,132,n,1.786755200009793,None,132,0,131,688.5822447999963,,,,,,,,,,,,,,,,,,,,,,,,,,,,,,,,,,,,,,,,,,,,,,,,,,688.5683643000084,688.5822447999963,689.0886152999883,689.0668155000021,689.0858616000041,689.0886152999883,689.0886152999883,689.0886152999883,690.8846918999916,Scenes\163b.jpg,post,n,1.786755200009793,None,,,,,,,,00017,001,2025-11-20_17h14.07.925,MST_test,2024.2.0,59.941473146566125,2025-11-20 17h14.16.768055 +0530,
132,0,133,o,1.2582997999852523,None,133,0,132,690.8988850000023,,,,,,,,,,,,,,,,,,,,,,,,,,,,,,,,,,,,,,,,,,,,,,,,,,690.8850456000073,690.8988850000023,691.4012442000094,691.3833041999897,691.3983933999843,691.4012442000094,691.4012442000094,691.4012442000094,692.668211399985,Objects\160a.jpg,mid,o,1.2582997999852523,None,,,,,,,,00017,001,2025-11-20_17h14.07.925,MST_test,2024.2.0,59.941473146566125,2025-11-20 17h14.16.768055 +0530,
133,0,134,o,4.855074599996442,None,134,0,133,692.6822160999873,,,,,,,,,,,,,,,,,,,,,,,,,,,,,,,,,,,,,,,,,,,,,,,,,,692.66871920001,692.6822160999873,693.1885669000039,693.1668299000012,693.1857575000031,693.1885669000039,693.1885669000039,693.1885669000039,698.0514797999931,Scenes\192a.jpg,post,o,4.855074599996442,None,,,,,,,,00017,001,2025-11-20_17h14.07.925,MST_test,2024.2.0,59.941473146566125,2025-11-20 17h14.16.768055 +0530,
134,0,135,n,3.7236632999847643,None,135,0,134,698.0657408999978,,,,,,,,,,,,,,,,,,,,,,,,,,,,,,,,,,,,,,,,,,,,,,,,,,698.0519159999967,698.0657408999978,698.5755293999973,698.5503780999861,698.5722652999975,698.5755293999973,698.5755293999973,698.5755293999973,702.3021321000124,Scenes\131b.jpg,pre,n,3.7236632999847643,None,,,,,,,,00017,001,2025-11-20_17h14.07.925,MST_test,2024.2.0,59.941473146566125,2025-11-20 17h14.16.768055 +0530,
135,0,136,n,1.7975867000059225,None,136,0,135,702.3156072999991,,,,,,,,,,,,,,,,,,,,,,,,,,,,,,,,,,,,,,,,,,,,,,,,,,702.3024930999964,702.3156072999991,703.046091199998,702.80032509999,703.0396399000019,703.046091199998,703.046091199998,703.046091199998,704.8516750000126,Foils\scenes26.jpg,none,n,1.7975867000059225,None,,,,,,,,00017,001,2025-11-20_17h14.07.925,MST_test,2024.2.0,59.941473146566125,2025-11-20 17h14.16.768055 +0530,
136,0,137,o,0.9212309999857098,None,137,0,136,704.8656086999981,,,,,,,,,,,,,,,,,,,,,,,,,,,,,,,,,,,,,,,,,,,,,,,,,,704.8520568000094,704.8656086999981,705.3940102999914,705.3502501999901,705.3912095999985,705.3940102999914,705.3940102999914,705.3940102999914,706.3184155999916,Objects\149b.jpg,pre,o,0.9212309999857098,None,,,,,,,,00017,001,2025-11-20_17h14.07.925,MST_test,2024.2.0,59.941473146566125,2025-11-20 17h14.16.768055 +0530,
137,0,138,o,1.8858506999968085,None,138,0,137,706.3323803000094,,,,,,,,,,,,,,,,,,,,,,,,,,,,,,,,,,,,,,,,,,,,,,,,,,706.3188264000055,706.3323803000094,706.8372922999843,706.8172505999974,706.8347977999947,706.8372922999843,706.8372922999843,706.8372922999843,708.7348746999924,Objects\144b.jpg,post,o,1.8858506999968085,None,,,,,,,,00017,001,2025-11-20_17h14.07.925,MST_test,2024.2.0,59.941473146566125,2025-11-20 17h14.16.768055 +0530,
138,0,139,n,1.166962199989939,None,139,0,138,708.7491443000035,,,,,,,,,,,,,,,,,,,,,,,,,,,,,,,,,,,,,,,,,,,,,,,,,,708.7353074999992,708.7491443000035,709.2521631999989,709.2335893000127,709.2494315000076,709.2521631999989,709.2521631999989,709.2521631999989,710.4350540000014,Foils\scenes13.jpg,none,n,1.166962199989939,None,,,,,,,,00017,001,2025-11-20_17h14.07.925,MST_test,2024.2.0,59.941473146566125,2025-11-20 17h14.16.768055 +0530,
139,0,140,o,1.3648417000076734,None,140,0,139,710.4490300999896,,,,,,,,,,,,,,,,,,,,,,,,,,,,,,,,,,,,,,,,,,,,,,,,,,710.435439199995,710.4490300999896,710.958198999986,710.9336964999966,710.9554011999862,710.958198999986,710.958198999986,710.958198999986,712.3344626000035,Scenes\074a.jpg,mid,o,1.3648417000076734,None,,,,,,,,00017,001,2025-11-20_17h14.07.925,MST_test,2024.2.0,59.941473146566125,2025-11-20 17h14.16.768055 +0530,
140,0,141,o,0.9279717000026722,None,141,0,140,712.3491300999885,,,,,,,,,,,,,,,,,,,,,,,,,,,,,,,,,,,,,,,,,,,,,,,,,,712.3347774999856,712.3491300999885,712.8513535000093,712.8334401999891,712.8483484000026,712.8513535000093,712.8513535000093,712.8513535000093,713.7852330000023,Objects\115a.jpg,pre,o,0.9279717000026722,None,,,,,,,,00017,001,2025-11-20_17h14.07.925,MST_test,2024.2.0,59.941473146566125,2025-11-20 17h14.16.768055 +0530,
141,0,142,s,2.6059970000060275,None,142,0,141,713.7990578000026,,,,,,,,,,,,,,,,,,,,,,,,,,,,,,,,,,,,,,,,,,,,,,,,,,713.785624799988,713.7990578000026,714.3011493000085,714.2835817000014,714.2987987000088,714.3011493000085,714.3011493000085,714.3011493000085,716.9179219999933,Objects\135b.jpg,post,s,2.6059970000060275,None,,,,,,,,00017,001,2025-11-20_17h14.07.925,MST_test,2024.2.0,59.941473146566125,2025-11-20 17h14.16.768055 +0530,
142,0,143,s,1.7928486999880988,None,143,0,142,716.9324204000004,,,,,,,,,,,,,,,,,,,,,,,,,,,,,,,,,,,,,,,,,,,,,,,,,,716.918348999985,716.9324204000004,717.4424256999919,717.4168662999873,717.4395024999976,717.4424256999919,717.4424256999919,717.4424256999919,719.2509842999862,Scenes\005b.jpg,mid,s,1.7928486999880988,None,,,,,,,,00017,001,2025-11-20_17h14.07.925,MST_test,2024.2.0,59.941473146566125,2025-11-20 17h14.16.768055 +0530,
143,0,144,n,1.6728040000016335,None,144,0,143,719.265664400009,,,,,,,,,,,,,,,,,,,,,,,,,,,,,,,,,,,,,,,,,,,,,,,,,,719.2513601999963,719.265664400009,719.7707613999955,719.750260700006,719.7678004000045,719.7707613999955,719.7707613999955,719.7707613999955,721.4513201999944,Foils\097a.jpg,none,n,1.6728040000016335,None,,,,,,,,00017,001,2025-11-20_17h14.07.925,MST_test,2024.2.0,59.941473146566125,2025-11-20 17h14.16.768055 +0530,
144,0,145,o,3.131996200012509,None,145,0,144,721.4656556000118,,,,,,,,,,,,,,,,,,,,,,,,,,,,,,,,,,,,,,,,,,,,,,,,,,721.4517054999887,721.4656556000118,721.9671545999881,721.9502192999935,721.9646122000122,721.9671545999881,721.9671545999881,721.9671545999881,725.1019734999863,Objects\071a.jpg,post,o,3.131996200012509,None,,,,,,,,00017,001,2025-11-20_17h14.07.925,MST_test,2024.2.0,59.941473146566125,2025-11-20 17h14.16.768055 +0530,
145,0,146,o,5.51017380002304,None,146,0,145,725.1156197999953,,,,,,,,,,,,,,,,,,,,,,,,,,,,,,,,,,,,,,,,,,,,,,,,,,725.1024283999868,725.1156197999953,725.621035499993,725.600370900007,725.6180715000082,725.621035499993,725.621035499993,725.621035499993,731.1349208999891,Scenes\117a.jpg,post,o,5.51017380002304,None,,,,,,,,00017,001,2025-11-20_17h14.07.925,MST_test,2024.2.0,59.941473146566125,2025-11-20 17h14.16.768055 +0530,
146,0,147,s,2.0661464000004344,None,147,0,146,731.1489695000055,,,,,,,,,,,,,,,,,,,,,,,,,,,,,,,,,,,,,,,,,,,,,,,,,,731.1353313,731.1489695000055,731.6496226000017,731.6328258999856,731.646548699995,731.6496226000017,731.6496226000017,731.6496226000017,733.7180695999996,Objects\143b.jpg,pre,s,2.0661464000004344,None,,,,,,,,00017,001,2025-11-20_17h14.07.925,MST_test,2024.2.0,59.941473146566125,2025-11-20 17h14.16.768055 +0530,
147,0,148,s,4.182939699996496,None,148,0,147,733.7323092999868,,,,,,,,,,,,,,,,,,,,,,,,,,,,,,,,,,,,,,,,,,,,,,,,,,733.7183552999923,733.7323092999868,734.2364000999951,734.2167179000098,734.234122599999,734.2364000999951,734.2364000999951,734.2364000999951,738.4345640999964,Objects\112b.jpg,mid,s,4.182939699996496,None,,,,,,,,00017,001,2025-11-20_17h14.07.925,MST_test,2024.2.0,59.941473146566125,2025-11-20 17h14.16.768055 +0530,
148,0,149,o,0.9944611999962945,None,149,0,148,738.4489062000066,,,,,,,,,,,,,,,,,,,,,,,,,,,,,,,,,,,,,,,,,,,,,,,,,,738.4349662000022,738.4489062000066,738.9613957999973,738.933334100002,738.9584133999888,738.9613957999973,738.9613957999973,738.9613957999973,739.9675201000064,Scenes\020b.jpg,post,o,0.9944611999962945,None,,,,,,,,00017,001,2025-11-20_17h14.07.925,MST_test,2024.2.0,59.941473146566125,2025-11-20 17h14.16.768055 +0530,
149,0,150,o,0.7167588000011165,None,150,0,149,739.9822879999992,,,,,,,,,,,,,,,,,,,,,,,,,,,,,,,,,,,,,,,,,,,,,,,,,,739.9678605000081,739.9822879999992,740.4865093000117,740.466725300008,740.4833493999904,740.4865093000117,740.4865093000117,740.4865093000117,741.2180554000079,Objects\113b.jpg,mid,o,0.7167588000011165,None,,,,,,,,00017,001,2025-11-20_17h14.07.925,MST_test,2024.2.0,59.941473146566125,2025-11-20 17h14.16.768055 +0530,
,,,,,,,,,,,,,,,,,,,,,,,,,,,,,,,,,,,,,,,,,,,,,,,,,,,,,,,,,,,,,,,,,,,,,,,,,741.2183159000124,741.2322030999931,741.2322030999931,743.151509599993,space,1.9069775000098161,None,00017,001,2025-11-20_17h14.07.925,MST_test,2024.2.0,59.941473146566125,2025-11-20 17h14.16.768055 +0530,
