thisN,thisTrialN,thisRepN,key_resp_3.keys,key_resp_3.rt,key_resp_3.duration,trials.thisRepN,trials.thisTrialN,trials.thisN,trials.thisIndex,thisRow.t,notes,intro_page.started,text.started,key_resp.started,intro_page.stopped,key_resp.keys,key_resp.rt,key_resp.duration,instructions.started,text_2.started,key_resp_2.started,instructions.stopped,key_resp_2.keys,key_resp_2.rt,key_resp_2.duration,demo1.started,image_1.started,image_2.started,text_7.started,key_resp_6.started,text_9.started,demo1.stopped,key_resp_6.keys,key_resp_6.rt,key_resp_6.duration,demo2.started,image_5.started,image_6.started,text_11.started,text_12.started,key_resp_8.started,demo2.stopped,key_resp_8.keys,key_resp_8.rt,key_resp_8.duration,demo_conclusion.started,text_13.started,key_resp_9.started,demo_conclusion.stopped,key_resp_9.keys,key_resp_9.rt,key_resp_9.duration,start_test.started,text_6.started,key_resp_5.started,start_test.stopped,key_resp_5.keys,key_resp_5.rt,key_resp_5.duration,ISI.started,text_4.started,text_4.stopped,ISI.stopped,routine_1.started,image.started,text_3.started,key_resp_3.started,routine_1.stopped,image_path,position_of_stimuli,trials.key_resp_3.keys,trials.key_resp_3.rt,trials.key_resp_3.duration,End_page.started,text_5.started,key_resp_4.started,End_page.stopped,key_resp_4.keys,key_resp_4.rt,key_resp_4.duration,participant,session,date,expName,psychopyVersion,frameRate,expStart,
,,,,,,,,,,,,0.009497700000792975,0.02577710000332445,0.02577710000332445,6.1606609000009485,space,6.129332500000601,None,,,,,,,,,,,,,,,,,,,,,,,,,,,,,,,,,,,,,,,,,,,,,,,,,,,,,,,,,,,,,,,00001,001,2025-11-08_17h07.29.968,MST_test,2024.2.2,60.01500375034023,2025-11-08 17h07.35.569524 +0530,
,,,,,,,,,,,,,,,,,,,6.160687900002813,6.175631800000701,6.175631800000701,15.392672500001936,space,9.213721899999655,None,,,,,,,,,,,,,,,,,,,,,,,,,,,,,,,,,,,,,,,,,,,,,,,,,,,,,,,,00001,001,2025-11-08_17h07.29.968,MST_test,2024.2.2,60.01500375034023,2025-11-08 17h07.35.569524 +0530,
,,,,,,,,,,,,,,,,,,,,,,,,,,15.392697600000247,15.40876500000013,15.40876500000013,15.40876500000013,15.40876500000013,15.40876500000013,20.15912870000102,space,4.746604899999511,None,,,,,,,,,,,,,,,,,,,,,,,,,,,,,,,,,,,,,,,,,,,,,,00001,001,2025-11-08_17h07.29.968,MST_test,2024.2.2,60.01500375034023,2025-11-08 17h07.35.569524 +0530,
,,,,,,,,,,,,,,,,,,,,,,,,,,,,,,,,,,,,20.1591522000017,20.175337600001512,20.175337600001512,20.175337600001512,20.175337600001512,20.175337600001512,23.092311000000336,space,2.9155716999994183,None,,,,,,,,,,,,,,,,,,,,,,,,,,,,,,,,,,,,00001,001,2025-11-08_17h07.29.968,MST_test,2024.2.2,60.01500375034023,2025-11-08 17h07.35.569524 +0530,
,,,,,,,,,,,,,,,,,,,,,,,,,,,,,,,,,,,,,,,,,,,,,,23.0923348000033,23.10860330000287,23.10860330000287,46.25857980000001,space,23.144274700000096,None,,,,,,,,,,,,,,,,,,,,,,,,,,,,,00001,001,2025-11-08_17h07.29.968,MST_test,2024.2.2,60.01500375034023,2025-11-08 17h07.35.569524 +0530,
,,,,,,,,,,,,,,,,,,,,,,,,,,,,,,,,,,,,,,,,,,,,,,,,,,,,,46.25860620000094,46.2747855000016,46.2747855000016,113.09031570000298,space,66.80814030000329,None,,,,,,,,,,,,,,,,,,,,,,00001,001,2025-11-08_17h07.29.968,MST_test,2024.2.2,60.01500375034023,2025-11-08 17h07.35.569524 +0530,
0,0,0,o,5.775329899999633,None,0,0,0,0,113.10665780000272,,,,,,,,,,,,,,,,,,,,,,,,,,,,,,,,,,,,,,,,,,,,,,,,,,113.09311380000145,113.10665780000272,113.62346420000176,113.59014700000262,113.60419260000344,113.62346420000176,113.62346420000176,113.62346420000176,119.40683880000142,Scenes\006a.jpg,mid,o,5.775329899999633,None,,,,,,,,00001,001,2025-11-08_17h07.29.968,MST_test,2024.2.2,60.01500375034023,2025-11-08 17h07.35.569524 +0530,
1,0,1,o,2.143779000001814,None,1,0,1,0,119.42317480000202,,,,,,,,,,,,,,,,,,,,,,,,,,,,,,,,,,,,,,,,,,,,,,,,,,119.40692340000169,119.42317480000202,119.92337250000128,119.90659650000089,119.91688750000321,119.92337250000128,119.92337250000128,119.92337250000128,122.07345900000291,Objects\061a.jpg,post,o,2.143779000001814,None,,,,,,,,00001,001,2025-11-08_17h07.29.968,MST_test,2024.2.2,60.01500375034023,2025-11-08 17h07.35.569524 +0530,
2,0,2,s,2.961037799999758,None,2,0,2,0,122.08978220000063,,,,,,,,,,,,,,,,,,,,,,,,,,,,,,,,,,,,,,,,,,,,,,,,,,122.07354260000284,122.08978220000063,122.60643000000346,122.57340450000265,122.59127780000199,122.60643000000346,122.60643000000346,122.60643000000346,125.57340320000003,Foils\081a.jpg,none,s,2.961037799999758,None,,,,,,,,00001,001,2025-11-08_17h07.29.968,MST_test,2024.2.2,60.01500375034023,2025-11-08 17h07.35.569524 +0530,
3,0,3,s,2.2126528000007966,None,3,0,3,0,125.58969910000087,,,,,,,,,,,,,,,,,,,,,,,,,,,,,,,,,,,,,,,,,,,,,,,,,,125.57348300000012,125.58969910000087,126.10635110000294,126.07320470000195,126.08918850000191,126.10635110000294,126.10635110000294,126.10635110000294,128.323366800003,Objects\039b.jpg,pre,s,2.2126528000007966,None,,,,,,,,00001,001,2025-11-08_17h07.29.968,MST_test,2024.2.2,60.01500375034023,2025-11-08 17h07.35.569524 +0530,
4,0,4,s,2.342911700001423,None,4,0,4,0,128.3396380000013,,,,,,,,,,,,,,,,,,,,,,,,,,,,,,,,,,,,,,,,,,,,,,,,,,128.3234579000018,128.3396380000013,128.8396191000029,128.82319840000127,128.83268720000342,128.8396191000029,128.8396191000029,128.8396191000029,131.18988900000113,Objects\033a.jpg,post,s,2.342911700001423,None,,,,,,,,00001,001,2025-11-08_17h07.29.968,MST_test,2024.2.2,60.01500375034023,2025-11-08 17h07.35.569524 +0530,
5,0,5,s,1.5302986000024248,None,5,0,5,0,131.20624240000325,,,,,,,,,,,,,,,,,,,,,,,,,,,,,,,,,,,,,,,,,,,,,,,,,,131.1899880000019,131.20624240000325,131.7228705000016,131.68973360000018,131.71732710000288,131.7228705000016,131.7228705000016,131.7228705000016,133.25649590000103,Objects\175b.jpg,mid,s,1.5302986000024248,None,,,,,,,,00001,001,2025-11-08_17h07.29.968,MST_test,2024.2.2,60.01500375034023,2025-11-08 17h07.35.569524 +0530,
6,0,6,o,9.500001000000339,None,6,0,6,0,133.27286030000323,,,,,,,,,,,,,,,,,,,,,,,,,,,,,,,,,,,,,,,,,,,,,,,,,,133.25657180000053,133.27286030000323,133.7728507000029,133.7563719000027,133.7657640000034,133.7728507000029,133.7728507000029,133.7728507000029,143.2896142000027,Objects\117a.jpg,post,o,9.500001000000339,None,,,,,,,,00001,001,2025-11-08_17h07.29.968,MST_test,2024.2.2,60.01500375034023,2025-11-08 17h07.35.569524 +0530,
7,0,7,n,1.8533984999994573,None,7,0,7,0,143.30597840000337,,,,,,,,,,,,,,,,,,,,,,,,,,,,,,,,,,,,,,,,,,,,,,,,,,143.2896965,143.30597840000337,143.82261220000146,143.7895638000009,143.8135624000024,143.82261220000146,143.82261220000146,143.82261220000146,145.68959170000016,Objects\134b.jpg,mid,n,1.8533984999994573,None,,,,,,,,00001,001,2025-11-08_17h07.29.968,MST_test,2024.2.2,60.01500375034023,2025-11-08 17h07.35.569524 +0530,
8,0,8,o,5.344775699999445,None,8,0,8,0,145.7059251000028,,,,,,,,,,,,,,,,,,,,,,,,,,,,,,,,,,,,,,,,,,,,,,,,,,145.68967410000187,145.7059251000028,146.22255000000223,146.18949550000252,146.20284730000276,146.22255000000223,146.22255000000223,146.22255000000223,151.57289110000056,Scenes\010a.jpg,pre,o,5.344775699999445,None,,,,,,,,00001,001,2025-11-08_17h07.29.968,MST_test,2024.2.2,60.01500375034023,2025-11-08 17h07.35.569524 +0530,
9,0,9,n,1.180198099998961,None,9,0,9,0,151.58916950000275,,,,,,,,,,,,,,,,,,,,,,,,,,,,,,,,,,,,,,,,,,,,,,,,,,151.57298500000252,151.58916950000275,152.12246060000325,152.07270640000206,152.10628740000175,152.12246060000325,152.12246060000325,152.12246060000325,153.30616590000136,Scenes\041b.jpg,pre,n,1.180198099998961,None,,,,,,,,00001,001,2025-11-08_17h07.29.968,MST_test,2024.2.2,60.01500375034023,2025-11-08 17h07.35.569524 +0530,
10,0,10,s,1.4266964000016742,None,10,0,10,0,153.32241830000203,,,,,,,,,,,,,,,,,,,,,,,,,,,,,,,,,,,,,,,,,,,,,,,,,,153.30625010000222,153.32241830000203,153.82238580000194,153.8060276000033,153.8162873000001,153.82238580000194,153.82238580000194,153.82238580000194,155.25604990000284,Objects\176a.jpg,pre,s,1.4266964000016742,None,,,,,,,,00001,001,2025-11-08_17h07.29.968,MST_test,2024.2.2,60.01500375034023,2025-11-08 17h07.35.569524 +0530,
11,0,11,s,2.074543700000504,None,11,0,11,0,155.27235320000182,,,,,,,,,,,,,,,,,,,,,,,,,,,,,,,,,,,,,,,,,,,,,,,,,,155.25613990000056,155.27235320000182,155.7892221000002,155.7559332000019,155.77273600000262,155.7892221000002,155.7892221000002,155.7892221000002,157.8727052000031,Foils\scenes7.jpg,none,s,2.074543700000504,None,,,,,,,,00001,001,2025-11-08_17h07.29.968,MST_test,2024.2.2,60.01500375034023,2025-11-08 17h07.35.569524 +0530,
12,0,12,o,1.5577383999989252,None,12,0,12,0,157.88901810000243,,,,,,,,,,,,,,,,,,,,,,,,,,,,,,,,,,,,,,,,,,,,,,,,,,157.8727929000015,157.88901810000243,158.40581790000215,158.37252730000182,158.38470600000073,158.40581790000215,158.40581790000215,158.40581790000215,159.97263710000334,Scenes\101a.jpg,post,o,1.5577383999989252,None,,,,,,,,00001,001,2025-11-08_17h07.29.968,MST_test,2024.2.2,60.01500375034023,2025-11-08 17h07.35.569524 +0530,
13,0,13,o,0.9174816000013379,None,13,0,13,0,159.98897660000148,,,,,,,,,,,,,,,,,,,,,,,,,,,,,,,,,,,,,,,,,,,,,,,,,,159.97272150000208,159.98897660000148,160.50556790000337,160.47244760000103,160.48907060000056,160.50556790000337,160.50556790000337,160.50556790000337,161.43918550000308,Foils\066a.jpg,none,o,0.9174816000013379,None,,,,,,,,00001,001,2025-11-08_17h07.29.968,MST_test,2024.2.2,60.01500375034023,2025-11-08 17h07.35.569524 +0530,
14,0,14,s,4.91662770000039,None,14,0,14,0,161.45557420000114,,,,,,,,,,,,,,,,,,,,,,,,,,,,,,,,,,,,,,,,,,,,,,,,,,161.4392598000013,161.45557420000114,161.97219360000236,161.93911970000045,161.95284950000132,161.97219360000236,161.97219360000236,161.97219360000236,166.88920140000118,Scenes\030a.jpg,post,s,4.91662770000039,None,,,,,,,,00001,001,2025-11-08_17h07.29.968,MST_test,2024.2.2,60.01500375034023,2025-11-08 17h07.35.569524 +0530,
15,0,15,s,4.614762299999711,None,15,0,15,0,166.9054591000022,,,,,,,,,,,,,,,,,,,,,,,,,,,,,,,,,,,,,,,,,,,,,,,,,,166.88927900000272,166.9054591000022,167.42209640000146,167.3889338000008,167.4062120000017,167.42209640000146,167.42209640000146,167.42209640000146,172.03904880000118,Objects\057b.jpg,pre,s,4.614762299999711,None,,,,,,,,00001,001,2025-11-08_17h07.29.968,MST_test,2024.2.2,60.01500375034023,2025-11-08 17h07.35.569524 +0530,
16,0,16,n,1.0866681000006793,None,16,0,16,0,172.05531020000126,,,,,,,,,,,,,,,,,,,,,,,,,,,,,,,,,,,,,,,,,,,,,,,,,,172.0391227,172.05531020000126,172.57200130000274,172.53888240000015,172.55544160000136,172.57200130000274,172.57200130000274,172.57200130000274,173.6723125000026,Foils\034a.jpg,none,n,1.0866681000006793,None,,,,,,,,00001,001,2025-11-08_17h07.29.968,MST_test,2024.2.2,60.01500375034023,2025-11-08 17h07.35.569524 +0530,
17,0,17,n,1.477457000000868,None,17,0,17,0,173.68860610000047,,,,,,,,,,,,,,,,,,,,,,,,,,,,,,,,,,,,,,,,,,,,,,,,,,173.6724000000031,173.68860610000047,174.1888272000033,174.17215110000325,174.18416680000155,174.1888272000033,174.1888272000033,174.1888272000033,175.67231690000335,Foils\scenes20.jpg,none,n,1.477457000000868,None,,,,,,,,00001,001,2025-11-08_17h07.29.968,MST_test,2024.2.2,60.01500375034023,2025-11-08 17h07.35.569524 +0530,
18,0,18,n,1.0364100000006147,None,18,0,18,0,175.68859580000208,,,,,,,,,,,,,,,,,,,,,,,,,,,,,,,,,,,,,,,,,,,,,,,,,,175.67240310000125,175.68859580000208,176.20522060000076,176.1721933000008,176.18890010000177,176.20522060000076,176.20522060000076,176.20522060000076,177.25556490000235,Foils\010a.jpg,none,n,1.0364100000006147,None,,,,,,,,00001,001,2025-11-08_17h07.29.968,MST_test,2024.2.2,60.01500375034023,2025-11-08 17h07.35.569524 +0530,
19,0,19,s,2.0882825999979104,None,19,0,19,0,177.27189750000252,,,,,,,,,,,,,,,,,,,,,,,,,,,,,,,,,,,,,,,,,,,,,,,,,,177.25564700000177,177.27189750000252,177.83874350000042,177.75543150000158,177.82192860000214,177.83874350000042,177.83874350000042,177.83874350000042,179.9389138000006,Foils\scenes15.jpg,none,s,2.0882825999979104,None,,,,,,,,00001,001,2025-11-08_17h07.29.968,MST_test,2024.2.2,60.01500375034023,2025-11-08 17h07.35.569524 +0530,
20,0,20,s,1.4475043999991613,None,20,0,20,0,179.95517360000304,,,,,,,,,,,,,,,,,,,,,,,,,,,,,,,,,,,,,,,,,,,,,,,,,,179.9390016000034,179.95517360000304,180.47179160000087,180.43872250000277,180.45655800000168,180.47179160000087,180.47179160000087,180.47179160000087,181.92219530000148,Objects\092b.jpg,mid,s,1.4475043999991613,None,,,,,,,,00001,001,2025-11-08_17h07.29.968,MST_test,2024.2.2,60.01500375034023,2025-11-08 17h07.35.569524 +0530,
21,0,21,o,1.3616402999978163,None,21,0,21,0,181.93845220000003,,,,,,,,,,,,,,,,,,,,,,,,,,,,,,,,,,,,,,,,,,,,,,,,,,181.92227980000098,181.93845220000003,182.45531100000153,182.42214960000274,182.44444230000227,182.45531100000153,182.45531100000153,182.45531100000153,183.82215870000073,Scenes\149a.jpg,mid,o,1.3616402999978163,None,,,,,,,,00001,001,2025-11-08_17h07.29.968,MST_test,2024.2.2,60.01500375034023,2025-11-08 17h07.35.569524 +0530,
22,0,22,s,3.437040999997407,None,22,0,22,0,183.83911270000317,,,,,,,,,,,,,,,,,,,,,,,,,,,,,,,,,,,,,,,,,,,,,,,,,,183.82224900000074,183.83911270000317,184.37173790000088,184.32193310000002,184.35629880000124,184.37173790000088,184.37173790000088,184.37173790000088,187.8220745000035,Scenes\137b.jpg,mid,s,3.437040999997407,None,,,,,,,,00001,001,2025-11-08_17h07.29.968,MST_test,2024.2.2,60.01500375034023,2025-11-08 17h07.35.569524 +0530,
23,0,23,o,2.0836311999992176,None,23,0,23,0,187.83832090000215,,,,,,,,,,,,,,,,,,,,,,,,,,,,,,,,,,,,,,,,,,,,,,,,,,187.8221614000031,187.83832090000215,188.35497880000185,188.32182600000306,188.3422378000032,188.35497880000185,188.35497880000185,188.35497880000185,190.4552993000034,Objects\130b.jpg,post,o,2.0836311999992176,None,,,,,,,,00001,001,2025-11-08_17h07.29.968,MST_test,2024.2.2,60.01500375034023,2025-11-08 17h07.35.569524 +0530,
24,0,24,s,2.032993999997416,None,24,0,24,0,190.47160630000144,,,,,,,,,,,,,,,,,,,,,,,,,,,,,,,,,,,,,,,,,,,,,,,,,,190.45537940000213,190.47160630000144,190.9882243000029,190.95514880000337,190.97088630000144,190.9882243000029,190.9882243000029,190.9882243000029,193.02191340000354,Objects\098b.jpg,pre,s,2.032993999997416,None,,,,,,,,00001,001,2025-11-08_17h07.29.968,MST_test,2024.2.2,60.01500375034023,2025-11-08 17h07.35.569524 +0530,
25,0,25,o,1.5427237000003515,None,25,0,25,0,193.03821710000193,,,,,,,,,,,,,,,,,,,,,,,,,,,,,,,,,,,,,,,,,,,,,,,,,,193.021996200001,193.03821710000193,193.53816720000032,193.52172240000073,193.5315081000008,193.53816720000032,193.53816720000032,193.53816720000032,195.08855530000073,Objects\164a.jpg,mid,o,1.5427237000003515,None,,,,,,,,00001,001,2025-11-08_17h07.29.968,MST_test,2024.2.2,60.01500375034023,2025-11-08 17h07.35.569524 +0530,
26,0,26,s,2.941171700000268,None,26,0,26,0,195.10486100000344,,,,,,,,,,,,,,,,,,,,,,,,,,,,,,,,,,,,,,,,,,,,,,,,,,195.088638600002,195.10486100000344,195.6214652000017,195.58846760000233,195.617169000001,195.6214652000017,195.6214652000017,195.6214652000017,198.5717794000011,Objects\154b.jpg,mid,s,2.941171700000268,None,,,,,,,,00001,001,2025-11-08_17h07.29.968,MST_test,2024.2.2,60.01500375034023,2025-11-08 17h07.35.569524 +0530,
27,0,27,n,1.1552714999997988,None,27,0,27,0,198.58808840000347,,,,,,,,,,,,,,,,,,,,,,,,,,,,,,,,,,,,,,,,,,,,,,,,,,198.57185460000255,198.58808840000347,199.1216467000013,199.0716336000005,199.1143114000006,199.1216467000013,199.1216467000013,199.1216467000013,200.28840000000127,Foils\scenes28.jpg,none,n,1.1552714999997988,None,,,,,,,,00001,001,2025-11-08_17h07.29.968,MST_test,2024.2.2,60.01500375034023,2025-11-08 17h07.35.569524 +0530,
28,0,28,n,1.0490754999991623,None,28,0,28,0,200.30471770000077,,,,,,,,,,,,,,,,,,,,,,,,,,,,,,,,,,,,,,,,,,,,,,,,,,200.28848310000103,200.30471770000077,200.82137780000267,200.78832110000076,200.8048462000006,200.82137780000267,200.82137780000267,200.82137780000267,201.87165470000036,Foils\090a.jpg,none,n,1.0490754999991623,None,,,,,,,,00001,001,2025-11-08_17h07.29.968,MST_test,2024.2.2,60.01500375034023,2025-11-08 17h07.35.569524 +0530,
29,0,29,n,0.8851632000005338,None,29,0,29,0,201.88801130000138,,,,,,,,,,,,,,,,,,,,,,,,,,,,,,,,,,,,,,,,,,,,,,,,,,201.8717254000003,201.88801130000138,202.48820510000223,202.3715396000007,202.47317210000256,202.48820510000223,202.48820510000223,202.48820510000223,203.3884375000016,Foils\scenes25.jpg,none,n,0.8851632000005338,None,,,,,,,,00001,001,2025-11-08_17h07.29.968,MST_test,2024.2.2,60.01500375034023,2025-11-08 17h07.35.569524 +0530,
30,0,30,s,1.1176531999990402,None,30,0,30,0,203.40466130000277,,,,,,,,,,,,,,,,,,,,,,,,,,,,,,,,,,,,,,,,,,,,,,,,,,203.3885192000016,203.40466130000277,203.92133690000264,203.88823510000293,203.9069937000022,203.92133690000264,203.92133690000264,203.92133690000264,205.05494260000341,Objects\192b.jpg,post,s,1.1176531999990402,None,,,,,,,,00001,001,2025-11-08_17h07.29.968,MST_test,2024.2.2,60.01500375034023,2025-11-08 17h07.35.569524 +0530,
31,0,31,s,5.535428999999567,None,31,0,31,0,205.07127780000155,,,,,,,,,,,,,,,,,,,,,,,,,,,,,,,,,,,,,,,,,,,,,,,,,,205.05503260000114,205.07127780000155,205.60459700000138,205.55481190000137,205.586176300003,205.60459700000138,205.60459700000138,205.60459700000138,211.15483770000355,Objects\108b.jpg,pre,s,5.535428999999567,None,,,,,,,,00001,001,2025-11-08_17h07.29.968,MST_test,2024.2.2,60.01500375034023,2025-11-08 17h07.35.569524 +0530,
32,0,32,o,3.71317359999739,None,32,0,32,0,211.17113980000067,,,,,,,,,,,,,,,,,,,,,,,,,,,,,,,,,,,,,,,,,,,,,,,,,,211.15492700000323,211.17113980000067,211.68809290000354,211.65466020000167,211.67425840000215,211.68809290000354,211.68809290000354,211.68809290000354,215.40477850000025,Scenes\065a.jpg,pre,o,3.71317359999739,None,,,,,,,,00001,001,2025-11-08_17h07.29.968,MST_test,2024.2.2,60.01500375034023,2025-11-08 17h07.35.569524 +0530,
33,0,33,s,2.536546300001646,None,33,0,33,0,215.42105860000083,,,,,,,,,,,,,,,,,,,,,,,,,,,,,,,,,,,,,,,,,,,,,,,,,,215.40487470000153,215.42105860000083,215.95461180000348,215.904605300002,215.94015110000328,215.95461180000348,215.95461180000348,215.95461180000348,218.50470340000174,Scenes\116b.jpg,mid,s,2.536546300001646,None,,,,,,,,00001,001,2025-11-08_17h07.29.968,MST_test,2024.2.2,60.01500375034023,2025-11-08 17h07.35.569524 +0530,
34,0,34,n,2.0327625999998418,None,34,0,34,0,218.52098920000208,,,,,,,,,,,,,,,,,,,,,,,,,,,,,,,,,,,,,,,,,,,,,,,,,,218.50479140000243,218.52098920000208,219.02101460000267,219.00457590000224,219.0167431000009,219.02101460000267,219.02101460000267,219.02101460000267,221.0546615000021,Foils\scenes14.jpg,none,n,2.0327625999998418,None,,,,,,,,00001,001,2025-11-08_17h07.29.968,MST_test,2024.2.2,60.01500375034023,2025-11-08 17h07.35.569524 +0530,
35,0,35,o,2.976496800001769,None,35,0,35,0,221.0709029000027,,,,,,,,,,,,,,,,,,,,,,,,,,,,,,,,,,,,,,,,,,,,,,,,,,221.05474400000094,221.0709029000027,221.5710437000016,221.55446940000184,221.56472600000052,221.5710437000016,221.5710437000016,221.5710437000016,224.5545802000015,Objects\081a.jpg,post,o,2.976496800001769,None,,,,,,,,00001,001,2025-11-08_17h07.29.968,MST_test,2024.2.2,60.01500375034023,2025-11-08 17h07.35.569524 +0530,
36,0,36,s,2.361077199999272,None,36,0,36,0,224.57082060000175,,,,,,,,,,,,,,,,,,,,,,,,,,,,,,,,,,,,,,,,,,,,,,,,,,224.55465790000017,224.57082060000175,225.10436790000313,225.05438100000174,225.0843762000004,225.10436790000313,225.10436790000313,225.10436790000313,227.47115680000206,Scenes\096b.jpg,post,s,2.361077199999272,None,,,,,,,,00001,001,2025-11-08_17h07.29.968,MST_test,2024.2.2,60.01500375034023,2025-11-08 17h07.35.569524 +0530,
37,0,37,o,1.5949467000027653,None,37,0,37,0,227.48742160000256,,,,,,,,,,,,,,,,,,,,,,,,,,,,,,,,,,,,,,,,,,,,,,,,,,227.47123310000097,227.48742160000256,228.00436020000052,227.97110970000358,227.99141580000287,228.00436020000052,228.00436020000052,228.00436020000052,229.60450870000204,Objects\051b.jpg,mid,o,1.5949467000027653,None,,,,,,,,00001,001,2025-11-08_17h07.29.968,MST_test,2024.2.2,60.01500375034023,2025-11-08 17h07.35.569524 +0530,
38,0,38,o,0.9300967999988643,None,38,0,38,0,229.62074900000152,,,,,,,,,,,,,,,,,,,,,,,,,,,,,,,,,,,,,,,,,,,,,,,,,,229.60459020000053,229.62074900000152,230.12074850000135,230.1042825000004,230.11417470000015,230.12074850000135,230.12074850000135,230.12074850000135,231.05447450000065,Objects\163a.jpg,mid,o,0.9300967999988643,None,,,,,,,,00001,001,2025-11-08_17h07.29.968,MST_test,2024.2.2,60.01500375034023,2025-11-08 17h07.35.569524 +0530,
39,0,39,n,0.9116457999989507,None,39,0,39,0,231.07072080000216,,,,,,,,,,,,,,,,,,,,,,,,,,,,,,,,,,,,,,,,,,,,,,,,,,231.05455480000091,231.07072080000216,231.5873722000033,231.55417450000095,231.5709381000015,231.5873722000033,231.5873722000033,231.5873722000033,232.50442330000078,Foils\097a.jpg,none,n,0.9116457999989507,None,,,,,,,,00001,001,2025-11-08_17h07.29.968,MST_test,2024.2.2,60.01500375034023,2025-11-08 17h07.35.569524 +0530,
40,0,40,n,2.7916499999992084,None,40,0,40,0,232.5206767000018,,,,,,,,,,,,,,,,,,,,,,,,,,,,,,,,,,,,,,,,,,,,,,,,,,232.5045026000007,232.5206767000018,233.02086520000012,233.0042684,233.01567830000204,233.02086520000012,233.02086520000012,233.02086520000012,235.8209947000032,Foils\scenes13.jpg,none,n,2.7916499999992084,None,,,,,,,,00001,001,2025-11-08_17h07.29.968,MST_test,2024.2.2,60.01500375034023,2025-11-08 17h07.35.569524 +0530,
41,0,41,n,1.0074727999999595,None,41,0,41,0,235.83726740000202,,,,,,,,,,,,,,,,,,,,,,,,,,,,,,,,,,,,,,,,,,,,,,,,,,235.8210687000028,235.83726740000202,236.33727510000244,236.32084140000006,236.33198090000224,236.33727510000244,236.33727510000244,236.33727510000244,237.3542625000009,Foils\scenes18.jpg,none,n,1.0074727999999595,None,,,,,,,,00001,001,2025-11-08_17h07.29.968,MST_test,2024.2.2,60.01500375034023,2025-11-08 17h07.35.569524 +0530,
42,0,42,s,3.920479800002795,None,42,0,42,0,237.37057249999998,,,,,,,,,,,,,,,,,,,,,,,,,,,,,,,,,,,,,,,,,,,,,,,,,,237.3543447000011,237.37057249999998,237.9041750000033,237.8541182000008,237.89114600000175,237.9041750000033,237.9041750000033,237.9041750000033,241.8374016000016,Scenes\132b.jpg,post,s,3.920479800002795,None,,,,,,,,00001,001,2025-11-08_17h07.29.968,MST_test,2024.2.2,60.01500375034023,2025-11-08 17h07.35.569524 +0530,
43,0,43,o,1.2970354000026418,None,43,0,43,0,241.8538085,,,,,,,,,,,,,,,,,,,,,,,,,,,,,,,,,,,,,,,,,,,,,,,,,,241.8374846000006,241.8538085,242.37045940000098,242.33743510000204,242.3582215000024,242.37045940000098,242.37045940000098,242.37045940000098,243.67107790000227,Scenes\093a.jpg,mid,o,1.2970354000026418,None,,,,,,,,00001,001,2025-11-08_17h07.29.968,MST_test,2024.2.2,60.01500375034023,2025-11-08 17h07.35.569524 +0530,
44,0,44,o,1.760736200001702,None,44,0,44,0,243.68712790000063,,,,,,,,,,,,,,,,,,,,,,,,,,,,,,,,,,,,,,,,,,,,,,,,,,243.6711654000028,243.68712790000063,244.22075590000168,244.17068830000062,244.2091051000025,244.22075590000168,244.22075590000168,244.22075590000168,245.9873890000017,Scenes\131b.jpg,mid,o,1.760736200001702,None,,,,,,,,00001,001,2025-11-08_17h07.29.968,MST_test,2024.2.2,60.01500375034023,2025-11-08 17h07.35.569524 +0530,
45,0,45,n,1.0597053999990749,None,45,0,45,0,246.0037063000018,,,,,,,,,,,,,,,,,,,,,,,,,,,,,,,,,,,,,,,,,,,,,,,,,,245.98746590000155,246.0037063000018,246.53706700000112,246.4873348000001,246.52109520000158,246.53706700000112,246.53706700000112,246.53706700000112,247.6040103000014,Scenes\058b.jpg,pre,n,1.0597053999990749,None,,,,,,,,00001,001,2025-11-08_17h07.29.968,MST_test,2024.2.2,60.01500375034023,2025-11-08 17h07.35.569524 +0530,
46,0,46,o,11.090089599998464,None,46,0,46,0,247.62030920000325,,,,,,,,,,,,,,,,,,,,,,,,,,,,,,,,,,,,,,,,,,,,,,,,,,247.60409620000064,247.62030920000325,248.13729810000223,248.10384370000247,248.13096470000164,248.13729810000223,248.13729810000223,248.13729810000223,259.23707130000184,Scenes\076a.jpg,post,o,11.090089599998464,None,,,,,,,,00001,001,2025-11-08_17h07.29.968,MST_test,2024.2.2,60.01500375034023,2025-11-08 17h07.35.569524 +0530,
47,0,47,n,1.1270881999989797,None,47,0,47,0,259.2534235000021,,,,,,,,,,,,,,,,,,,,,,,,,,,,,,,,,,,,,,,,,,,,,,,,,,259.23716440000135,259.2534235000021,259.77033780000056,259.737018900003,259.75449410000147,259.77033780000056,259.77033780000056,259.77033780000056,260.9037754000019,Foils\073a.jpg,none,n,1.1270881999989797,None,,,,,,,,00001,001,2025-11-08_17h07.29.968,MST_test,2024.2.2,60.01500375034023,2025-11-08 17h07.35.569524 +0530,
48,0,48,n,3.5066470999990997,None,48,0,48,0,260.9200524000007,,,,,,,,,,,,,,,,,,,,,,,,,,,,,,,,,,,,,,,,,,,,,,,,,,260.9038532000013,260.9200524000007,261.43667870000354,261.4036606000009,261.41919410000264,261.43667870000354,261.43667870000354,261.43667870000354,264.9535859000025,Foils\033a.jpg,none,n,3.5066470999990997,None,,,,,,,,00001,001,2025-11-08_17h07.29.968,MST_test,2024.2.2,60.01500375034023,2025-11-08 17h07.35.569524 +0530,
49,0,49,n,1.983106499999849,None,49,0,49,0,264.9699627000009,,,,,,,,,,,,,,,,,,,,,,,,,,,,,,,,,,,,,,,,,,,,,,,,,,264.95367740000074,264.9699627000009,265.50352420000127,265.4535958000015,265.48876460000247,265.50352420000127,265.50352420000127,265.50352420000127,267.48702900000353,Scenes\180b.jpg,pre,n,1.983106499999849,None,,,,,,,,00001,001,2025-11-08_17h07.29.968,MST_test,2024.2.2,60.01500375034023,2025-11-08 17h07.35.569524 +0530,
50,0,50,o,1.7172609999979613,None,50,0,50,0,267.5032353000024,,,,,,,,,,,,,,,,,,,,,,,,,,,,,,,,,,,,,,,,,,,,,,,,,,267.4871137000009,267.5032353000024,268.0203082000007,267.9868013000014,268.0124128000025,268.0203082000007,268.0203082000007,268.0203082000007,269.7536162000033,Scenes\038a.jpg,mid,o,1.7172609999979613,None,,,,,,,,00001,001,2025-11-08_17h07.29.968,MST_test,2024.2.2,60.01500375034023,2025-11-08 17h07.35.569524 +0530,
51,0,51,o,1.3548890999991272,None,51,0,51,0,269.76985330000025,,,,,,,,,,,,,,,,,,,,,,,,,,,,,,,,,,,,,,,,,,,,,,,,,,269.7536960000034,269.76985330000025,270.2867174000021,270.2534719000032,270.27073510000264,270.2867174000021,270.2867174000021,270.2867174000021,271.65351470000314,Objects\127b.jpg,post,o,1.3548890999991272,None,,,,,,,,00001,001,2025-11-08_17h07.29.968,MST_test,2024.2.2,60.01500375034023,2025-11-08 17h07.35.569524 +0530,
52,0,52,s,1.3034563999972306,None,52,0,52,0,271.6698412000005,,,,,,,,,,,,,,,,,,,,,,,,,,,,,,,,,,,,,,,,,,,,,,,,,,271.65358870000273,271.6698412000005,272.2033099,272.15328050000244,272.1916748000003,272.2033099,272.2033099,272.2033099,273.5200313000023,Scenes\185b.jpg,mid,s,1.3034563999972306,None,,,,,,,,00001,001,2025-11-08_17h07.29.968,MST_test,2024.2.2,60.01500375034023,2025-11-08 17h07.35.569524 +0530,
53,0,53,s,1.098885600000358,None,53,0,53,0,273.53643920000104,,,,,,,,,,,,,,,,,,,,,,,,,,,,,,,,,,,,,,,,,,,,,,,,,,273.52010940000036,273.53643920000104,274.0699405000014,274.01994470000136,274.0586570000014,274.0699405000014,274.0699405000014,274.0699405000014,275.1700723000031,Scenes\187b.jpg,post,s,1.098885600000358,None,,,,,,,,00001,001,2025-11-08_17h07.29.968,MST_test,2024.2.2,60.01500375034023,2025-11-08 17h07.35.569524 +0530,
54,0,54,o,1.0403368000006594,None,54,0,54,0,275.18640790000063,,,,,,,,,,,,,,,,,,,,,,,,,,,,,,,,,,,,,,,,,,,,,,,,,,275.17015230000106,275.18640790000063,275.6866673000004,275.67004270000325,275.6799923000035,275.6866673000004,275.6866673000004,275.6866673000004,276.7366776000017,Objects\010a.jpg,mid,o,1.0403368000006594,None,,,,,,,,00001,001,2025-11-08_17h07.29.968,MST_test,2024.2.2,60.01500375034023,2025-11-08 17h07.35.569524 +0530,
55,0,55,o,1.2220718999997189,None,55,0,55,0,276.7530073000016,,,,,,,,,,,,,,,,,,,,,,,,,,,,,,,,,,,,,,,,,,,,,,,,,,276.73675640000147,276.7530073000016,277.25301690000197,277.2366440000005,277.2479115000024,277.25301690000197,277.25301690000197,277.25301690000197,278.48660980000204,Objects\109a.jpg,post,o,1.2220718999997189,None,,,,,,,,00001,001,2025-11-08_17h07.29.968,MST_test,2024.2.2,60.01500375034023,2025-11-08 17h07.35.569524 +0530,
56,0,56,o,1.0598318000011204,None,56,0,56,0,278.5030617000011,,,,,,,,,,,,,,,,,,,,,,,,,,,,,,,,,,,,,,,,,,,,,,,,,,278.4866850000035,278.5030617000011,279.01962130000175,278.98662610000247,279.0077689000027,279.01962130000175,279.01962130000175,279.01962130000175,280.0865943000026,Scenes\114a.jpg,post,o,1.0598318000011204,None,,,,,,,,00001,001,2025-11-08_17h07.29.968,MST_test,2024.2.2,60.01500375034023,2025-11-08 17h07.35.569524 +0530,
57,0,57,o,0.9335821000022406,None,57,0,57,0,280.10296330000347,,,,,,,,,,,,,,,,,,,,,,,,,,,,,,,,,,,,,,,,,,,,,,,,,,280.0866739000012,280.10296330000347,280.6195832000012,280.5864865000003,280.6041237000027,280.6195832000012,280.6195832000012,280.6195832000012,281.5698846000014,Scenes\039a.jpg,pre,o,0.9335821000022406,None,,,,,,,,00001,001,2025-11-08_17h07.29.968,MST_test,2024.2.2,60.01500375034023,2025-11-08 17h07.35.569524 +0530,
58,0,58,s,2.8576563999995415,None,58,0,58,0,281.5862601000008,,,,,,,,,,,,,,,,,,,,,,,,,,,,,,,,,,,,,,,,,,,,,,,,,,281.56995760000063,281.5862601000008,282.102889400001,282.0697188000013,282.0909576000013,282.102889400001,282.102889400001,282.102889400001,284.9699139000004,Scenes\161a.jpg,mid,s,2.8576563999995415,None,,,,,,,,00001,001,2025-11-08_17h07.29.968,MST_test,2024.2.2,60.01500375034023,2025-11-08 17h07.35.569524 +0530,
59,0,59,s,4.172174299998005,None,59,0,59,0,284.98618390000047,,,,,,,,,,,,,,,,,,,,,,,,,,,,,,,,,,,,,,,,,,,,,,,,,,284.97000000000116,284.98618390000047,285.5028138000016,285.46965080000155,285.48645450000186,285.5028138000016,285.5028138000016,285.5028138000016,289.68653450000056,Objects\037b.jpg,post,s,4.172174299998005,None,,,,,,,,00001,001,2025-11-08_17h07.29.968,MST_test,2024.2.2,60.01500375034023,2025-11-08 17h07.35.569524 +0530,
60,0,60,s,2.0773803000010957,None,60,0,60,0,289.70274840000275,,,,,,,,,,,,,,,,,,,,,,,,,,,,,,,,,,,,,,,,,,,,,,,,,,289.68661540000176,289.70274840000275,290.21975710000333,290.186232,290.2130511000032,290.21975710000333,290.21975710000333,290.21975710000333,292.3031622000017,Scenes\088a.jpg,mid,s,2.0773803000010957,None,,,,,,,,00001,001,2025-11-08_17h07.29.968,MST_test,2024.2.2,60.01500375034023,2025-11-08 17h07.35.569524 +0530,
61,0,61,n,0.928632999999536,None,61,0,61,0,292.3193644000021,,,,,,,,,,,,,,,,,,,,,,,,,,,,,,,,,,,,,,,,,,,,,,,,,,292.3032452000007,292.3193644000021,292.8528441000017,292.80295840000326,292.8448836000025,292.8528441000017,292.8528441000017,292.8528441000017,293.78638910000154,Scenes\103b.jpg,post,n,0.928632999999536,None,,,,,,,,00001,001,2025-11-08_17h07.29.968,MST_test,2024.2.2,60.01500375034023,2025-11-08 17h07.35.569524 +0530,
62,0,62,s,0.7498805000032007,None,62,0,62,0,293.8026608,,,,,,,,,,,,,,,,,,,,,,,,,,,,,,,,,,,,,,,,,,,,,,,,,,293.78647920000003,293.8026608,294.3029127000009,294.28610560000016,294.29660460000014,294.3029127000009,294.3029127000009,294.3029127000009,295.0530972000015,Objects\095a.jpg,pre,s,0.7498805000032007,None,,,,,,,,00001,001,2025-11-08_17h07.29.968,MST_test,2024.2.2,60.01500375034023,2025-11-08 17h07.35.569524 +0530,
63,0,63,n,1.3160122999979649,None,63,0,63,0,295.0693042000021,,,,,,,,,,,,,,,,,,,,,,,,,,,,,,,,,,,,,,,,,,,,,,,,,,295.05317130000185,295.0693042000021,295.6025897000036,295.55277300000307,295.5826718000026,295.6025897000036,295.6025897000036,295.6025897000036,296.91971450000347,Scenes\160b.jpg,pre,n,1.3160122999979649,None,,,,,,,,00001,001,2025-11-08_17h07.29.968,MST_test,2024.2.2,60.01500375034023,2025-11-08 17h07.35.569524 +0530,
64,0,64,s,1.2965789000008954,None,64,0,64,0,296.9359919000017,,,,,,,,,,,,,,,,,,,,,,,,,,,,,,,,,,,,,,,,,,,,,,,,,,296.9197972000002,296.9359919000017,297.4525472000023,297.4194051000013,297.4446351000006,297.4525472000023,297.4525472000023,297.4525472000023,298.7529785000006,Objects\165b.jpg,pre,s,1.2965789000008954,None,,,,,,,,00001,001,2025-11-08_17h07.29.968,MST_test,2024.2.2,60.01500375034023,2025-11-08 17h07.35.569524 +0530,
65,0,65,o,1.3288643000014417,None,65,0,65,0,298.7692126000002,,,,,,,,,,,,,,,,,,,,,,,,,,,,,,,,,,,,,,,,,,,,,,,,,,298.75306190000265,298.7692126000002,299.2858795000029,299.25289370000246,299.2735722000034,299.2858795000029,299.2858795000029,299.2858795000029,300.6195179000024,Scenes\085a.jpg,mid,o,1.3288643000014417,None,,,,,,,,00001,001,2025-11-08_17h07.29.968,MST_test,2024.2.2,60.01500375034023,2025-11-08 17h07.35.569524 +0530,
66,0,66,o,1.2074532000006002,None,66,0,66,0,300.6358828000011,,,,,,,,,,,,,,,,,,,,,,,,,,,,,,,,,,,,,,,,,,,,,,,,,,300.6195931000002,300.6358828000011,301.1358515000029,301.11937890000263,301.1293386000034,301.1358515000029,301.1358515000029,301.1358515000029,302.3528799000014,Objects\128a.jpg,post,o,1.2074532000006002,None,,,,,,,,00001,001,2025-11-08_17h07.29.968,MST_test,2024.2.2,60.01500375034023,2025-11-08 17h07.35.569524 +0530,
67,0,67,o,0.8891193000017665,None,67,0,67,0,302.36913640000057,,,,,,,,,,,,,,,,,,,,,,,,,,,,,,,,,,,,,,,,,,,,,,,,,,302.35296610000296,302.36913640000057,302.88579780000146,302.8527028000026,302.8733441000004,302.88579780000146,302.88579780000146,302.88579780000146,303.78605920000336,Scenes\021a.jpg,post,o,0.8891193000017665,None,,,,,,,,00001,001,2025-11-08_17h07.29.968,MST_test,2024.2.2,60.01500375034023,2025-11-08 17h07.35.569524 +0530,
68,0,68,n,3.224883900002169,None,68,0,68,0,303.802435900001,,,,,,,,,,,,,,,,,,,,,,,,,,,,,,,,,,,,,,,,,,,,,,,,,,303.786138200001,303.802435900001,304.30239500000243,304.2859253000024,304.2961482000028,304.30239500000243,304.30239500000243,304.30239500000243,307.53605660000176,Objects\188a.jpg,pre,n,3.224883900002169,None,,,,,,,,00001,001,2025-11-08_17h07.29.968,MST_test,2024.2.2,60.01500375034023,2025-11-08 17h07.35.569524 +0530,
69,0,69,s,5.926995899997564,None,69,0,69,0,307.5523967000008,,,,,,,,,,,,,,,,,,,,,,,,,,,,,,,,,,,,,,,,,,,,,,,,,,307.53614850000304,307.5523967000008,308.08589440000287,308.0359597000024,308.06814430000304,308.08589440000287,308.08589440000287,308.08589440000287,314.0194038000009,Scenes\155b.jpg,post,s,5.926995899997564,None,,,,,,,,00001,001,2025-11-08_17h07.29.968,MST_test,2024.2.2,60.01500375034023,2025-11-08 17h07.35.569524 +0530,
70,0,70,s,3.4149213999990025,None,70,0,70,0,314.03555080000297,,,,,,,,,,,,,,,,,,,,,,,,,,,,,,,,,,,,,,,,,,,,,,,,,,314.01948280000215,314.03555080000297,314.5521772000029,314.51899420000336,314.53600390000065,314.5521772000029,314.5521772000029,314.5521772000029,317.9692111000004,Objects\017b.jpg,pre,s,3.4149213999990025,None,,,,,,,,00001,001,2025-11-08_17h07.29.968,MST_test,2024.2.2,60.01500375034023,2025-11-08 17h07.35.569524 +0530,
71,0,71,s,1.3993351999997685,None,71,0,71,0,317.9854677000003,,,,,,,,,,,,,,,,,,,,,,,,,,,,,,,,,,,,,,,,,,,,,,,,,,317.96929660000023,317.9854677000003,318.48541860000114,318.4690483000013,318.4790376000019,318.48541860000114,318.48541860000114,318.48541860000114,319.8857745000023,Objects\153a.jpg,mid,s,1.3993351999997685,None,,,,,,,,00001,001,2025-11-08_17h07.29.968,MST_test,2024.2.2,60.01500375034023,2025-11-08 17h07.35.569524 +0530,
72,0,72,s,1.945914799998718,None,72,0,72,0,319.90205230000356,,,,,,,,,,,,,,,,,,,,,,,,,,,,,,,,,,,,,,,,,,,,,,,,,,319.8858560000008,319.90205230000356,320.418718500001,320.3855693000005,320.40706310000314,320.418718500001,320.418718500001,320.418718500001,322.3691252000026,Objects\110b.jpg,pre,s,1.945914799998718,None,,,,,,,,00001,001,2025-11-08_17h07.29.968,MST_test,2024.2.2,60.01500375034023,2025-11-08 17h07.35.569524 +0530,
73,0,73,o,1.616582800001197,None,73,0,73,0,322.38536920000115,,,,,,,,,,,,,,,,,,,,,,,,,,,,,,,,,,,,,,,,,,,,,,,,,,322.36921280000024,322.38536920000115,322.9020327000035,322.8689544000008,322.88454830000046,322.9020327000035,322.9020327000035,322.9020327000035,324.5190637000014,Objects\058b.jpg,post,o,1.616582800001197,None,,,,,,,,00001,001,2025-11-08_17h07.29.968,MST_test,2024.2.2,60.01500375034023,2025-11-08 17h07.35.569524 +0530,
74,0,74,n,1.159976099999767,None,74,0,74,0,324.53528740000183,,,,,,,,,,,,,,,,,,,,,,,,,,,,,,,,,,,,,,,,,,,,,,,,,,324.51914860000034,324.53528740000183,325.03550240000186,325.0189078000003,325.0302358000008,325.03550240000186,325.03550240000186,325.03550240000186,326.20225010000286,Foils\scenes17.jpg,none,n,1.159976099999767,None,,,,,,,,00001,001,2025-11-08_17h07.29.968,MST_test,2024.2.2,60.01500375034023,2025-11-08 17h07.35.569524 +0530,
75,0,75,s,2.1056209999987914,None,75,0,75,0,326.2186139000005,,,,,,,,,,,,,,,,,,,,,,,,,,,,,,,,,,,,,,,,,,,,,,,,,,326.20232260000193,326.2186139000005,326.7352359000033,326.7020702000009,326.7179350000006,326.7352359000033,326.7352359000033,326.7352359000033,328.852289800001,Objects\077b.jpg,post,s,2.1056209999987914,None,,,,,,,,00001,001,2025-11-08_17h07.29.968,MST_test,2024.2.2,60.01500375034023,2025-11-08 17h07.35.569524 +0530,
76,0,76,s,0.8906846000027144,None,76,0,76,0,328.86856190000253,,,,,,,,,,,,,,,,,,,,,,,,,,,,,,,,,,,,,,,,,,,,,,,,,,328.85237490000145,328.86856190000253,329.3685667000027,329.3521961000006,329.36170520000087,329.3685667000027,329.3685667000027,329.3685667000027,330.2688115000019,Objects\083a.jpg,post,s,0.8906846000027144,None,,,,,,,,00001,001,2025-11-08_17h07.29.968,MST_test,2024.2.2,60.01500375034023,2025-11-08 17h07.35.569524 +0530,
77,0,77,s,4.593344500000967,None,77,0,77,0,330.2851871000021,,,,,,,,,,,,,,,,,,,,,,,,,,,,,,,,,,,,,,,,,,,,,,,,,,330.26888750000217,330.2851871000021,330.83523270000296,330.76883270000326,330.79736460000277,330.83523270000296,330.83523270000296,330.83523270000296,335.43548720000035,Scenes\008b.jpg,mid,s,4.593344500000967,None,,,,,,,,00001,001,2025-11-08_17h07.29.968,MST_test,2024.2.2,60.01500375034023,2025-11-08 17h07.35.569524 +0530,
78,0,78,s,1.8903281999992032,None,78,0,78,0,335.4517554000013,,,,,,,,,,,,,,,,,,,,,,,,,,,,,,,,,,,,,,,,,,,,,,,,,,335.4355762000014,335.4517554000013,335.9683686000026,335.93524160000015,335.96415980000165,335.9683686000026,335.9683686000026,335.9683686000026,337.8686361,Objects\138b.jpg,mid,s,1.8903281999992032,None,,,,,,,,00001,001,2025-11-08_17h07.29.968,MST_test,2024.2.2,60.01500375034023,2025-11-08 17h07.35.569524 +0530,
79,0,79,n,1.3407325000007404,None,79,0,79,0,337.8850235000027,,,,,,,,,,,,,,,,,,,,,,,,,,,,,,,,,,,,,,,,,,,,,,,,,,337.8687119000024,337.8850235000027,338.4183151000034,338.36868360000153,338.4020933000029,338.4183151000034,338.4183151000034,338.4183151000034,339.76858450000145,Foils\scenes30.jpg,none,n,1.3407325000007404,None,,,,,,,,00001,001,2025-11-08_17h07.29.968,MST_test,2024.2.2,60.01500375034023,2025-11-08 17h07.35.569524 +0530,
80,0,80,o,1.2382422000009683,None,80,0,80,0,339.78498430000036,,,,,,,,,,,,,,,,,,,,,,,,,,,,,,,,,,,,,,,,,,,,,,,,,,339.768662100003,339.78498430000036,340.2849812000022,340.2684732000016,340.2792416000011,340.2849812000022,340.2849812000022,340.2849812000022,341.53534840000066,Objects\121a.jpg,mid,o,1.2382422000009683,None,,,,,,,,00001,001,2025-11-08_17h07.29.968,MST_test,2024.2.2,60.01500375034023,2025-11-08 17h07.35.569524 +0530,
81,0,81,o,0.9731944000013755,None,81,0,81,0,341.5516095000021,,,,,,,,,,,,,,,,,,,,,,,,,,,,,,,,,,,,,,,,,,,,,,,,,,341.53542330000346,341.5516095000021,342.0684274000014,342.03523210000276,342.052539100001,342.0684274000014,342.0684274000014,342.0684274000014,343.05198900000323,Scenes\179a.jpg,pre,o,0.9731944000013755,None,,,,,,,,00001,001,2025-11-08_17h07.29.968,MST_test,2024.2.2,60.01500375034023,2025-11-08 17h07.35.569524 +0530,
82,0,82,o,1.1381188000013935,None,82,0,82,0,343.0682201000018,,,,,,,,,,,,,,,,,,,,,,,,,,,,,,,,,,,,,,,,,,,,,,,,,,343.05207280000104,343.0682201000018,343.58508690000235,343.5520131000012,343.57245310000144,343.58508690000235,343.58508690000235,343.58508690000235,344.7351504000035,Scenes\125a.jpg,mid,o,1.1381188000013935,None,,,,,,,,00001,001,2025-11-08_17h07.29.968,MST_test,2024.2.2,60.01500375034023,2025-11-08 17h07.35.569524 +0530,
83,0,83,s,1.4119423999982246,None,83,0,83,0,344.7515357000011,,,,,,,,,,,,,,,,,,,,,,,,,,,,,,,,,,,,,,,,,,,,,,,,,,344.7352258000028,344.7515357000011,345.28513080000266,345.2351285000004,345.2774391000021,345.28513080000266,345.28513080000266,345.28513080000266,346.701971100003,Scenes\134b.jpg,pre,s,1.4119423999982246,None,,,,,,,,00001,001,2025-11-08_17h07.29.968,MST_test,2024.2.2,60.01500375034023,2025-11-08 17h07.35.569524 +0530,
84,0,84,n,0.9424882000021171,None,84,0,84,0,346.7181915000001,,,,,,,,,,,,,,,,,,,,,,,,,,,,,,,,,,,,,,,,,,,,,,,,,,346.7020565000021,346.7181915000001,347.23478270000123,347.2017302000022,347.22012800000084,347.23478270000123,347.23478270000123,347.23478270000123,348.1851787000014,Scenes\069a.jpg,pre,n,0.9424882000021171,None,,,,,,,,00001,001,2025-11-08_17h07.29.968,MST_test,2024.2.2,60.01500375034023,2025-11-08 17h07.35.569524 +0530,
85,0,85,n,3.238747200000944,None,85,0,85,0,348.20148600000175,,,,,,,,,,,,,,,,,,,,,,,,,,,,,,,,,,,,,,,,,,,,,,,,,,348.18525170000066,348.20148600000175,348.7183223000029,348.68492900000274,348.7016848000021,348.7183223000029,348.7183223000029,348.7183223000029,351.9684621000015,Foils\065a.jpg,none,n,3.238747200000944,None,,,,,,,,00001,001,2025-11-08_17h07.29.968,MST_test,2024.2.2,60.01500375034023,2025-11-08 17h07.35.569524 +0530,
86,0,86,s,1.2257659999995667,None,86,0,86,0,351.9846808000002,,,,,,,,,,,,,,,,,,,,,,,,,,,,,,,,,,,,,,,,,,,,,,,,,,351.96854130000065,351.9846808000002,352.5013379000011,352.4681528000001,352.48628830000234,352.5013379000011,352.5013379000011,352.5013379000011,353.7350858000027,Foils\057a.jpg,none,s,1.2257659999995667,None,,,,,,,,00001,001,2025-11-08_17h07.29.968,MST_test,2024.2.2,60.01500375034023,2025-11-08 17h07.35.569524 +0530,
87,0,87,s,1.4726358000007167,None,87,0,87,0,353.7513425000034,,,,,,,,,,,,,,,,,,,,,,,,,,,,,,,,,,,,,,,,,,,,,,,,,,353.73517020000145,353.7513425000034,354.26801570000316,354.23490010000023,354.2523222000018,354.26801570000316,354.26801570000316,354.26801570000316,355.7515693000023,Foils\009a.jpg,none,s,1.4726358000007167,None,,,,,,,,00001,001,2025-11-08_17h07.29.968,MST_test,2024.2.2,60.01500375034023,2025-11-08 17h07.35.569524 +0530,
88,0,88,n,1.084209099997679,None,88,0,88,0,355.7679683000024,,,,,,,,,,,,,,,,,,,,,,,,,,,,,,,,,,,,,,,,,,,,,,,,,,355.7516568000028,355.7679683000024,356.3012869000013,356.25158790000205,356.2925724000015,356.3012869000013,356.3012869000013,356.3012869000013,357.4017343000014,Scenes\100b.jpg,post,n,1.084209099997679,None,,,,,,,,00001,001,2025-11-08_17h07.29.968,MST_test,2024.2.2,60.01500375034023,2025-11-08 17h07.35.569524 +0530,
89,0,89,o,1.3262896000014734,None,89,0,89,0,357.4179305000034,,,,,,,,,,,,,,,,,,,,,,,,,,,,,,,,,,,,,,,,,,,,,,,,,,357.4018141000015,357.4179305000034,357.93455090000134,357.90141270000095,357.91808220000166,357.93455090000134,357.93455090000134,357.93455090000134,359.2683061000025,Scenes\075a.jpg,post,o,1.3262896000014734,None,,,,,,,,00001,001,2025-11-08_17h07.29.968,MST_test,2024.2.2,60.01500375034023,2025-11-08 17h07.35.569524 +0530,
90,0,90,s,1.362178600000334,None,90,0,90,0,359.2844098000023,,,,,,,,,,,,,,,,,,,,,,,,,,,,,,,,,,,,,,,,,,,,,,,,,,359.2683938000009,359.2844098000023,359.8011781000023,359.7680422000012,359.7846737,359.8011781000023,359.8011781000023,359.8011781000023,361.16819170000235,Objects\024b.jpg,mid,s,1.362178600000334,None,,,,,,,,00001,001,2025-11-08_17h07.29.968,MST_test,2024.2.2,60.01500375034023,2025-11-08 17h07.35.569524 +0530,
91,0,91,o,5.9462253999990935,None,91,0,91,0,361.18448290000015,,,,,,,,,,,,,,,,,,,,,,,,,,,,,,,,,,,,,,,,,,,,,,,,,,361.1682710000023,361.18448290000015,361.70113370000036,361.66804590000174,361.68531280000025,361.70113370000036,361.70113370000036,361.70113370000036,367.6513341000027,Scenes\067a.jpg,pre,o,5.9462253999990935,None,,,,,,,,00001,001,2025-11-08_17h07.29.968,MST_test,2024.2.2,60.01500375034023,2025-11-08 17h07.35.569524 +0530,
92,0,92,n,1.1214896999990742,None,92,0,92,0,367.6676980000011,,,,,,,,,,,,,,,,,,,,,,,,,,,,,,,,,,,,,,,,,,,,,,,,,,367.6514121,367.6676980000011,368.2013412000015,368.1512096000006,368.1928176000001,368.2013412000015,368.2013412000015,368.2013412000015,369.33468600000197,Scenes\005b.jpg,pre,n,1.1214896999990742,None,,,,,,,,00001,001,2025-11-08_17h07.29.968,MST_test,2024.2.2,60.01500375034023,2025-11-08 17h07.35.569524 +0530,
93,0,93,o,1.256630200001382,None,93,0,93,0,369.35100370000146,,,,,,,,,,,,,,,,,,,,,,,,,,,,,,,,,,,,,,,,,,,,,,,,,,369.33476970000265,369.35100370000146,369.8842837000011,369.8344726000032,369.8781700000036,369.8842837000011,369.8842837000011,369.8842837000011,371.1513156000001,Scenes\094b.jpg,post,o,1.256630200001382,None,,,,,,,,00001,001,2025-11-08_17h07.29.968,MST_test,2024.2.2,60.01500375034023,2025-11-08 17h07.35.569524 +0530,
94,0,94,s,2.7044473000023572,None,94,0,94,0,371.1676609000024,,,,,,,,,,,,,,,,,,,,,,,,,,,,,,,,,,,,,,,,,,,,,,,,,,371.15139570000247,371.1676609000024,371.68427280000105,371.6511283,371.67362330000105,371.68427280000105,371.68427280000105,371.68427280000105,374.4011924000006,Scenes\190a.jpg,pre,s,2.7044473000023572,None,,,,,,,,00001,001,2025-11-08_17h07.29.968,MST_test,2024.2.2,60.01500375034023,2025-11-08 17h07.35.569524 +0530,
95,0,95,o,1.1786152999993647,None,95,0,95,0,374.4175191000031,,,,,,,,,,,,,,,,,,,,,,,,,,,,,,,,,,,,,,,,,,,,,,,,,,374.40127730000313,374.4175191000031,374.9344602000019,374.9011430000028,374.9169632000012,374.9344602000019,374.9344602000019,374.9344602000019,376.1178241000016,Objects\056b.jpg,pre,o,1.1786152999993647,None,,,,,,,,00001,001,2025-11-08_17h07.29.968,MST_test,2024.2.2,60.01500375034023,2025-11-08 17h07.35.569524 +0530,
96,0,96,n,5.2935295999996015,None,96,0,96,0,376.1341851000034,,,,,,,,,,,,,,,,,,,,,,,,,,,,,,,,,,,,,,,,,,,,,,,,,,376.1178983000027,376.1341851000034,376.6674794000028,376.61774850000074,376.6594539000034,376.6674794000028,376.6674794000028,376.6674794000028,381.9677365000025,Scenes\173b.jpg,mid,n,5.2935295999996015,None,,,,,,,,00001,001,2025-11-08_17h07.29.968,MST_test,2024.2.2,60.01500375034023,2025-11-08 17h07.35.569524 +0530,
97,0,97,o,2.281970199997886,None,97,0,97,0,381.98405490000005,,,,,,,,,,,,,,,,,,,,,,,,,,,,,,,,,,,,,,,,,,,,,,,,,,381.967818000001,381.98405490000005,382.50069390000135,382.4675352000013,382.4887348000011,382.50069390000135,382.50069390000135,382.50069390000135,384.78430910000316,Scenes\159a.jpg,pre,o,2.281970199997886,None,,,,,,,,00001,001,2025-11-08_17h07.29.968,MST_test,2024.2.2,60.01500375034023,2025-11-08 17h07.35.569524 +0530,
98,0,98,s,1.993498300002102,None,98,0,98,0,384.8006581000009,,,,,,,,,,,,,,,,,,,,,,,,,,,,,,,,,,,,,,,,,,,,,,,,,,384.78438800000004,384.8006581000009,385.3173084000009,385.2843106,385.30008830000224,385.3173084000009,385.3173084000009,385.3173084000009,387.31771690000096,Objects\060b.jpg,post,s,1.993498300002102,None,,,,,,,,00001,001,2025-11-08_17h07.29.968,MST_test,2024.2.2,60.01500375034023,2025-11-08 17h07.35.569524 +0530,
99,0,99,o,3.6875842999979795,None,99,0,99,0,387.3339012000033,,,,,,,,,,,,,,,,,,,,,,,,,,,,,,,,,,,,,,,,,,,,,,,,,,387.31779980000283,387.3339012000033,387.83389180000086,387.81744210000033,387.82800080000015,387.83389180000086,387.83389180000086,387.83389180000086,391.53432260000045,Objects\189a.jpg,pre,o,3.6875842999979795,None,,,,,,,,00001,001,2025-11-08_17h07.29.968,MST_test,2024.2.2,60.01500375034023,2025-11-08 17h07.35.569524 +0530,
100,0,100,o,6.296666900001583,None,100,0,100,0,391.55050630000187,,,,,,,,,,,,,,,,,,,,,,,,,,,,,,,,,,,,,,,,,,,,,,,,,,391.5344096000008,391.55050630000187,392.05049230000077,392.0339633000003,392.04382960000294,392.05049230000077,392.05049230000077,392.05049230000077,398.3507399000009,Objects\019a.jpg,post,o,6.296666900001583,None,,,,,,,,00001,001,2025-11-08_17h07.29.968,MST_test,2024.2.2,60.01500375034023,2025-11-08 17h07.35.569524 +0530,
101,0,101,s,4.127045599998382,None,101,0,101,0,398.36703300000227,,,,,,,,,,,,,,,,,,,,,,,,,,,,,,,,,,,,,,,,,,,,,,,,,,398.35082070000135,398.36703300000227,398.88365460000205,398.8505753000027,398.8672136000023,398.88365460000205,398.88365460000205,398.88365460000205,403.0173203000013,Objects\073b.jpg,post,s,4.127045599998382,None,,,,,,,,00001,001,2025-11-08_17h07.29.968,MST_test,2024.2.2,60.01500375034023,2025-11-08 17h07.35.569524 +0530,
102,0,102,s,1.3768320999988646,None,102,0,102,0,403.0336227000007,,,,,,,,,,,,,,,,,,,,,,,,,,,,,,,,,,,,,,,,,,,,,,,,,,403.01740300000165,403.0336227000007,403.5502348000009,403.5172201000023,403.53281400000196,403.5502348000009,403.5502348000009,403.5502348000009,404.9339473,Objects\106b.jpg,pre,s,1.3768320999988646,None,,,,,,,,00001,001,2025-11-08_17h07.29.968,MST_test,2024.2.2,60.01500375034023,2025-11-08 17h07.35.569524 +0530,
103,0,103,s,2.0521176000002015,None,103,0,103,0,404.95022110000355,,,,,,,,,,,,,,,,,,,,,,,,,,,,,,,,,,,,,,,,,,,,,,,,,,404.934032000001,404.95022110000355,405.46693570000207,405.4337966000021,405.45007110000006,405.46693570000207,405.46693570000207,405.46693570000207,407.5337786000018,Foils\113a.jpg,none,s,2.0521176000002015,None,,,,,,,,00001,001,2025-11-08_17h07.29.968,MST_test,2024.2.2,60.01500375034023,2025-11-08 17h07.35.569524 +0530,
104,0,104,n,1.0524025999984588,None,104,0,104,0,407.55016310000065,,,,,,,,,,,,,,,,,,,,,,,,,,,,,,,,,,,,,,,,,,,,,,,,,,407.53385920000073,407.55016310000065,408.06704270000046,408.0337806000025,408.06221000000005,408.06704270000046,408.06704270000046,408.06704270000046,409.1337581000007,Scenes\014b.jpg,post,n,1.0524025999984588,None,,,,,,,,00001,001,2025-11-08_17h07.29.968,MST_test,2024.2.2,60.01500375034023,2025-11-08 17h07.35.569524 +0530,
105,0,105,s,2.2365600999983144,None,105,0,105,0,409.1501308000006,,,,,,,,,,,,,,,,,,,,,,,,,,,,,,,,,,,,,,,,,,,,,,,,,,409.1338402000001,409.1501308000006,409.68361800000275,409.63379460000215,409.6643885000012,409.68361800000275,409.68361800000275,409.68361800000275,411.93367480000234,Scenes\133b.jpg,pre,s,2.2365600999983144,None,,,,,,,,00001,001,2025-11-08_17h07.29.968,MST_test,2024.2.2,60.01500375034023,2025-11-08 17h07.35.569524 +0530,
106,0,106,o,1.1240566999986186,None,106,0,106,0,411.9500673000002,,,,,,,,,,,,,,,,,,,,,,,,,,,,,,,,,,,,,,,,,,,,,,,,,,411.9337544000009,411.9500673000002,412.4667186000006,412.4337239000015,412.4545277000034,412.4667186000006,412.4667186000006,412.4667186000006,413.6003930000006,Scenes\055a.jpg,pre,o,1.1240566999986186,None,,,,,,,,00001,001,2025-11-08_17h07.29.968,MST_test,2024.2.2,60.01500375034023,2025-11-08 17h07.35.569524 +0530,
107,0,107,o,1.0788754999994126,None,107,0,107,0,413.61669280000206,,,,,,,,,,,,,,,,,,,,,,,,,,,,,,,,,,,,,,,,,,,,,,,,,,413.600473100003,413.61669280000206,414.14997830000357,414.1001795000011,414.13630320000084,414.14997830000357,414.14997830000357,414.14997830000357,415.2338288000028,Scenes\083b.jpg,mid,o,1.0788754999994126,None,,,,,,,,00001,001,2025-11-08_17h07.29.968,MST_test,2024.2.2,60.01500375034023,2025-11-08 17h07.35.569524 +0530,
108,0,108,o,1.1891695999984222,None,108,0,108,0,415.2499913000029,,,,,,,,,,,,,,,,,,,,,,,,,,,,,,,,,,,,,,,,,,,,,,,,,,415.2339126000006,415.2499913000029,415.7499433000012,415.73347360000116,415.74307020000197,415.7499433000012,415.7499433000012,415.7499433000012,416.9503863000027,Objects\171a.jpg,post,o,1.1891695999984222,None,,,,,,,,00001,001,2025-11-08_17h07.29.968,MST_test,2024.2.2,60.01500375034023,2025-11-08 17h07.35.569524 +0530,
109,0,109,n,1.1635233000015432,None,109,0,109,0,416.9666195000027,,,,,,,,,,,,,,,,,,,,,,,,,,,,,,,,,,,,,,,,,,,,,,,,,,416.9504640000014,416.9666195000027,417.49994170000355,417.4502141000012,417.4921178000004,417.49994170000355,417.49994170000355,417.49994170000355,418.66689800000313,Scenes\182b.jpg,post,n,1.1635233000015432,None,,,,,,,,00001,001,2025-11-08_17h07.29.968,MST_test,2024.2.2,60.01500375034023,2025-11-08 17h07.35.569524 +0530,
110,0,110,o,3.36910060000082,None,110,0,110,0,418.6832205000028,,,,,,,,,,,,,,,,,,,,,,,,,,,,,,,,,,,,,,,,,,,,,,,,,,418.6669769,418.6832205000028,419.20012320000023,419.16675570000007,419.1836088000018,419.20012320000023,419.20012320000023,419.20012320000023,422.5835493000013,Scenes\079a.jpg,post,o,3.36910060000082,None,,,,,,,,00001,001,2025-11-08_17h07.29.968,MST_test,2024.2.2,60.01500375034023,2025-11-08 17h07.35.569524 +0530,
111,0,111,o,1.166726400002517,None,111,0,111,0,422.5998537000014,,,,,,,,,,,,,,,,,,,,,,,,,,,,,,,,,,,,,,,,,,,,,,,,,,422.5836252000008,422.5998537000014,423.09999820000303,423.0832713000018,423.0931714000035,423.09999820000303,423.09999820000303,423.09999820000303,424.2833971,Objects\025a.jpg,pre,o,1.166726400002517,None,,,,,,,,00001,001,2025-11-08_17h07.29.968,MST_test,2024.2.2,60.01500375034023,2025-11-08 17h07.35.569524 +0530,
112,0,112,o,0.9808378000016091,None,112,0,112,0,424.2997570000007,,,,,,,,,,,,,,,,,,,,,,,,,,,,,,,,,,,,,,,,,,,,,,,,,,424.28347040000153,424.2997570000007,424.81644770000275,424.78327280000303,424.7996656000032,424.81644770000275,424.81644770000275,424.81644770000275,425.8000901000014,Objects\050b.jpg,pre,o,0.9808378000016091,None,,,,,,,,00001,001,2025-11-08_17h07.29.968,MST_test,2024.2.2,60.01500375034023,2025-11-08 17h07.35.569524 +0530,
113,0,113,o,1.0064418000001751,None,113,0,113,0,425.8164214000026,,,,,,,,,,,,,,,,,,,,,,,,,,,,,,,,,,,,,,,,,,,,,,,,,,425.8001667000026,425.8164214000026,426.31638810000004,426.29998440000054,426.3101097000035,426.31638810000004,426.31638810000004,426.31638810000004,427.3333765000025,Objects\002a.jpg,mid,o,1.0064418000001751,None,,,,,,,,00001,001,2025-11-08_17h07.29.968,MST_test,2024.2.2,60.01500375034023,2025-11-08 17h07.35.569524 +0530,
114,0,114,s,1.4477139999980864,None,114,0,114,0,427.34973620000164,,,,,,,,,,,,,,,,,,,,,,,,,,,,,,,,,,,,,,,,,,,,,,,,,,427.33345290000216,427.34973620000164,427.84968370000206,427.83318750000035,427.84255610000037,427.84968370000206,427.84968370000206,427.84968370000206,429.29995600000257,Objects\122a.jpg,post,s,1.4477139999980864,None,,,,,,,,00001,001,2025-11-08_17h07.29.968,MST_test,2024.2.2,60.01500375034023,2025-11-08 17h07.35.569524 +0530,
115,0,115,s,1.2352676999980758,None,115,0,115,0,429.3163455000031,,,,,,,,,,,,,,,,,,,,,,,,,,,,,,,,,,,,,,,,,,,,,,,,,,429.30004270000063,429.3163455000031,429.84990910000124,429.7999813000024,429.8365571000031,429.84990910000124,429.84990910000124,429.84990910000124,431.10007040000346,Scenes\145b.jpg,mid,s,1.2352676999980758,None,,,,,,,,00001,001,2025-11-08_17h07.29.968,MST_test,2024.2.2,60.01500375034023,2025-11-08 17h07.35.569524 +0530,
116,0,116,s,3.057671200000186,None,116,0,116,0,431.11631080000006,,,,,,,,,,,,,,,,,,,,,,,,,,,,,,,,,,,,,,,,,,,,,,,,,,431.1001565000006,431.11631080000006,431.63295740000103,431.5998625000029,431.6205132000032,431.63295740000103,431.63295740000103,431.63295740000103,434.69985520000046,Scenes\074a.jpg,mid,s,3.057671200000186,None,,,,,,,,00001,001,2025-11-08_17h07.29.968,MST_test,2024.2.2,60.01500375034023,2025-11-08 17h07.35.569524 +0530,
117,0,117,o,1.5837924000006751,None,117,0,117,0,434.716190500003,,,,,,,,,,,,,,,,,,,,,,,,,,,,,,,,,,,,,,,,,,,,,,,,,,434.6999426000002,434.716190500003,435.2328484000027,435.1996638000019,435.22066800000175,435.2328484000027,435.2328484000027,435.2328484000027,436.83310320000237,Objects\146b.jpg,mid,o,1.5837924000006751,None,,,,,,,,00001,001,2025-11-08_17h07.29.968,MST_test,2024.2.2,60.01500375034023,2025-11-08 17h07.35.569524 +0530,
118,0,118,n,1.173560200000793,None,118,0,118,0,436.84952050000356,,,,,,,,,,,,,,,,,,,,,,,,,,,,,,,,,,,,,,,,,,,,,,,,,,436.83318280000094,436.84952050000356,437.34966310000164,437.33302410000033,437.3454756000028,437.34966310000164,437.34966310000164,437.34966310000164,438.53318330000184,Foils\scenes5.jpg,none,n,1.173560200000793,None,,,,,,,,00001,001,2025-11-08_17h07.29.968,MST_test,2024.2.2,60.01500375034023,2025-11-08 17h07.35.569524 +0530,
119,0,119,s,2.919747099997039,None,119,0,119,0,438.5494733000014,,,,,,,,,,,,,,,,,,,,,,,,,,,,,,,,,,,,,,,,,,,,,,,,,,438.53326860000016,438.5494733000014,439.06635760000063,439.0329651000029,439.06004040000334,439.06635760000063,439.06635760000063,439.06635760000063,441.9996777000015,Scenes\032a.jpg,mid,s,2.919747099997039,None,,,,,,,,00001,001,2025-11-08_17h07.29.968,MST_test,2024.2.2,60.01500375034023,2025-11-08 17h07.35.569524 +0530,
120,0,120,n,1.1528650000000198,None,120,0,120,0,442.0160360000009,,,,,,,,,,,,,,,,,,,,,,,,,,,,,,,,,,,,,,,,,,,,,,,,,,441.999756600002,442.0160360000009,442.54957090000244,442.49959560000207,442.534257000003,442.54957090000244,442.54957090000244,442.54957090000244,443.71634050000284,Foils\scenes23.jpg,none,n,1.1528650000000198,None,,,,,,,,00001,001,2025-11-08_17h07.29.968,MST_test,2024.2.2,60.01500375034023,2025-11-08 17h07.35.569524 +0530,
121,0,121,s,1.3615180999986478,None,121,0,121,0,443.73268940000344,,,,,,,,,,,,,,,,,,,,,,,,,,,,,,,,,,,,,,,,,,,,,,,,,,443.7164208000031,443.73268940000344,444.24958320000223,444.21625570000106,444.2377312000026,444.24958320000223,444.24958320000223,444.24958320000223,445.61645820000194,Objects\116b.jpg,mid,s,1.3615180999986478,None,,,,,,,,00001,001,2025-11-08_17h07.29.968,MST_test,2024.2.2,60.01500375034023,2025-11-08 17h07.35.569524 +0530,
122,0,122,n,2.187368700000661,None,122,0,122,0,445.6326211000014,,,,,,,,,,,,,,,,,,,,,,,,,,,,,,,,,,,,,,,,,,,,,,,,,,445.6165405000029,445.6326211000014,446.1493138000005,446.11616160000267,446.1323177000013,446.1493138000005,446.1493138000005,446.1493138000005,448.3495313000021,Foils\050a.jpg,none,n,2.187368700000661,None,,,,,,,,00001,001,2025-11-08_17h07.29.968,MST_test,2024.2.2,60.01500375034023,2025-11-08 17h07.35.569524 +0530,
123,0,123,s,1.3344422999980452,None,123,0,123,0,448.3659253000005,,,,,,,,,,,,,,,,,,,,,,,,,,,,,,,,,,,,,,,,,,,,,,,,,,448.3496193000028,448.3659253000005,448.8825480000014,448.8494111,448.87029220000113,448.8825480000014,448.8825480000014,448.8825480000014,450.2329191000026,Objects\115b.jpg,post,s,1.3344422999980452,None,,,,,,,,00001,001,2025-11-08_17h07.29.968,MST_test,2024.2.2,60.01500375034023,2025-11-08 17h07.35.569524 +0530,
124,0,124,n,1.104679699998087,None,124,0,124,0,450.2492149000027,,,,,,,,,,,,,,,,,,,,,,,,,,,,,,,,,,,,,,,,,,,,,,,,,,450.2330116000012,450.2492149000027,450.7658490000031,450.73266400000284,450.7493964000023,450.7658490000031,450.7658490000031,450.7658490000031,451.8829052000001,Foils\017a.jpg,none,n,1.104679699998087,None,,,,,,,,00001,001,2025-11-08_17h07.29.968,MST_test,2024.2.2,60.01500375034023,2025-11-08 17h07.35.569524 +0530,
125,0,125,s,1.4384480000007898,None,125,0,125,0,451.8991799000032,,,,,,,,,,,,,,,,,,,,,,,,,,,,,,,,,,,,,,,,,,,,,,,,,,451.8829844000029,451.8991799000032,452.399129100002,452.3828511000029,452.39316690000123,452.399129100002,452.399129100002,452.399129100002,453.8495232000023,Objects\018a.jpg,pre,s,1.4384480000007898,None,,,,,,,,00001,001,2025-11-08_17h07.29.968,MST_test,2024.2.2,60.01500375034023,2025-11-08 17h07.35.569524 +0530,
126,0,126,o,1.3152332000026945,None,126,0,126,0,453.8658067000033,,,,,,,,,,,,,,,,,,,,,,,,,,,,,,,,,,,,,,,,,,,,,,,,,,453.8496043000014,453.8658067000033,454.36609020000105,454.3494039000034,454.3605624000011,454.36609020000105,454.36609020000105,454.36609020000105,455.6826559000001,Foils\scenes2.jpg,none,o,1.3152332000026945,None,,,,,,,,00001,001,2025-11-08_17h07.29.968,MST_test,2024.2.2,60.01500375034023,2025-11-08 17h07.35.569524 +0530,
127,0,127,o,6.638894100000471,None,127,0,127,0,455.6991021000031,,,,,,,,,,,,,,,,,,,,,,,,,,,,,,,,,,,,,,,,,,,,,,,,,,455.68273780000163,455.6991021000031,456.2326592000027,456.18263910000314,456.21681830000307,456.2326592000027,456.2326592000027,456.2326592000027,462.88259160000234,Scenes\073b.jpg,pre,o,6.638894100000471,None,,,,,,,,00001,001,2025-11-08_17h07.29.968,MST_test,2024.2.2,60.01500375034023,2025-11-08 17h07.35.569524 +0530,
128,0,128,s,1.123542900000757,None,128,0,128,0,462.89894950000235,,,,,,,,,,,,,,,,,,,,,,,,,,,,,,,,,,,,,,,,,,,,,,,,,,462.8826760000011,462.89894950000235,463.4158141000007,463.3825336000009,463.4098455000021,463.4158141000007,463.4158141000007,463.4158141000007,464.5491839000024,Scenes\022b.jpg,post,s,1.123542900000757,None,,,,,,,,00001,001,2025-11-08_17h07.29.968,MST_test,2024.2.2,60.01500375034023,2025-11-08 17h07.35.569524 +0530,
129,0,129,o,1.2024044999998296,None,129,0,129,0,464.56553970000095,,,,,,,,,,,,,,,,,,,,,,,,,,,,,,,,,,,,,,,,,,,,,,,,,,464.54927020000105,464.56553970000095,465.0658230000008,465.04912810000314,465.0589684000006,465.0658230000008,465.0658230000008,465.0658230000008,466.282561,Objects\049a.jpg,mid,o,1.2024044999998296,None,,,,,,,,00001,001,2025-11-08_17h07.29.968,MST_test,2024.2.2,60.01500375034023,2025-11-08 17h07.35.569524 +0530,
130,0,130,o,3.1898178000010375,None,130,0,130,0,466.2988675000015,,,,,,,,,,,,,,,,,,,,,,,,,,,,,,,,,,,,,,,,,,,,,,,,,,466.282644400002,466.2988675000015,466.8157532000005,466.78238540000166,466.80236650000006,466.8157532000005,466.8157532000005,466.8157532000005,470.01579440000205,Scenes\104a.jpg,post,o,3.1898178000010375,None,,,,,,,,00001,001,2025-11-08_17h07.29.968,MST_test,2024.2.2,60.01500375034023,2025-11-08 17h07.35.569524 +0530,
131,0,131,n,1.7159305999994103,None,131,0,131,0,470.03211640000154,,,,,,,,,,,,,,,,,,,,,,,,,,,,,,,,,,,,,,,,,,,,,,,,,,470.01587650000147,470.03211640000154,470.54874370000107,470.51564300000246,470.5403589000016,470.54874370000107,470.54874370000107,470.54874370000107,472.2658371000034,Objects\120b.jpg,mid,n,1.7159305999994103,None,,,,,,,,00001,001,2025-11-08_17h07.29.968,MST_test,2024.2.2,60.01500375034023,2025-11-08 17h07.35.569524 +0530,
132,0,132,n,1.569669199998316,None,132,0,132,0,472.28207230000044,,,,,,,,,,,,,,,,,,,,,,,,,,,,,,,,,,,,,,,,,,,,,,,,,,472.26593210000283,472.28207230000044,472.79869300000064,472.76557780000076,472.78058220000094,472.79869300000064,472.79869300000064,472.79869300000064,474.38239140000223,Foils\042a.jpg,none,n,1.569669199998316,None,,,,,,,,00001,001,2025-11-08_17h07.29.968,MST_test,2024.2.2,60.01500375034023,2025-11-08 17h07.35.569524 +0530,
133,0,133,o,0.9579723000024387,None,133,0,133,0,474.3986907000035,,,,,,,,,,,,,,,,,,,,,,,,,,,,,,,,,,,,,,,,,,,,,,,,,,474.3824717000025,474.3986907000035,474.94895890000043,474.88225870000315,474.9319459000035,474.94895890000043,474.94895890000043,474.94895890000043,475.9157305000008,Scenes\026b.jpg,post,o,0.9579723000024387,None,,,,,,,,00001,001,2025-11-08_17h07.29.968,MST_test,2024.2.2,60.01500375034023,2025-11-08 17h07.35.569524 +0530,
134,0,134,o,2.29805110000234,None,134,0,134,0,475.93201770000087,,,,,,,,,,,,,,,,,,,,,,,,,,,,,,,,,,,,,,,,,,,,,,,,,,475.9158125000031,475.93201770000087,476.44889570000305,476.41557170000306,476.43822470000305,476.44889570000305,476.44889570000305,476.44889570000305,478.74898790000225,Scenes\084a.jpg,pre,o,2.29805110000234,None,,,,,,,,00001,001,2025-11-08_17h07.29.968,MST_test,2024.2.2,60.01500375034023,2025-11-08 17h07.35.569524 +0530,
135,0,135,s,1.6158208000015293,None,135,0,135,0,478.7652573000014,,,,,,,,,,,,,,,,,,,,,,,,,,,,,,,,,,,,,,,,,,,,,,,,,,478.74906210000336,478.7652573000014,479.2654478000004,479.2487248000034,479.25876790000257,479.2654478000004,479.2654478000004,479.2654478000004,480.8822050000017,Objects\170a.jpg,mid,s,1.6158208000015293,None,,,,,,,,00001,001,2025-11-08_17h07.29.968,MST_test,2024.2.2,60.01500375034023,2025-11-08 17h07.35.569524 +0530,
136,0,136,o,3.320544099999097,None,136,0,136,0,480.89853550000043,,,,,,,,,,,,,,,,,,,,,,,,,,,,,,,,,,,,,,,,,,,,,,,,,,480.8822850000033,480.89853550000043,481.39850000000297,481.3821706000017,481.39199890000236,481.39850000000297,481.39850000000297,481.39850000000297,484.7321787000001,Objects\132a.jpg,post,o,3.320544099999097,None,,,,,,,,00001,001,2025-11-08_17h07.29.968,MST_test,2024.2.2,60.01500375034023,2025-11-08 17h07.35.569524 +0530,
137,0,137,o,2.2071237999989535,None,137,0,137,0,484.7484620000032,,,,,,,,,,,,,,,,,,,,,,,,,,,,,,,,,,,,,,,,,,,,,,,,,,484.73226030000296,484.7484620000032,485.24841760000345,485.23207930000353,485.24187840000013,485.24841760000345,485.24841760000345,485.24841760000345,487.46544450000147,Objects\101a.jpg,pre,o,2.2071237999989535,None,,,,,,,,00001,001,2025-11-08_17h07.29.968,MST_test,2024.2.2,60.01500375034023,2025-11-08 17h07.35.569524 +0530,
138,0,138,s,2.850454700001137,None,138,0,138,0,487.4817393000012,,,,,,,,,,,,,,,,,,,,,,,,,,,,,,,,,,,,,,,,,,,,,,,,,,487.4655296000019,487.4817393000012,487.99839040000006,487.9653134,487.98171090000324,487.99839040000006,487.99839040000006,487.99839040000006,490.86531580000155,Foils\105a.jpg,none,s,2.850454700001137,None,,,,,,,,00001,001,2025-11-08_17h07.29.968,MST_test,2024.2.2,60.01500375034023,2025-11-08 17h07.35.569524 +0530,
139,0,139,s,2.9677422999993723,None,139,0,139,0,490.88165890000164,,,,,,,,,,,,,,,,,,,,,,,,,,,,,,,,,,,,,,,,,,,,,,,,,,490.86539880000055,490.88165890000164,491.38161000000036,491.3651927000028,491.37618700000166,491.38161000000036,491.38161000000036,491.38161000000036,494.36524960000315,Objects\161a.jpg,pre,s,2.9677422999993723,None,,,,,,,,00001,001,2025-11-08_17h07.29.968,MST_test,2024.2.2,60.01500375034023,2025-11-08 17h07.35.569524 +0530,
140,0,140,s,1.4976132000010693,None,140,0,140,0,494.3815781000012,,,,,,,,,,,,,,,,,,,,,,,,,,,,,,,,,,,,,,,,,,,,,,,,,,494.3653249000017,494.3815781000012,494.8815304000018,494.8651088000006,494.874806900003,494.8815304000018,494.8815304000018,494.8815304000018,496.38184550000005,Objects\047a.jpg,pre,s,1.4976132000010693,None,,,,,,,,00001,001,2025-11-08_17h07.29.968,MST_test,2024.2.2,60.01500375034023,2025-11-08 17h07.35.569524 +0530,
141,0,141,s,1.5644269999975222,None,141,0,141,0,496.398171300003,,,,,,,,,,,,,,,,,,,,,,,,,,,,,,,,,,,,,,,,,,,,,,,,,,496.3819293000015,496.398171300003,496.8984694000028,496.88173520000055,496.8884016000011,496.8984694000028,496.8984694000028,496.8984694000028,498.46523680000246,Foils\scenes8.jpg,none,s,1.5644269999975222,None,,,,,,,,00001,001,2025-11-08_17h07.29.968,MST_test,2024.2.2,60.01500375034023,2025-11-08 17h07.35.569524 +0530,
142,0,142,s,1.1450547999993432,None,142,0,142,0,498.4814877000026,,,,,,,,,,,,,,,,,,,,,,,,,,,,,,,,,,,,,,,,,,,,,,,,,,498.4653215000035,498.4814877000026,498.99815480000325,498.96502950000286,498.98057900000276,498.99815480000325,498.99815480000325,498.99815480000325,500.1484438000007,Objects\063b.jpg,mid,s,1.1450547999993432,None,,,,,,,,00001,001,2025-11-08_17h07.29.968,MST_test,2024.2.2,60.01500375034023,2025-11-08 17h07.35.569524 +0530,
143,0,143,o,2.2179800999983854,None,143,0,143,0,500.16480950000187,,,,,,,,,,,,,,,,,,,,,,,,,,,,,,,,,,,,,,,,,,,,,,,,,,500.1485190000021,500.16480950000187,500.6816456000015,500.6482928000005,500.66847410000264,500.6816456000015,500.6816456000015,500.6816456000015,502.9149744000024,Scenes\115a.jpg,pre,o,2.2179800999983854,None,,,,,,,,00001,001,2025-11-08_17h07.29.968,MST_test,2024.2.2,60.01500375034023,2025-11-08 17h07.35.569524 +0530,
144,0,144,o,1.098123100000521,None,144,0,144,0,502.93138380000164,,,,,,,,,,,,,,,,,,,,,,,,,,,,,,,,,,,,,,,,,,,,,,,,,,502.9150529000035,502.93138380000164,503.43134620000274,503.4148610000011,503.42526740000176,503.43134620000274,503.43134620000274,503.43134620000274,504.5317625000025,Objects\133a.jpg,mid,o,1.098123100000521,None,,,,,,,,00001,001,2025-11-08_17h07.29.968,MST_test,2024.2.2,60.01500375034023,2025-11-08 17h07.35.569524 +0530,
145,0,145,o,1.4105072999991535,None,145,0,145,0,504.5480206000029,,,,,,,,,,,,,,,,,,,,,,,,,,,,,,,,,,,,,,,,,,,,,,,,,,504.53184500000134,504.5480206000029,505.0646514,505.03153600000223,505.0495135000019,505.0646514,505.0646514,505.0646514,506.4818144000019,Scenes\152a.jpg,mid,o,1.4105072999991535,None,,,,,,,,00001,001,2025-11-08_17h07.29.968,MST_test,2024.2.2,60.01500375034023,2025-11-08 17h07.35.569524 +0530,
146,0,146,s,1.3280131000028632,None,146,0,146,0,506.4979777000008,,,,,,,,,,,,,,,,,,,,,,,,,,,,,,,,,,,,,,,,,,,,,,,,,,506.4819012000007,506.4979777000008,507.03127230000246,506.9815073000027,507.0153979000024,507.03127230000246,507.03127230000246,507.03127230000246,508.3650880000023,Scenes\029b.jpg,mid,s,1.3280131000028632,None,,,,,,,,00001,001,2025-11-08_17h07.29.968,MST_test,2024.2.2,60.01500375034023,2025-11-08 17h07.35.569524 +0530,
147,0,147,n,0.8384465000017371,None,147,0,147,0,508.3813001000017,,,,,,,,,,,,,,,,,,,,,,,,,,,,,,,,,,,,,,,,,,,,,,,,,,508.3651753000013,508.3813001000017,508.8979235000006,508.8647387000019,508.8805616000027,508.8979235000006,508.8979235000006,508.8979235000006,509.74833090000175,Objects\097b.jpg,pre,n,0.8384465000017371,None,,,,,,,,00001,001,2025-11-08_17h07.29.968,MST_test,2024.2.2,60.01500375034023,2025-11-08 17h07.35.569524 +0530,
148,0,148,s,1.3193804000002274,None,148,0,148,0,509.76457310000114,,,,,,,,,,,,,,,,,,,,,,,,,,,,,,,,,,,,,,,,,,,,,,,,,,509.74841260000176,509.76457310000114,510.2812085000005,510.2480624000018,510.2693874000033,510.2812085000005,510.2812085000005,510.2812085000005,511.6149428000026,Scenes\004a.jpg,post,s,1.3193804000002274,None,,,,,,,,00001,001,2025-11-08_17h07.29.968,MST_test,2024.2.2,60.01500375034023,2025-11-08 17h07.35.569524 +0530,
149,0,149,o,0.9469023000019661,None,149,0,149,0,511.63119370000277,,,,,,,,,,,,,,,,,,,,,,,,,,,,,,,,,,,,,,,,,,,,,,,,,,511.61502680000194,511.63119370000277,512.148075000001,512.1146781000025,512.1422418000002,512.148075000001,512.148075000001,512.148075000001,513.0981954000017,Scenes\033b.jpg,pre,o,0.9469023000019661,None,,,,,,,,00001,001,2025-11-08_17h07.29.968,MST_test,2024.2.2,60.01500375034023,2025-11-08 17h07.35.569524 +0530,
,,,,,,,,,,,,,,,,,,,,,,,,,,,,,,,,,,,,,,,,,,,,,,,,,,,,,,,,,,,,,,,,,,,,,,,,,,513.0982738000021,513.1145090000027,513.1145090000027,514.9314823000022,space,1.816471599999204,None,00001,001,2025-11-08_17h07.29.968,MST_test,2024.2.2,60.01500375034023,2025-11-08 17h07.35.569524 +0530,
