thisN,thisTrialN,thisRepN,key_resp_3.keys,key_resp_3.rt,key_resp_3.duration,trials.thisRepN,trials.thisTrialN,trials.thisN,trials.thisIndex,thisRow.t,notes,intro_page.started,text.started,key_resp.started,intro_page.stopped,key_resp.keys,key_resp.rt,key_resp.duration,instructions.started,text_2.started,key_resp_2.started,instructions.stopped,key_resp_2.keys,key_resp_2.rt,key_resp_2.duration,demo1.started,image_1.started,image_2.started,text_7.started,key_resp_6.started,text_9.started,demo1.stopped,key_resp_6.keys,key_resp_6.rt,key_resp_6.duration,demo2.started,image_5.started,image_6.started,text_11.started,text_12.started,key_resp_8.started,demo2.stopped,key_resp_8.keys,key_resp_8.rt,key_resp_8.duration,demo_conclusion.started,text_13.started,key_resp_9.started,demo_conclusion.stopped,key_resp_9.keys,key_resp_9.rt,key_resp_9.duration,start_test.started,text_6.started,key_resp_5.started,start_test.stopped,key_resp_5.keys,key_resp_5.rt,key_resp_5.duration,ISI.started,text_4.started,text_4.stopped,ISI.stopped,routine_1.started,image.started,text_3.started,key_resp_3.started,routine_1.stopped,image_path,position_of_stimuli,trials.key_resp_3.keys,trials.key_resp_3.rt,trials.key_resp_3.duration,End_page.started,text_5.started,key_resp_4.started,End_page.stopped,key_resp_4.keys,key_resp_4.rt,key_resp_4.duration,participant,session,date,expName,psychopyVersion,frameRate,expStart,
,,,,,,,,,,,,0.006368300004396588,0.022633100001257844,0.022633100001257844,3.490811499999836,space,3.4530393999884836,None,,,,,,,,,,,,,,,,,,,,,,,,,,,,,,,,,,,,,,,,,,,,,,,,,,,,,,,,,,,,,,,00005,001,2025-11-09_17h45.24.630,MST_test,2024.2.2,60.00247210146506,2025-11-09 17h45.35.230435 +0530,
,,,,,,,,,,,,,,,,,,,3.4908399999985704,3.5058888000057777,3.5058888000057777,20.70596150000347,space,17.18578040000284,None,,,,,,,,,,,,,,,,,,,,,,,,,,,,,,,,,,,,,,,,,,,,,,,,,,,,,,,,00005,001,2025-11-09_17h45.24.630,MST_test,2024.2.2,60.00247210146506,2025-11-09 17h45.35.230435 +0530,
,,,,,,,,,,,,,,,,,,,,,,,,,,20.705990200003725,20.722194999994827,20.722194999994827,20.722194999994827,20.722194999994827,20.722194999994827,27.639100799991866,space,6.905505399990943,None,,,,,,,,,,,,,,,,,,,,,,,,,,,,,,,,,,,,,,,,,,,,,,00005,001,2025-11-09_17h45.24.630,MST_test,2024.2.2,60.00247210146506,2025-11-09 17h45.35.230435 +0530,
,,,,,,,,,,,,,,,,,,,,,,,,,,,,,,,,,,,,27.63912629999686,27.65549689999898,27.65549689999898,27.65549689999898,27.65549689999898,27.65549689999898,30.939048899992486,space,3.273904499990749,None,,,,,,,,,,,,,,,,,,,,,,,,,,,,,,,,,,,,00005,001,2025-11-09_17h45.24.630,MST_test,2024.2.2,60.00247210146506,2025-11-09 17h45.35.230435 +0530,
,,,,,,,,,,,,,,,,,,,,,,,,,,,,,,,,,,,,,,,,,,,,,,30.939079300005687,30.955364499997813,30.955364499997813,71.72144169999228,space,40.76204499999585,None,,,,,,,,,,,,,,,,,,,,,,,,,,,,,00005,001,2025-11-09_17h45.24.630,MST_test,2024.2.2,60.00247210146506,2025-11-09 17h45.35.230435 +0530,
,,,,,,,,,,,,,,,,,,,,,,,,,,,,,,,,,,,,,,,,,,,,,,,,,,,,,71.7214740000054,71.73787379999703,71.73787379999703,91.820976899995,space,20.07970290000958,None,,,,,,,,,,,,,,,,,,,,,,00005,001,2025-11-09_17h45.24.630,MST_test,2024.2.2,60.00247210146506,2025-11-09 17h45.35.230435 +0530,
0,0,0,o,3.522770900002797,None,0,0,0,0,91.8373900000006,,,,,,,,,,,,,,,,,,,,,,,,,,,,,,,,,,,,,,,,,,,,,,,,,,91.82360970000445,91.8373900000006,92.3541830000031,92.3209235999966,92.33459289999155,92.3541830000031,92.3541830000031,92.3541830000031,95.88755119999405,Scenes\042a.jpg,pre,o,3.522770900002797,None,,,,,,,,00005,001,2025-11-09_17h45.24.630,MST_test,2024.2.2,60.00247210146506,2025-11-09 17h45.35.230435 +0530,
1,0,1,o,2.471557599987136,None,1,0,1,0,95.90388450000319,,,,,,,,,,,,,,,,,,,,,,,,,,,,,,,,,,,,,,,,,,,,,,,,,,95.88764349999838,95.90388450000319,96.40410889999475,96.38747879999573,96.39721549999376,96.40410889999475,96.40410889999475,96.40410889999475,98.88756730000023,Objects\046a.jpg,mid,o,2.471557599987136,None,,,,,,,,00005,001,2025-11-09_17h45.24.630,MST_test,2024.2.2,60.00247210146506,2025-11-09 17h45.35.230435 +0530,
2,0,2,o,2.362154400005238,None,2,0,2,0,98.90381780000462,,,,,,,,,,,,,,,,,,,,,,,,,,,,,,,,,,,,,,,,,,,,,,,,,,98.88765190000413,98.90381780000462,99.40383070000098,99.38737699999183,99.39746079999895,99.40383070000098,99.40383070000098,99.40383070000098,101.77081069999258,Objects\078a.jpg,mid,o,2.362154400005238,None,,,,,,,,00005,001,2025-11-09_17h45.24.630,MST_test,2024.2.2,60.00247210146506,2025-11-09 17h45.35.230435 +0530,
3,0,3,n,3.455549099991913,None,3,0,3,0,101.78710950000095,,,,,,,,,,,,,,,,,,,,,,,,,,,,,,,,,,,,,,,,,,,,,,,,,,101.77089909999631,101.78710950000095,102.30373210000107,102.27062199999637,102.2894321000058,102.30373210000107,102.30373210000107,102.30373210000107,105.77083179999318,Scenes\168b.jpg,pre,n,3.455549099991913,None,,,,,,,,00005,001,2025-11-09_17h45.24.630,MST_test,2024.2.2,60.00247210146506,2025-11-09 17h45.35.230435 +0530,
4,0,4,s,3.0236426000046777,None,4,0,4,0,105.787052700005,,,,,,,,,,,,,,,,,,,,,,,,,,,,,,,,,,,,,,,,,,,,,,,,,,105.77093450000393,105.787052700005,106.30390699999407,106.2705205999955,106.28667960000166,106.30390699999407,106.30390699999407,106.30390699999407,109.33740699999908,Scenes\076a.jpg,pre,s,3.0236426000046777,None,,,,,,,,00005,001,2025-11-09_17h45.24.630,MST_test,2024.2.2,60.00247210146506,2025-11-09 17h45.35.230435 +0530,
5,0,5,n,2.8613023000070825,None,5,0,5,0,109.35363509999297,,,,,,,,,,,,,,,,,,,,,,,,,,,,,,,,,,,,,,,,,,,,,,,,,,109.33750389999477,109.35363509999297,109.87048389999836,109.83715019999363,109.85434029999305,109.87048389999836,109.87048389999836,109.87048389999836,112.7372791999951,Foils\073a.jpg,none,n,2.8613023000070825,None,,,,,,,,00005,001,2025-11-09_17h45.24.630,MST_test,2024.2.2,60.00247210146506,2025-11-09 17h45.35.230435 +0530,
6,0,6,n,2.2895191999996314,None,6,0,6,0,112.75352470000507,,,,,,,,,,,,,,,,,,,,,,,,,,,,,,,,,,,,,,,,,,,,,,,,,,112.73736939999799,112.75352470000507,113.27018690000114,113.2371237000043,113.25246570000309,113.27018690000114,113.27018690000114,113.27018690000114,115.57043769999291,Foils\018a.jpg,none,n,2.2895191999996314,None,,,,,,,,00005,001,2025-11-09_17h45.24.630,MST_test,2024.2.2,60.00247210146506,2025-11-09 17h45.35.230435 +0530,
7,0,7,o,1.6804919999995036,None,7,0,7,0,115.58678309999232,,,,,,,,,,,,,,,,,,,,,,,,,,,,,,,,,,,,,,,,,,,,,,,,,,115.57051589999173,115.58678309999232,116.08675059999223,116.07033740000043,116.08146970000234,116.08675059999223,116.08675059999223,116.08675059999223,117.77049199999601,Objects\169a.jpg,pre,o,1.6804919999995036,None,,,,,,,,00005,001,2025-11-09_17h45.24.630,MST_test,2024.2.2,60.00247210146506,2025-11-09 17h45.35.230435 +0530,
8,0,8,s,3.814356199989561,None,8,0,8,0,117.78676180000184,,,,,,,,,,,,,,,,,,,,,,,,,,,,,,,,,,,,,,,,,,,,,,,,,,117.77057880000211,117.78676180000184,118.30348829999275,118.27031649999844,118.28619159999653,118.30348829999275,118.30348829999275,118.30348829999275,122.12037679999776,Foils\082a.jpg,none,s,3.814356199989561,None,,,,,,,,00005,001,2025-11-09_17h45.24.630,MST_test,2024.2.2,60.00247210146506,2025-11-09 17h45.35.230435 +0530,
9,0,9,o,1.4531265999976313,None,9,0,9,0,122.1366585999931,,,,,,,,,,,,,,,,,,,,,,,,,,,,,,,,,,,,,,,,,,,,,,,,,,122.12046109999937,122.1366585999931,122.63666150000063,122.62025989999529,122.63015889999224,122.63666150000063,122.63666150000063,122.63666150000063,124.10364839999238,Objects\079a.jpg,mid,o,1.4531265999976313,None,,,,,,,,00005,001,2025-11-09_17h45.24.630,MST_test,2024.2.2,60.00247210146506,2025-11-09 17h45.35.230435 +0530,
10,0,10,o,1.0963983999972697,None,10,0,10,0,124.11994599999161,,,,,,,,,,,,,,,,,,,,,,,,,,,,,,,,,,,,,,,,,,,,,,,,,,124.10373390000314,124.11994599999161,124.61990819999482,124.60341209999751,124.6131585999974,124.61990819999482,124.61990819999482,124.61990819999482,125.7203698999947,Objects\175a.jpg,mid,o,1.0963983999972697,None,,,,,,,,00005,001,2025-11-09_17h45.24.630,MST_test,2024.2.2,60.00247210146506,2025-11-09 17h45.35.230435 +0530,
11,0,11,s,2.1296288000012282,None,11,0,11,0,125.73658409999916,,,,,,,,,,,,,,,,,,,,,,,,,,,,,,,,,,,,,,,,,,,,,,,,,,125.72045930000604,125.73658409999916,126.27015500000562,126.2201492000022,126.24893129999691,126.27015500000562,126.27015500000562,126.27015500000562,128.40361340000527,Scenes\140b.jpg,mid,s,2.1296288000012282,None,,,,,,,,00005,001,2025-11-09_17h45.24.630,MST_test,2024.2.2,60.00247210146506,2025-11-09 17h45.35.230435 +0530,
12,0,12,o,1.1891227000014624,None,12,0,12,0,128.4198180999956,,,,,,,,,,,,,,,,,,,,,,,,,,,,,,,,,,,,,,,,,,,,,,,,,,128.40369890000147,128.4198180999956,128.93669099999534,128.90330779999204,128.91463460000523,128.93669099999534,128.93669099999534,128.93669099999534,130.13692839999567,Scenes\162a.jpg,post,o,1.1891227000014624,None,,,,,,,,00005,001,2025-11-09_17h45.24.630,MST_test,2024.2.2,60.00247210146506,2025-11-09 17h45.35.230435 +0530,
13,0,13,o,1.1526345000020228,None,13,0,13,0,130.15315779999946,,,,,,,,,,,,,,,,,,,,,,,,,,,,,,,,,,,,,,,,,,,,,,,,,,130.1370079000044,130.15315779999946,130.65342119999696,130.6366326999996,130.64649250000366,130.65342119999696,130.65342119999696,130.65342119999696,131.82003489999624,Objects\055b.jpg,pre,o,1.1526345000020228,None,,,,,,,,00005,001,2025-11-09_17h45.24.630,MST_test,2024.2.2,60.00247210146506,2025-11-09 17h45.35.230435 +0530,
14,0,14,o,0.8413179999915883,None,14,0,14,0,131.83645810000598,,,,,,,,,,,,,,,,,,,,,,,,,,,,,,,,,,,,,,,,,,,,,,,,,,131.82011889999558,131.83645810000598,132.35312189999968,132.3199711000052,132.33295779999753,132.35312189999968,132.35312189999968,132.35312189999968,133.20342570000503,Scenes\143a.jpg,pre,o,0.8413179999915883,None,,,,,,,,00005,001,2025-11-09_17h45.24.630,MST_test,2024.2.2,60.00247210146506,2025-11-09 17h45.35.230435 +0530,
15,0,15,s,3.72148149998975,None,15,0,15,0,133.21971979999216,,,,,,,,,,,,,,,,,,,,,,,,,,,,,,,,,,,,,,,,,,,,,,,,,,133.20350819999294,133.21971979999216,133.71996309999668,133.7033209999936,133.70937899999262,133.71996309999668,133.71996309999668,133.71996309999668,137.45334900000307,Foils\scenes13.jpg,none,s,3.72148149998975,None,,,,,,,,00005,001,2025-11-09_17h45.24.630,MST_test,2024.2.2,60.00247210146506,2025-11-09 17h45.35.230435 +0530,
16,0,16,o,0.8903962000040337,None,16,0,16,0,137.4696597000002,,,,,,,,,,,,,,,,,,,,,,,,,,,,,,,,,,,,,,,,,,,,,,,,,,137.45344209999894,137.4696597000002,137.96993870000006,137.9532734999957,137.96300489999703,137.96993870000006,137.96993870000006,137.96993870000006,138.86991520000447,Objects\022a.jpg,mid,o,0.8903962000040337,None,,,,,,,,00005,001,2025-11-09_17h45.24.630,MST_test,2024.2.2,60.00247210146506,2025-11-09 17h45.35.230435 +0530,
17,0,17,o,1.3258616000093753,None,17,0,17,0,138.88629569999466,,,,,,,,,,,,,,,,,,,,,,,,,,,,,,,,,,,,,,,,,,,,,,,,,,138.86999740000465,138.88629569999466,139.38604349999514,139.36988539999584,139.38239529999555,139.38604349999514,139.38604349999514,139.38604349999514,140.71990379999625,Scenes\061a.jpg,pre,o,1.3258616000093753,None,,,,,,,,00005,001,2025-11-09_17h45.24.630,MST_test,2024.2.2,60.00247210146506,2025-11-09 17h45.35.230435 +0530,
18,0,18,o,0.7276855999953113,None,18,0,18,0,140.7362209999992,,,,,,,,,,,,,,,,,,,,,,,,,,,,,,,,,,,,,,,,,,,,,,,,,,140.71997799999372,140.7362209999992,141.2362332000048,141.21980419999454,141.22971349999716,141.2362332000048,141.2362332000048,141.2362332000048,141.96995790000074,Objects\173a.jpg,mid,o,0.7276855999953113,None,,,,,,,,00005,001,2025-11-09_17h45.24.630,MST_test,2024.2.2,60.00247210146506,2025-11-09 17h45.35.230435 +0530,
19,0,19,o,1.444826799997827,None,19,0,19,0,141.98622520000208,,,,,,,,,,,,,,,,,,,,,,,,,,,,,,,,,,,,,,,,,,,,,,,,,,141.97004529999685,141.98622520000208,142.50285910000093,142.46972059999825,142.4856970999972,142.50285910000093,142.50285910000093,142.50285910000093,143.95314430000144,Objects\047b.jpg,pre,o,1.444826799997827,None,,,,,,,,00005,001,2025-11-09_17h45.24.630,MST_test,2024.2.2,60.00247210146506,2025-11-09 17h45.35.230435 +0530,
20,0,20,s,3.369742300012149,None,20,0,20,0,143.96952189999865,,,,,,,,,,,,,,,,,,,,,,,,,,,,,,,,,,,,,,,,,,,,,,,,,,143.95322979999764,143.96952189999865,144.48612509999657,144.4531915999978,144.4822143999918,144.48612509999657,144.48612509999657,144.48612509999657,147.86970779999683,Objects\111b.jpg,pre,s,3.369742300012149,None,,,,,,,,00005,001,2025-11-09_17h45.24.630,MST_test,2024.2.2,60.00247210146506,2025-11-09 17h45.35.230435 +0530,
21,0,21,o,2.2888252999982797,None,21,0,21,0,147.88609569999971,,,,,,,,,,,,,,,,,,,,,,,,,,,,,,,,,,,,,,,,,,,,,,,,,,147.86979840000276,147.88609569999971,148.40298859999166,148.36965639999835,148.38769200000388,148.40298859999166,148.40298859999166,148.40298859999166,150.70302600000286,Scenes\104b.jpg,post,o,2.2888252999982797,None,,,,,,,,00005,001,2025-11-09_17h45.24.630,MST_test,2024.2.2,60.00247210146506,2025-11-09 17h45.35.230435 +0530,
22,0,22,o,1.0581127000041306,None,22,0,22,0,150.71936740000092,,,,,,,,,,,,,,,,,,,,,,,,,,,,,,,,,,,,,,,,,,,,,,,,,,150.70311489999585,150.71936740000092,151.23603270000604,151.2028605999949,151.21694040000148,151.23603270000604,151.23603270000604,151.23603270000604,152.30299090000335,Scenes\122a.jpg,post,o,1.0581127000041306,None,,,,,,,,00005,001,2025-11-09_17h45.24.630,MST_test,2024.2.2,60.00247210146506,2025-11-09 17h45.35.230435 +0530,
23,0,23,o,1.4365809000009904,None,23,0,23,0,152.3193304000015,,,,,,,,,,,,,,,,,,,,,,,,,,,,,,,,,,,,,,,,,,,,,,,,,,152.30306730000302,152.3193304000015,152.81928880000487,152.80282680000528,152.81301040000108,152.81928880000487,152.81928880000487,152.81928880000487,154.26967340000556,Objects\082b.jpg,pre,o,1.4365809000009904,None,,,,,,,,00005,001,2025-11-09_17h45.24.630,MST_test,2024.2.2,60.00247210146506,2025-11-09 17h45.35.230435 +0530,
24,0,24,o,1.036987900006352,None,24,0,24,0,154.2860490000021,,,,,,,,,,,,,,,,,,,,,,,,,,,,,,,,,,,,,,,,,,,,,,,,,,154.26975599999423,154.2860490000021,154.80267900000035,154.76956669999345,154.78221869999834,154.80267900000035,154.80267900000035,154.80267900000035,155.85297130000254,Scenes\093a.jpg,pre,o,1.036987900006352,None,,,,,,,,00005,001,2025-11-09_17h45.24.630,MST_test,2024.2.2,60.00247210146506,2025-11-09 17h45.35.230435 +0530,
25,0,25,s,1.4333048999978928,None,25,0,25,0,155.86935229999654,,,,,,,,,,,,,,,,,,,,,,,,,,,,,,,,,,,,,,,,,,,,,,,,,,155.853051099999,155.86935229999654,156.38628839999728,156.3528212999954,156.36819029999606,156.38628839999728,156.38628839999728,156.38628839999728,157.83623820000503,Scenes\185b.jpg,pre,s,1.4333048999978928,None,,,,,,,,00005,001,2025-11-09_17h45.24.630,MST_test,2024.2.2,60.00247210146506,2025-11-09 17h45.35.230435 +0530,
26,0,26,n,2.7828157000039937,None,26,0,26,0,157.8526084000041,,,,,,,,,,,,,,,,,,,,,,,,,,,,,,,,,,,,,,,,,,,,,,,,,,157.83631099999184,157.8526084000041,158.35301560000516,158.33611659999588,158.34139620000497,158.35301560000516,158.35301560000516,158.35301560000516,161.13636809999298,Foils\scenes2.jpg,none,n,2.7828157000039937,None,,,,,,,,00005,001,2025-11-09_17h45.24.630,MST_test,2024.2.2,60.00247210146506,2025-11-09 17h45.35.230435 +0530,
27,0,27,s,2.918713899998693,None,27,0,27,0,161.15303600000334,,,,,,,,,,,,,,,,,,,,,,,,,,,,,,,,,,,,,,,,,,,,,,,,,,161.13645279999764,161.15303600000334,161.6691950999957,161.63602360000368,161.6507952999964,161.6691950999957,161.6691950999957,161.6691950999957,164.6028357000032,Scenes\079b.jpg,mid,s,2.918713899998693,None,,,,,,,,00005,001,2025-11-09_17h45.24.630,MST_test,2024.2.2,60.00247210146506,2025-11-09 17h45.35.230435 +0530,
28,0,28,s,2.7397259999997914,None,28,0,28,0,164.61916230000497,,,,,,,,,,,,,,,,,,,,,,,,,,,,,,,,,,,,,,,,,,,,,,,,,,164.6029181000049,164.61916230000497,165.13605309999548,165.1028140999988,165.11449859999993,165.13605309999548,165.13605309999548,165.13605309999548,167.8860030999931,Scenes\087a.jpg,post,s,2.7397259999997914,None,,,,,,,,00005,001,2025-11-09_17h45.24.630,MST_test,2024.2.2,60.00247210146506,2025-11-09 17h45.35.230435 +0530,
29,0,29,s,1.7780997999943793,None,29,0,29,0,167.90247190000082,,,,,,,,,,,,,,,,,,,,,,,,,,,,,,,,,,,,,,,,,,,,,,,,,,167.88609030000225,167.90247190000082,168.41928729999927,168.385947200004,168.40382809999574,168.41928729999927,168.41928729999927,168.41928729999927,170.20283049999853,Objects\102b.jpg,post,s,1.7780997999943793,None,,,,,,,,00005,001,2025-11-09_17h45.24.630,MST_test,2024.2.2,60.00247210146506,2025-11-09 17h45.35.230435 +0530,
30,0,30,s,3.3089909000118496,None,30,0,30,0,170.21908369999437,,,,,,,,,,,,,,,,,,,,,,,,,,,,,,,,,,,,,,,,,,,,,,,,,,170.2029138999933,170.21908369999437,170.75261630000023,170.70248049999645,170.7354714999965,170.75261630000023,170.75261630000023,170.75261630000023,174.06913469999563,Scenes\004b.jpg,mid,s,3.3089909000118496,None,,,,,,,,00005,001,2025-11-09_17h45.24.630,MST_test,2024.2.2,60.00247210146506,2025-11-09 17h45.35.230435 +0530,
31,0,31,o,1.123801399997319,None,31,0,31,0,174.08550069999183,,,,,,,,,,,,,,,,,,,,,,,,,,,,,,,,,,,,,,,,,,,,,,,,,,174.0692115999991,174.08550069999183,174.60217149999517,174.56913180000265,174.58111699999426,174.60217149999517,174.60217149999517,174.60217149999517,175.73586790000263,Scenes\021a.jpg,post,o,1.123801399997319,None,,,,,,,,00005,001,2025-11-09_17h45.24.630,MST_test,2024.2.2,60.00247210146506,2025-11-09 17h45.35.230435 +0530,
32,0,32,s,2.545926899998449,None,32,0,32,0,175.75216259999434,,,,,,,,,,,,,,,,,,,,,,,,,,,,,,,,,,,,,,,,,,,,,,,,,,175.73594090000552,175.75216259999434,176.25211649999255,176.235838099994,176.24410199999693,176.25211649999255,176.25211649999255,176.25211649999255,178.80236539999896,Scenes\029b.jpg,mid,s,2.545926899998449,None,,,,,,,,00005,001,2025-11-09_17h45.24.630,MST_test,2024.2.2,60.00247210146506,2025-11-09 17h45.35.230435 +0530,
33,0,33,o,1.2677304999961052,None,33,0,33,0,178.81875859999855,,,,,,,,,,,,,,,,,,,,,,,,,,,,,,,,,,,,,,,,,,,,,,,,,,178.80245429999195,178.81875859999855,179.31873899999482,179.3023664999928,179.31266989999858,179.31873899999482,179.31873899999482,179.31873899999482,180.60230719999527,Objects\059a.jpg,mid,o,1.2677304999961052,None,,,,,,,,00005,001,2025-11-09_17h45.24.630,MST_test,2024.2.2,60.00247210146506,2025-11-09 17h45.35.230435 +0530,
34,0,34,o,2.002896799996961,None,34,0,34,0,180.61873479999485,,,,,,,,,,,,,,,,,,,,,,,,,,,,,,,,,,,,,,,,,,,,,,,,,,180.6023822999996,180.61873479999485,181.13560629999847,181.10222839999187,181.11462480000046,181.13560629999847,181.13560629999847,181.13560629999847,183.15235429999302,Scenes\014a.jpg,pre,o,2.002896799996961,None,,,,,,,,00005,001,2025-11-09_17h45.24.630,MST_test,2024.2.2,60.00247210146506,2025-11-09 17h45.35.230435 +0530,
35,0,35,s,1.4731670999899507,None,35,0,35,0,183.1686650000047,,,,,,,,,,,,,,,,,,,,,,,,,,,,,,,,,,,,,,,,,,,,,,,,,,183.15243149999878,183.1686650000047,183.6687854000047,183.65216569999757,183.6601415000041,183.6687854000047,183.6687854000047,183.6687854000047,185.15226479999546,Scenes\036b.jpg,post,s,1.4731670999899507,None,,,,,,,,00005,001,2025-11-09_17h45.24.630,MST_test,2024.2.2,60.00247210146506,2025-11-09 17h45.35.230435 +0530,
36,0,36,n,3.208569099995657,None,36,0,36,0,185.1686245000019,,,,,,,,,,,,,,,,,,,,,,,,,,,,,,,,,,,,,,,,,,,,,,,,,,185.1523496000009,185.1686245000019,185.66877649999515,185.65220769999723,185.6589873000048,185.66877649999515,185.66877649999515,185.66877649999515,188.88547239999752,Foils\scenes17.jpg,none,n,3.208569099995657,None,,,,,,,,00005,001,2025-11-09_17h45.24.630,MST_test,2024.2.2,60.00247210146506,2025-11-09 17h45.35.230435 +0530,
37,0,37,o,1.131220299997949,None,37,0,37,0,188.90184500000032,,,,,,,,,,,,,,,,,,,,,,,,,,,,,,,,,,,,,,,,,,,,,,,,,,188.88555140000244,188.90184500000032,189.40201259999594,189.385397799997,189.39594590000343,189.40201259999594,189.40201259999594,189.40201259999594,190.53554129999247,Objects\119a.jpg,post,o,1.131220299997949,None,,,,,,,,00005,001,2025-11-09_17h45.24.630,MST_test,2024.2.2,60.00247210146506,2025-11-09 17h45.35.230435 +0530,
38,0,38,o,2.512714699987555,None,38,0,38,0,190.55184739999822,,,,,,,,,,,,,,,,,,,,,,,,,,,,,,,,,,,,,,,,,,,,,,,,,,190.5356221999973,190.55184739999822,191.06878079999296,191.03539509999973,191.04912640000111,191.06878079999296,191.06878079999296,191.06878079999296,193.5853305000055,Scenes\128a.jpg,post,o,2.512714699987555,None,,,,,,,,00005,001,2025-11-09_17h45.24.630,MST_test,2024.2.2,60.00247210146506,2025-11-09 17h45.35.230435 +0530,
39,0,39,s,1.2814920999953756,None,39,0,39,0,193.60176180000417,,,,,,,,,,,,,,,,,,,,,,,,,,,,,,,,,,,,,,,,,,,,,,,,,,193.5854127000057,193.60176180000417,194.11815480000223,194.08530029999383,194.11245359999884,194.11815480000223,194.11815480000223,194.11815480000223,195.40210490000027,Scenes\154b.jpg,pre,s,1.2814920999953756,None,,,,,,,,00005,001,2025-11-09_17h45.24.630,MST_test,2024.2.2,60.00247210146506,2025-11-09 17h45.35.230435 +0530,
40,0,40,s,2.4568026999913855,None,40,0,40,0,195.41836989999865,,,,,,,,,,,,,,,,,,,,,,,,,,,,,,,,,,,,,,,,,,,,,,,,,,195.40218029999232,195.41836989999865,195.95181080000475,195.90192429999297,195.93856830000004,195.95181080000475,195.95181080000475,195.95181080000475,198.41858369999682,Scenes\102b.jpg,mid,s,2.4568026999913855,None,,,,,,,,00005,001,2025-11-09_17h45.24.630,MST_test,2024.2.2,60.00247210146506,2025-11-09 17h45.35.230435 +0530,
41,0,41,s,2.000941199992667,None,41,0,41,0,198.43499500000325,,,,,,,,,,,,,,,,,,,,,,,,,,,,,,,,,,,,,,,,,,,,,,,,,,198.41867859999184,198.43499500000325,198.93515679999837,198.9185301999969,198.929281299992,198.93515679999837,198.93515679999837,198.93515679999837,200.95214009999472,Objects\161a.jpg,post,s,2.000941199992667,None,,,,,,,,00005,001,2025-11-09_17h45.24.630,MST_test,2024.2.2,60.00247210146506,2025-11-09 17h45.35.230435 +0530,
42,0,42,s,1.1186103999934858,None,42,0,42,0,200.96828359999927,,,,,,,,,,,,,,,,,,,,,,,,,,,,,,,,,,,,,,,,,,,,,,,,,,200.95222120000108,200.96828359999927,201.50159820000408,201.45180619999883,201.48225299999467,201.50159820000408,201.50159820000408,201.50159820000408,202.63525429999572,Objects\170b.jpg,post,s,1.1186103999934858,None,,,,,,,,00005,001,2025-11-09_17h45.24.630,MST_test,2024.2.2,60.00247210146506,2025-11-09 17h45.35.230435 +0530,
43,0,43,s,2.024032899993472,None,43,0,43,0,202.651577800003,,,,,,,,,,,,,,,,,,,,,,,,,,,,,,,,,,,,,,,,,,,,,,,,,,202.63533099999768,202.651577800003,203.15185779999592,203.13512489999994,203.14032069999666,203.15185779999592,203.15185779999592,203.15185779999592,205.18510659999447,Foils\scenes8.jpg,none,s,2.024032899993472,None,,,,,,,,00005,001,2025-11-09_17h45.24.630,MST_test,2024.2.2,60.00247210146506,2025-11-09 17h45.35.230435 +0530,
44,0,44,n,2.051548000003095,None,44,0,44,0,205.2015282999928,,,,,,,,,,,,,,,,,,,,,,,,,,,,,,,,,,,,,,,,,,,,,,,,,,205.18519400000514,205.2015282999928,205.95201939999242,205.6849785999948,205.92773260000104,205.95201939999242,205.95201939999242,205.95201939999242,208.01849539999967,Foils\scenes26.jpg,none,n,2.051548000003095,None,,,,,,,,00005,001,2025-11-09_17h45.24.630,MST_test,2024.2.2,60.00247210146506,2025-11-09 17h45.35.230435 +0530,
45,0,45,o,1.402385100009269,None,45,0,45,0,208.03476120000414,,,,,,,,,,,,,,,,,,,,,,,,,,,,,,,,,,,,,,,,,,,,,,,,,,208.0185768999945,208.03476120000414,208.55163449999236,208.51834729999246,208.54280120000476,208.55163449999236,208.55163449999236,208.55163449999236,209.9685058000032,Scenes\174a.jpg,post,o,1.402385100009269,None,,,,,,,,00005,001,2025-11-09_17h45.24.630,MST_test,2024.2.2,60.00247210146506,2025-11-09 17h45.35.230435 +0530,
46,0,46,s,1.646882100001676,None,46,0,46,0,209.984744699992,,,,,,,,,,,,,,,,,,,,,,,,,,,,,,,,,,,,,,,,,,,,,,,,,,209.96859720000066,209.984744699992,210.50137630000245,210.4682257999957,210.49434499999916,210.50137630000245,210.50137630000245,210.50137630000245,212.151718299996,Scenes\161b.jpg,mid,s,1.646882100001676,None,,,,,,,,00005,001,2025-11-09_17h45.24.630,MST_test,2024.2.2,60.00247210146506,2025-11-09 17h45.35.230435 +0530,
47,0,47,s,1.7429734000033932,None,47,0,47,0,212.1680428999971,,,,,,,,,,,,,,,,,,,,,,,,,,,,,,,,,,,,,,,,,,,,,,,,,,212.15180799999507,212.1680428999971,212.70161940000253,212.65149699999893,212.68437180000183,212.70161940000253,212.70161940000253,212.70161940000253,214.4515892000054,Scenes\147b.jpg,post,s,1.7429734000033932,None,,,,,,,,00005,001,2025-11-09_17h45.24.630,MST_test,2024.2.2,60.00247210146506,2025-11-09 17h45.35.230435 +0530,
48,0,48,n,1.9868900000001304,None,48,0,48,0,214.46798729999864,,,,,,,,,,,,,,,,,,,,,,,,,,,,,,,,,,,,,,,,,,,,,,,,,,214.4516641999944,214.46798729999864,215.0012940000015,214.9514363000053,214.98483129999659,215.0012940000015,215.0012940000015,215.0012940000015,217.00152979999257,Scenes\010b.jpg,mid,n,1.9868900000001304,None,,,,,,,,00005,001,2025-11-09_17h45.24.630,MST_test,2024.2.2,60.00247210146506,2025-11-09 17h45.35.230435 +0530,
49,0,49,s,1.15589190000901,None,49,0,49,0,217.01794130000053,,,,,,,,,,,,,,,,,,,,,,,,,,,,,,,,,,,,,,,,,,,,,,,,,,217.001606299993,217.01794130000053,217.53477860000567,217.50138689999585,217.52058280000347,217.53477860000567,217.53477860000567,217.53477860000567,218.70149829999718,Foils\scenes27.jpg,none,s,1.15589190000901,None,,,,,,,,00005,001,2025-11-09_17h45.24.630,MST_test,2024.2.2,60.00247210146506,2025-11-09 17h45.35.230435 +0530,
50,0,50,o,3.0394885999994585,None,50,0,50,0,218.71789420000277,,,,,,,,,,,,,,,,,,,,,,,,,,,,,,,,,,,,,,,,,,,,,,,,,,218.70158079999965,218.71789420000277,219.23480479999853,219.20145769999363,219.2263660000026,219.23480479999853,219.23480479999853,219.23480479999853,222.28487780000432,Objects\156b.jpg,pre,o,3.0394885999994585,None,,,,,,,,00005,001,2025-11-09_17h45.24.630,MST_test,2024.2.2,60.00247210146506,2025-11-09 17h45.35.230435 +0530,
51,0,51,o,0.8390041999955429,None,51,0,51,0,222.30115109999315,,,,,,,,,,,,,,,,,,,,,,,,,,,,,,,,,,,,,,,,,,,,,,,,,,222.2849569999962,222.30115109999315,222.80117099999916,222.78470550000202,222.7941295000055,222.80117099999916,222.80117099999916,222.80117099999916,223.6514879000024,Objects\115a.jpg,pre,o,0.8390041999955429,None,,,,,,,,00005,001,2025-11-09_17h45.24.630,MST_test,2024.2.2,60.00247210146506,2025-11-09 17h45.35.230435 +0530,
52,0,52,s,1.0726869999925839,None,52,0,52,0,223.667761100005,,,,,,,,,,,,,,,,,,,,,,,,,,,,,,,,,,,,,,,,,,,,,,,,,,223.6515667000058,223.667761100005,224.25128880000557,224.15133229999628,224.23313389999385,224.25128880000557,224.25128880000557,224.25128880000557,225.33469609999156,Foils\scenes15.jpg,none,s,1.0726869999925839,None,,,,,,,,00005,001,2025-11-09_17h45.24.630,MST_test,2024.2.2,60.00247210146506,2025-11-09 17h45.35.230435 +0530,
53,0,53,s,1.5881513999920571,None,53,0,53,0,225.3510857999936,,,,,,,,,,,,,,,,,,,,,,,,,,,,,,,,,,,,,,,,,,,,,,,,,,225.33478259999538,225.3510857999936,225.86789589999535,225.83455390000017,225.85678780000308,225.86789589999535,225.86789589999535,225.86789589999535,227.46819859999232,Scenes\081a.jpg,post,s,1.5881513999920571,None,,,,,,,,00005,001,2025-11-09_17h45.24.630,MST_test,2024.2.2,60.00247210146506,2025-11-09 17h45.35.230435 +0530,
54,0,54,s,3.511932600013097,None,54,0,54,0,227.48439040000085,,,,,,,,,,,,,,,,,,,,,,,,,,,,,,,,,,,,,,,,,,,,,,,,,,227.46829330000037,227.48439040000085,227.98459680000087,227.96782809999422,227.97825190000003,227.98459680000087,227.98459680000087,227.98459680000087,231.501337099995,Objects\106a.jpg,pre,s,3.511932600013097,None,,,,,,,,00005,001,2025-11-09_17h45.24.630,MST_test,2024.2.2,60.00247210146506,2025-11-09 17h45.35.230435 +0530,
55,0,55,o,2.4524381999945035,None,55,0,55,0,231.51761939999415,,,,,,,,,,,,,,,,,,,,,,,,,,,,,,,,,,,,,,,,,,,,,,,,,,231.50142630000482,231.51761939999415,232.03430149999622,232.00115120000555,232.0230087999953,232.03430149999622,232.03430149999622,232.03430149999622,234.5012587999954,Scenes\072a.jpg,pre,o,2.4524381999945035,None,,,,,,,,00005,001,2025-11-09_17h45.24.630,MST_test,2024.2.2,60.00247210146506,2025-11-09 17h45.35.230435 +0530,
56,0,56,o,1.449260100009269,None,56,0,56,0,234.51755970000522,,,,,,,,,,,,,,,,,,,,,,,,,,,,,,,,,,,,,,,,,,,,,,,,,,234.50134580000304,234.51755970000522,235.03428360000544,235.00113659999624,235.0196539000026,235.03428360000544,235.03428360000544,235.03428360000544,236.48455110000214,Scenes\132a.jpg,pre,o,1.449260100009269,None,,,,,,,,00005,001,2025-11-09_17h45.24.630,MST_test,2024.2.2,60.00247210146506,2025-11-09 17h45.35.230435 +0530,
57,0,57,o,1.3807890999887604,None,57,0,57,0,236.5008519999974,,,,,,,,,,,,,,,,,,,,,,,,,,,,,,,,,,,,,,,,,,,,,,,,,,236.48463900000206,236.5008519999974,237.00080189999426,236.984429300006,236.99442220000492,237.00080189999426,237.00080189999426,237.00080189999426,238.38440850000188,Objects\153a.jpg,mid,o,1.3807890999887604,None,,,,,,,,00005,001,2025-11-09_17h45.24.630,MST_test,2024.2.2,60.00247210146506,2025-11-09 17h45.35.230435 +0530,
58,0,58,n,1.9188361999986228,None,58,0,58,0,238.40079559999867,,,,,,,,,,,,,,,,,,,,,,,,,,,,,,,,,,,,,,,,,,,,,,,,,,238.38449519999267,238.40079559999867,238.90075349999825,238.88430750000407,238.89458189999277,238.90075349999825,238.90075349999825,238.90075349999825,240.83446189999813,Foils\057a.jpg,none,n,1.9188361999986228,None,,,,,,,,00005,001,2025-11-09_17h45.24.630,MST_test,2024.2.2,60.00247210146506,2025-11-09 17h45.35.230435 +0530,
59,0,59,o,1.0315727999986848,None,59,0,59,0,240.85074759999407,,,,,,,,,,,,,,,,,,,,,,,,,,,,,,,,,,,,,,,,,,,,,,,,,,240.834543200006,240.85074759999407,241.3506997999939,241.3343765000027,241.3450082000054,241.3506997999939,241.3506997999939,241.3506997999939,242.38432870000543,Objects\113a.jpg,pre,o,1.0315727999986848,None,,,,,,,,00005,001,2025-11-09_17h45.24.630,MST_test,2024.2.2,60.00247210146506,2025-11-09 17h45.35.230435 +0530,
60,0,60,s,2.3758984000014607,None,60,0,60,0,242.4006864999974,,,,,,,,,,,,,,,,,,,,,,,,,,,,,,,,,,,,,,,,,,,,,,,,,,242.38441339999554,242.4006864999974,242.93406519999553,242.88426920000347,242.92587500000081,242.93406519999553,242.93406519999553,242.93406519999553,245.3176836000057,Scenes\119b.jpg,mid,s,2.3758984000014607,None,,,,,,,,00005,001,2025-11-09_17h45.24.630,MST_test,2024.2.2,60.00247210146506,2025-11-09 17h45.35.230435 +0530,
61,0,61,s,1.7253793999989284,None,61,0,61,0,245.33398789999774,,,,,,,,,,,,,,,,,,,,,,,,,,,,,,,,,,,,,,,,,,,,,,,,,,245.31775780000316,245.33398789999774,245.85066229999939,245.8175171000039,245.8350894000032,245.85066229999939,245.85066229999939,245.85066229999939,247.58422370000335,Objects\006b.jpg,mid,s,1.7253793999989284,None,,,,,,,,00005,001,2025-11-09_17h45.24.630,MST_test,2024.2.2,60.00247210146506,2025-11-09 17h45.35.230435 +0530,
62,0,62,o,2.2931393000035314,None,62,0,62,0,247.6005695000058,,,,,,,,,,,,,,,,,,,,,,,,,,,,,,,,,,,,,,,,,,,,,,,,,,247.58430119999684,247.6005695000058,248.1005540000042,248.08413740000105,248.09431159999804,248.1005540000042,248.1005540000042,248.1005540000042,250.40089160000207,Objects\024a.jpg,post,o,2.2931393000035314,None,,,,,,,,00005,001,2025-11-09_17h45.24.630,MST_test,2024.2.2,60.00247210146506,2025-11-09 17h45.35.230435 +0530,
63,0,63,o,1.6479889999900479,None,63,0,63,0,250.417214400004,,,,,,,,,,,,,,,,,,,,,,,,,,,,,,,,,,,,,,,,,,,,,,,,,,250.40097349999996,250.417214400004,250.93385370000033,250.90071410000382,250.919876999993,250.93385370000033,250.93385370000033,250.93385370000033,252.58417289999488,Scenes\018a.jpg,post,o,1.6479889999900479,None,,,,,,,,00005,001,2025-11-09_17h45.24.630,MST_test,2024.2.2,60.00247210146506,2025-11-09 17h45.35.230435 +0530,
64,0,64,s,2.066044499995769,None,64,0,64,0,252.600494600003,,,,,,,,,,,,,,,,,,,,,,,,,,,,,,,,,,,,,,,,,,,,,,,,,,252.58425479999278,252.600494600003,253.10045129999344,253.08398229999875,253.09526649999316,253.10045129999344,253.10045129999344,253.10045129999344,255.16746889999195,Objects\048a.jpg,post,s,2.066044499995769,None,,,,,,,,00005,001,2025-11-09_17h45.24.630,MST_test,2024.2.2,60.00247210146506,2025-11-09 17h45.35.230435 +0530,
65,0,65,o,1.6904789000109304,None,65,0,65,0,255.1837716000009,,,,,,,,,,,,,,,,,,,,,,,,,,,,,,,,,,,,,,,,,,,,,,,,,,255.16755959999864,255.1837716000009,255.6837278000021,255.66731869999785,255.67710990000342,255.6837278000021,255.6837278000021,255.6837278000021,257.38406179999583,Objects\168a.jpg,pre,o,1.6904789000109304,None,,,,,,,,00005,001,2025-11-09_17h45.24.630,MST_test,2024.2.2,60.00247210146506,2025-11-09 17h45.35.230435 +0530,
66,0,66,o,0.8911707999941427,None,66,0,66,0,257.4003934999928,,,,,,,,,,,,,,,,,,,,,,,,,,,,,,,,,,,,,,,,,,,,,,,,,,257.3841470000043,257.4003934999928,257.9003456999926,257.8839511999977,257.8946175000019,257.9003456999926,257.9003456999926,257.9003456999926,258.8007208999916,Objects\130a.jpg,post,o,0.8911707999941427,None,,,,,,,,00005,001,2025-11-09_17h45.24.630,MST_test,2024.2.2,60.00247210146506,2025-11-09 17h45.35.230435 +0530,
67,0,67,o,0.9492322000005515,None,67,0,67,0,258.8169937999919,,,,,,,,,,,,,,,,,,,,,,,,,,,,,,,,,,,,,,,,,,,,,,,,,,258.80079979999573,258.8169937999919,259.3503587000014,259.3006296999956,259.336272799992,259.3503587000014,259.3503587000014,259.3503587000014,260.3006929999974,Scenes\024b.jpg,pre,o,0.9492322000005515,None,,,,,,,,00005,001,2025-11-09_17h45.24.630,MST_test,2024.2.2,60.00247210146506,2025-11-09 17h45.35.230435 +0530,
68,0,68,o,0.7212522000045283,None,68,0,68,0,260.3169595999934,,,,,,,,,,,,,,,,,,,,,,,,,,,,,,,,,,,,,,,,,,,,,,,,,,260.3007825999957,260.3169595999934,260.8169476000039,260.80057049999596,260.8123301000014,260.8169476000039,260.8169476000039,260.8169476000039,261.5506643999979,Objects\096a.jpg,post,o,0.7212522000045283,None,,,,,,,,00005,001,2025-11-09_17h45.24.630,MST_test,2024.2.2,60.00247210146506,2025-11-09 17h45.35.230435 +0530,
69,0,69,s,1.4458217000064906,None,69,0,69,0,261.5669640999986,,,,,,,,,,,,,,,,,,,,,,,,,,,,,,,,,,,,,,,,,,,,,,,,,,261.55074140000215,261.5669640999986,262.0835863999964,262.0505114999978,262.066101599994,262.0835863999964,262.0835863999964,262.0835863999964,263.53390450000006,Objects\187b.jpg,post,s,1.4458217000064906,None,,,,,,,,00005,001,2025-11-09_17h45.24.630,MST_test,2024.2.2,60.00247210146506,2025-11-09 17h45.35.230435 +0530,
70,0,70,s,1.7055364999978337,None,70,0,70,0,263.5502520000009,,,,,,,,,,,,,,,,,,,,,,,,,,,,,,,,,,,,,,,,,,,,,,,,,,263.53398229999584,263.5502520000009,264.08355139999185,264.03373139999167,264.0762134999968,264.08355139999185,264.08355139999185,264.08355139999185,265.80045589999645,Scenes\084b.jpg,post,s,1.7055364999978337,None,,,,,,,,00005,001,2025-11-09_17h45.24.630,MST_test,2024.2.2,60.00247210146506,2025-11-09 17h45.35.230435 +0530,
71,0,71,s,1.9499974000063958,None,71,0,71,0,265.8168755999941,,,,,,,,,,,,,,,,,,,,,,,,,,,,,,,,,,,,,,,,,,,,,,,,,,265.80054440000094,265.8168755999941,266.33372199999576,266.3003613000037,266.31751649999933,266.33372199999576,266.33372199999576,266.33372199999576,268.30037260000245,Scenes\137a.jpg,post,s,1.9499974000063958,None,,,,,,,,00005,001,2025-11-09_17h45.24.630,MST_test,2024.2.2,60.00247210146506,2025-11-09 17h45.35.230435 +0530,
72,0,72,n,1.3361038999864832,None,72,0,72,0,268.3168127999961,,,,,,,,,,,,,,,,,,,,,,,,,,,,,,,,,,,,,,,,,,,,,,,,,,268.3004473000037,268.3168127999961,268.8503631000058,268.8003536000033,268.8122003000026,268.8503631000058,268.8503631000058,268.8503631000058,270.20044329999655,Foils\scenes7.jpg,none,n,1.3361038999864832,None,,,,,,,,00005,001,2025-11-09_17h45.24.630,MST_test,2024.2.2,60.00247210146506,2025-11-09 17h45.35.230435 +0530,
73,0,73,o,1.3892986999999266,None,73,0,73,0,270.2168085000012,,,,,,,,,,,,,,,,,,,,,,,,,,,,,,,,,,,,,,,,,,,,,,,,,,270.2005272999959,270.2168085000012,270.73358369999914,270.70027349999873,270.7159973999951,270.73358369999914,270.73358369999914,270.73358369999914,272.1337910000002,Objects\028b.jpg,post,o,1.3892986999999266,None,,,,,,,,00005,001,2025-11-09_17h45.24.630,MST_test,2024.2.2,60.00247210146506,2025-11-09 17h45.35.230435 +0530,
74,0,74,s,1.1308972999977414,None,74,0,74,0,272.1501079000009,,,,,,,,,,,,,,,,,,,,,,,,,,,,,,,,,,,,,,,,,,,,,,,,,,272.1338815999916,272.1501079000009,272.66669600000023,272.6336561999924,272.6501544999919,272.66669600000023,272.66669600000023,272.66669600000023,273.8003933,Foils\086a.jpg,none,s,1.1308972999977414,None,,,,,,,,00005,001,2025-11-09_17h45.24.630,MST_test,2024.2.2,60.00247210146506,2025-11-09 17h45.35.230435 +0530,
75,0,75,o,1.144738500006497,None,75,0,75,0,273.8166984999989,,,,,,,,,,,,,,,,,,,,,,,,,,,,,,,,,,,,,,,,,,,,,,,,,,273.800473299998,273.8166984999989,274.3333566999936,274.30032239999855,274.31617689999985,274.3333566999936,274.3333566999936,274.3333566999936,275.4836178999976,Objects\146b.jpg,post,o,1.144738500006497,None,,,,,,,,00005,001,2025-11-09_17h45.24.630,MST_test,2024.2.2,60.00247210146506,2025-11-09 17h45.35.230435 +0530,
76,0,76,o,1.0710238000028767,None,76,0,76,0,275.5000113999995,,,,,,,,,,,,,,,,,,,,,,,,,,,,,,,,,,,,,,,,,,,,,,,,,,275.4837017999962,275.5000113999995,275.99997520000034,275.98356009999407,275.9937199999986,275.99997520000034,275.99997520000034,275.99997520000034,277.0836851000058,Objects\159a.jpg,mid,o,1.0710238000028767,None,,,,,,,,00005,001,2025-11-09_17h45.24.630,MST_test,2024.2.2,60.00247210146506,2025-11-09 17h45.35.230435 +0530,
77,0,77,n,2.075706400006311,None,77,0,77,0,277.0999642999959,,,,,,,,,,,,,,,,,,,,,,,,,,,,,,,,,,,,,,,,,,,,,,,,,,277.0837615000055,277.0999642999959,277.5999184999964,277.58350500000233,277.5941873999982,277.5999184999964,277.5999184999964,277.5999184999964,279.6835985999933,Foils\009a.jpg,none,n,2.075706400006311,None,,,,,,,,00005,001,2025-11-09_17h45.24.630,MST_test,2024.2.2,60.00247210146506,2025-11-09 17h45.35.230435 +0530,
78,0,78,o,1.781900999994832,None,78,0,78,0,279.69990079999843,,,,,,,,,,,,,,,,,,,,,,,,,,,,,,,,,,,,,,,,,,,,,,,,,,279.6836714999954,279.69990079999843,280.1999170999916,280.18343609999283,280.19371999999566,280.1999170999916,280.1999170999916,280.1999170999916,281.9835174000036,Objects\065a.jpg,pre,o,1.781900999994832,None,,,,,,,,00005,001,2025-11-09_17h45.24.630,MST_test,2024.2.2,60.00247210146506,2025-11-09 17h45.35.230435 +0530,
79,0,79,n,1.4554893000022275,None,79,0,79,0,281.9998545999988,,,,,,,,,,,,,,,,,,,,,,,,,,,,,,,,,,,,,,,,,,,,,,,,,,281.9835999999923,281.9998545999988,282.51650209999934,282.4833757000015,282.49964829999954,282.51650209999934,282.51650209999934,282.51650209999934,283.9835724000004,Foils\042a.jpg,none,n,1.4554893000022275,None,,,,,,,,00005,001,2025-11-09_17h45.24.630,MST_test,2024.2.2,60.00247210146506,2025-11-09 17h45.35.230435 +0530,
80,0,80,s,0.9477220999979181,None,80,0,80,0,283.999853500005,,,,,,,,,,,,,,,,,,,,,,,,,,,,,,,,,,,,,,,,,,,,,,,,,,283.9836631999933,283.999853500005,284.4998271999939,284.48328590000165,284.4933960999915,284.4998271999939,284.4998271999939,284.4998271999939,285.4502164000005,Objects\097a.jpg,mid,s,0.9477220999979181,None,,,,,,,,00005,001,2025-11-09_17h45.24.630,MST_test,2024.2.2,60.00247210146506,2025-11-09 17h45.35.230435 +0530,
81,0,81,o,1.4210292999923695,None,81,0,81,0,285.46641540000564,,,,,,,,,,,,,,,,,,,,,,,,,,,,,,,,,,,,,,,,,,,,,,,,,,285.4502993999922,285.46641540000564,285.9832641999965,285.949907000002,285.9673430999974,285.9832641999965,285.9832641999965,285.9832641999965,287.4167916000006,Scenes\080b.jpg,post,o,1.4210292999923695,None,,,,,,,,00005,001,2025-11-09_17h45.24.630,MST_test,2024.2.2,60.00247210146506,2025-11-09 17h45.35.230435 +0530,
82,0,82,n,1.9908035999978893,None,82,0,82,0,287.4330764000042,,,,,,,,,,,,,,,,,,,,,,,,,,,,,,,,,,,,,,,,,,,,,,,,,,287.41687960000127,287.4330764000042,287.94969569999375,287.9165714999981,287.94086529999913,287.94969569999375,287.94969569999375,287.94969569999375,289.9500526000047,Scenes\083b.jpg,post,n,1.9908035999978893,None,,,,,,,,00005,001,2025-11-09_17h45.24.630,MST_test,2024.2.2,60.00247210146506,2025-11-09 17h45.35.230435 +0530,
83,0,83,n,1.7047841000021435,None,83,0,83,0,289.966316799997,,,,,,,,,,,,,,,,,,,,,,,,,,,,,,,,,,,,,,,,,,,,,,,,,,289.9501339999988,289.966316799997,290.4830140999984,290.4498517000029,290.4755523000058,290.4830140999984,290.4830140999984,290.4830140999984,292.19995900000504,Scenes\184b.jpg,pre,n,1.7047841000021435,None,,,,,,,,00005,001,2025-11-09_17h45.24.630,MST_test,2024.2.2,60.00247210146506,2025-11-09 17h45.35.230435 +0530,
84,0,84,o,1.0096487999981036,None,84,0,84,0,292.2162997999985,,,,,,,,,,,,,,,,,,,,,,,,,,,,,,,,,,,,,,,,,,,,,,,,,,292.2000352000032,292.2162997999985,292.7163237999921,292.69984410000325,292.70997050000005,292.7163237999921,292.7163237999921,292.7163237999921,293.7332451999973,Objects\004a.jpg,post,o,1.0096487999981036,None,,,,,,,,00005,001,2025-11-09_17h45.24.630,MST_test,2024.2.2,60.00247210146506,2025-11-09 17h45.35.230435 +0530,
85,0,85,s,1.2959064999886323,None,85,0,85,0,293.74959079999826,,,,,,,,,,,,,,,,,,,,,,,,,,,,,,,,,,,,,,,,,,,,,,,,,,293.733321599997,293.74959079999826,294.2498348999943,294.233198300004,294.2408201999933,294.2498348999943,294.2498348999943,294.2498348999943,295.54991859999427,Foils\scenes29.jpg,none,s,1.2959064999886323,None,,,,,,,,00005,001,2025-11-09_17h45.24.630,MST_test,2024.2.2,60.00247210146506,2025-11-09 17h45.35.230435 +0530,
86,0,86,o,0.9171650000062073,None,86,0,86,0,295.56623050000053,,,,,,,,,,,,,,,,,,,,,,,,,,,,,,,,,,,,,,,,,,,,,,,,,,295.550004299992,295.56623050000053,296.0662069999962,296.0498147000035,296.0603165999928,296.0662069999962,296.0662069999962,296.0662069999962,296.9998714999965,Objects\133a.jpg,pre,o,0.9171650000062073,None,,,,,,,,00005,001,2025-11-09_17h45.24.630,MST_test,2024.2.2,60.00247210146506,2025-11-09 17h45.35.230435 +0530,
87,0,87,n,1.7843954999989364,None,87,0,87,0,297.0162278999924,,,,,,,,,,,,,,,,,,,,,,,,,,,,,,,,,,,,,,,,,,,,,,,,,,296.99995579999813,297.0162278999924,297.51616959999956,297.49975479999557,297.50682919999235,297.51616959999956,297.51616959999956,297.51616959999956,299.3165367000038,Foils\scenes20.jpg,none,n,1.7843954999989364,None,,,,,,,,00005,001,2025-11-09_17h45.24.630,MST_test,2024.2.2,60.00247210146506,2025-11-09 17h45.35.230435 +0530,
88,0,88,n,1.1359128000040073,None,88,0,88,0,299.3328221999982,,,,,,,,,,,,,,,,,,,,,,,,,,,,,,,,,,,,,,,,,,,,,,,,,,299.3166246000037,299.3328221999982,299.84946460000356,299.8163493000029,299.8324919000006,299.84946460000356,299.84946460000356,299.84946460000356,300.9997282999975,Foils\049a.jpg,none,n,1.1359128000040073,None,,,,,,,,00005,001,2025-11-09_17h45.24.630,MST_test,2024.2.2,60.00247210146506,2025-11-09 17h45.35.230435 +0530,
89,0,89,s,1.185673300002236,None,89,0,89,0,301.0161126000021,,,,,,,,,,,,,,,,,,,,,,,,,,,,,,,,,,,,,,,,,,,,,,,,,,300.9998149000021,301.0161126000021,301.5497092000005,301.4996434000059,301.5342082999996,301.5497092000005,301.5497092000005,301.5497092000005,302.7497580999916,Scenes\166b.jpg,mid,s,1.185673300002236,None,,,,,,,,00005,001,2025-11-09_17h45.24.630,MST_test,2024.2.2,60.00247210146506,2025-11-09 17h45.35.230435 +0530,
90,0,90,n,1.899577699994552,None,90,0,90,0,302.76606729999185,,,,,,,,,,,,,,,,,,,,,,,,,,,,,,,,,,,,,,,,,,,,,,,,,,302.7498387999949,302.76606729999185,303.26602450000064,303.24967319999996,303.25951540000096,303.26602450000064,303.26602450000064,303.26602450000064,305.16643789999944,Foils\050a.jpg,none,n,1.899577699994552,None,,,,,,,,00005,001,2025-11-09_17h45.24.630,MST_test,2024.2.2,60.00247210146506,2025-11-09 17h45.35.230435 +0530,
91,0,91,o,0.9214248000062071,None,91,0,91,0,305.1826854999963,,,,,,,,,,,,,,,,,,,,,,,,,,,,,,,,,,,,,,,,,,,,,,,,,,305.1665232999949,305.1826854999963,305.6826645999972,305.6662134999933,305.67725490000157,305.6826645999972,305.6826645999972,305.6826645999972,306.61646229999315,Objects\040a.jpg,mid,o,0.9214248000062071,None,,,,,,,,00005,001,2025-11-09_17h45.24.630,MST_test,2024.2.2,60.00247210146506,2025-11-09 17h45.35.230435 +0530,
92,0,92,s,1.282871499992325,None,92,0,92,0,306.6326529999933,,,,,,,,,,,,,,,,,,,,,,,,,,,,,,,,,,,,,,,,,,,,,,,,,,306.6165422000049,306.6326529999933,307.13276730000507,307.1161901000014,307.12160620000213,307.13276730000507,307.13276730000507,307.13276730000507,308.41635129999486,Foils\scenes3.jpg,none,s,1.282871499992325,None,,,,,,,,00005,001,2025-11-09_17h45.24.630,MST_test,2024.2.2,60.00247210146506,2025-11-09 17h45.35.230435 +0530,
93,0,93,s,1.4530115999950795,None,93,0,93,0,308.4326083000051,,,,,,,,,,,,,,,,,,,,,,,,,,,,,,,,,,,,,,,,,,,,,,,,,,308.41643179999664,308.4326083000051,308.96613960000104,308.9161055000004,308.94955190000474,308.96613960000104,308.96613960000104,308.96613960000104,310.43293059999996,Scenes\178b.jpg,post,s,1.4530115999950795,None,,,,,,,,00005,001,2025-11-09_17h45.24.630,MST_test,2024.2.2,60.00247210146506,2025-11-09 17h45.35.230435 +0530,
94,0,94,n,1.985543199989479,None,94,0,94,0,310.4492356999981,,,,,,,,,,,,,,,,,,,,,,,,,,,,,,,,,,,,,,,,,,,,,,,,,,310.4330246000027,310.4492356999981,311.08273799999733,310.9327396000008,311.07269269999233,311.08273799999733,311.08273799999733,311.08273799999733,313.08284750000166,Foils\scenes25.jpg,none,n,1.985543199989479,None,,,,,,,,00005,001,2025-11-09_17h45.24.630,MST_test,2024.2.2,60.00247210146506,2025-11-09 17h45.35.230435 +0530,
95,0,95,s,1.6194216000003507,None,95,0,95,0,313.099154800002,,,,,,,,,,,,,,,,,,,,,,,,,,,,,,,,,,,,,,,,,,,,,,,,,,313.0829334000009,313.099154800002,313.6161337999947,313.5828889999975,313.60385709999537,313.6161337999947,313.6161337999947,313.6161337999947,315.24952319999284,Objects\023b.jpg,pre,s,1.6194216000003507,None,,,,,,,,00005,001,2025-11-09_17h45.24.630,MST_test,2024.2.2,60.00247210146506,2025-11-09 17h45.35.230435 +0530,
96,0,96,n,2.0841493000043556,None,96,0,96,0,315.2658039999951,,,,,,,,,,,,,,,,,,,,,,,,,,,,,,,,,,,,,,,,,,,,,,,,,,315.24960779999674,315.2658039999951,315.7660370999947,315.7494205999974,315.7567859999981,315.7660370999947,315.7660370999947,315.7660370999947,317.86607429999276,Foils\scenes30.jpg,none,n,2.0841493000043556,None,,,,,,,,00005,001,2025-11-09_17h45.24.630,MST_test,2024.2.2,60.00247210146506,2025-11-09 17h45.35.230435 +0530,
97,0,97,s,1.6198109999968437,None,97,0,97,0,317.88240909999877,,,,,,,,,,,,,,,,,,,,,,,,,,,,,,,,,,,,,,,,,,,,,,,,,,317.8661951999966,317.88240909999877,318.3823618000024,318.3659531000012,318.37603800000215,318.3823618000024,318.3823618000024,318.3823618000024,320.01606059999904,Objects\031a.jpg,post,s,1.6198109999968437,None,,,,,,,,00005,001,2025-11-09_17h45.24.630,MST_test,2024.2.2,60.00247210146506,2025-11-09 17h45.35.230435 +0530,
98,0,98,s,0.9295519000006607,None,98,0,98,0,320.0323580999975,,,,,,,,,,,,,,,,,,,,,,,,,,,,,,,,,,,,,,,,,,,,,,,,,,320.0161442999961,320.0323580999975,320.53231779999624,320.5158916999935,320.5259722000046,320.53231779999624,320.53231779999624,320.53231779999624,321.4660481000028,Objects\172a.jpg,post,s,0.9295519000006607,None,,,,,,,,00005,001,2025-11-09_17h45.24.630,MST_test,2024.2.2,60.00247210146506,2025-11-09 17h45.35.230435 +0530,
99,0,99,o,1.3841901999985566,None,99,0,99,0,321.4823238999961,,,,,,,,,,,,,,,,,,,,,,,,,,,,,,,,,,,,,,,,,,,,,,,,,,321.4661242000002,321.4823238999961,321.99921399999585,321.9659226999938,321.9942394999962,321.99921399999585,321.99921399999585,321.99921399999585,323.399348299994,Scenes\001a.jpg,pre,o,1.3841901999985566,None,,,,,,,,00005,001,2025-11-09_17h45.24.630,MST_test,2024.2.2,60.00247210146506,2025-11-09 17h45.35.230435 +0530,
100,0,100,s,1.859372999999323,None,100,0,100,0,323.41558289999375,,,,,,,,,,,,,,,,,,,,,,,,,,,,,,,,,,,,,,,,,,,,,,,,,,323.3994270999974,323.41558289999375,323.9489156000054,323.8991784999962,323.9317261999968,323.9489156000054,323.9489156000054,323.9489156000054,325.8159617000056,Objects\163b.jpg,mid,s,1.859372999999323,None,,,,,,,,00005,001,2025-11-09_17h45.24.630,MST_test,2024.2.2,60.00247210146506,2025-11-09 17h45.35.230435 +0530,
101,0,101,o,0.8200436000042828,None,101,0,101,0,325.8322030999989,,,,,,,,,,,,,,,,,,,,,,,,,,,,,,,,,,,,,,,,,,,,,,,,,,325.8160394000006,325.8322030999989,326.33219729999837,326.31578499999887,326.3259973999957,326.33219729999837,326.33219729999837,326.33219729999837,327.16586059999827,Objects\147a.jpg,mid,o,0.8200436000042828,None,,,,,,,,00005,001,2025-11-09_17h45.24.630,MST_test,2024.2.2,60.00247210146506,2025-11-09 17h45.35.230435 +0530,
102,0,102,o,1.1565498999989359,None,102,0,102,0,327.18223320000106,,,,,,,,,,,,,,,,,,,,,,,,,,,,,,,,,,,,,,,,,,,,,,,,,,327.16593580000335,327.18223320000106,327.6821640999988,327.66568669999833,327.67608580000524,327.6821640999988,327.6821640999988,327.6821640999988,328.8491944999987,Objects\009a.jpg,mid,o,1.1565498999989359,None,,,,,,,,00005,001,2025-11-09_17h45.24.630,MST_test,2024.2.2,60.00247210146506,2025-11-09 17h45.35.230435 +0530,
103,0,103,n,2.4010041000001365,None,103,0,103,0,328.8655021000013,,,,,,,,,,,,,,,,,,,,,,,,,,,,,,,,,,,,,,,,,,,,,,,,,,328.84927340000286,328.8655021000013,329.39880959999573,329.3491090000025,329.3881512999942,329.39880959999573,329.39880959999573,329.39880959999573,331.81585030000133,Scenes\175b.jpg,post,n,2.4010041000001365,None,,,,,,,,00005,001,2025-11-09_17h45.24.630,MST_test,2024.2.2,60.00247210146506,2025-11-09 17h45.35.230435 +0530,
104,0,104,n,1.5446116999955848,None,104,0,104,0,331.8320739000046,,,,,,,,,,,,,,,,,,,,,,,,,,,,,,,,,,,,,,,,,,,,,,,,,,331.8159330000053,331.8320739000046,332.34903319999285,332.3156497000018,332.34081819999847,332.34903319999285,332.34903319999285,332.34903319999285,333.8991328999982,Scenes\121b.jpg,mid,n,1.5446116999955848,None,,,,,,,,00005,001,2025-11-09_17h45.24.630,MST_test,2024.2.2,60.00247210146506,2025-11-09 17h45.35.230435 +0530,
105,0,105,n,1.689752899997984,None,105,0,105,0,333.915396700002,,,,,,,,,,,,,,,,,,,,,,,,,,,,,,,,,,,,,,,,,,,,,,,,,,333.8992184999952,333.915396700002,334.4323418999993,334.3989438999997,334.4154615000007,334.4323418999993,334.4323418999993,334.4323418999993,336.13236800000595,Objects\067b.jpg,pre,n,1.689752899997984,None,,,,,,,,00005,001,2025-11-09_17h45.24.630,MST_test,2024.2.2,60.00247210146506,2025-11-09 17h45.35.230435 +0530,
106,0,106,s,0.8821123999950942,None,106,0,106,0,336.148646799993,,,,,,,,,,,,,,,,,,,,,,,,,,,,,,,,,,,,,,,,,,,,,,,,,,336.1324425999919,336.148646799993,336.6653030000016,336.6321148999996,336.6504255000036,336.6653030000016,336.6653030000016,336.6653030000016,337.5490357999952,Scenes\126a.jpg,mid,s,0.8821123999950942,None,,,,,,,,00005,001,2025-11-09_17h45.24.630,MST_test,2024.2.2,60.00247210146506,2025-11-09 17h45.35.230435 +0530,
107,0,107,n,2.510939600004349,None,107,0,107,0,337.56531799999357,,,,,,,,,,,,,,,,,,,,,,,,,,,,,,,,,,,,,,,,,,,,,,,,,,337.5491220999975,337.56531799999357,338.0988692999963,338.0488078000053,338.0868487999978,338.0988692999963,338.0988692999963,338.0988692999963,340.61570070000016,Foils\scenes22.jpg,none,n,2.510939600004349,None,,,,,,,,00005,001,2025-11-09_17h45.24.630,MST_test,2024.2.2,60.00247210146506,2025-11-09 17h45.35.230435 +0530,
108,0,108,o,1.1008197999908589,None,108,0,108,0,340.63192230000277,,,,,,,,,,,,,,,,,,,,,,,,,,,,,,,,,,,,,,,,,,,,,,,,,,340.6157863999979,340.63192230000277,341.165516699999,341.11547319999954,341.1454432000028,341.165516699999,341.165516699999,341.165516699999,342.2822792999941,Objects\190b.jpg,mid,o,1.1008197999908589,None,,,,,,,,00005,001,2025-11-09_17h45.24.630,MST_test,2024.2.2,60.00247210146506,2025-11-09 17h45.35.230435 +0530,
109,0,109,o,0.8636932000081288,None,109,0,109,0,342.29854020000494,,,,,,,,,,,,,,,,,,,,,,,,,,,,,,,,,,,,,,,,,,,,,,,,,,342.2823645000026,342.29854020000494,342.79856049999944,342.78208010000526,342.7922477999964,342.79856049999944,342.79856049999944,342.79856049999944,343.6655874999997,Objects\064a.jpg,pre,o,0.8636932000081288,None,,,,,,,,00005,001,2025-11-09_17h45.24.630,MST_test,2024.2.2,60.00247210146506,2025-11-09 17h45.35.230435 +0530,
110,0,110,o,0.867335600007209,None,110,0,110,0,343.6818482999952,,,,,,,,,,,,,,,,,,,,,,,,,,,,,,,,,,,,,,,,,,,,,,,,,,343.66567089999444,343.6818482999952,344.1984678000008,344.16533410000557,344.19125370000256,344.1984678000008,344.1984678000008,344.1984678000008,345.0821214000025,Objects\152b.jpg,post,o,0.867335600007209,None,,,,,,,,00005,001,2025-11-09_17h45.24.630,MST_test,2024.2.2,60.00247210146506,2025-11-09 17h45.35.230435 +0530,
111,0,111,o,0.7915524000127334,None,111,0,111,0,345.0984854999988,,,,,,,,,,,,,,,,,,,,,,,,,,,,,,,,,,,,,,,,,,,,,,,,,,345.08220289999736,345.0984854999988,345.59849970000505,345.5820994999958,345.5921423999971,345.59849970000505,345.59849970000505,345.59849970000505,346.398721199992,Objects\182a.jpg,pre,o,0.7915524000127334,None,,,,,,,,00005,001,2025-11-09_17h45.24.630,MST_test,2024.2.2,60.00247210146506,2025-11-09 17h45.35.230435 +0530,
112,0,112,s,1.3238931999949273,None,112,0,112,0,346.41512469999725,,,,,,,,,,,,,,,,,,,,,,,,,,,,,,,,,,,,,,,,,,,,,,,,,,346.39879649999784,346.41512469999725,346.9317737999954,346.89865770000324,346.91420830000425,346.9317737999954,346.9317737999954,346.9317737999954,348.2653782999987,Objects\033b.jpg,post,s,1.3238931999949273,None,,,,,,,,00005,001,2025-11-09_17h45.24.630,MST_test,2024.2.2,60.00247210146506,2025-11-09 17h45.35.230435 +0530,
113,0,113,s,1.3634270000038669,None,113,0,113,0,348.2817505999992,,,,,,,,,,,,,,,,,,,,,,,,,,,,,,,,,,,,,,,,,,,,,,,,,,348.26545589999296,348.2817505999992,348.7983927000023,348.76525850000326,348.78192890000355,348.7983927000023,348.7983927000023,348.7983927000023,350.165571599995,Objects\052b.jpg,pre,s,1.3634270000038669,None,,,,,,,,00005,001,2025-11-09_17h45.24.630,MST_test,2024.2.2,60.00247210146506,2025-11-09 17h45.35.230435 +0530,
114,0,114,s,2.1315937000035774,None,114,0,114,0,350.1817030999955,,,,,,,,,,,,,,,,,,,,,,,,,,,,,,,,,,,,,,,,,,,,,,,,,,350.1656629999925,350.1817030999955,350.69837050000206,350.66531729999406,350.6817812999943,350.69837050000206,350.69837050000206,350.69837050000206,352.83202020000317,Foils\026a.jpg,none,s,2.1315937000035774,None,,,,,,,,00005,001,2025-11-09_17h45.24.630,MST_test,2024.2.2,60.00247210146506,2025-11-09 17h45.35.230435 +0530,
115,0,115,s,1.8924479999986943,None,115,0,115,0,352.84831040000427,,,,,,,,,,,,,,,,,,,,,,,,,,,,,,,,,,,,,,,,,,,,,,,,,,352.83210499999404,352.84831040000427,353.36522009999317,353.33182469999883,353.35285670000303,353.36522009999317,353.36522009999317,353.36522009999317,355.2653649999993,Scenes\165b.jpg,pre,s,1.8924479999986943,None,,,,,,,,00005,001,2025-11-09_17h45.24.630,MST_test,2024.2.2,60.00247210146506,2025-11-09 17h45.35.230435 +0530,
116,0,116,s,1.529286700009834,None,116,0,116,0,355.2815944000031,,,,,,,,,,,,,,,,,,,,,,,,,,,,,,,,,,,,,,,,,,,,,,,,,,355.2654504999955,355.2815944000031,355.79846109999926,355.76506209999206,355.79079990000173,355.79846109999926,355.79846109999926,355.79846109999926,357.33181329999934,Scenes\100b.jpg,pre,s,1.529286700009834,None,,,,,,,,00005,001,2025-11-09_17h45.24.630,MST_test,2024.2.2,60.00247210146506,2025-11-09 17h45.35.230435 +0530,
117,0,117,o,1.5300782999984222,None,117,0,117,0,357.3482146000024,,,,,,,,,,,,,,,,,,,,,,,,,,,,,,,,,,,,,,,,,,,,,,,,,,357.3319194999931,357.3482146000024,357.8815076000028,357.83173779999197,357.8712036999932,357.8815076000028,357.8815076000028,357.8815076000028,359.415168099993,Scenes\011b.jpg,mid,o,1.5300782999984222,None,,,,,,,,00005,001,2025-11-09_17h45.24.630,MST_test,2024.2.2,60.00247210146506,2025-11-09 17h45.35.230435 +0530,
118,0,118,n,1.478323299990734,None,118,0,118,0,359.4315104999987,,,,,,,,,,,,,,,,,,,,,,,,,,,,,,,,,,,,,,,,,,,,,,,,,,359.4152433999989,359.4315104999987,359.93174430000363,359.9150488000014,359.92693780000263,359.93174430000363,359.93174430000363,359.93174430000363,361.4151627999963,Foils\scenes12.jpg,none,n,1.478323299990734,None,,,,,,,,00005,001,2025-11-09_17h45.24.630,MST_test,2024.2.2,60.00247210146506,2025-11-09 17h45.35.230435 +0530,
119,0,119,s,2.421836699999403,None,119,0,119,0,361.43145269999513,,,,,,,,,,,,,,,,,,,,,,,,,,,,,,,,,,,,,,,,,,,,,,,,,,361.4152400000021,361.43145269999513,361.9483048999973,361.9149347000057,361.93060120000155,361.9483048999973,361.9483048999973,361.9483048999973,364.38176699999894,Objects\029b.jpg,mid,s,2.421836699999403,None,,,,,,,,00005,001,2025-11-09_17h45.24.630,MST_test,2024.2.2,60.00247210146506,2025-11-09 17h45.35.230435 +0530,
120,0,120,o,1.1797540999978082,None,120,0,120,0,364.39809400000377,,,,,,,,,,,,,,,,,,,,,,,,,,,,,,,,,,,,,,,,,,,,,,,,,,364.38185029999295,364.39809400000377,364.8980181999941,364.88153329999477,364.892019299994,364.8980181999941,364.8980181999941,364.8980181999941,366.0816967999999,Objects\018a.jpg,post,o,1.1797540999978082,None,,,,,,,,00005,001,2025-11-09_17h45.24.630,MST_test,2024.2.2,60.00247210146506,2025-11-09 17h45.35.230435 +0530,
121,0,121,o,1.816001300001517,None,121,0,121,0,366.0980284999969,,,,,,,,,,,,,,,,,,,,,,,,,,,,,,,,,,,,,,,,,,,,,,,,,,366.08177160000196,366.0980284999969,366.5979793000006,366.581474000006,366.591068099995,366.5979793000006,366.5979793000006,366.5979793000006,368.414918399998,Objects\124a.jpg,mid,o,1.816001300001517,None,,,,,,,,00005,001,2025-11-09_17h45.24.630,MST_test,2024.2.2,60.00247210146506,2025-11-09 17h45.35.230435 +0530,
122,0,122,n,1.9376889999984996,None,122,0,122,0,368.4313298000052,,,,,,,,,,,,,,,,,,,,,,,,,,,,,,,,,,,,,,,,,,,,,,,,,,368.4150016000058,368.4313298000052,368.94824209999933,368.9148826000019,368.9298882000003,368.94824209999933,368.94824209999933,368.94824209999933,370.8982019999967,Scenes\157a.jpg,mid,n,1.9376889999984996,None,,,,,,,,00005,001,2025-11-09_17h45.24.630,MST_test,2024.2.2,60.00247210146506,2025-11-09 17h45.35.230435 +0530,
123,0,123,s,1.491573100007372,None,123,0,123,0,370.91459240000404,,,,,,,,,,,,,,,,,,,,,,,,,,,,,,,,,,,,,,,,,,,,,,,,,,370.89829080000345,370.91459240000404,371.4481319000042,371.39806029999454,371.4295374999929,371.4481319000042,371.4481319000042,371.4481319000042,372.94837080000434,Scenes\050b.jpg,post,s,1.491573100007372,None,,,,,,,,00005,001,2025-11-09_17h45.24.630,MST_test,2024.2.2,60.00247210146506,2025-11-09 17h45.35.230435 +0530,
124,0,124,n,1.3884397000074387,None,124,0,124,0,372.96454169999924,,,,,,,,,,,,,,,,,,,,,,,,,,,,,,,,,,,,,,,,,,,,,,,,,,372.9484442999965,372.96454169999924,373.49810949999664,373.4480481999926,373.48080520000076,373.49810949999664,373.49810949999664,373.49810949999664,374.8981660999998,Objects\132b.jpg,pre,n,1.3884397000074387,None,,,,,,,,00005,001,2025-11-09_17h45.24.630,MST_test,2024.2.2,60.00247210146506,2025-11-09 17h45.35.230435 +0530,
125,0,125,s,1.5897839000099339,None,125,0,125,0,374.914500999992,,,,,,,,,,,,,,,,,,,,,,,,,,,,,,,,,,,,,,,,,,,,,,,,,,374.89825420000125,374.914500999992,375.44802229999914,375.3979629999958,375.43640530000266,375.44802229999914,375.44802229999914,375.44802229999914,377.04816059999575,Foils\scenes23.jpg,none,s,1.5897839000099339,None,,,,,,,,00005,001,2025-11-09_17h45.24.630,MST_test,2024.2.2,60.00247210146506,2025-11-09 17h45.35.230435 +0530,
126,0,126,s,1.210078699994483,None,126,0,126,0,377.0651845999964,,,,,,,,,,,,,,,,,,,,,,,,,,,,,,,,,,,,,,,,,,,,,,,,,,377.0482428999967,377.0651845999964,377.5980419999978,377.5480494999938,377.577492299999,377.5980419999978,377.5980419999978,377.5980419999978,378.8147767000046,Scenes\177b.jpg,pre,s,1.210078699994483,None,,,,,,,,00005,001,2025-11-09_17h45.24.630,MST_test,2024.2.2,60.00247210146506,2025-11-09 17h45.35.230435 +0530,
127,0,127,o,1.2060090000013588,None,127,0,127,0,378.8310860999918,,,,,,,,,,,,,,,,,,,,,,,,,,,,,,,,,,,,,,,,,,,,,,,,,,378.8148596999963,378.8310860999918,379.34771159999946,379.31467910000356,379.3352298999962,379.34771159999946,379.34771159999946,379.34771159999946,380.5646148999949,Scenes\040a.jpg,mid,o,1.2060090000013588,None,,,,,,,,00005,001,2025-11-09_17h45.24.630,MST_test,2024.2.2,60.00247210146506,2025-11-09 17h45.35.230435 +0530,
128,0,128,o,0.7904041000001598,None,128,0,128,0,380.58107200000086,,,,,,,,,,,,,,,,,,,,,,,,,,,,,,,,,,,,,,,,,,,,,,,,,,380.56469220000145,380.58107200000086,381.08123820000037,381.0646598000021,381.0752116999938,381.08123820000037,381.08123820000037,381.08123820000037,381.881461099998,Objects\180a.jpg,pre,o,0.7904041000001598,None,,,,,,,,00005,001,2025-11-09_17h45.24.630,MST_test,2024.2.2,60.00247210146506,2025-11-09 17h45.35.230435 +0530,
129,0,129,n,1.4464918000012403,None,129,0,129,0,381.8976948999916,,,,,,,,,,,,,,,,,,,,,,,,,,,,,,,,,,,,,,,,,,,,,,,,,,381.881538799993,381.8976948999916,382.4314277999947,382.3811859999987,382.41822330000286,382.4314277999947,382.4314277999947,382.4314277999947,383.8812343000027,Scenes\025b.jpg,pre,n,1.4464918000012403,None,,,,,,,,00005,001,2025-11-09_17h45.24.630,MST_test,2024.2.2,60.00247210146506,2025-11-09 17h45.35.230435 +0530,
130,0,130,s,2.051196799991885,None,130,0,130,0,383.8976384999987,,,,,,,,,,,,,,,,,,,,,,,,,,,,,,,,,,,,,,,,,,,,,,,,,,383.88131719999365,383.8976384999987,384.41430330000003,384.38117569999304,384.396774599998,384.41430330000003,384.41430330000003,384.41430330000003,386.481314699995,Objects\013b.jpg,post,s,2.051196799991885,None,,,,,,,,00005,001,2025-11-09_17h45.24.630,MST_test,2024.2.2,60.00247210146506,2025-11-09 17h45.35.230435 +0530,
131,0,131,o,1.2933065999968676,None,131,0,131,0,386.4975845000008,,,,,,,,,,,,,,,,,,,,,,,,,,,,,,,,,,,,,,,,,,,,,,,,,,386.48139990000345,386.4975845000008,387.01445960000274,386.9810582999926,387.0060517999955,387.01445960000274,387.01445960000274,387.01445960000274,388.3146255000029,Scenes\130a.jpg,mid,o,1.2933065999968676,None,,,,,,,,00005,001,2025-11-09_17h45.24.630,MST_test,2024.2.2,60.00247210146506,2025-11-09 17h45.35.230435 +0530,
132,0,132,o,1.0139038000052096,None,132,0,132,0,388.3308504000015,,,,,,,,,,,,,,,,,,,,,,,,,,,,,,,,,,,,,,,,,,,,,,,,,,388.31470809999155,388.3308504000015,388.8478507999971,388.8143312000029,388.83694670000114,388.8478507999971,388.8478507999971,388.8478507999971,389.86462039999606,Scenes\167a.jpg,post,o,1.0139038000052096,None,,,,,,,,00005,001,2025-11-09_17h45.24.630,MST_test,2024.2.2,60.00247210146506,2025-11-09 17h45.35.230435 +0530,
133,0,133,n,1.0608502999966731,None,133,0,133,0,389.88084489999164,,,,,,,,,,,,,,,,,,,,,,,,,,,,,,,,,,,,,,,,,,,,,,,,,,389.8647006999963,389.88084489999164,390.4144266999938,390.36436120000144,390.3938293999963,390.4144266999938,390.4144266999938,390.4144266999938,391.4812091000058,Scenes\190b.jpg,mid,n,1.0608502999966731,None,,,,,,,,00005,001,2025-11-09_17h45.24.630,MST_test,2024.2.2,60.00247210146506,2025-11-09 17h45.35.230435 +0530,
134,0,134,o,1.6899058999988483,None,134,0,134,0,391.4974743000057,,,,,,,,,,,,,,,,,,,,,,,,,,,,,,,,,,,,,,,,,,,,,,,,,,391.4812921999983,391.4974743000057,391.997661699992,391.98109000000113,391.9908473999967,391.997661699992,391.997661699992,391.997661699992,393.69782359999954,Objects\103b.jpg,mid,o,1.6899058999988483,None,,,,,,,,00005,001,2025-11-09_17h45.24.630,MST_test,2024.2.2,60.00247210146506,2025-11-09 17h45.35.230435 +0530,
135,0,135,o,1.2674771000019973,None,135,0,135,0,393.7141028000042,,,,,,,,,,,,,,,,,,,,,,,,,,,,,,,,,,,,,,,,,,,,,,,,,,393.6979057999997,393.7141028000042,394.23097239999333,394.19759270000213,394.2267867000046,394.23097239999333,394.23097239999333,394.23097239999333,395.5142988000007,Scenes\026a.jpg,pre,o,1.2674771000019973,None,,,,,,,,00005,001,2025-11-09_17h45.24.630,MST_test,2024.2.2,60.00247210146506,2025-11-09 17h45.35.230435 +0530,
136,0,136,n,1.246279200000572,None,136,0,136,0,395.5306850000052,,,,,,,,,,,,,,,,,,,,,,,,,,,,,,,,,,,,,,,,,,,,,,,,,,395.5143745999958,395.5306850000052,396.04734960000496,396.0143187999929,396.0313307000033,396.04734960000496,396.04734960000496,396.04734960000496,397.29758640000364,Foils\002a.jpg,none,n,1.246279200000572,None,,,,,,,,00005,001,2025-11-09_17h45.24.630,MST_test,2024.2.2,60.00247210146506,2025-11-09 17h45.35.230435 +0530,
137,0,137,s,1.2664840999932494,None,137,0,137,0,397.3140119000018,,,,,,,,,,,,,,,,,,,,,,,,,,,,,,,,,,,,,,,,,,,,,,,,,,397.29765999999654,397.3140119000018,397.84762610000325,397.7975391999935,397.8336616000015,397.84762610000325,397.84762610000325,397.84762610000325,399.11443940000026,Scenes\151b.jpg,mid,s,1.2664840999932494,None,,,,,,,,00005,001,2025-11-09_17h45.24.630,MST_test,2024.2.2,60.00247210146506,2025-11-09 17h45.35.230435 +0530,
138,0,138,s,1.4447030000010272,None,138,0,138,0,399.13064479999593,,,,,,,,,,,,,,,,,,,,,,,,,,,,,,,,,,,,,,,,,,,,,,,,,,399.11451549999765,399.13064479999593,399.6472686000052,399.6141168000031,399.63081459999376,399.6472686000052,399.6472686000052,399.6472686000052,401.0976498999953,Objects\034b.jpg,pre,s,1.4447030000010272,None,,,,,,,,00005,001,2025-11-09_17h45.24.630,MST_test,2024.2.2,60.00247210146506,2025-11-09 17h45.35.230435 +0530,
139,0,139,s,1.2220594999962486,None,139,0,139,0,401.1139276000031,,,,,,,,,,,,,,,,,,,,,,,,,,,,,,,,,,,,,,,,,,,,,,,,,,401.09773829999904,401.1139276000031,401.6138903999963,401.597597400003,401.6076682999992,401.6138903999963,401.6138903999963,401.6138903999963,402.8475849999959,Objects\116b.jpg,post,s,1.2220594999962486,None,,,,,,,,00005,001,2025-11-09_17h45.24.630,MST_test,2024.2.2,60.00247210146506,2025-11-09 17h45.35.230435 +0530,
140,0,140,n,1.343625699999393,None,140,0,140,0,402.86389720000443,,,,,,,,,,,,,,,,,,,,,,,,,,,,,,,,,,,,,,,,,,,,,,,,,,402.84766030000173,402.86389720000443,403.3805227999983,403.3473518999963,403.3682516999979,403.3805227999983,403.3805227999983,403.3805227999983,404.7308489999996,Scenes\142a.jpg,mid,n,1.343625699999393,None,,,,,,,,00005,001,2025-11-09_17h45.24.630,MST_test,2024.2.2,60.00247210146506,2025-11-09 17h45.35.230435 +0530,
141,0,141,n,1.1283642000053078,None,141,0,141,0,404.7471616999974,,,,,,,,,,,,,,,,,,,,,,,,,,,,,,,,,,,,,,,,,,,,,,,,,,404.73093320000044,404.7471616999974,405.2638055999996,405.23075669999525,405.25583349999215,405.2638055999996,405.2638055999996,405.2638055999996,406.3975197999971,Scenes\068b.jpg,mid,n,1.1283642000053078,None,,,,,,,,00005,001,2025-11-09_17h45.24.630,MST_test,2024.2.2,60.00247210146506,2025-11-09 17h45.35.230435 +0530,
142,0,142,s,1.4548775000002934,None,142,0,142,0,406.41382339999836,,,,,,,,,,,,,,,,,,,,,,,,,,,,,,,,,,,,,,,,,,,,,,,,,,406.397607299994,406.41382339999836,406.930442900004,406.89742500000284,406.9192791999958,406.930442900004,406.930442900004,406.930442900004,408.3975102999975,Objects\141b.jpg,mid,s,1.4548775000002934,None,,,,,,,,00005,001,2025-11-09_17h45.24.630,MST_test,2024.2.2,60.00247210146506,2025-11-09 17h45.35.230435 +0530,
143,0,143,n,1.6317397999955574,None,143,0,143,0,408.4137799000018,,,,,,,,,,,,,,,,,,,,,,,,,,,,,,,,,,,,,,,,,,,,,,,,,,408.3975952000037,408.4137799000018,408.9304301999946,408.8972700000013,408.91342159999476,408.9304301999946,408.9304301999946,408.9304301999946,410.564054699993,Foils\093b.jpg,none,n,1.6317397999955574,None,,,,,,,,00005,001,2025-11-09_17h45.24.630,MST_test,2024.2.2,60.00247210146506,2025-11-09 17h45.35.230435 +0530,
144,0,144,s,1.166122099995846,None,144,0,144,0,410.58042499999283,,,,,,,,,,,,,,,,,,,,,,,,,,,,,,,,,,,,,,,,,,,,,,,,,,410.564135099994,410.58042499999283,411.1139253000001,411.06387240000186,411.100385800004,411.1139253000001,411.1139253000001,411.1139253000001,412.28068179999536,Scenes\051b.jpg,post,s,1.166122099995846,None,,,,,,,,00005,001,2025-11-09_17h45.24.630,MST_test,2024.2.2,60.00247210146506,2025-11-09 17h45.35.230435 +0530,
145,0,145,s,1.2679538000083994,None,145,0,145,0,412.2970256999979,,,,,,,,,,,,,,,,,,,,,,,,,,,,,,,,,,,,,,,,,,,,,,,,,,412.28077470000426,412.2970256999979,412.8139017999929,412.7805124000006,412.80299349999405,412.8139017999929,412.8139017999929,412.8139017999929,414.09721579999314,Scenes\059a.jpg,mid,s,1.2679538000083994,None,,,,,,,,00005,001,2025-11-09_17h45.24.630,MST_test,2024.2.2,60.00247210146506,2025-11-09 17h45.35.230435 +0530,
146,0,146,s,1.1630173000012292,None,146,0,146,0,414.1136508000054,,,,,,,,,,,,,,,,,,,,,,,,,,,,,,,,,,,,,,,,,,,,,,,,,,414.09729730000254,414.1136508000054,414.6305627999973,414.59726140000566,414.61370400000305,414.6305627999973,414.6305627999973,414.6305627999973,415.79721259999496,Objects\154b.jpg,post,s,1.1630173000012292,None,,,,,,,,00005,001,2025-11-09_17h45.24.630,MST_test,2024.2.2,60.00247210146506,2025-11-09 17h45.35.230435 +0530,
147,0,147,s,1.0354166999895824,None,147,0,147,0,415.813636699997,,,,,,,,,,,,,,,,,,,,,,,,,,,,,,,,,,,,,,,,,,,,,,,,,,415.7972950999974,415.813636699997,416.313893700004,416.2971245999943,416.30318020000414,416.313893700004,416.313893700004,416.313893700004,417.3639931999933,Foils\scenes5.jpg,none,s,1.0354166999895824,None,,,,,,,,00005,001,2025-11-09_17h45.24.630,MST_test,2024.2.2,60.00247210146506,2025-11-09 17h45.35.230435 +0530,
148,0,148,n,1.2057003999943845,None,148,0,148,0,417.3802769000031,,,,,,,,,,,,,,,,,,,,,,,,,,,,,,,,,,,,,,,,,,,,,,,,,,417.36407619999954,417.3802769000031,417.88021950000257,417.86379780000425,417.8732958000037,417.88021950000257,417.88021950000257,417.88021950000257,419.097242799995,Foils\101b.jpg,none,n,1.2057003999943845,None,,,,,,,,00005,001,2025-11-09_17h45.24.630,MST_test,2024.2.2,60.00247210146506,2025-11-09 17h45.35.230435 +0530,
149,0,149,s,0.9628663000039523,None,149,0,149,0,419.1135424999957,,,,,,,,,,,,,,,,,,,,,,,,,,,,,,,,,,,,,,,,,,,,,,,,,,419.0973271999974,419.1135424999957,419.64707940000517,419.59699309999996,419.63282909999543,419.64707940000517,419.64707940000517,419.64707940000517,420.6139381999965,Scenes\105b.jpg,pre,s,0.9628663000039523,None,,,,,,,,00005,001,2025-11-09_17h45.24.630,MST_test,2024.2.2,60.00247210146506,2025-11-09 17h45.35.230435 +0530,
,,,,,,,,,,,,,,,,,,,,,,,,,,,,,,,,,,,,,,,,,,,,,,,,,,,,,,,,,,,,,,,,,,,,,,,,,,420.6139949999924,420.63014609999664,420.63014609999664,816.7551875999925,space,396.10859470001014,None,00005,001,2025-11-09_17h45.24.630,MST_test,2024.2.2,60.00247210146506,2025-11-09 17h45.35.230435 +0530,
