Sl_no,image_path,thisN,thisTrialN,thisRepN,key_resp_5.keys,key_resp_5.rt,key_resp_5.duration,key_resp_7.keys,key_resp_7.rt,key_resp_7.duration,key_resp_9.keys,key_resp_9.rt,key_resp_9.duration,key_resp_8.keys,key_resp_8.rt,key_resp_8.duration,practice.thisRepN,practice.thisTrialN,practice.thisN,trials.thisRepN,trials.thisTrialN,trials.thisN,thisRow.t,notes,welcome_page.started,text.started,key_resp.started,welcome_page.stopped,key_resp.keys,key_resp.rt,key_resp.duration,instructions.started,ins.started,key_resp_2.started,instructions.stopped,key_resp_2.keys,key_resp_2.rt,key_resp_2.duration,objects_only_instruction.started,text_3.started,key_resp_3.started,objects_only_instruction.stopped,key_resp_3.keys,key_resp_3.rt,key_resp_3.duration,ISI.started,text_4.started,text_4.stopped,ISI.stopped,practice_block.started,image.started,text_5.started,key_resp_5.started,practice_block.stopped,practice.key_resp_5.keys,practice.key_resp_5.rt,practice.key_resp_5.duration,indoor_outdoor.started,indoor_outdoor.stopped,practice.key_resp_7.keys,image.stopped,text_5.stopped,key_resp_5.stopped,text_7.started,key_resp_7.started,practice.key_resp_7.rt,practice.key_resp_7.duration,practice_to_main.started,text_2.started,key_resp_4.started,practice_to_main.stopped,key_resp_4.keys,key_resp_4.rt,key_resp_4.duration,objects.started,image_2.started,text_9.started,key_resp_9.started,objects.stopped,trials.key_resp_9.keys,trials.key_resp_9.rt,trials.key_resp_9.duration,encoding_task.started,encoding_task.stopped,trials.key_resp_8.keys,text_8.started,key_resp_8.started,trials.key_resp_8.rt,trials.key_resp_8.duration,image_2.stopped,text_9.stopped,key_resp_9.stopped,end_experiment.started,text_6.started,key_resp_6.started,end_experiment.stopped,key_resp_6.keys,key_resp_6.rt,key_resp_6.duration,list_of_stimuli,encoding_task_accuracy,participant,session,date,expName,psychopyVersion,frameRate,expStart,
,,,,,,,,,,,,,,,,,,,,,,,,,0.0017096999981731642,0.003918799997336464,0.003918799997336464,46.50295599999663,space,46.48904319999929,None,,,,,,,,,,,,,,,,,,,,,,,,,,,,,,,,,,,,,,,,,,,,,,,,,,,,,,,,,,,,,,,,,,,,,,,00012,001,2025-11-15_10h50.12.984,MST_task,2024.2.0,100.0744553952632,2025-11-15 10h50.18.779211 +0530,
,,,,,,,,,,,,,,,,,,,,,,,,,,,,,,,,46.50306699999783,46.52013309999893,46.52013309999893,91.32204409999758,space,44.79719119999936,None,,,,,,,,,,,,,,,,,,,,,,,,,,,,,,,,,,,,,,,,,,,,,,,,,,,,,,,,,,,,,,,,00012,001,2025-11-15_10h50.12.984,MST_task,2024.2.0,100.0744553952632,2025-11-15 10h50.18.779211 +0530,
,,,,,,,,,,,,,,,,,,,,,,,,,,,,,,,,,,,,,,,91.32213319999937,91.34161119999771,91.34161119999771,101.9111774999983,space,10.567999300001247,None,,,,,,,,,,,,,,,,,,,,,,,,,,,,,,,,,,,,,,,,,,,,,,,,,,,,,,,,,00012,001,2025-11-15_10h50.12.984,MST_task,2024.2.0,100.0744553952632,2025-11-15 10h50.18.779211 +0530,
4,practice_images/002b.jpg,0,0,1,f,1.790014500002144,0.21591970000008587,None,,,,,,,,,1,0,0,,,,101.92123129999891,,,,,,,,,,,,,,,,,,,,,,,101.91872329999751,101.92123129999891,102.43931669999802,102.40967509999973,102.42817329999889,102.43931669999802,102.43931669999802,102.43931669999802,105.41920289999689,f,1.790014500002144,0.21591970000008587,105.42431899999792,105.42434729999877,None,,,,,,,,,,,,,,,,,,,,,,,,,,,,,,,,,,,,,,,,,,00012,001,2025-11-15_10h50.12.984,MST_task,2024.2.0,100.0744553952632,2025-11-15 10h50.18.779211 +0530,
6,practice_images/158a.jpg,1,1,1,j,2.272347300000547,0.13586340000256314,None,,,,,,,,,1,1,1,,,,105.42822619999788,,,,,,,,,,,,,,,,,,,,,,,105.424447399997,105.42822619999788,105.9331377999988,105.91905249999763,105.93082569999751,105.9331377999988,105.9331377999988,105.9331377999988,108.91931320000003,j,2.272347300000547,0.13586340000256314,108.9195155999987,108.9195706999999,None,108.92805509999744,108.92805509999744,108.92805509999744,,,,,,,,,,,,,,,,,,,,,,,,,,,,,,,,,,,,,,,00012,001,2025-11-15_10h50.12.984,MST_task,2024.2.0,100.0744553952632,2025-11-15 10h50.18.779211 +0530,
1,practice_images/013a.jpg,2,2,1,None,,,j,0.3531820999996853,None,,,,,,,1,2,2,,,,108.92805509999744,,,,,,,,,,,,,,,,,,,,,,,108.91980119999789,108.92805509999744,109.43358279999666,109.41940389999945,109.43129619999672,109.43358279999666,109.43358279999666,109.43358279999666,112.4189355999988,None,,,112.41912859999866,112.789318799998,j,112.42753289999746,112.42753289999746,112.42753289999746,112.42753289999746,112.42753289999746,0.3531820999996853,None,,,,,,,,,,,,,,,,,,,,,,,,,,,,,,,,,,,00012,001,2025-11-15_10h50.12.984,MST_task,2024.2.0,100.0744553952632,2025-11-15 10h50.18.779211 +0530,
9,practice_images/180a.jpg,3,3,1,f,0.9244331999980204,0.11994880000202102,None,,,,,,,,,1,3,3,,,,112.79750769999737,,,,,,,,,,,,,,,,,,,,,,,112.78960349999761,112.79750769999737,113.30439799999658,113.28845549999824,113.30208989999664,113.30439799999658,113.30439799999658,113.30439799999658,116.28846789999807,f,0.9244331999980204,0.11994880000202102,116.28868030000012,116.28873219999878,None,116.29698139999891,116.29698139999891,116.29698139999891,,,,,,,,,,,,,,,,,,,,,,,,,,,,,,,,,,,,,,,00012,001,2025-11-15_10h50.12.984,MST_task,2024.2.0,100.0744553952632,2025-11-15 10h50.18.779211 +0530,
3,practice_images/037a.jpg,4,4,1,f,1.9670820999999705,0.16000050000002375,None,,,,,,,,,1,4,4,,,,116.29698139999891,,,,,,,,,,,,,,,,,,,,,,,116.28894429999855,116.29698139999891,116.80638319999707,116.78794789999665,116.80354709999665,116.80638319999707,116.80638319999707,116.80638319999707,119.79725479999979,f,1.9670820999999705,0.16000050000002375,119.79744519999804,119.79750379999678,None,,,,,,,,,,,,,,,,,,,,,,,,,,,,,,,,,,,,,,,,,,00012,001,2025-11-15_10h50.12.984,MST_task,2024.2.0,100.0744553952632,2025-11-15 10h50.18.779211 +0530,
2,practice_images/031a.jpg,5,5,1,f,1.3699268999989727,0.2400813999993261,None,,,,,,,,,1,5,5,,,,119.80670999999711,,,,,,,,,,,,,,,,,,,,,,,119.79776209999909,119.80670999999711,120.31487959999868,120.29779919999783,120.31252820000009,120.31487959999868,120.31487959999868,120.31487959999868,123.30655229999684,f,1.3699268999989727,0.2400813999993261,123.30669909999779,123.30674539999745,None,,,,,,,,,,,,,,,,,,,,,,,,,,,,,,,,,,,,,,,,,,00012,001,2025-11-15_10h50.12.984,MST_task,2024.2.0,100.0744553952632,2025-11-15 10h50.18.779211 +0530,
7,practice_images/166a.jpg,6,6,1,f,1.709216799998103,0.23187500000130967,None,,,,,,,,,1,6,6,,,,123.31605299999865,,,,,,,,,,,,,,,,,,,,,,,123.30693989999781,123.31605299999865,123.82370529999753,123.8073003999998,123.82128589999775,123.82370529999753,123.82370529999753,123.82370529999753,126.80716049999683,f,1.709216799998103,0.23187500000130967,126.80733669999972,126.8073822999977,None,126.81576279999717,126.81576279999717,126.81576279999717,,,,,,,,,,,,,,,,,,,,,,,,,,,,,,,,,,,,,,,00012,001,2025-11-15_10h50.12.984,MST_task,2024.2.0,100.0744553952632,2025-11-15 10h50.18.779211 +0530,
8,practice_images/178a.jpg,7,7,1,f,2.655037299999094,0.24841010000091046,None,,,,,,,,,1,7,7,,,,126.81576279999717,,,,,,,,,,,,,,,,,,,,,,,126.8075809999973,126.81576279999717,127.32569199999853,127.30701649999901,127.32296599999972,127.32569199999853,127.32569199999853,127.32569199999853,130.31583989999854,f,2.655037299999094,0.24841010000091046,130.31603059999907,130.31616089999807,None,,,,,,,,,,,,,,,,,,,,,,,,,,,,,,,,,,,,,,,,,,00012,001,2025-11-15_10h50.12.984,MST_task,2024.2.0,100.0744553952632,2025-11-15 10h50.18.779211 +0530,
10,practice_images/182a.jpg,8,8,1,f,2.6216467000012926,0.2481579999985115,None,,,,,,,,,1,8,8,,,,130.32538119999663,,,,,,,,,,,,,,,,,,,,,,,130.3164459999971,130.32538119999663,130.83157469999787,130.81630450000011,130.82926049999878,130.83157469999787,130.83157469999787,130.83157469999787,133.81637059999775,f,2.6216467000012926,0.2481579999985115,133.81657639999685,133.81663859999753,None,133.82502620000014,133.82502620000014,133.82502620000014,,,,,,,,,,,,,,,,,,,,,,,,,,,,,,,,,,,,,,,00012,001,2025-11-15_10h50.12.984,MST_task,2024.2.0,100.0744553952632,2025-11-15 10h50.18.779211 +0530,
5,practice_images/139a.jpg,9,9,1,j,1.9523141999998188,0.19228300000031595,None,,,,,,,,,1,9,9,,,,133.82502620000014,,,,,,,,,,,,,,,,,,,,,,,133.81692029999977,133.82502620000014,134.3324302999972,134.31650230000014,134.32999549999658,134.3324302999972,134.3324302999972,134.3324302999972,137.3249713999976,j,1.9523141999998188,0.19228300000031595,137.32511709999744,137.32516939999914,None,,,,,,,,,,,,,,,,,,,,,,,,,,,,,,,,,,,,,,,,,,00012,001,2025-11-15_10h50.12.984,MST_task,2024.2.0,100.0744553952632,2025-11-15 10h50.18.779211 +0530,
,,,,,,,,,,,,,,,,,,,,,,,,,,,,,,,,,,,,,,,,,,,,,,,,,,,,,,,,,,,,,,,,,,,,137.32530349999797,137.335535299997,137.335535299997,238.1830267999976,space,100.83708530000149,None,,,,,,,,,,,,,,,,,,,,,,,,,,,,00012,001,2025-11-15_10h50.12.984,MST_task,2024.2.0,100.0744553952632,2025-11-15 10h50.18.779211 +0530,
,Scenes\014a.jpg,0,0,1,,,,,,,j,1.8432037999991735,0.12838239999837242,None,,,,,,1,0,0,238.19156729999668,,,,,,,,,,,,,,,,,,,,,,,238.18448409999837,238.19156729999668,238.70560809999733,238.68229710000014,,,,,,,,,,,,,,,,,,,,,,,,,,238.701992899998,238.70560809999733,238.70560809999733,238.70560809999733,241.6916618999967,j,1.8432037999991735,0.12838239999837242,241.69542079999883,241.69544829999722,None,,,,,,,,,,,,,,,,,00012,001,2025-11-15_10h50.12.984,MST_task,2024.2.0,100.0744553952632,2025-11-15 10h50.18.779211 +0530,
,Scenes\094a.jpg,1,0,2,,,,,,,f,1.9469538000012108,0.20770509999783826,None,,,,,,2,0,1,241.70111539999925,,,,,,,,,,,,,,,,,,,,,,,241.69555179999952,241.70111539999925,242.2182765999969,242.19217279999793,,,,,,,,,,,,,,,,,,,,,,,,,,242.2150335999977,242.2182765999969,242.2182765999969,242.2182765999969,245.20135749999827,f,1.9469538000012108,0.20770509999783826,245.20153709999795,245.20158379999702,None,,,,,,,,,,,,,,,,,00012,001,2025-11-15_10h50.12.984,MST_task,2024.2.0,100.0744553952632,2025-11-15 10h50.18.779211 +0530,
,Scenes\136a.jpg,2,0,3,,,,,,,j,2.7726335000006657,0.17577349999919534,None,,,,,,3,0,2,245.21078679999846,,,,,,,,,,,,,,,,,,,,,,,245.20181539999976,245.21078679999846,245.7210567999973,245.7017804999996,,,,,,,,,,,,,,,,,,,,,,,,,,245.71776399999726,245.7210567999973,245.7210567999973,245.7210567999973,248.71100669999942,j,2.7726335000006657,0.17577349999919534,248.7112176999981,248.71127290000004,None,,,,,,,,,,,,,,,,,00012,001,2025-11-15_10h50.12.984,MST_task,2024.2.0,100.0744553952632,2025-11-15 10h50.18.779211 +0530,
,Scenes\009a.jpg,3,0,4,,,,,,,None,,,f,2.3270698999986053,None,,,,4,0,3,248.72042379999766,,,,,,,,,,,,,,,,,,,,,,,248.7116180999983,248.72042379999766,249.23614169999928,249.21110809999664,,,,,,,,,,,,,,,,,,,,,,,,,,249.2328998999983,249.23614169999928,249.23614169999928,249.23614169999928,252.22043859999758,None,,,252.22058829999878,254.56126459999723,f,252.22986919999676,252.22986919999676,2.3270698999986053,None,,,,,,,,,,,,,00012,001,2025-11-15_10h50.12.984,MST_task,2024.2.0,100.0744553952632,2025-11-15 10h50.18.779211 +0530,
,Scenes\158a.jpg,4,0,5,,,,,,,j,1.1583399000010104,0.17594979999921634,None,,,,,,5,0,4,254.5696226,,,,,,,,,,,,,,,,,,,,,,,254.5615528999988,254.5696226,255.08634189999793,255.060859899997,,,,,,,,,,,,,,,,,,,,,,,,,,255.0829324999977,255.08634189999793,255.08634189999793,255.08634189999793,258.0698968999968,j,1.1583399000010104,0.17594979999921634,258.0700810999988,258.0701319999971,None,,,,,,,,,,,,,,,,,00012,001,2025-11-15_10h50.12.984,MST_task,2024.2.0,100.0744553952632,2025-11-15 10h50.18.779211 +0530,
,Scenes\178a.jpg,5,0,6,,,,,,,j,1.7720323000030476,0.22372980000000098,None,,,,,,6,0,5,258.0793303999999,,,,,,,,,,,,,,,,,,,,,,,258.0703648999988,258.0793303999999,258.5930415999974,258.5704350999986,,,,,,,,,,,,,,,,,,,,,,,,,,258.5896471999986,258.5930415999974,258.5930415999974,258.5930415999974,261.57929839999997,j,1.7720323000030476,0.22372980000000098,261.5794532,261.5794958999977,None,,,,,,,,,,,,,,,,,00012,001,2025-11-15_10h50.12.984,MST_task,2024.2.0,100.0744553952632,2025-11-15 10h50.18.779211 +0530,
,Scenes\037a.jpg,6,0,7,,,,,,,j,2.290718600001128,0.20718850000048405,None,,,,,,7,0,6,261.58879309999975,,,,,,,,,,,,,,,,,,,,,,,261.57971309999994,261.58879309999975,262.09888809999757,262.07940529999905,,,,,,,,,,,,,,,,,,,,,,,,,,262.0962155999987,262.09888809999757,262.09888809999757,262.09888809999757,265.08892939999714,j,2.290718600001128,0.20718850000048405,265.0891105999981,265.08915459999844,None,,,,,,,,,,,,,,,,,00012,001,2025-11-15_10h50.12.984,MST_task,2024.2.0,100.0744553952632,2025-11-15 10h50.18.779211 +0530,
,Objects\169a.jpg,7,0,8,,,,,,,f,2.117983700001787,0.21608849999756785,None,,,,,,8,0,7,265.09833269999945,,,,,,,,,,,,,,,,,,,,,,,265.08938809999745,265.09833269999945,265.60703939999803,265.58935199999905,,,,,,,,,,,,,,,,,,,,,,,,,,265.6039318999974,265.60703939999803,265.60703939999803,265.60703939999803,268.59851759999947,f,2.117983700001787,0.21608849999756785,268.5986907999977,268.5987338999985,None,,,,,,,,,,,,,,,,,00012,001,2025-11-15_10h50.12.984,MST_task,2024.2.0,100.0744553952632,2025-11-15 10h50.18.779211 +0530,
,Objects\030a.jpg,8,0,9,,,,,,,f,2.2192757000011625,0.3123109000007389,None,,,,,,9,0,8,268.6078557000001,,,,,,,,,,,,,,,,,,,,,,,268.59896389999994,268.6078557000001,269.11339569999836,269.0984849999986,,,,,,,,,,,,,,,,,,,,,,,,,,269.1107596999973,269.11339569999836,269.11339569999836,269.11339569999836,272.0987632999968,f,2.2192757000011625,0.3123109000007389,272.0989137999968,272.0989492999979,None,,,,,272.1073770999974,272.1073770999974,272.1073770999974,,,,,,,,,,00012,001,2025-11-15_10h50.12.984,MST_task,2024.2.0,100.0744553952632,2025-11-15 10h50.18.779211 +0530,
,Objects\032a.jpg,9,0,10,,,,,,,j,1.3896206999997958,0.21599219999916386,None,,,,,,10,0,9,272.1073770999974,,,,,,,,,,,,,,,,,,,,,,,272.0991835999994,272.1073770999974,272.61521749999883,272.5981520999994,,,,,,,,,,,,,,,,,,,,,,,,,,272.61269059999904,272.61521749999883,272.61521749999883,272.61521749999883,275.60751809999783,j,1.3896206999997958,0.21599219999916386,275.6076886999981,275.6077329,None,,,,,,,,,,,,,,,,,00012,001,2025-11-15_10h50.12.984,MST_task,2024.2.0,100.0744553952632,2025-11-15 10h50.18.779211 +0530,
,Objects\128a.jpg,10,0,11,,,,,,,f,2.4655165000003763,0.2480312999978196,None,,,,,,11,0,10,275.6169867999997,,,,,,,,,,,,,,,,,,,,,,,275.6080543999997,275.6169867999997,276.123299699997,276.1080908999975,,,,,,,,,,,,,,,,,,,,,,,,,,276.120600299997,276.123299699997,276.123299699997,276.123299699997,279.1078404,f,2.4655165000003763,0.2480312999978196,279.1079944999983,279.1080282999974,None,,,,,279.11647879999873,279.11647879999873,279.11647879999873,,,,,,,,,,00012,001,2025-11-15_10h50.12.984,MST_task,2024.2.0,100.0744553952632,2025-11-15 10h50.18.779211 +0530,
,Objects\056a.jpg,11,0,12,,,,,,,f,2.9063483999998425,None,None,,,,,,12,0,11,279.11647879999873,,,,,,,,,,,,,,,,,,,,,,,279.10821099999885,279.11647879999873,279.6266504999985,279.6075448999982,,,,,,,,,,,,,,,,,,,,,,,,,,279.62390779999987,279.6266504999985,279.6266504999985,279.6266504999985,282.61643679999906,f,2.9063483999998425,None,282.61670089999825,282.61675099999775,None,,,,,,,,,,,,,,,,,00012,001,2025-11-15_10h50.12.984,MST_task,2024.2.0,100.0744553952632,2025-11-15 10h50.18.779211 +0530,
,Objects\043a.jpg,12,0,13,,,,,,,f,2.072664100000111,0.34342040000046836,None,,,,,,13,0,12,282.62612420000005,,,,,,,,,,,,,,,,,,,,,,,282.61693789999845,282.62612420000005,283.13267199999973,283.1171918999971,,,,,,,,,,,,,,,,,,,,,,,,,,283.1299250999982,283.13267199999973,283.13267199999973,283.13267199999973,286.11701249999896,f,2.072664100000111,0.34342040000046836,286.1171485999985,286.1171798999967,None,,,,,286.1255321999997,286.1255321999997,286.1255321999997,,,,,,,,,,00012,001,2025-11-15_10h50.12.984,MST_task,2024.2.0,100.0744553952632,2025-11-15 10h50.18.779211 +0530,
,Objects\163a.jpg,13,0,14,,,,,,,f,2.308256700001948,0.37630039999930887,None,,,,,,14,0,13,286.1255321999997,,,,,,,,,,,,,,,,,,,,,,,286.1173544999983,286.1255321999997,286.6326672999967,286.61686120000013,,,,,,,,,,,,,,,,,,,,,,,,,,286.63009209999655,286.6326672999967,286.6326672999967,286.6326672999967,289.61677359999885,f,2.308256700001948,0.37630039999930887,289.6169485999999,289.6169878999972,None,,,,,289.6253259999976,289.6253259999976,289.6253259999976,,,,,,,,,,00012,001,2025-11-15_10h50.12.984,MST_task,2024.2.0,100.0744553952632,2025-11-15 10h50.18.779211 +0530,
,Scenes\129a.jpg,14,0,15,,,,,,,j,1.9333284999993339,0.23223450000295998,None,,,,,,15,0,14,289.6253259999976,,,,,,,,,,,,,,,,,,,,,,,289.6171899000001,289.6253259999976,290.1354904,290.1158056999993,,,,,,,,,,,,,,,,,,,,,,,,,,290.13223359999756,290.1354904,290.1354904,290.1354904,293.12571169999865,j,1.9333284999993339,0.23223450000295998,293.12594119999994,293.126017999999,None,,,,,,,,,,,,,,,,,00012,001,2025-11-15_10h50.12.984,MST_task,2024.2.0,100.0744553952632,2025-11-15 10h50.18.779211 +0530,
,Scenes\108a.jpg,15,0,16,,,,,,,j,2.093079600002966,0.2720496000001731,None,,,,,,16,0,15,293.1348165999989,,,,,,,,,,,,,,,,,,,,,,,293.1262123999986,293.1348165999989,293.65624959999695,293.62565229999745,,,,,,,,,,,,,,,,,,,,,,,,,,293.652897699998,293.65624959999695,293.65624959999695,293.65624959999695,296.6348760999972,j,2.093079600002966,0.2720496000001731,296.63508,296.6351251999986,None,,,,,,,,,,,,,,,,,00012,001,2025-11-15_10h50.12.984,MST_task,2024.2.0,100.0744553952632,2025-11-15 10h50.18.779211 +0530,
,Scenes\034a.jpg,16,0,17,,,,,,,j,2.2368793999994523,0.24827780000123312,None,,,,,,17,0,16,296.64431579999655,,,,,,,,,,,,,,,,,,,,,,,296.63533039999675,296.64431579999655,297.16832929999873,297.13502719999815,,,,,,,,,,,,,,,,,,,,,,,,,,297.1646598999978,297.16832929999873,297.16832929999873,297.16832929999873,300.14443129999927,j,2.2368793999994523,0.24827780000123312,300.14459239999996,300.14463369999794,None,,,,,,,,,,,,,,,,,00012,001,2025-11-15_10h50.12.984,MST_task,2024.2.0,100.0744553952632,2025-11-15 10h50.18.779211 +0530,
,Scenes\162a.jpg,17,0,18,,,,,,,j,1.877606599999126,0.27974929999982123,None,,,,,,18,0,17,300.15382580000005,,,,,,,,,,,,,,,,,,,,,,,300.1449294999984,300.15382580000005,300.66402279999966,300.64478739999686,,,,,,,,,,,,,,,,,,,,,,,,,,300.66069669999706,300.66402279999966,300.66402279999966,300.66402279999966,303.6542327999996,j,1.877606599999126,0.27974929999982123,303.6544224999998,303.65447309999945,None,,,,,,,,,,,,,,,,,00012,001,2025-11-15_10h50.12.984,MST_task,2024.2.0,100.0744553952632,2025-11-15 10h50.18.779211 +0530,
,Scenes\106a.jpg,18,0,19,,,,,,,j,1.7234157999992021,0.24794979999933275,None,,,,,,19,0,18,303.6633755999974,,,,,,,,,,,,,,,,,,,,,,,303.654794099999,303.6633755999974,304.1781028999976,304.1543251999974,,,,,,,,,,,,,,,,,,,,,,,,,,304.1747951999969,304.1781028999976,304.1781028999976,304.1781028999976,307.1633866999982,j,1.7234157999992021,0.24794979999933275,307.1637910999998,307.1638533999976,None,,,,,,,,,,,,,,,,,00012,001,2025-11-15_10h50.12.984,MST_task,2024.2.0,100.0744553952632,2025-11-15 10h50.18.779211 +0530,
,Scenes\049a.jpg,19,0,20,,,,,,,j,1.7507335999980569,0.26313650000156485,None,,,,,,20,0,19,307.1729321999992,,,,,,,,,,,,,,,,,,,,,,,307.1641310999985,307.1729321999992,307.68672389999847,307.66438070000004,,,,,,,,,,,,,,,,,,,,,,,,,,307.6834084999973,307.68672389999847,307.68672389999847,307.68672389999847,310.67329249999966,j,1.7507335999980569,0.26313650000156485,310.6734757999984,310.67352649999884,None,,,,,,,,,,,,,,,,,00012,001,2025-11-15_10h50.12.984,MST_task,2024.2.0,100.0744553952632,2025-11-15 10h50.18.779211 +0530,
,Scenes\047a.jpg,20,0,21,,,,,,,j,2.119817500002682,0.2636605999978201,None,,,,,,21,0,20,310.6824749999978,,,,,,,,,,,,,,,,,,,,,,,310.6738359999981,310.6824749999978,311.19771339999716,311.1737282999966,,,,,,,,,,,,,,,,,,,,,,,,,,311.1943762999981,311.19771339999716,311.19771339999716,311.19771339999716,314.1829231999982,j,2.119817500002682,0.2636605999978201,314.18318949999957,314.18324869999924,None,,,,,,,,,,,,,,,,,00012,001,2025-11-15_10h50.12.984,MST_task,2024.2.0,100.0744553952632,2025-11-15 10h50.18.779211 +0530,
,Objects\041a.jpg,21,0,22,,,,,,,f,2.429604400000244,0.3679673000006005,None,,,,,,22,0,21,314.1922027999972,,,,,,,,,,,,,,,,,,,,,,,314.1836134999976,314.1922027999972,314.7031595999979,314.6829413999985,,,,,,,,,,,,,,,,,,,,,,,,,,314.7001031999971,314.7031595999979,314.7031595999979,314.7031595999979,317.6922087999992,f,2.429604400000244,0.3679673000006005,317.69258649999756,317.6926347999979,None,,,,,,,,,,,,,,,,,00012,001,2025-11-15_10h50.12.984,MST_task,2024.2.0,100.0744553952632,2025-11-15 10h50.18.779211 +0530,
,Objects\055a.jpg,22,0,23,,,,,,,None,,,f,None,None,,,,23,0,22,317.70179689999713,,,,,,,,,,,,,,,,,,,,,,,317.69290589999946,317.70179689999713,318.21047839999665,318.1928396999974,,,,,,,,,,,,,,,,,,,,,,,,,,318.20781729999726,318.21047839999665,318.21047839999665,318.21047839999665,321.20179369999823,None,,,321.2020296999981,321.483126799998,f,321.2113580999976,321.2113580999976,None,None,,,,,,,,,,,,,00012,001,2025-11-15_10h50.12.984,MST_task,2024.2.0,100.0744553952632,2025-11-15 10h50.18.779211 +0530,
,Objects\076a.jpg,23,0,24,,,,,,,j,1.531991099996958,0.2641865000005055,None,,,,,,24,0,23,321.49113769999894,,,,,,,,,,,,,,,,,,,,,,,321.4833830999996,321.49113769999894,322.0015241999972,321.9827876999989,,,,,,,,,,,,,,,,,,,,,,,,,,321.9986656000001,322.0015241999972,322.0015241999972,322.0015241999972,324.99115809999785,j,1.531991099996958,0.2641865000005055,324.9913302999994,324.9913671999966,None,,,,,,,,,,,,,,,,,00012,001,2025-11-15_10h50.12.984,MST_task,2024.2.0,100.0744553952632,2025-11-15 10h50.18.779211 +0530,
,Objects\022a.jpg,24,0,25,,,,,,,f,2.2226136999997834,0.3036984000027587,None,,,,,,25,0,24,325.0008679999992,,,,,,,,,,,,,,,,,,,,,,,324.99160899999697,325.0008679999992,325.51078139999663,325.4920200999986,,,,,,,,,,,,,,,,,,,,,,,,,,325.5082868999998,325.51078139999663,325.51078139999663,325.51078139999663,328.50093149999884,f,2.2226136999997834,0.3036984000027587,328.50136839999686,328.501441299999,None,,,,,,,,,,,,,,,,,00012,001,2025-11-15_10h50.12.984,MST_task,2024.2.0,100.0744553952632,2025-11-15 10h50.18.779211 +0530,
,Objects\088a.jpg,25,0,26,,,,,,,f,1.9206206999988353,0.3049143999996886,None,,,,,,26,0,25,328.51052199999685,,,,,,,,,,,,,,,,,,,,,,,328.5017130999986,328.51052199999685,329.0203427999986,329.00126709999677,,,,,,,,,,,,,,,,,,,,,,,,,,329.01753109999845,329.0203427999986,329.0203427999986,329.0203427999986,332.0103588999991,f,1.9206206999988353,0.3049143999996886,332.01057089999813,332.01063019999856,None,,,,,,,,,,,,,,,,,00012,001,2025-11-15_10h50.12.984,MST_task,2024.2.0,100.0744553952632,2025-11-15 10h50.18.779211 +0530,
,Objects\081a.jpg,26,0,27,,,,,,,None,,,f,0.7882290999987163,None,,,,27,0,26,332.0198941999988,,,,,,,,,,,,,,,,,,,,,,,332.0110292999998,332.0198941999988,332.5272985999982,332.51083949999884,,,,,,,,,,,,,,,,,,,,,,,,,,332.5244888999987,332.5272985999982,332.5272985999982,332.5272985999982,335.51984719999746,None,,,335.5200012999994,336.32108309999967,f,335.5294010999969,335.5294010999969,0.7882290999987163,None,,,,,,,,,,,,,00012,001,2025-11-15_10h50.12.984,MST_task,2024.2.0,100.0744553952632,2025-11-15 10h50.18.779211 +0530,
,Objects\094a.jpg,27,0,28,,,,,,,None,,,f,1.111857500000042,None,,,,28,0,27,336.32921949999945,,,,,,,,,,,,,,,,,,,,,,,336.3213586999991,336.32921949999945,336.8365559999984,336.8203841999966,,,,,,,,,,,,,,,,,,,,,,,,,,336.83412249999674,336.8365559999984,336.8365559999984,336.8365559999984,339.82096999999703,None,,,339.82118589999664,340.9498879999992,f,339.82891409999866,339.82891409999866,1.111857500000042,None,339.82891409999866,339.82891409999866,339.82891409999866,,,,,,,,,,00012,001,2025-11-15_10h50.12.984,MST_task,2024.2.0,100.0744553952632,2025-11-15 10h50.18.779211 +0530,
,Scenes\031a.jpg,28,0,29,,,,,,,f,1.6398898000006739,0.26321760000064387,None,,,,,,29,0,28,340.95876009999847,,,,,,,,,,,,,,,,,,,,,,,340.9501797999983,340.95876009999847,341.4774792999997,341.4498680999968,,,,,,,,,,,,,,,,,,,,,,,,,,341.4740107999969,341.4774792999997,341.4774792999997,341.4774792999997,344.4590637000001,f,1.6398898000006739,0.26321760000064387,344.45922439999777,344.4592660999988,None,,,,,,,,,,,,,,,,,00012,001,2025-11-15_10h50.12.984,MST_task,2024.2.0,100.0744553952632,2025-11-15 10h50.18.779211 +0530,
,Scenes\187a.jpg,29,0,30,,,,,,,j,1.6066165999982331,0.24709770000117715,None,,,,,,30,0,29,344.46826019999935,,,,,,,,,,,,,,,,,,,,,,,344.4595558999972,344.46826019999935,344.9833343999999,344.95955799999865,,,,,,,,,,,,,,,,,,,,,,,,,,344.97999929999787,344.9833343999999,344.9833343999999,344.9833343999999,347.968423899998,j,1.6066165999982331,0.24709770000117715,347.96857949999685,347.9686215999973,None,,,,,,,,,,,,,,,,,00012,001,2025-11-15_10h50.12.984,MST_task,2024.2.0,100.0744553952632,2025-11-15 10h50.18.779211 +0530,
,Scenes\180a.jpg,30,0,31,,,,,,,j,1.3371991999993043,0.19193140000061248,None,,,,,,31,0,30,347.9777927999967,,,,,,,,,,,,,,,,,,,,,,,347.9688352999983,347.9777927999967,348.4915067999973,348.469099599999,,,,,,,,,,,,,,,,,,,,,,,,,,348.4881136999975,348.4915067999973,348.4915067999973,348.4915067999973,351.47786939999787,j,1.3371991999993043,0.19193140000061248,351.4780198999979,351.4780555999969,None,,,,,,,,,,,,,,,,,00012,001,2025-11-15_10h50.12.984,MST_task,2024.2.0,100.0744553952632,2025-11-15 10h50.18.779211 +0530,
,Scenes\071a.jpg,31,0,32,,,,,,,j,2.1381890999982716,0.14375640000071144,None,,,,,,32,0,31,351.48736989999816,,,,,,,,,,,,,,,,,,,,,,,351.4782411999986,351.48736989999816,352.00337749999744,351.9785695999999,,,,,,,,,,,,,,,,,,,,,,,,,,352.00019109999994,352.00337749999744,352.00337749999744,352.00337749999744,354.98761789999844,j,2.1381890999982716,0.14375640000071144,354.9877899999992,354.9878379999973,None,,,,,,,,,,,,,,,,,00012,001,2025-11-15_10h50.12.984,MST_task,2024.2.0,100.0744553952632,2025-11-15 10h50.18.779211 +0530,
,Scenes\142a.jpg,32,0,33,,,,,,,j,1.9272444000016549,0.16865859999961685,None,,,,,,33,0,32,354.9969725999981,,,,,,,,,,,,,,,,,,,,,,,354.98810089999824,354.9969725999981,355.5096855999982,355.48734649999824,,,,,,,,,,,,,,,,,,,,,,,,,,355.5061964999986,355.5096855999982,355.5096855999982,355.5096855999982,358.4971916999966,j,1.9272444000016549,0.16865859999961685,358.49735569999757,358.49739939999927,None,,,,,,,,,,,,,,,,,00012,001,2025-11-15_10h50.12.984,MST_task,2024.2.0,100.0744553952632,2025-11-15 10h50.18.779211 +0530,
,Scenes\078a.jpg,33,0,34,,,,,,,j,2.221859699999186,0.18349569999918458,None,,,,,,34,0,33,358.506485599999,,,,,,,,,,,,,,,,,,,,,,,358.4976999999999,358.506485599999,359.0238090999992,358.99767019999854,,,,,,,,,,,,,,,,,,,,,,,,,,359.0204002999999,359.0238090999992,359.0238090999992,359.0238090999992,362.0067087999996,j,2.221859699999186,0.18349569999918458,362.0068836999999,362.0069293999986,None,,,,,,,,,,,,,,,,,00012,001,2025-11-15_10h50.12.984,MST_task,2024.2.0,100.0744553952632,2025-11-15 10h50.18.779211 +0530,
,Scenes\192a.jpg,34,0,35,,,,,,,j,1.460033100000146,0.15201950000118813,None,,,,,,35,0,34,362.0160595999987,,,,,,,,,,,,,,,,,,,,,,,362.00722459999815,362.0160595999987,362.5289727999989,362.50742309999987,,,,,,,,,,,,,,,,,,,,,,,,,,362.52554039999814,362.5289727999989,362.5289727999989,362.5289727999989,365.51621189999787,j,1.460033100000146,0.15201950000118813,365.5163683999999,365.516406499999,None,,,,,,,,,,,,,,,,,00012,001,2025-11-15_10h50.12.984,MST_task,2024.2.0,100.0744553952632,2025-11-15 10h50.18.779211 +0530,
,Objects\053a.jpg,35,0,36,,,,,,,j,2.194144699999015,0.20043670000086422,None,,,,,,36,0,35,365.52562599999874,,,,,,,,,,,,,,,,,,,,,,,365.51660419999826,365.52562599999874,366.0348350999993,366.01685949999955,,,,,,,,,,,,,,,,,,,,,,,,,,366.0315851999985,366.0348350999993,366.0348350999993,366.0348350999993,369.02578619999986,j,2.194144699999015,0.20043670000086422,369.0259624999999,369.0260043999988,None,,,,,,,,,,,,,,,,,00012,001,2025-11-15_10h50.12.984,MST_task,2024.2.0,100.0744553952632,2025-11-15 10h50.18.779211 +0530,
,Objects\123a.jpg,36,0,37,,,,,,,f,2.2764214999988326,0.26447729999927105,None,,,,,,37,0,36,369.03515849999894,,,,,,,,,,,,,,,,,,,,,,,369.0262745999971,369.03515849999894,369.5443533999969,369.52648169999884,,,,,,,,,,,,,,,,,,,,,,,,,,369.54177979999804,369.5443533999969,369.5443533999969,369.5443533999969,372.53565139999773,f,2.2764214999988326,0.26447729999927105,372.5358482999982,372.5358942999992,None,,,,,,,,,,,,,,,,,00012,001,2025-11-15_10h50.12.984,MST_task,2024.2.0,100.0744553952632,2025-11-15 10h50.18.779211 +0530,
,Objects\189a.jpg,37,0,38,,,,,,,f,1.8727921999998216,0.2651396000001114,None,,,,,,38,0,37,372.5448841999969,,,,,,,,,,,,,,,,,,,,,,,372.536162299999,372.5448841999969,373.0518962999995,373.03577689999656,,,,,,,,,,,,,,,,,,,,,,,,,,373.0493830999985,373.0518962999995,373.0518962999995,373.0518962999995,376.036564799997,f,1.8727921999998216,0.2651396000001114,376.0367987999998,376.0368599999965,None,,,,,376.04450480000014,376.04450480000014,376.04450480000014,,,,,,,,,,00012,001,2025-11-15_10h50.12.984,MST_task,2024.2.0,100.0744553952632,2025-11-15 10h50.18.779211 +0530,
,Objects\096a.jpg,38,0,39,,,,,,,f,2.0618424999993294,0.2636568999987503,None,,,,,,39,0,38,376.04450480000014,,,,,,,,,,,,,,,,,,,,,,,376.0371693999987,376.04450480000014,376.5512017999972,376.5357874000001,,,,,,,,,,,,,,,,,,,,,,,,,,376.548458199999,376.5512017999972,376.5512017999972,376.5512017999972,379.53579439999885,f,2.0618424999993294,0.2636568999987503,379.53596849999667,379.5360062,None,,,,,379.54404389999763,379.54404389999763,379.54404389999763,,,,,,,,,,00012,001,2025-11-15_10h50.12.984,MST_task,2024.2.0,100.0744553952632,2025-11-15 10h50.18.779211 +0530,
,Objects\102a.jpg,39,0,40,,,,,,,f,2.2649179000000004,0.25521049999952083,None,,,,,,40,0,39,379.54404389999763,,,,,,,,,,,,,,,,,,,,,,,379.53619069999695,379.54404389999763,380.0525944999972,380.0346338999989,,,,,,,,,,,,,,,,,,,,,,,,,,380.0499162999986,380.0525944999972,380.0525944999972,380.0525944999972,383.04395099999965,f,2.2649179000000004,0.25521049999952083,383.0440896,383.04412599999705,None,,,,,,,,,,,,,,,,,00012,001,2025-11-15_10h50.12.984,MST_task,2024.2.0,100.0744553952632,2025-11-15 10h50.18.779211 +0530,
,Objects\180a.jpg,40,0,41,,,,,,,f,1.802369600001839,0.24855839999872842,None,,,,,,41,0,40,383.053495199998,,,,,,,,,,,,,,,,,,,,,,,383.0443146999969,383.053495199998,383.5623283999994,383.5448757999984,,,,,,,,,,,,,,,,,,,,,,,,,,383.5596286999971,383.5623283999994,383.5623283999994,383.5623283999994,386.5538132999973,f,1.802369600001839,0.24855839999872842,386.55403589999696,386.55409769999824,None,,,,,,,,,,,,,,,,,00012,001,2025-11-15_10h50.12.984,MST_task,2024.2.0,100.0744553952632,2025-11-15 10h50.18.779211 +0530,
,Objects\154a.jpg,41,0,42,,,,,,,f,1.7263104999983625,0.2479053000024578,None,,,,,,42,0,41,386.56323749999865,,,,,,,,,,,,,,,,,,,,,,,386.55439809999734,386.56323749999865,387.0708872999967,387.05439750000005,,,,,,,,,,,,,,,,,,,,,,,,,,387.0680547999982,387.0708872999967,387.0708872999967,387.0708872999967,390.06346739999935,f,1.7263104999983625,0.2479053000024578,390.06379839999863,390.0639291999978,None,,,,,,,,,,,,,,,,,00012,001,2025-11-15_10h50.12.984,MST_task,2024.2.0,100.0744553952632,2025-11-15 10h50.18.779211 +0530,
,Scenes\069a.jpg,42,0,43,,,,,,,j,1.7162109999990207,0.20064110000021174,None,,,,,,43,0,42,390.0728847999999,,,,,,,,,,,,,,,,,,,,,,,390.0643343999982,390.0728847999999,390.5846727999997,390.56411389999994,,,,,,,,,,,,,,,,,,,,,,,,,,390.5813246999969,390.5846727999997,390.5846727999997,390.5846727999997,393.5729864999994,j,1.7162109999990207,0.20064110000021174,393.57321359999696,393.5732648999983,None,,,,,,,,,,,,,,,,,00012,001,2025-11-15_10h50.12.984,MST_task,2024.2.0,100.0744553952632,2025-11-15 10h50.18.779211 +0530,
,Scenes\152a.jpg,43,0,44,,,,,,,j,1.526844500000152,0.20821240000077523,None,,,,,,44,0,43,393.5823145999966,,,,,,,,,,,,,,,,,,,,,,,393.5735722999998,393.5823145999966,394.094063499997,394.0735763999983,,,,,,,,,,,,,,,,,,,,,,,,,,394.09071859999676,394.094063499997,394.094063499997,394.094063499997,397.08248829999866,j,1.526844500000152,0.20821240000077523,397.08267519999936,397.0827235999968,None,,,,,,,,,,,,,,,,,00012,001,2025-11-15_10h50.12.984,MST_task,2024.2.0,100.0744553952632,2025-11-15 10h50.18.779211 +0530,
,Scenes\022a.jpg,44,0,45,,,,,,,j,1.9480053000006592,0.20818409999992582,None,,,,,,45,0,44,397.09188789999826,,,,,,,,,,,,,,,,,,,,,,,397.0830212000001,397.09188789999826,397.6015266999966,397.5830662999979,,,,,,,,,,,,,,,,,,,,,,,,,,397.5980862999968,397.6015266999966,397.6015266999966,397.6015266999966,400.59195049999835,j,1.9480053000006592,0.20818409999992582,400.5921288999998,400.59217779999744,None,,,,,,,,,,,,,,,,,00012,001,2025-11-15_10h50.12.984,MST_task,2024.2.0,100.0744553952632,2025-11-15 10h50.18.779211 +0530,
,Scenes\074a.jpg,45,0,46,,,,,,,j,2.2853670999975293,0.1673428000030981,None,,,,,,46,0,45,400.6013751999999,,,,,,,,,,,,,,,,,,,,,,,400.59248279999883,400.6013751999999,401.1122340999973,401.09187609999935,,,,,,,,,,,,,,,,,,,,,,,,,,401.1090392999977,401.1122340999973,401.1122340999973,401.1122340999973,404.1014426999973,j,2.2853670999975293,0.1673428000030981,404.10164039999654,404.10169309999765,None,,,,,,,,,,,,,,,,,00012,001,2025-11-15_10h50.12.984,MST_task,2024.2.0,100.0744553952632,2025-11-15 10h50.18.779211 +0530,
,Scenes\017a.jpg,46,0,47,,,,,,,None,,,j,None,None,,,,47,0,46,404.1110246999997,,,,,,,,,,,,,,,,,,,,,,,404.10201689999667,404.1110246999997,404.6264648999968,404.60184669999944,,,,,,,,,,,,,,,,,,,,,,,,,,404.62315489999673,404.6264648999968,404.6264648999968,404.6264648999968,407.6109669999969,None,,,407.6111448999982,407.79096509999727,j,407.62034459999995,407.62034459999995,None,None,,,,,,,,,,,,,00012,001,2025-11-15_10h50.12.984,MST_task,2024.2.0,100.0744553952632,2025-11-15 10h50.18.779211 +0530,
,Scenes\058a.jpg,47,0,48,,,,,,,f,1.538385500000004,0.23266510000030394,None,,,,,,48,0,47,407.80028689999745,,,,,,,,,,,,,,,,,,,,,,,407.79124579999916,407.80028689999745,408.3142424999969,408.29163389999667,,,,,,,,,,,,,,,,,,,,,,,,,,408.31066109999665,408.3142424999969,408.3142424999969,408.3142424999969,411.30050559999654,f,1.538385500000004,0.23266510000030394,411.3007101999974,411.3007680999981,None,,,,,,,,,,,,,,,,,00012,001,2025-11-15_10h50.12.984,MST_task,2024.2.0,100.0744553952632,2025-11-15 10h50.18.779211 +0530,
,Scenes\062a.jpg,48,0,49,,,,,,,j,2.0653028000015183,0.16778949999934412,None,,,,,,49,0,48,411.30987769999774,,,,,,,,,,,,,,,,,,,,,,,411.30112239999653,411.30987769999774,411.8280053999988,411.80145659999835,,,,,,,,,,,,,,,,,,,,,,,,,,411.82513409999956,411.8280053999988,411.8280053999988,411.8280053999988,414.809930899999,j,2.0653028000015183,0.16778949999934412,414.81007749999844,414.81011539999963,None,,,,,,,,,,,,,,,,,00012,001,2025-11-15_10h50.12.984,MST_task,2024.2.0,100.0744553952632,2025-11-15 10h50.18.779211 +0530,
,Objects\130a.jpg,49,0,50,,,,,,,f,2.590122000001429,0.17471829999703914,None,,,,,,50,0,49,414.8194704999987,,,,,,,,,,,,,,,,,,,,,,,414.8103788999979,414.8194704999987,415.3281664999995,415.3105316999972,,,,,,,,,,,,,,,,,,,,,,,,,,415.32502829999794,415.3281664999995,415.3281664999995,415.3281664999995,418.31955839999864,f,2.590122000001429,0.17471829999703914,418.319762799998,418.3198171999975,None,,,,,,,,,,,,,,,,,00012,001,2025-11-15_10h50.12.984,MST_task,2024.2.0,100.0744553952632,2025-11-15 10h50.18.779211 +0530,
,Objects\060a.jpg,50,0,51,,,,,,,None,,,f,0.14429240000026766,None,,,,51,0,50,418.3290135999996,,,,,,,,,,,,,,,,,,,,,,,418.3200782999993,418.3290135999996,418.8364576999993,418.82013989999905,,,,,,,,,,,,,,,,,,,,,,,,,,418.83379969999805,418.8364576999993,418.8364576999993,418.8364576999993,421.8205879999987,None,,,421.82077429999845,421.9795787999974,f,421.8286455999987,421.8286455999987,0.14429240000026766,None,421.8286455999987,421.8286455999987,421.8286455999987,,,,,,,,,,00012,001,2025-11-15_10h50.12.984,MST_task,2024.2.0,100.0744553952632,2025-11-15 10h50.18.779211 +0530,
,Objects\158a.jpg,51,0,52,,,,,,,f,1.2613751999997476,0.23967850000190083,None,,,,,,52,0,51,421.9884753999977,,,,,,,,,,,,,,,,,,,,,,,421.9798131999996,421.9884753999977,422.4960628999979,422.4794761999983,,,,,,,,,,,,,,,,,,,,,,,,,,422.4935052000001,422.4960628999979,422.4960628999979,422.4960628999979,425.48840559999735,f,1.2613751999997476,0.23967850000190083,425.48855659999754,425.4885953999983,None,,,,,,,,,,,,,,,,,00012,001,2025-11-15_10h50.12.984,MST_task,2024.2.0,100.0744553952632,2025-11-15 10h50.18.779211 +0530,
,Objects\134a.jpg,52,0,53,,,,,,,f,2.247973200002889,0.22338209999725223,None,,,,,,53,0,52,425.4980521999969,,,,,,,,,,,,,,,,,,,,,,,425.48884779999935,425.4980521999969,426.0054220999991,425.98896709999826,,,,,,,,,,,,,,,,,,,,,,,,,,426.00275989999864,426.0054220999991,426.0054220999991,426.0054220999991,428.98864169999797,f,2.247973200002889,0.22338209999725223,428.988722099999,428.98873759999697,None,,,,,428.997495399999,428.997495399999,428.997495399999,,,,,,,,,,00012,001,2025-11-15_10h50.12.984,MST_task,2024.2.0,100.0744553952632,2025-11-15 10h50.18.779211 +0530,
,Objects\165a.jpg,53,0,54,,,,,,,f,2.1153046999970684,0.27218490000086604,None,,,,,,54,0,53,428.997495399999,,,,,,,,,,,,,,,,,,,,,,,428.9888549999996,428.997495399999,429.50589919999766,429.4889875999979,,,,,,,,,,,,,,,,,,,,,,,,,,429.50320219999776,429.50589919999766,429.50589919999766,429.50589919999766,432.49757939999836,f,2.1153046999970684,0.27218490000086604,432.4976949999982,432.4977246999988,None,,,,,,,,,,,,,,,,,00012,001,2025-11-15_10h50.12.984,MST_task,2024.2.0,100.0744553952632,2025-11-15 10h50.18.779211 +0530,
,Objects\148a.jpg,54,0,55,,,,,,,f,1.9857312999993155,0.24005229999966105,None,,,,,,55,0,54,432.50709749999805,,,,,,,,,,,,,,,,,,,,,,,432.4979265999973,432.50709749999805,433.01897199999803,432.99806479999825,,,,,,,,,,,,,,,,,,,,,,,,,,433.0160705999988,433.01897199999803,433.01897199999803,433.01897199999803,436.007176799998,f,1.9857312999993155,0.24005229999966105,436.0073154999991,436.00735129999885,None,,,,,,,,,,,,,,,,,00012,001,2025-11-15_10h50.12.984,MST_task,2024.2.0,100.0744553952632,2025-11-15 10h50.18.779211 +0530,
,Objects\126a.jpg,55,0,56,,,,,,,j,2.6945565000023635,0.13603759999750764,None,,,,,,56,0,55,436.0166575999974,,,,,,,,,,,,,,,,,,,,,,,436.00753399999667,436.0166575999974,436.5268537999982,436.5079909999986,,,,,,,,,,,,,,,,,,,,,,,,,,436.52426699999705,436.5268537999982,436.5268537999982,436.5268537999982,439.5166490999982,j,2.6945565000023635,0.13603759999750764,439.5167834999993,439.51681709999684,None,,,,,,,,,,,,,,,,,00012,001,2025-11-15_10h50.12.984,MST_task,2024.2.0,100.0744553952632,2025-11-15 10h50.18.779211 +0530,
,Scenes\053a.jpg,56,0,57,,,,,,,j,1.8849785999991582,0.2404975999997987,None,,,,,,57,0,56,439.52618559999974,,,,,,,,,,,,,,,,,,,,,,,439.5169913999998,439.52618559999974,440.0397449999982,440.017157899998,,,,,,,,,,,,,,,,,,,,,,,,,,440.0359549999994,440.0397449999982,440.0397449999982,440.0397449999982,443.026546699999,j,1.8849785999991582,0.2404975999997987,443.02672029999667,443.0267681999976,None,,,,,,,,,,,,,,,,,00012,001,2025-11-15_10h50.12.984,MST_task,2024.2.0,100.0744553952632,2025-11-15 10h50.18.779211 +0530,
,Scenes\123a.jpg,57,0,58,,,,,,,j,1.2889957000006689,0.20021259999703034,None,,,,,,58,0,57,443.0358761999996,,,,,,,,,,,,,,,,,,,,,,,443.027081799999,443.0358761999996,443.5483330999996,443.5265746999976,,,,,,,,,,,,,,,,,,,,,,,,,,443.54527999999846,443.5483330999996,443.5483330999996,443.5483330999996,446.53607639999973,j,1.2889957000006689,0.20021259999703034,446.5362411999995,446.53628249999747,None,,,,,,,,,,,,,,,,,00012,001,2025-11-15_10h50.12.984,MST_task,2024.2.0,100.0744553952632,2025-11-15 10h50.18.779211 +0530,
,Scenes\011a.jpg,58,0,59,,,,,,,j,1.9887810999971407,0.1515136000016355,None,,,,,,59,0,58,446.54561829999875,,,,,,,,,,,,,,,,,,,,,,,446.53656189999674,446.54561829999875,447.0644835999992,447.0370496999967,,,,,,,,,,,,,,,,,,,,,,,,,,447.06109379999907,447.0644835999992,447.0644835999992,447.0644835999992,450.0455535999972,j,1.9887810999971407,0.1515136000016355,450.045767399999,450.0458293999982,None,,,,,,,,,,,,,,,,,00012,001,2025-11-15_10h50.12.984,MST_task,2024.2.0,100.0744553952632,2025-11-15 10h50.18.779211 +0530,
,Scenes\024a.jpg,59,0,60,,,,,,,j,1.016534700000193,0.22333410000283038,None,,,,,,60,0,59,450.0549796999985,,,,,,,,,,,,,,,,,,,,,,,450.0461643999988,450.0549796999985,450.56516889999693,450.5459727999987,,,,,,,,,,,,,,,,,,,,,,,,,,450.56201959999817,450.56516889999693,450.56516889999693,450.56516889999693,453.5551510999976,j,1.016534700000193,0.22333410000283038,453.55533579999974,453.5553839999993,None,,,,,,,,,,,,,,,,,00012,001,2025-11-15_10h50.12.984,MST_task,2024.2.0,100.0744553952632,2025-11-15 10h50.18.779211 +0530,
,Scenes\091a.jpg,60,0,61,,,,,,,j,1.5850869999994757,0.1918336000017007,None,,,,,,61,0,60,453.5645549999972,,,,,,,,,,,,,,,,,,,,,,,453.55570039999657,453.5645549999972,454.0765070999987,454.0555518999972,,,,,,,,,,,,,,,,,,,,,,,,,,454.0733272999969,454.0765070999987,454.0765070999987,454.0765070999987,457.0647726999996,j,1.5850869999994757,0.1918336000017007,457.06500609999785,457.06506029999946,None,,,,,,,,,,,,,,,,,00012,001,2025-11-15_10h50.12.984,MST_task,2024.2.0,100.0744553952632,2025-11-15 10h50.18.779211 +0530,
,Scenes\081a.jpg,61,0,62,,,,,,,j,0.9283523000012792,0.20892059999823687,None,,,,,,62,0,61,457.07415089999995,,,,,,,,,,,,,,,,,,,,,,,457.0654063999973,457.07415089999995,457.5886152999992,457.564924899998,,,,,,,,,,,,,,,,,,,,,,,,,,457.5851249999978,457.5886152999992,457.5886152999992,457.5886152999992,460.5743253999972,j,0.9283523000012792,0.20892059999823687,460.57451819999915,460.57457019999856,None,,,,,,,,,,,,,,,,,00012,001,2025-11-15_10h50.12.984,MST_task,2024.2.0,100.0744553952632,2025-11-15 10h50.18.779211 +0530,
,Scenes\119a.jpg,62,0,63,,,,,,,j,1.323086799999146,0.20013509999989765,None,,,,,,63,0,62,460.5837474999971,,,,,,,,,,,,,,,,,,,,,,,460.57490869999674,460.5837474999971,461.0978514999988,461.07483460000003,,,,,,,,,,,,,,,,,,,,,,,,,,461.09420709999904,461.0978514999988,461.0978514999988,461.0978514999988,464.083887599998,j,1.323086799999146,0.20013509999989765,464.0840782999985,464.084125399997,None,,,,,,,,,,,,,,,,,00012,001,2025-11-15_10h50.12.984,MST_task,2024.2.0,100.0744553952632,2025-11-15 10h50.18.779211 +0530,
,Objects\145a.jpg,63,0,64,,,,,,,f,1.6271226000026218,0.19191209999917191,None,,,,,,64,0,63,464.093345199999,,,,,,,,,,,,,,,,,,,,,,,464.0844376999994,464.093345199999,464.6021632999982,464.5843376999983,,,,,,,,,,,,,,,,,,,,,,,,,,464.5990673999986,464.6021632999982,464.6021632999982,464.6021632999982,467.5933389999991,f,1.6271226000026218,0.19191209999917191,467.59355159999905,467.59361329999956,None,,,,,,,,,,,,,,,,,00012,001,2025-11-15_10h50.12.984,MST_task,2024.2.0,100.0744553952632,2025-11-15 10h50.18.779211 +0530,
,Objects\017a.jpg,64,0,65,,,,,,,f,2.6146915999997873,0.16771420000077342,None,,,,,,65,0,64,467.6029144999993,,,,,,,,,,,,,,,,,,,,,,,467.59397199999876,467.6029144999993,468.11046069999793,468.0936942999979,,,,,,,,,,,,,,,,,,,,,,,,,,468.1077312999987,468.11046069999793,468.11046069999793,468.11046069999793,471.1029907999982,f,2.6146915999997873,0.16771420000077342,471.10313569999926,471.10317399999985,None,,,,,,,,,,,,,,,,,00012,001,2025-11-15_10h50.12.984,MST_task,2024.2.0,100.0744553952632,2025-11-15 10h50.18.779211 +0530,
,Objects\042a.jpg,65,0,66,,,,,,,f,2.512974100001884,0.1677224999984901,None,,,,,,66,0,65,471.11233959999663,,,,,,,,,,,,,,,,,,,,,,,471.10339190000013,471.11233959999663,471.62031359999673,471.6031415999969,,,,,,,,,,,,,,,,,,,,,,,,,,471.6174902999992,471.62031359999673,471.62031359999673,471.62031359999673,474.61255229999733,f,2.512974100001884,0.1677224999984901,474.61278559999846,474.6128370999977,None,,,,,,,,,,,,,,,,,00012,001,2025-11-15_10h50.12.984,MST_task,2024.2.0,100.0744553952632,2025-11-15 10h50.18.779211 +0530,
,Objects\143a.jpg,66,0,67,,,,,,,j,2.4589059999998426,0.17635810000138008,None,,,,,,67,0,66,474.6219882999976,,,,,,,,,,,,,,,,,,,,,,,474.6130920999967,474.6219882999976,475.13015209999867,475.11291679999704,,,,,,,,,,,,,,,,,,,,,,,,,,475.127413299997,475.13015209999867,475.13015209999867,475.13015209999867,478.12214369999856,j,2.4589059999998426,0.17635810000138008,478.1223452999984,478.1223969999992,None,,,,,,,,,,,,,,,,,00012,001,2025-11-15_10h50.12.984,MST_task,2024.2.0,100.0744553952632,2025-11-15 10h50.18.779211 +0530,
,Objects\111a.jpg,67,0,68,,,,,,,f,2.782828499999596,None,None,,,,,,68,0,67,478.1315004999997,,,,,,,,,,,,,,,,,,,,,,,478.12288069999704,478.1315004999997,478.6382653999972,478.62290869999924,,,,,,,,,,,,,,,,,,,,,,,,,,478.6356457999973,478.6382653999972,478.6382653999972,478.6382653999972,481.6227738999987,f,2.782828499999596,None,481.6229499000001,481.622993099998,None,,,,,481.6311173999966,481.6311173999966,481.6311173999966,,,,,,,,,,00012,001,2025-11-15_10h50.12.984,MST_task,2024.2.0,100.0744553952632,2025-11-15 10h50.18.779211 +0530,
,Objects\100a.jpg,68,0,69,,,,,,,j,2.241527499998483,0.15140769999925396,None,,,,,,69,0,68,481.6311173999966,,,,,,,,,,,,,,,,,,,,,,,481.6232846999992,481.6311173999966,482.13982039999973,482.1220570999976,,,,,,,,,,,,,,,,,,,,,,,,,,482.13681109999743,482.13982039999973,482.13982039999973,482.13982039999973,485.13097359999665,j,2.241527499998483,0.15140769999925396,485.1311330999997,485.13117520000014,None,,,,,,,,,,,,,,,,,00012,001,2025-11-15_10h50.12.984,MST_task,2024.2.0,100.0744553952632,2025-11-15 10h50.18.779211 +0530,
,Objects\112a.jpg,69,0,70,,,,,,,f,1.3330492000022787,0.2799773999977333,None,,,,,,70,0,69,485.1405504999966,,,,,,,,,,,,,,,,,,,,,,,485.13137639999695,485.1405504999966,485.64838899999813,485.6315904999974,,,,,,,,,,,,,,,,,,,,,,,,,,485.64587069999834,485.64838899999813,485.64838899999813,485.64838899999813,488.6407887999994,f,1.3330492000022787,0.2799773999977333,488.6409492999992,488.64099219999844,None,,,,,,,,,,,,,,,,,00012,001,2025-11-15_10h50.12.984,MST_task,2024.2.0,100.0744553952632,2025-11-15 10h50.18.779211 +0530,
,Scenes\001a.jpg,70,0,71,,,,,,,f,1.62542620000022,0.2243845999983023,None,,,,,,71,0,70,488.6502795999986,,,,,,,,,,,,,,,,,,,,,,,488.64118699999744,488.6502795999986,489.17152259999784,489.1413264999974,,,,,,,,,,,,,,,,,,,,,,,,,,489.1684387999994,489.17152259999784,489.17152259999784,489.17152259999784,492.1505808999973,f,1.62542620000022,0.2243845999983023,492.1507430999991,492.1507877999975,None,,,,,,,,,,,,,,,,,00012,001,2025-11-15_10h50.12.984,MST_task,2024.2.0,100.0744553952632,2025-11-15 10h50.18.779211 +0530,
,Scenes\120a.jpg,71,0,72,,,,,,,j,1.1911010000003444,0.21589479999965988,None,,,,,,72,0,71,492.15993179999714,,,,,,,,,,,,,,,,,,,,,,,492.15109289999964,492.15993179999714,492.6777259999981,492.65135569999984,,,,,,,,,,,,,,,,,,,,,,,,,,492.67388319999736,492.6777259999981,492.6777259999981,492.6777259999981,495.6598772999969,j,1.1911010000003444,0.21589479999965988,495.66004509999766,495.6600881999984,None,,,,,,,,,,,,,,,,,00012,001,2025-11-15_10h50.12.984,MST_task,2024.2.0,100.0744553952632,2025-11-15 10h50.18.779211 +0530,
,Scenes\134a.jpg,72,0,73,,,,,,,j,1.216025500001706,0.2149472999990394,None,,,,,,73,0,72,495.6693512999991,,,,,,,,,,,,,,,,,,,,,,,495.6604331999988,495.6693512999991,496.18997399999716,496.1604368999979,,,,,,,,,,,,,,,,,,,,,,,,,,496.1863416999986,496.18997399999716,496.18997399999716,496.18997399999716,499.1695074999989,j,1.216025500001706,0.2149472999990394,499.1698053,499.1698632999978,None,,,,,,,,,,,,,,,,,00012,001,2025-11-15_10h50.12.984,MST_task,2024.2.0,100.0744553952632,2025-11-15 10h50.18.779211 +0530,
,Scenes\167a.jpg,73,0,74,,,,,,,f,1.7087605999986408,0.2556871000015235,None,,,,,,74,0,73,499.1789749999989,,,,,,,,,,,,,,,,,,,,,,,499.1701644999994,499.1789749999989,499.6965173999997,499.66987209999934,,,,,,,,,,,,,,,,,,,,,,,,,,499.69287899999836,499.6965173999997,499.6965173999997,499.6965173999997,502.6790953999989,f,1.7087605999986408,0.2556871000015235,502.67928069999834,502.6793323999991,None,,,,,,,,,,,,,,,,,00012,001,2025-11-15_10h50.12.984,MST_task,2024.2.0,100.0744553952632,2025-11-15 10h50.18.779211 +0530,
,Scenes\130a.jpg,74,0,75,,,,,,,j,2.8705568999976094,None,None,,,,,,75,0,74,502.68864329999997,,,,,,,,,,,,,,,,,,,,,,,502.67968309999924,502.68864329999997,503.20645279999735,503.17918369999825,,,,,,,,,,,,,,,,,,,,,,,,,,503.2028447999983,503.20645279999735,503.20645279999735,503.20645279999735,506.188731299997,j,2.8705568999976094,None,506.188911199999,506.1889573999979,None,,,,,,,,,,,,,,,,,00012,001,2025-11-15_10h50.12.984,MST_task,2024.2.0,100.0744553952632,2025-11-15 10h50.18.779211 +0530,
,Scenes\126a.jpg,75,0,76,,,,,,,j,2.5054648000004818,0.20861389999845414,None,,,,,,76,0,75,506.19812439999805,,,,,,,,,,,,,,,,,,,,,,,506.1892029999981,506.19812439999805,506.71527309999874,506.68932029999996,,,,,,,,,,,,,,,,,,,,,,,,,,506.71161329999813,506.71527309999874,506.71527309999874,506.71527309999874,509.6982320999996,j,2.5054648000004818,0.20861389999845414,509.6984158999985,509.69846529999995,None,,,,,,,,,,,,,,,,,00012,001,2025-11-15_10h50.12.984,MST_task,2024.2.0,100.0744553952632,2025-11-15 10h50.18.779211 +0530,
,Scenes\121a.jpg,76,0,77,,,,,,,j,1.030982700001914,0.2801161999996111,None,,,,,,77,0,76,509.7075988999968,,,,,,,,,,,,,,,,,,,,,,,509.69873799999914,509.7075988999968,510.222307,510.1987046999966,,,,,,,,,,,,,,,,,,,,,,,,,,510.21882879999976,510.222307,510.222307,510.222307,513.2080042999987,j,1.030982700001914,0.2801161999996111,513.2081815999991,513.2082265999998,None,,,,,,,,,,,,,,,,,00012,001,2025-11-15_10h50.12.984,MST_task,2024.2.0,100.0744553952632,2025-11-15 10h50.18.779211 +0530,
,Objects\122a.jpg,77,0,78,,,,,,,f,2.3736022999983106,0.23253739999927348,None,,,,,,78,0,77,513.2172654999995,,,,,,,,,,,,,,,,,,,,,,,513.2085664999977,513.2172654999995,513.727133999997,513.7079736999985,,,,,,,,,,,,,,,,,,,,,,,,,,513.7236264999992,513.727133999997,513.727133999997,513.727133999997,516.7175648999983,f,2.3736022999983106,0.23253739999927348,516.7177553000001,516.7178013999983,None,,,,,,,,,,,,,,,,,00012,001,2025-11-15_10h50.12.984,MST_task,2024.2.0,100.0744553952632,2025-11-15 10h50.18.779211 +0530,
,Objects\005a.jpg,78,0,79,,,,,,,f,2.6830173000016657,0.1903109000013501,None,,,,,,79,0,78,516.7268253999973,,,,,,,,,,,,,,,,,,,,,,,516.7180437999996,516.7268253999973,517.2353193999988,517.2175248999993,,,,,,,,,,,,,,,,,,,,,,,,,,517.2324349999981,517.2353193999988,517.2353193999988,517.2353193999988,520.2272478999985,f,2.6830173000016657,0.1903109000013501,520.2274694999978,520.2275290999969,None,,,,,,,,,,,,,,,,,00012,001,2025-11-15_10h50.12.984,MST_task,2024.2.0,100.0744553952632,2025-11-15 10h50.18.779211 +0530,
,Objects\025a.jpg,79,0,80,,,,,,,j,1.8942152000017813,0.1591305999972974,None,,,,,,80,0,79,520.2363178999985,,,,,,,,,,,,,,,,,,,,,,,520.2278869999973,520.2363178999985,520.7438664999972,520.727276499998,,,,,,,,,,,,,,,,,,,,,,,,,,520.7411323999986,520.7438664999972,520.7438664999972,520.7438664999972,523.7371460999966,j,1.8942152000017813,0.1591305999972974,523.7373397999982,523.737393899999,None,,,,,,,,,,,,,,,,,00012,001,2025-11-15_10h50.12.984,MST_task,2024.2.0,100.0744553952632,2025-11-15 10h50.18.779211 +0530,
,Objects\171a.jpg,80,0,81,,,,,,,f,1.696342100000038,0.2558887999985018,None,,,,,,81,0,80,523.745798699998,,,,,,,,,,,,,,,,,,,,,,,523.7377680999998,523.745798699998,524.2530954999966,524.2368994999997,,,,,,,,,,,,,,,,,,,,,,,,,,524.2502495999979,524.2530954999966,524.2530954999966,524.2530954999966,527.2364218999974,f,1.696342100000038,0.2558887999985018,527.2365632999972,527.2365927999999,None,,,,,527.2452075000001,527.2452075000001,527.2452075000001,,,,,,,,,,00012,001,2025-11-15_10h50.12.984,MST_task,2024.2.0,100.0744553952632,2025-11-15 10h50.18.779211 +0530,
,Objects\086a.jpg,81,0,82,,,,,,,f,2.0928620000013325,0.3039285999984713,None,,,,,,82,0,81,527.2452075000001,,,,,,,,,,,,,,,,,,,,,,,527.2368154999967,527.2452075000001,527.752454999998,527.7361227999972,,,,,,,,,,,,,,,,,,,,,,,,,,527.7498263999987,527.752454999998,527.752454999998,527.752454999998,530.7363353000001,f,2.0928620000013325,0.3039285999984713,530.7364779999989,530.7365094999986,None,,,,,530.7448552999995,530.7448552999995,530.7448552999995,,,,,,,,,,00012,001,2025-11-15_10h50.12.984,MST_task,2024.2.0,100.0744553952632,2025-11-15 10h50.18.779211 +0530,
,Objects\136a.jpg,82,0,83,,,,,,,f,1.6245084999973187,0.26354820000051404,None,,,,,,83,0,82,530.7448552999995,,,,,,,,,,,,,,,,,,,,,,,530.7367295999975,530.7448552999995,531.2529269999977,531.2356290999996,,,,,,,,,,,,,,,,,,,,,,,,,,531.2501870999986,531.2529269999977,531.2529269999977,531.2529269999977,534.2448527999986,f,1.6245084999973187,0.26354820000051404,534.2451305999966,534.2451839999994,None,,,,,,,,,,,,,,,,,00012,001,2025-11-15_10h50.12.984,MST_task,2024.2.0,100.0744553952632,2025-11-15 10h50.18.779211 +0530,
,Objects\061a.jpg,83,0,84,,,,,,,f,2.8390403000012157,None,None,,,,,,84,0,83,534.2543425999975,,,,,,,,,,,,,,,,,,,,,,,534.2454687999998,534.2543425999975,534.7658833999994,534.7458186999975,,,,,,,,,,,,,,,,,,,,,,,,,,534.7627365999979,534.7658833999994,534.7658833999994,534.7658833999994,537.7546885999982,f,2.8390403000012157,None,537.7548601999988,537.7549037999997,None,,,,,,,,,,,,,,,,,00012,001,2025-11-15_10h50.12.984,MST_task,2024.2.0,100.0744553952632,2025-11-15 10h50.18.779211 +0530,
,Scenes\097a.jpg,84,0,85,,,,,,,f,2.3649766000016825,0.23931530000118073,None,,,,,,85,0,84,537.7640350999973,,,,,,,,,,,,,,,,,,,,,,,537.7551762999974,537.7640350999973,538.2726186,538.2553098999997,,,,,,,,,,,,,,,,,,,,,,,,,,538.2695537,538.2726186,538.2726186,538.2726186,541.2640790999976,f,2.3649766000016825,0.23931530000118073,541.2643074999978,541.2643532999973,None,,,,,,,,,,,,,,,,,00012,001,2025-11-15_10h50.12.984,MST_task,2024.2.0,100.0744553952632,2025-11-15 10h50.18.779211 +0530,
,Scenes\054a.jpg,85,0,86,,,,,,,j,1.5497625999996671,0.28010839999842574,None,,,,,,86,0,85,541.2732799999976,,,,,,,,,,,,,,,,,,,,,,,541.2645937999987,541.2732799999976,541.7915442999983,541.7648695999997,,,,,,,,,,,,,,,,,,,,,,,,,,541.7883698999976,541.7915442999983,541.7915442999983,541.7915442999983,544.7736454999977,j,1.5497625999996671,0.28010839999842574,544.7738176999992,544.7738690999977,None,,,,,,,,,,,,,,,,,00012,001,2025-11-15_10h50.12.984,MST_task,2024.2.0,100.0744553952632,2025-11-15 10h50.18.779211 +0530,
,Scenes\098a.jpg,86,0,87,,,,,,,f,2.1264846000012767,0.25653439999950933,None,,,,,,87,0,86,544.7830775999973,,,,,,,,,,,,,,,,,,,,,,,544.7741188,544.7830775999973,545.2947331999967,545.274337699997,,,,,,,,,,,,,,,,,,,,,,,,,,545.2912625999998,545.2947331999967,545.2947331999967,545.2947331999967,548.2830074999983,f,2.1264846000012767,0.25653439999950933,548.2831318999997,548.2831650999979,None,,,,,,,,,,,,,,,,,00012,001,2025-11-15_10h50.12.984,MST_task,2024.2.0,100.0744553952632,2025-11-15 10h50.18.779211 +0530,
,Scenes\029a.jpg,87,0,88,,,,,,,j,1.59519630000068,0.24055320000115898,None,,,,,,88,0,87,548.2925179999984,,,,,,,,,,,,,,,,,,,,,,,548.2833311999966,548.2925179999984,548.8094330999993,548.7838553999973,,,,,,,,,,,,,,,,,,,,,,,,,,548.8061017,548.8094330999993,548.8094330999993,548.8094330999993,551.7925343999996,j,1.59519630000068,0.24055320000115898,551.7926246999996,551.792647899998,None,,,,,,,,,,,,,,,,,00012,001,2025-11-15_10h50.12.984,MST_task,2024.2.0,100.0744553952632,2025-11-15 10h50.18.779211 +0530,
,Scenes\171a.jpg,88,0,89,,,,,,,f,1.349210899999889,0.2640391999993881,None,,,,,,89,0,88,551.8020467999995,,,,,,,,,,,,,,,,,,,,,,,551.7928037999991,551.8020467999995,552.3198146999966,552.2936023999973,,,,,,,,,,,,,,,,,,,,,,,,,,552.3164434999999,552.3198146999966,552.3198146999966,552.3198146999966,555.3023259000001,f,1.349210899999889,0.2640391999993881,555.302496999997,555.3025398999998,None,,,,,,,,,,,,,,,,,00012,001,2025-11-15_10h50.12.984,MST_task,2024.2.0,100.0744553952632,2025-11-15 10h50.18.779211 +0530,
,Scenes\060a.jpg,89,0,90,,,,,,,j,1.3903411999999662,0.20046309999816003,None,,,,,,90,0,89,555.3116257000001,,,,,,,,,,,,,,,,,,,,,,,555.3028481999972,555.3116257000001,555.8471288000001,555.8030024999971,,,,,,,,,,,,,,,,,,,,,,,,,,555.8433480999993,555.8471288000001,555.8471288000001,555.8471288000001,558.8117993999986,j,1.3903411999999662,0.20046309999816003,558.8119702999975,558.8120139999992,None,,,,,,,,,,,,,,,,,00012,001,2025-11-15_10h50.12.984,MST_task,2024.2.0,100.0744553952632,2025-11-15 10h50.18.779211 +0530,
,Scenes\061a.jpg,90,0,91,,,,,,,j,1.139081299999816,0.1998697999988508,None,,,,,,91,0,90,558.8214112999995,,,,,,,,,,,,,,,,,,,,,,,558.8123089000001,558.8214112999995,559.3379767999977,559.3125659999969,,,,,,,,,,,,,,,,,,,,,,,,,,559.3346898999989,559.3379767999977,559.3379767999977,559.3379767999977,562.3213651999977,j,1.139081299999816,0.1998697999988508,562.3215321999996,562.3215753999975,None,,,,,,,,,,,,,,,,,00012,001,2025-11-15_10h50.12.984,MST_task,2024.2.0,100.0744553952632,2025-11-15 10h50.18.779211 +0530,
,Objects\116a.jpg,91,0,92,,,,,,,j,2.694774100000359,0.11210289999871748,None,,,,,,92,0,91,562.3309475999995,,,,,,,,,,,,,,,,,,,,,,,562.3218697999982,562.3309475999995,562.8385318999972,562.8219554999996,,,,,,,,,,,,,,,,,,,,,,,,,,562.8354999999974,562.8385318999972,562.8385318999972,562.8385318999972,565.8308496999998,j,2.694774100000359,0.11210289999871748,565.8311030999976,565.831148199999,None,,,,,,,,,,,,,,,,,00012,001,2025-11-15_10h50.12.984,MST_task,2024.2.0,100.0744553952632,2025-11-15 10h50.18.779211 +0530,
,Objects\113a.jpg,92,0,93,,,,,,,f,1.8806572999965283,0.23970090000148048,None,,,,,,93,0,92,565.840357699999,,,,,,,,,,,,,,,,,,,,,,,565.8313987000001,565.840357699999,566.3485810999991,566.3315839999996,,,,,,,,,,,,,,,,,,,,,,,,,,566.3458851999967,566.3485810999991,566.3485810999991,566.3485810999991,569.3405914999967,f,1.8806572999965283,0.23970090000148048,569.3408001999996,569.3408576999973,None,,,,,,,,,,,,,,,,,00012,001,2025-11-15_10h50.12.984,MST_task,2024.2.0,100.0744553952632,2025-11-15 10h50.18.779211 +0530,
,Objects\090a.jpg,93,0,94,,,,,,,j,2.0228323999981512,0.15274869999848306,None,,,,,,94,0,93,569.3499976999992,,,,,,,,,,,,,,,,,,,,,,,569.3411510999977,569.3499976999992,569.8620021999996,569.8410444000001,,,,,,,,,,,,,,,,,,,,,,,,,,569.8592813999967,569.8620021999996,569.8620021999996,569.8620021999996,572.8502523999996,j,2.0228323999981512,0.15274869999848306,572.8504452999987,572.8504975999967,None,,,,,,,,,,,,,,,,,00012,001,2025-11-15_10h50.12.984,MST_task,2024.2.0,100.0744553952632,2025-11-15 10h50.18.779211 +0530,
,Objects\073a.jpg,94,0,95,,,,,,,f,1.0783716999976605,0.20059590000164462,None,,,,,,95,0,94,572.8596311999972,,,,,,,,,,,,,,,,,,,,,,,572.8507759999993,572.8596311999972,573.3663901,573.3508984,,,,,,,,,,,,,,,,,,,,,,,,,,573.3636779999979,573.3663901,573.3663901,573.3663901,576.3516801999976,f,1.0783716999976605,0.20059590000164462,576.351887599998,576.3519328999973,None,,,,,576.3591294999969,576.3591294999969,576.3591294999969,,,,,,,,,,00012,001,2025-11-15_10h50.12.984,MST_task,2024.2.0,100.0744553952632,2025-11-15 10h50.18.779211 +0530,
,Objects\085a.jpg,95,0,96,,,,,,,f,1.5139111999997112,0.17581340000106138,None,,,,,,96,0,95,576.3591294999969,,,,,,,,,,,,,,,,,,,,,,,576.352224899998,576.3591294999969,576.867166699998,576.8502120999983,,,,,,,,,,,,,,,,,,,,,,,,,,576.8642721999968,576.867166699998,576.867166699998,576.867166699998,579.8592695999978,f,1.5139111999997112,0.17581340000106138,579.8595056999984,579.8595597999993,None,,,,,,,,,,,,,,,,,00012,001,2025-11-15_10h50.12.984,MST_task,2024.2.0,100.0744553952632,2025-11-15 10h50.18.779211 +0530,
,Objects\009a.jpg,96,0,97,,,,,,,f,1.7023671999995713,0.22428880000006757,None,,,,,,97,0,96,579.868615899999,,,,,,,,,,,,,,,,,,,,,,,579.8598705999975,579.868615899999,580.3744325999978,580.3594427999997,,,,,,,,,,,,,,,,,,,,,,,,,,580.3717275999988,580.3744325999978,580.3744325999978,580.3744325999978,583.3597354999984,f,1.7023671999995713,0.22428880000006757,583.3599246999984,583.3599620999994,None,,,,,583.3682706,583.3682706,583.3682706,,,,,,,,,,00012,001,2025-11-15_10h50.12.984,MST_task,2024.2.0,100.0744553952632,2025-11-15 10h50.18.779211 +0530,
,Objects\054a.jpg,97,0,98,,,,,,,f,2.0004287000010663,0.22401299999910407,None,,,,,,98,0,97,583.3682706,,,,,,,,,,,,,,,,,,,,,,,583.3601552999971,583.3682706,583.8763913999974,583.859695799998,,,,,,,,,,,,,,,,,,,,,,,,,,583.8738214999976,583.8763913999974,583.8763913999974,583.8763913999974,586.868198199998,f,2.0004287000010663,0.22401299999910407,586.8683412999999,586.8683739999979,None,,,,,,,,,,,,,,,,,00012,001,2025-11-15_10h50.12.984,MST_task,2024.2.0,100.0744553952632,2025-11-15 10h50.18.779211 +0530,
,Scenes\181a.jpg,98,0,99,,,,,,,f,2.005076099998405,0.2878818000026513,None,,,,,,99,0,98,586.8776830999996,,,,,,,,,,,,,,,,,,,,,,,586.8686024999988,586.8776830999996,587.3926320999999,587.3690836999995,,,,,,,,,,,,,,,,,,,,,,,,,,587.3892140999997,587.3926320999999,587.3926320999999,587.3926320999999,590.3780405999969,f,2.005076099998405,0.2878818000026513,590.3782574999968,590.3783109999968,None,,,,,,,,,,,,,,,,,00012,001,2025-11-15_10h50.12.984,MST_task,2024.2.0,100.0744553952632,2025-11-15 10h50.18.779211 +0530,
,Scenes\036a.jpg,99,0,100,,,,,,,j,1.7515504000002693,0.1919649000010395,None,,,,,,100,0,99,590.3873448999984,,,,,,,,,,,,,,,,,,,,,,,590.3785774999997,590.3873448999984,590.9012513999987,590.8785734999983,,,,,,,,,,,,,,,,,,,,,,,,,,590.8978975999999,590.9012513999987,590.9012513999987,590.9012513999987,593.8874910999984,j,1.7515504000002693,0.1919649000010395,593.8876679999994,593.887705899997,None,,,,,,,,,,,,,,,,,00012,001,2025-11-15_10h50.12.984,MST_task,2024.2.0,100.0744553952632,2025-11-15 10h50.18.779211 +0530,
,Scenes\149a.jpg,100,0,101,,,,,,,f,2.1525037999999768,0.27239129999725264,None,,,,,,101,0,100,593.8969362999997,,,,,,,,,,,,,,,,,,,,,,,593.8879057999984,593.8969362999997,594.4122408999974,594.3874931999999,,,,,,,,,,,,,,,,,,,,,,,,,,594.4089514999978,594.4122408999974,594.4122408999974,594.4122408999974,597.3968504999975,f,2.1525037999999768,0.27239129999725264,597.3970071999975,597.3970458999975,None,,,,,,,,,,,,,,,,,00012,001,2025-11-15_10h50.12.984,MST_task,2024.2.0,100.0744553952632,2025-11-15 10h50.18.779211 +0530,
,Scenes\093a.jpg,101,0,102,,,,,,,f,2.0774639999981446,0.21556350000173552,None,,,,,,102,0,101,597.4065214999973,,,,,,,,,,,,,,,,,,,,,,,597.3972278000001,597.4065214999973,597.9197005999995,597.8973816999969,,,,,,,,,,,,,,,,,,,,,,,,,,597.9168738999979,597.9197005999995,597.9197005999995,597.9197005999995,600.9064009999965,f,2.0774639999981446,0.21556350000173552,600.9065540999982,600.9065948999996,None,,,,,,,,,,,,,,,,,00012,001,2025-11-15_10h50.12.984,MST_task,2024.2.0,100.0744553952632,2025-11-15 10h50.18.779211 +0530,
,Scenes\150a.jpg,102,0,103,,,,,,,j,1.102245899997797,0.15986550000161515,None,,,,,,103,0,102,600.9159634999996,,,,,,,,,,,,,,,,,,,,,,,600.9068616999975,600.9159634999996,601.4305200999988,601.4067545999969,,,,,,,,,,,,,,,,,,,,,,,,,,601.4271498999988,601.4305200999988,601.4305200999988,601.4305200999988,604.4158793999995,j,1.102245899997797,0.15986550000161515,604.416030999997,604.4160654999978,None,,,,,,,,,,,,,,,,,00012,001,2025-11-15_10h50.12.984,MST_task,2024.2.0,100.0744553952632,2025-11-15 10h50.18.779211 +0530,
,Scenes\079a.jpg,103,0,104,,,,,,,j,1.6199067999987165,0.1281624000002921,None,,,,,,104,0,103,604.4254970999973,,,,,,,,,,,,,,,,,,,,,,,604.4163122999998,604.4254970999973,604.9371130999971,604.9164790999966,,,,,,,,,,,,,,,,,,,,,,,,,,604.933949899998,604.9371130999971,604.9371130999971,604.9371130999971,607.9257069999985,j,1.6199067999987165,0.1281624000002921,607.9258521999982,607.9258899999986,None,,,,,,,,,,,,,,,,,00012,001,2025-11-15_10h50.12.984,MST_task,2024.2.0,100.0744553952632,2025-11-15 10h50.18.779211 +0530,
,Scenes\087a.jpg,104,0,105,,,,,,,j,1.2150473000001512,0.16821320000235573,None,,,,,,105,0,104,607.9352106999977,,,,,,,,,,,,,,,,,,,,,,,607.9261375999995,607.9352106999977,608.4457389999989,608.4263422999975,,,,,,,,,,,,,,,,,,,,,,,,,,608.4423482999991,608.4457389999989,608.4457389999989,608.4457389999989,611.4353773999974,j,1.2150473000001512,0.16821320000235573,611.4355495999989,611.4355974999999,None,,,,,,,,,,,,,,,,,00012,001,2025-11-15_10h50.12.984,MST_task,2024.2.0,100.0744553952632,2025-11-15 10h50.18.779211 +0530,
,Objects\103a.jpg,105,0,106,,,,,,,f,1.4600690999977814,0.24801429999934044,None,,,,,,106,0,105,611.4448011999993,,,,,,,,,,,,,,,,,,,,,,,611.4358377999997,611.4448011999993,611.952758899999,611.9359654,,,,,,,,,,,,,,,,,,,,,,,,,,611.9497016999994,611.952758899999,611.952758899999,611.952758899999,614.9448832999988,f,1.4600690999977814,0.24801429999934044,614.9450351999985,614.9450849999994,None,,,,,,,,,,,,,,,,,00012,001,2025-11-15_10h50.12.984,MST_task,2024.2.0,100.0744553952632,2025-11-15 10h50.18.779211 +0530,
,Objects\106a.jpg,106,0,107,,,,,,,f,1.336781099998916,0.21671730000161915,None,,,,,,107,0,106,614.9543884999985,,,,,,,,,,,,,,,,,,,,,,,614.9453349999967,614.9543884999985,615.4604739999995,615.4452538999976,,,,,,,,,,,,,,,,,,,,,,,,,,615.4579672,615.4604739999995,615.4604739999995,615.4604739999995,618.4454080999967,f,1.336781099998916,0.21671730000161915,618.4455691999974,618.4456076999995,None,,,,,618.4539762999993,618.4539762999993,618.4539762999993,,,,,,,,,,00012,001,2025-11-15_10h50.12.984,MST_task,2024.2.0,100.0744553952632,2025-11-15 10h50.18.779211 +0530,
,Objects\029a.jpg,107,0,108,,,,,,,f,1.8026903999998467,0.2165290000011737,None,,,,,,108,0,107,618.4539762999993,,,,,,,,,,,,,,,,,,,,,,,618.4458806999974,618.4539762999993,618.9620273,618.9450785999979,,,,,,,,,,,,,,,,,,,,,,,,,,618.9591965,618.9620273,618.9620273,618.9620273,621.9540356999969,f,1.8026903999998467,0.2165290000011737,621.9542270999991,621.9542705999993,None,,,,,,,,,,,,,,,,,00012,001,2025-11-15_10h50.12.984,MST_task,2024.2.0,100.0744553952632,2025-11-15 10h50.18.779211 +0530,
,Objects\019a.jpg,108,0,109,,,,,,,f,2.374077299999044,0.23979580000013812,None,,,,,,109,0,108,621.9634945999969,,,,,,,,,,,,,,,,,,,,,,,621.9545580999984,621.9634945999969,622.4708234999998,622.4542660999978,,,,,,,,,,,,,,,,,,,,,,,,,,622.468321999997,622.4708234999998,622.4708234999998,622.4708234999998,625.4547844999979,f,2.374077299999044,0.23979580000013812,625.4549789999983,625.4550197999997,None,,,,,625.4628686999968,625.4628686999968,625.4628686999968,,,,,,,,,,00012,001,2025-11-15_10h50.12.984,MST_task,2024.2.0,100.0744553952632,2025-11-15 10h50.18.779211 +0530,
,Objects\182a.jpg,109,0,110,,,,,,,f,2.9066113000008045,None,None,,,,,,110,0,109,625.4628686999968,,,,,,,,,,,,,,,,,,,,,,,625.4552305999969,625.4628686999968,625.9701496999987,625.9542665999979,,,,,,,,,,,,,,,,,,,,,,,,,,625.9675874999994,625.9701496999987,625.9701496999987,625.9701496999987,628.9543432999999,f,2.9066113000008045,None,628.9545284999986,628.9545695999986,None,,,,,628.9625753,628.9625753,628.9625753,,,,,,,,,,00012,001,2025-11-15_10h50.12.984,MST_task,2024.2.0,100.0744553952632,2025-11-15 10h50.18.779211 +0530,
,Objects\129a.jpg,110,0,111,,,,,,,f,2.3750674999973853,0.19992120000097202,None,,,,,,111,0,110,628.9625753,,,,,,,,,,,,,,,,,,,,,,,628.9547762999973,628.9625753,629.4702154999977,629.4533250999993,,,,,,,,,,,,,,,,,,,,,,,,,,629.467566299998,629.4702154999977,629.4702154999977,629.4702154999977,632.4626802999992,f,2.3750674999973853,0.19992120000097202,632.4628755999984,632.4629250999969,None,,,,,,,,,,,,,,,,,00012,001,2025-11-15_10h50.12.984,MST_task,2024.2.0,100.0744553952632,2025-11-15 10h50.18.779211 +0530,
,Objects\058a.jpg,111,0,112,,,,,,,f,2.318499699998938,0.271215900000243,None,,,,,,112,0,111,632.4722181999969,,,,,,,,,,,,,,,,,,,,,,,632.4632594999966,632.4722181999969,632.9829116999972,632.9632556999968,,,,,,,,,,,,,,,,,,,,,,,,,,632.9801019999977,632.9829116999972,632.9829116999972,632.9829116999972,635.9721258999998,f,2.318499699998938,0.271215900000243,635.9722925999995,635.9723375999965,None,,,,,,,,,,,,,,,,,00012,001,2025-11-15_10h50.12.984,MST_task,2024.2.0,100.0744553952632,2025-11-15 10h50.18.779211 +0530,
,Scenes\138a.jpg,112,0,113,,,,,,,j,1.0548417999998492,0.18331700000271667,None,,,,,,113,0,112,635.9816006999972,,,,,,,,,,,,,,,,,,,,,,,635.9725952999979,635.9816006999972,636.4945612999982,636.4725032999995,,,,,,,,,,,,,,,,,,,,,,,,,,636.4914710999983,636.4945612999982,636.4945612999982,636.4945612999982,639.4817054999985,j,1.0548417999998492,0.18331700000271667,639.4818455999994,639.4818821999979,None,,,,,,,,,,,,,,,,,00012,001,2025-11-15_10h50.12.984,MST_task,2024.2.0,100.0744553952632,2025-11-15 10h50.18.779211 +0530,
,Scenes\184a.jpg,113,0,114,,,,,,,j,1.0927454000011494,0.1753403000002436,None,,,,,,114,0,113,639.491355099999,,,,,,,,,,,,,,,,,,,,,,,639.4821264999991,639.491355099999,640.0086572,639.9820068999979,,,,,,,,,,,,,,,,,,,,,,,,,,640.004850199999,640.0086572,640.0086572,640.0086572,642.9913653999974,j,1.0927454000011494,0.1753403000002436,642.9915602000001,642.9916120999987,None,,,,,,,,,,,,,,,,,00012,001,2025-11-15_10h50.12.984,MST_task,2024.2.0,100.0744553952632,2025-11-15 10h50.18.779211 +0530,
,Scenes\055a.jpg,114,0,115,,,,,,,j,0.8575950000013108,0.18403359999865643,None,,,,,,115,0,114,643.0008035999999,,,,,,,,,,,,,,,,,,,,,,,642.9918805999987,643.0008035999999,643.5159322,643.4917741999998,,,,,,,,,,,,,,,,,,,,,,,,,,643.5127373999967,643.5159322,643.5159322,643.5159322,646.5010492000001,j,0.8575950000013108,0.18403359999865643,646.5012870999999,646.5013361999991,None,,,,,,,,,,,,,,,,,00012,001,2025-11-15_10h50.12.984,MST_task,2024.2.0,100.0744553952632,2025-11-15 10h50.18.779211 +0530,
,Scenes\086a.jpg,115,0,116,,,,,,,j,2.971469900003285,None,None,,,,,,116,0,115,646.510236099999,,,,,,,,,,,,,,,,,,,,,,,646.5015733999971,646.510236099999,647.0258374999976,647.0011032999973,,,,,,,,,,,,,,,,,,,,,,,,,,647.0231409999978,647.0258374999976,647.0258374999976,647.0258374999976,650.010367699997,j,2.971469900003285,None,650.0104827999967,650.0105147999966,None,,,,,,,,,,,,,,,,,00012,001,2025-11-15_10h50.12.984,MST_task,2024.2.0,100.0744553952632,2025-11-15 10h50.18.779211 +0530,
,Scenes\038a.jpg,116,0,117,,,,,,,j,1.3702077999987523,0.27204820000042673,None,,,,,,117,0,116,650.0196225,,,,,,,,,,,,,,,,,,,,,,,650.0106764999982,650.0196225,650.5306021999968,650.5097079999978,,,,,,,,,,,,,,,,,,,,,,,,,,650.5270348999984,650.5306021999968,650.5306021999968,650.5306021999968,653.519865899998,j,1.3702077999987523,0.27204820000042673,653.5200152999969,653.5200533999996,None,,,,,,,,,,,,,,,,,00012,001,2025-11-15_10h50.12.984,MST_task,2024.2.0,100.0744553952632,2025-11-15 10h50.18.779211 +0530,
,Scenes\182a.jpg,117,0,118,,,,,,,j,2.3542302999994718,0.16807329999937792,None,,,,,,118,0,117,653.5293069999971,,,,,,,,,,,,,,,,,,,,,,,653.5203158999975,653.5293069999971,654.0425361999987,654.0205546999969,,,,,,,,,,,,,,,,,,,,,,,,,,654.039100799997,654.0425361999987,654.0425361999987,654.0425361999987,657.0293508999966,j,2.3542302999994718,0.16807329999937792,657.0295038999975,657.0295434,None,,,,,,,,,,,,,,,,,00012,001,2025-11-15_10h50.12.984,MST_task,2024.2.0,100.0744553952632,2025-11-15 10h50.18.779211 +0530,
,Scenes\015a.jpg,118,0,119,,,,,,,j,1.0587802000009106,0.1928379999990284,None,,,,,,119,0,118,657.038910299998,,,,,,,,,,,,,,,,,,,,,,,657.0298019999973,657.038910299998,657.5538680999998,657.5296885999996,,,,,,,,,,,,,,,,,,,,,,,,,,657.5504995999981,657.5538680999998,657.5538680999998,657.5538680999998,660.5388070999979,j,1.0587802000009106,0.1928379999990284,660.5389478999969,660.5389993999997,None,,,,,,,,,,,,,,,,,00012,001,2025-11-15_10h50.12.984,MST_task,2024.2.0,100.0744553952632,2025-11-15 10h50.18.779211 +0530,
,Objects\099a.jpg,119,0,120,,,,,,,f,1.6678769999998622,0.17560729999968316,None,,,,,,120,0,119,660.5485034999983,,,,,,,,,,,,,,,,,,,,,,,660.5392162999997,660.5485034999983,661.0572893999997,661.0392565999973,,,,,,,,,,,,,,,,,,,,,,,,,,661.0540593999976,661.0572893999997,661.0572893999997,661.0572893999997,664.0485061999971,f,1.6678769999998622,0.17560729999968316,664.0486812999989,664.0487201999968,None,,,,,,,,,,,,,,,,,00012,001,2025-11-15_10h50.12.984,MST_task,2024.2.0,100.0744553952632,2025-11-15 10h50.18.779211 +0530,
,Objects\080a.jpg,120,0,121,,,,,,,f,1.6316048999979103,0.24793810000119265,None,,,,,,121,0,120,664.0580347999967,,,,,,,,,,,,,,,,,,,,,,,664.0489015999992,664.0580347999967,664.5652235999987,664.5487629999989,,,,,,,,,,,,,,,,,,,,,,,,,,664.5626033999979,664.5652235999987,664.5652235999987,664.5652235999987,667.5491375999991,f,1.6316048999979103,0.24793810000119265,667.5492749999976,667.5493072999998,None,,,,,667.557547299999,667.557547299999,667.557547299999,,,,,,,,,,00012,001,2025-11-15_10h50.12.984,MST_task,2024.2.0,100.0744553952632,2025-11-15 10h50.18.779211 +0530,
,Objects\147a.jpg,121,0,122,,,,,,,f,1.9942264999990584,0.15228080000088084,None,,,,,,122,0,121,667.557547299999,,,,,,,,,,,,,,,,,,,,,,,667.5494782999995,667.557547299999,668.0669345999995,668.0488009000001,,,,,,,,,,,,,,,,,,,,,,,,,,668.063873799998,668.0669345999995,668.0669345999995,668.0669345999995,671.0574742999997,f,1.9942264999990584,0.15228080000088084,671.0576261999995,671.0576599999986,None,,,,,,,,,,,,,,,,,00012,001,2025-11-15_10h50.12.984,MST_task,2024.2.0,100.0744553952632,2025-11-15 10h50.18.779211 +0530,
,Objects\187a.jpg,122,0,123,,,,,,,f,1.3604937999989488,0.20718029999989085,None,,,,,,123,0,122,671.0671022999995,,,,,,,,,,,,,,,,,,,,,,,671.0578365000001,671.0671022999995,671.5810968999976,671.5578831999992,,,,,,,,,,,,,,,,,,,,,,,,,,671.5779234000001,671.5810968999976,671.5810968999976,671.5810968999976,674.5673390999982,f,1.3604937999989488,0.20718029999989085,674.5676448999984,674.5677122999987,None,,,,,,,,,,,,,,,,,00012,001,2025-11-15_10h50.12.984,MST_task,2024.2.0,100.0744553952632,2025-11-15 10h50.18.779211 +0530,
,Objects\010a.jpg,123,0,124,,,,,,,f,2.6409503999966546,0.15199980000033975,None,,,,,,124,0,123,674.5768938000001,,,,,,,,,,,,,,,,,,,,,,,674.5680420999997,674.5768938000001,675.0841831999969,675.0679122000001,,,,,,,,,,,,,,,,,,,,,,,,,,675.0816270999967,675.0841831999969,675.0841831999969,675.0841831999969,678.0680481999989,f,2.6409503999966546,0.15199980000033975,678.0682217999965,678.0682628999966,None,,,,,678.0762657999985,678.0762657999985,678.0762657999985,,,,,,,,,,00012,001,2025-11-15_10h50.12.984,MST_task,2024.2.0,100.0744553952632,2025-11-15 10h50.18.779211 +0530,
,Objects\048a.jpg,124,0,125,,,,,,,j,1.629840300000069,0.22415560000081314,None,,,,,,125,0,124,678.0762657999985,,,,,,,,,,,,,,,,,,,,,,,678.0685128999976,678.0762657999985,678.583426899997,678.5673234999995,,,,,,,,,,,,,,,,,,,,,,,,,,678.5808924999983,678.583426899997,678.583426899997,678.583426899997,681.5671143,j,1.629840300000069,0.22415560000081314,681.5672458999979,681.5672764999981,None,,,,,681.5758389999974,681.5758389999974,681.5758389999974,,,,,,,,,,00012,001,2025-11-15_10h50.12.984,MST_task,2024.2.0,100.0744553952632,2025-11-15 10h50.18.779211 +0530,
,Objects\159a.jpg,125,0,126,,,,,,,f,1.2363536999982898,0.18496500000037486,None,,,,,,126,0,125,681.5758389999974,,,,,,,,,,,,,,,,,,,,,,,681.5674368,681.5758389999974,682.080445399999,682.0667668999995,,,,,,,,,,,,,,,,,,,,,,,,,,682.0776081999975,682.080445399999,682.080445399999,682.080445399999,685.0673760999998,f,1.2363536999982898,0.18496500000037486,685.0675741999985,685.0676144999998,None,,,,,685.075575699997,685.075575699997,685.075575699997,,,,,,,,,,00012,001,2025-11-15_10h50.12.984,MST_task,2024.2.0,100.0744553952632,2025-11-15 10h50.18.779211 +0530,
,Scenes\145a.jpg,126,0,127,,,,,,,j,1.2936461000026611,0.1841651999966416,None,,,,,,127,0,126,685.075575699997,,,,,,,,,,,,,,,,,,,,,,,685.067895799999,685.075575699997,685.5910064999989,685.5665521999981,,,,,,,,,,,,,,,,,,,,,,,,,,685.5877346999987,685.5910064999989,685.5910064999989,685.5910064999989,688.5753284999992,j,1.2936461000026611,0.1841651999966416,688.5754825999975,688.5755245999972,None,,,,,,,,,,,,,,,,,00012,001,2025-11-15_10h50.12.984,MST_task,2024.2.0,100.0744553952632,2025-11-15 10h50.18.779211 +0530,
,Scenes\105a.jpg,127,0,128,,,,,,,j,1.6846450000011828,0.2157361999998102,None,,,,,,128,0,127,688.5849187999993,,,,,,,,,,,,,,,,,,,,,,,688.5757974999979,688.5849187999993,689.1042850999984,689.0760053999984,,,,,,,,,,,,,,,,,,,,,,,,,,689.1008447999993,689.1042850999984,689.1042850999984,689.1042850999984,692.0850505999988,j,1.6846450000011828,0.2157361999998102,692.0852485999967,692.0853025999968,None,,,,,,,,,,,,,,,,,00012,001,2025-11-15_10h50.12.984,MST_task,2024.2.0,100.0744553952632,2025-11-15 10h50.18.779211 +0530,
,Scenes\080a.jpg,128,0,129,,,,,,,j,1.8047805999995035,0.2080101999999897,None,,,,,,129,0,128,692.094471299999,,,,,,,,,,,,,,,,,,,,,,,692.0856174999972,692.094471299999,692.6085417999966,692.5856346999972,,,,,,,,,,,,,,,,,,,,,,,,,,692.6051182999981,692.6085417999966,692.6085417999966,692.6085417999966,695.5946246999993,j,1.8047805999995035,0.2080101999999897,695.5948085999989,695.5948589999971,None,,,,,,,,,,,,,,,,,00012,001,2025-11-15_10h50.12.984,MST_task,2024.2.0,100.0744553952632,2025-11-15 10h50.18.779211 +0530,
,Scenes\163a.jpg,129,0,130,,,,,,,j,1.8005517999990843,0.2159767000011925,None,,,,,,130,0,129,695.6039343999983,,,,,,,,,,,,,,,,,,,,,,,695.5951384999971,695.6039343999983,696.1162484999986,696.0954011999966,,,,,,,,,,,,,,,,,,,,,,,,,,696.1129908999974,696.1162484999986,696.1162484999986,696.1162484999986,699.104158099999,j,1.8005517999990843,0.2159767000011925,699.1043159999972,699.1043508999974,None,,,,,,,,,,,,,,,,,00012,001,2025-11-15_10h50.12.984,MST_task,2024.2.0,100.0744553952632,2025-11-15 10h50.18.779211 +0530,
,Scenes\095a.jpg,130,0,131,,,,,,,j,2.8641916000015044,None,None,,,,,,131,0,130,699.1136143999975,,,,,,,,,,,,,,,,,,,,,,,699.1045798999985,699.1136143999975,699.6290185999969,699.6047394999987,,,,,,,,,,,,,,,,,,,,,,,,,,699.6254586999967,699.6290185999969,699.6290185999969,699.6290185999969,702.6139316999979,j,2.8641916000015044,None,702.6141835999988,702.614243699998,None,,,,,,,,,,,,,,,,,00012,001,2025-11-15_10h50.12.984,MST_task,2024.2.0,100.0744553952632,2025-11-15 10h50.18.779211 +0530,
,Scenes\172a.jpg,131,0,132,,,,,,,j,1.5030606000000262,0.2001864999983809,None,,,,,,132,0,131,702.6231765999983,,,,,,,,,,,,,,,,,,,,,,,702.6146181999975,702.6231765999983,703.1337843999972,703.1140225999989,,,,,,,,,,,,,,,,,,,,,,,,,,703.1304816999982,703.1337843999972,703.1337843999972,703.1337843999972,706.1232349999991,j,1.5030606000000262,0.2001864999983809,706.1233698999968,706.1234143999973,None,,,,,,,,,,,,,,,,,00012,001,2025-11-15_10h50.12.984,MST_task,2024.2.0,100.0744553952632,2025-11-15 10h50.18.779211 +0530,
,Scenes\096a.jpg,132,0,133,,,,,,,j,1.3603732000010496,0.2321114000005764,None,,,,,,133,0,132,706.1328113999989,,,,,,,,,,,,,,,,,,,,,,,706.1235889999989,706.1328113999989,706.6450815999997,706.6238702999981,,,,,,,,,,,,,,,,,,,,,,,,,,706.6419328999982,706.6450815999997,706.6450815999997,706.6450815999997,709.6330310999983,j,1.3603732000010496,0.2321114000005764,709.6335097999981,709.6337442999975,None,,,,,,,,,,,,,,,,,00012,001,2025-11-15_10h50.12.984,MST_task,2024.2.0,100.0744553952632,2025-11-15 10h50.18.779211 +0530,
,Objects\047a.jpg,133,0,134,,,,,,,f,1.5908898000016052,0.2563680999992357,None,,,,,,134,0,133,709.6422621999991,,,,,,,,,,,,,,,,,,,,,,,709.6341572999991,709.6422621999991,710.1500081999984,710.1333725999975,,,,,,,,,,,,,,,,,,,,,,,,,,710.1471452999976,710.1500081999984,710.1500081999984,710.1500081999984,713.142545499999,f,1.5908898000016052,0.2563680999992357,713.142760499999,713.1428167999984,None,,,,,,,,,,,,,,,,,00012,001,2025-11-15_10h50.12.984,MST_task,2024.2.0,100.0744553952632,2025-11-15 10h50.18.779211 +0530,
,Objects\133a.jpg,134,0,135,,,,,,,f,2.2990124999996624,0.2158997000005911,None,,,,,,135,0,134,713.1517845999988,,,,,,,,,,,,,,,,,,,,,,,713.1431591,713.1517845999988,713.6584855000001,713.6429253999995,,,,,,,,,,,,,,,,,,,,,,,,,,713.655817699997,713.6584855000001,713.6584855000001,713.6584855000001,716.6436073999976,f,2.2990124999996624,0.2158997000005911,716.6437635999973,716.6437980999981,None,,,,,716.6514892999985,716.6514892999985,716.6514892999985,,,,,,,,,,00012,001,2025-11-15_10h50.12.984,MST_task,2024.2.0,100.0744553952632,2025-11-15 10h50.18.779211 +0530,
,Objects\125a.jpg,135,0,136,,,,,,,f,2.28628160000153,0.2316618999975617,None,,,,,,136,0,135,716.6514892999985,,,,,,,,,,,,,,,,,,,,,,,716.6439812999997,716.6514892999985,717.1588980999986,717.1427087999982,,,,,,,,,,,,,,,,,,,,,,,,,,717.1564469999976,717.1588980999986,717.1588980999986,717.1588980999986,720.1513970999986,f,2.28628160000153,0.2316618999975617,720.1515033999967,720.1515318999991,None,,,,,,,,,,,,,,,,,00012,001,2025-11-15_10h50.12.984,MST_task,2024.2.0,100.0744553952632,2025-11-15 10h50.18.779211 +0530,
,Objects\083a.jpg,136,0,137,,,,,,,f,2.3780825000030745,0.1834181999984139,None,,,,,,137,0,136,720.1608789999991,,,,,,,,,,,,,,,,,,,,,,,720.1517167999991,720.1608789999991,720.6679686999996,720.6522594999988,,,,,,,,,,,,,,,,,,,,,,,,,,720.6655170999984,720.6679686999996,720.6679686999996,720.6679686999996,723.6516110999983,f,2.3780825000030745,0.1834181999984139,723.6517147999984,723.6517386999985,None,,,,,723.6605068999997,723.6605068999997,723.6605068999997,,,,,,,,,,00012,001,2025-11-15_10h50.12.984,MST_task,2024.2.0,100.0744553952632,2025-11-15 10h50.18.779211 +0530,
,Objects\118a.jpg,137,0,138,,,,,,,f,2.2288635000004433,0.24019499999849359,None,,,,,,138,0,137,723.6605068999997,,,,,,,,,,,,,,,,,,,,,,,723.6518698,723.6605068999997,724.1682867999989,724.1517260999972,,,,,,,,,,,,,,,,,,,,,,,,,,724.1657688999985,724.1682867999989,724.1682867999989,724.1682867999989,727.1607365999989,f,2.2288635000004433,0.24019499999849359,727.1609147999989,727.1609576999981,None,,,,,,,,,,,,,,,,,00012,001,2025-11-15_10h50.12.984,MST_task,2024.2.0,100.0744553952632,2025-11-15 10h50.18.779211 +0530,
,Objects\191a.jpg,138,0,139,,,,,,,j,1.5277404000007664,0.1754001999979664,None,,,,,,139,0,138,727.170105899997,,,,,,,,,,,,,,,,,,,,,,,727.1611694999992,727.170105899997,727.6775861999995,727.6612647999973,,,,,,,,,,,,,,,,,,,,,,,,,,727.6748170999999,727.6775861999995,727.6775861999995,727.6775861999995,730.6614394999997,j,1.5277404000007664,0.1754001999979664,730.6615883999984,730.6616209999993,None,,,,,730.669562199997,730.669562199997,730.669562199997,,,,,,,,,,00012,001,2025-11-15_10h50.12.984,MST_task,2024.2.0,100.0744553952632,2025-11-15 10h50.18.779211 +0530,
,Objects\050a.jpg,139,0,140,,,,,,,f,2.1544185999991896,0.23286059999736608,None,,,,,,140,0,139,730.669562199997,,,,,,,,,,,,,,,,,,,,,,,730.6618413999968,730.669562199997,731.178380399997,731.160621199997,,,,,,,,,,,,,,,,,,,,,,,,,,731.1757012999988,731.178380399997,731.178380399997,731.178380399997,734.1699082999985,f,2.1544185999991896,0.23286059999736608,734.1701018999993,734.1701569999968,None,,,,,,,,,,,,,,,,,00012,001,2025-11-15_10h50.12.984,MST_task,2024.2.0,100.0744553952632,2025-11-15 10h50.18.779211 +0530,
,Scenes\100a.jpg,140,0,141,,,,,,,f,2.2619518999999855,0.23200859999997192,None,,,,,,141,0,140,734.1793528999988,,,,,,,,,,,,,,,,,,,,,,,734.1704123999989,734.1793528999988,734.6950904999976,734.6706377999981,,,,,,,,,,,,,,,,,,,,,,,,,,734.6917407000001,734.6950904999976,734.6950904999976,734.6950904999976,737.679895199999,f,2.2619518999999855,0.23200859999997192,737.6801053999989,737.6801627999994,None,,,,,,,,,,,,,,,,,00012,001,2025-11-15_10h50.12.984,MST_task,2024.2.0,100.0744553952632,2025-11-15 10h50.18.779211 +0530,
,Scenes\035a.jpg,141,0,142,,,,,,,f,2.5996161000002758,0.1523957999997947,None,,,,,,142,0,141,737.6889156999969,,,,,,,,,,,,,,,,,,,,,,,737.6805351999974,737.6889156999969,738.205468199998,738.1801871999996,,,,,,,,,,,,,,,,,,,,,,,,,,738.2021284999973,738.205468199998,738.205468199998,738.205468199998,741.1889085999974,f,2.5996161000002758,0.1523957999997947,741.1890036999976,741.1890261999979,None,,,,,,,,,,,,,,,,,00012,001,2025-11-15_10h50.12.984,MST_task,2024.2.0,100.0744553952632,2025-11-15 10h50.18.779211 +0530,
,Scenes\147a.jpg,142,0,143,,,,,,,j,1.0312583000013547,0.2002513999977964,None,,,,,,143,0,142,741.1984058999988,,,,,,,,,,,,,,,,,,,,,,,741.1891501999999,741.1984058999988,741.7100374000001,741.6898193999987,,,,,,,,,,,,,,,,,,,,,,,,,,741.7066283999993,741.7100374000001,741.7100374000001,741.7100374000001,744.6987457999967,j,1.0312583000013547,0.2002513999977964,744.6989500999989,744.6989935999991,None,,,,,,,,,,,,,,,,,00012,001,2025-11-15_10h50.12.984,MST_task,2024.2.0,100.0744553952632,2025-11-15 10h50.18.779211 +0530,
,Scenes\125a.jpg,143,0,144,,,,,,,j,1.7652826999983517,0.2005687000018952,None,,,,,,144,0,143,744.7079601999976,,,,,,,,,,,,,,,,,,,,,,,744.6992656999973,744.7079601999976,745.2237865999996,745.1994493999991,,,,,,,,,,,,,,,,,,,,,,,,,,745.2202165999988,745.2237865999996,745.2237865999996,745.2237865999996,748.2082854,j,1.7652826999983517,0.2005687000018952,748.208464299998,748.2085114000001,None,,,,,,,,,,,,,,,,,00012,001,2025-11-15_10h50.12.984,MST_task,2024.2.0,100.0744553952632,2025-11-15 10h50.18.779211 +0530,
,Scenes\075a.jpg,144,0,145,,,,,,,j,1.764661099998193,0.23170500000196625,None,,,,,,145,0,144,748.2175713999968,,,,,,,,,,,,,,,,,,,,,,,748.2088031999992,748.2175713999968,748.7287751999975,748.7087466999983,,,,,,,,,,,,,,,,,,,,,,,,,,748.7255504999994,748.7287751999975,748.7287751999975,748.7287751999975,751.7176282,j,1.764661099998193,0.23170500000196625,751.7178355999968,751.7178944999978,None,,,,,,,,,,,,,,,,,00012,001,2025-11-15_10h50.12.984,MST_task,2024.2.0,100.0744553952632,2025-11-15 10h50.18.779211 +0530,
,Scenes\122a.jpg,145,0,146,,,,,,,f,2.0423149000016565,0.23154520000025514,None,,,,,,146,0,145,751.7271774999972,,,,,,,,,,,,,,,,,,,,,,,751.7182908999966,751.7271774999972,752.2430769999992,752.2184463999984,,,,,,,,,,,,,,,,,,,,,,,,,,752.2395133999999,752.2430769999992,752.2430769999992,752.2430769999992,755.2274588999971,f,2.0423149000016565,0.23154520000025514,755.2276507999995,755.2276996,None,,,,,,,,,,,,,,,,,00012,001,2025-11-15_10h50.12.984,MST_task,2024.2.0,100.0744553952632,2025-11-15 10h50.18.779211 +0530,
,Scenes\109a.jpg,146,0,147,,,,,,,j,2.8377629999995406,None,None,,,,,,147,0,146,755.2367772999969,,,,,,,,,,,,,,,,,,,,,,,755.2280162999996,755.2367772999969,755.7509422999974,755.7278546999987,,,,,,,,,,,,,,,,,,,,,,,,,,755.7476436999968,755.7509422999974,755.7509422999974,755.7509422999974,758.7369578999969,j,2.8377629999995406,None,758.7371356999975,758.7371810999975,None,,,,,,,,,,,,,,,,,00012,001,2025-11-15_10h50.12.984,MST_task,2024.2.0,100.0744553952632,2025-11-15 10h50.18.779211 +0530,
,Objects\097a.jpg,147,0,148,,,,,,,j,1.6844101000024239,0.2713594999986526,None,,,,,,148,0,147,758.7462753,,,,,,,,,,,,,,,,,,,,,,,758.7374149999996,758.7462753,759.2570541999994,759.2375401999998,,,,,,,,,,,,,,,,,,,,,,,,,,759.2538152999987,759.2570541999994,759.2570541999994,759.2570541999994,762.246301799998,j,1.6844101000024239,0.2713594999986526,762.2464851999976,762.2465334999979,None,,,,,,,,,,,,,,,,,00012,001,2025-11-15_10h50.12.984,MST_task,2024.2.0,100.0744553952632,2025-11-15 10h50.18.779211 +0530,
,Objects\117a.jpg,148,0,149,,,,,,,f,2.0984132000012323,0.25511229999756324,None,,,,,,149,0,148,762.2556463999972,,,,,,,,,,,,,,,,,,,,,,,762.2467757999984,762.2556463999972,762.7631124,762.7466299999978,,,,,,,,,,,,,,,,,,,,,,,,,,762.7605176999969,762.7631124,762.7631124,762.7631124,765.746603399999,f,2.0984132000012323,0.25511229999756324,765.7467483,765.7467801999992,None,,,,,765.7551647999971,765.7551647999971,765.7551647999971,,,,,,,,,,00012,001,2025-11-15_10h50.12.984,MST_task,2024.2.0,100.0744553952632,2025-11-15 10h50.18.779211 +0530,
,Objects\006a.jpg,149,0,150,,,,,,,f,2.727413399999932,0.21662690000084694,None,,,,,,150,0,149,765.7551647999971,,,,,,,,,,,,,,,,,,,,,,,765.7469520999985,765.7551647999971,766.2616954999976,766.2459679999993,,,,,,,,,,,,,,,,,,,,,,,,,,766.2590328999977,766.2616954999976,766.2616954999976,766.2616954999976,769.2466037999984,f,2.727413399999932,0.21662690000084694,769.2467849999994,769.2468235999986,None,,,,,769.2549833999983,769.2549833999983,769.2549833999983,,,,,,,,,,00012,001,2025-11-15_10h50.12.984,MST_task,2024.2.0,100.0744553952632,2025-11-15 10h50.18.779211 +0530,
,Objects\077a.jpg,150,0,151,,,,,,,j,2.642934700001206,0.15983609999966575,None,,,,,,151,0,150,769.2549833999983,,,,,,,,,,,,,,,,,,,,,,,769.2470300999994,769.2549833999983,769.7625300999971,769.7457144,,,,,,,,,,,,,,,,,,,,,,,,,,769.7600278999998,769.7625300999971,769.7625300999971,769.7625300999971,772.7547943999998,j,2.642934700001206,0.15983609999966575,772.7549604999986,772.7550064999996,None,,,,,,,,,,,,,,,,,00012,001,2025-11-15_10h50.12.984,MST_task,2024.2.0,100.0744553952632,2025-11-15 10h50.18.779211 +0530,
,Objects\155a.jpg,151,0,152,,,,,,,f,2.3269943999985117,0.25616010000157985,None,,,,,,152,0,151,772.764470099999,,,,,,,,,,,,,,,,,,,,,,,772.7553157999973,772.764470099999,773.2700650999977,773.2555213999985,,,,,,,,,,,,,,,,,,,,,,,,,,773.2675415999984,773.2700650999977,773.2700650999977,773.2700650999977,776.2558887999985,f,2.3269943999985117,0.25616010000157985,776.2560664999983,776.2561024999995,None,,,,,776.2640326000001,776.2640326000001,776.2640326000001,,,,,,,,,,00012,001,2025-11-15_10h50.12.984,MST_task,2024.2.0,100.0744553952632,2025-11-15 10h50.18.779211 +0530,
,Objects\140a.jpg,152,0,153,,,,,,,f,1.9448133000005328,0.304580400003033,None,,,,,,153,0,152,776.2640326000001,,,,,,,,,,,,,,,,,,,,,,,776.2563581999966,776.2640326000001,776.7720543999967,776.7554610999978,,,,,,,,,,,,,,,,,,,,,,,,,,776.7692643999981,776.7720543999967,776.7720543999967,776.7720543999967,779.7642164999997,f,1.9448133000005328,0.304580400003033,779.7643961999966,779.7644396999967,None,,,,,,,,,,,,,,,,,00012,001,2025-11-15_10h50.12.984,MST_task,2024.2.0,100.0744553952632,2025-11-15 10h50.18.779211 +0530,
,Objects\105a.jpg,153,0,154,,,,,,,f,1.7644599999985076,0.31121790000179317,None,,,,,,154,0,153,779.7735919999977,,,,,,,,,,,,,,,,,,,,,,,779.7646939999977,779.7735919999977,780.2811029999975,780.2650657999984,,,,,,,,,,,,,,,,,,,,,,,,,,780.2784088999979,780.2811029999975,780.2811029999975,780.2811029999975,783.2735216999972,f,1.7644599999985076,0.31121790000179317,783.2736733999991,783.2737113999974,None,,,,,,,,,,,,,,,,,00012,001,2025-11-15_10h50.12.984,MST_task,2024.2.0,100.0744553952632,2025-11-15 10h50.18.779211 +0530,
,Scenes\116a.jpg,154,0,155,,,,,,,j,1.6155828999981168,0.21520260000033886,None,,,,,,155,0,154,783.2829232999975,,,,,,,,,,,,,,,,,,,,,,,783.2739269999984,783.2829232999975,783.797989499999,783.7740997000001,,,,,,,,,,,,,,,,,,,,,,,,,,783.7949898999977,783.797989499999,783.797989499999,783.797989499999,786.7832683999986,j,1.6155828999981168,0.21520260000033886,786.7834242999998,786.7834640000001,None,,,,,,,,,,,,,,,,,00012,001,2025-11-15_10h50.12.984,MST_task,2024.2.0,100.0744553952632,2025-11-15 10h50.18.779211 +0530,
,Scenes\021a.jpg,155,0,156,,,,,,,j,2.442030499998509,0.1439143999996304,None,,,,,,156,0,155,786.7925875000001,,,,,,,,,,,,,,,,,,,,,,,786.7837226999982,786.7925875000001,787.3072824999981,787.2833917999997,,,,,,,,,,,,,,,,,,,,,,,,,,787.303652999999,787.3072824999981,787.3072824999981,787.3072824999981,790.2926425999976,j,2.442030499998509,0.1439143999996304,790.292785499998,790.2928231999977,None,,,,,,,,,,,,,,,,,00012,001,2025-11-15_10h50.12.984,MST_task,2024.2.0,100.0744553952632,2025-11-15 10h50.18.779211 +0530,
,Scenes\176a.jpg,156,0,157,,,,,,,j,1.3641062999995484,0.24028929999985849,None,,,,,,157,0,156,790.3020486999994,,,,,,,,,,,,,,,,,,,,,,,790.2930412999995,790.3020486999994,790.8167176999996,790.7931269999972,,,,,,,,,,,,,,,,,,,,,,,,,,790.8139324999975,790.8167176999996,790.8167176999996,790.8167176999996,793.8021956999983,j,1.3641062999995484,0.24028929999985849,793.8023818000001,793.8024319999968,None,,,,,,,,,,,,,,,,,00012,001,2025-11-15_10h50.12.984,MST_task,2024.2.0,100.0744553952632,2025-11-15 10h50.18.779211 +0530,
,Scenes\160a.jpg,157,0,158,,,,,,,j,1.351504099999147,0.20802499999990687,None,,,,,,158,0,157,793.8116020999987,,,,,,,,,,,,,,,,,,,,,,,793.8027069999989,793.8116020999987,794.3257712999985,794.3026114999993,,,,,,,,,,,,,,,,,,,,,,,,,,794.3224446999993,794.3257712999985,794.3257712999985,794.3257712999985,797.3119744999967,j,1.351504099999147,0.20802499999990687,797.3121814999977,797.3122330999977,None,,,,,,,,,,,,,,,,,00012,001,2025-11-15_10h50.12.984,MST_task,2024.2.0,100.0744553952632,2025-11-15 10h50.18.779211 +0530,
,Scenes\088a.jpg,158,0,159,,,,,,,j,0.8456863999999769,0.19134419999681995,None,,,,,,159,0,158,797.3212043999993,,,,,,,,,,,,,,,,,,,,,,,797.3125479999981,797.3212043999993,797.8397344999976,797.8126368999983,,,,,,,,,,,,,,,,,,,,,,,,,,797.8361179999993,797.8397344999976,797.8397344999976,797.8397344999976,800.8212669999994,j,0.8456863999999769,0.19134419999681995,800.8214248999975,800.8214694999988,None,,,,,,,,,,,,,,,,,00012,001,2025-11-15_10h50.12.984,MST_task,2024.2.0,100.0744553952632,2025-11-15 10h50.18.779211 +0530,
,Scenes\124a.jpg,159,0,160,,,,,,,f,1.9589510999976483,0.2397942999996303,None,,,,,,160,0,159,800.8307196999995,,,,,,,,,,,,,,,,,,,,,,,800.8218016999999,800.8307196999995,801.343030699998,801.3219500999985,,,,,,,,,,,,,,,,,,,,,,,,,,801.3395770999996,801.343030699998,801.343030699998,801.343030699998,804.3310442999973,f,1.9589510999976483,0.2397942999996303,804.3312217999992,804.3312700999995,None,,,,,,,,,,,,,,,,,00012,001,2025-11-15_10h50.12.984,MST_task,2024.2.0,100.0744553952632,2025-11-15 10h50.18.779211 +0530,
,Scenes\115a.jpg,160,0,161,,,,,,,j,1.880417700001999,0.21604440000010072,None,,,,,,161,0,160,804.3403158999972,,,,,,,,,,,,,,,,,,,,,,,804.3316054999996,804.3403158999972,804.8525666999994,804.8312493999983,,,,,,,,,,,,,,,,,,,,,,,,,,804.8492245999987,804.8525666999994,804.8525666999994,804.8525666999994,807.840337499998,j,1.880417700001999,0.21604440000010072,807.8404818999988,807.8405169999969,None,,,,,,,,,,,,,,,,,00012,001,2025-11-15_10h50.12.984,MST_task,2024.2.0,100.0744553952632,2025-11-15 10h50.18.779211 +0530,
,Objects\098a.jpg,161,0,162,,,,,,,f,2.0939365000012913,0.16853229999833275,None,,,,,,162,0,161,807.8498627999979,,,,,,,,,,,,,,,,,,,,,,,807.8407384999991,807.8498627999979,808.3589609999981,808.3410241999991,,,,,,,,,,,,,,,,,,,,,,,,,,808.3557691999995,808.3589609999981,808.3589609999981,808.3589609999981,811.3501784999971,f,2.0939365000012913,0.16853229999833275,811.3503405999982,811.3503820999977,None,,,,,,,,,,,,,,,,,00012,001,2025-11-15_10h50.12.984,MST_task,2024.2.0,100.0744553952632,2025-11-15 10h50.18.779211 +0530,
,Objects\156a.jpg,162,0,163,,,,,,,f,2.8184460000011313,None,None,,,,,,163,0,162,811.3595061999986,,,,,,,,,,,,,,,,,,,,,,,811.3506770999993,811.3595061999986,811.866460899997,811.8509704999997,,,,,,,,,,,,,,,,,,,,,,,,,,811.8640324999978,811.866460899997,811.866460899997,811.866460899997,814.8498852999983,f,2.8184460000011313,None,814.8499578999981,814.8499731999982,None,,,,,814.8589470999977,814.8589470999977,814.8589470999977,,,,,,,,,,00012,001,2025-11-15_10h50.12.984,MST_task,2024.2.0,100.0744553952632,2025-11-15 10h50.18.779211 +0530,
,Objects\052a.jpg,163,0,164,,,,,,,f,2.461593799998809,0.2164303999998083,None,,,,,,164,0,163,814.8589470999977,,,,,,,,,,,,,,,,,,,,,,,814.8500647999972,814.8589470999977,815.3673135999998,815.3503148999989,,,,,,,,,,,,,,,,,,,,,,,,,,815.3646657999998,815.3673135999998,815.3673135999998,815.3673135999998,818.3592691999984,f,2.461593799998809,0.2164303999998083,818.3594603999991,818.3595130999965,None,,,,,,,,,,,,,,,,,00012,001,2025-11-15_10h50.12.984,MST_task,2024.2.0,100.0744553952632,2025-11-15 10h50.18.779211 +0530,
,Objects\151a.jpg,164,0,165,,,,,,,f,2.5024259999991045,0.3037771999988763,None,,,,,,165,0,164,818.3687170999983,,,,,,,,,,,,,,,,,,,,,,,818.3597937999984,818.3687170999983,818.8785998999992,818.8598656999966,,,,,,,,,,,,,,,,,,,,,,,,,,818.8756521999967,818.8785998999992,818.8785998999992,818.8785998999992,821.8689960999982,f,2.5024259999991045,0.3037771999988763,821.8692061000002,821.8692586999969,None,,,,,,,,,,,,,,,,,00012,001,2025-11-15_10h50.12.984,MST_task,2024.2.0,100.0744553952632,2025-11-15 10h50.18.779211 +0530,
,Objects\121a.jpg,165,0,166,,,,,,,f,2.5920616000003065,0.2000289999996312,None,,,,,,166,0,165,821.8782901999984,,,,,,,,,,,,,,,,,,,,,,,821.8695158999981,821.8782901999984,822.3887292,822.3690052999991,,,,,,,,,,,,,,,,,,,,,,,,,,822.3860834999978,822.3887292,822.3887292,822.3887292,825.3785399999979,f,2.5920616000003065,0.2000289999996312,825.3787357000001,825.3787791999966,None,,,,,,,,,,,,,,,,,00012,001,2025-11-15_10h50.12.984,MST_task,2024.2.0,100.0744553952632,2025-11-15 10h50.18.779211 +0530,
,Objects\114a.jpg,166,0,167,,,,,,,f,2.3500702000019373,0.3115981999981159,None,,,,,,167,0,166,825.3876657000001,,,,,,,,,,,,,,,,,,,,,,,825.3789820999991,825.3876657000001,825.8954681999967,825.8788752999972,,,,,,,,,,,,,,,,,,,,,,,,,,825.8928231999998,825.8954681999967,825.8954681999967,825.8954681999967,828.8879487999984,f,2.3500702000019373,0.3115981999981159,828.8881306999974,828.8881794999979,None,,,,,,,,,,,,,,,,,00012,001,2025-11-15_10h50.12.984,MST_task,2024.2.0,100.0744553952632,2025-11-15 10h50.18.779211 +0530,
,Objects\185a.jpg,167,0,168,,,,,,,f,2.9353613999992376,None,None,,,,,,168,0,167,828.8973938999989,,,,,,,,,,,,,,,,,,,,,,,828.8884339999968,828.8973938999989,829.4055187999984,829.3886109999985,,,,,,,,,,,,,,,,,,,,,,,,,,829.4027181999991,829.4055187999984,829.4055187999984,829.4055187999984,832.3971210999989,f,2.9353613999992376,None,832.3972118999991,832.3972346999981,None,,,,,,,,,,,,,,,,,00012,001,2025-11-15_10h50.12.984,MST_task,2024.2.0,100.0744553952632,2025-11-15 10h50.18.779211 +0530,
,Scenes\006a.jpg,168,0,169,,,,,,,j,2.932840000001306,None,None,,,,,,169,0,168,832.4067581999989,,,,,,,,,,,,,,,,,,,,,,,832.3973828999988,832.4067581999989,832.9203959999977,832.8979089999993,,,,,,,,,,,,,,,,,,,,,,,,,,832.9172736,832.9203959999977,832.9203959999977,832.9203959999977,835.906804299997,j,2.932840000001306,None,835.9069483999992,835.9069872,None,,,,,,,,,,,,,,,,,00012,001,2025-11-15_10h50.12.984,MST_task,2024.2.0,100.0744553952632,2025-11-15 10h50.18.779211 +0530,
,Scenes\114a.jpg,169,0,170,,,,,,,f,2.388603500003228,0.3202605999977095,None,,,,,,170,0,169,835.9163541999988,,,,,,,,,,,,,,,,,,,,,,,835.907177699999,835.9163541999988,836.4327122999966,836.407298099999,,,,,,,,,,,,,,,,,,,,,,,,,,836.4292749999986,836.4327122999966,836.4327122999966,836.4327122999966,839.4164263999992,f,2.388603500003228,0.3202605999977095,839.4166000999976,839.4166446999989,None,,,,,,,,,,,,,,,,,00012,001,2025-11-15_10h50.12.984,MST_task,2024.2.0,100.0744553952632,2025-11-15 10h50.18.779211 +0530,
,Scenes\183a.jpg,170,0,171,,,,,,,f,1.4887452000002668,0.2718029999996361,None,,,,,,171,0,170,839.4259287999994,,,,,,,,,,,,,,,,,,,,,,,839.4169591999998,839.4259287999994,839.9401539999999,839.9165403999978,,,,,,,,,,,,,,,,,,,,,,,,,,839.9371606999994,839.9401539999999,839.9401539999999,839.9401539999999,842.9260136999983,f,1.4887452000002668,0.2718029999996361,842.9261811999968,842.9262240999997,None,,,,,,,,,,,,,,,,,00012,001,2025-11-15_10h50.12.984,MST_task,2024.2.0,100.0744553952632,2025-11-15 10h50.18.779211 +0530,
,Scenes\168a.jpg,171,0,172,,,,,,,j,2.6176391000008152,0.2637512000001152,None,,,,,,172,0,171,842.9353989999981,,,,,,,,,,,,,,,,,,,,,,,842.9265345999993,842.9353989999981,843.4434916999999,843.4259992999978,,,,,,,,,,,,,,,,,,,,,,,,,,843.4403636999996,843.4434916999999,843.4434916999999,843.4434916999999,846.4354748999976,j,2.6176391000008152,0.2637512000001152,846.4356301999978,846.4356714999994,None,,,,,,,,,,,,,,,,,00012,001,2025-11-15_10h50.12.984,MST_task,2024.2.0,100.0744553952632,2025-11-15 10h50.18.779211 +0530,
,Scenes\170a.jpg,172,0,173,,,,,,,j,1.9492819999977655,0.3205785999998625,None,,,,,,173,0,172,846.4450391999999,,,,,,,,,,,,,,,,,,,,,,,846.4358773999993,846.4450391999999,846.9594707999968,846.935699499998,,,,,,,,,,,,,,,,,,,,,,,,,,846.956180899997,846.9594707999968,846.9594707999968,846.9594707999968,849.945234699997,j,1.9492819999977655,0.3205785999998625,849.9453821999996,849.9454221999986,None,,,,,,,,,,,,,,,,,00012,001,2025-11-15_10h50.12.984,MST_task,2024.2.0,100.0744553952632,2025-11-15 10h50.18.779211 +0530,
,Scenes\067a.jpg,173,0,174,,,,,,,f,2.9296027999989747,None,None,,,,,,174,0,173,849.9547351000001,,,,,,,,,,,,,,,,,,,,,,,849.9456563999993,849.9547351000001,850.467169399999,850.4458680999996,,,,,,,,,,,,,,,,,,,,,,,,,,850.463853899997,850.467169399999,850.467169399999,850.467169399999,853.4549271999967,f,2.9296027999989747,None,853.4551051999988,853.4551487999997,None,,,,,,,,,,,,,,,,,00012,001,2025-11-15_10h50.12.984,MST_task,2024.2.0,100.0744553952632,2025-11-15 10h50.18.779211 +0530,
