Sl_no,image_path,thisN,thisTrialN,thisRepN,key_resp_5.keys,key_resp_7.keys,key_resp_7.rt,key_resp_7.duration,key_resp_5.rt,key_resp_5.duration,key_resp_9.keys,key_resp_9.rt,key_resp_9.duration,key_resp_8.keys,key_resp_8.rt,key_resp_8.duration,practice.thisRepN,practice.thisTrialN,practice.thisN,trials.thisRepN,trials.thisTrialN,trials.thisN,thisRow.t,notes,welcome_page.started,text.started,key_resp.started,welcome_page.stopped,key_resp.keys,key_resp.rt,key_resp.duration,instructions.started,ins.started,key_resp_2.started,instructions.stopped,key_resp_2.keys,key_resp_2.rt,key_resp_2.duration,objects_only_instruction.started,text_3.started,key_resp_3.started,objects_only_instruction.stopped,key_resp_3.keys,key_resp_3.rt,key_resp_3.duration,ISI.started,text_4.started,ISI.stopped,practice_block.started,image.started,text_5.started,key_resp_5.started,practice_block.stopped,practice.key_resp_5.keys,indoor_outdoor.started,text_7.started,key_resp_7.started,indoor_outdoor.stopped,practice.key_resp_7.keys,practice.key_resp_7.rt,practice.key_resp_7.duration,text_4.stopped,image.stopped,text_5.stopped,key_resp_5.stopped,practice.key_resp_5.rt,practice.key_resp_5.duration,practice_to_main.started,text_2.started,key_resp_4.started,practice_to_main.stopped,key_resp_4.keys,key_resp_4.rt,key_resp_4.duration,objects.started,image_2.started,text_9.started,key_resp_9.started,objects.stopped,trials.key_resp_9.keys,trials.key_resp_9.rt,trials.key_resp_9.duration,encoding_task.started,encoding_task.stopped,trials.key_resp_8.keys,image_2.stopped,text_9.stopped,key_resp_9.stopped,text_8.started,key_resp_8.started,trials.key_resp_8.rt,trials.key_resp_8.duration,end_experiment.started,text_6.started,key_resp_6.started,end_experiment.stopped,key_resp_6.keys,key_resp_6.rt,key_resp_6.duration,list_of_stimuli,encoding_task_accuracy,participant,session,date,expName,psychopyVersion,frameRate,expStart,
,,,,,,,,,,,,,,,,,,,,,,,,,0.0016031999999768232,0.003978300000028412,0.003978300000028412,147.57991090000002,space,147.5181281,None,,,,,,,,,,,,,,,,,,,,,,,,,,,,,,,,,,,,,,,,,,,,,,,,,,,,,,,,,,,,,,,,,,,,,,,00013,001,2025-11-15_17h25.43.188,MST_task,2024.2.0,59.93209693417467,2025-11-15 17h25.51.343967 +0530,
,,,,,,,,,,,,,,,,,,,,,,,,,,,,,,,,147.57996029999998,147.59251799999998,147.59251799999998,161.77840759999998,space,14.178131600000029,None,,,,,,,,,,,,,,,,,,,,,,,,,,,,,,,,,,,,,,,,,,,,,,,,,,,,,,,,,,,,,,,,00013,001,2025-11-15_17h25.43.188,MST_task,2024.2.0,59.93209693417467,2025-11-15 17h25.51.343967 +0530,
,,,,,,,,,,,,,,,,,,,,,,,,,,,,,,,,,,,,,,,161.77855600000004,161.7985719,161.7985719,174.2117076,space,12.403337899999997,None,,,,,,,,,,,,,,,,,,,,,,,,,,,,,,,,,,,,,,,,,,,,,,,,,,,,,,,,,00013,001,2025-11-15_17h25.43.188,MST_task,2024.2.0,59.93209693417467,2025-11-15 17h25.51.343967 +0530,
5,practice_images/139a.jpg,0,0,1,None,j,0.12322940000001381,None,,,,,,,,,1,0,0,,,,174.25683210000005,,,,,,,,,,,,,,,,,,,,,,,174.2540985,174.25683210000005,174.72616239999996,174.74276600000002,174.75427870000004,174.75427870000004,174.75427870000004,177.72671740000004,None,177.73265659999998,177.7425996,177.7425996,177.87794300000002,j,0.12322940000001381,None,,,,,,,,,,,,,,,,,,,,,,,,,,,,,,,,,,,,,,,,,00013,001,2025-11-15_17h25.43.188,MST_task,2024.2.0,59.93209693417467,2025-11-15 17h25.51.343967 +0530,
7,practice_images/166a.jpg,1,1,1,f,None,,,1.865242999999964,0.1684219999999641,,,,,,,1,1,1,,,,177.8926998,,,,,,,,,,,,,,,,,,,,,,,177.8782428,177.8926998,178.37719539999995,178.3899422,178.39289200000002,178.39289200000002,178.39289200000002,181.377813,f,181.3780711,,,181.37814710000004,None,,,178.39289200000002,181.39285139999998,181.39285139999998,181.39285139999998,1.865242999999964,0.1684219999999641,,,,,,,,,,,,,,,,,,,,,,,,,,,,,,,,,,,00013,001,2025-11-15_17h25.43.188,MST_task,2024.2.0,59.93209693417467,2025-11-15 17h25.51.343967 +0530,
9,practice_images/180a.jpg,2,2,1,f,None,,,1.5878074999999399,0.18382880000001478,,,,,,,1,2,2,,,,181.39285139999998,,,,,,,,,,,,,,,,,,,,,,,181.37843909999998,181.39285139999998,181.87730500000004,181.89211819999997,181.89449510000003,181.89449510000003,181.89449510000003,184.89336350000002,f,184.89357639999997,,,184.89364159999997,None,,,181.89449510000003,,,,1.5878074999999399,0.18382880000001478,,,,,,,,,,,,,,,,,,,,,,,,,,,,,,,,,,,00013,001,2025-11-15_17h25.43.188,MST_task,2024.2.0,59.93209693417467,2025-11-15 17h25.51.343967 +0530,
6,practice_images/158a.jpg,3,3,1,j,None,,,2.1813601000000062,0.15182000000004336,,,,,,,1,3,3,,,,184.90923479999998,,,,,,,,,,,,,,,,,,,,,,,184.893937,184.90923479999998,185.39388790000004,185.41069399999998,185.41303950000002,185.41303950000002,185.41303950000002,188.41000879999996,j,188.4102572,,,188.41032190000004,None,,,185.41303950000002,,,,2.1813601000000062,0.15182000000004336,,,,,,,,,,,,,,,,,,,,,,,,,,,,,,,,,,,00013,001,2025-11-15_17h25.43.188,MST_task,2024.2.0,59.93209693417467,2025-11-15 17h25.51.343967 +0530,
1,practice_images/013a.jpg,4,4,1,j,None,,,2.2161191000000144,0.1601908000000094,,,,,,,1,4,4,,,,188.42620970000002,,,,,,,,,,,,,,,,,,,,,,,188.41060950000002,188.42620970000002,188.91064350000005,188.92747590000005,188.9298349,188.9298349,188.9298349,191.92701040000003,j,191.92722710000004,,,191.92729319999995,None,,,188.9298349,,,,2.2161191000000144,0.1601908000000094,,,,,,,,,,,,,,,,,,,,,,,,,,,,,,,,,,,00013,001,2025-11-15_17h25.43.188,MST_task,2024.2.0,59.93209693417467,2025-11-15 17h25.51.343967 +0530,
10,practice_images/182a.jpg,5,5,1,f,None,,,1.9882278000000042,0.15968149999991965,,,,,,,1,5,5,,,,191.9427119,,,,,,,,,,,,,,,,,,,,,,,191.92758299999997,191.9427119,192.42747409999998,192.4439084,192.44640069999997,192.44640069999997,192.44640069999997,195.44365699999997,f,195.4438624,,,195.44392969999996,None,,,192.44640069999997,,,,1.9882278000000042,0.15968149999991965,,,,,,,,,,,,,,,,,,,,,,,,,,,,,,,,,,,00013,001,2025-11-15_17h25.43.188,MST_task,2024.2.0,59.93209693417467,2025-11-15 17h25.51.343967 +0530,
2,practice_images/031a.jpg,6,6,1,f,None,,,1.5920541000000412,0.15966400000002068,,,,,,,1,6,6,,,,195.45933570000005,,,,,,,,,,,,,,,,,,,,,,,195.4442158,195.45933570000005,195.94377660000004,195.95997819999997,195.96239740000004,195.96239740000004,195.96239740000004,198.95972709999995,f,198.9598606,,,198.95989849999995,None,,,195.96239740000004,,,,1.5920541000000412,0.15966400000002068,,,,,,,,,,,,,,,,,,,,,,,,,,,,,,,,,,,00013,001,2025-11-15_17h25.43.188,MST_task,2024.2.0,59.93209693417467,2025-11-15 17h25.51.343967 +0530,
8,practice_images/178a.jpg,7,7,1,j,None,,,2.5886584000000994,0.12730939999994462,,,,,,,1,7,7,,,,198.97588190000005,,,,,,,,,,,,,,,,,,,,,,,198.96007379999998,198.97588190000005,199.46026150000006,199.47544480000005,199.4778581,199.4778581,199.4778581,202.47673760000004,j,202.47695119999997,,,202.47701869999997,None,,,199.4778581,,,,2.5886584000000994,0.12730939999994462,,,,,,,,,,,,,,,,,,,,,,,,,,,,,,,,,,,00013,001,2025-11-15_17h25.43.188,MST_task,2024.2.0,59.93209693417467,2025-11-15 17h25.51.343967 +0530,
4,practice_images/002b.jpg,8,8,1,f,None,,,2.086214899999959,0.1674235000000408,,,,,,,1,8,8,,,,202.49284659999995,,,,,,,,,,,,,,,,,,,,,,,202.47730740000003,202.49284659999995,202.97705660000003,202.99413110000006,202.99633650000004,202.99633650000004,202.99633650000004,205.9937868,f,205.99400559999998,,,205.99407200000002,None,,,202.99633650000004,,,,2.086214899999959,0.1674235000000408,,,,,,,,,,,,,,,,,,,,,,,,,,,,,,,,,,,00013,001,2025-11-15_17h25.43.188,MST_task,2024.2.0,59.93209693417467,2025-11-15 17h25.51.343967 +0530,
3,practice_images/037a.jpg,9,9,1,None,j,1.5882470999999896,None,,,,,,,,,1,9,9,,,,206.00928570000002,,,,,,,,,,,,,,,,,,,,,,,205.99435509999995,206.00928570000002,206.49404850000002,206.50951460000005,206.5118693,206.5118693,206.5118693,209.50984580000005,None,209.51003129999998,209.52604430000002,209.52604430000002,211.12835850000005,j,1.5882470999999896,None,206.5118693,,,,,,,,,,,,,,,,,,,,,,,,,,,,,,,,,,,,,,,,00013,001,2025-11-15_17h25.43.188,MST_task,2024.2.0,59.93209693417467,2025-11-15 17h25.51.343967 +0530,
,,,,,,,,,,,,,,,,,,,,,,,,,,,,,,,,,,,,,,,,,,,,,,,,,,,,,,,,,,,,,,,,,,,,211.12863610000005,211.14275849999996,211.14275849999996,243.1280026,space,31.979068299999994,None,,,,,,,,,,,,,,,,,,,,,,,,,,,,00013,001,2025-11-15_17h25.43.188,MST_task,2024.2.0,59.93209693417467,2025-11-15 17h25.51.343967 +0530,
,Objects\103a.jpg,0,0,1,,,,,,,f,1.5603331999999455,0.1521451999999499,None,,,,,,1,0,0,243.14259840000005,,,,,,,,,,,,,,,,,,,,,,,243.13037579999997,243.14259840000005,243.6275655,,,,,,,,,,,,,,243.6579076,,,,,,,,,,,,,243.65420699999999,243.6579076,243.6579076,243.6579076,246.6435793,f,1.5603331999999455,0.1521451999999499,246.64970899999997,246.64972840000001,None,,,,,,,,,,,,,,,,,00013,001,2025-11-15_17h25.43.188,MST_task,2024.2.0,59.93209693417467,2025-11-15 17h25.51.343967 +0530,
,Objects\083a.jpg,1,0,2,,,,,,,f,1.9239120000000867,0.11912969999991674,None,,,,,,2,0,1,246.6595011,,,,,,,,,,,,,,,,,,,,,,,246.64983560000002,246.6595011,247.14383949999996,,,,,,,,,,,,,,247.15935459999997,,,,,,,,,,,,,247.156179,247.15935459999997,247.15935459999997,247.15935459999997,250.14459300000004,f,1.9239120000000867,0.11912969999991674,250.14475929999998,250.1447989,None,250.15939299999997,250.15939299999997,250.15939299999997,,,,,,,,,,,,,,00013,001,2025-11-15_17h25.43.188,MST_task,2024.2.0,59.93209693417467,2025-11-15 17h25.51.343967 +0530,
,Objects\088a.jpg,2,0,3,,,,,,,f,1.5704317999999375,0.1605239000000438,None,,,,,,3,0,2,250.15939299999997,,,,,,,,,,,,,,,,,,,,,,,250.1450464,250.15939299999997,250.6439734,,,,,,,,,,,,,,250.66405170000002,,,,,,,,,,,,,250.66150969999995,250.66405170000002,250.66405170000002,250.66405170000002,253.65996239999998,f,1.5704317999999375,0.1605239000000438,253.66018420000006,253.66024680000004,None,,,,,,,,,,,,,,,,,00013,001,2025-11-15_17h25.43.188,MST_task,2024.2.0,59.93209693417467,2025-11-15 17h25.51.343967 +0530,
,Objects\104a.jpg,3,0,4,,,,,,,f,2.124246699999958,0.1602748000000247,None,,,,,,4,0,3,253.6761532,,,,,,,,,,,,,,,,,,,,,,,253.66059880000006,253.6761532,254.16026470000003,,,,,,,,,,,,,,254.18189109999997,,,,,,,,,,,,,254.17939500000006,254.18189109999997,254.18189109999997,254.18189109999997,257.1766376,f,2.124246699999958,0.1602748000000247,257.1768278,257.17687689999997,None,,,,,,,,,,,,,,,,,00013,001,2025-11-15_17h25.43.188,MST_task,2024.2.0,59.93209693417467,2025-11-15 17h25.51.343967 +0530,
,Objects\168a.jpg,4,0,5,,,,,,,None,,,j,0.8688366999999744,None,,,,5,0,4,257.19288279999995,,,,,,,,,,,,,,,,,,,,,,,257.17718800000006,257.19288279999995,257.67711860000003,,,,,,,,,,,,,,257.6957508,,,,,,,,,,,,,257.6932403,257.6957508,257.6957508,257.6957508,260.69363649999997,None,,,260.69386949999995,261.59449680000006,j,,,,260.7093411,260.7093411,0.8688366999999744,None,,,,,,,,,,00013,001,2025-11-15_17h25.43.188,MST_task,2024.2.0,59.93209693417467,2025-11-15 17h25.51.343967 +0530,
,Objects\011a.jpg,5,0,6,,,,,,,f,1.5864413000000468,0.13497189999998227,None,,,,,,6,0,5,261.60926680000006,,,,,,,,,,,,,,,,,,,,,,,261.59487040000005,261.60926680000006,262.09374610000003,,,,,,,,,,,,,,262.11268120000005,,,,,,,,,,,,,262.1101593,262.11268120000005,262.11268120000005,262.11268120000005,265.109941,f,1.5864413000000468,0.13497189999998227,265.11020879999995,265.1102712,None,,,,,,,,,,,,,,,,,00013,001,2025-11-15_17h25.43.188,MST_task,2024.2.0,59.93209693417467,2025-11-15 17h25.51.343967 +0530,
,Objects\161a.jpg,6,0,7,,,,,,,j,2.337886100000105,0.10434109999994234,None,,,,,,7,0,6,265.12612270000005,,,,,,,,,,,,,,,,,,,,,,,265.11058010000005,265.12612270000005,265.61027770000004,,,,,,,,,,,,,,265.6318432,,,,,,,,,,,,,265.6294076,265.6318432,265.6318432,265.6318432,268.6268677,j,2.337886100000105,0.10434109999994234,268.62709720000004,268.62715940000004,None,,,,,,,,,,,,,,,,,00013,001,2025-11-15_17h25.43.188,MST_task,2024.2.0,59.93209693417467,2025-11-15 17h25.51.343967 +0530,
,Scenes\160a.jpg,7,0,8,,,,,,,j,1.5495626999999104,0.1433815999999979,None,,,,,,8,0,7,268.642953,,,,,,,,,,,,,,,,,,,,,,,268.62746510000005,268.642953,269.1274119,,,,,,,,,,,,,,269.1570506,,,,,,,,,,,,,269.15395359999997,269.1570506,269.1570506,269.1570506,272.14334690000004,j,1.5495626999999104,0.1433815999999979,272.14357390000004,272.1436346,None,,,,,,,,,,,,,,,,,00013,001,2025-11-15_17h25.43.188,MST_task,2024.2.0,59.93209693417467,2025-11-15 17h25.51.343967 +0530,
,Scenes\110a.jpg,8,0,9,,,,,,,j,2.299255799999969,0.14442880000001423,None,,,,,,9,0,8,272.15948340000006,,,,,,,,,,,,,,,,,,,,,,,272.144033,272.15948340000006,272.6436782,,,,,,,,,,,,,,272.6711046,,,,,,,,,,,,,272.66796230000006,272.6711046,272.6711046,272.6711046,275.65989099999996,j,2.299255799999969,0.14442880000001423,275.6601007,275.6601603,None,,,,,,,,,,,,,,,,,00013,001,2025-11-15_17h25.43.188,MST_task,2024.2.0,59.93209693417467,2025-11-15 17h25.51.343967 +0530,
,Scenes\133a.jpg,9,0,10,,,,,,,j,1.0499611999999843,0.1285113999999794,None,,,,,,10,0,9,275.6760092,,,,,,,,,,,,,,,,,,,,,,,275.6605314,275.6760092,276.16007959999996,,,,,,,,,,,,,,276.18427460000004,,,,,,,,,,,,,276.18105369999995,276.18427460000004,276.18427460000004,276.18427460000004,279.17680149999995,j,1.0499611999999843,0.1285113999999794,279.17701860000005,279.17707679999995,None,,,,,,,,,,,,,,,,,00013,001,2025-11-15_17h25.43.188,MST_task,2024.2.0,59.93209693417467,2025-11-15 17h25.51.343967 +0530,
,Scenes\092a.jpg,10,0,11,,,,,,,f,1.3435422000000017,0.15225060000000212,None,,,,,,11,0,10,279.1927039,,,,,,,,,,,,,,,,,,,,,,,279.17745229999997,279.1927039,279.6770826,,,,,,,,,,,,,,279.70643909999995,,,,,,,,,,,,,279.703059,279.70643909999995,279.70643909999995,279.70643909999995,282.69324950000004,f,1.3435422000000017,0.15225060000000212,282.69346349999995,282.6935265,None,,,,,,,,,,,,,,,,,00013,001,2025-11-15_17h25.43.188,MST_task,2024.2.0,59.93209693417467,2025-11-15 17h25.51.343967 +0530,
,Scenes\129a.jpg,11,0,12,,,,,,,j,2.312785700000063,0.12782210000000305,None,,,,,,12,0,11,282.70921660000005,,,,,,,,,,,,,,,,,,,,,,,282.69379829999997,282.70921660000005,283.19366599999995,,,,,,,,,,,,,,283.217658,,,,,,,,,,,,,283.21446799999995,283.217658,283.217658,283.217658,286.20980260000005,j,2.312785700000063,0.12782210000000305,286.20999109999997,286.2100436,None,,,,,,,,,,,,,,,,,00013,001,2025-11-15_17h25.43.188,MST_task,2024.2.0,59.93209693417467,2025-11-15 17h25.51.343967 +0530,
,Scenes\096a.jpg,12,0,13,,,,,,,j,1.1804475999999795,0.14407470000003286,None,,,,,,13,0,12,286.22601160000005,,,,,,,,,,,,,,,,,,,,,,,286.21031280000005,286.22601160000005,286.7104887,,,,,,,,,,,,,,286.7339466,,,,,,,,,,,,,286.73128,286.7339466,286.7339466,286.7339466,289.7267745,j,1.1804475999999795,0.14407470000003286,289.72701490000003,289.72707799999995,None,,,,,,,,,,,,,,,,,00013,001,2025-11-15_17h25.43.188,MST_task,2024.2.0,59.93209693417467,2025-11-15 17h25.51.343967 +0530,
,Scenes\033a.jpg,13,0,14,,,,,,,None,,,j,0.8548627000000124,None,,,,14,0,13,289.74293000000006,,,,,,,,,,,,,,,,,,,,,,,289.7274653,289.74293000000006,290.2270964,,,,,,,,,,,,,,290.2486558,,,,,,,,,,,,,290.24579639999996,290.2486558,290.2486558,290.2486558,293.2428765,None,,,293.24299590000004,294.12649519999997,j,,,,293.2589856,293.2589856,0.8548627000000124,None,,,,,,,,,,00013,001,2025-11-15_17h25.43.188,MST_task,2024.2.0,59.93209693417467,2025-11-15 17h25.51.343967 +0530,
,Objects\153a.jpg,14,0,15,,,,,,,None,,,f,2.150799099999972,None,,,,15,0,14,294.14255699999995,,,,,,,,,,,,,,,,,,,,,,,294.1266099,294.14255699999995,294.6270669,,,,,,,,,,,,,,294.645324,,,,,,,,,,,,,294.6422565,294.645324,294.645324,294.645324,297.64333359999995,None,,,297.6435509,299.82662799999997,f,,,,297.6592205,297.6592205,2.150799099999972,None,,,,,,,,,,00013,001,2025-11-15_17h25.43.188,MST_task,2024.2.0,59.93209693417467,2025-11-15 17h25.51.343967 +0530,
,Objects\086a.jpg,15,0,16,,,,,,,j,1.2959213999999974,0.13585139999997864,None,,,,,,16,0,15,299.8425501,,,,,,,,,,,,,,,,,,,,,,,299.8267933,299.8425501,300.32714389999995,,,,,,,,,,,,,,300.3459876,,,,,,,,,,,,,300.34336160000004,300.3459876,300.3459876,300.3459876,303.34341220000005,j,1.2959213999999974,0.13585139999997864,303.3436304,303.3436906,None,,,,,,,,,,,,,,,,,00013,001,2025-11-15_17h25.43.188,MST_task,2024.2.0,59.93209693417467,2025-11-15 17h25.51.343967 +0530,
,Objects\169a.jpg,16,0,17,,,,,,,None,,,j,1.3261714999999867,None,,,,17,0,16,303.35918970000006,,,,,,,,,,,,,,,,,,,,,,,303.3440833,303.35918970000006,303.84431950000004,,,,,,,,,,,,,,303.8622324,,,,,,,,,,,,,303.85965360000006,303.8622324,303.8622324,303.8622324,306.8599139,None,,,306.86011060000004,308.21117610000005,j,,,,306.87599289999997,306.87599289999997,1.3261714999999867,None,,,,,,,,,,00013,001,2025-11-15_17h25.43.188,MST_task,2024.2.0,59.93209693417467,2025-11-15 17h25.51.343967 +0530,
,Objects\112a.jpg,17,0,18,,,,,,,None,,,f,6.0836994,None,,,,18,0,17,308.22611550000005,,,,,,,,,,,,,,,,,,,,,,,308.2114982,308.22611550000005,308.71030720000005,,,,,,,,,,,,,,308.7308096,,,,,,,,,,,,,308.7281052,308.7308096,308.7308096,308.7308096,311.72668860000005,None,,,311.72688109999996,317.8283707,f,,,,311.7427101,311.7427101,6.0836994,None,,,,,,,,,,00013,001,2025-11-15_17h25.43.188,MST_task,2024.2.0,59.93209693417467,2025-11-15 17h25.51.343967 +0530,
,Objects\156a.jpg,18,0,19,,,,,,,None,,,f,1.6348678000000518,None,,,,19,0,18,317.84262359999997,,,,,,,,,,,,,,,,,,,,,,,317.82872549999996,317.84262359999997,318.32718140000003,,,,,,,,,,,,,,318.3477615,,,,,,,,,,,,,318.3451683,318.3477615,318.3477615,318.3477615,321.3433163,None,,,321.34356399999996,323.0106493,f,,,,321.359175,321.359175,1.6348678000000518,None,,,,,,,,,,00013,001,2025-11-15_17h25.43.188,MST_task,2024.2.0,59.93209693417467,2025-11-15 17h25.51.343967 +0530,
,Objects\146a.jpg,19,0,20,,,,,,,None,,,f,1.3629784000000882,None,,,,20,0,19,323.02594289999996,,,,,,,,,,,,,,,,,,,,,,,323.0109272,323.02594289999996,323.5106298,,,,,,,,,,,,,,323.53276339999996,,,,,,,,,,,,,323.5302601,323.53276339999996,323.53276339999996,323.53276339999996,326.52695220000004,None,,,326.5271608,327.91165270000005,f,,,,326.54288060000005,326.54288060000005,1.3629784000000882,None,,,,,,,,,,00013,001,2025-11-15_17h25.43.188,MST_task,2024.2.0,59.93209693417467,2025-11-15 17h25.51.343967 +0530,
,Objects\170a.jpg,20,0,21,,,,,,,None,,,j,0.6069910999999593,None,,,,21,0,20,327.9260824,,,,,,,,,,,,,,,,,,,,,,,327.9120228,327.9260824,328.41061840000003,,,,,,,,,,,,,,328.43270049999995,,,,,,,,,,,,,328.42999019999996,328.43270049999995,328.43270049999995,328.43270049999995,331.42681669999996,None,,,331.42705630000006,332.0610148,j,,,,331.44302610000005,331.44302610000005,0.6069910999999593,None,,,,,,,,,,00013,001,2025-11-15_17h25.43.188,MST_task,2024.2.0,59.93209693417467,2025-11-15 17h25.51.343967 +0530,
,Scenes\089a.jpg,21,0,22,,,,,,,j,1.357788199999959,0.13668710000001738,None,,,,,,22,0,21,332.0761419,,,,,,,,,,,,,,,,,,,,,,,332.06131180000006,332.0761419,332.5604328,,,,,,,,,,,,,,332.587919,,,,,,,,,,,,,332.5847051,332.587919,332.587919,332.587919,335.57682530000005,j,1.357788199999959,0.13668710000001738,335.57705830000003,335.57712069999997,None,,,,,,,,,,,,,,,,,00013,001,2025-11-15_17h25.43.188,MST_task,2024.2.0,59.93209693417467,2025-11-15 17h25.51.343967 +0530,
,Scenes\069a.jpg,22,0,23,,,,,,,j,0.9679641999999831,0.11916719999999259,None,,,,,,23,0,22,335.5927761,,,,,,,,,,,,,,,,,,,,,,,335.57743050000005,335.5927761,336.07720050000006,,,,,,,,,,,,,,336.0986552,,,,,,,,,,,,,336.0953967,336.0986552,336.0986552,336.0986552,339.09342599999997,j,0.9679641999999831,0.11916719999999259,339.09363790000003,339.09369610000005,None,,,,,,,,,,,,,,,,,00013,001,2025-11-15_17h25.43.188,MST_task,2024.2.0,59.93209693417467,2025-11-15 17h25.51.343967 +0530,
,Scenes\043a.jpg,23,0,24,,,,,,,j,1.2760406999999532,0.14395039999999426,None,,,,,,24,0,23,339.10941240000005,,,,,,,,,,,,,,,,,,,,,,,339.0940943,339.10941240000005,339.5941541,,,,,,,,,,,,,,339.6223378,,,,,,,,,,,,,339.6189416,339.6223378,339.6223378,339.6223378,342.6098361,j,1.2760406999999532,0.14395039999999426,342.610033,342.61010100000004,None,,,,,,,,,,,,,,,,,00013,001,2025-11-15_17h25.43.188,MST_task,2024.2.0,59.93209693417467,2025-11-15 17h25.51.343967 +0530,
,Scenes\112a.jpg,24,0,25,,,,,,,j,1.2972757999999658,0.13614300000006097,None,,,,,,25,0,24,342.62613030000006,,,,,,,,,,,,,,,,,,,,,,,342.6104627,342.62613030000006,343.1105105,,,,,,,,,,,,,,343.13681679999996,,,,,,,,,,,,,343.1333759,343.13681679999996,343.13681679999996,343.13681679999996,346.12677920000004,j,1.2972757999999658,0.13614300000006097,346.1269983,346.1270563,None,,,,,,,,,,,,,,,,,00013,001,2025-11-15_17h25.43.188,MST_task,2024.2.0,59.93209693417467,2025-11-15 17h25.51.343967 +0530,
,Scenes\111a.jpg,25,0,26,,,,,,,j,1.2696088999999802,0.13513540000008106,None,,,,,,26,0,25,346.1427534,,,,,,,,,,,,,,,,,,,,,,,346.127358,346.1427534,346.62721270000003,,,,,,,,,,,,,,346.65305170000005,,,,,,,,,,,,,346.64971110000005,346.65305170000005,346.65305170000005,346.65305170000005,349.64347019999997,j,1.2696088999999802,0.13513540000008106,349.64370019999996,349.6437603,None,,,,,,,,,,,,,,,,,00013,001,2025-11-15_17h25.43.188,MST_task,2024.2.0,59.93209693417467,2025-11-15 17h25.51.343967 +0530,
,Scenes\088a.jpg,26,0,27,,,,,,,j,0.9570932000000312,0.14251769999998487,None,,,,,,27,0,26,349.6593578,,,,,,,,,,,,,,,,,,,,,,,349.6440637,349.6593578,350.1439655,,,,,,,,,,,,,,350.174109,,,,,,,,,,,,,350.1706585,350.174109,350.174109,350.174109,353.16000149999996,j,0.9570932000000312,0.14251769999998487,353.1602373,353.1603316,None,,,,,,,,,,,,,,,,,00013,001,2025-11-15_17h25.43.188,MST_task,2024.2.0,59.93209693417467,2025-11-15 17h25.51.343967 +0530,
,Scenes\126a.jpg,27,0,28,,,,,,,j,0.676018900000031,0.13545249999992848,None,,,,,,28,0,27,353.17583370000006,,,,,,,,,,,,,,,,,,,,,,,353.16059320000005,353.17583370000006,353.6605864,,,,,,,,,,,,,,353.6863348,,,,,,,,,,,,,353.6829218,353.6863348,353.6863348,353.6863348,356.6767802,j,0.676018900000031,0.13545249999992848,356.67699680000004,356.6770564,None,,,,,,,,,,,,,,,,,00013,001,2025-11-15_17h25.43.188,MST_task,2024.2.0,59.93209693417467,2025-11-15 17h25.51.343967 +0530,
,Objects\099a.jpg,28,0,29,,,,,,,f,2.499129200000084,0.17565379999996367,None,,,,,,29,0,28,356.6925942,,,,,,,,,,,,,,,,,,,,,,,356.677438,356.6925942,357.17710589999996,,,,,,,,,,,,,,357.1993696,,,,,,,,,,,,,357.1962872,357.1993696,357.1993696,357.1993696,360.19329669999996,f,2.499129200000084,0.17565379999996367,360.19357329999997,360.1936334,None,,,,,,,,,,,,,,,,,00013,001,2025-11-15_17h25.43.188,MST_task,2024.2.0,59.93209693417467,2025-11-15 17h25.51.343967 +0530,
,Objects\100a.jpg,29,0,30,,,,,,,f,1.2499248999999963,0.15233500000010736,None,,,,,,30,0,29,360.2091793,,,,,,,,,,,,,,,,,,,,,,,360.1939362,360.2091793,360.69406280000004,,,,,,,,,,,,,,360.7116136,,,,,,,,,,,,,360.7089239,360.7116136,360.7116136,360.7116136,363.709729,f,1.2499248999999963,0.15233500000010736,363.70995039999997,363.7100116,None,,,,,,,,,,,,,,,,,00013,001,2025-11-15_17h25.43.188,MST_task,2024.2.0,59.93209693417467,2025-11-15 17h25.51.343967 +0530,
,Objects\071a.jpg,30,0,31,,,,,,,j,1.462301899999943,0.14359890000002906,None,,,,,,31,0,30,363.72589739999995,,,,,,,,,,,,,,,,,,,,,,,363.71037010000003,363.72589739999995,364.21023800000006,,,,,,,,,,,,,,364.22794530000004,,,,,,,,,,,,,364.22522239999995,364.22794530000004,364.22794530000004,364.22794530000004,367.22659560000005,j,1.462301899999943,0.14359890000002906,367.2268333,367.22689440000005,None,,,,,,,,,,,,,,,,,00013,001,2025-11-15_17h25.43.188,MST_task,2024.2.0,59.93209693417467,2025-11-15 17h25.51.343967 +0530,
,Objects\159a.jpg,31,0,32,,,,,,,f,1.0178399999999783,0.15164630000003854,None,,,,,,32,0,31,367.2425708,,,,,,,,,,,,,,,,,,,,,,,367.22731960000004,367.2425708,367.72692420000004,,,,,,,,,,,,,,367.7442355,,,,,,,,,,,,,367.741647,367.7442355,367.7442355,367.7442355,370.74322049999995,f,1.0178399999999783,0.15164630000003854,370.743443,370.7435019,None,,,,,,,,,,,,,,,,,00013,001,2025-11-15_17h25.43.188,MST_task,2024.2.0,59.93209693417467,2025-11-15 17h25.51.343967 +0530,
,Objects\091a.jpg,32,0,33,,,,,,,j,1.9874942000000146,0.14435770000000048,None,,,,,,33,0,32,370.7591551,,,,,,,,,,,,,,,,,,,,,,,370.7439089,370.7591551,371.24377880000003,,,,,,,,,,,,,,371.262725,,,,,,,,,,,,,371.26010809999997,371.262725,371.262725,371.262725,374.25993810000006,j,1.9874942000000146,0.14435770000000048,374.2601705,374.26023189999995,None,,,,,,,,,,,,,,,,,00013,001,2025-11-15_17h25.43.188,MST_task,2024.2.0,59.93209693417467,2025-11-15 17h25.51.343967 +0530,
,Objects\138a.jpg,33,0,34,,,,,,,j,1.3245617999999695,0.12794380000002548,None,,,,,,34,0,33,374.2761996,,,,,,,,,,,,,,,,,,,,,,,374.2606208,374.2761996,374.7601318,,,,,,,,,,,,,,374.78194720000005,,,,,,,,,,,,,374.77939340000006,374.78194720000005,374.78194720000005,374.78194720000005,377.77625670000003,j,1.3245617999999695,0.12794380000002548,377.7763809,377.7764149,None,,,,,,,,,,,,,,,,,00013,001,2025-11-15_17h25.43.188,MST_task,2024.2.0,59.93209693417467,2025-11-15 17h25.51.343967 +0530,
,Objects\183a.jpg,34,0,35,,,,,,,f,2.0252746999999545,0.15227149999998346,None,,,,,,35,0,34,377.79261260000004,,,,,,,,,,,,,,,,,,,,,,,377.77665900000005,377.79261260000004,378.27716230000004,,,,,,,,,,,,,,378.2968501,,,,,,,,,,,,,378.29427189999996,378.2968501,378.2968501,378.2968501,381.27659739999996,f,2.0252746999999545,0.15227149999998346,381.27674929999995,381.27678940000004,None,,,,,,,,,,,,,,,,,00013,001,2025-11-15_17h25.43.188,MST_task,2024.2.0,59.93209693417467,2025-11-15 17h25.51.343967 +0530,
,Scenes\175a.jpg,35,0,36,,,,,,,j,1.1650422999999819,0.1366633999999749,None,,,,,,36,0,35,381.29273259999997,,,,,,,,,,,,,,,,,,,,,,,381.27707019999997,381.29273259999997,381.7770036,,,,,,,,,,,,,,381.7969876,,,,,,,,,,,,,381.7938023,381.7969876,381.7969876,381.7969876,384.79329349999995,j,1.1650422999999819,0.1366633999999749,384.793513,384.79357269999997,None,,,,,,,,,,,,,,,,,00013,001,2025-11-15_17h25.43.188,MST_task,2024.2.0,59.93209693417467,2025-11-15 17h25.51.343967 +0530,
,Scenes\006a.jpg,36,0,37,,,,,,,None,,,f,0.8363039000000754,None,,,,37,0,36,384.80920729999997,,,,,,,,,,,,,,,,,,,,,,,384.794052,384.80920729999997,385.29399970000003,,,,,,,,,,,,,,385.31772440000003,,,,,,,,,,,,,385.31427709999997,385.31772440000003,385.31772440000003,385.31772440000003,388.3098604,None,,,388.3100566,389.17810590000005,f,,,,388.325933,388.325933,0.8363039000000754,None,,,,,,,,,,00013,001,2025-11-15_17h25.43.188,MST_task,2024.2.0,59.93209693417467,2025-11-15 17h25.51.343967 +0530,
,Scenes\182a.jpg,37,0,38,,,,,,,f,2.5249904999999444,0.15190350000000308,None,,,,,,38,0,37,389.1926494,,,,,,,,,,,,,,,,,,,,,,,389.17843880000004,389.1926494,389.67710660000006,,,,,,,,,,,,,,389.70185610000004,,,,,,,,,,,,,389.6986615,389.70185610000004,389.70185610000004,389.70185610000004,392.6933687,f,2.5249904999999444,0.15190350000000308,392.69359849999995,392.6936595,None,,,,,,,,,,,,,,,,,00013,001,2025-11-15_17h25.43.188,MST_task,2024.2.0,59.93209693417467,2025-11-15 17h25.51.343967 +0530,
,Scenes\157a.jpg,38,0,39,,,,,,,j,2.8552014000000554,None,None,,,,,,39,0,38,392.70917090000006,,,,,,,,,,,,,,,,,,,,,,,392.6939593,392.70917090000006,393.19385129999995,,,,,,,,,,,,,,393.21935779999995,,,,,,,,,,,,,393.21617580000003,393.21935779999995,393.21935779999995,393.21935779999995,396.20984419999996,j,2.8552014000000554,None,396.21005959999997,396.2101339,None,,,,,,,,,,,,,,,,,00013,001,2025-11-15_17h25.43.188,MST_task,2024.2.0,59.93209693417467,2025-11-15 17h25.51.343967 +0530,
,Scenes\170a.jpg,39,0,40,,,,,,,j,0.8116628999999875,0.12807170000007773,None,,,,,,40,0,39,396.22594910000004,,,,,,,,,,,,,,,,,,,,,,,396.2104896,396.22594910000004,396.7104,,,,,,,,,,,,,,396.7427766,,,,,,,,,,,,,396.7393964,396.7427766,396.7427766,396.7427766,399.7266276,j,0.8116628999999875,0.12807170000007773,399.7268476,399.72690630000005,None,,,,,,,,,,,,,,,,,00013,001,2025-11-15_17h25.43.188,MST_task,2024.2.0,59.93209693417467,2025-11-15 17h25.51.343967 +0530,
,Scenes\130a.jpg,40,0,41,,,,,,,j,1.276427300000023,0.12053049999997256,None,,,,,,41,0,40,399.74264409999995,,,,,,,,,,,,,,,,,,,,,,,399.7272089,399.74264409999995,400.22653799999995,,,,,,,,,,,,,,400.25364299999995,,,,,,,,,,,,,400.2500813,400.25364299999995,400.25364299999995,400.25364299999995,403.24339649999996,j,1.276427300000023,0.12053049999997256,403.24363439999996,403.2436945,None,,,,,,,,,,,,,,,,,00013,001,2025-11-15_17h25.43.188,MST_task,2024.2.0,59.93209693417467,2025-11-15 17h25.51.343967 +0530,
,Scenes\118a.jpg,41,0,42,,,,,,,None,,,j,0.8976983000000018,None,,,,42,0,41,403.25923989999995,,,,,,,,,,,,,,,,,,,,,,,403.2440109,403.25923989999995,403.74403250000006,,,,,,,,,,,,,,403.7669173,,,,,,,,,,,,,403.7635059,403.7669173,403.7669173,403.7669173,406.75962539999995,None,,,406.75984580000005,407.6780167,j,,,,406.77608979999997,406.77608979999997,0.8976983000000018,None,,,,,,,,,,00013,001,2025-11-15_17h25.43.188,MST_task,2024.2.0,59.93209693417467,2025-11-15 17h25.51.343967 +0530,
,Objects\171a.jpg,42,0,43,,,,,,,f,2.099767399999905,0.15186850000009144,None,,,,,,43,0,42,407.69254689999997,,,,,,,,,,,,,,,,,,,,,,,407.67849629999995,407.69254689999997,408.17712190000003,,,,,,,,,,,,,,408.1983664,,,,,,,,,,,,,408.1952439,408.1983664,408.1983664,408.1983664,411.1935709,f,2.099767399999905,0.15186850000009144,411.19380770000004,411.1938691,None,,,,,,,,,,,,,,,,,00013,001,2025-11-15_17h25.43.188,MST_task,2024.2.0,59.93209693417467,2025-11-15 17h25.51.343967 +0530,
,Objects\109a.jpg,43,0,44,,,,,,,j,1.9750827999999956,0.12829659999999876,None,,,,,,44,0,43,411.20928039999995,,,,,,,,,,,,,,,,,,,,,,,411.1942611,411.20928039999995,411.69374799999997,,,,,,,,,,,,,,411.7148477,,,,,,,,,,,,,411.71232649999996,411.7148477,411.7148477,411.7148477,414.7097578,j,1.9750827999999956,0.12829659999999876,414.7099854,414.71004739999995,None,,,,,,,,,,,,,,,,,00013,001,2025-11-15_17h25.43.188,MST_task,2024.2.0,59.93209693417467,2025-11-15 17h25.51.343967 +0530,
,Objects\142a.jpg,44,0,45,,,,,,,f,1.5009639000001016,0.136406299999976,None,,,,,,45,0,44,414.72617499999996,,,,,,,,,,,,,,,,,,,,,,,414.7104728,414.72617499999996,415.2100892,,,,,,,,,,,,,,415.2289592,,,,,,,,,,,,,415.2264307,415.2289592,415.2289592,415.2289592,418.2264551,f,1.5009639000001016,0.136406299999976,418.2266619,418.2267122,None,,,,,,,,,,,,,,,,,00013,001,2025-11-15_17h25.43.188,MST_task,2024.2.0,59.93209693417467,2025-11-15 17h25.51.343967 +0530,
,Objects\078a.jpg,45,0,46,,,,,,,j,1.237733599999956,0.12821840000003704,None,,,,,,46,0,45,418.24267960000003,,,,,,,,,,,,,,,,,,,,,,,418.22707599999995,418.24267960000003,418.72726930000005,,,,,,,,,,,,,,418.74809650000003,,,,,,,,,,,,,418.7451497,418.74809650000003,418.74809650000003,418.74809650000003,421.7430801,j,1.237733599999956,0.12821840000003704,421.7432987,421.74335809999997,None,,,,,,,,,,,,,,,,,00013,001,2025-11-15_17h25.43.188,MST_task,2024.2.0,59.93209693417467,2025-11-15 17h25.51.343967 +0530,
,Objects\007a.jpg,46,0,47,,,,,,,f,0.9496281000000408,0.1583219999999983,None,,,,,,47,0,46,421.75926799999996,,,,,,,,,,,,,,,,,,,,,,,421.7437014,421.75926799999996,422.2439443,,,,,,,,,,,,,,422.2617071,,,,,,,,,,,,,422.2590038,422.2617071,422.2617071,422.2617071,425.25973719999996,f,0.9496281000000408,0.1583219999999983,425.2599648,425.260024,None,,,,,,,,,,,,,,,,,00013,001,2025-11-15_17h25.43.188,MST_task,2024.2.0,59.93209693417467,2025-11-15 17h25.51.343967 +0530,
,Objects\133a.jpg,47,0,48,,,,,,,j,1.7750116999999364,0.14381360000004406,None,,,,,,48,0,47,425.27586620000005,,,,,,,,,,,,,,,,,,,,,,,425.26036159999995,425.27586620000005,425.7603069,,,,,,,,,,,,,,425.77913110000003,,,,,,,,,,,,,425.7766409,425.77913110000003,425.77913110000003,425.77913110000003,428.776494,j,1.7750116999999364,0.14381360000004406,428.77670400000005,428.776774,None,,,,,,,,,,,,,,,,,00013,001,2025-11-15_17h25.43.188,MST_task,2024.2.0,59.93209693417467,2025-11-15 17h25.51.343967 +0530,
,Objects\027a.jpg,48,0,49,,,,,,,f,0.9218094999999948,0.12000230000001011,None,,,,,,49,0,48,428.792536,,,,,,,,,,,,,,,,,,,,,,,428.77707890000005,428.792536,429.2771605,,,,,,,,,,,,,,429.29608149999996,,,,,,,,,,,,,429.29348369999997,429.29608149999996,429.29608149999996,429.29608149999996,432.29325190000003,f,0.9218094999999948,0.12000230000001011,432.29348310000006,432.29354040000004,None,,,,,,,,,,,,,,,,,00013,001,2025-11-15_17h25.43.188,MST_task,2024.2.0,59.93209693417467,2025-11-15 17h25.51.343967 +0530,
,Scenes\136a.jpg,49,0,50,,,,,,,f,2.8143927999999505,0.1444566999999779,None,,,,,,50,0,49,432.30921770000003,,,,,,,,,,,,,,,,,,,,,,,432.293845,432.30921770000003,432.7937274,,,,,,,,,,,,,,432.8194798,,,,,,,,,,,,,432.81639679999995,432.8194798,432.8194798,432.8194798,435.80971300000004,f,2.8143927999999505,0.1444566999999779,435.80996180000005,435.8100208,None,,,,,,,,,,,,,,,,,00013,001,2025-11-15_17h25.43.188,MST_task,2024.2.0,59.93209693417467,2025-11-15 17h25.51.343967 +0530,
,Scenes\015a.jpg,50,0,51,,,,,,,None,,,j,1.1552805000000035,None,,,,51,0,50,435.82594580000006,,,,,,,,,,,,,,,,,,,,,,,435.81043200000005,435.82594580000006,436.31034189999997,,,,,,,,,,,,,,436.33990509999995,,,,,,,,,,,,,436.33649610000003,436.33990509999995,436.33990509999995,436.33990509999995,439.32657420000004,None,,,439.32679779999995,440.51108500000004,j,,,,439.3426014,439.3426014,1.1552805000000035,None,,,,,,,,,,00013,001,2025-11-15_17h25.43.188,MST_task,2024.2.0,59.93209693417467,2025-11-15 17h25.51.343967 +0530,
,Scenes\124a.jpg,51,0,52,,,,,,,f,1.3899324000000206,0.1691008000000238,None,,,,,,52,0,51,440.5258398,,,,,,,,,,,,,,,,,,,,,,,440.5115064,440.5258398,441.0104886,,,,,,,,,,,,,,441.03596439999995,,,,,,,,,,,,,441.0325611,441.03596439999995,441.03596439999995,441.03596439999995,444.0265341,f,1.3899324000000206,0.1691008000000238,444.0267419,444.02680260000005,None,,,,,,,,,,,,,,,,,00013,001,2025-11-15_17h25.43.188,MST_task,2024.2.0,59.93209693417467,2025-11-15 17h25.51.343967 +0530,
,Scenes\010a.jpg,52,0,53,,,,,,,j,1.1415938000000097,0.13534960000004048,None,,,,,,53,0,52,444.04260259999995,,,,,,,,,,,,,,,,,,,,,,,444.0271929,444.04260259999995,444.5272316,,,,,,,,,,,,,,444.5567408,,,,,,,,,,,,,444.55343799999997,444.5567408,444.5567408,444.5567408,447.5433429,j,1.1415938000000097,0.13534960000004048,447.54356880000006,447.5436272,None,,,,,,,,,,,,,,,,,00013,001,2025-11-15_17h25.43.188,MST_task,2024.2.0,59.93209693417467,2025-11-15 17h25.51.343967 +0530,
,Scenes\114a.jpg,53,0,54,,,,,,,f,0.8066956999999775,0.15167959999996583,None,,,,,,54,0,53,447.55934099999996,,,,,,,,,,,,,,,,,,,,,,,447.544006,447.55934099999996,448.0427507,,,,,,,,,,,,,,448.0677033,,,,,,,,,,,,,448.0644491,448.0677033,448.0677033,448.0677033,451.05998089999997,f,0.8066956999999775,0.15167959999996583,451.06021919999995,451.060278,None,,,,,,,,,,,,,,,,,00013,001,2025-11-15_17h25.43.188,MST_task,2024.2.0,59.93209693417467,2025-11-15 17h25.51.343967 +0530,
,Scenes\036a.jpg,54,0,55,,,,,,,j,1.3065023000000338,0.15231969999990724,None,,,,,,55,0,54,451.07607479999996,,,,,,,,,,,,,,,,,,,,,,,451.0606906,451.07607479999996,451.5602912,,,,,,,,,,,,,,451.58350220000005,,,,,,,,,,,,,451.58023099999997,451.58350220000005,451.58350220000005,451.58350220000005,454.57666050000006,j,1.3065023000000338,0.15231969999990724,454.57702520000004,454.57710019999996,None,,,,,,,,,,,,,,,,,00013,001,2025-11-15_17h25.43.188,MST_task,2024.2.0,59.93209693417467,2025-11-15 17h25.51.343967 +0530,
,Scenes\098a.jpg,55,0,56,,,,,,,f,1.6831162999999378,0.15930900000000747,None,,,,,,56,0,55,454.5927512,,,,,,,,,,,,,,,,,,,,,,,454.5774042,454.5927512,455.0773817,,,,,,,,,,,,,,455.10331320000006,,,,,,,,,,,,,455.09995569999995,455.10331320000006,455.10331320000006,455.10331320000006,458.0932333,f,1.6831162999999378,0.15930900000000747,458.0934372,458.093497,None,,,,,,,,,,,,,,,,,00013,001,2025-11-15_17h25.43.188,MST_task,2024.2.0,59.93209693417467,2025-11-15 17h25.51.343967 +0530,
,Objects\005a.jpg,56,0,57,,,,,,,None,,,f,1.9920989999999392,None,,,,57,0,56,458.1092487,,,,,,,,,,,,,,,,,,,,,,,458.09379529999995,458.1092487,458.59378350000003,,,,,,,,,,,,,,458.61186189999995,,,,,,,,,,,,,458.60860670000005,458.61186189999995,458.61186189999995,458.61186189999995,461.60978719999997,None,,,461.61000370000005,463.6278213,f,,,,461.62610190000004,461.62610190000004,1.9920989999999392,None,,,,,,,,,,00013,001,2025-11-15_17h25.43.188,MST_task,2024.2.0,59.93209693417467,2025-11-15 17h25.51.343967 +0530,
,Objects\137a.jpg,57,0,58,,,,,,,f,2.1824927000000116,0.15157810000005156,None,,,,,,58,0,57,463.64267950000004,,,,,,,,,,,,,,,,,,,,,,,463.6282551,463.64267950000004,464.1269325,,,,,,,,,,,,,,464.14782699999995,,,,,,,,,,,,,464.14520139999996,464.14782699999995,464.14782699999995,464.14782699999995,467.14326009999996,f,2.1824927000000116,0.15157810000005156,467.14348049999995,467.14354069999996,None,,,,,,,,,,,,,,,,,00013,001,2025-11-15_17h25.43.188,MST_task,2024.2.0,59.93209693417467,2025-11-15 17h25.51.343967 +0530,
,Objects\120a.jpg,58,0,59,,,,,,,f,1.1928765999999769,0.15990039999996952,None,,,,,,59,0,58,467.1592784,,,,,,,,,,,,,,,,,,,,,,,467.1439612,467.1592784,467.64364800000004,,,,,,,,,,,,,,467.6647638,,,,,,,,,,,,,467.66210199999995,467.6647638,467.6647638,467.6647638,470.6598071,f,1.1928765999999769,0.15990039999996952,470.6600729,470.6601348,None,,,,,,,,,,,,,,,,,00013,001,2025-11-15_17h25.43.188,MST_task,2024.2.0,59.93209693417467,2025-11-15 17h25.51.343967 +0530,
,Objects\122a.jpg,59,0,60,,,,,,,f,2.788924599999973,0.15238290000002053,None,,,,,,60,0,59,470.67600699999997,,,,,,,,,,,,,,,,,,,,,,,470.66043900000005,470.67600699999997,471.1604442,,,,,,,,,,,,,,471.1809411,,,,,,,,,,,,,471.1781511,471.1809411,471.1809411,471.1809411,474.17652730000003,f,2.788924599999973,0.15238290000002053,474.1767606,474.17681910000005,None,,,,,,,,,,,,,,,,,00013,001,2025-11-15_17h25.43.188,MST_task,2024.2.0,59.93209693417467,2025-11-15 17h25.51.343967 +0530,
,Objects\057a.jpg,60,0,61,,,,,,,f,1.201281300000005,0.16768500000000586,None,,,,,,61,0,60,474.19267859999997,,,,,,,,,,,,,,,,,,,,,,,474.17715649999997,474.19267859999997,474.67675879999996,,,,,,,,,,,,,,474.6972686,,,,,,,,,,,,,474.6948249,474.6972686,474.6972686,474.6972686,477.6932649,f,1.201281300000005,0.16768500000000586,477.69347880000004,477.6935372,None,,,,,,,,,,,,,,,,,00013,001,2025-11-15_17h25.43.188,MST_task,2024.2.0,59.93209693417467,2025-11-15 17h25.51.343967 +0530,
,Objects\020a.jpg,61,0,62,,,,,,,f,2.7570177999999714,0.16021869999997307,None,,,,,,62,0,61,477.7092459,,,,,,,,,,,,,,,,,,,,,,,477.69382879999995,477.7092459,478.19380730000006,,,,,,,,,,,,,,478.2126708,,,,,,,,,,,,,478.21021950000005,478.2126708,478.2126708,478.2126708,481.20984960000004,f,2.7570177999999714,0.16021869999997307,481.2100704,481.2101277,None,,,,,,,,,,,,,,,,,00013,001,2025-11-15_17h25.43.188,MST_task,2024.2.0,59.93209693417467,2025-11-15 17h25.51.343967 +0530,
,Objects\163a.jpg,62,0,63,,,,,,,None,,,j,0.01259000000004562,None,,,,63,0,62,481.2259975,,,,,,,,,,,,,,,,,,,,,,,481.21050529999997,481.2259975,481.71047690000006,,,,,,,,,,,,,,481.72866389999996,,,,,,,,,,,,,481.7260386,481.72866389999996,481.72866389999996,481.72866389999996,484.72660160000004,None,,,484.7268118,484.7604809,j,,,,484.74252989999997,484.74252989999997,0.01259000000004562,None,,,,,,,,,,00013,001,2025-11-15_17h25.43.188,MST_task,2024.2.0,59.93209693417467,2025-11-15 17h25.51.343967 +0530,
,Scenes\164a.jpg,63,0,64,,,,,,,j,1.1408474999999498,0.1435122999999976,None,,,,,,64,0,63,484.77593570000005,,,,,,,,,,,,,,,,,,,,,,,484.76076800000004,484.77593570000005,485.2602698,,,,,,,,,,,,,,485.2859351,,,,,,,,,,,,,485.28268929999996,485.2859351,485.2859351,485.2859351,488.2766085,j,1.1408474999999498,0.1435122999999976,488.2768402,488.27690120000005,None,,,,,,,,,,,,,,,,,00013,001,2025-11-15_17h25.43.188,MST_task,2024.2.0,59.93209693417467,2025-11-15 17h25.51.343967 +0530,
,Scenes\143a.jpg,64,0,65,,,,,,,j,0.9638473999999633,0.17537640000000465,None,,,,,,65,0,64,488.2925277,,,,,,,,,,,,,,,,,,,,,,,488.2772683,488.2925277,488.77702089999997,,,,,,,,,,,,,,488.80665990000006,,,,,,,,,,,,,488.8032983,488.80665990000006,488.80665990000006,488.80665990000006,491.79293279999996,j,0.9638473999999633,0.17537640000000465,491.79307090000003,491.79310819999995,None,,,,,,,,,,,,,,,,,00013,001,2025-11-15_17h25.43.188,MST_task,2024.2.0,59.93209693417467,2025-11-15 17h25.51.343967 +0530,
,Scenes\091a.jpg,65,0,66,,,,,,,j,1.035173699999973,0.15201139999999214,None,,,,,,66,0,65,491.80896620000004,,,,,,,,,,,,,,,,,,,,,,,491.7933371,491.80896620000004,492.2934852,,,,,,,,,,,,,,492.31853759999996,,,,,,,,,,,,,492.3152406,492.31853759999996,492.31853759999996,492.31853759999996,495.29340429999996,j,1.035173699999973,0.15201139999999214,495.29361939999995,495.2936795,None,,,,,,,,,,,,,,,,,00013,001,2025-11-15_17h25.43.188,MST_task,2024.2.0,59.93209693417467,2025-11-15 17h25.51.343967 +0530,
,Scenes\068a.jpg,66,0,67,,,,,,,j,0.9173118999999588,0.16827410000007603,None,,,,,,67,0,66,495.30925670000005,,,,,,,,,,,,,,,,,,,,,,,495.2943293,495.30925670000005,495.7937907,,,,,,,,,,,,,,495.82029530000005,,,,,,,,,,,,,495.81705489999996,495.82029530000005,495.82029530000005,495.82029530000005,498.8098014,j,0.9173118999999588,0.16827410000007603,498.8100013,498.81005980000003,None,,,,,,,,,,,,,,,,,00013,001,2025-11-15_17h25.43.188,MST_task,2024.2.0,59.93209693417467,2025-11-15 17h25.51.343967 +0530,
,Scenes\181a.jpg,67,0,68,,,,,,,None,,,f,1.051482799999917,None,,,,68,0,67,498.8260929,,,,,,,,,,,,,,,,,,,,,,,498.81040620000005,498.8260929,499.31037540000005,,,,,,,,,,,,,,499.33887080000005,,,,,,,,,,,,,499.3354234,499.33887080000005,499.33887080000005,499.33887080000005,502.3264856,None,,,502.32666850000004,503.4106112,f,,,,502.34252469999996,502.34252469999996,1.051482799999917,None,,,,,,,,,,00013,001,2025-11-15_17h25.43.188,MST_task,2024.2.0,59.93209693417467,2025-11-15 17h25.51.343967 +0530,
,Scenes\041a.jpg,68,0,69,,,,,,,None,,,j,0.5230552000000444,None,,,,69,0,68,503.42582450000003,,,,,,,,,,,,,,,,,,,,,,,503.41100880000005,503.42582450000003,503.91022089999996,,,,,,,,,,,,,,503.93771710000004,,,,,,,,,,,,,503.93442280000005,503.93771710000004,503.93771710000004,503.93771710000004,506.92669970000003,None,,,506.9269241,507.47755020000005,j,,,,506.94266469999997,506.94266469999997,0.5230552000000444,None,,,,,,,,,,00013,001,2025-11-15_17h25.43.188,MST_task,2024.2.0,59.93209693417467,2025-11-15 17h25.51.343967 +0530,
,Scenes\192a.jpg,69,0,70,,,,,,,j,2.2499277000000575,0.1200259999999389,None,,,,,,70,0,69,507.4925318,,,,,,,,,,,,,,,,,,,,,,,507.47796150000005,507.4925318,507.97718619999995,,,,,,,,,,,,,,508.00009900000003,,,,,,,,,,,,,507.9968575,508.00009900000003,508.00009900000003,508.00009900000003,510.9931247,j,2.2499277000000575,0.1200259999999389,510.9933604,510.9934218,None,,,,,,,,,,,,,,,,,00013,001,2025-11-15_17h25.43.188,MST_task,2024.2.0,59.93209693417467,2025-11-15 17h25.51.343967 +0530,
,Objects\158a.jpg,70,0,71,,,,,,,f,1.0666144999999574,0.15239420000011705,None,,,,,,71,0,70,511.0090532,,,,,,,,,,,,,,,,,,,,,,,510.9937276,511.0090532,511.4931853,,,,,,,,,,,,,,511.5112505,,,,,,,,,,,,,511.50817809999995,511.5112505,511.5112505,511.5112505,514.5095788000001,f,1.0666144999999574,0.15239420000011705,514.5098052000001,514.5098668999999,None,,,,,,,,,,,,,,,,,00013,001,2025-11-15_17h25.43.188,MST_task,2024.2.0,59.93209693417467,2025-11-15 17h25.51.343967 +0530,
,Objects\081a.jpg,71,0,72,,,,,,,j,1.7337999999999738,0.08738960000005136,None,,,,,,72,0,71,514.5259327000001,,,,,,,,,,,,,,,,,,,,,,,514.5102704999999,514.5259327000001,515.0102079999999,,,,,,,,,,,,,,515.0284704000001,,,,,,,,,,,,,515.0259292000001,515.0284704000001,515.0284704000001,515.0284704000001,518.0265227,j,1.7337999999999738,0.08738960000005136,518.0267422,518.0268020000001,None,,,,,,,,,,,,,,,,,00013,001,2025-11-15_17h25.43.188,MST_task,2024.2.0,59.93209693417467,2025-11-15 17h25.51.343967 +0530,
,Objects\044a.jpg,72,0,73,,,,,,,f,2.0126667000001817,0.14398519999986092,None,,,,,,73,0,72,518.0427556,,,,,,,,,,,,,,,,,,,,,,,518.0271163,518.0427556,518.5269103,,,,,,,,,,,,,,518.549465,,,,,,,,,,,,,518.5468917999999,518.549465,518.549465,518.549465,521.5433233000001,f,2.0126667000001817,0.14398519999986092,521.5435381,521.5435981999999,None,,,,,,,,,,,,,,,,,00013,001,2025-11-15_17h25.43.188,MST_task,2024.2.0,59.93209693417467,2025-11-15 17h25.51.343967 +0530,
,Objects\121a.jpg,73,0,74,,,,,,,f,1.770922100000007,0.19283810000001722,None,,,,,,74,0,73,521.5589964999999,,,,,,,,,,,,,,,,,,,,,,,521.5439091000001,521.5589964999999,522.0439231,,,,,,,,,,,,,,522.0634809000001,,,,,,,,,,,,,522.0609108000001,522.0634809000001,522.0634809000001,522.0634809000001,525.0597709000001,f,1.770922100000007,0.19283810000001722,525.0601243000001,525.0602011999999,None,,,,,,,,,,,,,,,,,00013,001,2025-11-15_17h25.43.188,MST_task,2024.2.0,59.93209693417467,2025-11-15 17h25.51.343967 +0530,
,Objects\061a.jpg,74,0,75,,,,,,,j,2.4464640999999574,0.15148230000022522,None,,,,,,75,0,74,525.0757931,,,,,,,,,,,,,,,,,,,,,,,525.0605115999999,525.0757931,525.5603732,,,,,,,,,,,,,,525.5799906,,,,,,,,,,,,,525.5773478000001,525.5799906,525.5799906,525.5799906,528.5766071999999,j,2.4464640999999574,0.15148230000022522,528.5768613,528.5769238,None,,,,,,,,,,,,,,,,,00013,001,2025-11-15_17h25.43.188,MST_task,2024.2.0,59.93209693417467,2025-11-15 17h25.51.343967 +0530,
,Objects\070a.jpg,75,0,76,,,,,,,f,1.165420499999982,0.17610199999990073,None,,,,,,76,0,75,528.5924931,,,,,,,,,,,,,,,,,,,,,,,528.5772869,528.5924931,529.0758394,,,,,,,,,,,,,,529.0926199,,,,,,,,,,,,,529.0852559,529.0926199,529.0926199,529.0926199,532.0777828,f,1.165420499999982,0.17610199999990073,532.0779878000001,532.0780317000001,None,532.0925637,532.0925637,532.0925637,,,,,,,,,,,,,,00013,001,2025-11-15_17h25.43.188,MST_task,2024.2.0,59.93209693417467,2025-11-15 17h25.51.343967 +0530,
,Objects\155a.jpg,76,0,77,,,,,,,f,1.0146976999999424,0.18466560000001664,None,,,,,,77,0,76,532.0925637,,,,,,,,,,,,,,,,,,,,,,,532.0782644000001,532.0925637,532.5771391999999,,,,,,,,,,,,,,532.5951204999999,,,,,,,,,,,,,532.5925603000001,532.5951204999999,532.5951204999999,532.5951204999999,535.5930821,f,1.0146976999999424,0.18466560000001664,535.5933118,535.5933728,None,,,,,,,,,,,,,,,,,00013,001,2025-11-15_17h25.43.188,MST_task,2024.2.0,59.93209693417467,2025-11-15 17h25.51.343967 +0530,
,Scenes\100a.jpg,77,0,78,,,,,,,f,2.106207900000072,0.1455525999999736,None,,,,,,78,0,77,535.6092153,,,,,,,,,,,,,,,,,,,,,,,535.5937463,535.6092153,536.0936992,,,,,,,,,,,,,,536.119633,,,,,,,,,,,,,536.1165741,536.119633,536.119633,536.119633,539.1101658999999,f,2.106207900000072,0.1455525999999736,539.1104124999999,539.1104733,None,,,,,,,,,,,,,,,,,00013,001,2025-11-15_17h25.43.188,MST_task,2024.2.0,59.93209693417467,2025-11-15 17h25.51.343967 +0530,
,Scenes\022a.jpg,78,0,79,,,,,,,None,,,j,0.8155656999999792,None,,,,79,0,78,539.1259742,,,,,,,,,,,,,,,,,,,,,,,539.1108992,539.1259742,539.6099689,,,,,,,,,,,,,,539.6327687,,,,,,,,,,,,,539.6295436999999,539.6327687,539.6327687,539.6327687,542.6264621999999,None,,,542.6266556,543.4615199999998,j,,,,542.6426259,542.6426259,0.8155656999999792,None,,,,,,,,,,00013,001,2025-11-15_17h25.43.188,MST_task,2024.2.0,59.93209693417467,2025-11-15 17h25.51.343967 +0530,
,Scenes\066a.jpg,79,0,80,,,,,,,j,1.182051300000012,0.12776140000005398,None,,,,,,80,0,79,543.4757987,,,,,,,,,,,,,,,,,,,,,,,543.4620517999999,543.4757987,543.9598853999998,,,,,,,,,,,,,,543.9802485,,,,,,,,,,,,,543.9772074999998,543.9802485,543.9802485,543.9802485,546.9767144,j,1.182051300000012,0.12776140000005398,546.9769162,546.9769721999999,None,,,,,,,,,,,,,,,,,00013,001,2025-11-15_17h25.43.188,MST_task,2024.2.0,59.93209693417467,2025-11-15 17h25.51.343967 +0530,
,Scenes\119a.jpg,80,0,81,,,,,,,None,,,j,1.0851162999999815,None,,,,81,0,80,546.9925146,,,,,,,,,,,,,,,,,,,,,,,546.9773075999999,546.9925146,547.4772564,,,,,,,,,,,,,,547.5063542999999,,,,,,,,,,,,,547.5030448,547.5063542999999,547.5063542999999,547.5063542999999,550.4931927999999,None,,,550.4933735,551.6104736,j,,,,550.5090298,550.5090298,1.0851162999999815,None,,,,,,,,,,00013,001,2025-11-15_17h25.43.188,MST_task,2024.2.0,59.93209693417467,2025-11-15 17h25.51.343967 +0530,
,Scenes\166a.jpg,81,0,82,,,,,,,j,0.990513799999917,0.1270206000001508,None,,,,,,82,0,81,551.6257541,,,,,,,,,,,,,,,,,,,,,,,551.6108385,551.6257541,552.1103727,,,,,,,,,,,,,,552.1318999999999,,,,,,,,,,,,,552.1287857,552.1318999999999,552.1318999999999,552.1318999999999,555.1265879999999,j,0.990513799999917,0.1270206000001508,555.1268092999999,555.1268680999999,None,,,,,,,,,,,,,,,,,00013,001,2025-11-15_17h25.43.188,MST_task,2024.2.0,59.93209693417467,2025-11-15 17h25.51.343967 +0530,
,Scenes\174a.jpg,82,0,83,,,,,,,j,2.8152807999999823,0.144052899999906,None,,,,,,83,0,82,555.1424924999999,,,,,,,,,,,,,,,,,,,,,,,555.1271678,555.1424924999999,555.6266544,,,,,,,,,,,,,,555.6587832999999,,,,,,,,,,,,,555.6554203000001,555.6587832999999,555.6587832999999,555.6587832999999,558.6430582,j,2.8152807999999823,0.144052899999906,558.6432424,558.6432947999999,None,,,,,,,,,,,,,,,,,00013,001,2025-11-15_17h25.43.188,MST_task,2024.2.0,59.93209693417467,2025-11-15 17h25.51.343967 +0530,
,Scenes\001a.jpg,83,0,84,,,,,,,f,2.5359713999998803,0.15999730000021373,None,,,,,,84,0,83,558.6590808999999,,,,,,,,,,,,,,,,,,,,,,,558.6435678,558.6590808999999,559.1437518999999,,,,,,,,,,,,,,559.1705413,,,,,,,,,,,,,559.1672762999999,559.1705413,559.1705413,559.1705413,562.1594981999999,f,2.5359713999998803,0.15999730000021373,562.1596783999998,562.1597282,None,,,,,,,,,,,,,,,,,00013,001,2025-11-15_17h25.43.188,MST_task,2024.2.0,59.93209693417467,2025-11-15 17h25.51.343967 +0530,
,Objects\152a.jpg,84,0,85,,,,,,,f,2.7520776999999725,0.1596641000001,None,,,,,,85,0,84,562.1758633,,,,,,,,,,,,,,,,,,,,,,,562.1600403999998,562.1758633,562.6602125,,,,,,,,,,,,,,562.6821041999999,,,,,,,,,,,,,562.678545,562.6821041999999,562.6821041999999,562.6821041999999,565.6765120999999,f,2.7520776999999725,0.1596641000001,565.6768818999999,565.6769600999999,None,,,,,,,,,,,,,,,,,00013,001,2025-11-15_17h25.43.188,MST_task,2024.2.0,59.93209693417467,2025-11-15 17h25.51.343967 +0530,
,Objects\164a.jpg,85,0,86,,,,,,,f,1.478563099999974,0.15211309999995137,None,,,,,,86,0,85,565.6925968999999,,,,,,,,,,,,,,,,,,,,,,,565.6773536999999,565.6925968999999,566.1772633,,,,,,,,,,,,,,566.1957717,,,,,,,,,,,,,566.1929620999999,566.1957717,566.1957717,566.1957717,569.1930471000001,f,1.478563099999974,0.15211309999995137,569.1932522,569.1933139,None,,,,,,,,,,,,,,,,,00013,001,2025-11-15_17h25.43.188,MST_task,2024.2.0,59.93209693417467,2025-11-15 17h25.51.343967 +0530,
,Objects\041a.jpg,86,0,87,,,,,,,j,1.5441061999999874,0.1528757000000951,None,,,,,,87,0,86,569.2089850999998,,,,,,,,,,,,,,,,,,,,,,,569.1937419999999,569.2089850999998,569.6933948999999,,,,,,,,,,,,,,569.7141849,,,,,,,,,,,,,569.711481,569.7141849,569.7141849,569.7141849,572.7097369,j,1.5441061999999874,0.1528757000000951,572.7099673999999,572.7100261999999,None,,,,,,,,,,,,,,,,,00013,001,2025-11-15_17h25.43.188,MST_task,2024.2.0,59.93209693417467,2025-11-15 17h25.51.343967 +0530,
,Objects\143a.jpg,87,0,88,,,,,,,j,2.8823938000000453,None,None,,,,,,88,0,87,572.7257975999999,,,,,,,,,,,,,,,,,,,,,,,572.7103989,572.7257975999999,573.2102929,,,,,,,,,,,,,,573.2321075,,,,,,,,,,,,,573.2295319,573.2321075,573.2321075,573.2321075,576.2265439999999,j,2.8823938000000453,None,576.2267592999999,576.2268185,None,,,,,,,,,,,,,,,,,00013,001,2025-11-15_17h25.43.188,MST_task,2024.2.0,59.93209693417467,2025-11-15 17h25.51.343967 +0530,
,Objects\019a.jpg,88,0,89,,,,,,,f,1.55002659999991,0.13610130000006393,None,,,,,,89,0,88,576.2426760999999,,,,,,,,,,,,,,,,,,,,,,,576.2271252,576.2426760999999,576.7268666999998,,,,,,,,,,,,,,576.7474657999999,,,,,,,,,,,,,576.7448582,576.7474657999999,576.7474657999999,576.7474657999999,579.7432443,f,1.55002659999991,0.13610130000006393,579.7434636,579.7435232999999,None,,,,,,,,,,,,,,,,,00013,001,2025-11-15_17h25.43.188,MST_task,2024.2.0,59.93209693417467,2025-11-15 17h25.51.343967 +0530,
,Objects\033a.jpg,89,0,90,,,,,,,None,,,f,0.3904789000000619,None,,,,90,0,89,579.7590031,,,,,,,,,,,,,,,,,,,,,,,579.7438221,579.7590031,580.2440124,,,,,,,,,,,,,,580.2624197,,,,,,,,,,,,,580.2596750999999,580.2624197,580.2624197,580.2624197,583.2597822,None,,,583.2599805,583.6781715,f,,,,583.2758211999999,583.2758211999999,0.3904789000000619,None,,,,,,,,,,00013,001,2025-11-15_17h25.43.188,MST_task,2024.2.0,59.93209693417467,2025-11-15 17h25.51.343967 +0530,
,Objects\043a.jpg,90,0,91,,,,,,,j,2.7382445999999163,0.13607170000000224,None,,,,,,91,0,90,583.6925176,,,,,,,,,,,,,,,,,,,,,,,583.6785502,583.6925176,584.1770145,,,,,,,,,,,,,,584.1999374,,,,,,,,,,,,,584.1972175999999,584.1999374,584.1999374,584.1999374,587.1932686,j,2.7382445999999163,0.13607170000000224,587.1934818,587.1935394,None,,,,,,,,,,,,,,,,,00013,001,2025-11-15_17h25.43.188,MST_task,2024.2.0,59.93209693417467,2025-11-15 17h25.51.343967 +0530,
,Scenes\038a.jpg,91,0,92,,,,,,,j,1.0019555999999739,0.1439189999998689,None,,,,,,92,0,91,587.2090750999998,,,,,,,,,,,,,,,,,,,,,,,587.1938186999998,587.2090750999998,587.6938855999999,,,,,,,,,,,,,,587.7197022999999,,,,,,,,,,,,,587.7165061000001,587.7197022999999,587.7197022999999,587.7197022999999,590.709693,j,1.0019555999999739,0.1439189999998689,590.7099094,590.7099676999999,None,,,,,,,,,,,,,,,,,00013,001,2025-11-15_17h25.43.188,MST_task,2024.2.0,59.93209693417467,2025-11-15 17h25.51.343967 +0530,
,Scenes\137a.jpg,92,0,93,,,,,,,j,0.799150999999938,0.13633379999987483,None,,,,,,93,0,92,590.7258273,,,,,,,,,,,,,,,,,,,,,,,590.7103428,590.7258273,591.2102884999999,,,,,,,,,,,,,,591.2346556,,,,,,,,,,,,,591.2311726999999,591.2346556,591.2346556,591.2346556,594.2265428999999,j,0.799150999999938,0.13633379999987483,594.2267574,594.2268134999999,None,,,,,,,,,,,,,,,,,00013,001,2025-11-15_17h25.43.188,MST_task,2024.2.0,59.93209693417467,2025-11-15 17h25.51.343967 +0530,
,Scenes\156a.jpg,93,0,94,,,,,,,j,0.9945746999999301,0.16071599999986574,None,,,,,,94,0,93,594.2424934000001,,,,,,,,,,,,,,,,,,,,,,,594.2272175999999,594.2424934000001,594.7270045999999,,,,,,,,,,,,,,594.7511520999999,,,,,,,,,,,,,594.7479361999999,594.7511520999999,594.7511520999999,594.7511520999999,597.7432575999999,j,0.9945746999999301,0.16071599999986574,597.7434544999999,597.7435078999999,None,,,,,,,,,,,,,,,,,00013,001,2025-11-15_17h25.43.188,MST_task,2024.2.0,59.93209693417467,2025-11-15 17h25.51.343967 +0530,
,Scenes\146a.jpg,94,0,95,,,,,,,j,1.4502764000001207,0.1524107999998705,None,,,,,,95,0,94,597.7589499999999,,,,,,,,,,,,,,,,,,,,,,,597.7438522999998,597.7589499999999,598.2435055999999,,,,,,,,,,,,,,598.2714572,,,,,,,,,,,,,598.2682238,598.2714572,598.2714572,598.2714572,601.2595833,j,1.4502764000001207,0.1524107999998705,601.2597862,601.2598427,None,,,,,,,,,,,,,,,,,00013,001,2025-11-15_17h25.43.188,MST_task,2024.2.0,59.93209693417467,2025-11-15 17h25.51.343967 +0530,
,Scenes\171a.jpg,95,0,96,,,,,,,j,2.316218600000184,0.15233859999989363,None,,,,,,96,0,95,601.2758348,,,,,,,,,,,,,,,,,,,,,,,601.2602345,601.2758348,601.7599155,,,,,,,,,,,,,,601.7892835,,,,,,,,,,,,,601.7859644,601.7892835,601.7892835,601.7892835,604.7764669000001,j,2.316218600000184,0.15233859999989363,604.7767792,604.7768409999999,None,,,,,,,,,,,,,,,,,00013,001,2025-11-15_17h25.43.188,MST_task,2024.2.0,59.93209693417467,2025-11-15 17h25.51.343967 +0530,
,Scenes\042a.jpg,96,0,97,,,,,,,j,2.810792900000024,0.14342920000012782,None,,,,,,97,0,96,604.7924618,,,,,,,,,,,,,,,,,,,,,,,604.7772255999998,604.7924618,605.2771155999999,,,,,,,,,,,,,,605.3038508,,,,,,,,,,,,,605.3002715999999,605.3038508,605.3038508,605.3038508,608.2931684,j,2.810792900000024,0.14342920000012782,608.2933708999999,608.2934286,None,,,,,,,,,,,,,,,,,00013,001,2025-11-15_17h25.43.188,MST_task,2024.2.0,59.93209693417467,2025-11-15 17h25.51.343967 +0530,
,Scenes\176a.jpg,97,0,98,,,,,,,j,1.1808198999999604,0.12015199999996184,None,,,,,,98,0,97,608.3090379999999,,,,,,,,,,,,,,,,,,,,,,,608.2937304,608.3090379999999,608.7936287999999,,,,,,,,,,,,,,608.8206521,,,,,,,,,,,,,608.8172145999999,608.8206521,608.8206521,608.8206521,611.8097713,j,1.1808198999999604,0.12015199999996184,611.80998,611.8100402,None,,,,,,,,,,,,,,,,,00013,001,2025-11-15_17h25.43.188,MST_task,2024.2.0,59.93209693417467,2025-11-15 17h25.51.343967 +0530,
,Objects\116a.jpg,98,0,99,,,,,,,f,1.614071499999909,0.17647680000004584,None,,,,,,99,0,98,611.8258022,,,,,,,,,,,,,,,,,,,,,,,611.8103440999998,611.8258022,612.3100376,,,,,,,,,,,,,,612.3314885,,,,,,,,,,,,,612.3283059,612.3314885,612.3314885,612.3314885,615.3267205,f,1.614071499999909,0.17647680000004584,615.3269590999998,615.3270212,None,,,,,,,,,,,,,,,,,00013,001,2025-11-15_17h25.43.188,MST_task,2024.2.0,59.93209693417467,2025-11-15 17h25.51.343967 +0530,
,Objects\040a.jpg,99,0,100,,,,,,,f,1.0230301999999938,0.16841249999993124,None,,,,,,100,0,99,615.3424493999999,,,,,,,,,,,,,,,,,,,,,,,615.3274099999999,615.3424493999999,615.8270281999999,,,,,,,,,,,,,,615.8428504999999,,,,,,,,,,,,,615.8403682999999,615.8428504999999,615.8428504999999,615.8428504999999,618.8278883,f,1.0230301999999938,0.16841249999993124,618.8280984999999,618.8281486999999,None,618.8424493999999,618.8424493999999,618.8424493999999,,,,,,,,,,,,,,00013,001,2025-11-15_17h25.43.188,MST_task,2024.2.0,59.93209693417467,2025-11-15 17h25.51.343967 +0530,
,Objects\177a.jpg,100,0,101,,,,,,,j,1.4792500999999447,0.13513690000013412,None,,,,,,101,0,100,618.8424493999999,,,,,,,,,,,,,,,,,,,,,,,618.8284113,618.8424493999999,619.3268303999998,,,,,,,,,,,,,,619.3473532999999,,,,,,,,,,,,,619.3448590999999,619.3473532999999,619.3473532999999,619.3473532999999,622.3431931999999,j,1.4792500999999447,0.13513690000013412,622.3434101999999,622.3434715999999,None,,,,,,,,,,,,,,,,,00013,001,2025-11-15_17h25.43.188,MST_task,2024.2.0,59.93209693417467,2025-11-15 17h25.51.343967 +0530,
,Objects\124a.jpg,101,0,102,,,,,,,f,2.521852299999864,0.17468159999998534,None,,,,,,102,0,101,622.3589537,,,,,,,,,,,,,,,,,,,,,,,622.3438919999999,622.3589537,622.8439171,,,,,,,,,,,,,,622.8649200999998,,,,,,,,,,,,,622.8623195999999,622.8649200999998,622.8649200999998,622.8649200999998,625.8596307999999,f,2.521852299999864,0.17468159999998534,625.8598466999999,625.8599030999999,None,,,,,,,,,,,,,,,,,00013,001,2025-11-15_17h25.43.188,MST_task,2024.2.0,59.93209693417467,2025-11-15 17h25.51.343967 +0530,
,Objects\014a.jpg,102,0,103,,,,,,,f,1.0945889999998144,0.1523156000000654,None,,,,,,103,0,102,625.8758015999999,,,,,,,,,,,,,,,,,,,,,,,625.8603203,625.8758015999999,626.3601434,,,,,,,,,,,,,,626.3792163999999,,,,,,,,,,,,,626.3765417,626.3792163999999,626.3792163999999,626.3792163999999,629.3763681999999,f,1.0945889999998144,0.1523156000000654,629.3765839,629.3766436999999,None,,,,,,,,,,,,,,,,,00013,001,2025-11-15_17h25.43.188,MST_task,2024.2.0,59.93209693417467,2025-11-15 17h25.51.343967 +0530,
,Objects\067a.jpg,103,0,104,,,,,,,f,2.3297261000000162,0.15268190000006143,None,,,,,,104,0,103,629.3925552999999,,,,,,,,,,,,,,,,,,,,,,,629.3770571999999,629.3925552999999,629.8772305,,,,,,,,,,,,,,629.8960483999999,,,,,,,,,,,,,629.8932382,629.8960483999999,629.8960483999999,629.8960483999999,632.8929295,f,2.3297261000000162,0.15268190000006143,632.8931226,632.8931789999999,None,,,,,,,,,,,,,,,,,00013,001,2025-11-15_17h25.43.188,MST_task,2024.2.0,59.93209693417467,2025-11-15 17h25.51.343967 +0530,
,Objects\084a.jpg,104,0,105,,,,,,,f,2.515468999999939,0.15988640000000487,None,,,,,,105,0,104,632.9089101,,,,,,,,,,,,,,,,,,,,,,,632.8934815,632.9089101,633.3939332999998,,,,,,,,,,,,,,633.4145039,,,,,,,,,,,,,633.411865,633.4145039,633.4145039,633.4145039,636.4096276999999,f,2.515468999999939,0.15988640000000487,636.4098684999999,636.4099286999999,None,,,,,,,,,,,,,,,,,00013,001,2025-11-15_17h25.43.188,MST_task,2024.2.0,59.93209693417467,2025-11-15 17h25.51.343967 +0530,
,Scenes\039a.jpg,105,0,106,,,,,,,j,1.0831164000001081,0.1521317999997791,None,,,,,,106,0,105,636.425767,,,,,,,,,,,,,,,,,,,,,,,636.4103553,636.425767,636.9100031,,,,,,,,,,,,,,636.9350724999999,,,,,,,,,,,,,636.9319045,636.9350724999999,636.9350724999999,636.9350724999999,639.9265258999999,j,1.0831164000001081,0.1521317999997791,639.9267359,639.9267943999998,None,,,,,,,,,,,,,,,,,00013,001,2025-11-15_17h25.43.188,MST_task,2024.2.0,59.93209693417467,2025-11-15 17h25.51.343967 +0530,
,Scenes\053a.jpg,106,0,107,,,,,,,j,0.9161722000001191,0.1593063999998776,None,,,,,,107,0,106,639.9426676999999,,,,,,,,,,,,,,,,,,,,,,,639.9271793,639.9426676999999,640.4268285999999,,,,,,,,,,,,,,640.4470091999999,,,,,,,,,,,,,640.4441035,640.4470091999999,640.4470091999999,640.4470091999999,643.4432343999999,j,0.9161722000001191,0.1593063999998776,643.4434375999999,643.4434959,None,,,,,,,,,,,,,,,,,00013,001,2025-11-15_17h25.43.188,MST_task,2024.2.0,59.93209693417467,2025-11-15 17h25.51.343967 +0530,
,Scenes\058a.jpg,107,0,108,,,,,,,f,2.6965966999998727,0.1527197000000342,None,,,,,,108,0,107,643.4591853,,,,,,,,,,,,,,,,,,,,,,,643.4438772999999,643.4591853,643.9434240999999,,,,,,,,,,,,,,643.9689831000001,,,,,,,,,,,,,643.9660122999999,643.9689831000001,643.9689831000001,643.9689831000001,646.959793,f,2.6965966999998727,0.1527197000000342,646.9599986999999,646.9600799999998,None,,,,,,,,,,,,,,,,,00013,001,2025-11-15_17h25.43.188,MST_task,2024.2.0,59.93209693417467,2025-11-15 17h25.51.343967 +0530,
,Scenes\047a.jpg,108,0,109,,,,,,,j,1.1154062999999041,0.13568030000010367,None,,,,,,109,0,108,646.9760461999999,,,,,,,,,,,,,,,,,,,,,,,646.9604293999998,646.9760461999999,647.4598696999999,,,,,,,,,,,,,,647.4943956,,,,,,,,,,,,,647.4910674999999,647.4943956,647.4943956,647.4943956,650.4764699999998,j,1.1154062999999041,0.13568030000010367,650.4767554,650.4768288,None,,,,,,,,,,,,,,,,,00013,001,2025-11-15_17h25.43.188,MST_task,2024.2.0,59.93209693417467,2025-11-15 17h25.51.343967 +0530,
,Scenes\077a.jpg,109,0,110,,,,,,,j,1.208484700000099,0.14389710000000377,None,,,,,,110,0,109,650.4926539999999,,,,,,,,,,,,,,,,,,,,,,,650.4772321999999,650.4926539999999,650.9771556000001,,,,,,,,,,,,,,651.0016389999998,,,,,,,,,,,,,650.9984391999999,651.0016389999998,651.0016389999998,651.0016389999998,653.9931420999999,j,1.208484700000099,0.14389710000000377,653.9933948999999,653.9934553999999,None,,,,,,,,,,,,,,,,,00013,001,2025-11-15_17h25.43.188,MST_task,2024.2.0,59.93209693417467,2025-11-15 17h25.51.343967 +0530,
,Scenes\027a.jpg,110,0,111,,,,,,,None,,,f,1.076459899999918,None,,,,111,0,110,654.0091739,,,,,,,,,,,,,,,,,,,,,,,653.9937537999999,654.0091739,654.4935203,,,,,,,,,,,,,,654.5192946,,,,,,,,,,,,,654.5162478,654.5192946,654.5192946,654.5192946,657.5096569,None,,,657.5098519999999,658.6110868999999,f,,,,657.5257419,657.5257419,1.076459899999918,None,,,,,,,,,,00013,001,2025-11-15_17h25.43.188,MST_task,2024.2.0,59.93209693417467,2025-11-15 17h25.51.343967 +0530,
,Scenes\080a.jpg,111,0,112,,,,,,,j,0.9718184999999266,0.1521632999999838,None,,,,,,112,0,111,658.6256940999999,,,,,,,,,,,,,,,,,,,,,,,658.6114998999999,658.6256940999999,659.1102673,,,,,,,,,,,,,,659.1340640999999,,,,,,,,,,,,,659.1308655999999,659.1340640999999,659.1340640999999,659.1340640999999,662.1264100999999,j,0.9718184999999266,0.1521632999999838,662.1266269999999,662.1266885,None,,,,,,,,,,,,,,,,,00013,001,2025-11-15_17h25.43.188,MST_task,2024.2.0,59.93209693417467,2025-11-15 17h25.51.343967 +0530,
,Objects\006a.jpg,112,0,113,,,,,,,f,2.121405399999958,0.17605170000001635,None,,,,,,113,0,112,662.1424003,,,,,,,,,,,,,,,,,,,,,,,662.1270606,662.1424003,662.6274472999999,,,,,,,,,,,,,,662.6486448999999,,,,,,,,,,,,,662.6453956999999,662.6486448999999,662.6486448999999,662.6486448999999,665.6430051,f,2.121405399999958,0.17605170000001635,665.6432109999998,665.6432683,None,,,,,,,,,,,,,,,,,00013,001,2025-11-15_17h25.43.188,MST_task,2024.2.0,59.93209693417467,2025-11-15 17h25.51.343967 +0530,
,Objects\144a.jpg,113,0,114,,,,,,,f,2.2329844000000776,0.16754869999999755,None,,,,,,114,0,113,665.6589657,,,,,,,,,,,,,,,,,,,,,,,665.6435707999999,665.6589657,666.143736,,,,,,,,,,,,,,666.1609080999999,,,,,,,,,,,,,666.1582727999998,666.1609080999999,666.1609080999999,666.1609080999999,669.1597276,f,2.2329844000000776,0.16754869999999755,669.1599862999999,669.1600478999999,None,,,,,,,,,,,,,,,,,00013,001,2025-11-15_17h25.43.188,MST_task,2024.2.0,59.93209693417467,2025-11-15 17h25.51.343967 +0530,
,Objects\167a.jpg,114,0,115,,,,,,,f,1.8338880999999674,0.15920010000013463,None,,,,,,115,0,114,669.1757003,,,,,,,,,,,,,,,,,,,,,,,669.1604285999999,669.1757003,669.6603568,,,,,,,,,,,,,,669.6808349,,,,,,,,,,,,,669.6781818,669.6808349,669.6808349,669.6808349,672.6764074,f,1.8338880999999674,0.15920010000013463,672.676622,672.6766808,None,,,,,,,,,,,,,,,,,00013,001,2025-11-15_17h25.43.188,MST_task,2024.2.0,59.93209693417467,2025-11-15 17h25.51.343967 +0530,
,Objects\101a.jpg,115,0,116,,,,,,,f,1.5509061000000202,0.1602428000001055,None,,,,,,116,0,115,672.6923841999999,,,,,,,,,,,,,,,,,,,,,,,672.6769810999999,672.6923841999999,673.1770681,,,,,,,,,,,,,,673.1950288,,,,,,,,,,,,,673.1924408999998,673.1950288,673.1950288,673.1950288,676.1931640999999,f,1.5509061000000202,0.1602428000001055,676.1933916999999,676.1934546999998,None,,,,,,,,,,,,,,,,,00013,001,2025-11-15_17h25.43.188,MST_task,2024.2.0,59.93209693417467,2025-11-15 17h25.51.343967 +0530,
,Objects\054a.jpg,116,0,117,,,,,,,f,1.3212550999999166,0.1424905999999737,None,,,,,,117,0,116,676.2089576999999,,,,,,,,,,,,,,,,,,,,,,,676.1937892999999,676.2089576999999,676.6936076,,,,,,,,,,,,,,676.713792,,,,,,,,,,,,,676.7112017,676.713792,676.713792,676.713792,679.7095305,f,1.3212550999999166,0.1424905999999737,679.7097629999998,679.7098206000001,None,,,,,,,,,,,,,,,,,00013,001,2025-11-15_17h25.43.188,MST_task,2024.2.0,59.93209693417467,2025-11-15 17h25.51.343967 +0530,
,Objects\079a.jpg,117,0,118,,,,,,,f,0.9573961000000963,0.16795060000004014,None,,,,,,118,0,117,679.7257703,,,,,,,,,,,,,,,,,,,,,,,679.7102014,679.7257703,680.2100395,,,,,,,,,,,,,,680.2286638999999,,,,,,,,,,,,,680.2262329999999,680.2286638999999,680.2286638999999,680.2286638999999,683.2263625,f,0.9573961000000963,0.16795060000004014,683.2265628,683.2266196,None,,,,,,,,,,,,,,,,,00013,001,2025-11-15_17h25.43.188,MST_task,2024.2.0,59.93209693417467,2025-11-15 17h25.51.343967 +0530,
,Objects\051a.jpg,118,0,119,,,,,,,j,2.6168774000000212,0.14311130000010053,None,,,,,,119,0,118,683.2424409,,,,,,,,,,,,,,,,,,,,,,,683.227005,683.2424409,683.7273928,,,,,,,,,,,,,,683.7456233999999,,,,,,,,,,,,,683.7429771,683.7456233999999,683.7456233999999,683.7456233999999,686.7433827999998,j,2.6168774000000212,0.14311130000010053,686.7436091,686.7436697999999,None,,,,,,,,,,,,,,,,,00013,001,2025-11-15_17h25.43.188,MST_task,2024.2.0,59.93209693417467,2025-11-15 17h25.51.343967 +0530,
,Scenes\020a.jpg,119,0,120,,,,,,,f,2.0267034000000876,0.1512975999999071,None,,,,,,120,0,119,686.7591115,,,,,,,,,,,,,,,,,,,,,,,686.7439758,686.7591115,687.2437720999999,,,,,,,,,,,,,,687.2714558,,,,,,,,,,,,,687.2682276999999,687.2714558,687.2714558,687.2714558,690.2597567999999,f,2.0267034000000876,0.1512975999999071,690.2599516999999,690.2600094,None,,,,,,,,,,,,,,,,,00013,001,2025-11-15_17h25.43.188,MST_task,2024.2.0,59.93209693417467,2025-11-15 17h25.51.343967 +0530,
,Scenes\014a.jpg,120,0,121,,,,,,,f,1.723577299999988,0.16895020000015393,None,,,,,,121,0,120,690.2759013,,,,,,,,,,,,,,,,,,,,,,,690.260393,690.2759013,690.7603543999999,,,,,,,,,,,,,,690.7817966999999,,,,,,,,,,,,,690.7784959999999,690.7817966999999,690.7817966999999,690.7817966999999,693.7767096,f,1.723577299999988,0.16895020000015393,693.7769286999999,693.7769883999999,None,,,,,,,,,,,,,,,,,00013,001,2025-11-15_17h25.43.188,MST_task,2024.2.0,59.93209693417467,2025-11-15 17h25.51.343967 +0530,
,Scenes\165a.jpg,121,0,122,,,,,,,f,1.7036481999998614,0.16760690000000977,None,,,,,,122,0,121,693.7926143,,,,,,,,,,,,,,,,,,,,,,,693.7772940999998,693.7926143,694.2774726999999,,,,,,,,,,,,,,694.3062651999999,,,,,,,,,,,,,694.3029273,694.3062651999999,694.3062651999999,694.3062651999999,697.2931388,f,1.7036481999998614,0.16760690000000977,697.2933498999998,697.2934086999999,None,,,,,,,,,,,,,,,,,00013,001,2025-11-15_17h25.43.188,MST_task,2024.2.0,59.93209693417467,2025-11-15 17h25.51.343967 +0530,
,Scenes\009a.jpg,122,0,123,,,,,,,f,2.7384260999999697,0.1840502000000015,None,,,,,,123,0,122,697.30915,,,,,,,,,,,,,,,,,,,,,,,697.2937152,697.30915,697.7937493,,,,,,,,,,,,,,697.8231203999999,,,,,,,,,,,,,697.8197287,697.8231203999999,697.8231203999999,697.8231203999999,700.8093222999998,f,2.7384260999999697,0.1840502000000015,700.8094107,700.8094317,None,,,,,,,,,,,,,,,,,00013,001,2025-11-15_17h25.43.188,MST_task,2024.2.0,59.93209693417467,2025-11-15 17h25.51.343967 +0530,
,Scenes\083a.jpg,123,0,124,,,,,,,j,1.7439802000001237,0.14411659999996118,None,,,,,,124,0,123,700.8257358999999,,,,,,,,,,,,,,,,,,,,,,,700.8095607,700.8257358999999,701.3102887999999,,,,,,,,,,,,,,701.3376765999999,,,,,,,,,,,,,701.3343410999998,701.3376765999999,701.3376765999999,701.3376765999999,704.3098003999999,j,1.7439802000001237,0.14411659999996118,704.3100247,704.3100855999999,None,,,,,,,,,,,,,,,,,00013,001,2025-11-15_17h25.43.188,MST_task,2024.2.0,59.93209693417467,2025-11-15 17h25.51.343967 +0530,
,Scenes\044a.jpg,124,0,125,,,,,,,None,,,j,0.5673957000001337,None,,,,125,0,124,704.3258509,,,,,,,,,,,,,,,,,,,,,,,704.3104693999999,704.3258509,704.8103394,,,,,,,,,,,,,,704.8316001000001,,,,,,,,,,,,,704.8283538000001,704.8316001000001,704.8316001000001,704.8316001000001,707.8265710000001,None,,,707.8267767999998,708.4278348999999,j,,,,707.8424966999999,707.8424966999999,0.5673957000001337,None,,,,,,,,,,00013,001,2025-11-15_17h25.43.188,MST_task,2024.2.0,59.93209693417467,2025-11-15 17h25.51.343967 +0530,
,Scenes\117a.jpg,125,0,126,,,,,,,j,1.9396908999999596,0.1445310999999947,None,,,,,,126,0,125,708.4425259,,,,,,,,,,,,,,,,,,,,,,,708.4282134999999,708.4425259,708.926911,,,,,,,,,,,,,,708.9498443999998,,,,,,,,,,,,,708.9464696,708.9498443999998,708.9498443999998,708.9498443999998,711.9431341,j,1.9396908999999596,0.1445310999999947,711.9433386000001,711.9433978,None,,,,,,,,,,,,,,,,,00013,001,2025-11-15_17h25.43.188,MST_task,2024.2.0,59.93209693417467,2025-11-15 17h25.51.343967 +0530,
,Objects\106a.jpg,126,0,127,,,,,,,f,0.826323900000034,0.1679501999999502,None,,,,,,127,0,126,711.9589409,,,,,,,,,,,,,,,,,,,,,,,711.9437856,711.9589409,712.4438848,,,,,,,,,,,,,,712.4634140000001,,,,,,,,,,,,,712.4601863,712.4634140000001,712.4634140000001,712.4634140000001,715.4597833,f,0.826323900000034,0.1679501999999502,715.4599824,715.4600366,None,,,,,,,,,,,,,,,,,00013,001,2025-11-15_17h25.43.188,MST_task,2024.2.0,59.93209693417467,2025-11-15 17h25.51.343967 +0530,
,Objects\110a.jpg,127,0,128,,,,,,,f,1.5429007000000183,0.14349650000008296,None,,,,,,128,0,127,715.4756949999999,,,,,,,,,,,,,,,,,,,,,,,715.4603867999999,715.4756949999999,715.9600618,,,,,,,,,,,,,,715.9793894,,,,,,,,,,,,,715.9767471,715.9793894,715.9793894,715.9793894,718.9764052999999,f,1.5429007000000183,0.14349650000008296,718.9766184,718.9766814,None,,,,,,,,,,,,,,,,,00013,001,2025-11-15_17h25.43.188,MST_task,2024.2.0,59.93209693417467,2025-11-15 17h25.51.343967 +0530,
,Objects\010a.jpg,128,0,129,,,,,,,f,1.055146700000023,0.1760005999999521,None,,,,,,129,0,128,718.9924231999998,,,,,,,,,,,,,,,,,,,,,,,718.9769934999999,718.9924231999998,719.4767675999999,,,,,,,,,,,,,,719.4989535,,,,,,,,,,,,,719.4961466,719.4989535,719.4989535,719.4989535,722.4932087,f,1.055146700000023,0.1760005999999521,722.4934289999999,722.4934902999998,None,,,,,,,,,,,,,,,,,00013,001,2025-11-15_17h25.43.188,MST_task,2024.2.0,59.93209693417467,2025-11-15 17h25.51.343967 +0530,
,Objects\172a.jpg,129,0,130,,,,,,,j,2.1331678999999895,0.14411259999997128,None,,,,,,130,0,129,722.5089169999999,,,,,,,,,,,,,,,,,,,,,,,722.4938394999999,722.5089169999999,722.9936404999999,,,,,,,,,,,,,,723.0122927,,,,,,,,,,,,,723.0096337999998,723.0122927,723.0122927,723.0122927,726.0098029999999,j,2.1331678999999895,0.14411259999997128,726.0100224,726.0100806999999,None,,,,,,,,,,,,,,,,,00013,001,2025-11-15_17h25.43.188,MST_task,2024.2.0,59.93209693417467,2025-11-15 17h25.51.343967 +0530,
,Objects\180a.jpg,130,0,131,,,,,,,f,1.656570800000054,0.12745909999989635,None,,,,,,131,0,130,726.0258322,,,,,,,,,,,,,,,,,,,,,,,726.0104704,726.0258322,726.510092,,,,,,,,,,,,,,726.5294337999999,,,,,,,,,,,,,726.5267796,726.5294337999999,726.5294337999999,726.5294337999999,729.5264477999999,f,1.656570800000054,0.12745909999989635,729.5267632,729.5268384999999,None,,,,,,,,,,,,,,,,,00013,001,2025-11-15_17h25.43.188,MST_task,2024.2.0,59.93209693417467,2025-11-15 17h25.51.343967 +0530,
,Objects\075a.jpg,131,0,132,,,,,,,j,1.2281562000000577,0.1596902000001137,None,,,,,,132,0,131,729.5425106999999,,,,,,,,,,,,,,,,,,,,,,,729.5271461999998,729.5425106999999,730.0269739,,,,,,,,,,,,,,730.0463009999999,,,,,,,,,,,,,730.0435012999999,730.0463009999999,730.0463009999999,730.0463009999999,733.0430343,j,1.2281562000000577,0.1596902000001137,733.0432521,733.0433091,None,,,,,,,,,,,,,,,,,00013,001,2025-11-15_17h25.43.188,MST_task,2024.2.0,59.93209693417467,2025-11-15 17h25.51.343967 +0530,
,Objects\113a.jpg,132,0,133,,,,,,,f,1.4556102000001374,0.16746519999992415,None,,,,,,133,0,132,733.0589636,,,,,,,,,,,,,,,,,,,,,,,733.0436875,733.0589636,733.5433971,,,,,,,,,,,,,,733.5627509999999,,,,,,,,,,,,,733.5600823,733.5627509999999,733.5627509999999,733.5627509999999,736.5597183999998,f,1.4556102000001374,0.16746519999992415,736.5599385999999,736.559996,None,,,,,,,,,,,,,,,,,00013,001,2025-11-15_17h25.43.188,MST_task,2024.2.0,59.93209693417467,2025-11-15 17h25.51.343967 +0530,
,Scenes\051a.jpg,133,0,134,,,,,,,j,0.8223073999999997,0.1438642999999047,None,,,,,,134,0,133,736.5763431,,,,,,,,,,,,,,,,,,,,,,,736.5602971999999,736.5763431,737.0601405999998,,,,,,,,,,,,,,737.0838383,,,,,,,,,,,,,737.0807110999999,737.0838383,737.0838383,737.0838383,740.0763356999998,j,0.8223073999999997,0.1438642999999047,740.0765400999999,740.0765996999999,None,,,,,,,,,,,,,,,,,00013,001,2025-11-15_17h25.43.188,MST_task,2024.2.0,59.93209693417467,2025-11-15 17h25.51.343967 +0530,
,Scenes\019a.jpg,134,0,135,,,,,,,j,2.1156346000000212,0.17614060000005338,None,,,,,,135,0,134,740.0923687,,,,,,,,,,,,,,,,,,,,,,,740.0769911999998,740.0923687,740.5766937999999,,,,,,,,,,,,,,740.6066056,,,,,,,,,,,,,740.6033252,740.6066056,740.6066056,740.6066056,743.5931189999999,j,2.1156346000000212,0.17614060000005338,743.5933304999999,743.5933889999999,None,,,,,,,,,,,,,,,,,00013,001,2025-11-15_17h25.43.188,MST_task,2024.2.0,59.93209693417467,2025-11-15 17h25.51.343967 +0530,
,Scenes\179a.jpg,135,0,136,,,,,,,j,0.9584328999999343,0.16779870000004848,None,,,,,,136,0,135,743.6090586,,,,,,,,,,,,,,,,,,,,,,,743.5936904,743.6090586,744.0936749999998,,,,,,,,,,,,,,744.1153285,,,,,,,,,,,,,744.1119779,744.1153285,744.1153285,744.1153285,747.1090861,j,0.9584328999999343,0.16779870000004848,747.1091560999998,747.1091724,None,,,,,,,,,,,,,,,,,00013,001,2025-11-15_17h25.43.188,MST_task,2024.2.0,59.93209693417467,2025-11-15 17h25.51.343967 +0530,
,Scenes\012a.jpg,136,0,137,,,,,,,j,2.229404299999942,0.15140210000004117,None,,,,,,137,0,136,747.1256825999999,,,,,,,,,,,,,,,,,,,,,,,747.1092610999999,747.1256825999999,747.6099918,,,,,,,,,,,,,,747.6375074999999,,,,,,,,,,,,,747.6342242999999,747.6375074999999,747.6375074999999,747.6375074999999,750.6094109000001,j,2.229404299999942,0.15140210000004117,750.6096098999999,750.6096697999999,None,,,,,,,,,,,,,,,,,00013,001,2025-11-15_17h25.43.188,MST_task,2024.2.0,59.93209693417467,2025-11-15 17h25.51.343967 +0530,
,Scenes\102a.jpg,137,0,138,,,,,,,f,1.2448398999999881,0.1521640999999363,None,,,,,,138,0,137,750.6257925999998,,,,,,,,,,,,,,,,,,,,,,,750.6101001,750.6257925999998,751.1100162,,,,,,,,,,,,,,751.1413769999999,,,,,,,,,,,,,751.1380790999999,751.1413769999999,751.1413769999999,751.1413769999999,754.1264042,f,1.2448398999999881,0.1521640999999363,754.1266152999999,754.1266765999999,None,,,,,,,,,,,,,,,,,00013,001,2025-11-15_17h25.43.188,MST_task,2024.2.0,59.93209693417467,2025-11-15 17h25.51.343967 +0530,
,Scenes\059a.jpg,138,0,139,,,,,,,j,1.8179797000000235,0.14473740000016733,None,,,,,,139,0,138,754.1424162999999,,,,,,,,,,,,,,,,,,,,,,,754.1271027,754.1424162999999,754.6266877999999,,,,,,,,,,,,,,754.6557006999999,,,,,,,,,,,,,754.6525116,754.6557006999999,754.6557006999999,754.6557006999999,757.6430132,j,1.8179797000000235,0.14473740000016733,757.6432892999999,757.6433577999999,None,,,,,,,,,,,,,,,,,00013,001,2025-11-15_17h25.43.188,MST_task,2024.2.0,59.93209693417467,2025-11-15 17h25.51.343967 +0530,
,Scenes\141a.jpg,139,0,140,,,,,,,j,1.111963100000139,0.15949339999997392,None,,,,,,140,0,139,757.6589171,,,,,,,,,,,,,,,,,,,,,,,757.6437685999999,757.6589171,758.1436429,,,,,,,,,,,,,,758.1701450999999,,,,,,,,,,,,,758.1670073999999,758.1701450999999,758.1701450999999,758.1701450999999,761.1595715999999,j,1.111963100000139,0.15949339999997392,761.1597832,761.1598395999999,None,,,,,,,,,,,,,,,,,00013,001,2025-11-15_17h25.43.188,MST_task,2024.2.0,59.93209693417467,2025-11-15 17h25.51.343967 +0530,
,Objects\181a.jpg,140,0,141,,,,,,,j,1.815692800000079,0.1369270999998662,None,,,,,,141,0,140,761.1756550999999,,,,,,,,,,,,,,,,,,,,,,,761.1602538,761.1756550999999,761.6601893,,,,,,,,,,,,,,761.6818796,,,,,,,,,,,,,761.6787528,761.6818796,761.6818796,761.6818796,764.6763114999999,j,1.815692800000079,0.1369270999998662,764.676522,764.6765825999998,None,,,,,,,,,,,,,,,,,00013,001,2025-11-15_17h25.43.188,MST_task,2024.2.0,59.93209693417467,2025-11-15 17h25.51.343967 +0530,
,Objects\060a.jpg,141,0,142,,,,,,,j,1.1828422000000955,0.11990879999984827,None,,,,,,142,0,141,764.6924816999999,,,,,,,,,,,,,,,,,,,,,,,764.6768832,764.6924816999999,765.1766086,,,,,,,,,,,,,,765.1946733,,,,,,,,,,,,,765.1922067,765.1946733,765.1946733,765.1946733,768.1932207,j,1.1828422000000955,0.11990879999984827,768.1934371,768.1934939,None,,,,,,,,,,,,,,,,,00013,001,2025-11-15_17h25.43.188,MST_task,2024.2.0,59.93209693417467,2025-11-15 17h25.51.343967 +0530,
,Objects\190a.jpg,142,0,143,,,,,,,f,1.7857700999998087,0.20859580000001188,None,,,,,,143,0,142,768.2088676999999,,,,,,,,,,,,,,,,,,,,,,,768.1937954,768.2088676999999,768.693387,,,,,,,,,,,,,,768.711861,,,,,,,,,,,,,768.7093043,768.711861,768.711861,768.711861,771.7095101999998,f,1.7857700999998087,0.20859580000001188,771.7097202,771.7097810999999,None,,,,,,,,,,,,,,,,,00013,001,2025-11-15_17h25.43.188,MST_task,2024.2.0,59.93209693417467,2025-11-15 17h25.51.343967 +0530,
,Objects\162a.jpg,143,0,144,,,,,,,f,1.3156372999999348,0.16800480000006246,None,,,,,,144,0,143,771.7256241,,,,,,,,,,,,,,,,,,,,,,,771.7100753,771.7256241,772.2100839,,,,,,,,,,,,,,772.2303030999999,,,,,,,,,,,,,772.2273046,772.2303030999999,772.2303030999999,772.2303030999999,775.2261658999998,f,1.3156372999999348,0.16800480000006246,775.2264126,775.2264708999999,None,,,,,,,,,,,,,,,,,00013,001,2025-11-15_17h25.43.188,MST_task,2024.2.0,59.93209693417467,2025-11-15 17h25.51.343967 +0530,
,Objects\147a.jpg,144,0,145,,,,,,,None,,,f,0.4992440999999417,None,,,,145,0,144,775.2423151999999,,,,,,,,,,,,,,,,,,,,,,,775.2267609,775.2423151999999,775.7268162999999,,,,,,,,,,,,,,775.7458474999999,,,,,,,,,,,,,775.7432107,775.7458474999999,775.7458474999999,775.7458474999999,778.7429783999999,None,,,778.7431761999999,779.2612466999999,f,,,,778.7589333999999,778.7589333999999,0.4992440999999417,None,,,,,,,,,,00013,001,2025-11-15_17h25.43.188,MST_task,2024.2.0,59.93209693417467,2025-11-15 17h25.51.343967 +0530,
,Objects\037a.jpg,145,0,146,,,,,,,f,1.0533708999998908,0.16821930000014618,None,,,,,,146,0,145,779.2756801999999,,,,,,,,,,,,,,,,,,,,,,,779.2616599,779.2756801999999,779.7600427,,,,,,,,,,,,,,779.7803687999999,,,,,,,,,,,,,779.7777245,779.7803687999999,779.7803687999999,779.7803687999999,782.7762023999999,f,1.0533708999998908,0.16821930000014618,782.7763911,782.7764456,None,,,,,,,,,,,,,,,,,00013,001,2025-11-15_17h25.43.188,MST_task,2024.2.0,59.93209693417467,2025-11-15 17h25.51.343967 +0530,
,Objects\082a.jpg,146,0,147,,,,,,,f,1.2506725000000642,0.1600968999998713,None,,,,,,147,0,146,782.7924235,,,,,,,,,,,,,,,,,,,,,,,782.7767850999999,782.7924235,783.2768822,,,,,,,,,,,,,,783.2953737999999,,,,,,,,,,,,,783.2927803,783.2953737999999,783.2953737999999,783.2953737999999,786.2930375999999,f,1.2506725000000642,0.1600968999998713,786.2932284999999,786.2933129999999,None,,,,,,,,,,,,,,,,,00013,001,2025-11-15_17h25.43.188,MST_task,2024.2.0,59.93209693417467,2025-11-15 17h25.51.343967 +0530,
,Scenes\028a.jpg,147,0,148,,,,,,,j,1.782180500000095,0.15263310000000274,None,,,,,,148,0,147,786.308968,,,,,,,,,,,,,,,,,,,,,,,786.2936642,786.308968,786.793637,,,,,,,,,,,,,,786.8193534,,,,,,,,,,,,,786.8161038999999,786.8193534,786.8193534,786.8193534,789.8094472,j,1.782180500000095,0.15263310000000274,789.8096627999998,789.8097221,None,,,,,,,,,,,,,,,,,00013,001,2025-11-15_17h25.43.188,MST_task,2024.2.0,59.93209693417467,2025-11-15 17h25.51.343967 +0530,
,Scenes\087a.jpg,148,0,149,,,,,,,j,2.1295021000000816,0.16824580000002243,None,,,,,,149,0,148,789.8256240999999,,,,,,,,,,,,,,,,,,,,,,,789.8100972,789.8256240999999,790.3100886,,,,,,,,,,,,,,790.3523806000001,,,,,,,,,,,,,790.3489850999999,790.3523806000001,790.3523806000001,790.3523806000001,793.3262688,j,2.1295021000000816,0.16824580000002243,793.3264832999998,793.3265432999999,None,,,,,,,,,,,,,,,,,00013,001,2025-11-15_17h25.43.188,MST_task,2024.2.0,59.93209693417467,2025-11-15 17h25.51.343967 +0530,
,Scenes\162a.jpg,149,0,150,,,,,,,j,0.8160439000000679,0.16012900000009722,None,,,,,,150,0,149,793.3423210999999,,,,,,,,,,,,,,,,,,,,,,,793.3268880999999,793.3423210999999,793.8269745,,,,,,,,,,,,,,793.8497502,,,,,,,,,,,,,793.8464990999998,793.8497502,793.8497502,793.8497502,796.8427385,j,0.8160439000000679,0.16012900000009722,796.842901,796.8429415,None,,,,,,,,,,,,,,,,,00013,001,2025-11-15_17h25.43.188,MST_task,2024.2.0,59.93209693417467,2025-11-15 17h25.51.343967 +0530,
,Scenes\030a.jpg,150,0,151,,,,,,,j,1.0575432000000546,0.14430369999990944,None,,,,,,151,0,150,796.858919,,,,,,,,,,,,,,,,,,,,,,,796.8431647999998,796.858919,797.3436551,,,,,,,,,,,,,,797.3762729999999,,,,,,,,,,,,,797.3729659999999,797.3762729999999,797.3762729999999,797.3762729999999,800.3595533999999,j,1.0575432000000546,0.14430369999990944,800.3597651,800.3598233,None,,,,,,,,,,,,,,,,,00013,001,2025-11-15_17h25.43.188,MST_task,2024.2.0,59.93209693417467,2025-11-15 17h25.51.343967 +0530,
,Scenes\081a.jpg,151,0,152,,,,,,,j,0.9942475000000286,0.16005380000001423,None,,,,,,152,0,151,800.375904,,,,,,,,,,,,,,,,,,,,,,,800.3601259,800.375904,800.8601065999999,,,,,,,,,,,,,,800.8873403999999,,,,,,,,,,,,,800.8845804999999,800.8873403999999,800.8873403999999,800.8873403999999,803.8763953,j,0.9942475000000286,0.16005380000001423,803.8767253999999,803.8767949,None,,,,,,,,,,,,,,,,,00013,001,2025-11-15_17h25.43.188,MST_task,2024.2.0,59.93209693417467,2025-11-15 17h25.51.343967 +0530,
,Scenes\128a.jpg,152,0,153,,,,,,,j,0.9795020999999906,0.16050280000013117,None,,,,,,153,0,152,803.892325,,,,,,,,,,,,,,,,,,,,,,,803.8771881999999,803.892325,804.3766561,,,,,,,,,,,,,,804.4058344999999,,,,,,,,,,,,,804.4021415,804.4058344999999,804.4058344999999,804.4058344999999,807.3926332999999,j,0.9795020999999906,0.16050280000013117,807.3926962999999,807.3927088999999,None,,,,,,,,,,,,,,,,,00013,001,2025-11-15_17h25.43.188,MST_task,2024.2.0,59.93209693417467,2025-11-15 17h25.51.343967 +0530,
,Scenes\147a.jpg,153,0,154,,,,,,,None,,,j,1.1884416000000328,None,,,,154,0,153,807.4088910999999,,,,,,,,,,,,,,,,,,,,,,,807.3928086999999,807.4088910999999,807.8936366,,,,,,,,,,,,,,807.9163011999999,,,,,,,,,,,,,807.9130121000001,807.9163011999999,807.9163011999999,807.9163011999999,810.8929544999999,None,,,810.8931309,812.1112377,j,,,,810.9090262,810.9090262,1.1884416000000328,None,,,,,,,,,,00013,001,2025-11-15_17h25.43.188,MST_task,2024.2.0,59.93209693417467,2025-11-15 17h25.51.343967 +0530,
,Objects\080a.jpg,154,0,155,,,,,,,None,,,j,0.16827140000009422,None,,,,155,0,154,812.1257796,,,,,,,,,,,,,,,,,,,,,,,812.1117174999999,812.1257796,812.6100852,,,,,,,,,,,,,,812.6292572,,,,,,,,,,,,,812.6262578999999,812.6292572,812.6292572,812.6292572,815.6266280999998,None,,,815.6268339999999,815.8273308999999,j,,,,815.6423041,815.6423041,0.16827140000009422,None,,,,,,,,,,00013,001,2025-11-15_17h25.43.188,MST_task,2024.2.0,59.93209693417467,2025-11-15 17h25.51.343967 +0530,
,Objects\098a.jpg,155,0,156,,,,,,,None,,,f,0.13097670000001926,None,,,,156,0,155,815.8425706999999,,,,,,,,,,,,,,,,,,,,,,,815.8277103999999,815.8425706999999,816.3268467,,,,,,,,,,,,,,816.3499423999999,,,,,,,,,,,,,816.3471411,816.3499423999999,816.3499423999999,816.3499423999999,819.3426967,None,,,819.3429047,819.4928877,f,,,,819.3589758999999,819.3589758999999,0.13097670000001926,None,,,,,,,,,,00013,001,2025-11-15_17h25.43.188,MST_task,2024.2.0,59.93209693417467,2025-11-15 17h25.51.343967 +0530,
,Objects\135a.jpg,156,0,157,,,,,,,f,2.142511200000172,0.13606849999996484,None,,,,,,157,0,156,819.5089158999999,,,,,,,,,,,,,,,,,,,,,,,819.4930715999999,819.5089158999999,819.9934375,,,,,,,,,,,,,,820.0117611000001,,,,,,,,,,,,,820.0090049999999,820.0117611000001,820.0117611000001,820.0117611000001,823.0095962,f,2.142511200000172,0.13606849999996484,823.0097937,823.0098524999999,None,,,,,,,,,,,,,,,,,00013,001,2025-11-15_17h25.43.188,MST_task,2024.2.0,59.93209693417467,2025-11-15 17h25.51.343967 +0530,
,Objects\058a.jpg,157,0,158,,,,,,,f,1.8070774000000256,0.15192650000017238,None,,,,,,158,0,157,823.0257890999999,,,,,,,,,,,,,,,,,,,,,,,823.0102382999999,823.0257890999999,823.5101448,,,,,,,,,,,,,,823.5309126,,,,,,,,,,,,,823.5281769999999,823.5309126,823.5309126,823.5309126,826.5264503999999,f,1.8070774000000256,0.15192650000017238,826.5267905999999,826.5268556999999,None,,,,,,,,,,,,,,,,,00013,001,2025-11-15_17h25.43.188,MST_task,2024.2.0,59.93209693417467,2025-11-15 17h25.51.343967 +0530,
,Objects\125a.jpg,158,0,159,,,,,,,f,2.7633290999999645,0.17621780000013132,None,,,,,,159,0,158,826.5424361,,,,,,,,,,,,,,,,,,,,,,,826.5271034,826.5424361,827.0272276000001,,,,,,,,,,,,,,827.0464529999999,,,,,,,,,,,,,827.0435846,827.0464529999999,827.0464529999999,827.0464529999999,830.043036,f,2.7633290999999645,0.17621780000013132,830.0432430999999,830.0433031,None,,,,,,,,,,,,,,,,,00013,001,2025-11-15_17h25.43.188,MST_task,2024.2.0,59.93209693417467,2025-11-15 17h25.51.343967 +0530,
,Objects\035a.jpg,159,0,160,,,,,,,f,1.9750429999999142,0.16808620000006158,None,,,,,,160,0,159,830.0590831,,,,,,,,,,,,,,,,,,,,,,,830.0436926999998,830.0590831,830.5437112,,,,,,,,,,,,,,830.5629438999999,,,,,,,,,,,,,830.5602388,830.5629438999999,830.5629438999999,830.5629438999999,833.5597335,f,1.9750429999999142,0.16808620000006158,833.5599562,833.5600172,None,,,,,,,,,,,,,,,,,00013,001,2025-11-15_17h25.43.188,MST_task,2024.2.0,59.93209693417467,2025-11-15 17h25.51.343967 +0530,
,Objects\031a.jpg,160,0,161,,,,,,,f,1.5897010999999566,0.18383119999998598,None,,,,,,161,0,160,833.5757793999999,,,,,,,,,,,,,,,,,,,,,,,833.5603563,833.5757793999999,834.0597826999999,,,,,,,,,,,,,,834.0764225,,,,,,,,,,,,,834.0737185,834.0764225,834.0764225,834.0764225,837.0610580999999,f,1.5897010999999566,0.18383119999998598,837.0613199,837.0613799999999,None,837.0757983999999,837.0757983999999,837.0757983999999,,,,,,,,,,,,,,00013,001,2025-11-15_17h25.43.188,MST_task,2024.2.0,59.93209693417467,2025-11-15 17h25.51.343967 +0530,
,Scenes\150a.jpg,161,0,162,,,,,,,j,1.2781960999998319,0.16782370000009905,None,,,,,,162,0,161,837.0757983999999,,,,,,,,,,,,,,,,,,,,,,,837.0618046,837.0757983999999,837.5603618999999,,,,,,,,,,,,,,837.5873738999999,,,,,,,,,,,,,837.5840946999999,837.5873738999999,837.5873738999999,837.5873738999999,840.5765176999998,j,1.2781960999998319,0.16782370000009905,840.5767466,840.5768056,None,,,,,,,,,,,,,,,,,00013,001,2025-11-15_17h25.43.188,MST_task,2024.2.0,59.93209693417467,2025-11-15 17h25.51.343967 +0530,
,Scenes\169a.jpg,162,0,163,,,,,,,j,1.1948006000000078,0.1690444999999272,None,,,,,,163,0,162,840.5924547,,,,,,,,,,,,,,,,,,,,,,,840.5772019999999,840.5924547,841.0765762999999,,,,,,,,,,,,,,841.1028908999999,,,,,,,,,,,,,841.0997226,841.1028908999999,841.1028908999999,841.1028908999999,844.0930759,j,1.1948006000000078,0.1690444999999272,844.0933247999999,844.0934930999999,None,,,,,,,,,,,,,,,,,00013,001,2025-11-15_17h25.43.188,MST_task,2024.2.0,59.93209693417467,2025-11-15 17h25.51.343967 +0530,
,Scenes\123a.jpg,163,0,164,,,,,,,j,1.9291289000000234,0.16066750000004504,None,,,,,,164,0,163,844.1088106,,,,,,,,,,,,,,,,,,,,,,,844.0938094,844.1088106,844.5931499999999,,,,,,,,,,,,,,844.6160376,,,,,,,,,,,,,844.6128914999999,844.6160376,844.6160376,844.6160376,847.6096196999999,j,1.9291289000000234,0.16066750000004504,847.6098251999999,847.6098731,None,,,,,,,,,,,,,,,,,00013,001,2025-11-15_17h25.43.188,MST_task,2024.2.0,59.93209693417467,2025-11-15 17h25.51.343967 +0530,
,Scenes\158a.jpg,164,0,165,,,,,,,j,2.3715376000000106,0.15293509999992239,None,,,,,,165,0,164,847.6255524999999,,,,,,,,,,,,,,,,,,,,,,,847.6100809,847.6255524999999,848.1100392999999,,,,,,,,,,,,,,848.1417211,,,,,,,,,,,,,848.1382917999999,848.1417211,848.1417211,848.1417211,851.1261331999999,j,2.3715376000000106,0.15293509999992239,851.1264114999999,851.1264709,None,,,,,,,,,,,,,,,,,00013,001,2025-11-15_17h25.43.188,MST_task,2024.2.0,59.93209693417467,2025-11-15 17h25.51.343967 +0530,
,Scenes\025a.jpg,165,0,166,,,,,,,j,0.6890754000000925,0.16760369999997238,None,,,,,,166,0,165,851.1423338,,,,,,,,,,,,,,,,,,,,,,,851.126769,851.1423338,851.6272213,,,,,,,,,,,,,,851.6567912,,,,,,,,,,,,,851.6534939999999,851.6567912,851.6567912,851.6567912,854.6428059,j,0.6890754000000925,0.16760369999997238,854.6430086999999,854.6430582,None,,,,,,,,,,,,,,,,,00013,001,2025-11-15_17h25.43.188,MST_task,2024.2.0,59.93209693417467,2025-11-15 17h25.51.343967 +0530,
,Scenes\094a.jpg,166,0,167,,,,,,,j,2.423062200000004,0.15967860000000655,None,,,,,,167,0,166,854.6588320999999,,,,,,,,,,,,,,,,,,,,,,,854.6433138,854.6588320999999,855.1433496,,,,,,,,,,,,,,855.1710658,,,,,,,,,,,,,855.1677173,855.1710658,855.1710658,855.1710658,858.1589827999999,j,2.423062200000004,0.15967860000000655,858.1590544999999,858.1590683,None,,,,,,,,,,,,,,,,,00013,001,2025-11-15_17h25.43.188,MST_task,2024.2.0,59.93209693417467,2025-11-15 17h25.51.343967 +0530,
,Scenes\008a.jpg,167,0,168,,,,,,,f,1.1183230999999978,0.1831752000000506,None,,,,,,168,0,167,858.1755048999999,,,,,,,,,,,,,,,,,,,,,,,858.1591484,858.1755048999999,858.6598391,,,,,,,,,,,,,,858.6838593,,,,,,,,,,,,,858.6808126999999,858.6838593,858.6838593,858.6838593,861.6594358,f,1.1183230999999978,0.1831752000000506,861.6596548,861.6597159999999,None,,,,,,,,,,,,,,,,,00013,001,2025-11-15_17h25.43.188,MST_task,2024.2.0,59.93209693417467,2025-11-15 17h25.51.343967 +0530,
,Objects\062a.jpg,168,0,169,,,,,,,f,1.253790699999854,0.2793140000001131,None,,,,,,169,0,168,861.6756152,,,,,,,,,,,,,,,,,,,,,,,861.6600171,861.6756152,862.1599291,,,,,,,,,,,,,,862.1802055,,,,,,,,,,,,,862.1769895999998,862.1802055,862.1802055,862.1802055,865.1759218,f,1.253790699999854,0.2793140000001131,865.1759823999998,865.1759958999999,None,,,,,,,,,,,,,,,,,00013,001,2025-11-15_17h25.43.188,MST_task,2024.2.0,59.93209693417467,2025-11-15 17h25.51.343967 +0530,
,Objects\105a.jpg,169,0,170,,,,,,,j,2.144779999999855,0.16823620000013761,None,,,,,,170,0,169,865.1919389,,,,,,,,,,,,,,,,,,,,,,,865.1761004,865.1919389,865.6771512,,,,,,,,,,,,,,865.697165,,,,,,,,,,,,,865.69444,865.697165,865.697165,865.697165,868.6762446999999,j,2.144779999999855,0.16823620000013761,868.6764590999999,868.6765178,None,,,,,,,,,,,,,,,,,00013,001,2025-11-15_17h25.43.188,MST_task,2024.2.0,59.93209693417467,2025-11-15 17h25.51.343967 +0530,
,Objects\115a.jpg,170,0,171,,,,,,,f,2.860945299999912,None,None,,,,,,171,0,170,868.6922689999999,,,,,,,,,,,,,,,,,,,,,,,868.6768232,868.6922689999999,869.1769992,,,,,,,,,,,,,,869.1970014999999,,,,,,,,,,,,,869.1943595,869.1970014999999,869.1970014999999,869.1970014999999,872.1928968,f,2.860945299999912,None,872.1931139999999,872.1931757,None,,,,,,,,,,,,,,,,,00013,001,2025-11-15_17h25.43.188,MST_task,2024.2.0,59.93209693417467,2025-11-15 17h25.51.343967 +0530,
,Objects\165a.jpg,171,0,172,,,,,,,None,,,f,0.5003220999999485,None,,,,172,0,171,872.2087896,,,,,,,,,,,,,,,,,,,,,,,872.1935541,872.2087896,872.6933701999999,,,,,,,,,,,,,,872.7116323999999,,,,,,,,,,,,,872.7090780999999,872.7116323999999,872.7116323999999,872.7116323999999,875.70938,None,,,875.70958,876.2279017999999,f,,,,875.7255582,875.7255582,0.5003220999999485,None,,,,,,,,,,00013,001,2025-11-15_17h25.43.188,MST_task,2024.2.0,59.93209693417467,2025-11-15 17h25.51.343967 +0530,
,Objects\129a.jpg,172,0,173,,,,,,,None,,,j,0.7305019000000357,None,,,,173,0,172,876.2422059999999,,,,,,,,,,,,,,,,,,,,,,,876.228411,876.2422059999999,876.7268778,,,,,,,,,,,,,,876.7459277,,,,,,,,,,,,,876.7433791999999,876.7459277,876.7459277,876.7459277,879.7429096999999,None,,,879.7430978999998,880.4940181,j,,,,879.7588825999999,879.7588825999999,0.7305019000000357,None,,,,,,,,,,00013,001,2025-11-15_17h25.43.188,MST_task,2024.2.0,59.93209693417467,2025-11-15 17h25.51.343967 +0530,
,Objects\134a.jpg,173,0,174,,,,,,,None,,,f,0.8397705999998379,None,,,,174,0,173,880.5087859999999,,,,,,,,,,,,,,,,,,,,,,,880.4943876,880.5087859999999,880.9935413999999,,,,,,,,,,,,,,881.0144287,,,,,,,,,,,,,881.0118061999999,881.0144287,881.0144287,881.0144287,884.0093887,None,,,884.0095888999999,884.8779987999999,f,,,,884.0256281,884.0256281,0.8397705999998379,None,,,,,,,,,,00013,001,2025-11-15_17h25.43.188,MST_task,2024.2.0,59.93209693417467,2025-11-15 17h25.51.343967 +0530,
,Objects\184a.jpg,174,0,175,,,,,,,j,2.3559570999998414,0.1442203999999947,None,,,,,,175,0,174,884.8922430999999,,,,,,,,,,,,,,,,,,,,,,,884.8785355,884.8922430999999,885.3767751999999,,,,,,,,,,,,,,885.3981308,,,,,,,,,,,,,885.3953821,885.3981308,885.3981308,885.3981308,888.3930962,j,2.3559570999998414,0.1442203999999947,888.3933901,888.3934606,None,,,,,,,,,,,,,,,,,00013,001,2025-11-15_17h25.43.188,MST_task,2024.2.0,59.93209693417467,2025-11-15 17h25.51.343967 +0530,
,Scenes\163a.jpg,175,0,176,,,,,,,j,1.0830587999998897,0.1509392000000389,None,,,,,,176,0,175,888.4087909999998,,,,,,,,,,,,,,,,,,,,,,,888.3938267999999,888.4087909999998,888.8931823,,,,,,,,,,,,,,888.9196362999999,,,,,,,,,,,,,888.9164403,888.9196362999999,888.9196362999999,888.9196362999999,891.9097187999998,j,1.0830587999998897,0.1509392000000389,891.9099592999999,891.9100211999998,None,,,,,,,,,,,,,,,,,00013,001,2025-11-15_17h25.43.188,MST_task,2024.2.0,59.93209693417467,2025-11-15 17h25.51.343967 +0530,
,Scenes\188a.jpg,176,0,177,,,,,,,j,2.7420199000000594,0.1437058999999863,None,,,,,,177,0,176,891.9257124999999,,,,,,,,,,,,,,,,,,,,,,,891.9104041999999,891.9257124999999,892.4102312,,,,,,,,,,,,,,892.4359967999999,,,,,,,,,,,,,892.4327725999999,892.4359967999999,892.4359967999999,892.4359967999999,895.426496,j,2.7420199000000594,0.1437058999999863,895.4267175999998,895.4267754999998,None,,,,,,,,,,,,,,,,,00013,001,2025-11-15_17h25.43.188,MST_task,2024.2.0,59.93209693417467,2025-11-15 17h25.51.343967 +0530,
,Scenes\040a.jpg,177,0,178,,,,,,,f,0.8463949999998022,0.15912120000007235,None,,,,,,178,0,177,895.4423241,,,,,,,,,,,,,,,,,,,,,,,895.4270727,895.4423241,895.9266604,,,,,,,,,,,,,,895.9557184999999,,,,,,,,,,,,,895.9523228999999,895.9557184999999,895.9557184999999,895.9557184999999,898.9430680999999,f,0.8463949999998022,0.15912120000007235,898.9432729,898.9433303999999,None,,,,,,,,,,,,,,,,,00013,001,2025-11-15_17h25.43.188,MST_task,2024.2.0,59.93209693417467,2025-11-15 17h25.51.343967 +0530,
,Scenes\184a.jpg,178,0,179,,,,,,,j,1.078381600000057,0.12022219999994377,None,,,,,,179,0,178,898.9587815,,,,,,,,,,,,,,,,,,,,,,,898.9437221999999,898.9587815,899.4435566,,,,,,,,,,,,,,899.4672621,,,,,,,,,,,,,899.4640497,899.4672621,899.4672621,899.4672621,902.4593169,j,1.078381600000057,0.12022219999994377,902.4595168999999,902.4595853999999,None,,,,,,,,,,,,,,,,,00013,001,2025-11-15_17h25.43.188,MST_task,2024.2.0,59.93209693417467,2025-11-15 17h25.51.343967 +0530,
,Scenes\046a.jpg,179,0,180,,,,,,,j,1.2009557000001223,0.14411389999986568,None,,,,,,180,0,179,902.4756860999998,,,,,,,,,,,,,,,,,,,,,,,902.4598976,902.4756860999998,902.9598695,,,,,,,,,,,,,,902.9922981,,,,,,,,,,,,,902.9889218999999,902.9922981,902.9922981,902.9922981,905.9767032,j,1.2009557000001223,0.14411389999986568,905.9770168,905.977079,None,,,,,,,,,,,,,,,,,00013,001,2025-11-15_17h25.43.188,MST_task,2024.2.0,59.93209693417467,2025-11-15 17h25.51.343967 +0530,
,Scenes\139a.jpg,180,0,181,,,,,,,j,1.0856019000000288,0.16806309999992664,None,,,,,,181,0,180,905.9922469,,,,,,,,,,,,,,,,,,,,,,,905.9774700999999,905.9922469,906.476911,,,,,,,,,,,,,,906.5002027,,,,,,,,,,,,,906.4968753999999,906.5002027,906.5002027,906.5002027,909.492724,j,1.0856019000000288,0.16806309999992664,909.4928935999999,909.4929620999999,None,,,,,,,,,,,,,,,,,00013,001,2025-11-15_17h25.43.188,MST_task,2024.2.0,59.93209693417467,2025-11-15 17h25.51.343967 +0530,
,Scenes\183a.jpg,181,0,182,,,,,,,f,2.342543599999999,0.17610320000017055,None,,,,,,182,0,181,909.5087131,,,,,,,,,,,,,,,,,,,,,,,909.4932609,909.5087131,909.9936536999999,,,,,,,,,,,,,,910.0196117,,,,,,,,,,,,,910.0162372,910.0196117,910.0196117,910.0196117,913.0094168999999,f,2.342543599999999,0.17610320000017055,913.0096295999999,913.0096871999999,None,,,,,,,,,,,,,,,,,00013,001,2025-11-15_17h25.43.188,MST_task,2024.2.0,59.93209693417467,2025-11-15 17h25.51.343967 +0530,
,Objects\175a.jpg,182,0,183,,,,,,,f,1.1586499000000003,0.1754793999998583,None,,,,,,183,0,182,913.0255741999999,,,,,,,,,,,,,,,,,,,,,,,913.0101238,913.0255741999999,913.5098553,,,,,,,,,,,,,,913.5314933,,,,,,,,,,,,,913.5281791,913.5314933,913.5314933,913.5314933,916.5261759999999,f,1.1586499000000003,0.1754793999998583,916.5263757,916.5264350999998,None,,,,,,,,,,,,,,,,,00013,001,2025-11-15_17h25.43.188,MST_task,2024.2.0,59.93209693417467,2025-11-15 17h25.51.343967 +0530,
,Objects\186a.jpg,183,0,184,,,,,,,None,,,f,1.0789804999999433,None,,,,184,0,183,916.5422423,,,,,,,,,,,,,,,,,,,,,,,916.5267578999999,916.5422423,917.0268864,,,,,,,,,,,,,,917.0462345999999,,,,,,,,,,,,,917.0435367999999,917.0462345999999,917.0462345999999,917.0462345999999,920.0429027999999,None,,,920.0430683,921.1439037999999,f,,,,920.0588224,920.0588224,1.0789804999999433,None,,,,,,,,,,00013,001,2025-11-15_17h25.43.188,MST_task,2024.2.0,59.93209693417467,2025-11-15 17h25.51.343967 +0530,
,Objects\090a.jpg,184,0,185,,,,,,,j,0.9875135000002047,0.1753783999999996,None,,,,,,185,0,184,921.1587741999999,,,,,,,,,,,,,,,,,,,,,,,921.1442743999999,921.1587741999999,921.6434125999999,,,,,,,,,,,,,,921.6624691,,,,,,,,,,,,,921.6597721,921.6624691,921.6624691,921.6624691,924.659785,j,0.9875135000002047,0.1753783999999996,924.6601917,924.6602665,None,,,,,,,,,,,,,,,,,00013,001,2025-11-15_17h25.43.188,MST_task,2024.2.0,59.93209693417467,2025-11-15 17h25.51.343967 +0530,
,Objects\017a.jpg,185,0,186,,,,,,,j,2.496991900000012,0.14278689999991911,None,,,,,,186,0,185,924.6755441999999,,,,,,,,,,,,,,,,,,,,,,,924.6605637,924.6755441999999,925.1602212,,,,,,,,,,,,,,925.1781813,,,,,,,,,,,,,925.1755939,925.1781813,925.1781813,925.1781813,928.1762862999999,j,2.496991900000012,0.14278689999991911,928.1765046,928.1765637999999,None,,,,,,,,,,,,,,,,,00013,001,2025-11-15_17h25.43.188,MST_task,2024.2.0,59.93209693417467,2025-11-15 17h25.51.343967 +0530,
,Objects\182a.jpg,186,0,187,,,,,,,f,1.8637530999999399,0.1519676000000345,None,,,,,,187,0,186,928.1922749,,,,,,,,,,,,,,,,,,,,,,,928.1768568999998,928.1922749,928.6768287999998,,,,,,,,,,,,,,928.6981977999999,,,,,,,,,,,,,928.6955567999998,928.6981977999999,928.6981977999999,928.6981977999999,931.6928840999999,f,1.8637530999999399,0.1519676000000345,931.6930745,931.6931232,None,,,,,,,,,,,,,,,,,00013,001,2025-11-15_17h25.43.188,MST_task,2024.2.0,59.93209693417467,2025-11-15 17h25.51.343967 +0530,
,Objects\063a.jpg,187,0,188,,,,,,,f,1.1363827000000128,0.19259839999995165,None,,,,,,188,0,187,931.7087515999999,,,,,,,,,,,,,,,,,,,,,,,931.6933736999999,931.7087515999999,932.1936853,,,,,,,,,,,,,,932.2089513999999,,,,,,,,,,,,,932.2054954,932.2089513999999,932.2089513999999,932.2089513999999,935.1943873999999,f,1.1363827000000128,0.19259839999995165,935.1946207999999,935.1946760999999,None,935.2087918,935.2087918,935.2087918,,,,,,,,,,,,,,00013,001,2025-11-15_17h25.43.188,MST_task,2024.2.0,59.93209693417467,2025-11-15 17h25.51.343967 +0530,
