thisN,thisTrialN,thisRepN,key_resp_3.keys,key_resp_3.rt,key_resp_3.duration,trials.thisRepN,trials.thisTrialN,trials.thisN,thisRow.t,notes,intro_page.started,text.started,key_resp.started,intro_page.stopped,key_resp.keys,key_resp.rt,key_resp.duration,instructions.started,text_2.started,key_resp_2.started,instructions.stopped,key_resp_2.keys,key_resp_2.rt,key_resp_2.duration,demo1.started,image_1.started,image_2.started,text_7.started,key_resp_6.started,text_9.started,demo1.stopped,key_resp_6.keys,key_resp_6.rt,key_resp_6.duration,demo2.started,image_5.started,image_6.started,text_11.started,text_12.started,key_resp_8.started,demo2.stopped,key_resp_8.keys,key_resp_8.rt,key_resp_8.duration,demo_conclusion.started,text_13.started,key_resp_9.started,demo_conclusion.stopped,key_resp_9.keys,key_resp_9.rt,key_resp_9.duration,start_test.started,text_6.started,key_resp_5.started,start_test.stopped,key_resp_5.keys,key_resp_5.rt,key_resp_5.duration,ISI.started,text_4.started,text_4.stopped,ISI.stopped,routine_1.started,image.started,text_3.started,key_resp_3.started,routine_1.stopped,image_path,position_of_stimuli,trials.key_resp_3.keys,trials.key_resp_3.rt,trials.key_resp_3.duration,End_page.started,text_5.started,key_resp_4.started,End_page.stopped,key_resp_4.keys,key_resp_4.rt,key_resp_4.duration,participant,session,date,expName,psychopyVersion,frameRate,expStart,
,,,,,,,,,,,0.0017267999974137638,0.0036860000000160653,0.0036860000000160653,8.766419799998403,space,8.751506699998572,None,,,,,,,,,,,,,,,,,,,,,,,,,,,,,,,,,,,,,,,,,,,,,,,,,,,,,,,,,,,,,,,00012,001,2025-11-15_11h16.55.438,MST_test,2024.2.0,100.10450911084412,2025-11-15 11h17.15.046474 +0530,
,,,,,,,,,,,,,,,,,,8.766551199998503,8.779199999997218,8.779199999997218,31.14877969999725,space,22.35979849999785,None,,,,,,,,,,,,,,,,,,,,,,,,,,,,,,,,,,,,,,,,,,,,,,,,,,,,,,,,00012,001,2025-11-15_11h16.55.438,MST_test,2024.2.0,100.10450911084412,2025-11-15 11h17.15.046474 +0530,
,,,,,,,,,,,,,,,,,,,,,,,,,31.148830300000554,31.165462499997375,31.165462499997375,31.165462499997375,31.165462499997375,31.165462499997375,40.85874479999984,space,9.685090799997852,None,,,,,,,,,,,,,,,,,,,,,,,,,,,,,,,,,,,,,,,,,,,,,,00012,001,2025-11-15_11h16.55.438,MST_test,2024.2.0,100.10450911084412,2025-11-15 11h17.15.046474 +0530,
,,,,,,,,,,,,,,,,,,,,,,,,,,,,,,,,,,,40.85881619999782,40.86752109999725,40.86752109999725,40.86752109999725,40.86752109999725,40.86752109999725,44.168395199998486,space,3.2956979000009596,None,,,,,,,,,,,,,,,,,,,,,,,,,,,,,,,,,,,,00012,001,2025-11-15_11h16.55.438,MST_test,2024.2.0,100.10450911084412,2025-11-15 11h17.15.046474 +0530,
,,,,,,,,,,,,,,,,,,,,,,,,,,,,,,,,,,,,,,,,,,,,,44.168474199999764,44.17636769999808,44.17636769999808,69.5652319999972,space,25.386310000001686,None,,,,,,,,,,,,,,,,,,,,,,,,,,,,,00012,001,2025-11-15_11h16.55.438,MST_test,2024.2.0,100.10450911084412,2025-11-15 11h17.15.046474 +0530,
,,,,,,,,,,,,,,,,,,,,,,,,,,,,,,,,,,,,,,,,,,,,,,,,,,,,69.56532320000042,69.57328889999917,69.57328889999917,172.75158329999977,space,103.1734297999974,None,,,,,,,,,,,,,,,,,,,,,,00012,001,2025-11-15_11h16.55.438,MST_test,2024.2.0,100.10450911084412,2025-11-15 11h17.15.046474 +0530,
0,0,1,s,1.739424000003055,None,1,0,0,172.76780409999992,,,,,,,,,,,,,,,,,,,,,,,,,,,,,,,,,,,,,,,,,,,,,,,,,,172.7656511999994,172.76780409999992,173.27180469999803,173.2513317999983,173.26901489999727,173.27180469999803,173.27180469999803,173.27180469999803,175.02174639999794,Objects\066a.jpg,mid,s,1.739424000003055,None,,,,,,,,00012,001,2025-11-15_11h16.55.438,MST_test,2024.2.0,100.10450911084412,2025-11-15 11h17.15.046474 +0530,
1,0,2,s,2.0413033999975596,None,2,0,1,175.02984780000043,,,,,,,,,,,,,,,,,,,,,,,,,,,,,,,,,,,,,,,,,,,,,,,,,,175.0219952999978,175.02984780000043,175.53741349999837,175.52110059999904,175.53511889999936,175.53741349999837,175.53741349999837,175.53741349999837,177.58193499999834,Objects\163b.jpg,pre,s,2.0413033999975596,None,,,,,,,,00012,001,2025-11-15_11h16.55.438,MST_test,2024.2.0,100.10450911084412,2025-11-15 11h17.15.046474 +0530,
2,0,3,o,2.098348999999871,None,3,0,2,177.5896709999979,,,,,,,,,,,,,,,,,,,,,,,,,,,,,,,,,,,,,,,,,,,,,,,,,,177.58227569999872,177.5896709999979,178.09629510000013,178.08076459999938,178.09392239999943,178.09629510000013,178.09629510000013,178.09629510000013,180.2015231000005,Objects\019a.jpg,mid,o,2.098348999999871,None,,,,,,,,00012,001,2025-11-15_11h16.55.438,MST_test,2024.2.0,100.10450911084412,2025-11-15 11h17.15.046474 +0530,
3,0,4,n,1.1676074999995762,None,4,0,3,180.2092257999975,,,,,,,,,,,,,,,,,,,,,,,,,,,,,,,,,,,,,,,,,,,,,,,,,,180.201855299998,180.2092257999975,180.7156627000004,180.70026320000034,180.7132739999979,180.7156627000004,180.7156627000004,180.7156627000004,181.89058419999856,Foils\106a.jpg,none,n,1.1676074999995762,None,,,,,,,,00012,001,2025-11-15_11h16.55.438,MST_test,2024.2.0,100.10450911084412,2025-11-15 11h17.15.046474 +0530,
4,0,5,n,1.8367919999982405,None,5,0,4,181.89896999999837,,,,,,,,,,,,,,,,,,,,,,,,,,,,,,,,,,,,,,,,,,,,,,,,,,181.8908596000001,181.89896999999837,182.40570149999985,182.3902522999997,182.40331049999804,182.40570149999985,182.40570149999985,182.40570149999985,184.25088889999824,Objects\164b.jpg,post,n,1.8367919999982405,None,,,,,,,,00012,001,2025-11-15_11h16.55.438,MST_test,2024.2.0,100.10450911084412,2025-11-15 11h17.15.046474 +0530,
5,0,6,s,1.6000538999978744,None,6,0,5,184.25881979999758,,,,,,,,,,,,,,,,,,,,,,,,,,,,,,,,,,,,,,,,,,,,,,,,,,184.25120219999735,184.25881979999758,184.77045839999846,184.7499233999988,184.76753109999845,184.77045839999846,184.77045839999846,184.77045839999846,186.38041139999768,Scenes\181b.jpg,post,s,1.6000538999978744,None,,,,,,,,00012,001,2025-11-15_11h16.55.438,MST_test,2024.2.0,100.10450911084412,2025-11-15 11h17.15.046474 +0530,
6,0,7,o,1.337607299999945,None,7,0,6,186.38847109999915,,,,,,,,,,,,,,,,,,,,,,,,,,,,,,,,,,,,,,,,,,,,,,,,,,186.3806960999973,186.38847109999915,186.89734639999733,186.87970919999862,186.89486869999746,186.89734639999733,186.89734639999733,186.89734639999733,188.24017619999722,Objects\187a.jpg,mid,o,1.337607299999945,None,,,,,,,,00012,001,2025-11-15_11h16.55.438,MST_test,2024.2.0,100.10450911084412,2025-11-15 11h17.15.046474 +0530,
7,0,8,o,1.2408915999985766,None,8,0,7,188.24815529999978,,,,,,,,,,,,,,,,,,,,,,,,,,,,,,,,,,,,,,,,,,,,,,,,,,188.24042510000072,188.24815529999978,188.75422649999746,188.7393532999995,188.75183789999937,188.75422649999746,188.75422649999746,188.75422649999746,190.00017089999892,Objects\103a.jpg,post,o,1.2408915999985766,None,,,,,,,,00012,001,2025-11-15_11h16.55.438,MST_test,2024.2.0,100.10450911084412,2025-11-15 11h17.15.046474 +0530,
8,0,9,s,2.0739600000015344,None,9,0,8,190.00796339999943,,,,,,,,,,,,,,,,,,,,,,,,,,,,,,,,,,,,,,,,,,,,,,,,,,190.0004587000003,190.00796339999943,190.52054249999856,190.49900119999802,190.51748419999785,190.52054249999856,190.52054249999856,190.52054249999856,192.59950000000026,Scenes\121a.jpg,pre,s,2.0739600000015344,None,,,,,,,,00012,001,2025-11-15_11h16.55.438,MST_test,2024.2.0,100.10450911084412,2025-11-15 11h17.15.046474 +0530,
9,0,10,s,1.858671800000593,None,10,0,9,192.60759379999945,,,,,,,,,,,,,,,,,,,,,,,,,,,,,,,,,,,,,,,,,,,,,,,,,,192.59977629999776,192.60759379999945,193.12043039999844,193.09882049999942,193.1173108999974,193.12043039999844,193.12043039999844,193.12043039999844,194.9895663999996,Scenes\186b.jpg,post,s,1.858671800000593,None,,,,,,,,00012,001,2025-11-15_11h16.55.438,MST_test,2024.2.0,100.10450911084412,2025-11-15 11h17.15.046474 +0530,
10,0,11,n,2.2149779999999737,None,11,0,10,194.99740229999952,,,,,,,,,,,,,,,,,,,,,,,,,,,,,,,,,,,,,,,,,,,,,,,,,,194.98992969999745,194.99740229999952,195.50815669999793,195.48884279999766,195.5049257999999,195.50815669999793,195.50815669999793,195.50815669999793,197.7289458999985,Scenes\138b.jpg,post,n,2.2149779999999737,None,,,,,,,,00012,001,2025-11-15_11h16.55.438,MST_test,2024.2.0,100.10450911084412,2025-11-15 11h17.15.046474 +0530,
11,0,12,s,1.5346452000012505,None,12,0,11,197.737226199999,,,,,,,,,,,,,,,,,,,,,,,,,,,,,,,,,,,,,,,,,,,,,,,,,,197.7292024999988,197.737226199999,198.2439334999981,198.2281927999975,198.24107559999902,198.2439334999981,198.2439334999981,198.2439334999981,199.78882069999963,Objects\003b.jpg,mid,s,1.5346452000012505,None,,,,,,,,00012,001,2025-11-15_11h16.55.438,MST_test,2024.2.0,100.10450911084412,2025-11-15 11h17.15.046474 +0530,
12,0,13,o,2.0573112000020046,None,13,0,12,199.79685509999763,,,,,,,,,,,,,,,,,,,,,,,,,,,,,,,,,,,,,,,,,,,,,,,,,,199.78910019999967,199.79685509999763,200.31322630000068,200.28818169999795,200.31023419999838,200.31322630000068,200.31322630000068,200.31322630000068,202.37834839999778,Scenes\125b.jpg,mid,o,2.0573112000020046,None,,,,,,,,00012,001,2025-11-15_11h16.55.438,MST_test,2024.2.0,100.10450911084412,2025-11-15 11h17.15.046474 +0530,
13,0,14,s,1.9986939000009443,None,14,0,13,202.38659919999918,,,,,,,,,,,,,,,,,,,,,,,,,,,,,,,,,,,,,,,,,,,,,,,,,,202.37864139999874,202.38659919999918,202.90050569999948,202.8778586999979,202.89719689999765,202.90050569999948,202.90050569999948,202.90050569999948,204.90861249999944,Scenes\074a.jpg,mid,s,1.9986939000009443,None,,,,,,,,00012,001,2025-11-15_11h16.55.438,MST_test,2024.2.0,100.10450911084412,2025-11-15 11h17.15.046474 +0530,
14,0,15,o,1.9170960000010382,None,15,0,14,204.91631000000052,,,,,,,,,,,,,,,,,,,,,,,,,,,,,,,,,,,,,,,,,,,,,,,,,,204.90887369999837,204.91631000000052,205.42978049999874,205.40746029999718,205.4264215999974,205.42978049999874,205.42978049999874,205.42978049999874,207.34844669999802,Scenes\119a.jpg,pre,o,1.9170960000010382,None,,,,,,,,00012,001,2025-11-15_11h16.55.438,MST_test,2024.2.0,100.10450911084412,2025-11-15 11h17.15.046474 +0530,
15,0,16,n,1.8453831000006176,None,16,0,15,207.35589039999832,,,,,,,,,,,,,,,,,,,,,,,,,,,,,,,,,,,,,,,,,,,,,,,,,,207.34878069999831,207.35589039999832,207.9251105000003,207.8462507999975,207.92079679999733,207.9251105000003,207.9251105000003,207.9251105000003,209.77788569999757,Foils\scenes25.jpg,none,n,1.8453831000006176,None,,,,,,,,00012,001,2025-11-15_11h16.55.438,MST_test,2024.2.0,100.10450911084412,2025-11-15 11h17.15.046474 +0530,
16,0,17,s,3.5154256999994686,None,17,0,16,209.7855982000001,,,,,,,,,,,,,,,,,,,,,,,,,,,,,,,,,,,,,,,,,,,,,,,,,,209.7781713000004,209.7855982000001,210.30374350000056,210.27699249999932,210.3011770999983,210.30374350000056,210.30374350000056,210.30374350000056,213.82688779999808,Objects\104b.jpg,post,s,3.5154256999994686,None,,,,,,,,00012,001,2025-11-15_11h16.55.438,MST_test,2024.2.0,100.10450911084412,2025-11-15 11h17.15.046474 +0530,
17,0,18,s,2.5487455999973463,None,18,0,17,213.83510749999914,,,,,,,,,,,,,,,,,,,,,,,,,,,,,,,,,,,,,,,,,,,,,,,,,,213.8271848000004,213.83510749999914,214.34169259999908,214.3263240999986,214.33922149999853,214.34169259999908,214.34169259999908,214.34169259999908,216.89702209999814,Foils\065a.jpg,none,s,2.5487455999973463,None,,,,,,,,00012,001,2025-11-15_11h16.55.438,MST_test,2024.2.0,100.10450911084412,2025-11-15 11h17.15.046474 +0530,
18,0,19,s,2.1553081999991264,None,19,0,18,216.90476529999796,,,,,,,,,,,,,,,,,,,,,,,,,,,,,,,,,,,,,,,,,,,,,,,,,,216.8973855999975,216.90476529999796,217.4234034000001,217.3960186000004,217.41973549999966,217.4234034000001,217.4234034000001,217.4234034000001,219.58681009999782,Scenes\084b.jpg,mid,s,2.1553081999991264,None,,,,,,,,00012,001,2025-11-15_11h16.55.438,MST_test,2024.2.0,100.10450911084412,2025-11-15 11h17.15.046474 +0530,
19,0,20,s,2.1463063999981387,None,20,0,19,219.59456679999857,,,,,,,,,,,,,,,,,,,,,,,,,,,,,,,,,,,,,,,,,,,,,,,,,,219.58713239999997,219.59456679999857,220.10449460000018,220.08569539999735,220.10144699999728,220.10449460000018,220.10449460000018,220.10449460000018,222.2559567999997,Scenes\087b.jpg,pre,s,2.1463063999981387,None,,,,,,,,00012,001,2025-11-15_11h16.55.438,MST_test,2024.2.0,100.10450911084412,2025-11-15 11h17.15.046474 +0530,
20,0,21,o,2.3984687000011036,None,21,0,20,222.2641384999988,,,,,,,,,,,,,,,,,,,,,,,,,,,,,,,,,,,,,,,,,,,,,,,,,,222.25621339999998,222.2641384999988,222.77297270000054,222.75527879999936,222.77007719999892,222.77297270000054,222.77297270000054,222.77297270000054,225.17512349999743,Objects\122a.jpg,post,o,2.3984687000011036,None,,,,,,,,00012,001,2025-11-15_11h16.55.438,MST_test,2024.2.0,100.10450911084412,2025-11-15 11h17.15.046474 +0530,
21,0,22,o,2.312413399999059,None,22,0,21,225.18359009999767,,,,,,,,,,,,,,,,,,,,,,,,,,,,,,,,,,,,,,,,,,,,,,,,,,225.17531749999762,225.18359009999767,225.69061650000003,225.67465810000067,225.68823729999713,225.69061650000003,225.69061650000003,225.69061650000003,228.0048676999977,Objects\039b.jpg,mid,o,2.312413399999059,None,,,,,,,,00012,001,2025-11-15_11h16.55.438,MST_test,2024.2.0,100.10450911084412,2025-11-15 11h17.15.046474 +0530,
22,0,23,o,2.5305303999994067,None,23,0,22,228.0131505999998,,,,,,,,,,,,,,,,,,,,,,,,,,,,,,,,,,,,,,,,,,,,,,,,,,228.00512489999892,228.0131505999998,228.5200358999973,228.5040427999993,228.51762429999872,228.5200358999973,228.5200358999973,228.5200358999973,231.05452729999888,Objects\097a.jpg,post,o,2.5305303999994067,None,,,,,,,,00012,001,2025-11-15_11h16.55.438,MST_test,2024.2.0,100.10450911084412,2025-11-15 11h17.15.046474 +0530,
23,0,24,n,2.0244667000006302,None,24,0,23,231.06275169999935,,,,,,,,,,,,,,,,,,,,,,,,,,,,,,,,,,,,,,,,,,,,,,,,,,231.05478719999883,231.06275169999935,231.5781191999995,231.55395700000008,231.57511659999727,231.5781191999995,231.5781191999995,231.5781191999995,233.60445339999933,Scenes\031b.jpg,post,n,2.0244667000006302,None,,,,,,,,00012,001,2025-11-15_11h16.55.438,MST_test,2024.2.0,100.10450911084412,2025-11-15 11h17.15.046474 +0530,
24,0,25,s,2.984121600002254,None,25,0,24,233.61247989999902,,,,,,,,,,,,,,,,,,,,,,,,,,,,,,,,,,,,,,,,,,,,,,,,,,233.60471959999995,233.61247989999902,234.12286119999771,234.10357219999787,234.11981100000048,234.12286119999771,234.12286119999771,234.12286119999771,237.11354389999906,Scenes\168b.jpg,mid,s,2.984121600002254,None,,,,,,,,00012,001,2025-11-15_11h16.55.438,MST_test,2024.2.0,100.10450911084412,2025-11-15 11h17.15.046474 +0530,
25,0,26,s,3.1971314000002167,None,26,0,25,237.12198139999964,,,,,,,,,,,,,,,,,,,,,,,,,,,,,,,,,,,,,,,,,,,,,,,,,,237.11379179999858,237.12198139999964,237.63090349999766,237.61321730000054,237.62843499999872,237.63090349999766,237.63090349999766,237.63090349999766,240.8335165999997,Scenes\006b.jpg,post,s,3.1971314000002167,None,,,,,,,,00012,001,2025-11-15_11h16.55.438,MST_test,2024.2.0,100.10450911084412,2025-11-15 11h17.15.046474 +0530,
26,0,27,o,2.5649422999995295,None,27,0,26,240.84152579999864,,,,,,,,,,,,,,,,,,,,,,,,,,,,,,,,,,,,,,,,,,,,,,,,,,240.833799,240.84152579999864,241.3495944999995,241.33255899999858,241.34682339999927,241.3495944999995,241.3495944999995,241.3495944999995,243.9230776000004,Objects\142b.jpg,mid,o,2.5649422999995295,None,,,,,,,,00012,001,2025-11-15_11h16.55.438,MST_test,2024.2.0,100.10450911084412,2025-11-15 11h17.15.046474 +0530,
27,0,28,n,2.7565513999979885,None,28,0,27,243.931124499999,,,,,,,,,,,,,,,,,,,,,,,,,,,,,,,,,,,,,,,,,,,,,,,,,,243.92344429999866,243.931124499999,244.43804199999795,244.4224832999971,244.4358375999982,244.43804199999795,244.43804199999795,244.43804199999795,247.20250569999916,Foils\121a.jpg,none,n,2.7565513999979885,None,,,,,,,,00012,001,2025-11-15_11h16.55.438,MST_test,2024.2.0,100.10450911084412,2025-11-15 11h17.15.046474 +0530,
28,0,29,o,2.437810100000206,None,29,0,28,247.21071529999972,,,,,,,,,,,,,,,,,,,,,,,,,,,,,,,,,,,,,,,,,,,,,,,,,,247.20279929999742,247.21071529999972,247.71782179999718,247.70204659999945,247.71554689999903,247.71782179999718,247.71782179999718,247.71782179999718,250.162131699999,Objects\120a.jpg,mid,o,2.437810100000206,None,,,,,,,,00012,001,2025-11-15_11h16.55.438,MST_test,2024.2.0,100.10450911084412,2025-11-15 11h17.15.046474 +0530,
29,0,30,s,2.420804000001226,None,30,0,29,250.17033309999897,,,,,,,,,,,,,,,,,,,,,,,,,,,,,,,,,,,,,,,,,,,,,,,,,,250.16237309999997,250.17033309999897,250.68579829999726,250.66180809999787,250.68292400000064,250.68579829999726,250.68579829999726,250.68579829999726,253.11203240000032,Scenes\128b.jpg,mid,s,2.420804000001226,None,,,,,,,,00012,001,2025-11-15_11h16.55.438,MST_test,2024.2.0,100.10450911084412,2025-11-15 11h17.15.046474 +0530,
30,0,31,o,2.2155027000007976,None,31,0,30,253.12017469999773,,,,,,,,,,,,,,,,,,,,,,,,,,,,,,,,,,,,,,,,,,,,,,,,,,253.11230409999916,253.12017469999773,253.6275347999981,253.6113364999983,253.62476550000065,253.6275347999981,253.6275347999981,253.6275347999981,255.85241300000052,Objects\077a.jpg,mid,o,2.2155027000007976,None,,,,,,,,00012,001,2025-11-15_11h16.55.438,MST_test,2024.2.0,100.10450911084412,2025-11-15 11h17.15.046474 +0530,
31,0,32,n,2.747561799998948,None,32,0,31,255.85975169999801,,,,,,,,,,,,,,,,,,,,,,,,,,,,,,,,,,,,,,,,,,,,,,,,,,255.85275869999896,255.85975169999801,256.3669152000002,256.35097269999824,256.3642440000003,256.3669152000002,256.3669152000002,256.3669152000002,259.1210436000001,Foils\scenes16.jpg,none,n,2.747561799998948,None,,,,,,,,00012,001,2025-11-15_11h16.55.438,MST_test,2024.2.0,100.10450911084412,2025-11-15 11h17.15.046474 +0530,
32,0,33,o,3.167819900001632,None,33,0,32,259.12926289999814,,,,,,,,,,,,,,,,,,,,,,,,,,,,,,,,,,,,,,,,,,,,,,,,,,259.1212959999975,259.12926289999814,259.6433741999972,259.62080929999865,259.6405730999977,259.6433741999972,259.6433741999972,259.6433741999972,262.8207005000004,Scenes\100a.jpg,post,o,3.167819900001632,None,,,,,,,,00012,001,2025-11-15_11h16.55.438,MST_test,2024.2.0,100.10450911084412,2025-11-15 11h17.15.046474 +0530,
33,0,34,o,2.9384562999985064,None,34,0,33,262.82887929999924,,,,,,,,,,,,,,,,,,,,,,,,,,,,,,,,,,,,,,,,,,,,,,,,,,262.82095370000025,262.82887929999924,263.3362154999995,263.3196074000007,263.33325289999993,263.3362154999995,263.3362154999995,263.3362154999995,266.2802350999991,Scenes\061a.jpg,pre,o,2.9384562999985064,None,,,,,,,,00012,001,2025-11-15_11h16.55.438,MST_test,2024.2.0,100.10450911084412,2025-11-15 11h17.15.046474 +0530,
34,0,35,s,2.5345852999998897,None,35,0,34,266.28833549999763,,,,,,,,,,,,,,,,,,,,,,,,,,,,,,,,,,,,,,,,,,,,,,,,,,266.2805544999974,266.28833549999763,266.7965992999998,266.77921389999756,266.79400969999915,266.7965992999998,266.7965992999998,266.7965992999998,269.33990260000064,Objects\109b.jpg,post,s,2.5345852999998897,None,,,,,,,,00012,001,2025-11-15_11h16.55.438,MST_test,2024.2.0,100.10450911084412,2025-11-15 11h17.15.046474 +0530,
35,0,36,s,3.5990130999998655,None,36,0,35,269.34815119999985,,,,,,,,,,,,,,,,,,,,,,,,,,,,,,,,,,,,,,,,,,,,,,,,,,269.34016709999923,269.34815119999985,269.86017340000035,269.8388319000005,269.85708469999736,269.86017340000035,269.86017340000035,269.86017340000035,273.4695991999979,Scenes\161b.jpg,mid,s,3.5990130999998655,None,,,,,,,,00012,001,2025-11-15_11h16.55.438,MST_test,2024.2.0,100.10450911084412,2025-11-15 11h17.15.046474 +0530,
36,0,37,n,2.096988199999032,None,37,0,36,273.4775871999991,,,,,,,,,,,,,,,,,,,,,,,,,,,,,,,,,,,,,,,,,,,,,,,,,,273.4698693999999,273.4775871999991,273.9862585999981,273.9687679999988,273.9831226999995,273.9862585999981,273.9862585999981,273.9862585999981,276.0895281999983,Scenes\096a.jpg,pre,n,2.096988199999032,None,,,,,,,,00012,001,2025-11-15_11h16.55.438,MST_test,2024.2.0,100.10450911084412,2025-11-15 11h17.15.046474 +0530,
37,0,38,o,3.7072234000006574,None,38,0,37,276.0971243999993,,,,,,,,,,,,,,,,,,,,,,,,,,,,,,,,,,,,,,,,,,,,,,,,,,276.08983969999827,276.0971243999993,276.6073326000005,276.5885562000003,276.6043912999994,276.6073326000005,276.6073326000005,276.6073326000005,280.31865059999836,Scenes\163a.jpg,mid,o,3.7072234000006574,None,,,,,,,,00012,001,2025-11-15_11h16.55.438,MST_test,2024.2.0,100.10450911084412,2025-11-15 11h17.15.046474 +0530,
38,0,39,o,4.279237699996884,None,39,0,38,280.32654999999795,,,,,,,,,,,,,,,,,,,,,,,,,,,,,,,,,,,,,,,,,,,,,,,,,,280.3188803999983,280.32654999999795,280.8357090999998,280.8176781999973,280.83296209999753,280.8357090999998,280.8357090999998,280.8357090999998,285.1180867999974,Objects\099b.jpg,post,o,4.279237699996884,None,,,,,,,,00012,001,2025-11-15_11h16.55.438,MST_test,2024.2.0,100.10450911084412,2025-11-15 11h17.15.046474 +0530,
39,0,40,n,4.128488300000754,None,40,0,39,285.1259424999989,,,,,,,,,,,,,,,,,,,,,,,,,,,,,,,,,,,,,,,,,,,,,,,,,,285.1183160999972,285.1259424999989,285.6343042999979,285.6170609999972,285.6320096999989,285.6343042999979,285.6343042999979,285.6343042999979,289.7673302000003,Foils\034a.jpg,none,n,4.128488300000754,None,,,,,,,,00012,001,2025-11-15_11h16.55.438,MST_test,2024.2.0,100.10450911084412,2025-11-15 11h17.15.046474 +0530,
40,0,41,s,10.617752199999813,None,41,0,40,289.7754085999986,,,,,,,,,,,,,,,,,,,,,,,,,,,,,,,,,,,,,,,,,,,,,,,,,,289.7676690999979,289.7754085999986,290.3128942000003,290.2665946999987,290.3090262000005,290.3128942000003,290.3128942000003,290.3128942000003,300.9355665000003,Foils\scenes15.jpg,none,s,10.617752199999813,None,,,,,,,,00012,001,2025-11-15_11h16.55.438,MST_test,2024.2.0,100.10450911084412,2025-11-15 11h17.15.046474 +0530,
41,0,42,o,3.0095738000018173,None,42,0,41,300.9438614999999,,,,,,,,,,,,,,,,,,,,,,,,,,,,,,,,,,,,,,,,,,,,,,,,,,300.93583619999845,300.9438614999999,301.45719520000057,301.43506200000047,301.4524644999983,301.45719520000057,301.45719520000057,301.45719520000057,304.47540110000045,Scenes\007a.jpg,post,o,3.0095738000018173,None,,,,,,,,00012,001,2025-11-15_11h16.55.438,MST_test,2024.2.0,100.10450911084412,2025-11-15 11h17.15.046474 +0530,
42,0,43,n,1.3211324000003515,None,43,0,42,304.4835158999995,,,,,,,,,,,,,,,,,,,,,,,,,,,,,,,,,,,,,,,,,,,,,,,,,,304.4756654999983,304.4835158999995,304.99413419999837,304.9747915000007,304.9911734999987,304.99413419999837,304.99413419999837,304.99413419999837,306.3248504000003,Scenes\129a.jpg,post,n,1.3211324000003515,None,,,,,,,,00012,001,2025-11-15_11h16.55.438,MST_test,2024.2.0,100.10450911084412,2025-11-15 11h17.15.046474 +0530,
43,0,44,s,5.678345199998148,None,44,0,43,306.33328889999757,,,,,,,,,,,,,,,,,,,,,,,,,,,,,,,,,,,,,,,,,,,,,,,,,,306.32506400000057,306.33328889999757,306.84442579999813,306.8244954999973,306.8415103999978,306.84442579999813,306.84442579999813,306.84442579999813,312.5245193999981,Scenes\162b.jpg,mid,s,5.678345199998148,None,,,,,,,,00012,001,2025-11-15_11h16.55.438,MST_test,2024.2.0,100.10450911084412,2025-11-15 11h17.15.046474 +0530,
44,0,45,s,3.0419337000021187,None,45,0,44,312.53256730000066,,,,,,,,,,,,,,,,,,,,,,,,,,,,,,,,,,,,,,,,,,,,,,,,,,312.52476509999906,312.53256730000066,313.0417914999998,313.0233670999987,313.0387765999985,313.0417914999998,313.0417914999998,313.0417914999998,316.09327199999825,Objects\144a.jpg,pre,s,3.0419337000021187,None,,,,,,,,00012,001,2025-11-15_11h16.55.438,MST_test,2024.2.0,100.10450911084412,2025-11-15 11h17.15.046474 +0530,
45,0,46,n,2.79389860000083,None,46,0,45,316.1021011999983,,,,,,,,,,,,,,,,,,,,,,,,,,,,,,,,,,,,,,,,,,,,,,,,,,316.0934348999981,316.1021011999983,316.6087826999974,316.59358559999964,316.6059949999981,316.6087826999974,316.6087826999974,316.6087826999974,319.4039082999989,Foils\scenes20.jpg,none,n,2.79389860000083,None,,,,,,,,00012,001,2025-11-15_11h16.55.438,MST_test,2024.2.0,100.10450911084412,2025-11-15 11h17.15.046474 +0530,
46,0,47,s,2.0889164000000164,None,47,0,46,319.41181759999745,,,,,,,,,,,,,,,,,,,,,,,,,,,,,,,,,,,,,,,,,,,,,,,,,,319.40415629999916,319.41181759999745,319.9221671999985,319.902823299999,319.9193352000002,319.9221671999985,319.9221671999985,319.9221671999985,322.01372830000037,Objects\059a.jpg,post,s,2.0889164000000164,None,,,,,,,,00012,001,2025-11-15_11h16.55.438,MST_test,2024.2.0,100.10450911084412,2025-11-15 11h17.15.046474 +0530,
47,0,48,n,5.30574709999928,None,48,0,47,322.02147289999994,,,,,,,,,,,,,,,,,,,,,,,,,,,,,,,,,,,,,,,,,,,,,,,,,,322.0140320999999,322.02147289999994,322.53726529999767,322.51254569999946,322.534261599998,322.53726529999767,322.53726529999767,322.53726529999767,327.8524569000001,Scenes\086a.jpg,mid,n,5.30574709999928,None,,,,,,,,00012,001,2025-11-15_11h16.55.438,MST_test,2024.2.0,100.10450911084412,2025-11-15 11h17.15.046474 +0530,
48,0,49,n,7.539511899998615,None,49,0,48,327.86073589999796,,,,,,,,,,,,,,,,,,,,,,,,,,,,,,,,,,,,,,,,,,,,,,,,,,327.85269569999946,327.86073589999796,328.3673658999978,328.35145049999846,328.36441790000026,328.3673658999978,328.3673658999978,328.3673658999978,335.91257939999923,Objects\075b.jpg,mid,n,7.539511899998615,None,,,,,,,,00012,001,2025-11-15_11h16.55.438,MST_test,2024.2.0,100.10450911084412,2025-11-15 11h17.15.046474 +0530,
49,0,50,n,1.647865399998409,None,50,0,49,335.9197604999972,,,,,,,,,,,,,,,,,,,,,,,,,,,,,,,,,,,,,,,,,,,,,,,,,,335.91290859999935,335.9197604999972,336.65151250000054,336.4105163999993,336.6453240999981,336.65151250000054,336.65151250000054,336.65151250000054,338.3010226999977,Foils\scenes26.jpg,none,n,1.647865399998409,None,,,,,,,,00012,001,2025-11-15_11h16.55.438,MST_test,2024.2.0,100.10450911084412,2025-11-15 11h17.15.046474 +0530,
50,0,51,s,5.625192200001038,None,51,0,50,338.30944499999896,,,,,,,,,,,,,,,,,,,,,,,,,,,,,,,,,,,,,,,,,,,,,,,,,,338.3012192999995,338.30944499999896,338.84131960000013,338.8008431999988,338.83874809999907,338.84131960000013,338.84131960000013,338.84131960000013,344.4706441999988,Objects\151a.jpg,mid,s,5.625192200001038,None,,,,,,,,00012,001,2025-11-15_11h16.55.438,MST_test,2024.2.0,100.10450911084412,2025-11-15 11h17.15.046474 +0530,
51,0,52,n,2.3334868000019924,None,52,0,51,344.47866950000025,,,,,,,,,,,,,,,,,,,,,,,,,,,,,,,,,,,,,,,,,,,,,,,,,,344.47089499999856,344.47866950000025,344.98921399999745,344.9694657,344.9863536999983,344.98921399999745,344.98921399999745,344.98921399999745,347.3304977000007,Scenes\113b.jpg,pre,n,2.3334868000019924,None,,,,,,,,00012,001,2025-11-15_11h16.55.438,MST_test,2024.2.0,100.10450911084412,2025-11-15 11h17.15.046474 +0530,
52,0,53,n,2.4117905000020983,None,53,0,52,347.3383006999975,,,,,,,,,,,,,,,,,,,,,,,,,,,,,,,,,,,,,,,,,,,,,,,,,,347.3308029,347.3383006999975,347.84717850000015,347.8292354999976,347.84446279999975,347.84717850000015,347.84717850000015,347.84717850000015,350.26931259999765,Foils\073a.jpg,none,n,2.4117905000020983,None,,,,,,,,00012,001,2025-11-15_11h16.55.438,MST_test,2024.2.0,100.10450911084412,2025-11-15 11h17.15.046474 +0530,
53,0,54,s,2.7647686999989673,None,54,0,53,350.2777626999996,,,,,,,,,,,,,,,,,,,,,,,,,,,,,,,,,,,,,,,,,,,,,,,,,,350.26955579999776,350.2777626999996,350.78180679999787,350.76822099999845,350.7792604999995,350.78180679999787,350.78180679999787,350.78180679999787,353.54908499999874,Objects\183b.jpg,pre,s,2.7647686999989673,None,,,,,,,,00012,001,2025-11-15_11h16.55.438,MST_test,2024.2.0,100.10450911084412,2025-11-15 11h17.15.046474 +0530,
54,0,55,s,2.8337688999999955,None,55,0,54,353.55732010000065,,,,,,,,,,,,,,,,,,,,,,,,,,,,,,,,,,,,,,,,,,,,,,,,,,353.5493392999997,353.55732010000065,354.0648562999995,354.04860279999775,354.0625751000007,354.0648562999995,354.0648562999995,354.0648562999995,356.9089430999993,Objects\047b.jpg,post,s,2.8337688999999955,None,,,,,,,,00012,001,2025-11-15_11h16.55.438,MST_test,2024.2.0,100.10450911084412,2025-11-15 11h17.15.046474 +0530,
55,0,56,n,1.5228945999988355,None,56,0,55,356.91695699999764,,,,,,,,,,,,,,,,,,,,,,,,,,,,,,,,,,,,,,,,,,,,,,,,,,356.9092844000006,356.91695699999764,357.4241108999995,357.40824280000015,357.42169959999956,357.4241108999995,357.4241108999995,357.4241108999995,358.94923039999776,Foils\082a.jpg,none,n,1.5228945999988355,None,,,,,,,,00012,001,2025-11-15_11h16.55.438,MST_test,2024.2.0,100.10450911084412,2025-11-15 11h17.15.046474 +0530,
56,0,57,s,3.345996899999591,None,57,0,56,358.95669409999755,,,,,,,,,,,,,,,,,,,,,,,,,,,,,,,,,,,,,,,,,,,,,,,,,,358.9495333999985,358.95669409999755,359.4726816000002,359.4480315999972,359.4696535999974,359.4726816000002,359.4726816000002,359.4726816000002,362.82748779999747,Scenes\072b.jpg,mid,s,3.345996899999591,None,,,,,,,,00012,001,2025-11-15_11h16.55.438,MST_test,2024.2.0,100.10450911084412,2025-11-15 11h17.15.046474 +0530,
57,0,58,o,1.895428300002095,None,58,0,57,362.8361530999973,,,,,,,,,,,,,,,,,,,,,,,,,,,,,,,,,,,,,,,,,,,,,,,,,,362.82778300000064,362.8361530999973,363.34745230000044,363.32746620000034,363.34431419999964,363.34745230000044,363.34745230000044,363.34745230000044,365.2473527000002,Objects\069b.jpg,pre,o,1.895428300002095,None,,,,,,,,00012,001,2025-11-15_11h16.55.438,MST_test,2024.2.0,100.10450911084412,2025-11-15 11h17.15.046474 +0530,
58,0,59,s,2.239627900002233,None,59,0,58,365.25583619999816,,,,,,,,,,,,,,,,,,,,,,,,,,,,,,,,,,,,,,,,,,,,,,,,,,365.2475784999988,365.25583619999816,365.76278869999805,365.7469268999994,365.76043669999854,365.76278869999805,365.76278869999805,365.76278869999805,368.0064600000005,Objects\004a.jpg,post,s,2.239627900002233,None,,,,,,,,00012,001,2025-11-15_11h16.55.438,MST_test,2024.2.0,100.10450911084412,2025-11-15 11h17.15.046474 +0530,
59,0,60,n,1.4637249000006705,None,60,0,59,368.01544999999896,,,,,,,,,,,,,,,,,,,,,,,,,,,,,,,,,,,,,,,,,,,,,,,,,,368.0066439000002,368.01544999999896,368.52284769999824,368.50697509999736,368.5205891000005,368.52284769999824,368.52284769999824,368.52284769999824,369.9965841999983,Objects\041b.jpg,post,n,1.4637249000006705,None,,,,,,,,00012,001,2025-11-15_11h16.55.438,MST_test,2024.2.0,100.10450911084412,2025-11-15 11h17.15.046474 +0530,
60,0,61,o,1.8450117000029422,None,61,0,60,370.0052555999973,,,,,,,,,,,,,,,,,,,,,,,,,,,,,,,,,,,,,,,,,,,,,,,,,,369.9968044999987,370.0052555999973,370.5098779,370.496492899998,370.5075450000004,370.5098779,370.5098779,370.5098779,372.3568173999993,Objects\089a.jpg,pre,o,1.8450117000029422,None,,,,,,,,00012,001,2025-11-15_11h16.55.438,MST_test,2024.2.0,100.10450911084412,2025-11-15 11h17.15.046474 +0530,
61,0,62,n,2.8183983999988413,None,62,0,61,372.36495060000016,,,,,,,,,,,,,,,,,,,,,,,,,,,,,,,,,,,,,,,,,,,,,,,,,,372.3570789999976,372.36495060000016,372.8728501000005,372.85631379999904,372.8703855999993,372.8728501000005,372.8728501000005,372.8728501000005,375.69671480000034,Objects\130a.jpg,post,n,2.8183983999988413,None,,,,,,,,00012,001,2025-11-15_11h16.55.438,MST_test,2024.2.0,100.10450911084412,2025-11-15 11h17.15.046474 +0530,
62,0,63,n,2.158775899999455,None,63,0,62,375.704700899998,,,,,,,,,,,,,,,,,,,,,,,,,,,,,,,,,,,,,,,,,,,,,,,,,,375.6969778999992,375.704700899998,376.2121776999993,376.1955777000003,376.20957519999865,376.2121776999993,376.2121776999993,376.2121776999993,378.3760137999998,Foils\scenes12.jpg,none,n,2.158775899999455,None,,,,,,,,00012,001,2025-11-15_11h16.55.438,MST_test,2024.2.0,100.10450911084412,2025-11-15 11h17.15.046474 +0530,
63,0,64,s,1.7992688999984239,None,64,0,63,378.3842296999974,,,,,,,,,,,,,,,,,,,,,,,,,,,,,,,,,,,,,,,,,,,,,,,,,,378.3762691999982,378.3842296999974,378.89166329999716,378.87555359999897,378.88901839999744,378.89166329999716,378.89166329999716,378.89166329999716,380.69563259999995,Objects\185a.jpg,pre,s,1.7992688999984239,None,,,,,,,,00012,001,2025-11-15_11h16.55.438,MST_test,2024.2.0,100.10450911084412,2025-11-15 11h17.15.046474 +0530,
64,0,65,o,2.2859598999966693,None,65,0,64,380.7038943000007,,,,,,,,,,,,,,,,,,,,,,,,,,,,,,,,,,,,,,,,,,,,,,,,,,380.69595560000016,380.7038943000007,381.21338189999733,381.19509560000006,381.21092189999763,381.21338189999733,381.21338189999733,381.21338189999733,383.50523690000045,Objects\132a.jpg,pre,o,2.2859598999966693,None,,,,,,,,00012,001,2025-11-15_11h16.55.438,MST_test,2024.2.0,100.10450911084412,2025-11-15 11h17.15.046474 +0530,
65,0,66,s,6.054950599998847,None,66,0,65,383.5136586999979,,,,,,,,,,,,,,,,,,,,,,,,,,,,,,,,,,,,,,,,,,,,,,,,,,383.5055126999978,383.5136586999979,384.0196756999976,384.00466419999793,384.0174862999993,384.0196756999976,384.0196756999976,384.0196756999976,390.08483630000046,Objects\128a.jpg,mid,s,6.054950599998847,None,,,,,,,,00012,001,2025-11-15_11h16.55.438,MST_test,2024.2.0,100.10450911084412,2025-11-15 11h17.15.046474 +0530,
66,0,67,n,1.322502600000007,None,67,0,66,390.09274059999734,,,,,,,,,,,,,,,,,,,,,,,,,,,,,,,,,,,,,,,,,,,,,,,,,,390.0851167999972,390.09274059999734,390.5999993999976,390.5839651999995,390.59738559999823,390.5999993999976,390.5999993999976,390.5999993999976,391.9244507000003,Foils\scenes5.jpg,none,n,1.322502600000007,None,,,,,,,,00012,001,2025-11-15_11h16.55.438,MST_test,2024.2.0,100.10450911084412,2025-11-15 11h17.15.046474 +0530,
67,0,68,n,5.628345299999637,None,68,0,67,391.9325667999983,,,,,,,,,,,,,,,,,,,,,,,,,,,,,,,,,,,,,,,,,,,,,,,,,,391.92473809999865,391.9325667999983,392.4390394000002,392.42381419999947,392.4364733000002,392.4390394000002,392.4390394000002,392.4390394000002,398.0741987000001,Scenes\097a.jpg,post,n,5.628345299999637,None,,,,,,,,00012,001,2025-11-15_11h16.55.438,MST_test,2024.2.0,100.10450911084412,2025-11-15 11h17.15.046474 +0530,
68,0,69,s,2.0019811000020127,None,69,0,68,398.0818815999992,,,,,,,,,,,,,,,,,,,,,,,,,,,,,,,,,,,,,,,,,,,,,,,,,,398.07452679999915,398.0818815999992,398.5927712999983,398.57304029999796,398.5898464999991,398.5927712999983,398.5927712999983,398.5927712999983,400.6035516999982,Scenes\139a.jpg,pre,s,2.0019811000020127,None,,,,,,,,00012,001,2025-11-15_11h16.55.438,MST_test,2024.2.0,100.10450911084412,2025-11-15 11h17.15.046474 +0530,
69,0,70,n,1.202893600002426,None,70,0,69,400.6115357999988,,,,,,,,,,,,,,,,,,,,,,,,,,,,,,,,,,,,,,,,,,,,,,,,,,400.6038370999995,400.6115357999988,401.11969379999937,401.1025441999991,401.1170835999983,401.11969379999937,401.11969379999937,401.11969379999937,402.33261819999825,Foils\scenes13.jpg,none,n,1.202893600002426,None,,,,,,,,00012,001,2025-11-15_11h16.55.438,MST_test,2024.2.0,100.10450911084412,2025-11-15 11h17.15.046474 +0530,
70,0,71,n,2.8021297000013874,None,71,0,70,402.3412563999991,,,,,,,,,,,,,,,,,,,,,,,,,,,,,,,,,,,,,,,,,,,,,,,,,,402.3328326999981,402.3412563999991,402.8486402999988,402.8324543999988,402.84614209999927,402.8486402999988,402.8486402999988,402.8486402999988,405.65290280000045,Foils\017a.jpg,none,n,2.8021297000013874,None,,,,,,,,00012,001,2025-11-15_11h16.55.438,MST_test,2024.2.0,100.10450911084412,2025-11-15 11h17.15.046474 +0530,
71,0,72,s,1.5543876999981876,None,72,0,71,405.66092500000013,,,,,,,,,,,,,,,,,,,,,,,,,,,,,,,,,,,,,,,,,,,,,,,,,,405.65342189999865,405.66092500000013,406.1760562999989,406.15222209999774,406.1731633999989,406.1760562999989,406.1760562999989,406.1760562999989,407.73205659999803,Scenes\144a.jpg,pre,s,1.5543876999981876,None,,,,,,,,00012,001,2025-11-15_11h16.55.438,MST_test,2024.2.0,100.10450911084412,2025-11-15 11h17.15.046474 +0530,
72,0,73,n,2.12881379999817,None,73,0,72,407.74045339999793,,,,,,,,,,,,,,,,,,,,,,,,,,,,,,,,,,,,,,,,,,,,,,,,,,407.73226769999746,407.74045339999793,408.25047020000056,408.23184579999725,408.24746369999775,408.25047020000056,408.25047020000056,408.25047020000056,410.3822473,Foils\066a.jpg,none,n,2.12881379999817,None,,,,,,,,00012,001,2025-11-15_11h16.55.438,MST_test,2024.2.0,100.10450911084412,2025-11-15 11h17.15.046474 +0530,
73,0,74,o,4.004129599998123,None,74,0,73,410.3902956999991,,,,,,,,,,,,,,,,,,,,,,,,,,,,,,,,,,,,,,,,,,,,,,,,,,410.3824848999975,410.3902956999991,410.90365380000003,410.8815082999972,410.90070659999765,410.90365380000003,410.90365380000003,410.90365380000003,414.9111684999989,Scenes\093a.jpg,mid,o,4.004129599998123,None,,,,,,,,00012,001,2025-11-15_11h16.55.438,MST_test,2024.2.0,100.10450911084412,2025-11-15 11h17.15.046474 +0530,
74,0,75,n,1.7997040000009292,None,75,0,74,414.9196360999995,,,,,,,,,,,,,,,,,,,,,,,,,,,,,,,,,,,,,,,,,,,,,,,,,,414.91140769999765,414.9196360999995,415.4279525999991,415.41037139999753,415.4249476999976,415.4279525999991,415.4279525999991,415.4279525999991,417.2313393000004,Scenes\037a.jpg,pre,n,1.7997040000009292,None,,,,,,,,00012,001,2025-11-15_11h16.55.438,MST_test,2024.2.0,100.10450911084412,2025-11-15 11h17.15.046474 +0530,
75,0,76,s,1.9293730999997933,None,76,0,75,417.2393611999978,,,,,,,,,,,,,,,,,,,,,,,,,,,,,,,,,,,,,,,,,,,,,,,,,,417.23158209999747,417.2393611999978,417.7548069999975,417.73025849999976,417.75174589999733,417.7548069999975,417.7548069999975,417.7548069999975,419.69078939999963,Scenes\001a.jpg,post,s,1.9293730999997933,None,,,,,,,,00012,001,2025-11-15_11h16.55.438,MST_test,2024.2.0,100.10450911084412,2025-11-15 11h17.15.046474 +0530,
76,0,77,s,3.3112129000001005,None,77,0,76,419.69898850000027,,,,,,,,,,,,,,,,,,,,,,,,,,,,,,,,,,,,,,,,,,,,,,,,,,419.69106909999755,419.69898850000027,420.2041016999974,420.1897707999997,420.20117050000044,420.2041016999974,420.2041016999974,420.2041016999974,423.5201218000002,Objects\116a.jpg,post,s,3.3112129000001005,None,,,,,,,,00012,001,2025-11-15_11h16.55.438,MST_test,2024.2.0,100.10450911084412,2025-11-15 11h17.15.046474 +0530,
77,0,78,o,1.791731900000741,None,78,0,77,423.52853739999773,,,,,,,,,,,,,,,,,,,,,,,,,,,,,,,,,,,,,,,,,,,,,,,,,,423.5204627999992,423.52853739999773,424.03560429999925,424.0194126999995,424.0332282999989,424.03560429999925,424.03560429999925,424.03560429999925,425.82981759999893,Objects\064b.jpg,post,o,1.791731900000741,None,,,,,,,,00012,001,2025-11-15_11h16.55.438,MST_test,2024.2.0,100.10450911084412,2025-11-15 11h17.15.046474 +0530,
78,0,79,n,1.1410027000019909,None,79,0,78,425.8382695,,,,,,,,,,,,,,,,,,,,,,,,,,,,,,,,,,,,,,,,,,,,,,,,,,425.83003029999963,425.8382695,426.3423038999972,426.32851859999937,426.33994560000065,426.3423038999972,426.3423038999972,426.3423038999972,427.48970890000055,Objects\137b.jpg,pre,n,1.1410027000019909,None,,,,,,,,00012,001,2025-11-15_11h16.55.438,MST_test,2024.2.0,100.10450911084412,2025-11-15 11h17.15.046474 +0530,
79,0,80,n,1.431123000002117,None,80,0,79,427.497993099998,,,,,,,,,,,,,,,,,,,,,,,,,,,,,,,,,,,,,,,,,,,,,,,,,,427.48992929999804,427.497993099998,428.0036607999973,427.98931710000033,428.00108309999996,428.0036607999973,428.0036607999973,428.0036607999973,429.43913149999935,Foils\scenes7.jpg,none,n,1.431123000002117,None,,,,,,,,00012,001,2025-11-15_11h16.55.438,MST_test,2024.2.0,100.10450911084412,2025-11-15 11h17.15.046474 +0530,
80,0,81,o,2.3735187999991467,None,81,0,80,429.4477401999975,,,,,,,,,,,,,,,,,,,,,,,,,,,,,,,,,,,,,,,,,,,,,,,,,,429.4393500999977,429.4477401999975,429.9574193999979,429.93890979999924,429.9548001000003,429.9574193999979,429.9574193999979,429.9574193999979,432.3393552999987,Scenes\071b.jpg,mid,o,2.3735187999991467,None,,,,,,,,00012,001,2025-11-15_11h16.55.438,MST_test,2024.2.0,100.10450911084412,2025-11-15 11h17.15.046474 +0530,
81,0,82,n,2.0364220999981626,None,82,0,81,432.34752039999876,,,,,,,,,,,,,,,,,,,,,,,,,,,,,,,,,,,,,,,,,,,,,,,,,,432.33962039999824,432.34752039999876,432.8539927999991,432.8384287999979,432.8512594999993,432.8539927999991,432.8539927999991,432.8539927999991,434.899516999998,Objects\112a.jpg,pre,n,2.0364220999981626,None,,,,,,,,00012,001,2025-11-15_11h16.55.438,MST_test,2024.2.0,100.10450911084412,2025-11-15 11h17.15.046474 +0530,
82,0,83,n,4.592842999998538,None,83,0,82,434.90721029999986,,,,,,,,,,,,,,,,,,,,,,,,,,,,,,,,,,,,,,,,,,,,,,,,,,434.8998326000001,434.90721029999986,435.4103447999987,435.3975498999971,435.4076451000001,435.4103447999987,435.4103447999987,435.4103447999987,440.00783020000017,Objects\145a.jpg,post,n,4.592842999998538,None,,,,,,,,00012,001,2025-11-15_11h16.55.438,MST_test,2024.2.0,100.10450911084412,2025-11-15 11h17.15.046474 +0530,
83,0,84,s,3.190473300001031,None,84,0,83,440.0164829999994,,,,,,,,,,,,,,,,,,,,,,,,,,,,,,,,,,,,,,,,,,,,,,,,,,440.00803189999715,440.0164829999994,440.5240230999989,440.5077395999979,440.52166600000055,440.5240230999989,440.5240230999989,440.5240230999989,443.71803179999915,Objects\098b.jpg,post,s,3.190473300001031,None,,,,,,,,00012,001,2025-11-15_11h16.55.438,MST_test,2024.2.0,100.10450911084412,2025-11-15 11h17.15.046474 +0530,
84,0,85,s,1.1058674000014435,None,85,0,84,443.7259766999996,,,,,,,,,,,,,,,,,,,,,,,,,,,,,,,,,,,,,,,,,,,,,,,,,,443.71829629999775,443.7259766999996,444.2327867999993,444.2173593999978,444.2302807999986,444.2327867999993,444.2327867999993,444.2327867999993,445.34779759999947,Objects\154b.jpg,pre,s,1.1058674000014435,None,,,,,,,,00012,001,2025-11-15_11h16.55.438,MST_test,2024.2.0,100.10450911084412,2025-11-15 11h17.15.046474 +0530,
85,0,86,n,2.260272499999701,None,86,0,85,445.35589289999916,,,,,,,,,,,,,,,,,,,,,,,,,,,,,,,,,,,,,,,,,,,,,,,,,,445.3480442999971,445.35589289999916,445.8629125999978,445.84706150000056,445.8605981999972,445.8629125999978,445.8629125999978,445.8629125999978,448.12733189999926,Objects\134b.jpg,mid,n,2.260272499999701,None,,,,,,,,00012,001,2025-11-15_11h16.55.438,MST_test,2024.2.0,100.10450911084412,2025-11-15 11h17.15.046474 +0530,
86,0,87,s,1.6753769000024477,None,87,0,86,448.1354971999972,,,,,,,,,,,,,,,,,,,,,,,,,,,,,,,,,,,,,,,,,,,,,,,,,,448.1276265999986,448.1354971999972,448.6479127999992,448.62674349999725,448.645089499998,448.6479127999992,448.6479127999992,448.6479127999992,450.3275393999975,Scenes\160a.jpg,mid,s,1.6753769000024477,None,,,,,,,,00012,001,2025-11-15_11h16.55.438,MST_test,2024.2.0,100.10450911084412,2025-11-15 11h17.15.046474 +0530,
87,0,88,s,2.2928472999992664,None,88,0,87,450.33534789999976,,,,,,,,,,,,,,,,,,,,,,,,,,,,,,,,,,,,,,,,,,,,,,,,,,450.32781039999827,450.33534789999976,450.84583129999737,450.8257173999991,450.84275100000013,450.84583129999737,450.84583129999737,450.84583129999737,453.1469107999983,Scenes\175b.jpg,mid,s,2.2928472999992664,None,,,,,,,,00012,001,2025-11-15_11h16.55.438,MST_test,2024.2.0,100.10450911084412,2025-11-15 11h17.15.046474 +0530,
88,0,89,n,2.1868988999995054,None,89,0,88,453.1548507999978,,,,,,,,,,,,,,,,,,,,,,,,,,,,,,,,,,,,,,,,,,,,,,,,,,453.1471500000007,453.1548507999978,453.66380819999904,453.6461230999994,453.66092729999946,453.66380819999904,453.66380819999904,453.66380819999904,455.8562850999988,Foils\098a.jpg,none,n,2.1868988999995054,None,,,,,,,,00012,001,2025-11-15_11h16.55.438,MST_test,2024.2.0,100.10450911084412,2025-11-15 11h17.15.046474 +0530,
89,0,90,s,1.7439252000003762,None,90,0,89,455.86460369999986,,,,,,,,,,,,,,,,,,,,,,,,,,,,,,,,,,,,,,,,,,,,,,,,,,455.85651759999746,455.86460369999986,456.3712588999988,456.35564560000057,456.36903320000056,456.3712588999988,456.3712588999988,456.3712588999988,458.12597090000054,Objects\105b.jpg,pre,s,1.7439252000003762,None,,,,,,,,00012,001,2025-11-15_11h16.55.438,MST_test,2024.2.0,100.10450911084412,2025-11-15 11h17.15.046474 +0530,
90,0,91,o,4.055028599999787,None,91,0,90,458.1342225999979,,,,,,,,,,,,,,,,,,,,,,,,,,,,,,,,,,,,,,,,,,,,,,,,,,458.1262599999973,458.1342225999979,458.6433692999999,458.62532009999995,458.64086159999715,458.6433692999999,458.6433692999999,458.6433692999999,462.70504439999786,Objects\159a.jpg,pre,o,4.055028599999787,None,,,,,,,,00012,001,2025-11-15_11h16.55.438,MST_test,2024.2.0,100.10450911084412,2025-11-15 11h17.15.046474 +0530,
91,0,92,s,3.0390431999985594,None,92,0,91,462.7135522999997,,,,,,,,,,,,,,,,,,,,,,,,,,,,,,,,,,,,,,,,,,,,,,,,,,462.7052769000002,462.7135522999997,463.22821420000037,463.20493489999717,463.22518969999874,463.22821420000037,463.22821420000037,463.22821420000037,466.2749795999989,Scenes\009b.jpg,mid,s,3.0390431999985594,None,,,,,,,,00012,001,2025-11-15_11h16.55.438,MST_test,2024.2.0,100.10450911084412,2025-11-15 11h17.15.046474 +0530,
92,0,93,n,5.357732600001327,None,93,0,92,466.2830940999993,,,,,,,,,,,,,,,,,,,,,,,,,,,,,,,,,,,,,,,,,,,,,,,,,,466.27527550000013,466.2830940999993,466.7970916999984,466.77435609999884,466.7938701999992,466.7970916999984,466.7970916999984,466.7970916999984,472.16429699999935,Scenes\024a.jpg,mid,n,5.357732600001327,None,,,,,,,,00012,001,2025-11-15_11h16.55.438,MST_test,2024.2.0,100.10450911084412,2025-11-15 11h17.15.046474 +0530,
93,0,94,o,3.169056599999749,None,94,0,93,472.1724121999978,,,,,,,,,,,,,,,,,,,,,,,,,,,,,,,,,,,,,,,,,,,,,,,,,,472.16451980000056,472.1724121999978,472.68186969999806,472.66324109999914,472.6789527000001,472.68186969999806,472.68186969999806,472.68186969999806,475.85340949999954,Objects\050a.jpg,pre,o,3.169056599999749,None,,,,,,,,00012,001,2025-11-15_11h16.55.438,MST_test,2024.2.0,100.10450911084412,2025-11-15 11h17.15.046474 +0530,
94,0,95,s,2.7387540000017907,None,95,0,94,475.86207699999795,,,,,,,,,,,,,,,,,,,,,,,,,,,,,,,,,,,,,,,,,,,,,,,,,,475.85362239999813,475.86207699999795,476.36817529999826,476.3533344999996,476.3659399999997,476.36817529999826,476.36817529999826,476.36817529999826,479.11296949999814,Objects\175b.jpg,pre,s,2.7387540000017907,None,,,,,,,,00012,001,2025-11-15_11h16.55.438,MST_test,2024.2.0,100.10450911084412,2025-11-15 11h17.15.046474 +0530,
95,0,96,n,1.5680960999998206,None,96,0,95,479.12145880000025,,,,,,,,,,,,,,,,,,,,,,,,,,,,,,,,,,,,,,,,,,,,,,,,,,479.11319340000045,479.12145880000025,479.62643299999763,479.61258219999945,479.6241231999993,479.62643299999763,479.62643299999763,479.62643299999763,481.2029412999982,Objects\058b.jpg,pre,n,1.5680960999998206,None,,,,,,,,00012,001,2025-11-15_11h16.55.438,MST_test,2024.2.0,100.10450911084412,2025-11-15 11h17.15.046474 +0530,
96,0,97,s,1.2645480999999563,None,97,0,96,481.2112597999985,,,,,,,,,,,,,,,,,,,,,,,,,,,,,,,,,,,,,,,,,,,,,,,,,,481.203192099998,481.2112597999985,481.7225828999981,481.7016836999974,481.7195924999978,481.7225828999981,481.7225828999981,481.7225828999981,482.99281770000016,Scenes\109a.jpg,pre,s,1.2645480999999563,None,,,,,,,,00012,001,2025-11-15_11h16.55.438,MST_test,2024.2.0,100.10450911084412,2025-11-15 11h17.15.046474 +0530,
97,0,98,o,2.023893000001408,None,98,0,97,483.0010197999982,,,,,,,,,,,,,,,,,,,,,,,,,,,,,,,,,,,,,,,,,,,,,,,,,,482.9930540999994,483.0010197999982,483.5073177999984,483.4921657999985,483.50454589999936,483.5073177999984,483.5073177999984,483.5073177999984,485.53305479999835,Objects\083a.jpg,mid,o,2.023893000001408,None,,,,,,,,00012,001,2025-11-15_11h16.55.438,MST_test,2024.2.0,100.10450911084412,2025-11-15 11h17.15.046474 +0530,
98,0,99,n,1.0672747999997227,None,99,0,98,485.5406973999998,,,,,,,,,,,,,,,,,,,,,,,,,,,,,,,,,,,,,,,,,,,,,,,,,,485.53335949999746,485.5406973999998,486.04811119999795,486.0315297999987,486.04568599999766,486.04811119999795,486.04811119999795,486.04811119999795,487.1231673999973,Objects\107a.jpg,mid,n,1.0672747999997227,None,,,,,,,,00012,001,2025-11-15_11h16.55.438,MST_test,2024.2.0,100.10450911084412,2025-11-15 11h17.15.046474 +0530,
99,0,100,n,1.6785748000002059,None,100,0,99,487.13044850000006,,,,,,,,,,,,,,,,,,,,,,,,,,,,,,,,,,,,,,,,,,,,,,,,,,487.1235295000006,487.13044850000006,487.6439599999976,487.6210178000001,487.6410799999976,487.6439599999976,487.6439599999976,487.6439599999976,489.3321776999983,Scenes\047b.jpg,pre,n,1.6785748000002059,None,,,,,,,,00012,001,2025-11-15_11h16.55.438,MST_test,2024.2.0,100.10450911084412,2025-11-15 11h17.15.046474 +0530,
100,0,101,s,1.9570749000013166,None,101,0,100,489.34025850000035,,,,,,,,,,,,,,,,,,,,,,,,,,,,,,,,,,,,,,,,,,,,,,,,,,489.3324107999979,489.34025850000035,489.85366259999864,489.8310530999988,489.8504209999992,489.85366259999864,489.85366259999864,489.85366259999864,491.81220570000005,Scenes\110a.jpg,pre,s,1.9570749000013166,None,,,,,,,,00012,001,2025-11-15_11h16.55.438,MST_test,2024.2.0,100.10450911084412,2025-11-15 11h17.15.046474 +0530,
101,0,102,s,1.4543327999999747,None,102,0,101,491.81995019999886,,,,,,,,,,,,,,,,,,,,,,,,,,,,,,,,,,,,,,,,,,,,,,,,,,491.81250809999983,491.81995019999886,492.32492379999894,492.31088589999854,492.32198719999724,492.32492379999894,492.32492379999894,492.32492379999894,493.7810467999989,Objects\040a.jpg,post,s,1.4543327999999747,None,,,,,,,,00012,001,2025-11-15_11h16.55.438,MST_test,2024.2.0,100.10450911084412,2025-11-15 11h17.15.046474 +0530,
102,0,103,s,3.098438500001066,None,103,0,102,493.7896688000001,,,,,,,,,,,,,,,,,,,,,,,,,,,,,,,,,,,,,,,,,,,,,,,,,,493.7812591999973,493.7896688000001,494.3043932999972,494.28057869999975,494.30153979999886,494.3043932999972,494.3043932999972,494.3043932999972,497.4111018000003,Scenes\062b.jpg,pre,s,3.098438500001066,None,,,,,,,,00012,001,2025-11-15_11h16.55.438,MST_test,2024.2.0,100.10450911084412,2025-11-15 11h17.15.046474 +0530,
103,0,104,n,1.515645500003302,None,104,0,103,497.41915679999875,,,,,,,,,,,,,,,,,,,,,,,,,,,,,,,,,,,,,,,,,,,,,,,,,,497.41134559999773,497.41915679999875,497.92709749999995,497.9105751999996,497.924324399999,497.92709749999995,497.92709749999995,497.92709749999995,499.4502971999973,Foils\scenes30.jpg,none,n,1.515645500003302,None,,,,,,,,00012,001,2025-11-15_11h16.55.438,MST_test,2024.2.0,100.10450911084412,2025-11-15 11h17.15.046474 +0530,
104,0,105,s,2.9133819000016956,None,105,0,104,499.4588922999974,,,,,,,,,,,,,,,,,,,,,,,,,,,,,,,,,,,,,,,,,,,,,,,,,,499.4505341999975,499.4588922999974,499.9698117000007,499.9500909999988,499.96699499999886,499.9698117000007,499.9698117000007,499.9698117000007,502.8902918999993,Scenes\192a.jpg,pre,s,2.9133819000016956,None,,,,,,,,00012,001,2025-11-15_11h16.55.438,MST_test,2024.2.0,100.10450911084412,2025-11-15 11h17.15.046474 +0530,
105,0,106,s,2.7881450000022596,None,106,0,105,502.8985546999975,,,,,,,,,,,,,,,,,,,,,,,,,,,,,,,,,,,,,,,,,,,,,,,,,,502.89054629999737,502.8985546999975,503.40694280000025,503.3896638999977,503.40396429999964,503.40694280000025,503.40694280000025,503.40694280000025,506.2000124999977,Foils\010a.jpg,none,s,2.7881450000022596,None,,,,,,,,00012,001,2025-11-15_11h16.55.438,MST_test,2024.2.0,100.10450911084412,2025-11-15 11h17.15.046474 +0530,
106,0,107,s,1.2004984000013792,None,107,0,106,506.20820319999984,,,,,,,,,,,,,,,,,,,,,,,,,,,,,,,,,,,,,,,,,,,,,,,,,,506.20024360000025,506.20820319999984,506.7151630999979,506.6991434999982,506.7128085000004,506.7151630999979,506.7151630999979,506.7151630999979,507.9191807999996,Objects\171a.jpg,mid,s,1.2004984000013792,None,,,,,,,,00012,001,2025-11-15_11h16.55.438,MST_test,2024.2.0,100.10450911084412,2025-11-15 11h17.15.046474 +0530,
107,0,108,s,2.264271699998062,None,108,0,107,507.92787429999953,,,,,,,,,,,,,,,,,,,,,,,,,,,,,,,,,,,,,,,,,,,,,,,,,,507.91941959999895,507.92787429999953,508.4345546000004,508.41914030000044,508.4323043999975,508.4345546000004,508.4345546000004,508.4345546000004,510.70926060000056,Objects\143b.jpg,mid,s,2.264271699998062,None,,,,,,,,00012,001,2025-11-15_11h16.55.438,MST_test,2024.2.0,100.10450911084412,2025-11-15 11h17.15.046474 +0530,
108,0,109,o,4.200050299998111,None,109,0,108,510.7178160000003,,,,,,,,,,,,,,,,,,,,,,,,,,,,,,,,,,,,,,,,,,,,,,,,,,510.70953409999856,510.7178160000003,511.23454370000036,511.20839779999733,511.23167699999976,511.23454370000036,511.23454370000036,511.23454370000036,515.4382272999974,Scenes\145a.jpg,post,o,4.200050299998111,None,,,,,,,,00012,001,2025-11-15_11h16.55.438,MST_test,2024.2.0,100.10450911084412,2025-11-15 11h17.15.046474 +0530,
109,0,110,n,2.0814827000031073,None,110,0,109,515.4468684999993,,,,,,,,,,,,,,,,,,,,,,,,,,,,,,,,,,,,,,,,,,,,,,,,,,515.4384275999982,515.4468684999993,515.9535744999994,515.9383094999976,515.9508165000007,515.9535744999994,515.9535744999994,515.9535744999994,518.0383660999978,Foils\scenes14.jpg,none,n,2.0814827000031073,None,,,,,,,,00012,001,2025-11-15_11h16.55.438,MST_test,2024.2.0,100.10450911084412,2025-11-15 11h17.15.046474 +0530,
110,0,111,o,4.376436999998987,None,111,0,110,518.0466439999982,,,,,,,,,,,,,,,,,,,,,,,,,,,,,,,,,,,,,,,,,,,,,,,,,,518.0386239,518.0466439999982,518.5622313999993,518.5377069999995,518.5593818999987,518.5622313999993,518.5622313999993,518.5622313999993,522.9474091999982,Scenes\167a.jpg,mid,o,4.376436999998987,None,,,,,,,,00012,001,2025-11-15_11h16.55.438,MST_test,2024.2.0,100.10450911084412,2025-11-15 11h17.15.046474 +0530,
111,0,112,s,2.351858500001981,None,112,0,111,522.9561493000001,,,,,,,,,,,,,,,,,,,,,,,,,,,,,,,,,,,,,,,,,,,,,,,,,,522.9476982999986,522.9561493000001,523.4748461999989,523.4471013999973,523.4712083999984,523.4748461999989,523.4748461999989,523.4748461999989,525.8284781999973,Scenes\015a.jpg,pre,s,2.351858500001981,None,,,,,,,,00012,001,2025-11-15_11h16.55.438,MST_test,2024.2.0,100.10450911084412,2025-11-15 11h17.15.046474 +0530,
112,0,113,n,1.3881536000008055,None,113,0,112,525.8356124999991,,,,,,,,,,,,,,,,,,,,,,,,,,,,,,,,,,,,,,,,,,,,,,,,,,525.8288276999992,525.8356124999991,526.3432861000001,526.3268860999997,526.3404384999994,526.3432861000001,526.3432861000001,526.3432861000001,527.7373081000005,Foils\074a.jpg,none,n,1.3881536000008055,None,,,,,,,,00012,001,2025-11-15_11h16.55.438,MST_test,2024.2.0,100.10450911084412,2025-11-15 11h17.15.046474 +0530,
113,0,114,n,1.573793299998215,None,114,0,113,527.745434299999,,,,,,,,,,,,,,,,,,,,,,,,,,,,,,,,,,,,,,,,,,,,,,,,,,527.7376124000002,527.745434299999,528.2609606000005,528.2369870999974,528.2579151999998,528.2609606000005,528.2609606000005,528.2609606000005,529.8374645000004,Foils\scenes22.jpg,none,n,1.573793299998215,None,,,,,,,,00012,001,2025-11-15_11h16.55.438,MST_test,2024.2.0,100.10450911084412,2025-11-15 11h17.15.046474 +0530,
114,0,115,s,1.1832433999989007,None,115,0,114,529.8450942999989,,,,,,,,,,,,,,,,,,,,,,,,,,,,,,,,,,,,,,,,,,,,,,,,,,529.8378152000005,529.8450942999989,530.3552928999998,530.3363400999988,530.3519998999982,530.3552928999998,530.3552928999998,530.3552928999998,531.5471552999988,Objects\184b.jpg,pre,s,1.1832433999989007,None,,,,,,,,00012,001,2025-11-15_11h16.55.438,MST_test,2024.2.0,100.10450911084412,2025-11-15 11h17.15.046474 +0530,
115,0,116,n,1.734656000000541,None,116,0,115,531.5549699000003,,,,,,,,,,,,,,,,,,,,,,,,,,,,,,,,,,,,,,,,,,,,,,,,,,531.5475065999999,531.5549699000003,532.0679844000006,532.0461117999985,532.0650619000007,532.0679844000006,532.0679844000006,532.0679844000006,533.8065644999988,Scenes\116b.jpg,post,n,1.734656000000541,None,,,,,,,,00012,001,2025-11-15_11h16.55.438,MST_test,2024.2.0,100.10450911084412,2025-11-15 11h17.15.046474 +0530,
116,0,117,s,5.714201700000558,None,117,0,116,533.8146444999984,,,,,,,,,,,,,,,,,,,,,,,,,,,,,,,,,,,,,,,,,,,,,,,,,,533.8068364999999,533.8146444999984,534.3204931,534.3055442999976,534.3176803999995,534.3204931,534.3204931,534.3204931,540.0361327999999,Objects\094b.jpg,pre,s,5.714201700000558,None,,,,,,,,00012,001,2025-11-15_11h16.55.438,MST_test,2024.2.0,100.10450911084412,2025-11-15 11h17.15.046474 +0530,
117,0,118,n,3.2530117999995127,None,118,0,117,540.0438837000002,,,,,,,,,,,,,,,,,,,,,,,,,,,,,,,,,,,,,,,,,,,,,,,,,,540.0364346999995,540.0438837000002,540.5495843999997,540.5349548999984,540.5473850999988,540.5495843999997,540.5495843999997,540.5495843999997,543.8061008000004,Objects\169b.jpg,post,n,3.2530117999995127,None,,,,,,,,00012,001,2025-11-15_11h16.55.438,MST_test,2024.2.0,100.10450911084412,2025-11-15 11h17.15.046474 +0530,
118,0,119,s,3.6206741999994847,None,119,0,118,543.8133823999997,,,,,,,,,,,,,,,,,,,,,,,,,,,,,,,,,,,,,,,,,,,,,,,,,,543.8064051000001,543.8133823999997,544.3264820999975,544.3042601999987,544.323651499999,544.3264820999975,544.3264820999975,544.3264820999975,547.9549563,Scenes\059b.jpg,post,s,3.6206741999994847,None,,,,,,,,00012,001,2025-11-15_11h16.55.438,MST_test,2024.2.0,100.10450911084412,2025-11-15 11h17.15.046474 +0530,
119,0,120,s,3.484545799998159,None,120,0,119,547.9628690999998,,,,,,,,,,,,,,,,,,,,,,,,,,,,,,,,,,,,,,,,,,,,,,,,,,547.9552760999977,547.9628690999998,548.4790336999977,548.4542036999992,548.4759090999978,548.4790336999977,548.4790336999977,548.4790336999977,551.9651601000005,Scenes\025b.jpg,pre,s,3.484545799998159,None,,,,,,,,00012,001,2025-11-15_11h16.55.438,MST_test,2024.2.0,100.10450911084412,2025-11-15 11h17.15.046474 +0530,
120,0,121,s,1.4689430000034918,None,121,0,120,551.9723639999975,,,,,,,,,,,,,,,,,,,,,,,,,,,,,,,,,,,,,,,,,,,,,,,,,,551.9654962999994,551.9723639999975,552.4859107999982,552.4636269999974,552.4828586000003,552.4859107999982,552.4859107999982,552.4859107999982,553.9648027999974,Scenes\052a.jpg,post,s,1.4689430000034918,None,,,,,,,,00012,001,2025-11-15_11h16.55.438,MST_test,2024.2.0,100.10450911084412,2025-11-15 11h17.15.046474 +0530,
121,0,122,o,2.6510991000031936,None,122,0,121,553.9720562999973,,,,,,,,,,,,,,,,,,,,,,,,,,,,,,,,,,,,,,,,,,,,,,,,,,553.9651118999973,553.9720562999973,554.4802468999987,554.4632982000003,554.4773744999984,554.4802468999987,554.4802468999987,554.4802468999987,557.1337726999991,Objects\073b.jpg,mid,o,2.6510991000031936,None,,,,,,,,00012,001,2025-11-15_11h16.55.438,MST_test,2024.2.0,100.10450911084412,2025-11-15 11h17.15.046474 +0530,
122,0,123,o,2.0686883999987913,None,123,0,122,557.1419411999996,,,,,,,,,,,,,,,,,,,,,,,,,,,,,,,,,,,,,,,,,,,,,,,,,,557.1340251000001,557.1419411999996,557.6550969999989,557.6331718999973,557.6520912999986,557.6550969999989,557.6550969999989,557.6550969999989,559.7331157999979,Scenes\070b.jpg,post,o,2.0686883999987913,None,,,,,,,,00012,001,2025-11-15_11h16.55.438,MST_test,2024.2.0,100.10450911084412,2025-11-15 11h17.15.046474 +0530,
123,0,124,n,1.1780459000001429,None,124,0,123,559.7416229999981,,,,,,,,,,,,,,,,,,,,,,,,,,,,,,,,,,,,,,,,,,,,,,,,,,559.7333364000006,559.7416229999981,560.2485678999983,560.2329136999979,560.2456946999991,560.2485678999983,560.2485678999983,560.2485678999983,561.4334529000007,Objects\061b.jpg,pre,n,1.1780459000001429,None,,,,,,,,00012,001,2025-11-15_11h16.55.438,MST_test,2024.2.0,100.10450911084412,2025-11-15 11h17.15.046474 +0530,
124,0,125,s,1.4865269000001717,None,125,0,124,561.441393699999,,,,,,,,,,,,,,,,,,,,,,,,,,,,,,,,,,,,,,,,,,,,,,,,,,561.4337196999986,561.441393699999,561.9482647000004,561.9328010999998,561.9458515000006,561.9482647000004,561.9482647000004,561.9482647000004,563.4433045000005,Objects\018b.jpg,mid,s,1.4865269000001717,None,,,,,,,,00012,001,2025-11-15_11h16.55.438,MST_test,2024.2.0,100.10450911084412,2025-11-15 11h17.15.046474 +0530,
125,0,126,n,2.147071800001868,None,126,0,125,563.4511015999997,,,,,,,,,,,,,,,,,,,,,,,,,,,,,,,,,,,,,,,,,,,,,,,,,,563.4436085999987,563.4511015999997,563.9605993999976,563.9423437999976,563.9581313999988,563.9605993999976,563.9605993999976,563.9605993999976,566.1128298000003,Foils\033a.jpg,none,n,2.147071800001868,None,,,,,,,,00012,001,2025-11-15_11h16.55.438,MST_test,2024.2.0,100.10450911084412,2025-11-15 11h17.15.046474 +0530,
126,0,127,s,4.9453797999995,None,127,0,126,566.1207302999974,,,,,,,,,,,,,,,,,,,,,,,,,,,,,,,,,,,,,,,,,,,,,,,,,,566.1130726999982,566.1207302999974,566.6332846999976,566.6121536999999,566.6303647999994,566.6332846999976,566.6332846999976,566.6332846999976,571.5826548999976,Foils\scenes27.jpg,none,s,4.9453797999995,None,,,,,,,,00012,001,2025-11-15_11h16.55.438,MST_test,2024.2.0,100.10450911084412,2025-11-15 11h17.15.046474 +0530,
127,0,128,o,2.805727699997078,None,128,0,127,571.5901470999997,,,,,,,,,,,,,,,,,,,,,,,,,,,,,,,,,,,,,,,,,,,,,,,,,,571.5829964000004,571.5901470999997,572.1011421999974,572.0813828999999,572.0981429999993,572.1011421999974,572.1011421999974,572.1011421999974,574.9121860999985,Scenes\069a.jpg,post,o,2.805727699997078,None,,,,,,,,00012,001,2025-11-15_11h16.55.438,MST_test,2024.2.0,100.10450911084412,2025-11-15 11h17.15.046474 +0530,
128,0,129,n,3.700726900002337,None,129,0,128,574.9196850999979,,,,,,,,,,,,,,,,,,,,,,,,,,,,,,,,,,,,,,,,,,,,,,,,,,574.9125213999978,574.9196850999979,575.4383111999996,575.4109667999983,575.4342451999983,575.4383111999996,575.4383111999996,575.4383111999996,579.1416602999998,Foils\scenes28.jpg,none,n,3.700726900002337,None,,,,,,,,00012,001,2025-11-15_11h16.55.438,MST_test,2024.2.0,100.10450911084412,2025-11-15 11h17.15.046474 +0530,
129,0,130,s,3.2979633000031754,None,130,0,129,579.1490868000001,,,,,,,,,,,,,,,,,,,,,,,,,,,,,,,,,,,,,,,,,,,,,,,,,,579.1419721999991,579.1490868000001,579.6650308999997,579.6404074999991,579.6613025999977,579.6650308999997,579.6650308999997,579.6650308999997,582.971014499999,Scenes\076b.jpg,pre,s,3.2979633000031754,None,,,,,,,,00012,001,2025-11-15_11h16.55.438,MST_test,2024.2.0,100.10450911084412,2025-11-15 11h17.15.046474 +0530,
130,0,131,s,3.2876496000026236,None,131,0,130,582.978664899998,,,,,,,,,,,,,,,,,,,,,,,,,,,,,,,,,,,,,,,,,,,,,,,,,,582.9713219000005,582.978664899998,583.4912446999988,583.4698295999988,583.4879079999992,583.4912446999988,583.4912446999988,583.4912446999988,586.780374599999,Scenes\117a.jpg,mid,s,3.2876496000026236,None,,,,,,,,00012,001,2025-11-15_11h16.55.438,MST_test,2024.2.0,100.10450911084412,2025-11-15 11h17.15.046474 +0530,
131,0,132,n,3.6127062999985355,None,132,0,131,586.7881003000002,,,,,,,,,,,,,,,,,,,,,,,,,,,,,,,,,,,,,,,,,,,,,,,,,,586.780617299999,586.7881003000002,587.2938049000004,587.2788982999991,587.290724399998,587.2938049000004,587.2938049000004,587.2938049000004,590.9092369999998,Objects\053b.jpg,post,n,3.6127062999985355,None,,,,,,,,00012,001,2025-11-15_11h16.55.438,MST_test,2024.2.0,100.10450911084412,2025-11-15 11h17.15.046474 +0530,
132,0,133,o,3.5841252000027453,None,133,0,132,590.9175610999991,,,,,,,,,,,,,,,,,,,,,,,,,,,,,,,,,,,,,,,,,,,,,,,,,,590.9095034999991,590.9175610999991,591.4282346999971,591.4089038999991,591.4254624999994,591.4282346999971,591.4282346999971,591.4282346999971,595.0184769000007,Scenes\112b.jpg,mid,o,3.5841252000027453,None,,,,,,,,00012,001,2025-11-15_11h16.55.438,MST_test,2024.2.0,100.10450911084412,2025-11-15 11h17.15.046474 +0530,
133,0,134,n,2.7299926999985473,None,134,0,133,595.0269674999981,,,,,,,,,,,,,,,,,,,,,,,,,,,,,,,,,,,,,,,,,,,,,,,,,,595.0186995999975,595.0269674999981,595.5366885999974,595.5182888999989,595.5338214000003,595.5366885999974,595.5366885999974,595.5366885999974,598.2689613000002,Objects\126b.jpg,pre,n,2.7299926999985473,None,,,,,,,,00012,001,2025-11-15_11h16.55.438,MST_test,2024.2.0,100.10450911084412,2025-11-15 11h17.15.046474 +0530,
134,0,135,n,2.9084634999999253,None,135,0,134,598.2767413000001,,,,,,,,,,,,,,,,,,,,,,,,,,,,,,,,,,,,,,,,,,,,,,,,,,598.2692121,598.2767413000001,598.782436999998,598.7675189999973,598.7798622999981,598.782436999998,598.782436999998,598.782436999998,601.6977277000005,Scenes\053a.jpg,post,n,2.9084634999999253,None,,,,,,,,00012,001,2025-11-15_11h16.55.438,MST_test,2024.2.0,100.10450911084412,2025-11-15 11h17.15.046474 +0530,
135,0,136,n,2.148878500000137,None,136,0,135,601.7060684999997,,,,,,,,,,,,,,,,,,,,,,,,,,,,,,,,,,,,,,,,,,,,,,,,,,601.6980299999996,601.7060684999997,602.2136043999999,602.1975157999987,602.2111111999984,602.2136043999999,602.2136043999999,602.2136043999999,604.3670887999979,Objects\135a.jpg,post,n,2.148878500000137,None,,,,,,,,00012,001,2025-11-15_11h16.55.438,MST_test,2024.2.0,100.10450911084412,2025-11-15 11h17.15.046474 +0530,
136,0,137,n,2.0717591000029643,None,137,0,136,604.3756751999972,,,,,,,,,,,,,,,,,,,,,,,,,,,,,,,,,,,,,,,,,,,,,,,,,,604.3673079999971,604.3756751999972,604.8832034000006,604.8669363999979,604.8807029999989,604.8832034000006,604.8832034000006,604.8832034000006,606.9573498999998,Foils\002a.jpg,none,n,2.0717591000029643,None,,,,,,,,00012,001,2025-11-15_11h16.55.438,MST_test,2024.2.0,100.10450911084412,2025-11-15 11h17.15.046474 +0530,
137,0,138,n,2.5660723999972106,None,138,0,137,606.9654531999986,,,,,,,,,,,,,,,,,,,,,,,,,,,,,,,,,,,,,,,,,,,,,,,,,,606.957601099999,606.9654531999986,607.4774362999997,607.4563811999978,607.4745051999998,607.4774362999997,607.4774362999997,607.4774362999997,610.0470361000007,Scenes\115b.jpg,pre,n,2.5660723999972106,None,,,,,,,,00012,001,2025-11-15_11h16.55.438,MST_test,2024.2.0,100.10450911084412,2025-11-15 11h17.15.046474 +0530,
138,0,139,s,1.4872957000006863,None,139,0,138,610.0550173999982,,,,,,,,,,,,,,,,,,,,,,,,,,,,,,,,,,,,,,,,,,,,,,,,,,610.0472837999987,610.0550173999982,610.571813999999,610.5460053999996,610.5688249999985,610.571813999999,610.571813999999,610.571813999999,612.0661134999973,Scenes\077a.jpg,post,s,1.4872957000006863,None,,,,,,,,00012,001,2025-11-15_11h16.55.438,MST_test,2024.2.0,100.10450911084412,2025-11-15 11h17.15.046474 +0530,
139,0,140,s,2.1090342000024975,None,140,0,139,612.0747998999977,,,,,,,,,,,,,,,,,,,,,,,,,,,,,,,,,,,,,,,,,,,,,,,,,,612.0663366999979,612.0747998999977,612.5818260999986,612.5654826999998,612.5791116,612.5818260999986,612.5818260999986,612.5818260999986,614.6959112000004,Objects\022b.jpg,mid,s,2.1090342000024975,None,,,,,,,,00012,001,2025-11-15_11h16.55.438,MST_test,2024.2.0,100.10450911084412,2025-11-15 11h17.15.046474 +0530,
140,0,141,n,3.078822699997545,None,141,0,140,614.7044413999974,,,,,,,,,,,,,,,,,,,,,,,,,,,,,,,,,,,,,,,,,,,,,,,,,,614.6961496000004,614.7044413999974,615.220151999998,615.1954880999983,615.2171926999981,615.220151999998,615.220151999998,615.220151999998,618.3056958999987,Scenes\092b.jpg,post,n,3.078822699997545,None,,,,,,,,00012,001,2025-11-15_11h16.55.438,MST_test,2024.2.0,100.10450911084412,2025-11-15 11h17.15.046474 +0530,
141,0,142,s,1.6030742000002647,None,142,0,141,618.3140152999986,,,,,,,,,,,,,,,,,,,,,,,,,,,,,,,,,,,,,,,,,,,,,,,,,,618.3059573999999,618.3140152999986,618.8240965000005,618.8057633999997,618.8211988999974,618.8240965000005,618.8240965000005,618.8240965000005,620.4352039000005,Objects\096a.jpg,mid,s,1.6030742000002647,None,,,,,,,,00012,001,2025-11-15_11h16.55.438,MST_test,2024.2.0,100.10450911084412,2025-11-15 11h17.15.046474 +0530,
142,0,143,n,1.9206778000007034,None,143,0,142,620.4438730000002,,,,,,,,,,,,,,,,,,,,,,,,,,,,,,,,,,,,,,,,,,,,,,,,,,620.4354146000005,620.4438730000002,620.9539192999982,620.9343105999978,620.9509918999975,620.9539192999982,620.9539192999982,620.9539192999982,622.8848357999996,Scenes\065a.jpg,pre,n,1.9206778000007034,None,,,,,,,,00012,001,2025-11-15_11h16.55.438,MST_test,2024.2.0,100.10450911084412,2025-11-15 11h17.15.046474 +0530,
143,0,144,n,1.0930444000005082,None,144,0,143,622.8934436999989,,,,,,,,,,,,,,,,,,,,,,,,,,,,,,,,,,,,,,,,,,,,,,,,,,622.8851216999974,622.8934436999989,623.3979126999984,623.384571999999,623.3951500999974,623.3979126999984,623.3979126999984,623.3979126999984,624.4944883999997,Foils\scenes18.jpg,none,n,1.0930444000005082,None,,,,,,,,00012,001,2025-11-15_11h16.55.438,MST_test,2024.2.0,100.10450911084412,2025-11-15 11h17.15.046474 +0530,
144,0,145,s,2.832857299999887,None,145,0,144,624.5032031999981,,,,,,,,,,,,,,,,,,,,,,,,,,,,,,,,,,,,,,,,,,,,,,,,,,624.4946430999989,624.5032031999981,625.018334299999,624.9941082999976,625.0155730999977,625.018334299999,625.018334299999,625.018334299999,627.8553973999988,Scenes\029a.jpg,mid,s,2.832857299999887,None,,,,,,,,00012,001,2025-11-15_11h16.55.438,MST_test,2024.2.0,100.10450911084412,2025-11-15 11h17.15.046474 +0530,
145,0,146,n,1.731937000000471,None,146,0,145,627.8628723999973,,,,,,,,,,,,,,,,,,,,,,,,,,,,,,,,,,,,,,,,,,,,,,,,,,627.8557309999997,627.8628723999973,628.3672425999976,628.3534550000004,628.3644303000001,628.3672425999976,628.3672425999976,628.3672425999976,630.1038922000007,Foils\020b.jpg,none,n,1.731937000000471,None,,,,,,,,00012,001,2025-11-15_11h16.55.438,MST_test,2024.2.0,100.10450911084412,2025-11-15 11h17.15.046474 +0530,
146,0,147,s,2.0799932000008994,None,147,0,146,630.1124342000003,,,,,,,,,,,,,,,,,,,,,,,,,,,,,,,,,,,,,,,,,,,,,,,,,,630.1041284999992,630.1124342000003,630.6186608999997,630.6033566999977,630.6159885999987,630.6186608999997,630.6186608999997,630.6186608999997,632.7042774999973,Scenes\014b.jpg,post,s,2.0799932000008994,None,,,,,,,,00012,001,2025-11-15_11h16.55.438,MST_test,2024.2.0,100.10450911084412,2025-11-15 11h17.15.046474 +0530,
147,0,148,o,2.282527100000152,None,148,0,147,632.7122638000001,,,,,,,,,,,,,,,,,,,,,,,,,,,,,,,,,,,,,,,,,,,,,,,,,,632.7046458999976,632.7122638000001,633.2241660999971,633.2034834000006,633.2212001999978,633.2241660999971,633.2241660999971,633.2241660999971,635.513919699999,Scenes\111b.jpg,pre,o,2.282527100000152,None,,,,,,,,00012,001,2025-11-15_11h16.55.438,MST_test,2024.2.0,100.10450911084412,2025-11-15 11h17.15.046474 +0530,
148,0,149,o,1.1405196000014257,None,149,0,148,635.5218854999985,,,,,,,,,,,,,,,,,,,,,,,,,,,,,,,,,,,,,,,,,,,,,,,,,,635.5142224999981,635.5218854999985,636.0304208999987,636.0130543999985,636.0276905999999,636.0304208999987,636.0304208999987,636.0304208999987,637.1739667000002,Objects\054a.jpg,pre,o,1.1405196000014257,None,,,,,,,,00012,001,2025-11-15_11h16.55.438,MST_test,2024.2.0,100.10450911084412,2025-11-15 11h17.15.046474 +0530,
149,0,150,n,1.4020340999995824,None,150,0,149,637.181614699999,,,,,,,,,,,,,,,,,,,,,,,,,,,,,,,,,,,,,,,,,,,,,,,,,,637.1742393999994,637.181614699999,637.6890720999982,637.6730953999977,637.6866402999985,637.6890720999982,637.6890720999982,637.6890720999982,639.0935194999984,Foils\093b.jpg,none,n,1.4020340999995824,None,,,,,,,,00012,001,2025-11-15_11h16.55.438,MST_test,2024.2.0,100.10450911084412,2025-11-15 11h17.15.046474 +0530,
,,,,,,,,,,,,,,,,,,,,,,,,,,,,,,,,,,,,,,,,,,,,,,,,,,,,,,,,,,,,,,,,,,,,,,,,,639.0937219999978,639.1013974999987,639.1013974999987,648.602567599999,space,9.493789200001629,None,00012,001,2025-11-15_11h16.55.438,MST_test,2024.2.0,100.10450911084412,2025-11-15 11h17.15.046474 +0530,
