thisN,thisTrialN,thisRepN,key_resp_3.keys,key_resp_3.rt,key_resp_3.duration,trials.thisRepN,trials.thisTrialN,trials.thisN,thisRow.t,notes,intro_page.started,text.started,key_resp.started,intro_page.stopped,key_resp.keys,key_resp.rt,key_resp.duration,instructions.started,text_2.started,key_resp_2.started,instructions.stopped,key_resp_2.keys,key_resp_2.rt,key_resp_2.duration,demo1.started,image_1.started,image_2.started,text_7.started,key_resp_6.started,text_9.started,demo1.stopped,key_resp_6.keys,key_resp_6.rt,key_resp_6.duration,demo2.started,image_5.started,image_6.started,text_11.started,text_12.started,key_resp_8.started,demo2.stopped,key_resp_8.keys,key_resp_8.rt,key_resp_8.duration,demo_conclusion.started,text_13.started,key_resp_9.started,demo_conclusion.stopped,key_resp_9.keys,key_resp_9.rt,key_resp_9.duration,start_test.started,text_6.started,key_resp_5.started,start_test.stopped,key_resp_5.keys,key_resp_5.rt,key_resp_5.duration,ISI.started,text_4.started,text_4.stopped,ISI.stopped,routine_1.started,image.started,text_3.started,key_resp_3.started,routine_1.stopped,image_path,position_of_stimuli,trials.key_resp_3.keys,trials.key_resp_3.rt,trials.key_resp_3.duration,End_page.started,text_5.started,key_resp_4.started,End_page.stopped,key_resp_4.keys,key_resp_4.rt,key_resp_4.duration,participant,session,date,expName,psychopyVersion,frameRate,expStart,
,,,,,,,,,,,0.0011684999917633832,0.0026795999729074538,0.0026795999729074538,2.9621081999503076,space,2.948736300051678,None,,,,,,,,,,,,,,,,,,,,,,,,,,,,,,,,,,,,,,,,,,,,,,,,,,,,,,,,,,,,,,,00019,001,2026-01-20_15h44.09.765,MST_test,2024.2.0,59.97238869748545,2026-01-20 15h44.18.084717 +0530,
,,,,,,,,,,,,,,,,,,2.962141399970278,2.976684599998407,2.976684599998407,14.07719189999625,space,11.086034499981906,None,,,,,,,,,,,,,,,,,,,,,,,,,,,,,,,,,,,,,,,,,,,,,,,,,,,,,,,,00019,001,2026-01-20_15h44.09.765,MST_test,2024.2.0,59.97238869748545,2026-01-20 15h44.18.084717 +0530,
,,,,,,,,,,,,,,,,,,,,,,,,,14.077221799991094,14.09392759995535,14.09392759995535,14.09392759995535,14.09392759995535,14.09392759995535,18.877357799967285,space,4.777558800007682,None,,,,,,,,,,,,,,,,,,,,,,,,,,,,,,,,,,,,,,,,,,,,,,00019,001,2026-01-20_15h44.09.765,MST_test,2024.2.0,59.97238869748545,2026-01-20 15h44.18.084717 +0530,
,,,,,,,,,,,,,,,,,,,,,,,,,,,,,,,,,,,18.87738989997888,18.89387579995673,18.89387579995673,18.89387579995673,18.89387579995673,18.89387579995673,21.761365699989256,space,2.8664451999939047,None,,,,,,,,,,,,,,,,,,,,,,,,,,,,,,,,,,,,00019,001,2026-01-20_15h44.09.765,MST_test,2024.2.0,59.97238869748545,2026-01-20 15h44.18.084717 +0530,
,,,,,,,,,,,,,,,,,,,,,,,,,,,,,,,,,,,,,,,,,,,,,21.76139369996963,21.77703219995601,21.77703219995601,37.24392539996188,space,15.453742299985606,None,,,,,,,,,,,,,,,,,,,,,,,,,,,,,00019,001,2026-01-20_15h44.09.765,MST_test,2024.2.0,59.97238869748545,2026-01-20 15h44.18.084717 +0530,
,,,,,,,,,,,,,,,,,,,,,,,,,,,,,,,,,,,,,,,,,,,,,,,,,,,,37.24395419994835,37.26020239997888,37.26020239997888,88.39398579997942,space,51.13102719996823,None,,,,,,,,,,,,,,,,,,,,,,00019,001,2026-01-20_15h44.09.765,MST_test,2024.2.0,59.97238869748545,2026-01-20 15h44.18.084717 +0530,
0,0,1,s,5.299213600053918,None,1,0,0,88.4101577999536,,,,,,,,,,,,,,,,,,,,,,,,,,,,,,,,,,,,,,,,,,,,,,,,,,88.39786119997734,88.4101577999536,88.91626879997784,88.89374099997804,88.91197919996921,88.91626879997784,88.91626879997784,88.91626879997784,94.22736129997065,Scenes\016b.jpg,post,s,5.299213600053918,None,,,,,,,,00019,001,2026-01-20_15h44.09.765,MST_test,2024.2.0,59.97238869748545,2026-01-20 15h44.18.084717 +0530,
1,0,2,s,3.831644900026731,None,2,0,1,94.24353289999999,,,,,,,,,,,,,,,,,,,,,,,,,,,,,,,,,,,,,,,,,,,,,,,,,,94.22746589995222,94.24353289999999,94.74415919999592,94.7270330999745,94.7377800999675,94.74415919999592,94.74415919999592,94.74415919999592,98.5774765999522,Objects\165b.jpg,pre,s,3.831644900026731,None,,,,,,,,00019,001,2026-01-20_15h44.09.765,MST_test,2024.2.0,59.97238869748545,2026-01-20 15h44.18.084717 +0530,
2,0,3,n,3.1865715000312775,None,3,0,2,98.59352579998085,,,,,,,,,,,,,,,,,,,,,,,,,,,,,,,,,,,,,,,,,,,,,,,,,,98.57757489994401,98.59352579998085,99.10831769998185,99.07923539995681,99.10593749996042,99.10831769998185,99.10831769998185,99.10831769998185,102.31067869998515,Foils\scenes23.jpg,none,n,3.1865715000312775,None,,,,,,,,00019,001,2026-01-20_15h44.09.765,MST_test,2024.2.0,59.97238869748545,2026-01-20 15h44.18.084717 +0530,
3,0,4,s,7.724675399949774,None,4,0,3,102.32669719995465,,,,,,,,,,,,,,,,,,,,,,,,,,,,,,,,,,,,,,,,,,,,,,,,,,102.31077909999294,102.32669719995465,102.8272530999966,102.81037129997276,102.82554559997516,102.8272530999966,102.8272530999966,102.8272530999966,110.56113149999874,Foils\scenes2.jpg,none,s,7.724675399949774,None,,,,,,,,00019,001,2026-01-20_15h44.09.765,MST_test,2024.2.0,59.97238869748545,2026-01-20 15h44.18.084717 +0530,
4,0,5,o,2.162477299978491,None,5,0,4,110.57678159995703,,,,,,,,,,,,,,,,,,,,,,,,,,,,,,,,,,,,,,,,,,,,,,,,,,110.56122999999207,110.57678159995703,111.07708849996561,111.0603742999956,111.06356889999006,111.07708849996561,111.07708849996561,111.07708849996561,113.24463109998032,Objects\187a.jpg,post,o,2.162477299978491,None,,,,,,,,00019,001,2026-01-20_15h44.09.765,MST_test,2024.2.0,59.97238869748545,2026-01-20 15h44.18.084717 +0530,
5,0,6,n,1.4494764999835752,None,6,0,5,113.2601937999716,,,,,,,,,,,,,,,,,,,,,,,,,,,,,,,,,,,,,,,,,,,,,,,,,,113.24472799996147,113.2601937999716,113.76558369997656,113.7437669999781,113.76328929996816,113.76558369997656,113.76558369997656,113.76558369997656,115.22797859995626,Foils\scenes28.jpg,none,n,1.4494764999835752,None,,,,,,,,00019,001,2026-01-20_15h44.09.765,MST_test,2024.2.0,59.97238869748545,2026-01-20 15h44.18.084717 +0530,
6,0,7,n,1.7753607000340708,None,7,0,6,115.24351699999534,,,,,,,,,,,,,,,,,,,,,,,,,,,,,,,,,,,,,,,,,,,,,,,,,,115.22808339999756,115.24351699999534,115.7443211999489,115.72695749998093,115.73751809995156,115.7443211999489,115.7443211999489,115.7443211999489,117.52739719999954,Foils\scenes5.jpg,none,n,1.7753607000340708,None,,,,,,,,00019,001,2026-01-20_15h44.09.765,MST_test,2024.2.0,59.97238869748545,2026-01-20 15h44.18.084717 +0530,
7,0,8,o,1.2281765000079758,None,8,0,7,117.54354809998767,,,,,,,,,,,,,,,,,,,,,,,,,,,,,,,,,,,,,,,,,,,,,,,,,,117.52748919994337,117.54354809998767,118.04380439996021,118.02697789995,118.03033389995107,118.04380439996021,118.04380439996021,118.04380439996021,119.27765579998959,Objects\088a.jpg,pre,o,1.2281765000079758,None,,,,,,,,00019,001,2026-01-20_15h44.09.765,MST_test,2024.2.0,59.97238869748545,2026-01-20 15h44.18.084717 +0530,
8,0,9,n,1.645175300014671,None,9,0,8,119.29350229998818,,,,,,,,,,,,,,,,,,,,,,,,,,,,,,,,,,,,,,,,,,,,,,,,,,119.27775239996845,119.29350229998818,119.79376099997899,119.77699319995008,119.78671389998635,119.79376099997899,119.79376099997899,119.79376099997899,121.4444630999933,Foils\033a.jpg,none,n,1.645175300014671,None,,,,,,,,00019,001,2026-01-20_15h44.09.765,MST_test,2024.2.0,59.97238869748545,2026-01-20 15h44.18.084717 +0530,
9,0,10,s,1.6388609999557957,None,10,0,9,121.46030169998994,,,,,,,,,,,,,,,,,,,,,,,,,,,,,,,,,,,,,,,,,,,,,,,,,,121.44455979997292,121.46030169998994,121.960466599965,121.94400509999832,121.95601509994594,121.960466599965,121.960466599965,121.960466599965,123.61092459998326,Objects\081b.jpg,post,s,1.6388609999557957,None,,,,,,,,00019,001,2026-01-20_15h44.09.765,MST_test,2024.2.0,59.97238869748545,2026-01-20 15h44.18.084717 +0530,
10,0,11,s,2.0342497000237927,None,11,0,10,123.62689249997493,,,,,,,,,,,,,,,,,,,,,,,,,,,,,,,,,,,,,,,,,,,,,,,,,,123.61101799999597,123.62689249997493,124.13343429996166,124.11074459995143,124.13123519998044,124.13343429996166,124.13343429996166,124.13343429996166,126.177712899982,Scenes\088b.jpg,mid,s,2.0342497000237927,None,,,,,,,,00019,001,2026-01-20_15h44.09.765,MST_test,2024.2.0,59.97238869748545,2026-01-20 15h44.18.084717 +0530,
11,0,12,o,1.4571865000179969,None,12,0,11,126.19361459999345,,,,,,,,,,,,,,,,,,,,,,,,,,,,,,,,,,,,,,,,,,,,,,,,,,126.17780649999622,126.19361459999345,126.6942097999854,126.67717979999725,126.6803425999824,126.6942097999854,126.6942097999854,126.6942097999854,128.16104569996241,Objects\079a.jpg,pre,o,1.4571865000179969,None,,,,,,,,00019,001,2026-01-20_15h44.09.765,MST_test,2024.2.0,59.97238869748545,2026-01-20 15h44.18.084717 +0530,
12,0,13,o,1.5214103999896906,None,13,0,12,128.1769648999907,,,,,,,,,,,,,,,,,,,,,,,,,,,,,,,,,,,,,,,,,,,,,,,,,,128.16113789996598,128.1769648999907,128.67736679996597,128.66078559996095,128.66518439998617,128.67736679996597,128.67736679996597,128.67736679996597,130.21100069995737,Scenes\096a.jpg,post,o,1.5214103999896906,None,,,,,,,,00019,001,2026-01-20_15h44.09.765,MST_test,2024.2.0,59.97238869748545,2026-01-20 15h44.18.084717 +0530,
13,0,14,o,1.507043400022667,None,14,0,13,130.22681669995654,,,,,,,,,,,,,,,,,,,,,,,,,,,,,,,,,,,,,,,,,,,,,,,,,,130.21109229995636,130.22681669995654,130.73203059996013,130.71059249999234,130.72971259994665,130.73203059996013,130.73203059996013,130.73203059996013,132.2443917999626,Scenes\012b.jpg,post,o,1.507043400022667,None,,,,,,,,00019,001,2026-01-20_15h44.09.765,MST_test,2024.2.0,59.97238869748545,2026-01-20 15h44.18.084717 +0530,
14,0,15,o,1.1346195000223815,None,15,0,14,132.26027109997813,,,,,,,,,,,,,,,,,,,,,,,,,,,,,,,,,,,,,,,,,,,,,,,,,,132.24448639998445,132.26027109997813,132.76079499995103,132.74393789999885,132.7470129999565,132.76079499995103,132.76079499995103,132.76079499995103,133.9108643999789,Objects\110a.jpg,mid,o,1.1346195000223815,None,,,,,,,,00019,001,2026-01-20_15h44.09.765,MST_test,2024.2.0,59.97238869748545,2026-01-20 15h44.18.084717 +0530,
15,0,16,n,1.9164255000068806,None,16,0,15,133.92688899999484,,,,,,,,,,,,,,,,,,,,,,,,,,,,,,,,,,,,,,,,,,,,,,,,,,133.9109520999482,133.92688899999484,134.42729959997814,134.41055199998664,134.42114159994526,134.42729959997814,134.42729959997814,134.42729959997814,136.34447329997784,Objects\059b.jpg,pre,n,1.9164255000068806,None,,,,,,,,00019,001,2026-01-20_15h44.09.765,MST_test,2024.2.0,59.97238869748545,2026-01-20 15h44.18.084717 +0530,
16,0,17,n,2.578009499993641,None,17,0,16,136.36037559999386,,,,,,,,,,,,,,,,,,,,,,,,,,,,,,,,,,,,,,,,,,,,,,,,,,136.34456869994756,136.36037559999386,136.8607873999863,136.8438236999791,136.85742019995814,136.8607873999863,136.8607873999863,136.8607873999863,139.44422329997178,Scenes\007b.jpg,post,n,2.578009499993641,None,,,,,,,,00019,001,2026-01-20_15h44.09.765,MST_test,2024.2.0,59.97238869748545,2026-01-20 15h44.18.084717 +0530,
17,0,18,o,1.1187308999942616,None,18,0,17,139.46029589994578,,,,,,,,,,,,,,,,,,,,,,,,,,,,,,,,,,,,,,,,,,,,,,,,,,139.44431439996697,139.46029589994578,139.96076499996707,139.94417699996848,139.94714389997534,139.96076499996707,139.96076499996707,139.96076499996707,141.09411199996248,Objects\003a.jpg,mid,o,1.1187308999942616,None,,,,,,,,00019,001,2026-01-20_15h44.09.765,MST_test,2024.2.0,59.97238869748545,2026-01-20 15h44.18.084717 +0530,
18,0,19,s,2.4279383000102825,None,19,0,18,141.11030399997253,,,,,,,,,,,,,,,,,,,,,,,,,,,,,,,,,,,,,,,,,,,,,,,,,,141.09420279995538,141.11030399997253,141.6108597999555,141.59388519998174,141.60877819999587,141.6108597999555,141.6108597999555,141.6108597999555,144.04445269994903,Scenes\186b.jpg,post,s,2.4279383000102825,None,,,,,,,,00019,001,2026-01-20_15h44.09.765,MST_test,2024.2.0,59.97238869748545,2026-01-20 15h44.18.084717 +0530,
19,0,20,o,1.126783500018064,None,20,0,19,144.06033249996835,,,,,,,,,,,,,,,,,,,,,,,,,,,,,,,,,,,,,,,,,,,,,,,,,,144.0445471999701,144.06033249996835,144.56087769998703,144.54412389994832,144.54729419999057,144.56087769998703,144.56087769998703,144.56087769998703,145.69437209999887,Objects\014a.jpg,pre,o,1.126783500018064,None,,,,,,,,00019,001,2026-01-20_15h44.09.765,MST_test,2024.2.0,59.97238869748545,2026-01-20 15h44.18.084717 +0530,
20,0,21,n,2.0615679000038654,None,21,0,20,145.71029389998876,,,,,,,,,,,,,,,,,,,,,,,,,,,,,,,,,,,,,,,,,,,,,,,,,,145.69446949998382,145.71029389998876,146.21047689998522,146.1938710999675,146.2039342999924,146.21047689998522,146.21047689998522,146.21047689998522,148.27749839995522,Foils\082a.jpg,none,n,2.0615679000038654,None,,,,,,,,00019,001,2026-01-20_15h44.09.765,MST_test,2024.2.0,59.97238869748545,2026-01-20 15h44.18.084717 +0530,
21,0,22,o,1.284793200029526,None,22,0,21,148.29361159994733,,,,,,,,,,,,,,,,,,,,,,,,,,,,,,,,,,,,,,,,,,,,,,,,,,148.27759899996454,148.29361159994733,148.79420999996364,148.7772109999787,148.78398899995955,148.79420999996364,148.79420999996364,148.79420999996364,150.0942239999422,Scenes\077a.jpg,mid,o,1.284793200029526,None,,,,,,,,00019,001,2026-01-20_15h44.09.765,MST_test,2024.2.0,59.97238869748545,2026-01-20 15h44.18.084717 +0530,
22,0,23,n,18.67004190001171,None,23,0,22,150.11022109998157,,,,,,,,,,,,,,,,,,,,,,,,,,,,,,,,,,,,,,,,,,,,,,,,,,150.09431439999025,150.11022109998157,150.61064139998052,150.59389779996127,150.603080699977,150.61064139998052,150.61064139998052,150.61064139998052,169.29444259998854,Foils\scenes4.jpg,none,n,18.67004190001171,None,,,,,,,,00019,001,2026-01-20_15h44.09.765,MST_test,2024.2.0,59.97238869748545,2026-01-20 15h44.18.084717 +0530,
23,0,24,n,1.8133411000017077,None,24,0,23,169.31031019997317,,,,,,,,,,,,,,,,,,,,,,,,,,,,,,,,,,,,,,,,,,,,,,,,,,169.2945445999503,169.31031019997317,169.81053089996567,169.79385079996428,169.80000859999564,169.81053089996567,169.81053089996567,169.81053089996567,171.62757519999286,Scenes\163a.jpg,pre,n,1.8133411000017077,None,,,,,,,,00019,001,2026-01-20_15h44.09.765,MST_test,2024.2.0,59.97238869748545,2026-01-20 15h44.18.084717 +0530,
24,0,25,s,1.536281999957282,None,25,0,24,171.64355749997776,,,,,,,,,,,,,,,,,,,,,,,,,,,,,,,,,,,,,,,,,,,,,,,,,,171.62767229997553,171.64355749997776,172.14405499998247,172.12712519994238,172.13040319998981,172.14405499998247,172.14405499998247,172.14405499998247,173.69421009998769,Objects\002a.jpg,mid,s,1.536281999957282,None,,,,,,,,00019,001,2026-01-20_15h44.09.765,MST_test,2024.2.0,59.97238869748545,2026-01-20 15h44.18.084717 +0530,
25,0,26,o,2.20499459997518,None,26,0,25,173.710285499983,,,,,,,,,,,,,,,,,,,,,,,,,,,,,,,,,,,,,,,,,,,,,,,,,,173.6943114999449,173.710285499983,174.210620799975,174.19434659997933,174.20485309994547,174.210620799975,174.210620799975,174.210620799975,176.4276266999659,Scenes\103a.jpg,pre,o,2.20499459997518,None,,,,,,,,00019,001,2026-01-20_15h44.09.765,MST_test,2024.2.0,59.97238869748545,2026-01-20 15h44.18.084717 +0530,
26,0,27,s,1.743907500000205,None,27,0,26,176.44367799995234,,,,,,,,,,,,,,,,,,,,,,,,,,,,,,,,,,,,,,,,,,,,,,,,,,176.42771879996872,176.44367799995234,176.94400569994468,176.92717259994242,176.9371100999997,176.94400569994468,176.94400569994468,176.94400569994468,178.6944736999576,Objects\125b.jpg,pre,s,1.743907500000205,None,,,,,,,,00019,001,2026-01-20_15h44.09.765,MST_test,2024.2.0,59.97238869748545,2026-01-20 15h44.18.084717 +0530,
27,0,28,o,1.4606029000133276,None,28,0,27,178.7102973999572,,,,,,,,,,,,,,,,,,,,,,,,,,,,,,,,,,,,,,,,,,,,,,,,,,178.6945735999616,178.7102973999572,179.2107772999443,179.1937981999945,179.20227889996022,179.2107772999443,179.2107772999443,179.2107772999443,180.67755939997733,Scenes\121a.jpg,pre,o,1.4606029000133276,None,,,,,,,,00019,001,2026-01-20_15h44.09.765,MST_test,2024.2.0,59.97238869748545,2026-01-20 15h44.18.084717 +0530,
28,0,29,o,1.714965299994219,None,29,0,28,180.69348909996916,,,,,,,,,,,,,,,,,,,,,,,,,,,,,,,,,,,,,,,,,,,,,,,,,,180.67765559995314,180.69348909996916,181.19735569995828,181.17717069998616,181.19487439998193,181.19735569995828,181.19735569995828,181.19735569995828,182.927802399965,Scenes\038b.jpg,mid,o,1.714965299994219,None,,,,,,,,00019,001,2026-01-20_15h44.09.765,MST_test,2024.2.0,59.97238869748545,2026-01-20 15h44.18.084717 +0530,
29,0,30,s,1.5075258000288159,None,30,0,29,182.9434915999882,,,,,,,,,,,,,,,,,,,,,,,,,,,,,,,,,,,,,,,,,,,,,,,,,,182.92789359996095,182.9434915999882,183.4442291999585,183.42719659995055,183.43794689996867,183.4442291999585,183.4442291999585,183.4442291999585,184.96074349997798,Objects\037b.jpg,pre,s,1.5075258000288159,None,,,,,,,,00019,001,2026-01-20_15h44.09.765,MST_test,2024.2.0,59.97238869748545,2026-01-20 15h44.18.084717 +0530,
30,0,31,o,2.8179648999939673,None,31,0,30,184.97675359999994,,,,,,,,,,,,,,,,,,,,,,,,,,,,,,,,,,,,,,,,,,,,,,,,,,184.9608362999861,184.97675359999994,185.47703859995818,185.46040699997684,185.4627086999826,185.47703859995818,185.47703859995818,185.47703859995818,188.3107403999893,Objects\011a.jpg,post,o,2.8179648999939673,None,,,,,,,,00019,001,2026-01-20_15h44.09.765,MST_test,2024.2.0,59.97238869748545,2026-01-20 15h44.18.084717 +0530,
31,0,32,n,3.3929073000326753,None,32,0,31,188.3268191999523,,,,,,,,,,,,,,,,,,,,,,,,,,,,,,,,,,,,,,,,,,,,,,,,,,188.3108301999746,188.3268191999523,188.85484429995995,188.81044069997733,188.85206589999143,188.85484429995995,188.85484429995995,188.85484429995995,192.26106489996891,Foils\scenes15.jpg,none,n,3.3929073000326753,None,,,,,,,,00019,001,2026-01-20_15h44.09.765,MST_test,2024.2.0,59.97238869748545,2026-01-20 15h44.18.084717 +0530,
32,0,33,s,1.3574133000220172,None,33,0,32,192.2767276999657,,,,,,,,,,,,,,,,,,,,,,,,,,,,,,,,,,,,,,,,,,,,,,,,,,192.26116059999913,192.2767276999657,192.77802789997077,192.7606788999983,192.77157629997237,192.77802789997077,192.77802789997077,192.77802789997077,194.14412599999923,Objects\072b.jpg,pre,s,1.3574133000220172,None,,,,,,,,00019,001,2026-01-20_15h44.09.765,MST_test,2024.2.0,59.97238869748545,2026-01-20 15h44.18.084717 +0530,
33,0,34,s,4.450464099994861,None,34,0,33,194.16016589995706,,,,,,,,,,,,,,,,,,,,,,,,,,,,,,,,,,,,,,,,,,,,,,,,,,194.14421629998833,194.16016589995706,194.6607028999715,194.64374069997575,194.65120809996733,194.6607028999715,194.6607028999715,194.6607028999715,199.12742469995283,Scenes\182a.jpg,post,s,4.450464099994861,None,,,,,,,,00019,001,2026-01-20_15h44.09.765,MST_test,2024.2.0,59.97238869748545,2026-01-20 15h44.18.084717 +0530,
34,0,35,n,1.2828704000567086,None,35,0,34,199.14416829997208,,,,,,,,,,,,,,,,,,,,,,,,,,,,,,,,,,,,,,,,,,,,,,,,,,199.12751419999404,199.14416829997208,199.64407319994643,199.62725319998572,199.63807589997305,199.64407319994643,199.64407319994643,199.64407319994643,200.92764039995382,Foils\098a.jpg,none,n,1.2828704000567086,None,,,,,,,,00019,001,2026-01-20_15h44.09.765,MST_test,2024.2.0,59.97238869748545,2026-01-20 15h44.18.084717 +0530,
35,0,36,s,1.355077899992466,None,36,0,35,200.94354959996417,,,,,,,,,,,,,,,,,,,,,,,,,,,,,,,,,,,,,,,,,,,,,,,,,,200.92773319996195,200.94354959996417,201.4437758999993,201.42716939997626,201.43689079995966,201.4437758999993,201.4437758999993,201.4437758999993,202.8109333999455,Objects\166b.jpg,pre,s,1.355077899992466,None,,,,,,,,00019,001,2026-01-20_15h44.09.765,MST_test,2024.2.0,59.97238869748545,2026-01-20 15h44.18.084717 +0530,
36,0,37,o,2.6718501999857835,None,37,0,36,202.82673319999594,,,,,,,,,,,,,,,,,,,,,,,,,,,,,,,,,,,,,,,,,,,,,,,,,,202.8110285999719,202.82673319999594,203.32703869999386,203.31042619998334,203.31301649997476,203.32703869999386,203.32703869999386,203.32703869999386,206.0107839999837,Objects\153a.jpg,post,o,2.6718501999857835,None,,,,,,,,00019,001,2026-01-20_15h44.09.765,MST_test,2024.2.0,59.97238869748545,2026-01-20 15h44.18.084717 +0530,
37,0,38,n,2.845389099966269,None,38,0,37,206.02672889997484,,,,,,,,,,,,,,,,,,,,,,,,,,,,,,,,,,,,,,,,,,,,,,,,,,206.01088829996297,206.02672889997484,206.5301296999678,206.51039709994802,206.52803049999056,206.5301296999678,206.5301296999678,206.5301296999678,209.3772464999929,Scenes\174b.jpg,post,n,2.845389099966269,None,,,,,,,,00019,001,2026-01-20_15h44.09.765,MST_test,2024.2.0,59.97238869748545,2026-01-20 15h44.18.084717 +0530,
38,0,39,s,1.7366613999474794,None,39,0,38,209.39352719997987,,,,,,,,,,,,,,,,,,,,,,,,,,,,,,,,,,,,,,,,,,,,,,,,,,209.37734019994969,209.39352719997987,209.89420089998748,209.87717859999975,209.89041759999236,209.89420089998748,209.89420089998748,209.89420089998748,211.64412309997715,Scenes\141b.jpg,pre,s,1.7366613999474794,None,,,,,,,,00019,001,2026-01-20_15h44.09.765,MST_test,2024.2.0,59.97238869748545,2026-01-20 15h44.18.084717 +0530,
39,0,40,o,4.0780646999483,None,40,0,39,211.66022499999963,,,,,,,,,,,,,,,,,,,,,,,,,,,,,,,,,,,,,,,,,,,,,,,,,,211.6442147999769,211.66022499999963,212.16146659996593,212.14373529999284,212.15918789996067,212.16146659996593,212.16146659996593,212.16146659996593,216.24410339997848,Scenes\131b.jpg,mid,o,4.0780646999483,None,,,,,,,,00019,001,2026-01-20_15h44.09.765,MST_test,2024.2.0,59.97238869748545,2026-01-20 15h44.18.084717 +0530,
40,0,41,o,1.1028875000192784,None,41,0,40,216.26022529997863,,,,,,,,,,,,,,,,,,,,,,,,,,,,,,,,,,,,,,,,,,,,,,,,,,216.24420029995963,216.26022529997863,216.76082859997405,216.74381259997608,216.75582889997168,216.76082859997405,216.76082859997405,216.76082859997405,217.8774252999574,Scenes\032a.jpg,mid,o,1.1028875000192784,None,,,,,,,,00019,001,2026-01-20_15h44.09.765,MST_test,2024.2.0,59.97238869748545,2026-01-20 15h44.18.084717 +0530,
41,0,42,o,0.9896776000387035,None,42,0,41,217.89351199998055,,,,,,,,,,,,,,,,,,,,,,,,,,,,,,,,,,,,,,,,,,,,,,,,,,217.87752269994235,217.89351199998055,218.39407079998637,218.37714939995203,218.3804329999839,218.39407079998637,218.39407079998637,218.39407079998637,219.39414659998147,Objects\143a.jpg,pre,o,0.9896776000387035,None,,,,,,,,00019,001,2026-01-20_15h44.09.765,MST_test,2024.2.0,59.97238869748545,2026-01-20 15h44.18.084717 +0530,
42,0,43,o,1.2088370000128634,None,43,0,42,219.41025309998076,,,,,,,,,,,,,,,,,,,,,,,,,,,,,,,,,,,,,,,,,,,,,,,,,,219.39423849998275,219.41025309998076,219.9106780999573,219.89399429998593,219.90355989994714,219.9106780999573,219.9106780999573,219.9106780999573,221.12750119995326,Scenes\017a.jpg,pre,o,1.2088370000128634,None,,,,,,,,00019,001,2026-01-20_15h44.09.765,MST_test,2024.2.0,59.97238869748545,2026-01-20 15h44.18.084717 +0530,
43,0,44,s,1.5148415999719873,None,44,0,43,221.14360519999173,,,,,,,,,,,,,,,,,,,,,,,,,,,,,,,,,,,,,,,,,,,,,,,,,,221.12760929996148,221.14360519999173,221.6440344999428,221.62706869997783,221.63643589999992,221.6440344999428,221.6440344999428,221.6440344999428,223.16090669995174,Objects\035b.jpg,mid,s,1.5148415999719873,None,,,,,,,,00019,001,2026-01-20_15h44.09.765,MST_test,2024.2.0,59.97238869748545,2026-01-20 15h44.18.084717 +0530,
44,0,45,n,2.1698424000060186,None,45,0,44,223.17676919995574,,,,,,,,,,,,,,,,,,,,,,,,,,,,,,,,,,,,,,,,,,,,,,,,,,223.16100109997205,223.17676919995574,223.67700619995594,223.66046299994923,223.6697282999521,223.67700619995594,223.67700619995594,223.67700619995594,225.86086769995745,Foils\042a.jpg,none,n,2.1698424000060186,None,,,,,,,,00019,001,2026-01-20_15h44.09.765,MST_test,2024.2.0,59.97238869748545,2026-01-20 15h44.18.084717 +0530,
45,0,46,o,1.2138872000505216,None,46,0,45,225.87672469997779,,,,,,,,,,,,,,,,,,,,,,,,,,,,,,,,,,,,,,,,,,,,,,,,,,225.8609648999991,225.87672469997779,226.3769776999834,226.3605780999642,226.36315099999774,226.3769776999834,226.3769776999834,226.3769776999834,227.59413619997213,Objects\056a.jpg,mid,o,1.2138872000505216,None,,,,,,,,00019,001,2026-01-20_15h44.09.765,MST_test,2024.2.0,59.97238869748545,2026-01-20 15h44.18.084717 +0530,
46,0,47,s,1.2806909999926575,None,47,0,46,227.61020089994418,,,,,,,,,,,,,,,,,,,,,,,,,,,,,,,,,,,,,,,,,,,,,,,,,,227.5942283999757,227.61020089994418,228.11044319998473,228.09374859998934,228.09615449997364,228.11044319998473,228.11044319998473,228.11044319998473,229.39420689997496,Objects\098a.jpg,mid,s,1.2806909999926575,None,,,,,,,,00019,001,2026-01-20_15h44.09.765,MST_test,2024.2.0,59.97238869748545,2026-01-20 15h44.18.084717 +0530,
47,0,48,n,1.9174543000408448,None,48,0,47,229.41024649998872,,,,,,,,,,,,,,,,,,,,,,,,,,,,,,,,,,,,,,,,,,,,,,,,,,229.3943066999782,229.41024649998872,229.9139599999762,229.89375749998726,229.9118019999587,229.9139599999762,229.9139599999762,229.9139599999762,231.844470299955,Scenes\190b.jpg,post,n,1.9174543000408448,None,,,,,,,,00019,001,2026-01-20_15h44.09.765,MST_test,2024.2.0,59.97238869748545,2026-01-20 15h44.18.084717 +0530,
48,0,49,o,1.243352200021036,None,49,0,48,231.86019509995822,,,,,,,,,,,,,,,,,,,,,,,,,,,,,,,,,,,,,,,,,,,,,,,,,,231.84456789999967,231.86019509995822,232.36471789999632,232.343853999977,232.36236009997083,232.36471789999632,232.36471789999632,232.36471789999632,233.61084179999307,Scenes\015b.jpg,pre,o,1.243352200021036,None,,,,,,,,00019,001,2026-01-20_15h44.09.765,MST_test,2024.2.0,59.97238869748545,2026-01-20 15h44.18.084717 +0530,
49,0,50,o,4.704379000002518,None,50,0,49,233.62666519999038,,,,,,,,,,,,,,,,,,,,,,,,,,,,,,,,,,,,,,,,,,,,,,,,,,233.6109415999963,233.62666519999038,234.12738919997355,234.11063979996834,234.12135409994517,234.12738919997355,234.12738919997355,234.12738919997355,238.84415989997797,Objects\113b.jpg,post,o,4.704379000002518,None,,,,,,,,00019,001,2026-01-20_15h44.09.765,MST_test,2024.2.0,59.97238869748545,2026-01-20 15h44.18.084717 +0530,
50,0,51,s,1.0950987999676727,None,51,0,50,238.860230899998,,,,,,,,,,,,,,,,,,,,,,,,,,,,,,,,,,,,,,,,,,,,,,,,,,238.84425329999067,238.860230899998,239.3605319999624,239.34386349999113,239.3536710999906,239.3605319999624,239.3605319999624,239.3605319999624,240.46094659995288,Objects\118b.jpg,mid,s,1.0950987999676727,None,,,,,,,,00019,001,2026-01-20_15h44.09.765,MST_test,2024.2.0,59.97238869748545,2026-01-20 15h44.18.084717 +0530,
51,0,52,s,1.9513712000334635,None,52,0,51,240.47694069996942,,,,,,,,,,,,,,,,,,,,,,,,,,,,,,,,,,,,,,,,,,,,,,,,,,240.46104529994773,240.47694069996942,240.9772796999896,240.96073819999583,240.97108249994926,240.9772796999896,240.9772796999896,240.9772796999896,242.94442339998204,Scenes\026a.jpg,pre,s,1.9513712000334635,None,,,,,,,,00019,001,2026-01-20_15h44.09.765,MST_test,2024.2.0,59.97238869748545,2026-01-20 15h44.18.084717 +0530,
52,0,53,n,1.4337739999755286,None,53,0,52,242.9604766999837,,,,,,,,,,,,,,,,,,,,,,,,,,,,,,,,,,,,,,,,,,,,,,,,,,242.944514599978,242.9604766999837,243.46098439994967,243.4439080999582,243.45585589995608,243.46098439994967,243.46098439994967,243.46098439994967,244.91104229999473,Foils\009a.jpg,none,n,1.4337739999755286,None,,,,,,,,00019,001,2026-01-20_15h44.09.765,MST_test,2024.2.0,59.97238869748545,2026-01-20 15h44.18.084717 +0530,
53,0,54,o,1.2361248999950476,None,54,0,53,244.9269516999484,,,,,,,,,,,,,,,,,,,,,,,,,,,,,,,,,,,,,,,,,,,,,,,,,,244.91113999998197,244.9269516999484,245.42751429998316,245.4105551999528,245.42324039997766,245.42751429998316,245.42751429998316,245.42751429998316,246.6776639999589,Scenes\034a.jpg,mid,o,1.2361248999950476,None,,,,,,,,00019,001,2026-01-20_15h44.09.765,MST_test,2024.2.0,59.97238869748545,2026-01-20 15h44.18.084717 +0530,
54,0,55,n,2.2860425999970175,None,55,0,54,246.69368809997104,,,,,,,,,,,,,,,,,,,,,,,,,,,,,,,,,,,,,,,,,,,,,,,,,,246.67775909998454,246.69368809997104,247.19372499996098,247.17723079997813,247.18808479997097,247.19372499996098,247.19372499996098,247.19372499996098,249.4944057999528,Foils\scenes13.jpg,none,n,2.2860425999970175,None,,,,,,,,00019,001,2026-01-20_15h44.09.765,MST_test,2024.2.0,59.97238869748545,2026-01-20 15h44.18.084717 +0530,
55,0,56,o,1.0532270999974571,None,56,0,55,249.51036339998245,,,,,,,,,,,,,,,,,,,,,,,,,,,,,,,,,,,,,,,,,,,,,,,,,,249.49450529995374,249.51036339998245,250.01069089997327,249.99405459995614,250.0038386999513,250.01069089997327,250.01069089997327,250.01069089997327,251.07744519994594,Objects\123b.jpg,pre,o,1.0532270999974571,None,,,,,,,,00019,001,2026-01-20_15h44.09.765,MST_test,2024.2.0,59.97238869748545,2026-01-20 15h44.18.084717 +0530,
56,0,57,s,1.1173897999688052,None,57,0,56,251.09368719998747,,,,,,,,,,,,,,,,,,,,,,,,,,,,,,,,,,,,,,,,,,,,,,,,,,251.07753799995407,251.09368719998747,251.59389249997912,251.57729909999762,251.57977159996517,251.59389249997912,251.59389249997912,251.59389249997912,252.72759759996552,Objects\068a.jpg,mid,s,1.1173897999688052,None,,,,,,,,00019,001,2026-01-20_15h44.09.765,MST_test,2024.2.0,59.97238869748545,2026-01-20 15h44.18.084717 +0530,
57,0,58,s,1.331404399999883,None,58,0,57,252.74376939999638,,,,,,,,,,,,,,,,,,,,,,,,,,,,,,,,,,,,,,,,,,,,,,,,,,252.72769119997974,252.74376939999638,253.24406049994286,253.22723679995397,253.23711959994398,253.24406049994286,253.24406049994286,253.24406049994286,254.57744389999425,Objects\070b.jpg,mid,s,1.331404399999883,None,,,,,,,,00019,001,2026-01-20_15h44.09.765,MST_test,2024.2.0,59.97238869748545,2026-01-20 15h44.18.084717 +0530,
58,0,59,n,4.088697900006082,None,59,0,58,254.5938335999963,,,,,,,,,,,,,,,,,,,,,,,,,,,,,,,,,,,,,,,,,,,,,,,,,,254.57754629995907,254.5938335999963,255.09412689995952,255.07729689998087,255.08760449994588,255.09412689995952,255.09412689995952,255.09412689995952,259.19424379995326,Scenes\084a.jpg,mid,n,4.088697900006082,None,,,,,,,,00019,001,2026-01-20_15h44.09.765,MST_test,2024.2.0,59.97238869748545,2026-01-20 15h44.18.084717 +0530,
59,0,60,s,1.3207061000284739,None,60,0,59,259.21035029995255,,,,,,,,,,,,,,,,,,,,,,,,,,,,,,,,,,,,,,,,,,,,,,,,,,259.19433639995987,259.21035029995255,259.7108303999994,259.6939923999598,259.7042755999719,259.7108303999994,259.7108303999994,259.7108303999994,261.04413779999595,Objects\009b.jpg,post,s,1.3207061000284739,None,,,,,,,,00019,001,2026-01-20_15h44.09.765,MST_test,2024.2.0,59.97238869748545,2026-01-20 15h44.18.084717 +0530,
60,0,61,o,3.5114061000058427,None,61,0,60,261.0603542999597,,,,,,,,,,,,,,,,,,,,,,,,,,,,,,,,,,,,,,,,,,,,,,,,,,261.0442279999843,261.0603542999597,261.56814679998206,261.54444799997145,261.56569749995833,261.56814679998206,261.56814679998206,261.56814679998206,265.0943957999698,Scenes\041b.jpg,mid,o,3.5114061000058427,None,,,,,,,,00019,001,2026-01-20_15h44.09.765,MST_test,2024.2.0,59.97238869748545,2026-01-20 15h44.18.084717 +0530,
61,0,62,s,1.140090400003828,None,62,0,61,265.1103156999452,,,,,,,,,,,,,,,,,,,,,,,,,,,,,,,,,,,,,,,,,,,,,,,,,,265.09450639999704,265.1103156999452,265.6107710999786,265.59389649995137,265.60373199998867,265.6107710999786,265.6107710999786,265.6107710999786,266.76094239996746,Scenes\053b.jpg,mid,s,1.140090400003828,None,,,,,,,,00019,001,2026-01-20_15h44.09.765,MST_test,2024.2.0,59.97238869748545,2026-01-20 15h44.18.084717 +0530,
62,0,63,s,3.384641900018323,None,63,0,62,266.7770166999544,,,,,,,,,,,,,,,,,,,,,,,,,,,,,,,,,,,,,,,,,,,,,,,,,,266.76103529997636,266.7770166999544,267.2788178999908,267.2606292999699,267.2766862999997,267.2788178999908,267.2788178999908,267.2788178999908,270.67760719999205,Scenes\078b.jpg,mid,s,3.384641900018323,None,,,,,,,,00019,001,2026-01-20_15h44.09.765,MST_test,2024.2.0,59.97238869748545,2026-01-20 15h44.18.084717 +0530,
63,0,64,o,1.1571666999952868,None,64,0,63,270.6935510999756,,,,,,,,,,,,,,,,,,,,,,,,,,,,,,,,,,,,,,,,,,,,,,,,,,270.67770339996787,270.6935510999756,271.19414989999495,271.1772078999784,271.18034759996226,271.19414989999495,271.19414989999495,271.19414989999495,272.3610375999706,Objects\107a.jpg,pre,o,1.1571666999952868,None,,,,,,,,00019,001,2026-01-20_15h44.09.765,MST_test,2024.2.0,59.97238869748545,2026-01-20 15h44.18.084717 +0530,
64,0,65,s,1.145832900016103,None,65,0,64,272.376853499969,,,,,,,,,,,,,,,,,,,,,,,,,,,,,,,,,,,,,,,,,,,,,,,,,,272.3611410999438,272.376853499969,272.8771745999693,272.8606554999715,272.8699444999802,272.8771745999693,272.8771745999693,272.8771745999693,274.02756609994685,Foils\106a.jpg,none,s,1.145832900016103,None,,,,,,,,00019,001,2026-01-20_15h44.09.765,MST_test,2024.2.0,59.97238869748545,2026-01-20 15h44.18.084717 +0530,
65,0,66,o,0.8389097999897785,None,66,0,65,274.0436851999839,,,,,,,,,,,,,,,,,,,,,,,,,,,,,,,,,,,,,,,,,,,,,,,,,,274.0276596999611,274.0436851999839,274.5439154999913,274.5273274999927,274.52987579995533,274.5439154999913,274.5439154999913,274.5439154999913,275.3942289999686,Objects\191a.jpg,post,o,0.8389097999897785,None,,,,,,,,00019,001,2026-01-20_15h44.09.765,MST_test,2024.2.0,59.97238869748545,2026-01-20 15h44.18.084717 +0530,
66,0,67,s,4.905133899999782,None,67,0,66,275.41034989996115,,,,,,,,,,,,,,,,,,,,,,,,,,,,,,,,,,,,,,,,,,,,,,,,,,275.39431959996,275.41034989996115,275.91071929998,275.89383359998465,275.9075282999547,275.91071929998,275.91071929998,275.91071929998,280.82732409995515,Scenes\132b.jpg,post,s,4.905133899999782,None,,,,,,,,00019,001,2026-01-20_15h44.09.765,MST_test,2024.2.0,59.97238869748545,2026-01-20 15h44.18.084717 +0530,
67,0,68,n,0.9431484999950044,None,68,0,67,280.8435259999824,,,,,,,,,,,,,,,,,,,,,,,,,,,,,,,,,,,,,,,,,,,,,,,,,,280.8274222999462,280.8435259999824,281.34408519999124,281.3271979999845,281.3422061999445,281.34408519999124,281.34408519999124,281.34408519999124,282.29437919997144,Scenes\153b.jpg,pre,n,0.9431484999950044,None,,,,,,,,00019,001,2026-01-20_15h44.09.765,MST_test,2024.2.0,59.97238869748545,2026-01-20 15h44.18.084717 +0530,
68,0,69,o,1.0927282000193372,None,69,0,68,282.31029859994305,,,,,,,,,,,,,,,,,,,,,,,,,,,,,,,,,,,,,,,,,,,,,,,,,,282.2944773999625,282.31029859994305,282.8108441999648,282.7940390999429,282.7970363999484,282.8108441999648,282.8108441999648,282.8108441999648,283.9108490999788,Objects\151a.jpg,mid,o,1.0927282000193372,None,,,,,,,,00019,001,2026-01-20_15h44.09.765,MST_test,2024.2.0,59.97238869748545,2026-01-20 15h44.18.084717 +0530,
69,0,70,o,1.108579899999313,None,70,0,69,283.92682329996023,,,,,,,,,,,,,,,,,,,,,,,,,,,,,,,,,,,,,,,,,,,,,,,,,,283.910944299947,283.92682329996023,284.4273552999948,284.41052069998113,284.4176843999885,284.4273552999948,284.4273552999948,284.4273552999948,285.5444680999499,Scenes\098a.jpg,pre,o,1.108579899999313,None,,,,,,,,00019,001,2026-01-20_15h44.09.765,MST_test,2024.2.0,59.97238869748545,2026-01-20 15h44.18.084717 +0530,
70,0,71,n,1.074564999958966,None,71,0,70,285.56036999996286,,,,,,,,,,,,,,,,,,,,,,,,,,,,,,,,,,,,,,,,,,,,,,,,,,285.5445688999607,285.56036999996286,286.06068049999885,286.0438879999565,286.0534885999514,286.06068049999885,286.06068049999885,286.06068049999885,287.1443389999913,Foils\018a.jpg,none,n,1.074564999958966,None,,,,,,,,00019,001,2026-01-20_15h44.09.765,MST_test,2024.2.0,59.97238869748545,2026-01-20 15h44.18.084717 +0530,
71,0,72,n,1.8198041000287049,None,72,0,71,287.1602979999734,,,,,,,,,,,,,,,,,,,,,,,,,,,,,,,,,,,,,,,,,,,,,,,,,,287.1444292999804,287.1602979999734,287.6607535999501,287.6438893999439,287.6527930999873,287.6607535999501,287.6607535999501,287.6607535999501,289.4941625999636,Foils\scenes14.jpg,none,n,1.8198041000287049,None,,,,,,,,00019,001,2026-01-20_15h44.09.765,MST_test,2024.2.0,59.97238869748545,2026-01-20 15h44.18.084717 +0530,
72,0,73,o,1.4053335000062361,None,73,0,72,289.51036469999235,,,,,,,,,,,,,,,,,,,,,,,,,,,,,,,,,,,,,,,,,,,,,,,,,,289.4942543999641,289.51036469999235,290.0107477999991,289.99394389998633,289.99717529996997,290.0107477999991,290.0107477999991,290.0107477999991,291.42769309994765,Objects\178a.jpg,post,o,1.4053335000062361,None,,,,,,,,00019,001,2026-01-20_15h44.09.765,MST_test,2024.2.0,59.97238869748545,2026-01-20 15h44.18.084717 +0530,
73,0,74,o,1.2637906999443658,None,74,0,73,291.44355999998515,,,,,,,,,,,,,,,,,,,,,,,,,,,,,,,,,,,,,,,,,,,,,,,,,,291.42778809997253,291.44355999998515,291.943894099968,291.9273469999898,291.9297223999747,291.943894099968,291.943894099968,291.943894099968,293.21116939996136,Objects\021a.jpg,mid,o,1.2637906999443658,None,,,,,,,,00019,001,2026-01-20_15h44.09.765,MST_test,2024.2.0,59.97238869748545,2026-01-20 15h44.18.084717 +0530,
74,0,75,n,1.5755774999852292,None,75,0,74,293.2268297999981,,,,,,,,,,,,,,,,,,,,,,,,,,,,,,,,,,,,,,,,,,,,,,,,,,293.21127009997144,293.2268297999981,293.7272614999674,293.71061529999133,293.7198986999574,293.7272614999674,293.7272614999674,293.7272614999674,295.31096069997875,Foils\113a.jpg,none,n,1.5755774999852292,None,,,,,,,,00019,001,2026-01-20_15h44.09.765,MST_test,2024.2.0,59.97238869748545,2026-01-20 15h44.18.084717 +0530,
75,0,76,s,1.0283564000274055,None,76,0,75,295.3269286999712,,,,,,,,,,,,,,,,,,,,,,,,,,,,,,,,,,,,,,,,,,,,,,,,,,295.311052199977,295.3269286999712,295.8271378999925,295.8106049999478,295.8228751999559,295.8271378999925,295.8271378999925,295.8271378999925,296.8609880999429,Objects\114b.jpg,mid,s,1.0283564000274055,None,,,,,,,,00019,001,2026-01-20_15h44.09.765,MST_test,2024.2.0,59.97238869748545,2026-01-20 15h44.18.084717 +0530,
76,0,77,o,1.470289699966088,None,77,0,76,296.8767781999777,,,,,,,,,,,,,,,,,,,,,,,,,,,,,,,,,,,,,,,,,,,,,,,,,,296.86109539994504,296.8767781999777,297.3773760999902,297.36080539994873,297.37119709997205,297.3773760999902,297.3773760999902,297.3773760999902,298.86096469999757,Scenes\072a.jpg,post,o,1.470289699966088,None,,,,,,,,00019,001,2026-01-20_15h44.09.765,MST_test,2024.2.0,59.97238869748545,2026-01-20 15h44.18.084717 +0530,
77,0,78,o,1.318339699995704,None,78,0,77,298.87698489998,,,,,,,,,,,,,,,,,,,,,,,,,,,,,,,,,,,,,,,,,,,,,,,,,,298.861057699949,298.87698489998,299.37733359995764,299.3604968999862,299.3713283999823,299.37733359995764,299.37733359995764,299.37733359995764,300.7108724999707,Scenes\031a.jpg,post,o,1.318339699995704,None,,,,,,,,00019,001,2026-01-20_15h44.09.765,MST_test,2024.2.0,59.97238869748545,2026-01-20 15h44.18.084717 +0530,
78,0,79,n,2.6202584999846295,None,79,0,78,300.72675899998285,,,,,,,,,,,,,,,,,,,,,,,,,,,,,,,,,,,,,,,,,,,,,,,,,,300.710962299956,300.72675899998285,301.22746869997354,301.21049389999826,301.22087089996785,301.22746869997354,301.22746869997354,301.22746869997354,303.86094709997997,Scenes\128a.jpg,post,n,2.6202584999846295,None,,,,,,,,00019,001,2026-01-20_15h44.09.765,MST_test,2024.2.0,59.97238869748545,2026-01-20 15h44.18.084717 +0530,
79,0,80,o,1.3902670000097714,None,80,0,79,303.8767623999738,,,,,,,,,,,,,,,,,,,,,,,,,,,,,,,,,,,,,,,,,,,,,,,,,,303.86104179994436,303.8767623999738,304.3772777999984,304.3605190999806,304.3671846999787,304.3772777999984,304.3772777999984,304.3772777999984,305.77740749996156,Scenes\172a.jpg,pre,o,1.3902670000097714,None,,,,,,,,00019,001,2026-01-20_15h44.09.765,MST_test,2024.2.0,59.97238869748545,2026-01-20 15h44.18.084717 +0530,
80,0,81,n,1.3774373999913223,None,81,0,80,305.7935595999588,,,,,,,,,,,,,,,,,,,,,,,,,,,,,,,,,,,,,,,,,,,,,,,,,,305.77749729994684,305.7935595999588,306.2941613999428,306.277334399987,306.2888614999829,306.2941613999428,306.2941613999428,306.2941613999428,307.6773845999851,Foils\121a.jpg,none,n,1.3774373999913223,None,,,,,,,,00019,001,2026-01-20_15h44.09.765,MST_test,2024.2.0,59.97238869748545,2026-01-20 15h44.18.084717 +0530,
81,0,82,o,1.4853168999543414,None,82,0,81,307.69362989999354,,,,,,,,,,,,,,,,,,,,,,,,,,,,,,,,,,,,,,,,,,,,,,,,,,307.67747499997495,307.69362989999354,308.1940654999926,308.1772163999849,308.1880106999888,308.1940654999926,308.1940654999926,308.1940654999926,309.69428419996984,Scenes\020a.jpg,post,o,1.4853168999543414,None,,,,,,,,00019,001,2026-01-20_15h44.09.765,MST_test,2024.2.0,59.97238869748545,2026-01-20 15h44.18.084717 +0530,
82,0,83,n,6.818637799995486,None,83,0,82,309.71056299994234,,,,,,,,,,,,,,,,,,,,,,,,,,,,,,,,,,,,,,,,,,,,,,,,,,309.6943923999788,309.71056299994234,310.21318569994764,310.1938051999896,310.21076689998154,310.21318569994764,310.21318569994764,310.21318569994764,317.0441379999975,Foils\scenes22.jpg,none,n,6.818637799995486,None,,,,,,,,00019,001,2026-01-20_15h44.09.765,MST_test,2024.2.0,59.97238869748545,2026-01-20 15h44.18.084717 +0530,
83,0,84,n,1.9099034999962896,None,84,0,83,317.06025409995345,,,,,,,,,,,,,,,,,,,,,,,,,,,,,,,,,,,,,,,,,,,,,,,,,,317.0442286999896,317.06025409995345,317.5609830999747,317.5441559999599,317.55535459995735,317.5609830999747,317.5609830999747,317.5609830999747,319.47733259998495,Foils\010a.jpg,none,n,1.9099034999962896,None,,,,,,,,00019,001,2026-01-20_15h44.09.765,MST_test,2024.2.0,59.97238869748545,2026-01-20 15h44.18.084717 +0530,
84,0,85,s,2.949484000040684,None,85,0,84,319.4935925999889,,,,,,,,,,,,,,,,,,,,,,,,,,,,,,,,,,,,,,,,,,,,,,,,,,319.47742129996186,319.4935925999889,319.9941203999915,319.97704069997417,319.98632129997713,319.9941203999915,319.9941203999915,319.9941203999915,322.94443549995776,Scenes\142a.jpg,post,s,2.949484000040684,None,,,,,,,,00019,001,2026-01-20_15h44.09.765,MST_test,2024.2.0,59.97238869748545,2026-01-20 15h44.18.084717 +0530,
85,0,86,n,5.346844999992754,None,86,0,85,322.9603529999731,,,,,,,,,,,,,,,,,,,,,,,,,,,,,,,,,,,,,,,,,,,,,,,,,,322.9445302999811,322.9603529999731,323.4607020999538,323.4438164999592,323.45254009997007,323.4607020999538,323.4607020999538,323.4607020999538,328.8108466999838,Foils\scenes12.jpg,none,n,5.346844999992754,None,,,,,,,,00019,001,2026-01-20_15h44.09.765,MST_test,2024.2.0,59.97238869748545,2026-01-20 15h44.18.084717 +0530,
86,0,87,s,2.96826080000028,None,87,0,86,328.8268305999809,,,,,,,,,,,,,,,,,,,,,,,,,,,,,,,,,,,,,,,,,,,,,,,,,,328.8109367999714,328.8268305999809,329.32717089995276,329.31045149994316,329.31337819999317,329.32717089995276,329.32717089995276,329.32717089995276,332.3108476999914,Objects\177a.jpg,pre,s,2.96826080000028,None,,,,,,,,00019,001,2026-01-20_15h44.09.765,MST_test,2024.2.0,59.97238869748545,2026-01-20 15h44.18.084717 +0530,
87,0,88,s,2.3285242000129074,None,88,0,87,332.3267694999813,,,,,,,,,,,,,,,,,,,,,,,,,,,,,,,,,,,,,,,,,,,,,,,,,,332.3109411999467,332.3267694999813,332.83066629996756,332.81053149997024,332.8285324999597,332.83066629996756,332.83066629996756,332.83066629996756,335.16093179996824,Scenes\100b.jpg,pre,s,2.3285242000129074,None,,,,,,,,00019,001,2026-01-20_15h44.09.765,MST_test,2024.2.0,59.97238869748545,2026-01-20 15h44.18.084717 +0530,
88,0,89,o,1.2037265000399202,None,89,0,88,335.176860699954,,,,,,,,,,,,,,,,,,,,,,,,,,,,,,,,,,,,,,,,,,,,,,,,,,335.1610237999703,335.176860699954,335.6832089999807,335.6606940999627,335.68110959994374,335.6832089999807,335.6832089999807,335.6832089999807,336.89442839997355,Scenes\003b.jpg,mid,o,1.2037265000399202,None,,,,,,,,00019,001,2026-01-20_15h44.09.765,MST_test,2024.2.0,59.97238869748545,2026-01-20 15h44.18.084717 +0530,
89,0,90,o,1.6935497999656945,None,90,0,89,336.91018739994615,,,,,,,,,,,,,,,,,,,,,,,,,,,,,,,,,,,,,,,,,,,,,,,,,,336.8945208999794,336.91018739994615,337.41052949998993,337.3938678999548,337.40399629995227,337.41052949998993,337.41052949998993,337.41052949998993,339.110787099984,Scenes\029a.jpg,post,o,1.6935497999656945,None,,,,,,,,00019,001,2026-01-20_15h44.09.765,MST_test,2024.2.0,59.97238869748545,2026-01-20 15h44.18.084717 +0530,
90,0,91,o,1.2850909000262618,None,91,0,90,339.12682129995665,,,,,,,,,,,,,,,,,,,,,,,,,,,,,,,,,,,,,,,,,,,,,,,,,,339.11087989999214,339.12682129995665,339.627342999971,339.6105371999438,339.6136123999604,339.627342999971,339.627342999971,339.627342999971,340.9278302999446,Objects\005a.jpg,post,o,1.2850909000262618,None,,,,,,,,00019,001,2026-01-20_15h44.09.765,MST_test,2024.2.0,59.97238869748545,2026-01-20 15h44.18.084717 +0530,
91,0,92,o,0.9497435000375845,None,92,0,91,340.94379729998764,,,,,,,,,,,,,,,,,,,,,,,,,,,,,,,,,,,,,,,,,,,,,,,,,,340.92791999998735,340.94379729998764,341.4437693999498,341.4272003999795,341.4297652999521,341.4437693999498,341.4437693999498,341.4437693999498,342.39436469995417,Objects\172a.jpg,pre,o,0.9497435000375845,None,,,,,,,,00019,001,2026-01-20_15h44.09.765,MST_test,2024.2.0,59.97238869748545,2026-01-20 15h44.18.084717 +0530,
92,0,93,o,0.760316799976863,None,93,0,92,342.41029479994904,,,,,,,,,,,,,,,,,,,,,,,,,,,,,,,,,,,,,,,,,,,,,,,,,,342.3944721999578,342.41029479994904,342.9105880999705,342.89385889994446,342.9031030999613,342.9105880999705,342.9105880999705,342.9105880999705,343.6776124999742,Objects\040b.jpg,mid,o,0.760316799976863,None,,,,,,,,00019,001,2026-01-20_15h44.09.765,MST_test,2024.2.0,59.97238869748545,2026-01-20 15h44.18.084717 +0530,
93,0,94,n,1.9818056999938563,None,94,0,93,343.69377039995743,,,,,,,,,,,,,,,,,,,,,,,,,,,,,,,,,,,,,,,,,,,,,,,,,,343.6777104999637,343.69377039995743,344.19397939997725,344.17707729997346,344.1916915999609,344.19397939997725,344.19397939997725,344.19397939997725,346.1773392999894,Scenes\110b.jpg,pre,n,1.9818056999938563,None,,,,,,,,00019,001,2026-01-20_15h44.09.765,MST_test,2024.2.0,59.97238869748545,2026-01-20 15h44.18.084717 +0530,
94,0,95,n,4.033247000013944,None,95,0,94,346.1935918999952,,,,,,,,,,,,,,,,,,,,,,,,,,,,,,,,,,,,,,,,,,,,,,,,,,346.1774344999576,346.1935918999952,346.6941362999496,346.67693989997497,346.6860661999672,346.6941362999496,346.6941362999496,346.6941362999496,350.74402349995216,Foils\scenes3.jpg,none,n,4.033247000013944,None,,,,,,,,00019,001,2026-01-20_15h44.09.765,MST_test,2024.2.0,59.97238869748545,2026-01-20 15h44.18.084717 +0530,
95,0,96,o,1.1952031000400893,None,96,0,95,350.76027829997474,,,,,,,,,,,,,,,,,,,,,,,,,,,,,,,,,,,,,,,,,,,,,,,,,,350.7441141999443,350.76027829997474,351.2605820999597,351.24383489997126,351.25438319996465,351.2605820999597,351.2605820999597,351.2605820999597,352.4609731999808,Objects\057b.jpg,post,o,1.1952031000400893,None,,,,,,,,00019,001,2026-01-20_15h44.09.765,MST_test,2024.2.0,59.97238869748545,2026-01-20 15h44.18.084717 +0530,
96,0,97,s,2.0217754000332206,None,97,0,96,352.4768076999462,,,,,,,,,,,,,,,,,,,,,,,,,,,,,,,,,,,,,,,,,,,,,,,,,,352.4610654999851,352.4768076999462,352.9771277999971,352.9605521999765,352.96949239994865,352.9771277999971,352.9771277999971,352.9771277999971,355.0108568999567,Foils\scenes8.jpg,none,s,2.0217754000332206,None,,,,,,,,00019,001,2026-01-20_15h44.09.765,MST_test,2024.2.0,59.97238869748545,2026-01-20 15h44.18.084717 +0530,
97,0,98,s,1.6003039999632165,None,98,0,97,355.02676199999405,,,,,,,,,,,,,,,,,,,,,,,,,,,,,,,,,,,,,,,,,,,,,,,,,,355.0109479999519,355.02676199999405,355.5271736999857,355.51074989995686,355.5235445999424,355.5271736999857,355.5271736999857,355.5271736999857,357.14408999995794,Scenes\139b.jpg,pre,s,1.6003039999632165,None,,,,,,,,00019,001,2026-01-20_15h44.09.765,MST_test,2024.2.0,59.97238869748545,2026-01-20 15h44.18.084717 +0530,
98,0,99,n,3.2182003000052646,None,99,0,98,357.1602306999848,,,,,,,,,,,,,,,,,,,,,,,,,,,,,,,,,,,,,,,,,,,,,,,,,,357.14419739996083,357.1602306999848,357.6607854999602,357.64392729999963,357.6503251999966,357.6607854999602,357.6607854999602,357.6607854999602,360.8943350999616,Scenes\147a.jpg,pre,n,3.2182003000052646,None,,,,,,,,00019,001,2026-01-20_15h44.09.765,MST_test,2024.2.0,59.97238869748545,2026-01-20 15h44.18.084717 +0530,
99,0,100,s,1.0282232000026852,None,100,0,99,360.91048469999805,,,,,,,,,,,,,,,,,,,,,,,,,,,,,,,,,,,,,,,,,,,,,,,,,,360.89443049998954,360.91048469999805,361.41079719999107,361.3939332999871,361.4055179999559,361.41079719999107,361.41079719999107,361.41079719999107,362.44452889997046,Objects\092b.jpg,mid,s,1.0282232000026852,None,,,,,,,,00019,001,2026-01-20_15h44.09.765,MST_test,2024.2.0,59.97238869748545,2026-01-20 15h44.18.084717 +0530,
100,0,101,s,1.2687402999727055,None,101,0,100,362.4604932999937,,,,,,,,,,,,,,,,,,,,,,,,,,,,,,,,,,,,,,,,,,,,,,,,,,362.4446377999848,362.4604932999937,362.96327049995307,362.94399799994426,362.9612150999601,362.96327049995307,362.96327049995307,362.96327049995307,364.24434879998444,Scenes\146b.jpg,mid,s,1.2687402999727055,None,,,,,,,,00019,001,2026-01-20_15h44.09.765,MST_test,2024.2.0,59.97238869748545,2026-01-20 15h44.18.084717 +0530,
101,0,102,o,1.1834650000091642,None,102,0,101,364.2603754999582,,,,,,,,,,,,,,,,,,,,,,,,,,,,,,,,,,,,,,,,,,,,,,,,,,364.2444396999781,364.2603754999582,364.7607296999777,364.74387109995587,364.74658259999705,364.7607296999777,364.7607296999777,364.7607296999777,365.96106699999655,Objects\170a.jpg,pre,o,1.1834650000091642,None,,,,,,,,00019,001,2026-01-20_15h44.09.765,MST_test,2024.2.0,59.97238869748545,2026-01-20 15h44.18.084717 +0530,
102,0,103,n,1.4898417000076734,None,103,0,102,365.97701409994625,,,,,,,,,,,,,,,,,,,,,,,,,,,,,,,,,,,,,,,,,,,,,,,,,,365.96117149997735,365.97701409994625,366.4774333999958,366.4606720999582,366.46993089996977,366.4774333999958,366.4774333999958,366.4774333999958,367.9775957999518,Foils\scenes30.jpg,none,n,1.4898417000076734,None,,,,,,,,00019,001,2026-01-20_15h44.09.765,MST_test,2024.2.0,59.97238869748545,2026-01-20 15h44.18.084717 +0530,
103,0,104,s,1.1215828999993391,None,104,0,103,367.9935760999797,,,,,,,,,,,,,,,,,,,,,,,,,,,,,,,,,,,,,,,,,,,,,,,,,,367.97768939996604,367.9935760999797,368.4940280999872,368.4772899999516,368.4806523999432,368.4940280999872,368.4940280999872,368.4940280999872,369.6276645999751,Objects\102a.jpg,mid,s,1.1215828999993391,None,,,,,,,,00019,001,2026-01-20_15h44.09.765,MST_test,2024.2.0,59.97238869748545,2026-01-20 15h44.18.084717 +0530,
104,0,105,s,2.345619300031103,None,105,0,104,369.64373889996205,,,,,,,,,,,,,,,,,,,,,,,,,,,,,,,,,,,,,,,,,,,,,,,,,,369.62775449996116,369.64373889996205,,370.12773999996716,370.14766169997165,370.1501802999992,370.1501802999992,370.1501802999992,372.51102419995004,Scenes\114b.jpg,pre,s,2.345619300031103,None,,,,,,,,00019,001,2026-01-20_15h44.09.765,MST_test,2024.2.0,59.97238869748545,2026-01-20 15h44.18.084717 +0530,
105,0,106,n,1.748085000028368,None,106,0,105,372.52687529998366,,,,,,,,,,,,,,,,,,,,,,,,,,,,,,,,,,,,,,,,,,,,,,,,,,372.511119999981,372.52687529998366,373.0274295999552,373.01076929998817,373.02062679996016,373.0274295999552,373.0274295999552,373.0274295999552,374.7780445999815,Objects\109b.jpg,mid,n,1.748085000028368,None,,,,,,,,00019,001,2026-01-20_15h44.09.765,MST_test,2024.2.0,59.97238869748545,2026-01-20 15h44.18.084717 +0530,
106,0,107,s,1.2249860999872908,None,107,0,106,374.79360769997584,,,,,,,,,,,,,,,,,,,,,,,,,,,,,,,,,,,,,,,,,,,,,,,,,,374.77815059997374,374.79360769997584,375.29392069997266,375.2772256999742,375.28678949997993,375.29392069997266,375.29392069997266,375.29392069997266,376.52736999996705,Objects\115b.jpg,pre,s,1.2249860999872908,None,,,,,,,,00019,001,2026-01-20_15h44.09.765,MST_test,2024.2.0,59.97238869748545,2026-01-20 15h44.18.084717 +0530,
107,0,108,o,1.0274127000011504,None,108,0,107,376.5436582999537,,,,,,,,,,,,,,,,,,,,,,,,,,,,,,,,,,,,,,,,,,,,,,,,,,376.5274606999592,376.5436582999537,377.0439021999482,377.0271899999934,377.0299997999682,377.0439021999482,377.0439021999482,377.0439021999482,378.07748399995035,Objects\055a.jpg,pre,o,1.0274127000011504,None,,,,,,,,00019,001,2026-01-20_15h44.09.765,MST_test,2024.2.0,59.97238869748545,2026-01-20 15h44.18.084717 +0530,
108,0,109,o,0.9020709000178613,None,109,0,108,378.0935882999911,,,,,,,,,,,,,,,,,,,,,,,,,,,,,,,,,,,,,,,,,,,,,,,,,,378.0775771999615,378.0935882999911,378.5938184999977,378.5772555999574,378.5796915999963,378.5938184999977,378.5938184999977,378.5938184999977,379.5110144999926,Objects\067a.jpg,post,o,0.9020709000178613,None,,,,,,,,00019,001,2026-01-20_15h44.09.765,MST_test,2024.2.0,59.97238869748545,2026-01-20 15h44.18.084717 +0530,
109,0,110,n,1.9483929999987595,None,110,0,109,379.5269077999983,,,,,,,,,,,,,,,,,,,,,,,,,,,,,,,,,,,,,,,,,,,,,,,,,,379.51111319998745,379.5269077999983,380.0270743999863,380.01049719995353,380.0202196999453,380.0270743999863,380.0270743999863,380.0270743999863,381.97767099994235,Foils\058a.jpg,none,n,1.9483929999987595,None,,,,,,,,00019,001,2026-01-20_15h44.09.765,MST_test,2024.2.0,59.97238869748545,2026-01-20 15h44.18.084717 +0530,
110,0,111,n,2.6168020999757573,None,111,0,110,381.993630699988,,,,,,,,,,,,,,,,,,,,,,,,,,,,,,,,,,,,,,,,,,,,,,,,,,381.97776749997865,381.993630699988,382.49410579999676,382.4772923999699,382.4875591999735,382.49410579999676,382.49410579999676,382.49410579999676,385.12753849994624,Foils\scenes18.jpg,none,n,2.6168020999757573,None,,,,,,,,00019,001,2026-01-20_15h44.09.765,MST_test,2024.2.0,59.97238869748545,2026-01-20 15h44.18.084717 +0530,
111,0,112,n,1.7069743999745697,None,112,0,111,385.14371569996,,,,,,,,,,,,,,,,,,,,,,,,,,,,,,,,,,,,,,,,,,,,,,,,,,385.12762959999964,385.14371569996,385.64391509996494,385.62734499998624,385.6378645999939,385.64391509996494,385.64391509996494,385.64391509996494,387.3610131999594,Objects\027b.jpg,post,n,1.7069743999745697,None,,,,,,,,00019,001,2026-01-20_15h44.09.765,MST_test,2024.2.0,59.97238869748545,2026-01-20 15h44.18.084717 +0530,
112,0,113,o,1.338667500007432,None,113,0,112,387.3770125999581,,,,,,,,,,,,,,,,,,,,,,,,,,,,,,,,,,,,,,,,,,,,,,,,,,387.3611027999432,387.3770125999581,387.87745879997965,387.8605986999464,387.8684471999877,387.87745879997965,387.87745879997965,387.87745879997965,389.22759179997956,Scenes\073a.jpg,pre,o,1.338667500007432,None,,,,,,,,00019,001,2026-01-20_15h44.09.765,MST_test,2024.2.0,59.97238869748545,2026-01-20 15h44.18.084717 +0530,
113,0,114,s,2.5670039000106044,None,114,0,113,389.2437193999649,,,,,,,,,,,,,,,,,,,,,,,,,,,,,,,,,,,,,,,,,,,,,,,,,,389.2276811999618,389.2437193999649,389.74409519997425,389.7273642999935,389.7304901999887,389.74409519997425,389.74409519997425,389.74409519997425,392.32750439998927,Objects\050a.jpg,mid,s,2.5670039000106044,None,,,,,,,,00019,001,2026-01-20_15h44.09.765,MST_test,2024.2.0,59.97238869748545,2026-01-20 15h44.18.084717 +0530,
114,0,115,n,2.0910317999660037,None,115,0,114,392.34360959997866,,,,,,,,,,,,,,,,,,,,,,,,,,,,,,,,,,,,,,,,,,,,,,,,,,392.32759549998445,392.34360959997866,392.84418009995716,392.82706739997957,392.83573349996004,392.84418009995716,392.84418009995716,392.84418009995716,394.9441965999431,Scenes\120a.jpg,mid,n,2.0910317999660037,None,,,,,,,,00019,001,2026-01-20_15h44.09.765,MST_test,2024.2.0,59.97238869748545,2026-01-20 15h44.18.084717 +0530,
115,0,116,o,2.339109299995471,None,116,0,115,394.96028299996397,,,,,,,,,,,,,,,,,,,,,,,,,,,,,,,,,,,,,,,,,,,,,,,,,,394.9442860999843,394.96028299996397,395.4609086999553,395.4440894999425,395.45532789995195,395.4609086999553,395.4609086999553,395.4609086999553,397.8108107999433,Scenes\082a.jpg,post,o,2.339109299995471,None,,,,,,,,00019,001,2026-01-20_15h44.09.765,MST_test,2024.2.0,59.97238869748545,2026-01-20 15h44.18.084717 +0530,
116,0,117,s,4.504158399999142,None,117,0,116,397.8267958999495,,,,,,,,,,,,,,,,,,,,,,,,,,,,,,,,,,,,,,,,,,,,,,,,,,397.81090819998644,397.8267958999495,398.32724959996995,398.3104487999808,398.32091179996496,398.32724959996995,398.32724959996995,398.32724959996995,402.84439429995837,Objects\048b.jpg,post,s,4.504158399999142,None,,,,,,,,00019,001,2026-01-20_15h44.09.765,MST_test,2024.2.0,59.97238869748545,2026-01-20 15h44.18.084717 +0530,
117,0,118,n,3.286063700041268,None,118,0,117,402.8602980999858,,,,,,,,,,,,,,,,,,,,,,,,,,,,,,,,,,,,,,,,,,,,,,,,,,402.84449159994256,402.8602980999858,403.36081799998647,403.343870599987,403.35789549996844,403.36081799998647,403.36081799998647,403.36081799998647,406.6608449999476,Scenes\154b.jpg,pre,n,3.286063700041268,None,,,,,,,,00019,001,2026-01-20_15h44.09.765,MST_test,2024.2.0,59.97238869748545,2026-01-20 15h44.18.084717 +0530,
118,0,119,o,1.7500978999887593,None,119,0,118,406.67678599996725,,,,,,,,,,,,,,,,,,,,,,,,,,,,,,,,,,,,,,,,,,,,,,,,,,406.6609334999812,406.67678599996725,407.1773102999432,407.16068569995696,407.1639400999993,407.1773102999432,407.1773102999432,407.1773102999432,408.94413899997016,Objects\054a.jpg,pre,o,1.7500978999887593,None,,,,,,,,00019,001,2026-01-20_15h44.09.765,MST_test,2024.2.0,59.97238869748545,2026-01-20 15h44.18.084717 +0530,
119,0,120,n,2.2187795999925584,None,120,0,119,408.9602801000001,,,,,,,,,,,,,,,,,,,,,,,,,,,,,,,,,,,,,,,,,,,,,,,,,,408.94422909995774,408.9602801000001,409.46058029995766,409.44387049996294,409.4537231999566,409.46058029995766,409.46058029995766,409.46058029995766,411.6944959999528,Foils\017a.jpg,none,n,2.2187795999925584,None,,,,,,,,00019,001,2026-01-20_15h44.09.765,MST_test,2024.2.0,59.97238869748545,2026-01-20 15h44.18.084717 +0530,
120,0,121,s,5.036673200025689,None,121,0,120,411.7102862999891,,,,,,,,,,,,,,,,,,,,,,,,,,,,,,,,,,,,,,,,,,,,,,,,,,411.69459209998604,411.7102862999891,412.2107576999697,412.19388369994704,412.20426529995166,412.2107576999697,412.2107576999697,412.2107576999697,417.2609825999825,Scenes\008b.jpg,mid,s,5.036673200025689,None,,,,,,,,00019,001,2026-01-20_15h44.09.765,MST_test,2024.2.0,59.97238869748545,2026-01-20 15h44.18.084717 +0530,
121,0,122,n,2.55019340000581,None,122,0,121,417.276790599979,,,,,,,,,,,,,,,,,,,,,,,,,,,,,,,,,,,,,,,,,,,,,,,,,,417.26107459998457,417.276790599979,417.7772586999927,417.7607246999978,417.77478479995625,417.7772586999927,417.7772586999927,417.7772586999927,420.34411979996366,Scenes\144b.jpg,post,n,2.55019340000581,None,,,,,,,,00019,001,2026-01-20_15h44.09.765,MST_test,2024.2.0,59.97238869748545,2026-01-20 15h44.18.084717 +0530,
122,0,123,o,1.147100500005763,None,123,0,122,420.3602740999777,,,,,,,,,,,,,,,,,,,,,,,,,,,,,,,,,,,,,,,,,,,,,,,,,,420.3442086999421,420.3602740999777,420.8607151999604,420.84395429998403,420.8478421999607,420.8607151999604,420.8607151999604,420.8607151999604,422.010876299988,Objects\034a.jpg,post,o,1.147100500005763,None,,,,,,,,00019,001,2026-01-20_15h44.09.765,MST_test,2024.2.0,59.97238869748545,2026-01-20 15h44.18.084717 +0530,
123,0,124,n,1.3124599999864586,None,124,0,123,422.02681169996504,,,,,,,,,,,,,,,,,,,,,,,,,,,,,,,,,,,,,,,,,,,,,,,,,,422.01096829999005,422.02681169996504,422.5271429999848,422.5106757999747,422.52219179994427,422.5271429999848,422.5271429999848,422.5271429999848,423.844162399997,Foils\086a.jpg,none,n,1.3124599999864586,None,,,,,,,,00019,001,2026-01-20_15h44.09.765,MST_test,2024.2.0,59.97238869748545,2026-01-20 15h44.18.084717 +0530,
124,0,125,o,1.8699701000005007,None,125,0,124,423.8602222999907,,,,,,,,,,,,,,,,,,,,,,,,,,,,,,,,,,,,,,,,,,,,,,,,,,423.84425489994464,423.8602222999907,424.3608506999444,424.34390919998987,424.3560934999841,424.3608506999444,424.3608506999444,424.3608506999444,426.24422589997994,Scenes\076a.jpg,post,o,1.8699701000005007,None,,,,,,,,00019,001,2026-01-20_15h44.09.765,MST_test,2024.2.0,59.97238869748545,2026-01-20 15h44.18.084717 +0530,
125,0,126,o,0.9328225000062957,None,126,0,125,426.26031859999057,,,,,,,,,,,,,,,,,,,,,,,,,,,,,,,,,,,,,,,,,,,,,,,,,,426.24431489995914,426.26031859999057,426.76277009997284,426.74395629996434,426.7605381999747,426.76277009997284,426.76277009997284,426.76277009997284,427.7111687999568,Scenes\021b.jpg,mid,o,0.9328225000062957,None,,,,,,,,00019,001,2026-01-20_15h44.09.765,MST_test,2024.2.0,59.97238869748545,2026-01-20 15h44.18.084717 +0530,
126,0,127,o,0.9083576999837533,None,127,0,126,427.72681999998167,,,,,,,,,,,,,,,,,,,,,,,,,,,,,,,,,,,,,,,,,,,,,,,,,,427.7112628999748,427.72681999998167,428.2274028999964,428.21069989999523,428.2141459999839,428.2274028999964,428.2274028999964,428.2274028999964,429.14418239996303,Objects\042a.jpg,post,o,0.9083576999837533,None,,,,,,,,00019,001,2026-01-20_15h44.09.765,MST_test,2024.2.0,59.97238869748545,2026-01-20 15h44.18.084717 +0530,
127,0,128,o,0.7712144000106491,None,128,0,127,429.1602752999752,,,,,,,,,,,,,,,,,,,,,,,,,,,,,,,,,,,,,,,,,,,,,,,,,,429.1442745999666,429.1602752999752,429.66075739997905,429.64392909995513,429.65736519999336,429.66075739997905,429.66075739997905,429.66075739997905,430.4441553999786,Scenes\091b.jpg,mid,o,0.7712144000106491,None,,,,,,,,00019,001,2026-01-20_15h44.09.765,MST_test,2024.2.0,59.97238869748545,2026-01-20 15h44.18.084717 +0530,
128,0,129,o,1.0387723000021651,None,129,0,128,430.4602784999879,,,,,,,,,,,,,,,,,,,,,,,,,,,,,,,,,,,,,,,,,,,,,,,,,,430.44425369997043,430.4602784999879,430.960810199962,430.9439026999753,430.9536437999923,430.960810199962,430.960810199962,430.960810199962,432.0109704999486,Objects\146b.jpg,pre,o,1.0387723000021651,None,,,,,,,,00019,001,2026-01-20_15h44.09.765,MST_test,2024.2.0,59.97238869748545,2026-01-20 15h44.18.084717 +0530,
129,0,130,n,1.0718216000241227,None,130,0,129,432.0269129999797,,,,,,,,,,,,,,,,,,,,,,,,,,,,,,,,,,,,,,,,,,,,,,,,,,432.0110770999454,432.0269129999797,432.5270262999693,432.51045649999287,432.5199601999484,432.5270262999693,432.5270262999693,432.5270262999693,433.6108043999993,Foils\093b.jpg,none,n,1.0718216000241227,None,,,,,,,,00019,001,2026-01-20_15h44.09.765,MST_test,2024.2.0,59.97238869748545,2026-01-20 15h44.18.084717 +0530,
130,0,131,o,1.2477824999950826,None,131,0,130,433.6269447999657,,,,,,,,,,,,,,,,,,,,,,,,,,,,,,,,,,,,,,,,,,,,,,,,,,433.61089639994316,433.6269447999657,434.1271959999576,434.11064189998433,434.12059759994736,434.1271959999576,434.1271959999576,434.1271959999576,435.3775439999881,Objects\182b.jpg,mid,o,1.2477824999950826,None,,,,,,,,00019,001,2026-01-20_15h44.09.765,MST_test,2024.2.0,59.97238869748545,2026-01-20 15h44.18.084717 +0530,
131,0,132,o,3.104822500026785,None,132,0,131,435.3936253999709,,,,,,,,,,,,,,,,,,,,,,,,,,,,,,,,,,,,,,,,,,,,,,,,,,435.3776329999673,435.3936253999709,435.89405659999466,435.87711469997885,435.88809059996856,435.89405659999466,435.89405659999466,435.89405659999466,439.010967899987,Scenes\061b.jpg,mid,o,3.104822500026785,None,,,,,,,,00019,001,2026-01-20_15h44.09.765,MST_test,2024.2.0,59.97238869748545,2026-01-20 15h44.18.084717 +0530,
132,0,133,o,0.9196978000109084,None,133,0,132,439.02679669996724,,,,,,,,,,,,,,,,,,,,,,,,,,,,,,,,,,,,,,,,,,,,,,,,,,439.0110646999674,439.02679669996724,439.52727139997296,439.51067779998994,439.5209614999476,439.52727139997296,439.52727139997296,439.52727139997296,440.4607605999918,Objects\188b.jpg,post,o,0.9196978000109084,None,,,,,,,,00019,001,2026-01-20_15h44.09.765,MST_test,2024.2.0,59.97238869748545,2026-01-20 15h44.18.084717 +0530,
133,0,134,o,1.6457617999985814,None,134,0,133,440.4768108999706,,,,,,,,,,,,,,,,,,,,,,,,,,,,,,,,,,,,,,,,,,,,,,,,,,440.46084889996564,440.4768108999706,440.97728889994323,440.9605692999903,440.97025279997615,440.97728889994323,440.97728889994323,440.97728889994323,442.6274920999422,Scenes\176a.jpg,mid,o,1.6457617999985814,None,,,,,,,,00019,001,2026-01-20_15h44.09.765,MST_test,2024.2.0,59.97238869748545,2026-01-20 15h44.18.084717 +0530,
134,0,135,n,1.1030155000044033,None,135,0,134,442.6436145999469,,,,,,,,,,,,,,,,,,,,,,,,,,,,,,,,,,,,,,,,,,,,,,,,,,442.6275814999826,442.6436145999469,443.14423869998427,443.12713409995195,443.13812319998397,443.14423869998427,443.14423869998427,443.14423869998427,444.2609565999592,Foils\scenes29.jpg,none,n,1.1030155000044033,None,,,,,,,,00019,001,2026-01-20_15h44.09.765,MST_test,2024.2.0,59.97238869748545,2026-01-20 15h44.18.084717 +0530,
135,0,136,s,2.3896780000068247,None,136,0,135,444.2768422999652,,,,,,,,,,,,,,,,,,,,,,,,,,,,,,,,,,,,,,,,,,,,,,,,,,444.2610464999452,444.2768422999652,444.7772001999547,444.7605727999471,444.77211139997235,444.7772001999547,444.7772001999547,444.7772001999547,447.17753449996235,Scenes\046a.jpg,post,s,2.3896780000068247,None,,,,,,,,00019,001,2026-01-20_15h44.09.765,MST_test,2024.2.0,59.97238869748545,2026-01-20 15h44.18.084717 +0530,
136,0,137,s,0.9418107999954373,None,137,0,136,447.1937368999934,,,,,,,,,,,,,,,,,,,,,,,,,,,,,,,,,,,,,,,,,,,,,,,,,,447.17762479995145,447.1937368999934,447.6977219999535,447.6771840999718,447.6953897999483,447.6977219999535,447.6977219999535,447.6977219999535,448.64416269998765,Scenes\047b.jpg,pre,s,0.9418107999954373,None,,,,,,,,00019,001,2026-01-20_15h44.09.765,MST_test,2024.2.0,59.97238869748545,2026-01-20 15h44.18.084717 +0530,
137,0,138,o,5.358741999953054,None,138,0,137,448.6602891999646,,,,,,,,,,,,,,,,,,,,,,,,,,,,,,,,,,,,,,,,,,,,,,,,,,448.644253299979,448.6602891999646,449.1609228999587,449.1440532999695,449.14735849999124,449.1609228999587,449.1609228999587,449.1609228999587,454.5274287999491,Objects\076a.jpg,mid,o,5.358741999953054,None,,,,,,,,00019,001,2026-01-20_15h44.09.765,MST_test,2024.2.0,59.97238869748545,2026-01-20 15h44.18.084717 +0530,
138,0,139,s,1.5518468000227585,None,139,0,138,454.54359969997313,,,,,,,,,,,,,,,,,,,,,,,,,,,,,,,,,,,,,,,,,,,,,,,,,,454.52751999994507,454.54359969997313,455.04771619994426,455.027190599998,455.0456826999434,455.04771619994426,455.04771619994426,455.04771619994426,456.61103049997473,Scenes\092b.jpg,post,s,1.5518468000227585,None,,,,,,,,00019,001,2026-01-20_15h44.09.765,MST_test,2024.2.0,59.97238869748545,2026-01-20 15h44.18.084717 +0530,
139,0,140,s,1.7728862999938428,None,140,0,139,456.6268076999695,,,,,,,,,,,,,,,,,,,,,,,,,,,,,,,,,,,,,,,,,,,,,,,,,,456.61112819996197,456.6268076999695,457.130612799956,457.11060429998906,457.1285335999564,457.130612799956,457.130612799956,457.130612799956,458.91085859999293,Scenes\086b.jpg,pre,s,1.7728862999938428,None,,,,,,,,00019,001,2026-01-20_15h44.09.765,MST_test,2024.2.0,59.97238869748545,2026-01-20 15h44.18.084717 +0530,
140,0,141,s,1.9642856999998912,None,141,0,140,458.926890099945,,,,,,,,,,,,,,,,,,,,,,,,,,,,,,,,,,,,,,,,,,,,,,,,,,458.9109549999703,458.926890099945,459.427554599999,459.41088989999844,459.4169213999994,459.427554599999,459.427554599999,459.427554599999,461.39450469997246,Scenes\069a.jpg,pre,s,1.9642856999998912,None,,,,,,,,00019,001,2026-01-20_15h44.09.765,MST_test,2024.2.0,59.97238869748545,2026-01-20 15h44.18.084717 +0530,
141,0,142,n,1.5284729999839328,None,142,0,141,461.4103235999937,,,,,,,,,,,,,,,,,,,,,,,,,,,,,,,,,,,,,,,,,,,,,,,,,,461.3946020999574,461.4103235999937,461.91084299999056,461.8939852999756,461.90399009996327,461.91084299999056,461.91084299999056,461.91084299999056,463.44434089999413,Objects\061b.jpg,post,n,1.5284729999839328,None,,,,,,,,00019,001,2026-01-20_15h44.09.765,MST_test,2024.2.0,59.97238869748545,2026-01-20 15h44.18.084717 +0530,
142,0,143,o,1.4077150000375696,None,143,0,142,463.4603739999584,,,,,,,,,,,,,,,,,,,,,,,,,,,,,,,,,,,,,,,,,,,,,,,,,,463.44443969998974,463.4603739999584,463.960489399964,463.94381479994627,463.94671849999577,463.960489399964,463.960489399964,463.960489399964,465.37746189994505,Objects\132a.jpg,mid,o,1.4077150000375696,None,,,,,,,,00019,001,2026-01-20_15h44.09.765,MST_test,2024.2.0,59.97238869748545,2026-01-20 15h44.18.084717 +0530,
143,0,144,o,0.689578999998048,None,144,0,143,465.39363069995306,,,,,,,,,,,,,,,,,,,,,,,,,,,,,,,,,,,,,,,,,,,,,,,,,,465.377551099984,465.39363069995306,465.8939513999503,465.87727279996034,465.8871458999929,465.8939513999503,465.8939513999503,465.8939513999503,466.59420289995614,Objects\103b.jpg,post,o,0.689578999998048,None,,,,,,,,00019,001,2026-01-20_15h44.09.765,MST_test,2024.2.0,59.97238869748545,2026-01-20 15h44.18.084717 +0530,
144,0,145,s,3.081127599987667,None,145,0,144,466.61029409995535,,,,,,,,,,,,,,,,,,,,,,,,,,,,,,,,,,,,,,,,,,,,,,,,,,466.5942911999882,466.61029409995535,467.11047699995106,467.0939942999976,467.1030948999687,467.11047699995106,467.11047699995106,467.11047699995106,470.1946286999737,Objects\141b.jpg,post,s,3.081127599987667,None,,,,,,,,00019,001,2026-01-20_15h44.09.765,MST_test,2024.2.0,59.97238869748545,2026-01-20 15h44.18.084717 +0530,
145,0,146,n,1.3051931000081822,None,146,0,145,470.2104269999545,,,,,,,,,,,,,,,,,,,,,,,,,,,,,,,,,,,,,,,,,,,,,,,,,,470.1947380999918,470.2104269999545,,470.6947072999901,470.7041057999595,470.7105806999607,470.7105806999607,470.7105806999607,472.02729709999403,Foils\065a.jpg,none,n,1.3051931000081822,None,,,,,,,,00019,001,2026-01-20_15h44.09.765,MST_test,2024.2.0,59.97238869748545,2026-01-20 15h44.18.084717 +0530,
146,0,147,o,1.2236180000472814,None,147,0,146,472.0436305999756,,,,,,,,,,,,,,,,,,,,,,,,,,,,,,,,,,,,,,,,,,,,,,,,,,472.0273892999976,472.0436305999756,472.5440954999649,472.5271843999508,472.5367559999577,472.5440954999649,472.5440954999649,472.5440954999649,473.777540399984,Scenes\106a.jpg,mid,o,1.2236180000472814,None,,,,,,,,00019,001,2026-01-20_15h44.09.765,MST_test,2024.2.0,59.97238869748545,2026-01-20 15h44.18.084717 +0530,
147,0,148,o,1.8250274999882095,None,148,0,147,473.79378829995403,,,,,,,,,,,,,,,,,,,,,,,,,,,,,,,,,,,,,,,,,,,,,,,,,,473.7776362999575,473.79378829995403,474.29406039998867,474.2770818999852,474.28731649997644,474.29406039998867,474.29406039998867,474.29406039998867,476.12747229996603,Objects\147b.jpg,pre,o,1.8250274999882095,None,,,,,,,,00019,001,2026-01-20_15h44.09.765,MST_test,2024.2.0,59.97238869748545,2026-01-20 15h44.18.084717 +0530,
148,0,149,s,2.20330809999723,None,149,0,148,476.1436359999934,,,,,,,,,,,,,,,,,,,,,,,,,,,,,,,,,,,,,,,,,,,,,,,,,,476.12756249995437,476.1436359999934,476.64415029995143,476.6271470999927,476.6377403999795,476.64415029995143,476.64415029995143,476.64415029995143,478.8614641999593,Scenes\130a.jpg,mid,s,2.20330809999723,None,,,,,,,,00019,001,2026-01-20_15h44.09.765,MST_test,2024.2.0,59.97238869748545,2026-01-20 15h44.18.084717 +0530,
149,0,150,n,1.9104403999517672,None,150,0,149,478.87690429994836,,,,,,,,,,,,,,,,,,,,,,,,,,,,,,,,,,,,,,,,,,,,,,,,,,478.8615599999903,478.87690429994836,479.3774519999861,479.3605426999857,479.37092029995983,479.3774519999861,479.3774519999861,479.3774519999861,481.29428599996027,Objects\026b.jpg,post,n,1.9104403999517672,None,,,,,,,,00019,001,2026-01-20_15h44.09.765,MST_test,2024.2.0,59.97238869748545,2026-01-20 15h44.18.084717 +0530,
,,,,,,,,,,,,,,,,,,,,,,,,,,,,,,,,,,,,,,,,,,,,,,,,,,,,,,,,,,,,,,,,,,,,,,,,,481.29435049998574,481.31044009997277,481.31044009997277,485.9108894999954,space,4.593473499990068,None,00019,001,2026-01-20_15h44.09.765,MST_test,2024.2.0,59.97238869748545,2026-01-20 15h44.18.084717 +0530,
