thisN,thisTrialN,thisRepN,key_resp_3.keys,key_resp_3.rt,key_resp_3.duration,trials.thisRepN,trials.thisTrialN,trials.thisN,thisRow.t,notes,intro_page.started,text.started,key_resp.started,intro_page.stopped,key_resp.keys,key_resp.rt,key_resp.duration,instructions.started,text_2.started,key_resp_2.started,instructions.stopped,key_resp_2.keys,key_resp_2.rt,key_resp_2.duration,demo1.started,image_1.started,image_2.started,text_7.started,key_resp_6.started,text_9.started,demo1.stopped,key_resp_6.keys,key_resp_6.rt,key_resp_6.duration,demo2.started,image_5.started,image_6.started,text_11.started,text_12.started,key_resp_8.started,demo2.stopped,key_resp_8.keys,key_resp_8.rt,key_resp_8.duration,demo_conclusion.started,text_13.started,key_resp_9.started,demo_conclusion.stopped,key_resp_9.keys,key_resp_9.rt,key_resp_9.duration,start_test.started,text_6.started,key_resp_5.started,start_test.stopped,key_resp_5.keys,key_resp_5.rt,key_resp_5.duration,ISI.started,text_4.started,text_4.stopped,ISI.stopped,routine_1.started,image.started,text_3.started,key_resp_3.started,routine_1.stopped,image_path,position_of_stimuli,trials.key_resp_3.keys,trials.key_resp_3.rt,trials.key_resp_3.duration,End_page.started,text_5.started,key_resp_4.started,End_page.stopped,key_resp_4.keys,key_resp_4.rt,key_resp_4.duration,participant,session,date,expName,psychopyVersion,frameRate,expStart,
,,,,,,,,,,,0.0017527999998492305,0.003834399999504967,0.003834399999504967,2.9018951999996716,space,2.884334999999737,None,,,,,,,,,,,,,,,,,,,,,,,,,,,,,,,,,,,,,,,,,,,,,,,,,,,,,,,,,,,,,,,00014,001,2025-11-17_16h00.28.058,MST_test,2024.2.0,59.8444403617911,2025-11-17 16h00.33.919332 +0530,
,,,,,,,,,,,,,,,,,,2.9019625999999334,2.9116363999992245,2.9116363999992245,13.280333099999552,space,10.352609599999596,None,,,,,,,,,,,,,,,,,,,,,,,,,,,,,,,,,,,,,,,,,,,,,,,,,,,,,,,,00014,001,2025-11-17_16h00.28.058,MST_test,2024.2.0,59.8444403617911,2025-11-17 16h00.33.919332 +0530,
,,,,,,,,,,,,,,,,,,,,,,,,,13.280457199999546,13.297080800000003,13.297080800000003,13.297080800000003,13.297080800000003,13.297080800000003,17.94783219999954,space,4.6469546999996965,None,,,,,,,,,,,,,,,,,,,,,,,,,,,,,,,,,,,,,,,,,,,,,,00014,001,2025-11-17_16h00.28.058,MST_test,2024.2.0,59.8444403617911,2025-11-17 16h00.33.919332 +0530,
,,,,,,,,,,,,,,,,,,,,,,,,,,,,,,,,,,,17.947951099999955,17.96238859999994,17.96238859999994,17.96238859999994,17.96238859999994,17.96238859999994,20.614169099999344,space,2.6464252000005217,None,,,,,,,,,,,,,,,,,,,,,,,,,,,,,,,,,,,,00014,001,2025-11-17_16h00.28.058,MST_test,2024.2.0,59.8444403617911,2025-11-17 16h00.33.919332 +0530,
,,,,,,,,,,,,,,,,,,,,,,,,,,,,,,,,,,,,,,,,,,,,,20.614264199999525,20.62908889999926,20.62908889999926,33.297363899999254,space,12.651322300000174,None,,,,,,,,,,,,,,,,,,,,,,,,,,,,,00014,001,2025-11-17_16h00.28.058,MST_test,2024.2.0,59.8444403617911,2025-11-17 16h00.33.919332 +0530,
,,,,,,,,,,,,,,,,,,,,,,,,,,,,,,,,,,,,,,,,,,,,,,,,,,,,33.297473499999796,33.31172509999942,33.31172509999942,75.93009849999999,space,42.60896069999944,None,,,,,,,,,,,,,,,,,,,,,,00014,001,2025-11-17_16h00.28.058,MST_test,2024.2.0,59.8444403617911,2025-11-17 16h00.33.919332 +0530,
0,0,1,n,3.2512528999995993,None,1,0,0,75.94472489999953,,,,,,,,,,,,,,,,,,,,,,,,,,,,,,,,,,,,,,,,,,,,,,,,,,75.93795569999929,75.94472489999953,76.44493459999921,76.42950229999951,76.44056639999962,76.44493459999921,76.44493459999921,76.44493459999921,79.71386809999967,Objects\159a.jpg,post,n,3.2512528999995993,None,,,,,,,,00014,001,2025-11-17_16h00.28.058,MST_test,2024.2.0,59.8444403617911,2025-11-17 16h00.33.919332 +0530,
1,0,2,o,8.268500099999983,None,2,0,1,79.72818769999958,,,,,,,,,,,,,,,,,,,,,,,,,,,,,,,,,,,,,,,,,,,,,,,,,,79.71431829999983,79.72818769999958,80.22829349999938,80.21267649999936,80.21926110000004,80.22829349999938,80.22829349999938,80.22829349999938,88.51348109999981,Objects\142a.jpg,post,o,8.268500099999983,None,,,,,,,,00014,001,2025-11-17_16h00.28.058,MST_test,2024.2.0,59.8444403617911,2025-11-17 16h00.33.919332 +0530,
2,0,3,n,2.2328346000003876,None,3,0,2,88.5281572999993,,,,,,,,,,,,,,,,,,,,,,,,,,,,,,,,,,,,,,,,,,,,,,,,,,88.51386159999947,88.5281572999993,89.03978639999968,89.01257209999949,89.03669169999921,89.03978639999968,89.03978639999968,89.03978639999968,91.28036239999983,Scenes\002b.jpg,pre,n,2.2328346000003876,None,,,,,,,,00014,001,2025-11-17_16h00.28.058,MST_test,2024.2.0,59.8444403617911,2025-11-17 16h00.33.919332 +0530,
3,0,4,s,3.8046887999998944,None,4,0,3,91.2949835999998,,,,,,,,,,,,,,,,,,,,,,,,,,,,,,,,,,,,,,,,,,,,,,,,,,91.28069969999979,91.2949835999998,91.79584519999935,91.77981959999943,91.79143260000001,91.79584519999935,91.79584519999935,91.79584519999935,95.61424409999927,Scenes\050a.jpg,pre,s,3.8046887999998944,None,,,,,,,,00014,001,2025-11-17_16h00.28.058,MST_test,2024.2.0,59.8444403617911,2025-11-17 16h00.33.919332 +0530,
4,0,5,n,2.968184100000144,None,5,0,4,95.62836249999964,,,,,,,,,,,,,,,,,,,,,,,,,,,,,,,,,,,,,,,,,,,,,,,,,,95.6146321999995,95.62836249999964,96.13605539999935,96.1125220999993,96.13356139999996,96.13605539999935,96.13605539999935,96.13605539999935,99.11406429999988,Foils\017a.jpg,none,n,2.968184100000144,None,,,,,,,,00014,001,2025-11-17_16h00.28.058,MST_test,2024.2.0,59.8444403617911,2025-11-17 16h00.33.919332 +0530,
5,0,6,o,2.112853399999949,None,6,0,5,99.12815329999921,,,,,,,,,,,,,,,,,,,,,,,,,,,,,,,,,,,,,,,,,,,,,,,,,,99.11445969999932,99.12815329999921,99.63167179999982,99.61265789999925,99.62930419999975,99.63167179999982,99.63167179999982,99.63167179999982,101.74736559999928,Objects\095b.jpg,mid,o,2.112853399999949,None,,,,,,,,00014,001,2025-11-17_16h00.28.058,MST_test,2024.2.0,59.8444403617911,2025-11-17 16h00.33.919332 +0530,
6,0,7,s,4.73134889999983,None,7,0,6,101.76161369999954,,,,,,,,,,,,,,,,,,,,,,,,,,,,,,,,,,,,,,,,,,,,,,,,,,101.74775629999931,101.76161369999954,102.26905749999969,102.24596299999939,102.26617409999926,102.26905749999969,102.26905749999969,102.26905749999969,107.01396779999959,Scenes\124b.jpg,mid,s,4.73134889999983,None,,,,,,,,00014,001,2025-11-17_16h00.28.058,MST_test,2024.2.0,59.8444403617911,2025-11-17 16h00.33.919332 +0530,
7,0,8,n,1.9804900999997699,None,8,0,7,107.02842579999924,,,,,,,,,,,,,,,,,,,,,,,,,,,,,,,,,,,,,,,,,,,,,,,,,,107.01439879999998,107.02842579999924,107.53215769999952,107.51265339999918,107.52930560000004,107.53215769999952,107.53215769999952,107.53215769999952,109.51490349999949,Foils\scenes5.jpg,none,n,1.9804900999997699,None,,,,,,,,00014,001,2025-11-17_16h00.28.058,MST_test,2024.2.0,59.8444403617911,2025-11-17 16h00.33.919332 +0530,
8,0,9,o,4.248467399999754,None,9,0,8,109.52821239999957,,,,,,,,,,,,,,,,,,,,,,,,,,,,,,,,,,,,,,,,,,,,,,,,,,109.51529599999958,109.52821239999957,110.03232379999918,110.01293819999955,110.02915289999964,110.03232379999918,110.03232379999918,110.03232379999918,114.29748119999931,Scenes\032a.jpg,pre,o,4.248467399999754,None,,,,,,,,00014,001,2025-11-17_16h00.28.058,MST_test,2024.2.0,59.8444403617911,2025-11-17 16h00.33.919332 +0530,
9,0,10,o,2.139649599999757,None,10,0,9,114.31180669999958,,,,,,,,,,,,,,,,,,,,,,,,,,,,,,,,,,,,,,,,,,,,,,,,,,114.29783449999923,114.31180669999958,114.8124702999994,114.79616469999928,114.80903539999963,114.8124702999994,114.8124702999994,114.8124702999994,116.96429579999949,Scenes\019a.jpg,post,o,2.139649599999757,None,,,,,,,,00014,001,2025-11-17_16h00.28.058,MST_test,2024.2.0,59.8444403617911,2025-11-17 16h00.33.919332 +0530,
10,0,11,n,1.3101557999998477,None,11,0,10,116.97819749999962,,,,,,,,,,,,,,,,,,,,,,,,,,,,,,,,,,,,,,,,,,,,,,,,,,116.96469119999983,116.97819749999962,117.48266599999988,117.4630419999994,117.47967879999942,117.48266599999988,117.48266599999988,117.48266599999988,118.79796439999973,Objects\118b.jpg,pre,n,1.3101557999998477,None,,,,,,,,00014,001,2025-11-17_16h00.28.058,MST_test,2024.2.0,59.8444403617911,2025-11-17 16h00.33.919332 +0530,
11,0,12,s,2.2294418000001315,None,12,0,11,118.811643,,,,,,,,,,,,,,,,,,,,,,,,,,,,,,,,,,,,,,,,,,,,,,,,,,118.79832679999981,118.811643,119.32344459999968,119.29589499999929,119.32051049999973,119.32344459999968,119.32344459999968,119.32344459999968,121.56388119999974,Scenes\165b.jpg,mid,s,2.2294418000001315,None,,,,,,,,00014,001,2025-11-17_16h00.28.058,MST_test,2024.2.0,59.8444403617911,2025-11-17 16h00.33.919332 +0530,
12,0,13,s,2.2167845999993006,None,13,0,12,121.57816049999929,,,,,,,,,,,,,,,,,,,,,,,,,,,,,,,,,,,,,,,,,,,,,,,,,,121.5642986999992,121.57816049999929,122.07936539999992,122.06224759999986,122.0762509999995,122.07936539999992,122.07936539999992,122.07936539999992,124.31329339999957,Objects\110b.jpg,mid,s,2.2167845999993006,None,,,,,,,,00014,001,2025-11-17_16h00.28.058,MST_test,2024.2.0,59.8444403617911,2025-11-17 16h00.33.919332 +0530,
13,0,14,n,1.7959133999993355,None,14,0,13,124.32813409999926,,,,,,,,,,,,,,,,,,,,,,,,,,,,,,,,,,,,,,,,,,,,,,,,,,124.3136515999995,124.32813409999926,124.82868099999996,124.81276749999961,124.8257096999996,124.82868099999996,124.82868099999996,124.82868099999996,126.63040699999965,Scenes\164a.jpg,mid,n,1.7959133999993355,None,,,,,,,,00014,001,2025-11-17_16h00.28.058,MST_test,2024.2.0,59.8444403617911,2025-11-17 16h00.33.919332 +0530,
14,0,15,o,1.4386829999994006,None,15,0,14,126.64492859999973,,,,,,,,,,,,,,,,,,,,,,,,,,,,,,,,,,,,,,,,,,,,,,,,,,126.63081239999974,126.64492859999973,127.1459132,127.12947469999926,127.1380337999999,127.1459132,127.1459132,127.1459132,128.59719819999918,Objects\136a.jpg,mid,o,1.4386829999994006,None,,,,,,,,00014,001,2025-11-17_16h00.28.058,MST_test,2024.2.0,59.8444403617911,2025-11-17 16h00.33.919332 +0530,
15,0,16,s,2.6085307000003013,None,16,0,15,128.61163279999982,,,,,,,,,,,,,,,,,,,,,,,,,,,,,,,,,,,,,,,,,,,,,,,,,,128.5975187999993,128.61163279999982,129.11223269999937,129.09727509999993,129.1080904999999,129.11223269999937,129.11223269999937,129.11223269999937,131.73084579999977,Scenes\117a.jpg,mid,s,2.6085307000003013,None,,,,,,,,00014,001,2025-11-17_16h00.28.058,MST_test,2024.2.0,59.8444403617911,2025-11-17 16h00.33.919332 +0530,
16,0,17,n,1.7348760000004404,None,17,0,16,131.7450229999995,,,,,,,,,,,,,,,,,,,,,,,,,,,,,,,,,,,,,,,,,,,,,,,,,,131.7312351999999,131.7450229999995,132.26553449999938,132.22896129999936,132.26229769999918,132.26553449999938,132.26553449999938,132.26553449999938,134.01413709999997,Foils\010a.jpg,none,n,1.7348760000004404,None,,,,,,,,00014,001,2025-11-17_16h00.28.058,MST_test,2024.2.0,59.8444403617911,2025-11-17 16h00.33.919332 +0530,
17,0,18,n,1.841890699999567,None,18,0,17,134.02814779999972,,,,,,,,,,,,,,,,,,,,,,,,,,,,,,,,,,,,,,,,,,,,,,,,,,134.01453719999972,134.02814779999972,134.53462279999985,134.51285989999997,134.53182649999962,134.53462279999985,134.53462279999985,134.53462279999985,136.3788528999994,Scenes\163b.jpg,pre,n,1.841890699999567,None,,,,,,,,00014,001,2025-11-17_16h00.28.058,MST_test,2024.2.0,59.8444403617911,2025-11-17 16h00.33.919332 +0530,
18,0,19,o,2.598983799999587,None,19,0,18,136.3947008999994,,,,,,,,,,,,,,,,,,,,,,,,,,,,,,,,,,,,,,,,,,,,,,,,,,136.37895079999998,136.3947008999994,136.89767679999932,136.87937629999942,136.89463859999978,136.89767679999932,136.89767679999932,136.89767679999932,139.51366999999937,Scenes\150a.jpg,pre,o,2.598983799999587,None,,,,,,,,00014,001,2025-11-17_16h00.28.058,MST_test,2024.2.0,59.8444403617911,2025-11-17 16h00.33.919332 +0530,
19,0,20,s,1.9317463999996107,None,20,0,19,139.52831590000005,,,,,,,,,,,,,,,,,,,,,,,,,,,,,,,,,,,,,,,,,,,,,,,,,,139.51398979999976,139.52831590000005,140.02887179999925,140.01294189999953,140.02085329999954,140.02887179999925,140.02887179999925,140.02887179999925,141.96413689999918,Objects\127a.jpg,post,s,1.9317463999996107,None,,,,,,,,00014,001,2025-11-17_16h00.28.058,MST_test,2024.2.0,59.8444403617911,2025-11-17 16h00.33.919332 +0530,
20,0,21,s,1.5261364999996658,None,21,0,20,141.97817289999966,,,,,,,,,,,,,,,,,,,,,,,,,,,,,,,,,,,,,,,,,,,,,,,,,,141.96447379999972,141.97817289999966,142.49890939999932,142.46293409999998,142.49642379999932,142.49890939999932,142.49890939999932,142.49890939999932,144.03084659999968,Objects\013b.jpg,mid,s,1.5261364999996658,None,,,,,,,,00014,001,2025-11-17_16h00.28.058,MST_test,2024.2.0,59.8444403617911,2025-11-17 16h00.33.919332 +0530,
21,0,22,s,1.1747244999996838,None,22,0,21,144.0449896,,,,,,,,,,,,,,,,,,,,,,,,,,,,,,,,,,,,,,,,,,,,,,,,,,144.03125589999945,144.0449896,144.54528899999968,144.52872619999926,144.53328359999978,144.54528899999968,144.54528899999968,144.54528899999968,145.73032339999918,Objects\090a.jpg,post,s,1.1747244999996838,None,,,,,,,,00014,001,2025-11-17_16h00.28.058,MST_test,2024.2.0,59.8444403617911,2025-11-17 16h00.33.919332 +0530,
22,0,23,s,1.0334376999999222,None,23,0,22,145.7448691999998,,,,,,,,,,,,,,,,,,,,,,,,,,,,,,,,,,,,,,,,,,,,,,,,,,145.73058039999978,145.7448691999998,146.25517769999988,146.22937490000004,146.25220349999927,146.25517769999988,146.25517769999988,146.25517769999988,147.29717230000006,Scenes\122b.jpg,pre,s,1.0334376999999222,None,,,,,,,,00014,001,2025-11-17_16h00.28.058,MST_test,2024.2.0,59.8444403617911,2025-11-17 16h00.33.919332 +0530,
23,0,24,s,1.2523608000001332,None,24,0,23,147.31162799999947,,,,,,,,,,,,,,,,,,,,,,,,,,,,,,,,,,,,,,,,,,,,,,,,,,147.29751140000008,147.31162799999947,147.81225369999993,147.7959882999994,147.80885709999984,147.81225369999993,147.81225369999993,147.81225369999993,149.0804847999998,Objects\076b.jpg,mid,s,1.2523608000001332,None,,,,,,,,00014,001,2025-11-17_16h00.28.058,MST_test,2024.2.0,59.8444403617911,2025-11-17 16h00.33.919332 +0530,
24,0,25,o,1.4364881999999852,None,25,0,24,149.0949441999992,,,,,,,,,,,,,,,,,,,,,,,,,,,,,,,,,,,,,,,,,,,,,,,,,,149.08085029999984,149.0949441999992,149.59544129999995,149.57943979999982,149.58606749999944,149.59544129999995,149.59544129999995,149.59544129999995,151.04675849999967,Objects\054a.jpg,post,o,1.4364881999999852,None,,,,,,,,00014,001,2025-11-17_16h00.28.058,MST_test,2024.2.0,59.8444403617911,2025-11-17 16h00.33.919332 +0530,
25,0,26,o,1.4841856000002736,None,26,0,25,151.06151489999957,,,,,,,,,,,,,,,,,,,,,,,,,,,,,,,,,,,,,,,,,,,,,,,,,,151.0470149999992,151.06151489999957,151.56430659999933,151.54736869999942,151.56149219999952,151.56430659999933,151.56430659999933,151.56430659999933,153.06445050000002,Scenes\104a.jpg,post,o,1.4841856000002736,None,,,,,,,,00014,001,2025-11-17_16h00.28.058,MST_test,2024.2.0,59.8444403617911,2025-11-17 16h00.33.919332 +0530,
26,0,27,o,1.4850429999996777,None,27,0,26,153.07840639999995,,,,,,,,,,,,,,,,,,,,,,,,,,,,,,,,,,,,,,,,,,,,,,,,,,153.06484749999981,153.07840639999995,153.5790438999993,153.56302999999934,153.56995199999983,153.5790438999993,153.5790438999993,153.5790438999993,155.0806761999993,Objects\141a.jpg,pre,o,1.4850429999996777,None,,,,,,,,00014,001,2025-11-17_16h00.28.058,MST_test,2024.2.0,59.8444403617911,2025-11-17 16h00.33.919332 +0530,
27,0,28,s,2.164829800000007,None,28,0,27,155.0951282999995,,,,,,,,,,,,,,,,,,,,,,,,,,,,,,,,,,,,,,,,,,,,,,,,,,155.0810776999997,155.0951282999995,155.60325609999927,155.57947220000005,155.60021030000007,155.60325609999927,155.60325609999927,155.60325609999927,157.78071939999973,Scenes\097b.jpg,post,s,2.164829800000007,None,,,,,,,,00014,001,2025-11-17_16h00.28.058,MST_test,2024.2.0,59.8444403617911,2025-11-17 16h00.33.919332 +0530,
28,0,29,s,1.6941458000001148,None,29,0,28,157.79512819999945,,,,,,,,,,,,,,,,,,,,,,,,,,,,,,,,,,,,,,,,,,,,,,,,,,157.78105419999974,157.79512819999945,158.29857979999997,158.27950599999986,158.29565279999952,158.29857979999997,158.29857979999997,158.29857979999997,159.9977326999997,Scenes\130a.jpg,mid,s,1.6941458000001148,None,,,,,,,,00014,001,2025-11-17_16h00.28.058,MST_test,2024.2.0,59.8444403617911,2025-11-17 16h00.33.919332 +0530,
29,0,30,o,1.249320799999623,None,30,0,29,160.01178739999978,,,,,,,,,,,,,,,,,,,,,,,,,,,,,,,,,,,,,,,,,,,,,,,,,,159.99810109999999,160.01178739999978,160.53499979999924,160.49633709999944,160.53180689999954,160.53499979999924,160.53499979999924,160.53499979999924,161.7974979999999,Objects\044b.jpg,post,o,1.249320799999623,None,,,,,,,,00014,001,2025-11-17_16h00.28.058,MST_test,2024.2.0,59.8444403617911,2025-11-17 16h00.33.919332 +0530,
30,0,31,n,1.276679100000365,None,31,0,30,161.81175829999938,,,,,,,,,,,,,,,,,,,,,,,,,,,,,,,,,,,,,,,,,,,,,,,,,,161.79784999999993,161.81175829999938,162.32344349999948,162.29641730000003,162.3204087999993,162.32344349999948,162.32344349999948,162.32344349999948,163.61386589999984,Scenes\059b.jpg,post,n,1.276679100000365,None,,,,,,,,00014,001,2025-11-17_16h00.28.058,MST_test,2024.2.0,59.8444403617911,2025-11-17 16h00.33.919332 +0530,
31,0,32,o,1.1514760999998543,None,32,0,31,163.6283958999993,,,,,,,,,,,,,,,,,,,,,,,,,,,,,,,,,,,,,,,,,,,,,,,,,,163.61427279999953,163.6283958999993,164.12896619999992,164.11291939999956,164.12175079999997,164.12896619999992,164.12896619999992,164.12896619999992,165.29721399999926,Objects\037a.jpg,mid,o,1.1514760999998543,None,,,,,,,,00014,001,2025-11-17_16h00.28.058,MST_test,2024.2.0,59.8444403617911,2025-11-17 16h00.33.919332 +0530,
32,0,33,n,1.702417699999387,None,33,0,32,165.3117284,,,,,,,,,,,,,,,,,,,,,,,,,,,,,,,,,,,,,,,,,,,,,,,,,,165.29760839999926,165.3117284,165.81821369999943,165.79636389999996,165.81525609999971,165.81821369999943,165.81821369999943,165.81821369999943,167.53094079999937,Scenes\188b.jpg,mid,n,1.702417699999387,None,,,,,,,,00014,001,2025-11-17_16h00.28.058,MST_test,2024.2.0,59.8444403617911,2025-11-17 16h00.33.919332 +0530,
33,0,34,s,1.655499200000122,None,34,0,33,167.5450710999994,,,,,,,,,,,,,,,,,,,,,,,,,,,,,,,,,,,,,,,,,,,,,,,,,,167.53129999999965,167.5450710999994,168.05019339999944,168.0293630999995,168.04717989999972,168.05019339999944,168.05019339999944,168.05019339999944,169.71265999999923,Objects\185b.jpg,pre,s,1.655499200000122,None,,,,,,,,00014,001,2025-11-17_16h00.28.058,MST_test,2024.2.0,59.8444403617911,2025-11-17 16h00.33.919332 +0530,
34,0,35,o,1.3476261000005252,None,35,0,34,169.72819569999956,,,,,,,,,,,,,,,,,,,,,,,,,,,,,,,,,,,,,,,,,,,,,,,,,,169.71286319999945,169.72819569999956,170.22852029999922,170.21308669999962,170.22125269999924,170.22852029999922,170.22852029999922,170.22852029999922,171.58088549999957,Objects\107a.jpg,mid,o,1.3476261000005252,None,,,,,,,,00014,001,2025-11-17_16h00.28.058,MST_test,2024.2.0,59.8444403617911,2025-11-17 16h00.33.919332 +0530,
35,0,36,n,1.9842650000000503,None,36,0,35,171.5951400999993,,,,,,,,,,,,,,,,,,,,,,,,,,,,,,,,,,,,,,,,,,,,,,,,,,171.5812862999992,171.5951400999993,172.09589489999962,172.07952029999979,172.09298639999997,172.09589489999962,172.09589489999962,172.09589489999962,174.09705039999972,Scenes\045a.jpg,post,n,1.9842650000000503,None,,,,,,,,00014,001,2025-11-17_16h00.28.058,MST_test,2024.2.0,59.8444403617911,2025-11-17 16h00.33.919332 +0530,
36,0,37,n,1.1370836999994935,None,37,0,36,174.11162710000008,,,,,,,,,,,,,,,,,,,,,,,,,,,,,,,,,,,,,,,,,,,,,,,,,,174.09736859999975,174.11162710000008,174.61584239999956,174.59618229999978,174.6127035999998,174.61584239999956,174.61584239999956,174.61584239999956,175.76437480000004,Objects\078b.jpg,pre,n,1.1370836999994935,None,,,,,,,,00014,001,2025-11-17_16h00.28.058,MST_test,2024.2.0,59.8444403617911,2025-11-17 16h00.33.919332 +0530,
37,0,38,n,1.1986734000001888,None,38,0,37,175.77827939999952,,,,,,,,,,,,,,,,,,,,,,,,,,,,,,,,,,,,,,,,,,,,,,,,,,175.7647782999993,175.77827939999952,176.28196729999945,176.26304399999935,176.27917239999988,176.28196729999945,176.28196729999945,176.28196729999945,177.4971917999992,Foils\scenes29.jpg,none,n,1.1986734000001888,None,,,,,,,,00014,001,2025-11-17_16h00.28.058,MST_test,2024.2.0,59.8444403617911,2025-11-17 16h00.33.919332 +0530,
38,0,39,s,1.3009758999996848,None,39,0,38,177.51173500000004,,,,,,,,,,,,,,,,,,,,,,,,,,,,,,,,,,,,,,,,,,,,,,,,,,177.49754349999967,177.51173500000004,178.01219049999963,177.9962861999993,178.0070425999993,178.01219049999963,178.01219049999963,178.01219049999963,179.32911349999995,Scenes\091a.jpg,pre,s,1.3009758999996848,None,,,,,,,,00014,001,2025-11-17_16h00.28.058,MST_test,2024.2.0,59.8444403617911,2025-11-17 16h00.33.919332 +0530,
39,0,40,n,1.3185002999998687,None,40,0,39,179.34486219999962,,,,,,,,,,,,,,,,,,,,,,,,,,,,,,,,,,,,,,,,,,,,,,,,,,179.32924699999967,179.34486219999962,179.84992919999968,179.8295062999996,179.84693419999985,179.84992919999968,179.84992919999968,179.84992919999968,181.1807721999994,Objects\131b.jpg,post,n,1.3185002999998687,None,,,,,,,,00014,001,2025-11-17_16h00.28.058,MST_test,2024.2.0,59.8444403617911,2025-11-17 16h00.33.919332 +0530,
40,0,41,o,1.0491061000002446,None,41,0,40,181.1951468999996,,,,,,,,,,,,,,,,,,,,,,,,,,,,,,,,,,,,,,,,,,,,,,,,,,181.18118159999995,181.1951468999996,181.69518809999954,181.6794332999998,181.68731079999998,181.69518809999954,181.69518809999954,181.69518809999954,182.7473373999992,Objects\015a.jpg,mid,o,1.0491061000002446,None,,,,,,,,00014,001,2025-11-17_16h00.28.058,MST_test,2024.2.0,59.8444403617911,2025-11-17 16h00.33.919332 +0530,
41,0,42,o,1.4360676999995121,None,42,0,41,182.76153859999977,,,,,,,,,,,,,,,,,,,,,,,,,,,,,,,,,,,,,,,,,,,,,,,,,,182.74767069999962,182.76153859999977,183.26860279999983,183.24615839999933,183.26568619999944,183.26860279999983,183.26860279999983,183.26860279999983,184.71379649999926,Scenes\006b.jpg,pre,o,1.4360676999995121,None,,,,,,,,00014,001,2025-11-17_16h00.28.058,MST_test,2024.2.0,59.8444403617911,2025-11-17 16h00.33.919332 +0530,
42,0,43,s,2.494082100000014,None,43,0,42,184.72811199999978,,,,,,,,,,,,,,,,,,,,,,,,,,,,,,,,,,,,,,,,,,,,,,,,,,184.71415259999958,184.72811199999978,185.23425289999977,185.21281649999946,185.2313078999996,185.23425289999977,185.23425289999977,185.23425289999977,187.7309650999996,Objects\134b.jpg,post,s,2.494082100000014,None,,,,,,,,00014,001,2025-11-17_16h00.28.058,MST_test,2024.2.0,59.8444403617911,2025-11-17 16h00.33.919332 +0530,
43,0,44,o,2.006638099999691,None,44,0,43,187.74517299999934,,,,,,,,,,,,,,,,,,,,,,,,,,,,,,,,,,,,,,,,,,,,,,,,,,187.73136299999987,187.74517299999934,188.24946379999983,188.2294213999994,188.2464602,188.24946379999983,188.24946379999983,188.24946379999983,190.26238049999938,Scenes\143a.jpg,mid,o,2.006638099999691,None,,,,,,,,00014,001,2025-11-17_16h00.28.058,MST_test,2024.2.0,59.8444403617911,2025-11-17 16h00.33.919332 +0530,
44,0,45,n,1.594890999999734,None,45,0,44,190.27793079999992,,,,,,,,,,,,,,,,,,,,,,,,,,,,,,,,,,,,,,,,,,,,,,,,,,190.26250019999952,190.27793079999992,190.78981810000005,190.76279499999964,190.7868725999997,190.78981810000005,190.78981810000005,190.78981810000005,192.39655019999918,Scenes\125b.jpg,post,n,1.594890999999734,None,,,,,,,,00014,001,2025-11-17_16h00.28.058,MST_test,2024.2.0,59.8444403617911,2025-11-17 16h00.33.919332 +0530,
45,0,46,o,1.3036266999997679,None,46,0,45,192.41155609999987,,,,,,,,,,,,,,,,,,,,,,,,,,,,,,,,,,,,,,,,,,,,,,,,,,192.3967933999993,192.41155609999987,192.91234019999956,192.89623839999967,192.9052112999998,192.91234019999956,192.91234019999956,192.91234019999956,194.22890459999962,Objects\120a.jpg,pre,o,1.3036266999997679,None,,,,,,,,00014,001,2025-11-17_16h00.28.058,MST_test,2024.2.0,59.8444403617911,2025-11-17 16h00.33.919332 +0530,
46,0,47,n,2.111213800000769,None,47,0,46,194.24484259999917,,,,,,,,,,,,,,,,,,,,,,,,,,,,,,,,,,,,,,,,,,,,,,,,,,194.22901589999947,194.24484259999917,194.74505469999986,194.72868599999947,194.73208889999933,194.74505469999986,194.74505469999986,194.74505469999986,196.86225680000007,Objects\027a.jpg,post,n,2.111213800000769,None,,,,,,,,00014,001,2025-11-17_16h00.28.058,MST_test,2024.2.0,59.8444403617911,2025-11-17 16h00.33.919332 +0530,
47,0,48,n,1.2565042000005633,None,48,0,47,196.87809649999963,,,,,,,,,,,,,,,,,,,,,,,,,,,,,,,,,,,,,,,,,,,,,,,,,,196.86240129999987,196.87809649999963,197.38370869999926,197.36303099999986,197.38109469999927,197.38370869999926,197.38370869999926,197.38370869999926,198.6475719,Scenes\016b.jpg,mid,n,1.2565042000005633,None,,,,,,,,00014,001,2025-11-17_16h00.28.058,MST_test,2024.2.0,59.8444403617911,2025-11-17 16h00.33.919332 +0530,
48,0,49,n,1.2696243000000322,None,49,0,48,198.66177519999928,,,,,,,,,,,,,,,,,,,,,,,,,,,,,,,,,,,,,,,,,,,,,,,,,,198.64797299999918,198.66177519999928,199.16244349999943,199.1462008999997,199.1539886999999,199.16244349999943,199.16244349999943,199.16244349999943,200.44704920000004,Objects\077a.jpg,mid,n,1.2696243000000322,None,,,,,,,,00014,001,2025-11-17_16h00.28.058,MST_test,2024.2.0,59.8444403617911,2025-11-17 16h00.33.919332 +0530,
49,0,50,n,1.148421299999427,None,50,0,49,200.4616030999996,,,,,,,,,,,,,,,,,,,,,,,,,,,,,,,,,,,,,,,,,,,,,,,,,,200.4473312,200.4616030999996,200.9640047999992,200.94629439999972,200.9612416,200.9640047999992,200.9640047999992,200.9640047999992,202.11435509999956,Foils\scenes18.jpg,none,n,1.148421299999427,None,,,,,,,,00014,001,2025-11-17_16h00.28.058,MST_test,2024.2.0,59.8444403617911,2025-11-17 16h00.33.919332 +0530,
50,0,51,n,1.0946978000001764,None,51,0,50,202.12824329999967,,,,,,,,,,,,,,,,,,,,,,,,,,,,,,,,,,,,,,,,,,,,,,,,,,202.1146880999995,202.12824329999967,202.63380569999936,202.61299529999997,202.6313180999996,202.63380569999936,202.63380569999936,202.63380569999936,203.7309594999997,Objects\026b.jpg,mid,n,1.0946978000001764,None,,,,,,,,00014,001,2025-11-17_16h00.28.058,MST_test,2024.2.0,59.8444403617911,2025-11-17 16h00.33.919332 +0530,
51,0,52,n,0.9703500000005079,None,52,0,51,203.74518369999987,,,,,,,,,,,,,,,,,,,,,,,,,,,,,,,,,,,,,,,,,,,,,,,,,,203.73135269999966,203.74518369999987,204.25447919999988,204.22921829999996,204.2516814999999,204.25447919999988,204.25447919999988,204.25447919999988,205.2305411999996,Scenes\107b.jpg,post,n,0.9703500000005079,None,,,,,,,,00014,001,2025-11-17_16h00.28.058,MST_test,2024.2.0,59.8444403617911,2025-11-17 16h00.33.919332 +0530,
52,0,53,s,1.436128700000154,None,53,0,52,205.24499109999942,,,,,,,,,,,,,,,,,,,,,,,,,,,,,,,,,,,,,,,,,,,,,,,,,,205.23089749999963,205.24499109999942,205.74911639999937,205.72973060000004,205.7460973999996,205.74911639999937,205.74911639999937,205.74911639999937,207.1972137999992,Objects\047b.jpg,post,s,1.436128700000154,None,,,,,,,,00014,001,2025-11-17_16h00.28.058,MST_test,2024.2.0,59.8444403617911,2025-11-17 16h00.33.919332 +0530,
53,0,54,n,3.7493443000003026,None,54,0,53,207.21185889999924,,,,,,,,,,,,,,,,,,,,,,,,,,,,,,,,,,,,,,,,,,,,,,,,,,207.19764759999998,207.21185889999924,207.71476919999986,207.6962257999994,207.71222429999943,207.71476919999986,207.71476919999986,207.71476919999986,211.48088349999944,Foils\073a.jpg,none,n,3.7493443000003026,None,,,,,,,,00014,001,2025-11-17_16h00.28.058,MST_test,2024.2.0,59.8444403617911,2025-11-17 16h00.33.919332 +0530,
54,0,55,o,1.1811737999996694,None,55,0,54,211.49514689999978,,,,,,,,,,,,,,,,,,,,,,,,,,,,,,,,,,,,,,,,,,,,,,,,,,211.48130729999957,211.49514689999978,211.9955498999998,211.97916889999942,211.99135519999982,211.9955498999998,211.9955498999998,211.9955498999998,213.1807805999997,Scenes\080a.jpg,pre,o,1.1811737999996694,None,,,,,,,,00014,001,2025-11-17_16h00.28.058,MST_test,2024.2.0,59.8444403617911,2025-11-17 16h00.33.919332 +0530,
55,0,56,s,1.241470300000401,None,56,0,55,213.19494039999972,,,,,,,,,,,,,,,,,,,,,,,,,,,,,,,,,,,,,,,,,,,,,,,,,,213.18118460000005,213.19494039999972,213.69559469999967,213.67937389999952,213.6868532999997,213.69559469999967,213.69559469999967,213.69559469999967,214.94694919999984,Objects\028a.jpg,post,s,1.241470300000401,None,,,,,,,,00014,001,2025-11-17_16h00.28.058,MST_test,2024.2.0,59.8444403617911,2025-11-17 16h00.33.919332 +0530,
56,0,57,s,1.160763400000178,None,57,0,56,214.96173980000003,,,,,,,,,,,,,,,,,,,,,,,,,,,,,,,,,,,,,,,,,,,,,,,,,,214.94732019999992,214.96173980000003,215.46369669999967,215.44641150000007,215.4608202999998,215.46369669999967,215.46369669999967,215.46369669999967,216.62909369999943,Scenes\106a.jpg,mid,s,1.160763400000178,None,,,,,,,,00014,001,2025-11-17_16h00.28.058,MST_test,2024.2.0,59.8444403617911,2025-11-17 16h00.33.919332 +0530,
57,0,58,n,0.9346636999998736,None,58,0,57,216.64488839999922,,,,,,,,,,,,,,,,,,,,,,,,,,,,,,,,,,,,,,,,,,,,,,,,,,216.6292255999997,216.64488839999922,217.16237049999927,217.12928740000007,217.15920089999963,217.16237049999927,217.16237049999927,217.16237049999927,218.11370629999965,Scenes\046b.jpg,mid,n,0.9346636999998736,None,,,,,,,,00014,001,2025-11-17_16h00.28.058,MST_test,2024.2.0,59.8444403617911,2025-11-17 16h00.33.919332 +0530,
58,0,59,n,1.5390495999999985,None,59,0,58,218.12831929999993,,,,,,,,,,,,,,,,,,,,,,,,,,,,,,,,,,,,,,,,,,,,,,,,,,218.11410009999963,218.12831929999993,218.63793069999974,218.61291230000006,218.63561299999947,218.63793069999974,218.63793069999974,218.63793069999974,220.17989880000005,Foils\scenes13.jpg,none,n,1.5390495999999985,None,,,,,,,,00014,001,2025-11-17_16h00.28.058,MST_test,2024.2.0,59.8444403617911,2025-11-17 16h00.33.919332 +0530,
59,0,60,n,1.0070815999997649,None,60,0,59,220.1949537999999,,,,,,,,,,,,,,,,,,,,,,,,,,,,,,,,,,,,,,,,,,,,,,,,,,220.18017879999934,220.1949537999999,220.70533410000007,220.6792501,220.70266509999965,220.70533410000007,220.70533410000007,220.70533410000007,221.7145389999996,Scenes\187b.jpg,post,n,1.0070815999997649,None,,,,,,,,00014,001,2025-11-17_16h00.28.058,MST_test,2024.2.0,59.8444403617911,2025-11-17 16h00.33.919332 +0530,
60,0,61,o,1.0673969999998008,None,61,0,60,221.7283484999998,,,,,,,,,,,,,,,,,,,,,,,,,,,,,,,,,,,,,,,,,,,,,,,,,,221.71494379999967,221.7283484999998,222.22907209999994,222.21290569999928,222.22181569999975,222.22907209999994,222.22907209999994,222.22907209999994,223.3138399999998,Objects\180a.jpg,pre,o,1.0673969999998008,None,,,,,,,,00014,001,2025-11-17_16h00.28.058,MST_test,2024.2.0,59.8444403617911,2025-11-17 16h00.33.919332 +0530,
61,0,62,o,1.2990843999996287,None,62,0,61,223.3281896999997,,,,,,,,,,,,,,,,,,,,,,,,,,,,,,,,,,,,,,,,,,,,,,,,,,223.31418849999955,223.3281896999997,223.83708389999993,223.8125786999999,223.83413779999955,223.83708389999993,223.83708389999993,223.83708389999993,225.1470417999999,Scenes\037b.jpg,mid,o,1.2990843999996287,None,,,,,,,,00014,001,2025-11-17_16h00.28.058,MST_test,2024.2.0,59.8444403617911,2025-11-17 16h00.33.919332 +0530,
62,0,63,o,1.6099868999999671,None,63,0,62,225.1615901999994,,,,,,,,,,,,,,,,,,,,,,,,,,,,,,,,,,,,,,,,,,,,,,,,,,225.14747269999953,225.1615901999994,225.66234059999988,225.64611960000002,225.65307269999994,225.66234059999988,225.66234059999988,225.66234059999988,227.2806987999993,Objects\091a.jpg,pre,o,1.6099868999999671,None,,,,,,,,00014,001,2025-11-17_16h00.28.058,MST_test,2024.2.0,59.8444403617911,2025-11-17 16h00.33.919332 +0530,
63,0,64,n,1.0820972999999867,None,64,0,63,227.29493980000007,,,,,,,,,,,,,,,,,,,,,,,,,,,,,,,,,,,,,,,,,,,,,,,,,,227.28105770000002,227.29493980000007,227.79863609999938,227.7791591999994,227.7959664,227.79863609999938,227.79863609999938,227.79863609999938,228.89706289999958,Foils\scenes8.jpg,none,n,1.0820972999999867,None,,,,,,,,00014,001,2025-11-17_16h00.28.058,MST_test,2024.2.0,59.8444403617911,2025-11-17 16h00.33.919332 +0530,
64,0,65,n,0.8427179000000251,None,65,0,64,228.91158749999977,,,,,,,,,,,,,,,,,,,,,,,,,,,,,,,,,,,,,,,,,,,,,,,,,,228.89744960000007,228.91158749999977,229.4141123999998,229.39610149999953,229.41156559999945,229.4141123999998,229.4141123999998,229.4141123999998,230.26412449999953,Foils\074a.jpg,none,n,0.8427179000000251,None,,,,,,,,00014,001,2025-11-17_16h00.28.058,MST_test,2024.2.0,59.8444403617911,2025-11-17 16h00.33.919332 +0530,
65,0,66,n,0.7179704999998648,None,66,0,65,230.2780804999993,,,,,,,,,,,,,,,,,,,,,,,,,,,,,,,,,,,,,,,,,,,,,,,,,,230.26448099999925,230.2780804999993,230.7797127999993,230.76268869999967,230.77734919999966,230.7797127999993,230.7797127999993,230.7797127999993,231.51459429999977,Objects\041b.jpg,pre,n,0.7179704999998648,None,,,,,,,,00014,001,2025-11-17_16h00.28.058,MST_test,2024.2.0,59.8444403617911,2025-11-17 16h00.33.919332 +0530,
66,0,67,s,1.732027700000799,None,67,0,66,231.52814129999933,,,,,,,,,,,,,,,,,,,,,,,,,,,,,,,,,,,,,,,,,,,,,,,,,,231.5149963999993,231.52814129999933,232.02867509999942,232.0130307999998,232.02472469999975,232.02867509999942,232.02867509999942,232.02867509999942,233.76382849999936,Scenes\182a.jpg,mid,s,1.732027700000799,None,,,,,,,,00014,001,2025-11-17_16h00.28.058,MST_test,2024.2.0,59.8444403617911,2025-11-17 16h00.33.919332 +0530,
67,0,68,s,1.0075925999999527,None,68,0,67,233.7781476,,,,,,,,,,,,,,,,,,,,,,,,,,,,,,,,,,,,,,,,,,,,,,,,,,233.76417609999953,233.7781476,234.28117799999927,234.26308149999932,234.27824939999937,234.28117799999927,234.28117799999927,234.28117799999927,235.2975465999998,Objects\033b.jpg,post,s,1.0075925999999527,None,,,,,,,,00014,001,2025-11-17_16h00.28.058,MST_test,2024.2.0,59.8444403617911,2025-11-17 16h00.33.919332 +0530,
68,0,69,o,1.1089956000005259,None,69,0,68,235.31172479999987,,,,,,,,,,,,,,,,,,,,,,,,,,,,,,,,,,,,,,,,,,,,,,,,,,235.2979695999993,235.31172479999987,235.81178180000006,235.79585679999946,235.80259320000005,235.81178180000006,235.81178180000006,235.81178180000006,236.93048139999974,Objects\097a.jpg,pre,o,1.1089956000005259,None,,,,,,,,00014,001,2025-11-17_16h00.28.058,MST_test,2024.2.0,59.8444403617911,2025-11-17 16h00.33.919332 +0530,
69,0,70,n,1.947095999999874,None,70,0,69,236.9451153,,,,,,,,,,,,,,,,,,,,,,,,,,,,,,,,,,,,,,,,,,,,,,,,,,236.93083829999978,236.9451153,237.4451311999992,237.4293678999993,237.43632079999952,237.4451311999992,237.4451311999992,237.4451311999992,239.39614170000004,Objects\004a.jpg,mid,n,1.947095999999874,None,,,,,,,,00014,001,2025-11-17_16h00.28.058,MST_test,2024.2.0,59.8444403617911,2025-11-17 16h00.33.919332 +0530,
70,0,71,o,1.5599412999999913,None,71,0,70,239.4115813999997,,,,,,,,,,,,,,,,,,,,,,,,,,,,,,,,,,,,,,,,,,,,,,,,,,239.39633520000007,239.4115813999997,239.91230759999962,239.89610659999926,239.90722239999923,239.91230759999962,239.91230759999962,239.91230759999962,241.4811508999992,Scenes\129a.jpg,post,o,1.5599412999999913,None,,,,,,,,00014,001,2025-11-17_16h00.28.058,MST_test,2024.2.0,59.8444403617911,2025-11-17 16h00.33.919332 +0530,
71,0,72,n,1.3166224000005968,None,72,0,71,241.49496159999944,,,,,,,,,,,,,,,,,,,,,,,,,,,,,,,,,,,,,,,,,,,,,,,,,,241.48149279999961,241.49496159999944,241.9957958999994,241.97826480000003,241.98912629999995,241.9957958999994,241.9957958999994,241.9957958999994,243.31437069999993,Scenes\025a.jpg,post,n,1.3166224000005968,None,,,,,,,,00014,001,2025-11-17_16h00.28.058,MST_test,2024.2.0,59.8444403617911,2025-11-17 16h00.33.919332 +0530,
72,0,73,n,0.7485577999996167,None,73,0,72,243.32826709999972,,,,,,,,,,,,,,,,,,,,,,,,,,,,,,,,,,,,,,,,,,,,,,,,,,243.3147595999999,243.32826709999972,243.84435689999918,243.81277090000003,243.84118880000005,243.84435689999918,243.84435689999918,243.84435689999918,244.59743889999936,Scenes\077b.jpg,pre,n,0.7485577999996167,None,,,,,,,,00014,001,2025-11-17_16h00.28.058,MST_test,2024.2.0,59.8444403617911,2025-11-17 16h00.33.919332 +0530,
73,0,74,n,2.103877999999895,None,74,0,73,244.61159749999933,,,,,,,,,,,,,,,,,,,,,,,,,,,,,,,,,,,,,,,,,,,,,,,,,,244.59779759999947,244.61159749999933,245.11294269999962,245.09625619999952,245.10987299999942,245.11294269999962,245.11294269999962,245.11294269999962,247.23063139999977,Scenes\183a.jpg,post,n,2.103877999999895,None,,,,,,,,00014,001,2025-11-17_16h00.28.058,MST_test,2024.2.0,59.8444403617911,2025-11-17 16h00.33.919332 +0530,
74,0,75,n,0.9106019999999262,None,75,0,74,247.24506500000007,,,,,,,,,,,,,,,,,,,,,,,,,,,,,,,,,,,,,,,,,,,,,,,,,,247.23107009999967,247.24506500000007,247.75391429999945,247.72960729999977,247.75086740000006,247.75391429999945,247.75391429999945,247.75391429999945,248.68028659999982,Scenes\176b.jpg,post,n,0.9106019999999262,None,,,,,,,,00014,001,2025-11-17_16h00.28.058,MST_test,2024.2.0,59.8444403617911,2025-11-17 16h00.33.919332 +0530,
75,0,76,n,1.8933412999995198,None,76,0,75,248.69490629999927,,,,,,,,,,,,,,,,,,,,,,,,,,,,,,,,,,,,,,,,,,,,,,,,,,248.68064479999975,248.69490629999927,249.1956227999999,249.1795943999996,249.19038319999981,249.1956227999999,249.1956227999999,249.1956227999999,251.09698449999996,Scenes\065a.jpg,pre,n,1.8933412999995198,None,,,,,,,,00014,001,2025-11-17_16h00.28.058,MST_test,2024.2.0,59.8444403617911,2025-11-17 16h00.33.919332 +0530,
76,0,77,n,1.609400000000278,None,77,0,76,251.11161149999953,,,,,,,,,,,,,,,,,,,,,,,,,,,,,,,,,,,,,,,,,,,,,,,,,,251.0972931999995,251.11161149999953,251.6235915999996,251.5961828999998,251.62059229999977,251.6235915999996,251.6235915999996,251.6235915999996,253.24709489999987,Scenes\090b.jpg,mid,n,1.609400000000278,None,,,,,,,,00014,001,2025-11-17_16h00.28.058,MST_test,2024.2.0,59.8444403617911,2025-11-17 16h00.33.919332 +0530,
77,0,78,n,0.7194958000000042,None,78,0,77,253.26164399999925,,,,,,,,,,,,,,,,,,,,,,,,,,,,,,,,,,,,,,,,,,,,,,,,,,253.24741559999984,253.26164399999925,253.8327234999997,253.7462390999999,253.8284851999997,253.8327234999997,253.8327234999997,253.8327234999997,254.5642900999992,Foils\scenes25.jpg,none,n,0.7194958000000042,None,,,,,,,,00014,001,2025-11-17_16h00.28.058,MST_test,2024.2.0,59.8444403617911,2025-11-17 16h00.33.919332 +0530,
78,0,79,n,0.7807085999993433,None,79,0,78,254.57838529999935,,,,,,,,,,,,,,,,,,,,,,,,,,,,,,,,,,,,,,,,,,,,,,,,,,254.56465949999983,254.57838529999935,255.0916856999993,255.06279790000008,255.08924099999967,255.0916856999993,255.0916856999993,255.0916856999993,255.8804352999996,Foils\105a.jpg,none,n,0.7807085999993433,None,,,,,,,,00014,001,2025-11-17_16h00.28.058,MST_test,2024.2.0,59.8444403617911,2025-11-17 16h00.33.919332 +0530,
79,0,80,o,1.221153299999969,None,80,0,79,255.89493760000005,,,,,,,,,,,,,,,,,,,,,,,,,,,,,,,,,,,,,,,,,,,,,,,,,,255.8808096999992,255.89493760000005,256.39560379999966,256.37945390000004,256.39219479999974,256.39560379999966,256.39560379999966,256.39560379999966,257.63046159999976,Scenes\175a.jpg,post,o,1.221153299999969,None,,,,,,,,00014,001,2025-11-17_16h00.28.058,MST_test,2024.2.0,59.8444403617911,2025-11-17 16h00.33.919332 +0530,
80,0,81,o,0.9481892000003427,None,81,0,80,257.6450490999996,,,,,,,,,,,,,,,,,,,,,,,,,,,,,,,,,,,,,,,,,,,,,,,,,,257.63081220000004,257.6450490999996,258.1565686999993,258.12925319999977,258.1532346999993,258.1565686999993,258.1565686999993,258.1565686999993,259.1122575999998,Scenes\153b.jpg,post,o,0.9481892000003427,None,,,,,,,,00014,001,2025-11-17_16h00.28.058,MST_test,2024.2.0,59.8444403617911,2025-11-17 16h00.33.919332 +0530,
81,0,82,n,1.112754199999472,None,82,0,81,259.1278751,,,,,,,,,,,,,,,,,,,,,,,,,,,,,,,,,,,,,,,,,,,,,,,,,,259.1123499999994,259.1278751,259.6318775999998,259.61271789999955,259.62888229999953,259.6318775999998,259.6318775999998,259.6318775999998,260.74747279999974,Foils\050a.jpg,none,n,1.112754199999472,None,,,,,,,,00014,001,2025-11-17_16h00.28.058,MST_test,2024.2.0,59.8444403617911,2025-11-17 16h00.33.919332 +0530,
82,0,83,s,1.120773100000406,None,83,0,82,260.76167429999987,,,,,,,,,,,,,,,,,,,,,,,,,,,,,,,,,,,,,,,,,,,,,,,,,,260.74788589999935,260.76167429999987,261.2633031999994,261.24603429999934,261.26055129999986,261.2633031999994,261.2633031999994,261.2633031999994,262.396753,Scenes\004a.jpg,post,s,1.120773100000406,None,,,,,,,,00014,001,2025-11-17_16h00.28.058,MST_test,2024.2.0,59.8444403617911,2025-11-17 16h00.33.919332 +0530,
83,0,84,s,0.8533774000006815,None,84,0,83,262.4116067999994,,,,,,,,,,,,,,,,,,,,,,,,,,,,,,,,,,,,,,,,,,,,,,,,,,262.3970346999995,262.4116067999994,262.91533419999996,262.8960653999993,262.9121886999992,262.91533419999996,262.91533419999996,262.91533419999996,263.7801731999998,Foils\049a.jpg,none,s,0.8533774000006815,None,,,,,,,,00014,001,2025-11-17_16h00.28.058,MST_test,2024.2.0,59.8444403617911,2025-11-17 16h00.33.919332 +0530,
84,0,85,n,1.4121664000003875,None,85,0,84,263.7949678999994,,,,,,,,,,,,,,,,,,,,,,,,,,,,,,,,,,,,,,,,,,,,,,,,,,263.78053809999983,263.7949678999994,264.3003977999997,264.2791779999998,264.2977336999993,264.3003977999997,264.3003977999997,264.3003977999997,265.7143194,Objects\163b.jpg,mid,n,1.4121664000003875,None,,,,,,,,00014,001,2025-11-17_16h00.28.058,MST_test,2024.2.0,59.8444403617911,2025-11-17 16h00.33.919332 +0530,
85,0,86,s,1.1482106000003114,None,86,0,85,265.7281026999999,,,,,,,,,,,,,,,,,,,,,,,,,,,,,,,,,,,,,,,,,,,,,,,,,,265.71463929999936,265.7281026999999,266.22830689999955,266.2129258999994,266.2208722999994,266.22830689999955,266.22830689999955,266.22830689999955,267.3807350999996,Objects\036a.jpg,post,s,1.1482106000003114,None,,,,,,,,00014,001,2025-11-17_16h00.28.058,MST_test,2024.2.0,59.8444403617911,2025-11-17 16h00.33.919332 +0530,
86,0,87,o,1.208622999999534,None,87,0,86,267.3947687,,,,,,,,,,,,,,,,,,,,,,,,,,,,,,,,,,,,,,,,,,,,,,,,,,267.38127279999935,267.3947687,267.89559889999964,267.87930099999994,267.88812549999966,267.89559889999964,267.89559889999964,267.89559889999964,269.1144555000001,Objects\069a.jpg,pre,o,1.208622999999534,None,,,,,,,,00014,001,2025-11-17_16h00.28.058,MST_test,2024.2.0,59.8444403617911,2025-11-17 16h00.33.919332 +0530,
87,0,88,n,1.4872991000002003,None,88,0,87,269.1282934000001,,,,,,,,,,,,,,,,,,,,,,,,,,,,,,,,,,,,,,,,,,,,,,,,,,269.1148379999995,269.1282934000001,269.64159429999927,269.61297379999996,269.6384804999998,269.64159429999927,269.64159429999927,269.64159429999927,271.13098739999987,Scenes\119b.jpg,post,n,1.4872991000002003,None,,,,,,,,00014,001,2025-11-17_16h00.28.058,MST_test,2024.2.0,59.8444403617911,2025-11-17 16h00.33.919332 +0530,
88,0,89,n,1.4675086999995983,None,89,0,88,271.1450563999997,,,,,,,,,,,,,,,,,,,,,,,,,,,,,,,,,,,,,,,,,,,,,,,,,,271.1314106,271.1450563999997,271.65311549999933,271.6293117999994,271.6499699999995,271.65311549999933,271.65311549999933,271.65311549999933,273.13050849999945,Scenes\179b.jpg,pre,n,1.4675086999995983,None,,,,,,,,00014,001,2025-11-17_16h00.28.058,MST_test,2024.2.0,59.8444403617911,2025-11-17 16h00.33.919332 +0530,
89,0,90,s,1.2945837999996002,None,90,0,89,273.1450443999993,,,,,,,,,,,,,,,,,,,,,,,,,,,,,,,,,,,,,,,,,,,,,,,,,,273.13084269999945,273.1450443999993,273.6496548999994,273.62934549999954,273.6467804999993,273.6496548999994,273.6496548999994,273.6496548999994,274.9475388000001,Objects\156b.jpg,mid,s,1.2945837999996002,None,,,,,,,,00014,001,2025-11-17_16h00.28.058,MST_test,2024.2.0,59.8444403617911,2025-11-17 16h00.33.919332 +0530,
90,0,91,n,1.5672522000004392,None,91,0,90,274.9617327999995,,,,,,,,,,,,,,,,,,,,,,,,,,,,,,,,,,,,,,,,,,,,,,,,,,274.9479574999996,274.9617327999995,275.46500019999985,275.44610699999976,275.46251329999996,275.46500019999985,275.46500019999985,275.46500019999985,277.0469377999998,Foils\057a.jpg,none,n,1.5672522000004392,None,,,,,,,,00014,001,2025-11-17_16h00.28.058,MST_test,2024.2.0,59.8444403617911,2025-11-17 16h00.33.919332 +0530,
91,0,92,n,1.2461051000000225,None,92,0,91,277.06171429999995,,,,,,,,,,,,,,,,,,,,,,,,,,,,,,,,,,,,,,,,,,,,,,,,,,277.04735319999963,277.06171429999995,277.56218179999996,277.54511899999943,277.55608009999924,277.56218179999996,277.56218179999996,277.56218179999996,278.81404999999995,Foils\scenes2.jpg,none,n,1.2461051000000225,None,,,,,,,,00014,001,2025-11-17_16h00.28.058,MST_test,2024.2.0,59.8444403617911,2025-11-17 16h00.33.919332 +0530,
92,0,93,s,1.1594959000003655,None,93,0,92,278.8283346999997,,,,,,,,,,,,,,,,,,,,,,,,,,,,,,,,,,,,,,,,,,,,,,,,,,278.8144674999994,278.8283346999997,279.32864659999996,279.31286699999964,279.32059200000003,279.32864659999996,279.32864659999996,279.32864659999996,280.49709449999955,Objects\088a.jpg,mid,s,1.1594959000003655,None,,,,,,,,00014,001,2025-11-17_16h00.28.058,MST_test,2024.2.0,59.8444403617911,2025-11-17 16h00.33.919332 +0530,
93,0,94,s,1.8516961000004812,None,94,0,93,280.51171969999996,,,,,,,,,,,,,,,,,,,,,,,,,,,,,,,,,,,,,,,,,,,,,,,,,,280.49740779999956,280.51171969999996,281.0123782999999,280.9960707,281.00712029999977,281.0123782999999,281.0123782999999,281.0123782999999,282.8807334999992,Scenes\186a.jpg,mid,s,1.8516961000004812,None,,,,,,,,00014,001,2025-11-17_16h00.28.058,MST_test,2024.2.0,59.8444403617911,2025-11-17 16h00.33.919332 +0530,
94,0,95,s,1.590686900000037,None,95,0,94,282.89505439999994,,,,,,,,,,,,,,,,,,,,,,,,,,,,,,,,,,,,,,,,,,,,,,,,,,282.8811255999999,282.89505439999994,283.40168919999996,283.3793743999995,283.3985709999997,283.40168919999996,283.40168919999996,283.40168919999996,284.99757899999986,Scenes\102a.jpg,pre,s,1.590686900000037,None,,,,,,,,00014,001,2025-11-17_16h00.28.058,MST_test,2024.2.0,59.8444403617911,2025-11-17 16h00.33.919332 +0530,
95,0,96,n,1.05601150000075,None,96,0,95,285.0118315999998,,,,,,,,,,,,,,,,,,,,,,,,,,,,,,,,,,,,,,,,,,,,,,,,,,284.9979270999993,285.0118315999998,285.5202049999998,285.4962926999997,285.5171088999996,285.5202049999998,285.5202049999998,285.5202049999998,286.5809913999992,Foils\009a.jpg,none,n,1.05601150000075,None,,,,,,,,00014,001,2025-11-17_16h00.28.058,MST_test,2024.2.0,59.8444403617911,2025-11-17 16h00.33.919332 +0530,
96,0,97,n,1.7987654999997176,None,97,0,96,286.5950718999993,,,,,,,,,,,,,,,,,,,,,,,,,,,,,,,,,,,,,,,,,,,,,,,,,,286.58143440000003,286.5950718999993,287.0982535999992,287.07957089999945,287.0959421999996,287.0982535999992,287.0982535999992,287.0982535999992,288.9137409999994,Objects\031b.jpg,pre,n,1.7987654999997176,None,,,,,,,,00014,001,2025-11-17_16h00.28.058,MST_test,2024.2.0,59.8444403617911,2025-11-17 16h00.33.919332 +0530,
97,0,98,o,1.5451327999999194,None,98,0,97,288.9284042999998,,,,,,,,,,,,,,,,,,,,,,,,,,,,,,,,,,,,,,,,,,,,,,,,,,288.91406819999975,288.9284042999998,289.43134759999975,289.4131576,289.4288241999993,289.43134759999975,289.43134759999975,289.43134759999975,290.98103379999975,Objects\147b.jpg,post,o,1.5451327999999194,None,,,,,,,,00014,001,2025-11-17_16h00.28.058,MST_test,2024.2.0,59.8444403617911,2025-11-17 16h00.33.919332 +0530,
98,0,99,o,0.9333482000001823,None,99,0,98,290.9951223999997,,,,,,,,,,,,,,,,,,,,,,,,,,,,,,,,,,,,,,,,,,,,,,,,,,290.9814515999997,290.9951223999997,291.49873059999936,291.4795285,291.4961287999995,291.49873059999936,291.49873059999936,291.49873059999936,292.4476697,Objects\172b.jpg,pre,o,0.9333482000001823,None,,,,,,,,00014,001,2025-11-17_16h00.28.058,MST_test,2024.2.0,59.8444403617911,2025-11-17 16h00.33.919332 +0530,
99,0,100,s,1.9404232999995656,None,100,0,99,292.4618340999996,,,,,,,,,,,,,,,,,,,,,,,,,,,,,,,,,,,,,,,,,,,,,,,,,,292.44803349999984,292.4618340999996,292.9715860999995,292.9462864999996,292.9686417999992,292.9715860999995,292.9715860999995,292.9715860999995,294.9142755999992,Scenes\157b.jpg,mid,s,1.9404232999995656,None,,,,,,,,00014,001,2025-11-17_16h00.28.058,MST_test,2024.2.0,59.8444403617911,2025-11-17 16h00.33.919332 +0530,
100,0,101,s,1.0108695000008083,None,101,0,100,294.9283207999997,,,,,,,,,,,,,,,,,,,,,,,,,,,,,,,,,,,,,,,,,,,,,,,,,,294.91462239999964,294.9283207999997,295.42919489999986,295.41309079999974,295.4228266,295.42919489999986,295.42919489999986,295.42919489999986,296.4475064999997,Objects\138a.jpg,mid,s,1.0108695000008083,None,,,,,,,,00014,001,2025-11-17_16h00.28.058,MST_test,2024.2.0,59.8444403617911,2025-11-17 16h00.33.919332 +0530,
101,0,102,n,1.2136228999997911,None,102,0,101,296.4617454999998,,,,,,,,,,,,,,,,,,,,,,,,,,,,,,,,,,,,,,,,,,,,,,,,,,296.4478804999999,296.4617454999998,296.9628813999998,296.9461778999994,296.9601258999992,296.9628813999998,296.9628813999998,296.9628813999998,298.1806717999998,Foils\scenes12.jpg,none,n,1.2136228999997911,None,,,,,,,,00014,001,2025-11-17_16h00.28.058,MST_test,2024.2.0,59.8444403617911,2025-11-17 16h00.33.919332 +0530,
102,0,103,n,1.1170799999999872,None,103,0,102,298.19522309999957,,,,,,,,,,,,,,,,,,,,,,,,,,,,,,,,,,,,,,,,,,,,,,,,,,298.1810650999996,298.19522309999957,298.6996494999994,298.67966669999987,298.6968244999998,298.6996494999994,298.6996494999994,298.6996494999994,299.8308217999993,Foils\097a.jpg,none,n,1.1170799999999872,None,,,,,,,,00014,001,2025-11-17_16h00.28.058,MST_test,2024.2.0,59.8444403617911,2025-11-17 16h00.33.919332 +0530,
103,0,104,n,0.7965784999996686,None,104,0,103,299.8450852999995,,,,,,,,,,,,,,,,,,,,,,,,,,,,,,,,,,,,,,,,,,,,,,,,,,299.83120509999935,299.8450852999995,300.3475351999996,300.3294675999996,300.34457329999987,300.3475351999996,300.3475351999996,300.3475351999996,301.1477032999992,Scenes\167a.jpg,mid,n,0.7965784999996686,None,,,,,,,,00014,001,2025-11-17_16h00.28.058,MST_test,2024.2.0,59.8444403617911,2025-11-17 16h00.33.919332 +0530,
104,0,105,s,1.8322213000001284,None,105,0,104,301.16189099999974,,,,,,,,,,,,,,,,,,,,,,,,,,,,,,,,,,,,,,,,,,,,,,,,,,301.1480655999994,301.16189099999974,301.6646676999999,301.6462875999996,301.66149309999946,301.6646676999999,301.6646676999999,301.6646676999999,303.5144528000001,Objects\168b.jpg,post,s,1.8322213000001284,None,,,,,,,,00014,001,2025-11-17_16h00.28.058,MST_test,2024.2.0,59.8444403617911,2025-11-17 16h00.33.919332 +0530,
105,0,106,n,1.0279356000000917,None,106,0,105,303.5282641999993,,,,,,,,,,,,,,,,,,,,,,,,,,,,,,,,,,,,,,,,,,,,,,,,,,303.51482809999925,303.5282641999993,304.02846599999975,304.0127290999999,304.02012549999927,304.02846599999975,304.02846599999975,304.02846599999975,305.06400609999946,Objects\002a.jpg,pre,n,1.0279356000000917,None,,,,,,,,00014,001,2025-11-17_16h00.28.058,MST_test,2024.2.0,59.8444403617911,2025-11-17 16h00.33.919332 +0530,
106,0,107,o,1.3886406999999963,None,107,0,106,305.0782921,,,,,,,,,,,,,,,,,,,,,,,,,,,,,,,,,,,,,,,,,,,,,,,,,,305.0642736,305.0782921,305.5793625999995,305.5628582999998,305.5765544999995,305.5793625999995,305.5793625999995,305.5793625999995,306.98080129999926,Scenes\155a.jpg,post,o,1.3886406999999963,None,,,,,,,,00014,001,2025-11-17_16h00.28.058,MST_test,2024.2.0,59.8444403617911,2025-11-17 16h00.33.919332 +0530,
107,0,108,s,1.8000443999999334,None,108,0,107,306.9951463999996,,,,,,,,,,,,,,,,,,,,,,,,,,,,,,,,,,,,,,,,,,,,,,,,,,306.98116729999947,306.9951463999996,307.49585489999936,307.47960779999994,307.48650279999947,307.49585489999936,307.49585489999936,307.49585489999936,309.29800329999944,Objects\114a.jpg,pre,s,1.8000443999999334,None,,,,,,,,00014,001,2025-11-17_16h00.28.058,MST_test,2024.2.0,59.8444403617911,2025-11-17 16h00.33.919332 +0530,
108,0,109,n,1.7963101000004826,None,109,0,108,309.3117173999999,,,,,,,,,,,,,,,,,,,,,,,,,,,,,,,,,,,,,,,,,,,,,,,,,,309.29836629999954,309.3117173999999,309.8122211,309.7961164999997,309.80926999999974,309.8122211,309.8122211,309.8122211,311.61361379999926,Scenes\084a.jpg,pre,n,1.7963101000004826,None,,,,,,,,00014,001,2025-11-17_16h00.28.058,MST_test,2024.2.0,59.8444403617911,2025-11-17 16h00.33.919332 +0530,
109,0,110,s,4.4235505000006015,None,110,0,109,311.62809729999935,,,,,,,,,,,,,,,,,,,,,,,,,,,,,,,,,,,,,,,,,,,,,,,,,,311.61395749999974,311.62809729999935,312.1289027999992,312.1126706999994,312.11998369999947,312.1289027999992,312.1289027999992,312.1289027999992,316.5637515999997,Objects\162a.jpg,post,s,4.4235505000006015,None,,,,,,,,00014,001,2025-11-17_16h00.28.058,MST_test,2024.2.0,59.8444403617911,2025-11-17 16h00.33.919332 +0530,
110,0,111,n,1.0241055999995297,None,111,0,110,316.5781154999995,,,,,,,,,,,,,,,,,,,,,,,,,,,,,,,,,,,,,,,,,,,,,,,,,,316.5640524999999,316.5781154999995,317.08045519999996,317.06289169999945,317.0778419999997,317.08045519999996,317.08045519999996,317.08045519999996,318.11388799999986,Foils\090a.jpg,none,n,1.0241055999995297,None,,,,,,,,00014,001,2025-11-17_16h00.28.058,MST_test,2024.2.0,59.8444403617911,2025-11-17 16h00.33.919332 +0530,
111,0,112,n,1.0984496000000945,None,112,0,111,318.12817189999987,,,,,,,,,,,,,,,,,,,,,,,,,,,,,,,,,,,,,,,,,,,,,,,,,,318.1142282999999,318.12817189999987,318.6384957999999,318.6125089999996,318.6355653999999,318.6384957999999,318.6384957999999,318.6384957999999,319.7470530999999,Scenes\085b.jpg,post,n,1.0984496000000945,None,,,,,,,,00014,001,2025-11-17_16h00.28.058,MST_test,2024.2.0,59.8444403617911,2025-11-17 16h00.33.919332 +0530,
112,0,113,n,0.7278483000000051,None,113,0,112,319.7615812999993,,,,,,,,,,,,,,,,,,,,,,,,,,,,,,,,,,,,,,,,,,,,,,,,,,319.7474483999995,319.7615812999993,320.2724030999998,320.24601839999923,320.2693509999999,320.2724030999998,320.2724030999998,320.2724030999998,321.0138505999994,Scenes\041b.jpg,pre,n,0.7278483000000051,None,,,,,,,,00014,001,2025-11-17_16h00.28.058,MST_test,2024.2.0,59.8444403617911,2025-11-17 16h00.33.919332 +0530,
113,0,114,s,1.2634386999998242,None,114,0,113,321.0281550999998,,,,,,,,,,,,,,,,,,,,,,,,,,,,,,,,,,,,,,,,,,,,,,,,,,321.0142318999997,321.0281550999998,321.52889269999923,321.5128956999997,321.5213331999994,321.52889269999923,321.52889269999923,321.52889269999923,322.79732259999946,Objects\116a.jpg,pre,s,1.2634386999998242,None,,,,,,,,00014,001,2025-11-17_16h00.28.058,MST_test,2024.2.0,59.8444403617911,2025-11-17 16h00.33.919332 +0530,
114,0,115,s,1.8331082000004244,None,115,0,114,322.811592,,,,,,,,,,,,,,,,,,,,,,,,,,,,,,,,,,,,,,,,,,,,,,,,,,322.7977014999997,322.811592,323.3196178999997,323.2959001999998,323.31677729999956,323.3196178999997,323.3196178999997,323.3196178999997,325.16346519999934,Scenes\191b.jpg,mid,s,1.8331082000004244,None,,,,,,,,00014,001,2025-11-17_16h00.28.058,MST_test,2024.2.0,59.8444403617911,2025-11-17 16h00.33.919332 +0530,
115,0,116,n,0.8131763000001229,None,116,0,115,325.1781025,,,,,,,,,,,,,,,,,,,,,,,,,,,,,,,,,,,,,,,,,,,,,,,,,,325.1638224999997,325.1781025,325.6830289999998,325.66279459999987,325.6801421,325.6830289999998,325.6830289999998,325.6830289999998,326.5131632999992,Foils\020b.jpg,none,n,0.8131763000001229,None,,,,,,,,00014,001,2025-11-17_16h00.28.058,MST_test,2024.2.0,59.8444403617911,2025-11-17 16h00.33.919332 +0530,
116,0,117,o,1.1114090000000942,None,117,0,116,326.5281744999993,,,,,,,,,,,,,,,,,,,,,,,,,,,,,,,,,,,,,,,,,,,,,,,,,,326.5134672999993,326.5281744999993,327.0326097999996,327.0126610999996,327.0302490999993,327.0326097999996,327.0326097999996,327.0326097999996,328.14700579999953,Objects\101b.jpg,pre,o,1.1114090000000942,None,,,,,,,,00014,001,2025-11-17_16h00.28.058,MST_test,2024.2.0,59.8444403617911,2025-11-17 16h00.33.919332 +0530,
117,0,118,o,1.0344024999994872,None,118,0,117,328.1620805999992,,,,,,,,,,,,,,,,,,,,,,,,,,,,,,,,,,,,,,,,,,,,,,,,,,328.1473526,328.1620805999992,328.66184449999946,328.6458518999998,328.6540003,328.66184449999946,328.66184449999946,328.66184449999946,329.7137776999998,Objects\144a.jpg,pre,o,1.0344024999994872,None,,,,,,,,00014,001,2025-11-17_16h00.28.058,MST_test,2024.2.0,59.8444403617911,2025-11-17 16h00.33.919332 +0530,
118,0,119,o,0.7726337000003696,None,119,0,118,329.72819009999967,,,,,,,,,,,,,,,,,,,,,,,,,,,,,,,,,,,,,,,,,,,,,,,,,,329.71407779999936,329.72819009999967,330.22870949999924,330.2129215999994,330.2211039999993,330.22870949999924,330.22870949999924,330.22870949999924,331.0136001000001,Objects\099a.jpg,mid,o,0.7726337000003696,None,,,,,,,,00014,001,2025-11-17_16h00.28.058,MST_test,2024.2.0,59.8444403617911,2025-11-17 16h00.33.919332 +0530,
119,0,120,o,1.0158928000000742,None,120,0,119,331.0281195999996,,,,,,,,,,,,,,,,,,,,,,,,,,,,,,,,,,,,,,,,,,,,,,,,,,331.0139196,331.0281195999996,331.5283882999993,331.5136999999995,331.5215752999993,331.5283882999993,331.5283882999993,331.5283882999993,332.5470719999994,Objects\067a.jpg,post,o,1.0158928000000742,None,,,,,,,,00014,001,2025-11-17_16h00.28.058,MST_test,2024.2.0,59.8444403617911,2025-11-17 16h00.33.919332 +0530,
120,0,121,n,1.3945948000000499,None,121,0,120,332.5617739999998,,,,,,,,,,,,,,,,,,,,,,,,,,,,,,,,,,,,,,,,,,,,,,,,,,332.5474259999992,332.5617739999998,333.0617732999999,333.0458085999999,333.0586596999992,333.0617732999999,333.0617732999999,333.0617732999999,334.46402839999973,Foils\042a.jpg,none,n,1.3945948000000499,None,,,,,,,,00014,001,2025-11-17_16h00.28.058,MST_test,2024.2.0,59.8444403617911,2025-11-17 16h00.33.919332 +0530,
121,0,122,n,1.2895510000007562,None,122,0,121,334.4781131,,,,,,,,,,,,,,,,,,,,,,,,,,,,,,,,,,,,,,,,,,,,,,,,,,334.4643094999992,334.4781131,334.98285469999973,334.96296319999965,334.98053079999954,334.98285469999973,334.98285469999973,334.98285469999973,336.2804587999999,Objects\080b.jpg,mid,n,1.2895510000007562,None,,,,,,,,00014,001,2025-11-17_16h00.28.058,MST_test,2024.2.0,59.8444403617911,2025-11-17 16h00.33.919332 +0530,
122,0,123,o,1.3626417999994374,None,123,0,122,336.2949171999999,,,,,,,,,,,,,,,,,,,,,,,,,,,,,,,,,,,,,,,,,,,,,,,,,,336.2807423999993,336.2949171999999,336.8060306999996,336.77935009999965,336.80302069999925,336.8060306999996,336.8060306999996,336.8060306999996,338.18058239999937,Scenes\189b.jpg,pre,o,1.3626417999994374,None,,,,,,,,00014,001,2025-11-17_16h00.28.058,MST_test,2024.2.0,59.8444403617911,2025-11-17 16h00.33.919332 +0530,
123,0,124,n,0.7489316000001054,None,124,0,123,338.1949122999995,,,,,,,,,,,,,,,,,,,,,,,,,,,,,,,,,,,,,,,,,,,,,,,,,,338.18097659999967,338.1949122999995,338.6992060999992,338.67930629999955,338.6963713999994,338.6992060999992,338.6992060999992,338.6992060999992,339.4639766,Foils\058a.jpg,none,n,0.7489316000001054,None,,,,,,,,00014,001,2025-11-17_16h00.28.058,MST_test,2024.2.0,59.8444403617911,2025-11-17 16h00.33.919332 +0530,
124,0,125,n,1.1225722999997743,None,125,0,124,339.47828069999923,,,,,,,,,,,,,,,,,,,,,,,,,,,,,,,,,,,,,,,,,,,,,,,,,,339.46435369999926,339.47828069999923,339.9816065999994,339.9629428999997,339.97908669999924,339.9816065999994,339.9816065999994,339.9816065999994,341.11396329999934,Objects\157b.jpg,pre,n,1.1225722999997743,None,,,,,,,,00014,001,2025-11-17_16h00.28.058,MST_test,2024.2.0,59.8444403617911,2025-11-17 16h00.33.919332 +0530,
125,0,126,s,2.225587199999609,None,126,0,125,341.1282945999992,,,,,,,,,,,,,,,,,,,,,,,,,,,,,,,,,,,,,,,,,,,,,,,,,,341.11437059999935,341.1282945999992,341.63851499999964,341.6129676999999,341.6356477999998,341.63851499999964,341.63851499999964,341.63851499999964,343.88027579999925,Scenes\013b.jpg,post,s,2.225587199999609,None,,,,,,,,00014,001,2025-11-17_16h00.28.058,MST_test,2024.2.0,59.8444403617911,2025-11-17 16h00.33.919332 +0530,
126,0,127,n,0.8100280999997267,None,127,0,126,343.89486080000006,,,,,,,,,,,,,,,,,,,,,,,,,,,,,,,,,,,,,,,,,,,,,,,,,,343.8806928999993,343.89486080000006,344.4066378999996,344.3794134,344.40336109999953,344.4066378999996,344.4066378999996,344.4066378999996,345.23043509999934,Scenes\120b.jpg,pre,n,0.8100280999997267,None,,,,,,,,00014,001,2025-11-17_16h00.28.058,MST_test,2024.2.0,59.8444403617911,2025-11-17 16h00.33.919332 +0530,
127,0,128,o,1.1905937999999878,None,128,0,127,345.2449745999993,,,,,,,,,,,,,,,,,,,,,,,,,,,,,,,,,,,,,,,,,,,,,,,,,,345.230826,345.2449745999993,345.7457652999992,345.7293590999998,345.7372433999999,345.7457652999992,345.7457652999992,345.7457652999992,346.94726679999985,Objects\083a.jpg,pre,o,1.1905937999999878,None,,,,,,,,00014,001,2025-11-17_16h00.28.058,MST_test,2024.2.0,59.8444403617911,2025-11-17 16h00.33.919332 +0530,
128,0,129,n,1.3279191999999966,None,129,0,128,346.9616237,,,,,,,,,,,,,,,,,,,,,,,,,,,,,,,,,,,,,,,,,,,,,,,,,,346.94764249999935,346.9616237,347.4647783999999,347.44619989999956,347.4620159999995,347.4647783999999,347.4647783999999,347.4647783999999,348.79773750000004,Scenes\190a.jpg,pre,n,1.3279191999999966,None,,,,,,,,00014,001,2025-11-17_16h00.28.058,MST_test,2024.2.0,59.8444403617911,2025-11-17 16h00.33.919332 +0530,
129,0,130,n,1.0570164999999179,None,130,0,129,348.81157319999966,,,,,,,,,,,,,,,,,,,,,,,,,,,,,,,,,,,,,,,,,,,,,,,,,,348.7980755999997,348.81157319999966,349.3122786999993,349.2961456999992,349.3056154999995,349.3122786999993,349.3122786999993,349.3122786999993,350.38014509999994,Foils\scenes14.jpg,none,n,1.0570164999999179,None,,,,,,,,00014,001,2025-11-17_16h00.28.058,MST_test,2024.2.0,59.8444403617911,2025-11-17 16h00.33.919332 +0530,
130,0,131,o,1.369175300000279,None,131,0,130,350.39487649999955,,,,,,,,,,,,,,,,,,,,,,,,,,,,,,,,,,,,,,,,,,,,,,,,,,350.38047259999985,350.39487649999955,350.90361119999943,350.8795516,350.90096279999943,350.90361119999943,350.90361119999943,350.90361119999943,352.2806043999999,Scenes\154b.jpg,mid,o,1.369175300000279,None,,,,,,,,00014,001,2025-11-17_16h00.28.058,MST_test,2024.2.0,59.8444403617911,2025-11-17 16h00.33.919332 +0530,
131,0,132,s,1.1867010999994818,None,132,0,131,352.2949921999998,,,,,,,,,,,,,,,,,,,,,,,,,,,,,,,,,,,,,,,,,,,,,,,,,,352.28102129999934,352.2949921999998,352.7975031999995,352.7796924999993,352.79461209999954,352.7975031999995,352.7975031999995,352.7975031999995,353.9972742,Foils\scenes19.jpg,none,s,1.1867010999994818,None,,,,,,,,00014,001,2025-11-17_16h00.28.058,MST_test,2024.2.0,59.8444403617911,2025-11-17 16h00.33.919332 +0530,
132,0,133,o,1.7048235000002023,None,133,0,132,354.0116387999997,,,,,,,,,,,,,,,,,,,,,,,,,,,,,,,,,,,,,,,,,,,,,,,,,,353.9976394999994,354.0116387999997,354.51196849999997,354.4963525999992,354.5034364999992,354.51196849999997,354.51196849999997,354.51196849999997,356.23038629999974,Objects\148a.jpg,mid,o,1.7048235000002023,None,,,,,,,,00014,001,2025-11-17_16h00.28.058,MST_test,2024.2.0,59.8444403617911,2025-11-17 16h00.33.919332 +0530,
133,0,134,o,0.8786970999999539,None,134,0,133,356.2449640999994,,,,,,,,,,,,,,,,,,,,,,,,,,,,,,,,,,,,,,,,,,,,,,,,,,356.23069399999986,356.2449640999994,356.7453225999998,356.72943570000007,356.7369235999995,356.7453225999998,356.7453225999998,356.7453225999998,357.63046249999934,Objects\160a.jpg,mid,o,0.8786970999999539,None,,,,,,,,00014,001,2025-11-17_16h00.28.058,MST_test,2024.2.0,59.8444403617911,2025-11-17 16h00.33.919332 +0530,
134,0,135,n,1.0474787999992259,None,135,0,134,357.64499109999997,,,,,,,,,,,,,,,,,,,,,,,,,,,,,,,,,,,,,,,,,,,,,,,,,,357.63086399999975,357.64499109999997,358.17695789999925,358.1293664999994,358.1731315999996,358.17695789999925,358.17695789999925,358.17695789999925,359.23003900000003,Foils\scenes28.jpg,none,n,1.0474787999992259,None,,,,,,,,00014,001,2025-11-17_16h00.28.058,MST_test,2024.2.0,59.8444403617911,2025-11-17 16h00.33.919332 +0530,
135,0,136,o,0.8200120999999854,None,136,0,135,359.24473409999973,,,,,,,,,,,,,,,,,,,,,,,,,,,,,,,,,,,,,,,,,,,,,,,,,,359.2302651,359.24473409999973,359.74839669999983,359.72976239999934,359.7448491999994,359.74839669999983,359.74839669999983,359.74839669999983,360.5808266999993,Objects\066b.jpg,post,o,0.8200120999999854,None,,,,,,,,00014,001,2025-11-17_16h00.28.058,MST_test,2024.2.0,59.8444403617911,2025-11-17 16h00.33.919332 +0530,
136,0,137,n,1.2214469999998983,None,137,0,136,360.5949006999999,,,,,,,,,,,,,,,,,,,,,,,,,,,,,,,,,,,,,,,,,,,,,,,,,,360.5812100999992,360.5949006999999,361.0991469999999,361.0792357,361.09626599999956,361.0991469999999,361.0991469999999,361.0991469999999,362.33086449999973,Foils\scenes20.jpg,none,n,1.2214469999998983,None,,,,,,,,00014,001,2025-11-17_16h00.28.058,MST_test,2024.2.0,59.8444403617911,2025-11-17 16h00.33.919332 +0530,
137,0,138,n,0.7762955999996848,None,138,0,137,362.3448404999999,,,,,,,,,,,,,,,,,,,,,,,,,,,,,,,,,,,,,,,,,,,,,,,,,,362.33122099999946,362.3448404999999,362.8486516999992,362.82949329999974,362.8460613999996,362.8486516999992,362.8486516999992,362.8486516999992,363.63083000000006,Foils\081a.jpg,none,n,0.7762955999996848,None,,,,,,,,00014,001,2025-11-17_16h00.28.058,MST_test,2024.2.0,59.8444403617911,2025-11-17 16h00.33.919332 +0530,
138,0,139,o,1.0854355000001306,None,139,0,138,363.64484319999974,,,,,,,,,,,,,,,,,,,,,,,,,,,,,,,,,,,,,,,,,,,,,,,,,,363.6311692999998,363.64484319999974,364.1472903999993,364.12961859999996,364.1446380999996,364.1472903999993,364.1472903999993,364.1472903999993,365.24722589999965,Scenes\127a.jpg,mid,o,1.0854355000001306,None,,,,,,,,00014,001,2025-11-17_16h00.28.058,MST_test,2024.2.0,59.8444403617911,2025-11-17 16h00.33.919332 +0530,
139,0,140,n,1.3340023000000656,None,140,0,139,365.2615502999997,,,,,,,,,,,,,,,,,,,,,,,,,,,,,,,,,,,,,,,,,,,,,,,,,,365.2475595999995,365.2615502999997,365.7623509999994,365.7462453999997,365.7591199999997,365.7623509999994,365.7623509999994,365.7623509999994,367.11383549999937,Objects\121b.jpg,mid,n,1.3340023000000656,None,,,,,,,,00014,001,2025-11-17_16h00.28.058,MST_test,2024.2.0,59.8444403617911,2025-11-17 16h00.33.919332 +0530,
140,0,141,s,1.3421906000003219,None,141,0,140,367.1283248999998,,,,,,,,,,,,,,,,,,,,,,,,,,,,,,,,,,,,,,,,,,,,,,,,,,367.11414309999964,367.1283248999998,367.63500529999965,367.61275489999935,367.6319380999994,367.63500529999965,367.63500529999965,367.63500529999965,368.9803146999993,Scenes\074b.jpg,post,s,1.3421906000003219,None,,,,,,,,00014,001,2025-11-17_16h00.28.058,MST_test,2024.2.0,59.8444403617911,2025-11-17 16h00.33.919332 +0530,
141,0,142,n,1.2865517000000182,None,142,0,141,368.99469839999983,,,,,,,,,,,,,,,,,,,,,,,,,,,,,,,,,,,,,,,,,,,,,,,,,,368.98058049999963,368.99469839999983,369.49778119999974,369.47939919999953,369.4948390999998,369.49778119999974,369.49778119999974,369.49778119999974,370.7972884999999,Objects\023b.jpg,post,n,1.2865517000000182,None,,,,,,,,00014,001,2025-11-17_16h00.28.058,MST_test,2024.2.0,59.8444403617911,2025-11-17 16h00.33.919332 +0530,
142,0,143,n,0.7996345000001384,None,143,0,142,370.81164759999956,,,,,,,,,,,,,,,,,,,,,,,,,,,,,,,,,,,,,,,,,,,,,,,,,,370.7976689999996,370.81164759999956,371.3141358999992,371.29590539999936,371.31169469999986,371.3141358999992,371.3141358999992,371.3141358999992,372.13028979999945,Foils\018a.jpg,none,n,0.7996345000001384,None,,,,,,,,00014,001,2025-11-17_16h00.28.058,MST_test,2024.2.0,59.8444403617911,2025-11-17 16h00.33.919332 +0530,
143,0,144,n,0.6363993000004484,None,144,0,143,372.14493199999924,,,,,,,,,,,,,,,,,,,,,,,,,,,,,,,,,,,,,,,,,,,,,,,,,,372.13069319999977,372.14493199999924,372.6517395000001,372.62940829999934,372.64887929999986,372.6517395000001,372.6517395000001,372.6517395000001,373.2967962999992,Scenes\112b.jpg,pre,n,0.6363993000004484,None,,,,,,,,00014,001,2025-11-17_16h00.28.058,MST_test,2024.2.0,59.8444403617911,2025-11-17 16h00.33.919332 +0530,
144,0,145,o,1.1879515999999057,None,145,0,144,373.31160439999985,,,,,,,,,,,,,,,,,,,,,,,,,,,,,,,,,,,,,,,,,,,,,,,,,,373.2971257999998,373.31160439999985,373.81218739999986,373.7958187999993,373.8030939999999,373.81218739999986,373.81218739999986,373.81218739999986,375.01395649999995,Objects\186a.jpg,post,o,1.1879515999999057,None,,,,,,,,00014,001,2025-11-17_16h00.28.058,MST_test,2024.2.0,59.8444403617911,2025-11-17 16h00.33.919332 +0530,
145,0,146,s,2.4687364999999772,None,146,0,145,375.0284194999995,,,,,,,,,,,,,,,,,,,,,,,,,,,,,,,,,,,,,,,,,,,,,,,,,,375.0143857999992,375.0284194999995,375.5319073999999,375.5127391999995,375.5294867999992,375.5319073999999,375.5319073999999,375.5319073999999,378.0139554999996,Objects\126b.jpg,pre,s,2.4687364999999772,None,,,,,,,,00014,001,2025-11-17_16h00.28.058,MST_test,2024.2.0,59.8444403617911,2025-11-17 16h00.33.919332 +0530,
146,0,147,n,1.2530980000001364,None,147,0,146,378.02825649999977,,,,,,,,,,,,,,,,,,,,,,,,,,,,,,,,,,,,,,,,,,,,,,,,,,378.0143229999994,378.02825649999977,378.5313862999992,378.51306999999997,378.5288895999993,378.5313862999992,378.5313862999992,378.5313862999992,379.79659639999954,Foils\033a.jpg,none,n,1.2530980000001364,None,,,,,,,,00014,001,2025-11-17_16h00.28.058,MST_test,2024.2.0,59.8444403617911,2025-11-17 16h00.33.919332 +0530,
147,0,148,n,0.582541200000378,None,148,0,147,379.81164569999964,,,,,,,,,,,,,,,,,,,,,,,,,,,,,,,,,,,,,,,,,,,,,,,,,,379.7969525999997,379.81164569999964,380.31479259999924,380.29623099999935,380.3119893999992,380.31479259999924,380.31479259999924,380.31479259999924,380.91376239999954,Foils\scenes3.jpg,none,n,0.582541200000378,None,,,,,,,,00014,001,2025-11-17_16h00.28.058,MST_test,2024.2.0,59.8444403617911,2025-11-17 16h00.33.919332 +0530,
148,0,149,o,1.1047125999994023,None,149,0,148,380.9283386999996,,,,,,,,,,,,,,,,,,,,,,,,,,,,,,,,,,,,,,,,,,,,,,,,,,380.91407849999996,380.9283386999996,381.4395990999992,381.4129229,381.4369274999999,381.4395990999992,381.4395990999992,381.4395990999992,382.5473333,Scenes\029b.jpg,pre,o,1.1047125999994023,None,,,,,,,,00014,001,2025-11-17_16h00.28.058,MST_test,2024.2.0,59.8444403617911,2025-11-17 16h00.33.919332 +0530,
149,0,150,n,0.9342527999997401,None,150,0,149,382.56170529999963,,,,,,,,,,,,,,,,,,,,,,,,,,,,,,,,,,,,,,,,,,,,,,,,,,382.54767059999995,382.56170529999963,383.0743230999997,383.04584149999937,383.07113859999936,383.0743230999997,383.0743230999997,383.0743230999997,384.0144016999993,Scenes\114b.jpg,mid,n,0.9342527999997401,None,,,,,,,,00014,001,2025-11-17_16h00.28.058,MST_test,2024.2.0,59.8444403617911,2025-11-17 16h00.33.919332 +0530,
,,,,,,,,,,,,,,,,,,,,,,,,,,,,,,,,,,,,,,,,,,,,,,,,,,,,,,,,,,,,,,,,,,,,,,,,,384.01468189999923,384.0283684999995,384.0283684999995,385.66395379999994,space,1.6281582999999955,None,00014,001,2025-11-17_16h00.28.058,MST_test,2024.2.0,59.8444403617911,2025-11-17 16h00.33.919332 +0530,
