thisN,thisTrialN,thisRepN,key_resp_3.keys,key_resp_3.rt,key_resp_3.duration,trials.thisRepN,trials.thisTrialN,trials.thisN,thisRow.t,notes,intro_page.started,text.started,key_resp.started,intro_page.stopped,key_resp.keys,key_resp.rt,key_resp.duration,instructions.started,text_2.started,key_resp_2.started,instructions.stopped,key_resp_2.keys,key_resp_2.rt,key_resp_2.duration,demo1.started,image_1.started,image_2.started,text_7.started,key_resp_6.started,text_9.started,demo1.stopped,key_resp_6.keys,key_resp_6.rt,key_resp_6.duration,demo2.started,image_5.started,image_6.started,text_11.started,text_12.started,key_resp_8.started,demo2.stopped,key_resp_8.keys,key_resp_8.rt,key_resp_8.duration,demo_conclusion.started,text_13.started,key_resp_9.started,demo_conclusion.stopped,key_resp_9.keys,key_resp_9.rt,key_resp_9.duration,start_test.started,text_6.started,key_resp_5.started,start_test.stopped,key_resp_5.keys,key_resp_5.rt,key_resp_5.duration,ISI.started,text_4.started,text_4.stopped,ISI.stopped,routine_1.started,image.started,text_3.started,key_resp_3.started,routine_1.stopped,image_path,position_of_stimuli,trials.key_resp_3.keys,trials.key_resp_3.rt,trials.key_resp_3.duration,End_page.started,text_5.started,key_resp_4.started,End_page.stopped,key_resp_4.keys,key_resp_4.rt,key_resp_4.duration,participant,session,date,expName,psychopyVersion,frameRate,expStart,
,,,,,,,,,,,0.001495499993325211,0.0034761999995680526,0.0034761999995680526,3.130366099998355,space,3.1181131999910576,None,,,,,,,,,,,,,,,,,,,,,,,,,,,,,,,,,,,,,,,,,,,,,,,,,,,,,,,,,,,,,,,00018,001,2026-01-20_15h46.27.618,MST_test,2024.2.0,59.79194794250772,2026-01-20 15h46.43.031323 +0530,
,,,,,,,,,,,,,,,,,,3.1304836999916006,3.142155699999421,3.142155699999421,11.389492899994366,space,8.234583900004509,None,,,,,,,,,,,,,,,,,,,,,,,,,,,,,,,,,,,,,,,,,,,,,,,,,,,,,,,,00018,001,2026-01-20_15h46.27.618,MST_test,2024.2.0,59.79194794250772,2026-01-20 15h46.43.031323 +0530,
,,,,,,,,,,,,,,,,,,,,,,,,,11.389577399997506,11.425328700002865,11.425328700002865,11.425328700002865,11.425328700002865,11.425328700002865,15.907144500000868,space,4.4794526000041515,None,,,,,,,,,,,,,,,,,,,,,,,,,,,,,,,,,,,,,,,,,,,,,,00018,001,2026-01-20_15h46.27.618,MST_test,2024.2.0,59.79194794250772,2026-01-20 15h46.43.031323 +0530,
,,,,,,,,,,,,,,,,,,,,,,,,,,,,,,,,,,,15.90725950000342,15.92155109999294,15.92155109999294,15.92155109999294,15.92155109999294,15.92155109999294,18.456674200002453,space,2.5267658999946434,None,,,,,,,,,,,,,,,,,,,,,,,,,,,,,,,,,,,,00018,001,2026-01-20_15h46.27.618,MST_test,2024.2.0,59.79194794250772,2026-01-20 15h46.43.031323 +0530,
,,,,,,,,,,,,,,,,,,,,,,,,,,,,,,,,,,,,,,,,,,,,,18.456784099995275,18.471049400002812,18.471049400002812,30.072822699992685,space,11.585615400006645,None,,,,,,,,,,,,,,,,,,,,,,,,,,,,,00018,001,2026-01-20_15h46.27.618,MST_test,2024.2.0,59.79194794250772,2026-01-20 15h46.43.031323 +0530,
,,,,,,,,,,,,,,,,,,,,,,,,,,,,,,,,,,,,,,,,,,,,,,,,,,,,30.07291560000158,30.087822899993625,30.087822899993625,73.10714690000168,space,43.01717880000069,None,,,,,,,,,,,,,,,,,,,,,,00018,001,2026-01-20_15h46.27.618,MST_test,2024.2.0,59.79194794250772,2026-01-20 15h46.43.031323 +0530,
0,0,1,o,2.0170882000093115,None,1,0,0,73.1211248000036,,,,,,,,,,,,,,,,,,,,,,,,,,,,,,,,,,,,,,,,,,,,,,,,,,73.11360559999594,73.1211248000036,73.6554260999983,73.60565650000353,73.65196099999594,73.6554260999983,73.6554260999983,73.6554260999983,75.6897292999929,Objects\086b.jpg,pre,o,2.0170882000093115,None,,,,,,,,00018,001,2026-01-20_15h46.27.618,MST_test,2024.2.0,59.79194794250772,2026-01-20 15h46.43.031323 +0530,
1,0,2,o,1.075274000002537,None,2,0,1,75.704882799997,,,,,,,,,,,,,,,,,,,,,,,,,,,,,,,,,,,,,,,,,,,,,,,,,,75.69001419999404,75.704882799997,76.20498799999768,76.18861929999548,76.19402419999824,76.20498799999768,76.20498799999768,76.20498799999768,77.29004999999597,Objects\013a.jpg,mid,o,1.075274000002537,None,,,,,,,,00018,001,2026-01-20_15h46.27.618,MST_test,2024.2.0,59.79194794250772,2026-01-20 15h46.43.031323 +0530,
2,0,3,o,1.5391573999950197,None,3,0,2,77.30445369999507,,,,,,,,,,,,,,,,,,,,,,,,,,,,,,,,,,,,,,,,,,,,,,,,,,77.29028619999008,77.30445369999507,77.86897499999031,77.78835719999915,77.8664667999983,77.86897499999031,77.86897499999031,77.86897499999031,79.42328899999848,Objects\046b.jpg,mid,o,1.5391573999950197,None,,,,,,,,00018,001,2026-01-20_15h46.27.618,MST_test,2024.2.0,59.79194794250772,2026-01-20 15h46.43.031323 +0530,
3,0,4,s,2.0694829000130994,None,4,0,3,79.43788139999378,,,,,,,,,,,,,,,,,,,,,,,,,,,,,,,,,,,,,,,,,,,,,,,,,,79.42362099999445,79.43788139999378,79.95558259999962,79.92212010000367,79.95239510000101,79.95558259999962,79.95558259999962,79.95558259999962,82.0395858999982,Objects\028b.jpg,mid,s,2.0694829000130994,None,,,,,,,,00018,001,2026-01-20_15h46.27.618,MST_test,2024.2.0,59.79194794250772,2026-01-20 15h46.43.031323 +0530,
4,0,5,o,1.324340300008771,None,5,0,4,82.05446649999067,,,,,,,,,,,,,,,,,,,,,,,,,,,,,,,,,,,,,,,,,,,,,,,,,,82.03993369999807,82.05446649999067,82.57983999999124,82.53859889999148,82.57653269999719,82.57983999999124,82.57983999999124,82.57983999999124,83.9068927999906,Scenes\015b.jpg,post,o,1.324340300008771,None,,,,,,,,00018,001,2026-01-20_15h46.27.618,MST_test,2024.2.0,59.79194794250772,2026-01-20 15h46.43.031323 +0530,
5,0,6,o,0.8908101999986684,None,6,0,5,83.92113319999771,,,,,,,,,,,,,,,,,,,,,,,,,,,,,,,,,,,,,,,,,,,,,,,,,,83.907134699999,83.92113319999771,84.44715829999768,84.40542819999973,84.44106759999704,84.44715829999768,84.44715829999768,84.44715829999768,85.33993269999337,Objects\151b.jpg,pre,o,0.8908101999986684,None,,,,,,,,00018,001,2026-01-20_15h46.27.618,MST_test,2024.2.0,59.79194794250772,2026-01-20 15h46.43.031323 +0530,
6,0,7,s,1.390659600001527,None,7,0,6,85.3544358999934,,,,,,,,,,,,,,,,,,,,,,,,,,,,,,,,,,,,,,,,,,,,,,,,,,85.34018469999137,85.3544358999934,85.8973430999904,85.83889259998978,85.8944588000013,85.8973430999904,85.8973430999904,85.8973430999904,87.28980149999552,Scenes\129b.jpg,pre,s,1.390659600001527,None,,,,,,,,00018,001,2026-01-20_15h46.27.618,MST_test,2024.2.0,59.79194794250772,2026-01-20 15h46.43.031323 +0530,
7,0,8,o,1.4743588999990607,None,8,0,7,87.30435049999505,,,,,,,,,,,,,,,,,,,,,,,,,,,,,,,,,,,,,,,,,,,,,,,,,,87.29009860000224,87.30435049999505,87.82268699999258,87.78889640000125,87.81909129999985,87.82268699999258,87.82268699999258,87.82268699999258,89.30612490000203,Scenes\033b.jpg,mid,o,1.4743588999990607,None,,,,,,,,00018,001,2026-01-20_15h46.27.618,MST_test,2024.2.0,59.79194794250772,2026-01-20 15h46.43.031323 +0530,
8,0,9,n,1.530945899998187,None,9,0,8,89.32116179999139,,,,,,,,,,,,,,,,,,,,,,,,,,,,,,,,,,,,,,,,,,,,,,,,,,89.30646729998989,89.32116179999139,89.83833250000316,89.806027300001,89.83556720000342,89.83833250000316,89.83833250000316,89.83833250000316,91.37380149999808,Foils\097a.jpg,none,n,1.530945899998187,None,,,,,,,,00018,001,2026-01-20_15h46.27.618,MST_test,2024.2.0,59.79194794250772,2026-01-20 15h46.43.031323 +0530,
9,0,10,o,1.0073513999959687,None,10,0,9,91.38794639999105,,,,,,,,,,,,,,,,,,,,,,,,,,,,,,,,,,,,,,,,,,,,,,,,,,91.37411279999651,91.38794639999105,91.88911180000287,91.87220699999307,91.88598079999792,91.88911180000287,91.88911180000287,91.88911180000287,92.90654199999699,Scenes\075a.jpg,pre,o,1.0073513999959687,None,,,,,,,,00018,001,2026-01-20_15h46.27.618,MST_test,2024.2.0,59.79194794250772,2026-01-20 15h46.43.031323 +0530,
10,0,11,o,0.8900295000057667,None,11,0,10,92.92142849999072,,,,,,,,,,,,,,,,,,,,,,,,,,,,,,,,,,,,,,,,,,,,,,,,,,92.90686529999948,92.92142849999072,93.42214389999572,93.40580700000282,93.41184649999195,93.42214389999572,93.42214389999572,93.42214389999572,94.32300839999516,Objects\018a.jpg,mid,o,0.8900295000057667,None,,,,,,,,00018,001,2026-01-20_15h46.27.618,MST_test,2024.2.0,59.79194794250772,2026-01-20 15h46.43.031323 +0530,
11,0,12,n,1.4358522999973502,None,12,0,11,94.33765809999022,,,,,,,,,,,,,,,,,,,,,,,,,,,,,,,,,,,,,,,,,,,,,,,,,,94.32339639999554,94.33765809999022,94.86945739999646,94.82229869998991,94.86565500000142,94.86945739999646,94.86945739999646,94.86945739999646,96.30717699999514,Scenes\117b.jpg,mid,n,1.4358522999973502,None,,,,,,,,00018,001,2026-01-20_15h46.27.618,MST_test,2024.2.0,59.79194794250772,2026-01-20 15h46.43.031323 +0530,
12,0,13,o,0.7987367000023369,None,13,0,12,96.32144600000174,,,,,,,,,,,,,,,,,,,,,,,,,,,,,,,,,,,,,,,,,,,,,,,,,,96.30747379999957,96.32144600000174,96.85051530000055,96.8060020999983,96.84690279999631,96.85051530000055,96.85051530000055,96.85051530000055,97.65626259999408,Scenes\041b.jpg,post,o,0.7987367000023369,None,,,,,,,,00018,001,2026-01-20_15h46.27.618,MST_test,2024.2.0,59.79194794250772,2026-01-20 15h46.43.031323 +0530,
13,0,14,n,1.3015306999877794,None,14,0,13,97.67132320000383,,,,,,,,,,,,,,,,,,,,,,,,,,,,,,,,,,,,,,,,,,,,,,,,,,97.65651459999208,97.67132320000383,98.20311599998968,98.15562130000035,98.19964920000348,98.20311599998968,98.20311599998968,98.20311599998968,99.50701750000007,Foils\scenes20.jpg,none,n,1.3015306999877794,None,,,,,,,,00018,001,2026-01-20_15h46.27.618,MST_test,2024.2.0,59.79194794250772,2026-01-20 15h46.43.031323 +0530,
14,0,15,o,1.8766424000059487,None,15,0,14,99.521038699997,,,,,,,,,,,,,,,,,,,,,,,,,,,,,,,,,,,,,,,,,,,,,,,,,,99.5073992999969,99.521038699997,100.02131549999467,100.00568879999628,100.01481500000227,100.02131549999467,100.02131549999467,100.02131549999467,101.90653259999817,Objects\085a.jpg,pre,o,1.8766424000059487,None,,,,,,,,00018,001,2026-01-20_15h46.27.618,MST_test,2024.2.0,59.79194794250772,2026-01-20 15h46.43.031323 +0530,
15,0,16,s,2.3002757000067504,None,16,0,15,101.92138629998954,,,,,,,,,,,,,,,,,,,,,,,,,,,,,,,,,,,,,,,,,,,,,,,,,,101.90680810000049,101.92138629998954,102.43770419999782,102.40564919999451,102.43453279999085,102.43770419999782,102.43770419999782,102.43770419999782,104.74016539999866,Foils\scenes2.jpg,none,s,2.3002757000067504,None,,,,,,,,00018,001,2026-01-20_15h46.27.618,MST_test,2024.2.0,59.79194794250772,2026-01-20 15h46.43.031323 +0530,
16,0,17,o,2.131427200001781,None,17,0,16,104.75485359999584,,,,,,,,,,,,,,,,,,,,,,,,,,,,,,,,,,,,,,,,,,,,,,,,,,104.74046119999548,104.75485359999584,105.26060080000025,105.23876700000255,105.25806239999656,105.26060080000025,105.26060080000025,105.26060080000025,107.40679629999795,Scenes\125a.jpg,pre,o,2.131427200001781,None,,,,,,,,00018,001,2026-01-20_15h46.27.618,MST_test,2024.2.0,59.79194794250772,2026-01-20 15h46.43.031323 +0530,
17,0,18,s,1.7868375000107335,None,18,0,17,107.42118399999163,,,,,,,,,,,,,,,,,,,,,,,,,,,,,,,,,,,,,,,,,,,,,,,,,,107.4071976999985,107.42118399999163,107.93447310000192,107.90576519999013,107.9313439999969,107.93447310000192,107.93447310000192,107.93447310000192,109.72366659999534,Objects\029b.jpg,post,s,1.7868375000107335,None,,,,,,,,00018,001,2026-01-20_15h46.27.618,MST_test,2024.2.0,59.79194794250772,2026-01-20 15h46.43.031323 +0530,
18,0,19,o,1.8710851000068942,None,19,0,18,109.73800289999053,,,,,,,,,,,,,,,,,,,,,,,,,,,,,,,,,,,,,,,,,,,,,,,,,,109.72401969999191,109.73800289999053,110.32100169999467,110.22246649999579,110.318417699993,110.32100169999467,110.32100169999467,110.32100169999467,112.20669989999442,Objects\099b.jpg,pre,o,1.8710851000068942,None,,,,,,,,00018,001,2026-01-20_15h46.27.618,MST_test,2024.2.0,59.79194794250772,2026-01-20 15h46.43.031323 +0530,
19,0,20,o,0.7915299999876879,None,20,0,19,112.22103190000053,,,,,,,,,,,,,,,,,,,,,,,,,,,,,,,,,,,,,,,,,,,,,,,,,,112.20710139999574,112.22103190000053,112.72115289999056,112.70521449999069,112.71268640000199,112.72115289999056,112.72115289999056,112.72115289999056,113.52231249999022,Objects\161a.jpg,post,o,0.7915299999876879,None,,,,,,,,00018,001,2026-01-20_15h46.27.618,MST_test,2024.2.0,59.79194794250772,2026-01-20 15h46.43.031323 +0530,
20,0,21,n,1.3879440999880899,None,21,0,20,113.53751029999694,,,,,,,,,,,,,,,,,,,,,,,,,,,,,,,,,,,,,,,,,,,,,,,,,,113.52258979999169,113.53751029999694,114.05261679999239,114.02143280000018,114.05030029999034,114.05261679999239,114.05261679999239,114.05261679999239,115.45535540000128,Foils\106a.jpg,none,n,1.3879440999880899,None,,,,,,,,00018,001,2026-01-20_15h46.27.618,MST_test,2024.2.0,59.79194794250772,2026-01-20 15h46.43.031323 +0530,
21,0,22,n,1.4421284999989439,None,22,0,21,115.47073410000303,,,,,,,,,,,,,,,,,,,,,,,,,,,,,,,,,,,,,,,,,,,,,,,,,,115.45563640000182,115.47073410000303,,115.95555359999707,115.98712089999754,115.99096049999935,115.99096049999935,115.99096049999935,117.4399923000019,Foils\scenes6.jpg,none,n,1.4421284999989439,None,,,,,,,,00018,001,2026-01-20_15h46.27.618,MST_test,2024.2.0,59.79194794250772,2026-01-20 15h46.43.031323 +0530,
22,0,23,n,1.5324109000066528,None,23,0,22,117.45472969999537,,,,,,,,,,,,,,,,,,,,,,,,,,,,,,,,,,,,,,,,,,,,,,,,,,117.44026390000363,117.45472969999537,117.98150719999103,117.9395075999928,117.97872369999823,117.98150719999103,117.98150719999103,117.98150719999103,119.52303319999191,Scenes\119b.jpg,pre,n,1.5324109000066528,None,,,,,,,,00018,001,2026-01-20_15h46.27.618,MST_test,2024.2.0,59.79194794250772,2026-01-20 15h46.43.031323 +0530,
23,0,24,s,1.5112018999934662,None,24,0,23,119.5379161000019,,,,,,,,,,,,,,,,,,,,,,,,,,,,,,,,,,,,,,,,,,,,,,,,,,119.52328399999533,119.5379161000019,120.09006370000134,120.02248529999633,120.08649909999804,120.09006370000134,120.09006370000134,120.09006370000134,121.6068862999964,Foils\066a.jpg,none,s,1.5112018999934662,None,,,,,,,,00018,001,2026-01-20_15h46.27.618,MST_test,2024.2.0,59.79194794250772,2026-01-20 15h46.43.031323 +0530,
24,0,25,s,2.906275100001949,None,25,0,24,121.62135039998975,,,,,,,,,,,,,,,,,,,,,,,,,,,,,,,,,,,,,,,,,,,,,,,,,,121.60717269999441,121.62135039998975,122.15946739999345,122.10559849999845,122.15634899999714,122.15946739999345,122.15946739999345,122.15946739999345,125.07311810000101,Foils\scenes23.jpg,none,s,2.906275100001949,None,,,,,,,,00018,001,2026-01-20_15h46.27.618,MST_test,2024.2.0,59.79194794250772,2026-01-20 15h46.43.031323 +0530,
25,0,26,n,1.6057933999982197,None,26,0,25,125.08804000000237,,,,,,,,,,,,,,,,,,,,,,,,,,,,,,,,,,,,,,,,,,,,,,,,,,125.07336979999673,125.08804000000237,125.61877119999554,125.5722087000031,125.61615309999615,125.61877119999554,125.61877119999554,125.61877119999554,127.2400714999967,Scenes\093b.jpg,post,n,1.6057933999982197,None,,,,,,,,00018,001,2026-01-20_15h46.27.618,MST_test,2024.2.0,59.79194794250772,2026-01-20 15h46.43.031323 +0530,
26,0,27,n,1.5722652999975253,None,27,0,26,127.2543275999924,,,,,,,,,,,,,,,,,,,,,,,,,,,,,,,,,,,,,,,,,,,,,,,,,,127.24034969999047,127.2543275999924,127.7810759999993,127.73893359999056,127.77807570000004,127.7810759999993,127.7810759999993,127.7810759999993,129.35667229999672,Scenes\174b.jpg,post,n,1.5722652999975253,None,,,,,,,,00018,001,2026-01-20_15h46.27.618,MST_test,2024.2.0,59.79194794250772,2026-01-20 15h46.43.031323 +0530,
27,0,28,n,1.3952971000107937,None,28,0,27,129.371103700003,,,,,,,,,,,,,,,,,,,,,,,,,,,,,,,,,,,,,,,,,,,,,,,,,,129.35709069999575,129.371103700003,129.89372369999182,129.85559510000166,129.89087639999343,129.89372369999182,129.89372369999182,129.89372369999182,131.306259399993,Foils\093b.jpg,none,n,1.3952971000107937,None,,,,,,,,00018,001,2026-01-20_15h46.27.618,MST_test,2024.2.0,59.79194794250772,2026-01-20 15h46.43.031323 +0530,
28,0,29,o,2.3745445999957155,None,29,0,28,131.32134759999462,,,,,,,,,,,,,,,,,,,,,,,,,,,,,,,,,,,,,,,,,,,,,,,,,,131.30668310000328,131.32134759999462,131.83403800000087,131.80560209999385,131.83111780000036,131.83403800000087,131.83403800000087,131.83403800000087,134.22255209999275,Objects\172b.jpg,mid,o,2.3745445999957155,None,,,,,,,,00018,001,2026-01-20_15h46.27.618,MST_test,2024.2.0,59.79194794250772,2026-01-20 15h46.43.031323 +0530,
29,0,30,o,1.3660229999950388,None,30,0,29,134.2378231999901,,,,,,,,,,,,,,,,,,,,,,,,,,,,,,,,,,,,,,,,,,,,,,,,,,134.22267339999962,134.2378231999901,134.73815489999834,134.72247900000366,134.72873139999865,134.73815489999834,134.73815489999834,134.73815489999834,136.10625389999768,Objects\098a.jpg,post,o,1.3660229999950388,None,,,,,,,,00018,001,2026-01-20_15h46.27.618,MST_test,2024.2.0,59.79194794250772,2026-01-20 15h46.43.031323 +0530,
30,0,31,o,2.201044899993576,None,31,0,30,136.12124389999371,,,,,,,,,,,,,,,,,,,,,,,,,,,,,,,,,,,,,,,,,,,,,,,,,,136.10651709999365,136.12124389999371,136.62352829999872,136.6053399999946,136.6197119999997,136.62352829999872,136.62352829999872,136.62352829999872,138.8399381999916,Scenes\169a.jpg,mid,o,2.201044899993576,None,,,,,,,,00018,001,2026-01-20_15h46.27.618,MST_test,2024.2.0,59.79194794250772,2026-01-20 15h46.43.031323 +0530,
31,0,32,s,1.5807683000020916,None,32,0,31,138.85445539999637,,,,,,,,,,,,,,,,,,,,,,,,,,,,,,,,,,,,,,,,,,,,,,,,,,138.8402589000034,138.85445539999637,139.37238010000146,139.3388840999978,139.36951370000315,139.37238010000146,139.37238010000146,139.37238010000146,140.95658349999576,Objects\021b.jpg,post,s,1.5807683000020916,None,,,,,,,,00018,001,2026-01-20_15h46.27.618,MST_test,2024.2.0,59.79194794250772,2026-01-20 15h46.43.031323 +0530,
32,0,33,s,0.8409837999934098,None,33,0,32,140.9713061999937,,,,,,,,,,,,,,,,,,,,,,,,,,,,,,,,,,,,,,,,,,,,,,,,,,140.95680659999198,140.9713061999937,141.4880123999901,141.45600219999324,141.48494609999761,141.4880123999901,141.4880123999901,141.4880123999901,142.33992159999616,Objects\159b.jpg,mid,s,0.8409837999934098,None,,,,,,,,00018,001,2026-01-20_15h46.27.618,MST_test,2024.2.0,59.79194794250772,2026-01-20 15h46.43.031323 +0530,
33,0,34,o,1.7580812999949558,None,34,0,33,142.35452379999333,,,,,,,,,,,,,,,,,,,,,,,,,,,,,,,,,,,,,,,,,,,,,,,,,,142.34018529999594,142.35452379999333,142.87526800000342,142.8393023999961,142.87176919999183,142.87526800000342,142.87526800000342,142.87526800000342,144.63958160000038,Foils\scenes11.jpg,none,o,1.7580812999949558,None,,,,,,,,00018,001,2026-01-20_15h46.27.618,MST_test,2024.2.0,59.79194794250772,2026-01-20 15h46.43.031323 +0530,
34,0,35,o,3.078597300002002,None,35,0,34,144.6543479999964,,,,,,,,,,,,,,,,,,,,,,,,,,,,,,,,,,,,,,,,,,,,,,,,,,144.63989029999357,144.6543479999964,145.15477909999026,145.1391003000026,145.14466019999236,145.15477909999026,145.15477909999026,145.15477909999026,148.23964869999327,Objects\109a.jpg,post,o,3.078597300002002,None,,,,,,,,00018,001,2026-01-20_15h46.27.618,MST_test,2024.2.0,59.79194794250772,2026-01-20 15h46.43.031323 +0530,
35,0,36,n,2.1932622000022093,None,36,0,35,148.25452669999504,,,,,,,,,,,,,,,,,,,,,,,,,,,,,,,,,,,,,,,,,,,,,,,,,,148.2398824999982,148.25452669999504,148.7673450000002,148.73889710000367,148.76416629999585,148.7673450000002,148.7673450000002,148.7673450000002,150.97310930000094,Foils\scenes7.jpg,none,n,2.1932622000022093,None,,,,,,,,00018,001,2026-01-20_15h46.27.618,MST_test,2024.2.0,59.79194794250772,2026-01-20 15h46.43.031323 +0530,
36,0,37,o,1.3720033999998122,None,37,0,36,150.98788539999805,,,,,,,,,,,,,,,,,,,,,,,,,,,,,,,,,,,,,,,,,,,,,,,,,,150.9734318999981,150.98788539999805,151.4920809000032,151.47239080000145,151.48827380000148,151.4920809000032,151.4920809000032,151.4920809000032,152.873543099995,Scenes\078a.jpg,mid,o,1.3720033999998122,None,,,,,,,,00018,001,2026-01-20_15h46.27.618,MST_test,2024.2.0,59.79194794250772,2026-01-20 15h46.43.031323 +0530,
37,0,38,o,1.836582100004307,None,38,0,37,152.8877261000016,,,,,,,,,,,,,,,,,,,,,,,,,,,,,,,,,,,,,,,,,,,,,,,,,,152.8738985999953,152.8877261000016,153.40348569999333,153.37239209999098,153.39984959999856,153.40348569999333,153.40348569999333,153.40348569999333,155.25625160000345,Objects\157b.jpg,post,o,1.836582100004307,None,,,,,,,,00018,001,2026-01-20_15h46.27.618,MST_test,2024.2.0,59.79194794250772,2026-01-20 15h46.43.031323 +0530,
38,0,39,n,1.4209692000003997,None,39,0,38,155.27116170000227,,,,,,,,,,,,,,,,,,,,,,,,,,,,,,,,,,,,,,,,,,,,,,,,,,155.25651449999714,155.27116170000227,155.81225799999083,155.75535910000326,155.80950699999812,155.81225799999083,155.81225799999083,155.81225799999083,157.23978750000242,Foils\065a.jpg,none,n,1.4209692000003997,None,,,,,,,,00018,001,2026-01-20_15h46.27.618,MST_test,2024.2.0,59.79194794250772,2026-01-20 15h46.43.031323 +0530,
39,0,40,o,2.5143438999948557,None,40,0,39,157.25443169999926,,,,,,,,,,,,,,,,,,,,,,,,,,,,,,,,,,,,,,,,,,,,,,,,,,157.24019450000196,157.25443169999926,157.7580295999942,157.73908459999075,157.7542173999973,157.7580295999942,157.7580295999942,157.7580295999942,160.28968309999618,Scenes\110a.jpg,mid,o,2.5143438999948557,None,,,,,,,,00018,001,2026-01-20_15h46.27.618,MST_test,2024.2.0,59.79194794250772,2026-01-20 15h46.43.031323 +0530,
40,0,41,s,1.3978245999896899,None,41,0,40,160.30456809999305,,,,,,,,,,,,,,,,,,,,,,,,,,,,,,,,,,,,,,,,,,,,,,,,,,160.29008869999961,160.30456809999305,160.81948969999212,160.78895349999948,160.81550440000137,160.81948969999212,160.81948969999212,160.81948969999212,162.22329899999022,Foils\scenes8.jpg,none,s,1.3978245999896899,None,,,,,,,,00018,001,2026-01-20_15h46.27.618,MST_test,2024.2.0,59.79194794250772,2026-01-20 15h46.43.031323 +0530,
41,0,42,o,1.957921900000656,None,42,0,41,162.2379818999907,,,,,,,,,,,,,,,,,,,,,,,,,,,,,,,,,,,,,,,,,,,,,,,,,,162.22364189999644,162.2379818999907,162.7383936999977,162.7222344000038,162.72932279999077,162.7383936999977,162.7383936999977,162.7383936999977,164.70630989999336,Scenes\022a.jpg,post,o,1.957921900000656,None,,,,,,,,00018,001,2026-01-20_15h46.27.618,MST_test,2024.2.0,59.79194794250772,2026-01-20 15h46.43.031323 +0530,
42,0,43,n,1.1628801000042586,None,43,0,42,164.72122569999192,,,,,,,,,,,,,,,,,,,,,,,,,,,,,,,,,,,,,,,,,,,,,,,,,,164.70672989999002,164.72122569999192,165.23873620000086,165.20548599999165,165.2353698999941,165.23873620000086,165.23873620000086,165.23873620000086,166.40657769999234,Foils\scenes30.jpg,none,n,1.1628801000042586,None,,,,,,,,00018,001,2026-01-20_15h46.27.618,MST_test,2024.2.0,59.79194794250772,2026-01-20 15h46.43.031323 +0530,
43,0,44,n,1.2146070000017062,None,44,0,43,166.4212286999973,,,,,,,,,,,,,,,,,,,,,,,,,,,,,,,,,,,,,,,,,,,,,,,,,,166.40697060000093,166.4212286999973,166.95464070000162,166.9056874999951,166.95149229999515,166.95464070000162,166.95464070000162,166.95464070000162,168.17304049999802,Foils\090a.jpg,none,n,1.2146070000017062,None,,,,,,,,00018,001,2026-01-20_15h46.27.618,MST_test,2024.2.0,59.79194794250772,2026-01-20 15h46.43.031323 +0530,
44,0,45,n,1.3259098999988055,None,45,0,44,168.18778849999944,,,,,,,,,,,,,,,,,,,,,,,,,,,,,,,,,,,,,,,,,,,,,,,,,,168.17327410000144,168.18778849999944,168.78688770000008,168.67194269999163,168.78285229999165,168.78688770000008,168.78688770000008,168.78688770000008,170.1230937999935,Foils\scenes12.jpg,none,n,1.3259098999988055,None,,,,,,,,00018,001,2026-01-20_15h46.27.618,MST_test,2024.2.0,59.79194794250772,2026-01-20 15h46.43.031323 +0530,
45,0,46,o,1.7787982000008924,None,46,0,45,170.13773859999492,,,,,,,,,,,,,,,,,,,,,,,,,,,,,,,,,,,,,,,,,,,,,,,,,,170.1233601999993,170.13773859999492,170.63830510000116,170.62195359999896,170.6275142999948,170.63830510000116,170.63830510000116,170.63830510000116,172.42296270000224,Objects\189a.jpg,mid,o,1.7787982000008924,None,,,,,,,,00018,001,2026-01-20_15h46.27.618,MST_test,2024.2.0,59.79194794250772,2026-01-20 15h46.43.031323 +0530,
46,0,47,s,1.0466178000060609,None,47,0,46,172.43783819999953,,,,,,,,,,,,,,,,,,,,,,,,,,,,,,,,,,,,,,,,,,,,,,,,,,172.42336289999366,172.43783819999953,172.9546904000017,172.92216400000325,172.95226959999127,172.9546904000017,172.9546904000017,172.9546904000017,174.00628449999203,Objects\154b.jpg,pre,s,1.0466178000060609,None,,,,,,,,00018,001,2026-01-20_15h46.27.618,MST_test,2024.2.0,59.79194794250772,2026-01-20 15h46.43.031323 +0530,
47,0,48,o,1.2315887000004295,None,48,0,47,174.02108639999642,,,,,,,,,,,,,,,,,,,,,,,,,,,,,,,,,,,,,,,,,,,,,,,,,,174.00660659999994,174.02108639999642,174.52141869999468,174.50549039999896,174.51041149999946,174.52141869999468,174.52141869999468,174.52141869999468,175.7562845999928,Objects\064a.jpg,mid,o,1.2315887000004295,None,,,,,,,,00018,001,2026-01-20_15h46.27.618,MST_test,2024.2.0,59.79194794250772,2026-01-20 15h46.43.031323 +0530,
48,0,49,s,2.3369233999983408,None,49,0,48,175.77126919999137,,,,,,,,,,,,,,,,,,,,,,,,,,,,,,,,,,,,,,,,,,,,,,,,,,175.75671619999048,175.77126919999137,176.27177150000352,176.25566119998985,176.26558969999314,176.27177150000352,176.27177150000352,176.27177150000352,178.62340409999888,Scenes\069a.jpg,mid,s,2.3369233999983408,None,,,,,,,,00018,001,2026-01-20_15h46.27.618,MST_test,2024.2.0,59.79194794250772,2026-01-20 15h46.43.031323 +0530,
49,0,50,o,1.749938100008876,None,50,0,49,178.63795279999613,,,,,,,,,,,,,,,,,,,,,,,,,,,,,,,,,,,,,,,,,,,,,,,,,,178.62361480000254,178.63795279999613,179.13871949999884,179.12291689999984,179.1309542999952,179.13871949999884,179.13871949999884,179.13871949999884,180.89076759999443,Scenes\113a.jpg,post,o,1.749938100008876,None,,,,,,,,00018,001,2026-01-20_15h46.27.618,MST_test,2024.2.0,59.79194794250772,2026-01-20 15h46.43.031323 +0530,
50,0,51,o,1.6085576000041328,None,51,0,50,180.90444699999352,,,,,,,,,,,,,,,,,,,,,,,,,,,,,,,,,,,,,,,,,,,,,,,,,,180.89103089999116,180.90444699999352,181.42460779999965,181.38928750000196,181.42157350000343,181.42460779999965,181.42460779999965,181.42460779999965,183.0402311999933,Objects\030b.jpg,post,o,1.6085576000041328,None,,,,,,,,00018,001,2026-01-20_15h46.27.618,MST_test,2024.2.0,59.79194794250772,2026-01-20 15h46.43.031323 +0530,
51,0,52,s,1.1392926999978954,None,52,0,51,183.05457759999263,,,,,,,,,,,,,,,,,,,,,,,,,,,,,,,,,,,,,,,,,,,,,,,,,,183.04045639999094,183.05457759999263,183.57397139999375,183.53907030000119,183.57110909999756,183.57397139999375,183.57397139999375,183.57397139999375,184.72298279999814,Scenes\139b.jpg,pre,s,1.1392926999978954,None,,,,,,,,00018,001,2026-01-20_15h46.27.618,MST_test,2024.2.0,59.79194794250772,2026-01-20 15h46.43.031323 +0530,
52,0,53,n,1.8488805999950273,None,53,0,52,184.7378275999945,,,,,,,,,,,,,,,,,,,,,,,,,,,,,,,,,,,,,,,,,,,,,,,,,,184.72331400000257,184.7378275999945,185.28826149999804,185.22221480000007,185.28397809999296,185.28826149999804,185.28826149999804,185.28826149999804,187.1402645999915,Scenes\168b.jpg,mid,n,1.8488805999950273,None,,,,,,,,00018,001,2026-01-20_15h46.27.618,MST_test,2024.2.0,59.79194794250772,2026-01-20 15h46.43.031323 +0530,
53,0,54,o,1.3528143000003183,None,54,0,53,187.1546934999933,,,,,,,,,,,,,,,,,,,,,,,,,,,,,,,,,,,,,,,,,,,,,,,,,,187.14066989999264,187.1546934999933,187.65535549999913,187.63889930000005,187.64544369999203,187.65535549999913,187.65535549999913,187.65535549999913,189.02327249999507,Objects\022a.jpg,mid,o,1.3528143000003183,None,,,,,,,,00018,001,2026-01-20_15h46.27.618,MST_test,2024.2.0,59.79194794250772,2026-01-20 15h46.43.031323 +0530,
54,0,55,o,0.76236299998709,None,55,0,54,189.0380707000004,,,,,,,,,,,,,,,,,,,,,,,,,,,,,,,,,,,,,,,,,,,,,,,,,,189.02366110000003,189.0380707000004,189.6392208000034,189.52199649999966,189.63668919999327,189.6392208000034,189.6392208000034,189.6392208000034,190.40682899999956,Objects\173b.jpg,post,o,0.76236299998709,None,,,,,,,,00018,001,2026-01-20_15h46.27.618,MST_test,2024.2.0,59.79194794250772,2026-01-20 15h46.43.031323 +0530,
55,0,56,o,1.2163550999975996,None,56,0,55,190.42118710000068,,,,,,,,,,,,,,,,,,,,,,,,,,,,,,,,,,,,,,,,,,,,,,,,,,190.40716219999013,190.42118710000068,190.9283662999951,190.9055886999995,190.92367619999277,190.9283662999951,190.9283662999951,190.9283662999951,192.1557010999968,Scenes\062a.jpg,pre,o,1.2163550999975996,None,,,,,,,,00018,001,2026-01-20_15h46.27.618,MST_test,2024.2.0,59.79194794250772,2026-01-20 15h46.43.031323 +0530,
56,0,57,n,1.9817566999990959,None,57,0,56,192.17105360000278,,,,,,,,,,,,,,,,,,,,,,,,,,,,,,,,,,,,,,,,,,,,,,,,,,192.15583089999564,192.17105360000278,192.69062080000003,192.65578429999005,192.6868689999974,192.69062080000003,192.69062080000003,192.69062080000003,194.6745896999928,Foils\042a.jpg,none,n,1.9817566999990959,None,,,,,,,,00018,001,2026-01-20_15h46.27.618,MST_test,2024.2.0,59.79194794250772,2026-01-20 15h46.43.031323 +0530,
57,0,58,o,1.4035367000033148,None,58,0,57,194.6877697000018,,,,,,,,,,,,,,,,,,,,,,,,,,,,,,,,,,,,,,,,,,,,,,,,,,194.67490779999935,194.6877697000018,195.18883610000194,195.1723256999976,195.18583629999193,195.18883610000194,195.18883610000194,195.18883610000194,196.60666049999418,Scenes\040a.jpg,post,o,1.4035367000033148,None,,,,,,,,00018,001,2026-01-20_15h46.27.618,MST_test,2024.2.0,59.79194794250772,2026-01-20 15h46.43.031323 +0530,
58,0,59,o,0.84554449999996,None,59,0,58,196.6223020999896,,,,,,,,,,,,,,,,,,,,,,,,,,,,,,,,,,,,,,,,,,,,,,,,,,196.60688649999793,196.6223020999896,,197.12131509999745,197.12746329999936,197.1385508999956,197.1385508999956,197.1385508999956,197.9899468999938,Objects\112a.jpg,mid,o,0.84554449999996,None,,,,,,,,00018,001,2026-01-20_15h46.27.618,MST_test,2024.2.0,59.79194794250772,2026-01-20 15h46.43.031323 +0530,
59,0,60,s,1.4958703000011155,None,60,0,59,198.0044343999907,,,,,,,,,,,,,,,,,,,,,,,,,,,,,,,,,,,,,,,,,,,,,,,,,,197.99023119999038,198.0044343999907,198.50465029999032,198.48880120000103,198.49491280000075,198.50465029999032,198.50465029999032,198.50465029999032,200.00679889999446,Objects\123a.jpg,post,s,1.4958703000011155,None,,,,,,,,00018,001,2026-01-20_15h46.27.618,MST_test,2024.2.0,59.79194794250772,2026-01-20 15h46.43.031323 +0530,
60,0,61,o,1.3034583999979077,None,61,0,60,200.0212737999973,,,,,,,,,,,,,,,,,,,,,,,,,,,,,,,,,,,,,,,,,,,,,,,,,,200.00716079999984,200.0212737999973,200.52188109999406,200.50572580000153,200.51837619999424,200.52188109999406,200.52188109999406,200.52188109999406,201.8397119000001,Scenes\098a.jpg,mid,o,1.3034583999979077,None,,,,,,,,00018,001,2026-01-20_15h46.27.618,MST_test,2024.2.0,59.79194794250772,2026-01-20 15h46.43.031323 +0530,
61,0,62,o,0.958635700008017,None,62,0,61,201.854465299999,,,,,,,,,,,,,,,,,,,,,,,,,,,,,,,,,,,,,,,,,,,,,,,,,,201.84003209999355,201.854465299999,202.35522830000264,202.33895730000222,202.34753339999588,202.35522830000264,202.35522830000264,202.35522830000264,203.32309530000202,Objects\186a.jpg,pre,o,0.958635700008017,None,,,,,,,,00018,001,2026-01-20_15h46.27.618,MST_test,2024.2.0,59.79194794250772,2026-01-20 15h46.43.031323 +0530,
62,0,63,s,1.2389561000018148,None,63,0,62,203.33794189999753,,,,,,,,,,,,,,,,,,,,,,,,,,,,,,,,,,,,,,,,,,,,,,,,,,203.32341349999479,203.33794189999753,203.85009829999763,203.82215559999167,203.84775849999278,203.85009829999763,203.85009829999763,203.85009829999763,205.1068510999903,Objects\121b.jpg,mid,s,1.2389561000018148,None,,,,,,,,00018,001,2026-01-20_15h46.27.618,MST_test,2024.2.0,59.79194794250772,2026-01-20 15h46.43.031323 +0530,
63,0,64,o,1.883397600002354,None,64,0,63,205.12117839998973,,,,,,,,,,,,,,,,,,,,,,,,,,,,,,,,,,,,,,,,,,,,,,,,,,205.1072642999934,205.12117839998973,205.64459359999455,205.60562590000336,205.6415515999979,205.64459359999455,205.64459359999455,205.64459359999455,207.5407997000002,Scenes\155b.jpg,mid,o,1.883397600002354,None,,,,,,,,00018,001,2026-01-20_15h46.27.618,MST_test,2024.2.0,59.79194794250772,2026-01-20 15h46.43.031323 +0530,
64,0,65,n,1.348709099998814,None,65,0,64,207.5545451999933,,,,,,,,,,,,,,,,,,,,,,,,,,,,,,,,,,,,,,,,,,,,,,,,,,207.54107900000236,207.5545451999933,208.085027299996,208.03904849999526,208.0822538999928,208.085027299996,208.085027299996,208.085027299996,209.43967389999307,Foils\034a.jpg,none,n,1.348709099998814,None,,,,,,,,00018,001,2026-01-20_15h46.27.618,MST_test,2024.2.0,59.79194794250772,2026-01-20 15h46.43.031323 +0530,
65,0,66,o,1.7011044999962905,None,66,0,65,209.45451290000346,,,,,,,,,,,,,,,,,,,,,,,,,,,,,,,,,,,,,,,,,,,,,,,,,,209.440099799991,209.45451290000346,209.9549335999909,209.93890999999712,209.9447053999902,209.9549335999909,209.9549335999909,209.9549335999909,211.67297620000318,Objects\031a.jpg,pre,o,1.7011044999962905,None,,,,,,,,00018,001,2026-01-20_15h46.27.618,MST_test,2024.2.0,59.79194794250772,2026-01-20 15h46.43.031323 +0530,
66,0,67,s,1.3772329000057653,None,67,0,66,211.68773289999808,,,,,,,,,,,,,,,,,,,,,,,,,,,,,,,,,,,,,,,,,,,,,,,,,,211.67326460000186,211.68773289999808,212.22404099999403,212.17251659999602,212.22101439999824,212.22404099999403,212.22404099999403,212.22404099999403,213.60636469999736,Scenes\043b.jpg,pre,s,1.3772329000057653,None,,,,,,,,00018,001,2026-01-20_15h46.27.618,MST_test,2024.2.0,59.79194794250772,2026-01-20 15h46.43.031323 +0530,
67,0,68,n,2.527788999999757,None,68,0,67,213.6214414999995,,,,,,,,,,,,,,,,,,,,,,,,,,,,,,,,,,,,,,,,,,,,,,,,,,213.606655399999,213.6214414999995,214.1535939000023,214.10517090000212,214.15034179999202,214.1535939000023,214.1535939000023,214.1535939000023,216.68981090000307,Foils\scenes28.jpg,none,n,2.527788999999757,None,,,,,,,,00018,001,2026-01-20_15h46.27.618,MST_test,2024.2.0,59.79194794250772,2026-01-20 15h46.43.031323 +0530,
68,0,69,s,1.7070932999922661,None,69,0,68,216.70453719999932,,,,,,,,,,,,,,,,,,,,,,,,,,,,,,,,,,,,,,,,,,,,,,,,,,216.6900725000014,216.70453719999932,217.20536199999333,217.18860549999226,217.19905389999622,217.20536199999333,217.20536199999333,217.20536199999333,218.923194899995,Objects\024a.jpg,pre,s,1.7070932999922661,None,,,,,,,,00018,001,2026-01-20_15h46.27.618,MST_test,2024.2.0,59.79194794250772,2026-01-20 15h46.43.031323 +0530,
69,0,70,n,2.256820999988122,None,70,0,69,218.93758979999984,,,,,,,,,,,,,,,,,,,,,,,,,,,,,,,,,,,,,,,,,,,,,,,,,,218.92353139999614,218.93758979999984,219.48092159999942,219.4219879000011,219.47791169999982,219.48092159999942,219.48092159999942,219.48092159999942,221.74044169999252,Objects\160b.jpg,post,n,2.256820999988122,None,,,,,,,,00018,001,2026-01-20_15h46.27.618,MST_test,2024.2.0,59.79194794250772,2026-01-20 15h46.43.031323 +0530,
70,0,71,s,1.5750716000038665,None,71,0,70,221.75459719999344,,,,,,,,,,,,,,,,,,,,,,,,,,,,,,,,,,,,,,,,,,,,,,,,,,221.7407552999939,221.75459719999344,222.28087940000114,222.2389678000036,222.2775382999971,222.28087940000114,222.28087940000114,222.28087940000114,223.87269699999888,Scenes\042b.jpg,mid,s,1.5750716000038665,None,,,,,,,,00018,001,2026-01-20_15h46.27.618,MST_test,2024.2.0,59.79194794250772,2026-01-20 15h46.43.031323 +0530,
71,0,72,s,1.8550178000004962,None,72,0,71,223.8878801999963,,,,,,,,,,,,,,,,,,,,,,,,,,,,,,,,,,,,,,,,,,,,,,,,,,223.87302829998953,223.8878801999963,224.42491750000045,224.37240880000172,224.4217925999983,224.42491750000045,224.42491750000045,224.42491750000045,226.28962820000015,Scenes\107b.jpg,mid,s,1.8550178000004962,None,,,,,,,,00018,001,2026-01-20_15h46.27.618,MST_test,2024.2.0,59.79194794250772,2026-01-20 15h46.43.031323 +0530,
72,0,73,o,2.019720199998119,None,73,0,72,226.30448160000378,,,,,,,,,,,,,,,,,,,,,,,,,,,,,,,,,,,,,,,,,,,,,,,,,,226.2899022999918,226.30448160000378,226.80530579999322,226.78898749999644,226.79772469999443,226.80530579999322,226.80530579999322,226.80530579999322,228.84100909999688,Objects\096a.jpg,post,o,2.019720199998119,None,,,,,,,,00018,001,2026-01-20_15h46.27.618,MST_test,2024.2.0,59.79194794250772,2026-01-20 15h46.43.031323 +0530,
73,0,74,o,3.7592352999927243,None,74,0,73,228.85448189999443,,,,,,,,,,,,,,,,,,,,,,,,,,,,,,,,,,,,,,,,,,,,,,,,,,228.84133080000174,228.85448189999443,229.36138950000168,229.3386967999977,229.35756109999784,229.36138950000168,229.36138950000168,229.36138950000168,233.12357879999036,Scenes\145a.jpg,post,o,3.7592352999927243,None,,,,,,,,00018,001,2026-01-20_15h46.27.618,MST_test,2024.2.0,59.79194794250772,2026-01-20 15h46.43.031323 +0530,
74,0,75,n,1.7343448999890825,None,75,0,74,233.1378199000028,,,,,,,,,,,,,,,,,,,,,,,,,,,,,,,,,,,,,,,,,,,,,,,,,,233.12386789999437,233.1378199000028,233.65146589999495,233.62175659999775,233.64852409999003,233.65146589999495,233.65146589999495,233.65146589999495,235.38964269999997,Foils\113a.jpg,none,n,1.7343448999890825,None,,,,,,,,00018,001,2026-01-20_15h46.27.618,MST_test,2024.2.0,59.79194794250772,2026-01-20 15h46.43.031323 +0530,
75,0,76,o,1.2340057999972487,None,76,0,75,235.40434389999427,,,,,,,,,,,,,,,,,,,,,,,,,,,,,,,,,,,,,,,,,,,,,,,,,,235.38992079999298,235.40434389999427,235.927148200004,235.88892319999286,235.92429870000342,235.927148200004,235.927148200004,235.927148200004,237.17274100000213,Scenes\032b.jpg,mid,o,1.2340057999972487,None,,,,,,,,00018,001,2026-01-20_15h46.27.618,MST_test,2024.2.0,59.79194794250772,2026-01-20 15h46.43.031323 +0530,
76,0,77,o,2.5593407999986084,None,77,0,76,237.18777709999995,,,,,,,,,,,,,,,,,,,,,,,,,,,,,,,,,,,,,,,,,,,,,,,,,,237.173137699996,237.18777709999995,237.6902734000032,237.67237179999938,237.6858446999977,237.6902734000032,237.6902734000032,237.6902734000032,240.256893999991,Scenes\165a.jpg,post,o,2.5593407999986084,None,,,,,,,,00018,001,2026-01-20_15h46.27.618,MST_test,2024.2.0,59.79194794250772,2026-01-20 15h46.43.031323 +0530,
77,0,78,o,1.1484116000065114,None,78,0,77,240.27121289999923,,,,,,,,,,,,,,,,,,,,,,,,,,,,,,,,,,,,,,,,,,,,,,,,,,240.2571833999973,240.27121289999923,240.77244410000276,240.75570100000186,240.76484639999398,240.77244410000276,240.77244410000276,240.77244410000276,241.92289459999301,Objects\148a.jpg,mid,o,1.1484116000065114,None,,,,,,,,00018,001,2026-01-20_15h46.27.618,MST_test,2024.2.0,59.79194794250772,2026-01-20 15h46.43.031323 +0530,
78,0,79,o,3.1379263999988325,None,79,0,78,241.93808019999415,,,,,,,,,,,,,,,,,,,,,,,,,,,,,,,,,,,,,,,,,,,,,,,,,,241.92314459999034,241.93808019999415,242.45515929999237,242.42256179999094,242.45197789999656,242.45515929999237,242.45515929999237,242.45515929999237,245.60618239999167,Scenes\053b.jpg,post,o,3.1379263999988325,None,,,,,,,,00018,001,2026-01-20_15h46.27.618,MST_test,2024.2.0,59.79194794250772,2026-01-20 15h46.43.031323 +0530,
79,0,80,s,1.361288500003866,None,80,0,79,245.62120209999557,,,,,,,,,,,,,,,,,,,,,,,,,,,,,,,,,,,,,,,,,,,,,,,,,,245.60643129999517,245.62120209999557,246.13580619999266,246.1057421000005,246.13329969999904,246.13580619999266,246.13580619999266,246.13580619999266,247.50637269999424,Objects\058b.jpg,pre,s,1.361288500003866,None,,,,,,,,00018,001,2026-01-20_15h46.27.618,MST_test,2024.2.0,59.79194794250772,2026-01-20 15h46.43.031323 +0530,
80,0,81,s,1.3625284000008833,None,81,0,80,247.52112489999854,,,,,,,,,,,,,,,,,,,,,,,,,,,,,,,,,,,,,,,,,,,,,,,,,,247.50674539999454,247.52112489999854,248.0228283000033,248.00540829999954,248.01957360000233,248.0228283000033,248.0228283000033,248.0228283000033,249.38989179999044,Scenes\111a.jpg,pre,s,1.3625284000008833,None,,,,,,,,00018,001,2026-01-20_15h46.27.618,MST_test,2024.2.0,59.79194794250772,2026-01-20 15h46.43.031323 +0530,
81,0,82,o,2.2082665000052657,None,82,0,81,249.40467699999863,,,,,,,,,,,,,,,,,,,,,,,,,,,,,,,,,,,,,,,,,,,,,,,,,,249.39013449999038,249.40467699999863,249.91251680000278,249.8894610999996,249.90935919999902,249.91251680000278,249.91251680000278,249.91251680000278,252.12325540000165,Scenes\171a.jpg,mid,o,2.2082665000052657,None,,,,,,,,00018,001,2026-01-20_15h46.27.618,MST_test,2024.2.0,59.79194794250772,2026-01-20 15h46.43.031323 +0530,
82,0,83,o,1.1858991000044625,None,83,0,82,252.13798099999258,,,,,,,,,,,,,,,,,,,,,,,,,,,,,,,,,,,,,,,,,,,,,,,,,,252.123494200001,252.13798099999258,252.63853019999806,252.6221697000001,252.63048359999084,252.63853019999806,252.63853019999806,252.63853019999806,253.83927979999862,Objects\144a.jpg,pre,o,1.1858991000044625,None,,,,,,,,00018,001,2026-01-20_15h46.27.618,MST_test,2024.2.0,59.79194794250772,2026-01-20 15h46.43.031323 +0530,
83,0,84,o,1.6772656999964966,None,84,0,83,253.85448680000263,,,,,,,,,,,,,,,,,,,,,,,,,,,,,,,,,,,,,,,,,,,,,,,,,,253.8394999000011,253.85448680000263,254.35580219999247,254.3388033999945,254.3529309000005,254.35580219999247,254.35580219999247,254.35580219999247,256.0397865999985,Scenes\108a.jpg,pre,o,1.6772656999964966,None,,,,,,,,00018,001,2026-01-20_15h46.27.618,MST_test,2024.2.0,59.79194794250772,2026-01-20 15h46.43.031323 +0530,
84,0,85,o,2.5729054999974323,None,85,0,84,256.05445349999354,,,,,,,,,,,,,,,,,,,,,,,,,,,,,,,,,,,,,,,,,,,,,,,,,,256.04007499999716,256.05445349999354,256.5551017999969,256.53889080000226,256.5444276999915,256.5551017999969,256.5551017999969,256.5551017999969,259.14025799999945,Objects\084a.jpg,post,o,2.5729054999974323,None,,,,,,,,00018,001,2026-01-20_15h46.27.618,MST_test,2024.2.0,59.79194794250772,2026-01-20 15h46.43.031323 +0530,
85,0,86,n,1.3231904999993276,None,86,0,85,259.1546696000005,,,,,,,,,,,,,,,,,,,,,,,,,,,,,,,,,,,,,,,,,,,,,,,,,,259.1406252000015,259.1546696000005,259.6777413999953,259.6387553999957,259.67464779999864,259.6777413999953,259.6777413999953,259.6777413999953,261.00602859999344,Foils\002a.jpg,none,n,1.3231904999993276,None,,,,,,,,00018,001,2026-01-20_15h46.27.618,MST_test,2024.2.0,59.79194794250772,2026-01-20 15h46.43.031323 +0530,
86,0,87,o,1.7822129999985918,None,87,0,86,261.0212923999934,,,,,,,,,,,,,,,,,,,,,,,,,,,,,,,,,,,,,,,,,,,,,,,,,,261.0062953000015,261.0212923999934,261.52194099999906,261.50584369999706,261.5119460999995,261.52194099999906,261.52194099999906,261.52194099999906,263.3075603999896,Objects\166a.jpg,pre,o,1.7822129999985918,None,,,,,,,,00018,001,2026-01-20_15h46.27.618,MST_test,2024.2.0,59.79194794250772,2026-01-20 15h46.43.031323 +0530,
87,0,88,o,1.1635601000016322,None,88,0,87,263.3210803999973,,,,,,,,,,,,,,,,,,,,,,,,,,,,,,,,,,,,,,,,,,,,,,,,,,263.307951099996,263.3210803999973,263.8218357000005,263.8055478000024,263.8159519000037,263.8218357000005,263.8218357000005,263.8218357000005,264.9897162999987,Scenes\186a.jpg,post,o,1.1635601000016322,None,,,,,,,,00018,001,2026-01-20_15h46.27.618,MST_test,2024.2.0,59.79194794250772,2026-01-20 15h46.43.031323 +0530,
88,0,89,o,0.7813459000026342,None,89,0,88,265.00440209999215,,,,,,,,,,,,,,,,,,,,,,,,,,,,,,,,,,,,,,,,,,,,,,,,,,264.99003410000296,265.00440209999215,265.5070827000018,265.48912589999964,265.5037704999995,265.5070827000018,265.5070827000018,265.5070827000018,266.2899803999899,Scenes\067a.jpg,mid,o,0.7813459000026342,None,,,,,,,,00018,001,2026-01-20_15h46.27.618,MST_test,2024.2.0,59.79194794250772,2026-01-20 15h46.43.031323 +0530,
89,0,90,o,1.3511720999958925,None,90,0,89,266.30442239998956,,,,,,,,,,,,,,,,,,,,,,,,,,,,,,,,,,,,,,,,,,,,,,,,,,266.2902027999953,266.30442239998956,266.8330961000029,266.789091300001,266.8298286999925,266.8330961000029,266.8330961000029,266.8330961000029,268.1897686000011,Scenes\126b.jpg,pre,o,1.3511720999958925,None,,,,,,,,00018,001,2026-01-20_15h46.27.618,MST_test,2024.2.0,59.79194794250772,2026-01-20 15h46.43.031323 +0530,
90,0,91,o,1.351496600007522,None,91,0,90,268.2044121999934,,,,,,,,,,,,,,,,,,,,,,,,,,,,,,,,,,,,,,,,,,,,,,,,,,268.19002969999565,268.2044121999934,268.7050290999905,268.68878289998975,268.6965899999923,268.7050290999905,268.7050290999905,268.7050290999905,270.072660299993,Objects\072a.jpg,pre,o,1.351496600007522,None,,,,,,,,00018,001,2026-01-20_15h46.27.618,MST_test,2024.2.0,59.79194794250772,2026-01-20 15h46.43.031323 +0530,
91,0,92,s,1.2394133000052534,None,92,0,91,270.0883109999995,,,,,,,,,,,,,,,,,,,,,,,,,,,,,,,,,,,,,,,,,,,,,,,,,,270.0728788999986,270.0883109999995,270.5927532999922,270.5726138000027,270.59002019999025,270.5927532999922,270.5927532999922,270.5927532999922,271.83972409999114,Objects\061b.jpg,post,s,1.2394133000052534,None,,,,,,,,00018,001,2026-01-20_15h46.27.618,MST_test,2024.2.0,59.79194794250772,2026-01-20 15h46.43.031323 +0530,
92,0,93,s,1.2874174999888055,None,93,0,92,271.8544161000027,,,,,,,,,,,,,,,,,,,,,,,,,,,,,,,,,,,,,,,,,,,,,,,,,,271.83998069999507,271.8544161000027,272.39385449999827,272.33876739999687,272.3905398999923,272.39385449999827,272.39385449999827,272.39385449999827,273.68959319998976,Scenes\070b.jpg,post,s,1.2874174999888055,None,,,,,,,,00018,001,2026-01-20_15h46.27.618,MST_test,2024.2.0,59.79194794250772,2026-01-20 15h46.43.031323 +0530,
93,0,94,n,1.4582738000026438,None,94,0,93,273.70449859999644,,,,,,,,,,,,,,,,,,,,,,,,,,,,,,,,,,,,,,,,,,,,,,,,,,273.68982929999765,273.70449859999644,274.238717500004,274.1889236999996,274.2352431000036,274.238717500004,274.238717500004,274.238717500004,275.7065822000004,Foils\scenes29.jpg,none,n,1.4582738000026438,None,,,,,,,,00018,001,2026-01-20_15h46.27.618,MST_test,2024.2.0,59.79194794250772,2026-01-20 15h46.43.031323 +0530,
94,0,95,n,1.1245898000051966,None,95,0,94,275.72123219999776,,,,,,,,,,,,,,,,,,,,,,,,,,,,,,,,,,,,,,,,,,,,,,,,,,275.70693179999944,275.72123219999776,276.252312800003,276.2054962999973,276.2495363999915,276.252312800003,276.252312800003,276.252312800003,277.38968880000175,Objects\004b.jpg,mid,n,1.1245898000051966,None,,,,,,,,00018,001,2026-01-20_15h46.27.618,MST_test,2024.2.0,59.79194794250772,2026-01-20 15h46.43.031323 +0530,
95,0,96,o,1.0712512000027345,None,96,0,95,277.40466030000243,,,,,,,,,,,,,,,,,,,,,,,,,,,,,,,,,,,,,,,,,,,,,,,,,,277.3899815999903,277.40466030000243,277.90477100000135,277.8890320999926,277.89465570000175,277.90477100000135,277.90477100000135,277.90477100000135,278.98969619999116,Objects\002a.jpg,post,o,1.0712512000027345,None,,,,,,,,00018,001,2026-01-20_15h46.27.618,MST_test,2024.2.0,59.79194794250772,2026-01-20 15h46.43.031323 +0530,
96,0,97,o,1.416258299999754,None,97,0,96,279.0044412999996,,,,,,,,,,,,,,,,,,,,,,,,,,,,,,,,,,,,,,,,,,,,,,,,,,278.99014290000196,279.0044412999996,279.50487829999474,279.48897150000266,279.4960534999991,279.50487829999474,279.50487829999474,279.50487829999474,280.9232634999935,Objects\104a.jpg,pre,o,1.416258299999754,None,,,,,,,,00018,001,2026-01-20_15h46.27.618,MST_test,2024.2.0,59.79194794250772,2026-01-20 15h46.43.031323 +0530,
97,0,98,o,1.1229064000071958,None,98,0,97,280.9377289999975,,,,,,,,,,,,,,,,,,,,,,,,,,,,,,,,,,,,,,,,,,,,,,,,,,280.9236167999916,280.9377289999975,281.43835179999587,281.42232630000217,281.43269950000104,281.43835179999587,281.43835179999587,281.43835179999587,282.57321439999214,Scenes\036a.jpg,post,o,1.1229064000071958,None,,,,,,,,00018,001,2026-01-20_15h46.27.618,MST_test,2024.2.0,59.79194794250772,2026-01-20 15h46.43.031323 +0530,
98,0,99,n,1.1351147999957902,None,99,0,98,282.58835619999445,,,,,,,,,,,,,,,,,,,,,,,,,,,,,,,,,,,,,,,,,,,,,,,,,,282.5735268999997,282.58835619999445,283.1215399999928,283.0724379000021,283.11767049999617,283.1215399999928,283.1215399999928,283.1215399999928,284.2742694999906,Scenes\090b.jpg,post,n,1.1351147999957902,None,,,,,,,,00018,001,2026-01-20_15h46.27.618,MST_test,2024.2.0,59.79194794250772,2026-01-20 15h46.43.031323 +0530,
99,0,100,n,0.7222851999977138,None,100,0,99,284.2881931000011,,,,,,,,,,,,,,,,,,,,,,,,,,,,,,,,,,,,,,,,,,,,,,,,,,284.27462789999845,284.2881931000011,284.80629529998987,284.7722830999992,284.80245019998983,284.80629529998987,284.80629529998987,284.80629529998987,285.53988529999333,Foils\scenes3.jpg,none,n,0.7222851999977138,None,,,,,,,,00018,001,2026-01-20_15h46.27.618,MST_test,2024.2.0,59.79194794250772,2026-01-20 15h46.43.031323 +0530,
100,0,101,n,0.9761255999910645,None,101,0,100,285.5543897000025,,,,,,,,,,,,,,,,,,,,,,,,,,,,,,,,,,,,,,,,,,,,,,,,,,285.54031840000243,285.5543897000025,286.0883646000002,286.03907759999856,286.0853114999918,286.0883646000002,286.0883646000002,286.0883646000002,287.07300769998983,Foils\scenes27.jpg,none,n,0.9761255999910645,None,,,,,,,,00018,001,2026-01-20_15h46.27.618,MST_test,2024.2.0,59.79194794250772,2026-01-20 15h46.43.031323 +0530,
101,0,102,n,0.6835681000084151,None,102,0,101,287.08783550000226,,,,,,,,,,,,,,,,,,,,,,,,,,,,,,,,,,,,,,,,,,,,,,,,,,287.07323909999104,287.08783550000226,287.6132168999902,287.5721899999917,287.6101853,287.6132168999902,287.6132168999902,287.6132168999902,288.3065848999977,Scenes\152b.jpg,mid,n,0.6835681000084151,None,,,,,,,,00018,001,2026-01-20_15h46.27.618,MST_test,2024.2.0,59.79194794250772,2026-01-20 15h46.43.031323 +0530,
102,0,103,n,0.7907262999942759,None,103,0,102,288.32144299999345,,,,,,,,,,,,,,,,,,,,,,,,,,,,,,,,,,,,,,,,,,,,,,,,,,288.3068784999923,288.32144299999345,288.8412859999953,288.805349000002,288.8372020999959,288.8412859999953,288.8412859999953,288.8412859999953,289.6392690999928,Foils\scenes4.jpg,none,n,0.7907262999942759,None,,,,,,,,00018,001,2026-01-20_15h46.27.618,MST_test,2024.2.0,59.79194794250772,2026-01-20 15h46.43.031323 +0530,
103,0,104,n,0.7121097999915946,None,104,0,103,289.6545452999999,,,,,,,,,,,,,,,,,,,,,,,,,,,,,,,,,,,,,,,,,,,,,,,,,,289.6394597000035,289.6545452999999,290.1763085999992,290.1388289000024,290.1736963000003,290.1763085999992,290.1763085999992,290.1763085999992,290.89106169999286,Foils\081a.jpg,none,n,0.7121097999915946,None,,,,,,,,00018,001,2026-01-20_15h46.27.618,MST_test,2024.2.0,59.79194794250772,2026-01-20 15h46.43.031323 +0530,
104,0,105,s,1.6853838000097312,None,105,0,104,290.9044892999955,,,,,,,,,,,,,,,,,,,,,,,,,,,,,,,,,,,,,,,,,,,,,,,,,,290.8913203999982,290.9044892999955,291.42680149999796,291.3888181999937,291.42433539999183,291.42680149999796,291.42680149999796,291.42680149999796,293.1230601999996,Objects\114b.jpg,pre,s,1.6853838000097312,None,,,,,,,,00018,001,2026-01-20_15h46.27.618,MST_test,2024.2.0,59.79194794250772,2026-01-20 15h46.43.031323 +0530,
105,0,106,o,1.0489577999978792,None,106,0,105,293.1383657999977,,,,,,,,,,,,,,,,,,,,,,,,,,,,,,,,,,,,,,,,,,,,,,,,,,293.1233011000004,293.1383657999977,293.6550276999915,293.6223530999996,293.65207559999544,293.6550276999915,293.6550276999915,293.6550276999915,294.70681550000154,Objects\075b.jpg,pre,o,1.0489577999978792,None,,,,,,,,00018,001,2026-01-20_15h46.27.618,MST_test,2024.2.0,59.79194794250772,2026-01-20 15h46.43.031323 +0530,
106,0,107,s,1.498445899997023,None,107,0,106,294.7213003999932,,,,,,,,,,,,,,,,,,,,,,,,,,,,,,,,,,,,,,,,,,,,,,,,,,294.70718109999143,294.7213003999932,295.2218106999935,295.2058407000004,295.21761019999394,295.2218106999935,295.2218106999935,295.2218106999935,296.7235045999987,Scenes\079a.jpg,post,s,1.498445899997023,None,,,,,,,,00018,001,2026-01-20_15h46.27.618,MST_test,2024.2.0,59.79194794250772,2026-01-20 15h46.43.031323 +0530,
107,0,108,o,1.3450846999912756,None,108,0,107,296.7382068000006,,,,,,,,,,,,,,,,,,,,,,,,,,,,,,,,,,,,,,,,,,,,,,,,,,296.72389829999884,296.7382068000006,297.2387899000023,297.2225038000033,297.23327280000376,297.2387899000023,297.2387899000023,297.2387899000023,298.58997709999676,Scenes\162a.jpg,post,o,1.3450846999912756,None,,,,,,,,00018,001,2026-01-20_15h46.27.618,MST_test,2024.2.0,59.79194794250772,2026-01-20 15h46.43.031323 +0530,
108,0,109,o,2.233528800003114,None,109,0,108,298.60443799999484,,,,,,,,,,,,,,,,,,,,,,,,,,,,,,,,,,,,,,,,,,,,,,,,,,298.5903566999914,298.60443799999484,299.14298069999495,299.08937929999956,299.1396941999992,299.14298069999495,299.14298069999495,299.14298069999495,301.38956779999717,Scenes\026b.jpg,mid,o,2.233528800003114,None,,,,,,,,00018,001,2026-01-20_15h46.27.618,MST_test,2024.2.0,59.79194794250772,2026-01-20 15h46.43.031323 +0530,
109,0,110,s,1.3492843999993056,None,110,0,109,301.40448579999793,,,,,,,,,,,,,,,,,,,,,,,,,,,,,,,,,,,,,,,,,,,,,,,,,,301.38989479999873,301.40448579999793,301.92295999999624,301.88890209999226,301.91934179999225,301.92295999999624,301.92295999999624,301.92295999999624,303.2900195999973,Objects\134b.jpg,mid,s,1.3492843999993056,None,,,,,,,,00018,001,2026-01-20_15h46.27.618,MST_test,2024.2.0,59.79194794250772,2026-01-20 15h46.43.031323 +0530,
110,0,111,o,1.917055199999595,None,111,0,110,303.3046253999928,,,,,,,,,,,,,,,,,,,,,,,,,,,,,,,,,,,,,,,,,,,,,,,,,,303.290294099992,303.3046253999928,303.8274506000016,303.7889961000037,303.8244086999912,303.8274506000016,303.8274506000016,303.8274506000016,305.7566408999992,Scenes\112b.jpg,pre,o,1.917055199999595,None,,,,,,,,00018,001,2026-01-20_15h46.27.618,MST_test,2024.2.0,59.79194794250772,2026-01-20 15h46.43.031323 +0530,
111,0,112,s,0.852304699990782,None,112,0,111,305.77117340000405,,,,,,,,,,,,,,,,,,,,,,,,,,,,,,,,,,,,,,,,,,,,,,,,,,305.7569790999987,305.77117340000405,306.285100699999,306.2558352999913,306.2816665999999,306.285100699999,306.285100699999,306.285100699999,307.14008399999875,Objects\162b.jpg,pre,s,0.852304699990782,None,,,,,,,,00018,001,2026-01-20_15h46.27.618,MST_test,2024.2.0,59.79194794250772,2026-01-20 15h46.43.031323 +0530,
112,0,113,s,0.873101899996982,None,113,0,112,307.1545191999903,,,,,,,,,,,,,,,,,,,,,,,,,,,,,,,,,,,,,,,,,,,,,,,,,,307.14048970000295,307.1545191999903,307.6720678999991,307.6387248999963,307.66938110000046,307.6720678999991,307.6720678999991,307.6720678999991,308.5561983999942,Objects\083b.jpg,mid,s,0.873101899996982,None,,,,,,,,00018,001,2026-01-20_15h46.27.618,MST_test,2024.2.0,59.79194794250772,2026-01-20 15h46.43.031323 +0530,
113,0,114,s,0.888257300000987,None,114,0,113,308.5711131999997,,,,,,,,,,,,,,,,,,,,,,,,,,,,,,,,,,,,,,,,,,,,,,,,,,308.55654639999557,308.5711131999997,309.08069129999785,309.0554420999979,309.07741800000076,309.08069129999785,309.08069129999785,309.08069129999785,309.97340659999463,Scenes\037b.jpg,pre,s,0.888257300000987,None,,,,,,,,00018,001,2026-01-20_15h46.27.618,MST_test,2024.2.0,59.79194794250772,2026-01-20 15h46.43.031323 +0530,
114,0,115,s,1.535317700006999,None,115,0,114,309.98776329999964,,,,,,,,,,,,,,,,,,,,,,,,,,,,,,,,,,,,,,,,,,,,,,,,,,309.9737626999995,309.98776329999964,310.5218625999987,310.4725926999963,310.51882979999937,310.5218625999987,310.5218625999987,310.5218625999987,312.0733891999989,Scenes\103b.jpg,mid,s,1.535317700006999,None,,,,,,,,00018,001,2026-01-20_15h46.27.618,MST_test,2024.2.0,59.79194794250772,2026-01-20 15h46.43.031323 +0530,
115,0,116,s,1.9628880999953253,None,116,0,115,312.0877179999952,,,,,,,,,,,,,,,,,,,,,,,,,,,,,,,,,,,,,,,,,,,,,,,,,,312.0737904999987,312.0877179999952,312.5900930999924,312.57213099999353,312.586836699993,312.5900930999924,312.5900930999924,312.5900930999924,314.5564807999908,Scenes\163a.jpg,pre,s,1.9628880999953253,None,,,,,,,,00018,001,2026-01-20_15h46.27.618,MST_test,2024.2.0,59.79194794250772,2026-01-20 15h46.43.031323 +0530,
116,0,117,s,0.7349867000011727,None,117,0,116,314.5711439000006,,,,,,,,,,,,,,,,,,,,,,,,,,,,,,,,,,,,,,,,,,,,,,,,,,314.55673549999483,314.5711439000006,315.11270919999515,315.05591399999685,315.1084526999912,315.11270919999515,315.11270919999515,315.11270919999515,315.8571557999967,Scenes\085b.jpg,pre,s,0.7349867000011727,None,,,,,,,,00018,001,2026-01-20_15h46.27.618,MST_test,2024.2.0,59.79194794250772,2026-01-20 15h46.43.031323 +0530,
117,0,118,o,1.3410496000142302,None,118,0,117,315.87111279999954,,,,,,,,,,,,,,,,,,,,,,,,,,,,,,,,,,,,,,,,,,,,,,,,,,315.8575253000017,315.87111279999954,316.37169889999495,316.3559030000033,316.3633490999928,316.37169889999495,316.37169889999495,316.37169889999495,317.72339620000275,Objects\171a.jpg,post,o,1.3410496000142302,None,,,,,,,,00018,001,2026-01-20_15h46.27.618,MST_test,2024.2.0,59.79194794250772,2026-01-20 15h46.43.031323 +0530,
118,0,119,o,0.9452231000032043,None,119,0,118,317.73779020000075,,,,,,,,,,,,,,,,,,,,,,,,,,,,,,,,,,,,,,,,,,,,,,,,,,317.72372120000364,317.73779020000075,318.23884449999605,318.2225696999958,318.2325226999965,318.23884449999605,318.23884449999605,318.23884449999605,319.18976769999426,Scenes\160a.jpg,mid,o,0.9452231000032043,None,,,,,,,,00018,001,2026-01-20_15h46.27.618,MST_test,2024.2.0,59.79194794250772,2026-01-20 15h46.43.031323 +0530,
119,0,120,o,0.8166251999937231,None,120,0,119,319.20455049999873,,,,,,,,,,,,,,,,,,,,,,,,,,,,,,,,,,,,,,,,,,,,,,,,,,319.18999499999336,319.20455049999873,319.7050894999993,319.6893479999999,319.6988724999974,319.7050894999993,319.7050894999993,319.7050894999993,320.52417619999324,Scenes\141a.jpg,pre,o,0.8166251999937231,None,,,,,,,,00018,001,2026-01-20_15h46.27.618,MST_test,2024.2.0,59.79194794250772,2026-01-20 15h46.43.031323 +0530,
120,0,121,o,0.9308363000018289,None,121,0,120,320.5378342999902,,,,,,,,,,,,,,,,,,,,,,,,,,,,,,,,,,,,,,,,,,,,,,,,,,320.52456879999954,320.5378342999902,321.0385336000036,321.0221615999908,321.0279772999929,321.0385336000036,321.0385336000036,321.0385336000036,321.9732030000014,Objects\163a.jpg,mid,o,0.9308363000018289,None,,,,,,,,00018,001,2026-01-20_15h46.27.618,MST_test,2024.2.0,59.79194794250772,2026-01-20 15h46.43.031323 +0530,
121,0,122,o,1.019012799995835,None,122,0,121,321.98798700000043,,,,,,,,,,,,,,,,,,,,,,,,,,,,,,,,,,,,,,,,,,,,,,,,,,321.9734483999928,321.98798700000043,322.5020218999998,322.4721351999906,322.49944519999553,322.5020218999998,322.5020218999998,322.5020218999998,323.5236100000038,Scenes\014b.jpg,post,o,1.019012799995835,None,,,,,,,,00018,001,2026-01-20_15h46.27.618,MST_test,2024.2.0,59.79194794250772,2026-01-20 15h46.43.031323 +0530,
122,0,123,o,2.001261400000658,None,123,0,122,323.537828799992,,,,,,,,,,,,,,,,,,,,,,,,,,,,,,,,,,,,,,,,,,,,,,,,,,323.52403620000405,323.537828799992,324.0482192999916,324.0218996999902,324.04528179999033,324.0482192999916,324.0482192999916,324.0482192999916,326.0567396999977,Objects\147b.jpg,pre,o,2.001261400000658,None,,,,,,,,00018,001,2026-01-20_15h46.27.618,MST_test,2024.2.0,59.79194794250772,2026-01-20 15h46.43.031323 +0530,
123,0,124,o,1.204763500005356,None,124,0,123,326.07127000000037,,,,,,,,,,,,,,,,,,,,,,,,,,,,,,,,,,,,,,,,,,,,,,,,,,326.05698519998987,326.07127000000037,326.57134969999606,326.5554533999966,326.5636108000035,326.57134969999606,326.57134969999606,326.57134969999606,327.79096719999507,Objects\158a.jpg,post,o,1.204763500005356,None,,,,,,,,00018,001,2026-01-20_15h46.27.618,MST_test,2024.2.0,59.79194794250772,2026-01-20 15h46.43.031323 +0530,
124,0,125,s,1.3407771000056528,None,125,0,124,327.8046797999996,,,,,,,,,,,,,,,,,,,,,,,,,,,,,,,,,,,,,,,,,,,,,,,,,,327.79122119999374,327.8046797999996,328.3315157999896,328.2888171999948,328.3285434999998,328.3315157999896,328.3315157999896,328.3315157999896,329.68982539999706,Objects\124b.jpg,mid,s,1.3407771000056528,None,,,,,,,,00018,001,2026-01-20_15h46.27.618,MST_test,2024.2.0,59.79194794250772,2026-01-20 15h46.43.031323 +0530,
125,0,126,o,1.634584100000211,None,126,0,125,329.70454679999966,,,,,,,,,,,,,,,,,,,,,,,,,,,,,,,,,,,,,,,,,,,,,,,,,,329.69014379999135,329.70454679999966,330.2056575000024,330.18903039999714,330.2029676999955,330.2056575000024,330.2056575000024,330.2056575000024,331.8565419999941,Scenes\115a.jpg,mid,o,1.634584100000211,None,,,,,,,,00018,001,2026-01-20_15h46.27.618,MST_test,2024.2.0,59.79194794250772,2026-01-20 15h46.43.031323 +0530,
126,0,127,o,2.327436999999918,None,127,0,126,331.8711074000021,,,,,,,,,,,,,,,,,,,,,,,,,,,,,,,,,,,,,,,,,,,,,,,,,,331.8569296999922,331.8711074000021,332.39269290000084,332.3561697999976,332.3885422000021,332.39269290000084,332.39269290000084,332.39269290000084,334.7230025000026,Scenes\016b.jpg,post,o,2.327436999999918,None,,,,,,,,00018,001,2026-01-20_15h46.27.618,MST_test,2024.2.0,59.79194794250772,2026-01-20 15h46.43.031323 +0530,
127,0,128,n,0.7327920000097947,None,128,0,127,334.73795509999036,,,,,,,,,,,,,,,,,,,,,,,,,,,,,,,,,,,,,,,,,,,,,,,,,,334.7232449000003,334.73795509999036,335.3401077000017,335.22242130000086,335.3362672999938,335.3401077000017,335.3401077000017,335.3401077000017,336.090099699999,Foils\105a.jpg,none,n,0.7327920000097947,None,,,,,,,,00018,001,2026-01-20_15h46.27.618,MST_test,2024.2.0,59.79194794250772,2026-01-20 15h46.43.031323 +0530,
128,0,129,o,1.0935281999991275,None,129,0,128,336.10480559999996,,,,,,,,,,,,,,,,,,,,,,,,,,,,,,,,,,,,,,,,,,,,,,,,,,336.09033140000247,336.10480559999996,336.611233299991,336.58956169999146,336.60809779999545,336.611233299991,336.611233299991,336.611233299991,337.7069271999935,Scenes\104a.jpg,pre,o,1.0935281999991275,None,,,,,,,,00018,001,2026-01-20_15h46.27.618,MST_test,2024.2.0,59.79194794250772,2026-01-20 15h46.43.031323 +0530,
129,0,130,o,1.4436239000060596,None,130,0,129,337.72120559999894,,,,,,,,,,,,,,,,,,,,,,,,,,,,,,,,,,,,,,,,,,,,,,,,,,337.70724370000244,337.72120559999894,338.2223296000011,338.2056406999909,338.2148736999952,338.2223296000011,338.2223296000011,338.2223296000011,339.6733413000038,Scenes\007a.jpg,pre,o,1.4436239000060596,None,,,,,,,,00018,001,2026-01-20_15h46.27.618,MST_test,2024.2.0,59.79194794250772,2026-01-20 15h46.43.031323 +0530,
130,0,131,n,0.9348862999904668,None,131,0,130,339.6877852000034,,,,,,,,,,,,,,,,,,,,,,,,,,,,,,,,,,,,,,,,,,,,,,,,,,339.6737524999917,339.6877852000034,340.3132193999918,340.1728673999896,340.3091502000025,340.3132193999918,340.3132193999918,340.3132193999918,341.25714020000305,Foils\scenes25.jpg,none,n,0.9348862999904668,None,,,,,,,,00018,001,2026-01-20_15h46.27.618,MST_test,2024.2.0,59.79194794250772,2026-01-20 15h46.43.031323 +0530,
131,0,132,o,2.456262499996228,None,132,0,131,341.2712055000011,,,,,,,,,,,,,,,,,,,,,,,,,,,,,,,,,,,,,,,,,,,,,,,,,,341.25748770000064,341.2712055000011,341.77576570000383,341.75578099999984,341.77098000000115,341.77576570000383,341.77576570000383,341.77576570000383,344.23953540000366,Objects\107a.jpg,mid,o,2.456262499996228,None,,,,,,,,00018,001,2026-01-20_15h46.27.618,MST_test,2024.2.0,59.79194794250772,2026-01-20 15h46.43.031323 +0530,
132,0,133,n,0.9617601000063587,None,133,0,132,344.25444009999046,,,,,,,,,,,,,,,,,,,,,,,,,,,,,,,,,,,,,,,,,,,,,,,,,,344.23975529999007,344.25444009999046,344.77499619999435,344.73931049999373,344.7721346999897,344.77499619999435,344.77499619999435,344.77499619999435,345.7398205999925,Foils\010a.jpg,none,n,0.9617601000063587,None,,,,,,,,00018,001,2026-01-20_15h46.27.618,MST_test,2024.2.0,59.79194794250772,2026-01-20 15h46.43.031323 +0530,
133,0,134,s,1.1599473999958718,None,134,0,133,345.75446029999875,,,,,,,,,,,,,,,,,,,,,,,,,,,,,,,,,,,,,,,,,,,,,,,,,,345.7400998999947,345.75446029999875,346.2721484999929,346.23913449999236,346.2693001000007,346.2721484999929,346.2721484999929,346.2721484999929,347.43984730000375,Objects\001b.jpg,post,s,1.1599473999958718,None,,,,,,,,00018,001,2026-01-20_15h46.27.618,MST_test,2024.2.0,59.79194794250772,2026-01-20 15h46.43.031323 +0530,
134,0,135,s,1.3535368000011658,None,135,0,134,347.45435400000133,,,,,,,,,,,,,,,,,,,,,,,,,,,,,,,,,,,,,,,,,,,,,,,,,,347.4401496999926,347.45435400000133,347.9748433999921,347.93909479999274,347.9717137999978,347.9748433999921,347.9748433999921,347.9748433999921,349.33997629999067,Objects\048b.jpg,post,s,1.3535368000011658,None,,,,,,,,00018,001,2026-01-20_15h46.27.618,MST_test,2024.2.0,59.79194794250772,2026-01-20 15h46.43.031323 +0530,
135,0,136,s,0.8177397999970708,None,136,0,135,349.35444460000144,,,,,,,,,,,,,,,,,,,,,,,,,,,,,,,,,,,,,,,,,,,,,,,,,,349.34033569999156,349.35444460000144,349.85472239999217,349.83902839999064,349.84491400000115,349.85472239999217,349.85472239999217,349.85472239999217,350.6897459000029,Objects\167a.jpg,post,s,0.8177397999970708,None,,,,,,,,00018,001,2026-01-20_15h46.27.618,MST_test,2024.2.0,59.79194794250772,2026-01-20 15h46.43.031323 +0530,
136,0,137,s,0.9683831000002101,None,137,0,136,350.7043641999917,,,,,,,,,,,,,,,,,,,,,,,,,,,,,,,,,,,,,,,,,,,,,,,,,,350.6901414000022,350.7043641999917,351.2166864000028,351.18888039999,351.2139026999939,351.2166864000028,351.2166864000028,351.2166864000028,352.18942629999947,Objects\097b.jpg,mid,s,0.9683831000002101,None,,,,,,,,00018,001,2026-01-20_15h46.27.618,MST_test,2024.2.0,59.79194794250772,2026-01-20 15h46.43.031323 +0530,
137,0,138,n,1.259884700004477,None,138,0,137,352.20463599999493,,,,,,,,,,,,,,,,,,,,,,,,,,,,,,,,,,,,,,,,,,,,,,,,,,352.189658999996,352.20463599999493,352.7251421999972,352.6890377999953,352.7220121999999,352.7251421999972,352.7251421999972,352.7251421999972,353.9896676999924,Scenes\118b.jpg,pre,n,1.259884700004477,None,,,,,,,,00018,001,2026-01-20_15h46.27.618,MST_test,2024.2.0,59.79194794250772,2026-01-20 15h46.43.031323 +0530,
138,0,139,o,1.2256904999958351,None,139,0,138,354.0045446000004,,,,,,,,,,,,,,,,,,,,,,,,,,,,,,,,,,,,,,,,,,,,,,,,,,353.9900684000022,354.0045446000004,354.5352442000003,354.4888116999937,354.49438839999493,354.5352442000003,354.5352442000003,354.5352442000003,355.77300749999995,Objects\119a.jpg,pre,o,1.2256904999958351,None,,,,,,,,00018,001,2026-01-20_15h46.27.618,MST_test,2024.2.0,59.79194794250772,2026-01-20 15h46.43.031323 +0530,
139,0,140,s,1.316434799999115,None,140,0,139,355.78784299999825,,,,,,,,,,,,,,,,,,,,,,,,,,,,,,,,,,,,,,,,,,,,,,,,,,355.7733518000023,355.78784299999825,356.29152869999234,356.27228379998996,356.2883359999978,356.29152869999234,356.29152869999234,356.29152869999234,357.6217545999971,Scenes\142a.jpg,pre,s,1.316434799999115,None,,,,,,,,00018,001,2026-01-20_15h46.27.618,MST_test,2024.2.0,59.79194794250772,2026-01-20 15h46.43.031323 +0530,
140,0,141,s,1.9480256999959238,None,141,0,140,357.6374611999927,,,,,,,,,,,,,,,,,,,,,,,,,,,,,,,,,,,,,,,,,,,,,,,,,,357.62193029999617,357.6374611999927,358.15655960000004,358.12224250000145,358.15355249999266,358.15655960000004,358.15655960000004,358.15655960000004,360.1064861999912,Objects\070b.jpg,post,s,1.9480256999959238,None,,,,,,,,00018,001,2026-01-20_15h46.27.618,MST_test,2024.2.0,59.79194794250772,2026-01-20 15h46.43.031323 +0530,
141,0,142,o,1.270704200011096,None,142,0,141,360.12136589999136,,,,,,,,,,,,,,,,,,,,,,,,,,,,,,,,,,,,,,,,,,,,,,,,,,360.10691649999353,360.12136589999136,360.6253483000037,360.60566269999254,360.622323100004,360.6253483000037,360.6253483000037,360.6253483000037,361.90638819999003,Scenes\114a.jpg,post,o,1.270704200011096,None,,,,,,,,00018,001,2026-01-20_15h46.27.618,MST_test,2024.2.0,59.79194794250772,2026-01-20 15h46.43.031323 +0530,
142,0,143,o,1.4873133000073722,None,143,0,142,361.92132209999545,,,,,,,,,,,,,,,,,,,,,,,,,,,,,,,,,,,,,,,,,,,,,,,,,,361.9067803999933,361.92132209999545,362.4497005000012,362.4056303999969,362.44660699999076,362.4497005000012,362.4497005000012,362.4497005000012,363.9398078999948,Scenes\143b.jpg,pre,o,1.4873133000073722,None,,,,,,,,00018,001,2026-01-20_15h46.27.618,MST_test,2024.2.0,59.79194794250772,2026-01-20 15h46.43.031323 +0530,
143,0,144,s,1.2879327999980887,None,144,0,143,363.9544378999999,,,,,,,,,,,,,,,,,,,,,,,,,,,,,,,,,,,,,,,,,,,,,,,,,,363.9400985999964,363.9544378999999,364.48142579999694,364.4393432999932,364.4780880000035,364.48142579999694,364.48142579999694,364.48142579999694,365.7731727999926,Scenes\005b.jpg,post,s,1.2879327999980887,None,,,,,,,,00018,001,2026-01-20_15h46.27.618,MST_test,2024.2.0,59.79194794250772,2026-01-20 15h46.43.031323 +0530,
144,0,145,s,1.147844699997222,None,145,0,144,365.7878449999989,,,,,,,,,,,,,,,,,,,,,,,,,,,,,,,,,,,,,,,,,,,,,,,,,,365.7735648999951,365.7878449999989,366.3169887999975,366.27207730000373,366.3132869999972,366.3169887999975,366.3169887999975,366.3169887999975,367.47273320000386,Objects\051b.jpg,pre,s,1.147844699997222,None,,,,,,,,00018,001,2026-01-20_15h46.27.618,MST_test,2024.2.0,59.79194794250772,2026-01-20 15h46.43.031323 +0530,
145,0,146,o,1.8037983999965945,None,146,0,145,367.4879546000011,,,,,,,,,,,,,,,,,,,,,,,,,,,,,,,,,,,,,,,,,,,,,,,,,,367.47291450000193,367.4879546000011,367.9966781999974,367.9725219999964,367.9936886999931,367.9966781999974,367.9966781999974,367.9966781999974,369.8061574000021,Scenes\020a.jpg,mid,o,1.8037983999965945,None,,,,,,,,00018,001,2026-01-20_15h46.27.618,MST_test,2024.2.0,59.79194794250772,2026-01-20 15h46.43.031323 +0530,
146,0,147,o,1.1507343000121182,None,147,0,146,369.8211990999989,,,,,,,,,,,,,,,,,,,,,,,,,,,,,,,,,,,,,,,,,,,,,,,,,,369.8063919999986,369.8211990999989,370.3217246999993,370.30545749999874,370.31296529999236,370.3217246999993,370.3217246999993,370.3217246999993,371.4901444999996,Objects\131a.jpg,pre,o,1.1507343000121182,None,,,,,,,,00018,001,2026-01-20_15h46.27.618,MST_test,2024.2.0,59.79194794250772,2026-01-20 15h46.43.031323 +0530,
147,0,148,n,1.4458878000004916,None,148,0,147,371.5051276000013,,,,,,,,,,,,,,,,,,,,,,,,,,,,,,,,,,,,,,,,,,,,,,,,,,371.49049179999565,371.5051276000013,372.02675360000285,371.988981699993,372.02340939998976,372.02675360000285,372.02675360000285,372.02675360000285,373.4898194999987,Foils\050a.jpg,none,n,1.4458878000004916,None,,,,,,,,00018,001,2026-01-20_15h46.27.618,MST_test,2024.2.0,59.79194794250772,2026-01-20 15h46.43.031323 +0530,
148,0,149,n,2.066985500001465,None,149,0,148,373.50458459999936,,,,,,,,,,,,,,,,,,,,,,,,,,,,,,,,,,,,,,,,,,,,,,,,,,373.4902529999963,373.50458459999936,374.0209356999985,373.98914750000404,374.0174984999903,374.0209356999985,374.0209356999985,374.0209356999985,376.0910023999895,Foils\scenes1.jpg,none,n,2.066985500001465,None,,,,,,,,00018,001,2026-01-20_15h46.27.618,MST_test,2024.2.0,59.79194794250772,2026-01-20 15h46.43.031323 +0530,
149,0,150,o,1.4515121000004,None,150,0,149,376.104333700001,,,,,,,,,,,,,,,,,,,,,,,,,,,,,,,,,,,,,,,,,,,,,,,,,,376.0913353999931,376.104333700001,376.60565840000345,376.58910569999716,376.5950981999922,376.60565840000345,376.60565840000345,376.60565840000345,378.0730401999899,Objects\049a.jpg,mid,o,1.4515121000004,None,,,,,,,,00018,001,2026-01-20_15h46.27.618,MST_test,2024.2.0,59.79194794250772,2026-01-20 15h46.43.031323 +0530,
,,,,,,,,,,,,,,,,,,,,,,,,,,,,,,,,,,,,,,,,,,,,,,,,,,,,,,,,,,,,,,,,,,,,,,,,,378.07322429999476,378.0885823999997,378.0885823999997,379.5733864999929,space,1.472834200001671,None,00018,001,2026-01-20_15h46.27.618,MST_test,2024.2.0,59.79194794250772,2026-01-20 15h46.43.031323 +0530,
