Sl_no,image_path,thisN,thisTrialN,thisRepN,key_resp_5.keys,key_resp_5.rt,key_resp_5.duration,key_resp_7.keys,key_resp_9.keys,key_resp_9.rt,key_resp_9.duration,key_resp_8.keys,key_resp_8.rt,key_resp_8.duration,practice.thisRepN,practice.thisTrialN,practice.thisN,trials.thisRepN,trials.thisTrialN,trials.thisN,thisRow.t,notes,welcome_page.started,text.started,key_resp.started,welcome_page.stopped,key_resp.keys,key_resp.rt,key_resp.duration,instructions.started,ins.started,key_resp_2.started,instructions.stopped,key_resp_2.keys,key_resp_2.rt,key_resp_2.duration,objects_only_instruction.started,text_3.started,key_resp_3.started,objects_only_instruction.stopped,key_resp_3.keys,key_resp_3.rt,key_resp_3.duration,ISI.started,text_4.started,ISI.stopped,practice_block.started,image.started,text_5.started,key_resp_5.started,practice_block.stopped,practice.key_resp_5.keys,practice.key_resp_5.rt,practice.key_resp_5.duration,indoor_outdoor.started,indoor_outdoor.stopped,practice.key_resp_7.keys,text_4.stopped,image.stopped,text_5.stopped,key_resp_5.stopped,practice_to_main.started,text_2.started,key_resp_4.started,practice_to_main.stopped,key_resp_4.keys,key_resp_4.rt,key_resp_4.duration,objects.started,image_2.started,text_9.started,key_resp_9.started,objects.stopped,trials.key_resp_9.keys,trials.key_resp_9.rt,trials.key_resp_9.duration,encoding_task.started,encoding_task.stopped,trials.key_resp_8.keys,image_2.stopped,text_9.stopped,key_resp_9.stopped,text_8.started,key_resp_8.started,trials.key_resp_8.rt,trials.key_resp_8.duration,end_experiment.started,text_6.started,key_resp_6.started,end_experiment.stopped,key_resp_6.keys,key_resp_6.rt,key_resp_6.duration,list_of_stimuli,encoding_task_accuracy,participant,session,date,expName,psychopyVersion,frameRate,expStart,
,,,,,,,,,,,,,,,,,,,,,,,0.0019204000000172528,0.00408649999917543,0.00408649999917543,28.23083729999962,space,28.21355719999883,None,,,,,,,,,,,,,,,,,,,,,,,,,,,,,,,,,,,,,,,,,,,,,,,,,,,,,,,,,,,,,,,,,,,00015,001,2025-11-17_18h05.33.650,MST_task,2024.2.0,59.85185468911407,2025-11-17 18h05.42.494030 +0530,
,,,,,,,,,,,,,,,,,,,,,,,,,,,,,,28.230897699999332,28.24533169999995,28.24533169999995,70.89393410000048,space,42.64386899999954,None,,,,,,,,,,,,,,,,,,,,,,,,,,,,,,,,,,,,,,,,,,,,,,,,,,,,,,,,,,,,00015,001,2025-11-17_18h05.33.650,MST_task,2024.2.0,59.85185468911407,2025-11-17 18h05.42.494030 +0530,
,,,,,,,,,,,,,,,,,,,,,,,,,,,,,,,,,,,,,70.89405020000049,70.91350819999934,70.91350819999934,92.41095990000031,space,21.495388999999705,None,,,,,,,,,,,,,,,,,,,,,,,,,,,,,,,,,,,,,,,,,,,,,,,,,,,,,00015,001,2025-11-17_18h05.33.650,MST_task,2024.2.0,59.85185468911407,2025-11-17 18h05.42.494030 +0530,
10,practice_images/182a.jpg,0,0,1,f,1.2007905999998911,0.1592435000002297,None,,,,,,,1,0,0,,,,92.43706700000075,,,,,,,,,,,,,,,,,,,,,,,92.43465069999911,92.43706700000075,92.92545509999945,92.94181039999967,92.95288570000048,92.95288570000048,92.95288570000048,95.92582109999967,f,1.2007905999998911,0.1592435000002297,95.93261359999997,95.93264559999989,None,,,,,,,,,,,,,,,,,,,,,,,,,,,,,,,,,,,,,,,00015,001,2025-11-17_18h05.33.650,MST_task,2024.2.0,59.85185468911407,2025-11-17 18h05.42.494030 +0530,
1,practice_images/013a.jpg,1,1,1,j,1.092454200001157,0.15219319999960135,None,,,,,,,1,1,1,,,,95.94162519999918,,,,,,,,,,,,,,,,,,,,,,,95.93271379999896,95.94162519999918,96.42632720000074,96.44169370000054,96.44437739999921,96.44437739999921,96.44437739999921,99.44258459999946,j,1.092454200001157,0.15219319999960135,99.44280439999966,99.44287660000009,None,96.44437739999921,,,,,,,,,,,,,,,,,,,,,,,,,,,,,,,,,,,,,,00015,001,2025-11-17_18h05.33.650,MST_task,2024.2.0,59.85185468911407,2025-11-17 18h05.42.494030 +0530,
2,practice_images/031a.jpg,2,2,1,f,0.9470989999990707,0.15163190000021132,None,,,,,,,1,2,2,,,,99.45843740000055,,,,,,,,,,,,,,,,,,,,,,,99.44316919999983,99.45843740000055,99.94229230000019,99.95086479999918,99.95851819999916,99.95851819999916,99.95851819999916,102.94335309999951,f,0.9470989999990707,0.15163190000021132,102.94356349999907,102.94363189999967,None,99.95851819999916,102.95835710000028,102.95835710000028,102.95835710000028,,,,,,,,,,,,,,,,,,,,,,,,,,,,,,,,,,,00015,001,2025-11-17_18h05.33.650,MST_task,2024.2.0,59.85185468911407,2025-11-17 18h05.42.494030 +0530,
4,practice_images/002b.jpg,3,3,1,j,1.8223692999999912,0.1286378999993758,None,,,,,,,1,3,3,,,,102.95835710000028,,,,,,,,,,,,,,,,,,,,,,,102.94397620000018,102.95835710000028,103.44284080000034,103.45234100000016,103.4586175000004,103.4586175000004,103.4586175000004,106.4432997999993,j,1.8223692999999912,0.1286378999993758,106.4435269000005,106.44359319999967,None,103.4586175000004,106.45848689999912,106.45848689999912,106.45848689999912,,,,,,,,,,,,,,,,,,,,,,,,,,,,,,,,,,,00015,001,2025-11-17_18h05.33.650,MST_task,2024.2.0,59.85185468911407,2025-11-17 18h05.42.494030 +0530,
5,practice_images/139a.jpg,4,4,1,j,1.9366398000001936,0.12803289999828849,None,,,,,,,1,4,4,,,,106.45848689999912,,,,,,,,,,,,,,,,,,,,,,,106.44388450000042,106.45848689999912,106.94279649999953,106.95758170000045,106.96008149999943,106.96008149999943,106.96008149999943,109.95908079999936,j,1.9366398000001936,0.12803289999828849,109.95929269999942,109.95936000000074,None,106.96008149999943,,,,,,,,,,,,,,,,,,,,,,,,,,,,,,,,,,,,,,00015,001,2025-11-17_18h05.33.650,MST_task,2024.2.0,59.85185468911407,2025-11-17 18h05.42.494030 +0530,
8,practice_images/178a.jpg,5,5,1,j,1.5021751999993285,0.15191220000087924,None,,,,,,,1,5,5,,,,109.97479899999962,,,,,,,,,,,,,,,,,,,,,,,109.95966829999998,109.97479899999962,110.45980450000025,110.47295309999936,110.4752654999993,110.4752654999993,110.4752654999993,113.45960849999938,j,1.5021751999993285,0.15191220000087924,113.45979199999965,113.45984970000063,None,110.4752654999993,113.47495010000057,113.47495010000057,113.47495010000057,,,,,,,,,,,,,,,,,,,,,,,,,,,,,,,,,,,00015,001,2025-11-17_18h05.33.650,MST_task,2024.2.0,59.85185468911407,2025-11-17 18h05.42.494030 +0530,
9,practice_images/180a.jpg,6,6,1,f,0.802259399999457,0.1437502000007953,None,,,,,,,1,6,6,,,,113.47495010000057,,,,,,,,,,,,,,,,,,,,,,,113.46009389999926,113.47495010000057,113.95977540000058,113.97285159999956,113.97526789999938,113.97526789999938,113.97526789999938,116.95976709999923,f,0.802259399999457,0.1437502000007953,116.9599818000006,116.96004569999968,None,113.97526789999938,116.9749869999996,116.9749869999996,116.9749869999996,,,,,,,,,,,,,,,,,,,,,,,,,,,,,,,,,,,00015,001,2025-11-17_18h05.33.650,MST_task,2024.2.0,59.85185468911407,2025-11-17 18h05.42.494030 +0530,
3,practice_images/037a.jpg,7,7,1,f,1.1736289000000397,0.17618909999873722,None,,,,,,,1,7,7,,,,116.9749869999996,,,,,,,,,,,,,,,,,,,,,,,116.9603688999996,116.9749869999996,117.45983390000038,117.47318230000019,117.47552010000072,117.47552010000072,117.47552010000072,120.46063499999946,f,1.1736289000000397,0.17618909999873722,120.46081029999914,120.46085780000067,None,117.47552010000072,120.47503300000062,120.47503300000062,120.47503300000062,,,,,,,,,,,,,,,,,,,,,,,,,,,,,,,,,,,00015,001,2025-11-17_18h05.33.650,MST_task,2024.2.0,59.85185468911407,2025-11-17 18h05.42.494030 +0530,
7,practice_images/166a.jpg,8,8,1,f,1.6251647999997658,0.2152139999998326,None,,,,,,,1,8,8,,,,120.47503300000062,,,,,,,,,,,,,,,,,,,,,,,120.46105940000052,120.47503300000062,120.95953290000034,120.97399229999974,120.97641189999922,120.97641189999922,120.97641189999922,123.97556869999971,f,1.6251647999997658,0.2152139999998326,123.97581209999953,123.97587960000055,None,120.97641189999922,,,,,,,,,,,,,,,,,,,,,,,,,,,,,,,,,,,,,,00015,001,2025-11-17_18h05.33.650,MST_task,2024.2.0,59.85185468911407,2025-11-17 18h05.42.494030 +0530,
6,practice_images/158a.jpg,9,9,1,j,1.0105817000003299,0.2634548999994877,None,,,,,,,1,9,9,,,,123.99179720000029,,,,,,,,,,,,,,,,,,,,,,,123.97616659999949,123.99179720000029,124.47622009999941,124.49271889999909,124.49530910000067,124.49530910000067,124.49530910000067,127.4921861999992,j,1.0105817000003299,0.2634548999994877,127.49237489999905,127.4924346000007,None,124.49530910000067,,,,,,,,,,,,,,,,,,,,,,,,,,,,,,,,,,,,,,00015,001,2025-11-17_18h05.33.650,MST_task,2024.2.0,59.85185468911407,2025-11-17 18h05.42.494030 +0530,
,,,,,,,,,,,,,,,,,,,,,,,,,,,,,,,,,,,,,,,,,,,,,,,,,,,,,,,,,,,,,,127.49260460000005,127.5083553000004,127.5083553000004,179.5773463000005,space,52.0612183000012,None,,,,,,,,,,,,,,,,,,,,,,,,,,,,00015,001,2025-11-17_18h05.33.650,MST_task,2024.2.0,59.85185468911407,2025-11-17 18h05.42.494030 +0530,
,Objects\039a.jpg,0,0,1,,,,,j,0.9711959999985993,0.14410350000071048,None,,,,,,1,0,0,179.5917989999998,,,,,,,,,,,,,,,,,,,,,,,179.58022340000025,179.5917989999998,180.07549300000028,,,,,,,,,,,,180.09381629999916,,,,,,,,,,,180.08988089999912,180.09381629999916,180.09381629999916,180.09381629999916,183.0923459000005,j,0.9711959999985993,0.14410350000071048,183.09915720000026,183.09920760000023,None,,,,,,,,,,,,,,,,,00015,001,2025-11-17_18h05.33.650,MST_task,2024.2.0,59.85185468911407,2025-11-17 18h05.42.494030 +0530,
,Objects\078a.jpg,1,0,2,,,,,j,1.9908085000006395,0.12954739999986487,None,,,,,,2,0,1,183.10827699999936,,,,,,,,,,,,,,,,,,,,,,,183.09945519999928,183.10827699999936,183.5929268,,,,,,,,,,,,183.61005889999979,,,,,,,,,,,183.6074607999999,183.61005889999979,183.61005889999979,183.61005889999979,186.60901419999936,j,1.9908085000006395,0.12954739999986487,186.60921860000053,186.60927919999995,None,,,,,,,,,,,,,,,,,00015,001,2025-11-17_18h05.33.650,MST_task,2024.2.0,59.85185468911407,2025-11-17 18h05.42.494030 +0530,
,Objects\026a.jpg,2,0,3,,,,,f,2.003599399999075,0.16748530000040773,None,,,,,,3,0,2,186.62495780000063,,,,,,,,,,,,,,,,,,,,,,,186.60957640000015,186.62495780000063,187.10957059999964,,,,,,,,,,,,187.1258156999993,,,,,,,,,,,187.12336250000044,187.1258156999993,187.1258156999993,187.1258156999993,190.11017600000014,f,2.003599399999075,0.16748530000040773,190.11038480000025,190.1104295999994,None,190.12511059999997,190.12511059999997,190.12511059999997,,,,,,,,,,,,,,00015,001,2025-11-17_18h05.33.650,MST_task,2024.2.0,59.85185468911407,2025-11-17 18h05.42.494030 +0530,
,Objects\090a.jpg,3,0,4,,,,,j,1.165865599999961,0.14404189999913797,None,,,,,,4,0,3,190.12511059999997,,,,,,,,,,,,,,,,,,,,,,,190.1107262000005,190.12511059999997,190.60973310000008,,,,,,,,,,,,190.62744120000025,,,,,,,,,,,190.62488010000015,190.62744120000025,190.62744120000025,190.62744120000025,193.62567370000033,j,1.165865599999961,0.14404189999913797,193.62590900000032,193.6259611000005,None,,,,,,,,,,,,,,,,,00015,001,2025-11-17_18h05.33.650,MST_task,2024.2.0,59.85185468911407,2025-11-17 18h05.42.494030 +0530,
,Objects\103a.jpg,4,0,5,,,,,f,1.082881099999213,0.1747352000002138,None,,,,,,5,0,4,193.6417108000005,,,,,,,,,,,,,,,,,,,,,,,193.6262110000007,193.6417108000005,194.12624510000023,,,,,,,,,,,,194.14324250000027,,,,,,,,,,,194.1407825999995,194.14324250000027,194.14324250000027,194.14324250000027,197.14239599999928,f,1.082881099999213,0.1747352000002138,197.14271820000067,197.14278419999937,None,,,,,,,,,,,,,,,,,00015,001,2025-11-17_18h05.33.650,MST_task,2024.2.0,59.85185468911407,2025-11-17 18h05.42.494030 +0530,
,Objects\148a.jpg,5,0,6,,,,,f,1.1804626000011922,0.15975280000020575,None,,,,,,6,0,5,197.15835979999974,,,,,,,,,,,,,,,,,,,,,,,197.1431687000004,197.15835979999974,197.64290319999964,,,,,,,,,,,,197.66057320000073,,,,,,,,,,,197.6579698000005,197.66057320000073,197.66057320000073,197.66057320000073,200.6591325999998,f,1.1804626000011922,0.15975280000020575,200.65935659999923,200.65941720000046,None,,,,,,,,,,,,,,,,,00015,001,2025-11-17_18h05.33.650,MST_task,2024.2.0,59.85185468911407,2025-11-17 18h05.42.494030 +0530,
,Objects\097a.jpg,6,0,7,,,,,j,0.9412437999999383,0.16788129999986268,None,,,,,,7,0,6,200.67508739999903,,,,,,,,,,,,,,,,,,,,,,,200.65972229999898,200.67508739999903,201.15956709999955,,,,,,,,,,,,201.18013129999963,,,,,,,,,,,201.1774519999999,201.18013129999963,201.18013129999963,201.18013129999963,204.17584410000018,j,0.9412437999999383,0.16788129999986268,204.17608049999944,204.17614329999924,None,,,,,,,,,,,,,,,,,00015,001,2025-11-17_18h05.33.650,MST_task,2024.2.0,59.85185468911407,2025-11-17 18h05.42.494030 +0530,
,Scenes\085a.jpg,7,0,8,,,,,j,0.9378845999999612,0.17677270000058343,None,,,,,,8,0,7,204.191877199999,,,,,,,,,,,,,,,,,,,,,,,204.17644130000008,204.191877199999,204.67631099999926,,,,,,,,,,,,204.70298729999922,,,,,,,,,,,204.69975279999926,204.70298729999922,204.70298729999922,204.70298729999922,207.69257149999976,j,0.9378845999999612,0.17677270000058343,207.6928016999991,207.69286189999912,None,,,,,,,,,,,,,,,,,00015,001,2025-11-17_18h05.33.650,MST_task,2024.2.0,59.85185468911407,2025-11-17 18h05.42.494030 +0530,
,Scenes\061a.jpg,8,0,9,,,,,j,1.5041476999995211,0.17659240000102727,None,,,,,,9,0,8,207.7085764000003,,,,,,,,,,,,,,,,,,,,,,,207.693231199999,207.7085764000003,208.19313370000054,,,,,,,,,,,,208.2166641999993,,,,,,,,,,,208.21394510000027,208.2166641999993,208.2166641999993,208.2166641999993,211.2091574999995,j,1.5041476999995211,0.17659240000102727,211.20938580000075,211.20944539999982,None,,,,,,,,,,,,,,,,,00015,001,2025-11-17_18h05.33.650,MST_task,2024.2.0,59.85185468911407,2025-11-17 18h05.42.494030 +0530,
,Scenes\002a.jpg,9,0,10,,,,,j,1.288879800000359,0.21551189999991038,None,,,,,,10,0,9,211.2251880999993,,,,,,,,,,,,,,,,,,,,,,,211.20982840000033,211.2251880999993,211.70969499999956,,,,,,,,,,,,211.73685309999928,,,,,,,,,,,211.73330489999898,211.73685309999928,211.73685309999928,211.73685309999928,214.72577959999944,j,1.288879800000359,0.21551189999991038,214.7259916999992,214.72605169999952,None,,,,,,,,,,,,,,,,,00015,001,2025-11-17_18h05.33.650,MST_task,2024.2.0,59.85185468911407,2025-11-17 18h05.42.494030 +0530,
,Scenes\086a.jpg,10,0,11,,,,,j,1.989219700000831,0.18353190000016184,None,,,,,,11,0,10,214.74178159999974,,,,,,,,,,,,,,,,,,,,,,,214.72643980000066,214.74178159999974,215.22619610000038,,,,,,,,,,,,215.25241350000033,,,,,,,,,,,215.2488147999993,215.25241350000033,215.25241350000033,215.25241350000033,218.24265670000023,j,1.989219700000831,0.18353190000016184,218.24286570000004,218.2429271000001,None,,,,,,,,,,,,,,,,,00015,001,2025-11-17_18h05.33.650,MST_task,2024.2.0,59.85185468911407,2025-11-17 18h05.42.494030 +0530,
,Scenes\155a.jpg,11,0,12,,,,,j,1.9158845000001747,0.23299729999962437,None,,,,,,12,0,11,218.25856199999907,,,,,,,,,,,,,,,,,,,,,,,218.24322679999932,218.25856199999907,218.74326110000038,,,,,,,,,,,,218.76526270000068,,,,,,,,,,,218.7618175000007,218.76526270000068,218.76526270000068,218.76526270000068,221.75916340000003,j,1.9158845000001747,0.23299729999962437,221.75939309999922,221.7594566000007,None,,,,,,,,,,,,,,,,,00015,001,2025-11-17_18h05.33.650,MST_task,2024.2.0,59.85185468911407,2025-11-17 18h05.42.494030 +0530,
,Scenes\018a.jpg,12,0,13,,,,,f,2.256267700000535,0.22386589999950957,None,,,,,,13,0,12,221.77522139999928,,,,,,,,,,,,,,,,,,,,,,,221.75984319999952,221.77522139999928,222.25969629999963,,,,,,,,,,,,222.28080190000037,,,,,,,,,,,222.2773634999994,222.28080190000037,222.28080190000037,222.28080190000037,225.2757916999999,f,2.256267700000535,0.22386589999950957,225.27601139999933,225.27606960000048,None,,,,,,,,,,,,,,,,,00015,001,2025-11-17_18h05.33.650,MST_task,2024.2.0,59.85185468911407,2025-11-17 18h05.42.494030 +0530,
,Scenes\175a.jpg,13,0,14,,,,,j,1.723841099999845,0.2958693000000494,None,,,,,,14,0,13,225.29185099999995,,,,,,,,,,,,,,,,,,,,,,,225.27636960000018,225.29185099999995,225.77638579999984,,,,,,,,,,,,225.79789150000033,,,,,,,,,,,225.79469579999932,225.79789150000033,225.79789150000033,225.79789150000033,228.79267609999988,j,1.723841099999845,0.2958693000000494,228.7929024999994,228.79296260000046,None,,,,,,,,,,,,,,,,,00015,001,2025-11-17_18h05.33.650,MST_task,2024.2.0,59.85185468911407,2025-11-17 18h05.42.494030 +0530,
,Objects\052a.jpg,14,0,15,,,,,f,1.5044840999998996,0.2721961999995983,None,,,,,,15,0,14,228.80849359999957,,,,,,,,,,,,,,,,,,,,,,,228.79326050000054,228.80849359999957,229.29320740000003,,,,,,,,,,,,229.31253169999945,,,,,,,,,,,229.30923230000008,229.31253169999945,229.31253169999945,229.31253169999945,232.3093506999994,f,1.5044840999998996,0.2721961999995983,232.30958739999915,232.30966210000042,None,,,,,,,,,,,,,,,,,00015,001,2025-11-17_18h05.33.650,MST_task,2024.2.0,59.85185468911407,2025-11-17 18h05.42.494030 +0530,
,Objects\192a.jpg,15,0,16,,,,,j,1.2777248000002146,0.22395349999897007,None,,,,,,16,0,15,232.32523949999995,,,,,,,,,,,,,,,,,,,,,,,232.3099628,232.32523949999995,232.80975650000073,,,,,,,,,,,,232.82755030000044,,,,,,,,,,,232.82469370000035,232.82755030000044,232.82755030000044,232.82755030000044,235.8257403000007,j,1.2777248000002146,0.22395349999897007,235.8259567999994,235.82602310000038,None,,,,,,,,,,,,,,,,,00015,001,2025-11-17_18h05.33.650,MST_task,2024.2.0,59.85185468911407,2025-11-17 18h05.42.494030 +0530,
,Objects\140a.jpg,16,0,17,,,,,f,1.55832940000073,0.19164660000024014,None,,,,,,17,0,16,235.8419699999995,,,,,,,,,,,,,,,,,,,,,,,235.82629629999974,235.8419699999995,236.32599010000013,,,,,,,,,,,,236.34686499999953,,,,,,,,,,,236.34427890000006,236.34686499999953,236.34686499999953,236.34686499999953,239.34246069999972,f,1.55832940000073,0.19164660000024014,239.34268279999924,239.3427441999993,None,,,,,,,,,,,,,,,,,00015,001,2025-11-17_18h05.33.650,MST_task,2024.2.0,59.85185468911407,2025-11-17 18h05.42.494030 +0530,
,Objects\043a.jpg,17,0,18,,,,,j,2.58201949999966,0.24107420000109414,None,,,,,,18,0,17,239.35864330000004,,,,,,,,,,,,,,,,,,,,,,,239.3430386,239.35864330000004,239.84310369999912,,,,,,,,,,,,239.85883079999985,,,,,,,,,,,239.85606430000007,239.85883079999985,239.85883079999985,239.85883079999985,242.84373179999966,j,2.58201949999966,0.24107420000109414,242.84397750000062,242.84404189999987,None,242.85850849999952,242.85850849999952,242.85850849999952,,,,,,,,,,,,,,00015,001,2025-11-17_18h05.33.650,MST_task,2024.2.0,59.85185468911407,2025-11-17 18h05.42.494030 +0530,
,Objects\015a.jpg,18,0,19,,,,,f,2.432297399998788,0.23958149999998568,None,,,,,,19,0,18,242.85850849999952,,,,,,,,,,,,,,,,,,,,,,,242.84434560000045,242.85850849999952,243.34298800000033,,,,,,,,,,,,243.36110120000012,,,,,,,,,,,243.35843860000023,243.36110120000012,243.36110120000012,243.36110120000012,246.35909290000018,f,2.432297399998788,0.23958149999998568,246.3593125999996,246.35937059999924,None,,,,,,,,,,,,,,,,,00015,001,2025-11-17_18h05.33.650,MST_task,2024.2.0,59.85185468911407,2025-11-17 18h05.42.494030 +0530,
,Objects\186a.jpg,19,0,20,,,,,f,1.475578300000052,0.23256920000130776,None,,,,,,20,0,19,246.37507750000077,,,,,,,,,,,,,,,,,,,,,,,246.35976180000034,246.37507750000077,246.85997959999986,,,,,,,,,,,,246.87757509999938,,,,,,,,,,,246.87486220000028,246.87757509999938,246.87757509999938,246.87757509999938,249.87598590000016,f,1.475578300000052,0.23256920000130776,249.87622600000032,249.87628760000007,None,,,,,,,,,,,,,,,,,00015,001,2025-11-17_18h05.33.650,MST_task,2024.2.0,59.85185468911407,2025-11-17 18h05.42.494030 +0530,
,Objects\179a.jpg,20,0,21,,,,,f,2.6869859999987966,0.19284739999966405,None,,,,,,21,0,20,249.89172230000077,,,,,,,,,,,,,,,,,,,,,,,249.87658999999985,249.89172230000077,250.37623019999955,,,,,,,,,,,,250.39395250000052,,,,,,,,,,,250.39132969999991,250.39395250000052,250.39395250000052,250.39395250000052,253.39243449999958,f,2.6869859999987966,0.19284739999966405,253.3927554999991,253.3928223999992,None,,,,,,,,,,,,,,,,,00015,001,2025-11-17_18h05.33.650,MST_task,2024.2.0,59.85185468911407,2025-11-17 18h05.42.494030 +0530,
,Scenes\092a.jpg,21,0,22,,,,,j,2.12194079999972,0.23196160000043164,None,,,,,,22,0,21,253.40835030000017,,,,,,,,,,,,,,,,,,,,,,,253.39320000000043,253.40835030000017,253.89298459999918,,,,,,,,,,,,253.91935000000012,,,,,,,,,,,253.9161693999995,253.91935000000012,253.91935000000012,253.91935000000012,256.90894209999897,j,2.12194079999972,0.23196160000043164,256.9092127999993,256.90927399999964,None,,,,,,,,,,,,,,,,,00015,001,2025-11-17_18h05.33.650,MST_task,2024.2.0,59.85185468911407,2025-11-17 18h05.42.494030 +0530,
,Scenes\030a.jpg,22,0,23,,,,,j,1.8694378000000142,0.23984660000132862,None,,,,,,23,0,22,256.92495059999965,,,,,,,,,,,,,,,,,,,,,,,256.9095684999993,256.92495059999965,257.4094143000002,,,,,,,,,,,,257.4356943999992,,,,,,,,,,,257.43247920000067,257.4356943999992,257.4356943999992,257.4356943999992,260.42559119999896,j,1.8694378000000142,0.23984660000132862,260.42582199999924,260.42587549999917,None,,,,,,,,,,,,,,,,,00015,001,2025-11-17_18h05.33.650,MST_task,2024.2.0,59.85185468911407,2025-11-17 18h05.42.494030 +0530,
,Scenes\097a.jpg,23,0,24,,,,,f,1.3890171999992162,0.19237100000100327,None,,,,,,24,0,23,260.4417178999993,,,,,,,,,,,,,,,,,,,,,,,260.4261368999996,260.4417178999993,260.9261587000001,,,,,,,,,,,,260.9481087999993,,,,,,,,,,,260.94490360000054,260.9481087999993,260.9481087999993,260.9481087999993,263.94249449999916,f,1.3890171999992162,0.19237100000100327,263.94275879999987,263.94281910000063,None,,,,,,,,,,,,,,,,,00015,001,2025-11-17_18h05.33.650,MST_task,2024.2.0,59.85185468911407,2025-11-17 18h05.42.494030 +0530,
,Scenes\112a.jpg,24,0,25,,,,,f,2.2924406999991334,0.22404719999940426,None,,,,,,25,0,24,263.95856119999917,,,,,,,,,,,,,,,,,,,,,,,263.9432068999995,263.95856119999917,264.4421461000002,,,,,,,,,,,,264.46100900000056,,,,,,,,,,,264.4575396,264.46100900000056,264.46100900000056,264.46100900000056,267.4591626000001,f,2.2924406999991334,0.22404719999940426,267.4593989999994,267.4594615999995,None,,,,,,,,,,,,,,,,,00015,001,2025-11-17_18h05.33.650,MST_task,2024.2.0,59.85185468911407,2025-11-17 18h05.42.494030 +0530,
,Scenes\088a.jpg,25,0,26,,,,,j,1.4009812000003876,0.20836589999998978,None,,,,,,26,0,25,267.47509609999906,,,,,,,,,,,,,,,,,,,,,,,267.45976429999973,267.47509609999906,267.95941719999973,,,,,,,,,,,,267.9921252999993,,,,,,,,,,,267.9886556999991,267.9921252999993,267.9921252999993,267.9921252999993,270.9754735000006,j,1.4009812000003876,0.20836589999998978,270.9756932,270.9757518000006,None,,,,,,,,,,,,,,,,,00015,001,2025-11-17_18h05.33.650,MST_task,2024.2.0,59.85185468911407,2025-11-17 18h05.42.494030 +0530,
,Scenes\031a.jpg,26,0,27,,,,,f,2.1479785999999876,0.199064599999474,None,,,,,,27,0,26,270.9917585000003,,,,,,,,,,,,,,,,,,,,,,,270.9761288999998,270.9917585000003,271.4761662000001,,,,,,,,,,,,271.5098247999995,,,,,,,,,,,271.50624790000074,271.5098247999995,271.5098247999995,271.5098247999995,274.4926018999995,f,2.1479785999999876,0.199064599999474,274.4928285999995,274.4928932999992,None,,,,,,,,,,,,,,,,,00015,001,2025-11-17_18h05.33.650,MST_task,2024.2.0,59.85185468911407,2025-11-17 18h05.42.494030 +0530,
,Scenes\005a.jpg,27,0,28,,,,,f,2.3730082000001858,0.2315417999998317,None,,,,,,28,0,27,274.5085490999991,,,,,,,,,,,,,,,,,,,,,,,274.4932764999994,274.5085490999991,274.9933123999999,,,,,,,,,,,,275.02030150000064,,,,,,,,,,,275.01693929999965,275.02030150000064,275.02030150000064,275.02030150000064,278.00909780000075,f,2.3730082000001858,0.2315417999998317,278.00931859999946,278.00937820000036,None,,,,,,,,,,,,,,,,,00015,001,2025-11-17_18h05.33.650,MST_task,2024.2.0,59.85185468911407,2025-11-17 18h05.42.494030 +0530,
,Objects\055a.jpg,28,0,29,,,,,f,0.8696689000007609,0.2476580999991711,None,,,,,,29,0,28,278.0250140999997,,,,,,,,,,,,,,,,,,,,,,,278.0096794000001,278.0250140999997,278.5096862999999,,,,,,,,,,,,278.5313062999994,,,,,,,,,,,278.5280813999998,278.5313062999994,278.5313062999994,278.5313062999994,281.5254695000003,f,0.8696689000007609,0.2476580999991711,281.5256611999994,281.52571680000074,None,,,,,,,,,,,,,,,,,00015,001,2025-11-17_18h05.33.650,MST_task,2024.2.0,59.85185468911407,2025-11-17 18h05.42.494030 +0530,
,Objects\018a.jpg,29,0,30,,,,,j,1.805951999998797,0.21648869999989984,None,,,,,,30,0,29,281.5417553999996,,,,,,,,,,,,,,,,,,,,,,,281.525988899999,281.5417553999996,282.0261322999995,,,,,,,,,,,,282.04334890000064,,,,,,,,,,,282.04066430000057,282.04334890000064,282.04334890000064,282.04334890000064,285.04241530000036,j,1.805951999998797,0.21648869999989984,285.04267869999967,285.04273900000044,None,,,,,,,,,,,,,,,,,00015,001,2025-11-17_18h05.33.650,MST_task,2024.2.0,59.85185468911407,2025-11-17 18h05.42.494030 +0530,
,Objects\001a.jpg,30,0,31,,,,,f,1.7019368000001123,0.2719531000002462,None,,,,,,31,0,30,285.0584345999996,,,,,,,,,,,,,,,,,,,,,,,285.0431867999996,285.0584345999996,285.54320989999906,,,,,,,,,,,,285.5630691000006,,,,,,,,,,,285.5604736999994,285.5630691000006,285.5630691000006,285.5630691000006,288.5593121999991,f,1.7019368000001123,0.2719531000002462,288.5595584999992,288.55961840000055,None,,,,,,,,,,,,,,,,,00015,001,2025-11-17_18h05.33.650,MST_task,2024.2.0,59.85185468911407,2025-11-17 18h05.42.494030 +0530,
,Objects\075a.jpg,31,0,32,,,,,j,1.688777299999856,0.2323690000011993,None,,,,,,32,0,31,288.5749161999993,,,,,,,,,,,,,,,,,,,,,,,288.5599173999999,288.5749161999993,289.05971060000047,,,,,,,,,,,,289.0806969999994,,,,,,,,,,,289.078110299999,289.0806969999994,289.0806969999994,289.0806969999994,292.07544079999934,j,1.688777299999856,0.2323690000011993,292.0756443999999,292.07570269999997,None,,,,,,,,,,,,,,,,,00015,001,2025-11-17_18h05.33.650,MST_task,2024.2.0,59.85185468911407,2025-11-17 18h05.42.494030 +0530,
,Objects\184a.jpg,32,0,33,,,,,j,2.191640799999732,0.20785649999925226,None,,,,,,33,0,32,292.0917565,,,,,,,,,,,,,,,,,,,,,,,292.0760878000001,292.0917565,292.57625279999957,,,,,,,,,,,,292.59360259999994,,,,,,,,,,,292.59097760000077,292.59360259999994,292.59360259999994,292.59360259999994,295.5923105999991,j,2.191640799999732,0.20785649999925226,295.59252729999935,295.59258690000024,None,,,,,,,,,,,,,,,,,00015,001,2025-11-17_18h05.33.650,MST_task,2024.2.0,59.85185468911407,2025-11-17 18h05.42.494030 +0530,
,Objects\104a.jpg,33,0,34,,,,,f,1.8595681999995577,0.25618460000077903,None,,,,,,34,0,33,295.6084417999991,,,,,,,,,,,,,,,,,,,,,,,295.59297139999944,295.6084417999991,296.0929309999992,,,,,,,,,,,,296.109981399999,,,,,,,,,,,296.10733880000043,296.109981399999,296.109981399999,296.109981399999,299.1090442000004,f,1.8595681999995577,0.25618460000077903,299.1092736999999,299.109332,None,,,,,,,,,,,,,,,,,00015,001,2025-11-17_18h05.33.650,MST_task,2024.2.0,59.85185468911407,2025-11-17 18h05.42.494030 +0530,
,Objects\123a.jpg,34,0,35,,,,,j,1.9065024999999878,0.21604470000056608,None,,,,,,35,0,34,299.124903599999,,,,,,,,,,,,,,,,,,,,,,,299.1097212000004,299.124903599999,299.6093894000005,,,,,,,,,,,,299.6306815000007,,,,,,,,,,,299.62762850000036,299.6306815000007,299.6306815000007,299.6306815000007,302.6258531000003,j,1.9065024999999878,0.21604470000056608,302.62611839999954,302.6261749999994,None,,,,,,,,,,,,,,,,,00015,001,2025-11-17_18h05.33.650,MST_task,2024.2.0,59.85185468911407,2025-11-17 18h05.42.494030 +0530,
,Scenes\044a.jpg,35,0,36,,,,,j,2.8743656999995437,None,None,,,,,,36,0,35,302.6417813999997,,,,,,,,,,,,,,,,,,,,,,,302.62644739999996,302.6417813999997,303.12624909999977,,,,,,,,,,,,303.15135720000035,,,,,,,,,,,303.1483200999992,303.15135720000035,303.15135720000035,303.15135720000035,306.14244139999937,j,2.8743656999995437,None,306.1426350999991,306.142688599999,None,,,,,,,,,,,,,,,,,00015,001,2025-11-17_18h05.33.650,MST_task,2024.2.0,59.85185468911407,2025-11-17 18h05.42.494030 +0530,
,Scenes\063a.jpg,36,0,37,,,,,j,1.8982711999997264,0.2238617000002705,None,,,,,,37,0,36,306.1586131999993,,,,,,,,,,,,,,,,,,,,,,,306.14295739999943,306.1586131999993,306.64275859999907,,,,,,,,,,,,306.6708531000004,,,,,,,,,,,306.6674731000003,306.6708531000004,306.6708531000004,306.6708531000004,309.65919269999904,j,1.8982711999997264,0.2238617000002705,309.65941770000063,309.6594786000005,None,,,,,,,,,,,,,,,,,00015,001,2025-11-17_18h05.33.650,MST_task,2024.2.0,59.85185468911407,2025-11-17 18h05.42.494030 +0530,
,Scenes\081a.jpg,37,0,38,,,,,j,1.1016584000008152,0.2155901999994967,None,,,,,,38,0,37,309.6749445000005,,,,,,,,,,,,,,,,,,,,,,,309.65985569999975,309.6749445000005,310.1597273999996,,,,,,,,,,,,310.18801150000036,,,,,,,,,,,310.1848465999992,310.18801150000036,310.18801150000036,310.18801150000036,313.1754531000006,j,1.1016584000008152,0.2155901999994967,313.1756975999997,313.1757584999996,None,,,,,,,,,,,,,,,,,00015,001,2025-11-17_18h05.33.650,MST_task,2024.2.0,59.85185468911407,2025-11-17 18h05.42.494030 +0530,
,Scenes\161a.jpg,38,0,39,,,,,j,1.89059989999987,0.19267650000074354,None,,,,,,39,0,38,313.1918418000005,,,,,,,,,,,,,,,,,,,,,,,313.1761397999999,313.1918418000005,313.6762084000002,,,,,,,,,,,,313.7023792,,,,,,,,,,,313.69971989999976,313.7023792,313.7023792,313.7023792,316.6924517000007,j,1.89059989999987,0.19267650000074354,316.69283410000025,316.6929135999999,None,,,,,,,,,,,,,,,,,00015,001,2025-11-17_18h05.33.650,MST_task,2024.2.0,59.85185468911407,2025-11-17 18h05.42.494030 +0530,
,Scenes\017a.jpg,39,0,40,,,,,None,,,f,2.288551199999347,None,,,,40,0,39,316.7083925000006,,,,,,,,,,,,,,,,,,,,,,,316.6932968000001,316.7083925000006,317.193196799999,,,,,,,,,,,,317.2206067999996,,,,,,,,,,,317.21722950000003,317.2206067999996,317.2206067999996,317.2206067999996,320.20910209999965,None,,,320.209425699999,322.52701720000005,f,,,,320.22485849999975,320.22485849999975,2.288551199999347,None,,,,,,,,,,00015,001,2025-11-17_18h05.33.650,MST_task,2024.2.0,59.85185468911407,2025-11-17 18h05.42.494030 +0530,
,Scenes\171a.jpg,40,0,41,,,,,f,2.2878160000000207,0.2162213999999949,None,,,,,,41,0,40,322.5416014000002,,,,,,,,,,,,,,,,,,,,,,,322.52750449999985,322.5416014000002,323.0261544999994,,,,,,,,,,,,323.0571751999996,,,,,,,,,,,323.05360699999983,323.0571751999996,323.0571751999996,323.0571751999996,326.0424105000002,f,2.2878160000000207,0.2162213999999949,326.0426170999999,326.0427099000008,None,,,,,,,,,,,,,,,,,00015,001,2025-11-17_18h05.33.650,MST_task,2024.2.0,59.85185468911407,2025-11-17 18h05.42.494030 +0530,
,Scenes\022a.jpg,41,0,42,,,,,j,1.7110171000003902,0.23232939999979862,None,,,,,,42,0,41,326.0585037000001,,,,,,,,,,,,,,,,,,,,,,,326.04309400000056,326.0585037000001,326.5426485000007,,,,,,,,,,,,326.56229410000014,,,,,,,,,,,326.55887169999914,326.56229410000014,326.56229410000014,326.56229410000014,329.5591002000001,j,1.7110171000003902,0.23232939999979862,329.55931950000013,329.5593800000006,None,,,,,,,,,,,,,,,,,00015,001,2025-11-17_18h05.33.650,MST_task,2024.2.0,59.85185468911407,2025-11-17 18h05.42.494030 +0530,
,Objects\002a.jpg,42,0,43,,,,,f,2.7065929000000324,0.20728779999990365,None,,,,,,43,0,42,329.57515310000053,,,,,,,,,,,,,,,,,,,,,,,329.5597703000003,329.57515310000053,330.0597763000005,,,,,,,,,,,,330.0794982999996,,,,,,,,,,,330.07608319999963,330.0794982999996,330.0794982999996,330.0794982999996,333.07593219999944,f,2.7065929000000324,0.20728779999990365,333.0761653999998,333.0762623999999,None,,,,,,,,,,,,,,,,,00015,001,2025-11-17_18h05.33.650,MST_task,2024.2.0,59.85185468911407,2025-11-17 18h05.42.494030 +0530,
,Objects\047a.jpg,43,0,44,,,,,f,0.9739019000007829,0.19978959999934887,None,,,,,,44,0,43,333.09192489999987,,,,,,,,,,,,,,,,,,,,,,,333.0766454000004,333.09192489999987,333.57636189999903,,,,,,,,,,,,333.5950587999996,,,,,,,,,,,333.5922456999997,333.5950587999996,333.5950587999996,333.5950587999996,336.5925802999991,f,0.9739019000007829,0.19978959999934887,336.59279360000073,336.5928502000006,None,,,,,,,,,,,,,,,,,00015,001,2025-11-17_18h05.33.650,MST_task,2024.2.0,59.85185468911407,2025-11-17 18h05.42.494030 +0530,
,Objects\091a.jpg,44,0,45,,,,,j,1.8726780999986659,0.22434140000041225,None,,,,,,45,0,44,336.60855620000075,,,,,,,,,,,,,,,,,,,,,,,336.5932188000006,336.60855620000075,337.093300999999,,,,,,,,,,,,337.11240759999964,,,,,,,,,,,337.10940950000077,337.11240759999964,337.11240759999964,337.11240759999964,340.1088034000004,j,1.8726780999986659,0.22434140000041225,340.10895920000075,340.10900129999936,None,,,,,,,,,,,,,,,,,00015,001,2025-11-17_18h05.33.650,MST_task,2024.2.0,59.85185468911407,2025-11-17 18h05.42.494030 +0530,
,Objects\021a.jpg,45,0,46,,,,,None,,,f,1.822855200000049,None,,,,46,0,45,340.12484760000007,,,,,,,,,,,,,,,,,,,,,,,340.1092671999995,340.12484760000007,340.60970950000046,,,,,,,,,,,,340.62987280000016,,,,,,,,,,,340.62726010000006,340.62987280000016,340.62987280000016,340.62987280000016,343.6256701000002,None,,,343.62585579999904,345.4772078999995,f,,,,343.6419704,343.6419704,1.822855200000049,None,,,,,,,,,,00015,001,2025-11-17_18h05.33.650,MST_task,2024.2.0,59.85185468911407,2025-11-17 18h05.42.494030 +0530,
,Objects\053a.jpg,46,0,47,,,,,f,1.6974067999999534,0.2080100000002858,None,,,,,,47,0,46,345.4919786999999,,,,,,,,,,,,,,,,,,,,,,,345.4775910999997,345.4919786999999,345.9757071999993,,,,,,,,,,,,345.9920241,,,,,,,,,,,345.98865990000013,345.9920241,345.9920241,345.9920241,348.9775324000002,f,1.6974067999999534,0.2080100000002858,348.9778475000003,348.97790859999986,None,348.9919135,348.9919135,348.9919135,,,,,,,,,,,,,,00015,001,2025-11-17_18h05.33.650,MST_task,2024.2.0,59.85185468911407,2025-11-17 18h05.42.494030 +0530,
,Objects\149a.jpg,47,0,48,,,,,f,1.2123271000000386,0.1844123999999283,None,,,,,,48,0,47,348.9919135,,,,,,,,,,,,,,,,,,,,,,,348.97829269999966,348.9919135,349.47637620000023,,,,,,,,,,,,349.4929315999998,,,,,,,,,,,349.490170699999,349.4929315999998,349.4929315999998,349.4929315999998,352.47721269999965,f,1.2123271000000386,0.1844123999999283,352.47740820000035,352.47745439999926,None,352.49177989999953,352.49177989999953,352.49177989999953,,,,,,,,,,,,,,00015,001,2025-11-17_18h05.33.650,MST_task,2024.2.0,59.85185468911407,2025-11-17 18h05.42.494030 +0530,
,Objects\098a.jpg,48,0,49,,,,,f,1.741644499999893,0.19191200000022945,None,,,,,,49,0,48,352.49177989999953,,,,,,,,,,,,,,,,,,,,,,,352.47778199999993,352.49177989999953,352.9763227000003,,,,,,,,,,,,352.9954003999992,,,,,,,,,,,352.99267920000057,352.9954003999992,352.9954003999992,352.9954003999992,355.9930193,f,1.741644499999893,0.19191200000022945,355.99324479999996,355.9932976,None,,,,,,,,,,,,,,,,,00015,001,2025-11-17_18h05.33.650,MST_task,2024.2.0,59.85185468911407,2025-11-17 18h05.42.494030 +0530,
,Scenes\183a.jpg,49,0,50,,,,,f,1.4359655000007479,0.22378000000026077,None,,,,,,50,0,49,356.00844660000075,,,,,,,,,,,,,,,,,,,,,,,355.9936249000002,356.00844660000075,356.49297099999967,,,,,,,,,,,,356.5174239000007,,,,,,,,,,,356.5140879999999,356.5174239000007,356.5174239000007,356.5174239000007,359.50887390000025,f,1.4359655000007479,0.22378000000026077,359.50910529999965,359.50915910000003,None,,,,,,,,,,,,,,,,,00015,001,2025-11-17_18h05.33.650,MST_task,2024.2.0,59.85185468911407,2025-11-17 18h05.42.494030 +0530,
,Scenes\047a.jpg,50,0,51,,,,,j,1.1491024000006291,0.20815679999941494,None,,,,,,51,0,50,359.5249194000007,,,,,,,,,,,,,,,,,,,,,,,359.5095330000004,359.5249194000007,360.00938010000027,,,,,,,,,,,,360.03575610000007,,,,,,,,,,,360.0323413999995,360.03575610000007,360.03575610000007,360.03575610000007,363.025598799999,j,1.1491024000006291,0.20815679999941494,363.02583349999986,363.02589380000063,None,,,,,,,,,,,,,,,,,00015,001,2025-11-17_18h05.33.650,MST_task,2024.2.0,59.85185468911407,2025-11-17 18h05.42.494030 +0530,
,Scenes\009a.jpg,51,0,52,,,,,j,2.163434400001279,0.20832589999918127,None,,,,,,52,0,51,363.0417679000002,,,,,,,,,,,,,,,,,,,,,,,363.02628430000004,363.0417679000002,363.5259939000007,,,,,,,,,,,,363.54980179999984,,,,,,,,,,,363.5462071999991,363.54980179999984,363.54980179999984,363.54980179999984,366.5422944000002,j,2.163434400001279,0.20832589999918127,366.5425071999998,366.5425661999998,None,,,,,,,,,,,,,,,,,00015,001,2025-11-17_18h05.33.650,MST_task,2024.2.0,59.85185468911407,2025-11-17 18h05.42.494030 +0530,
,Scenes\026a.jpg,52,0,53,,,,,j,2.045884600000136,0.21597010000004957,None,,,,,,53,0,52,366.5583800000004,,,,,,,,,,,,,,,,,,,,,,,366.5428565000002,366.5583800000004,367.0428415999995,,,,,,,,,,,,367.06763300000057,,,,,,,,,,,367.0649276999993,367.06763300000057,367.06763300000057,367.06763300000057,370.0589887999995,j,2.045884600000136,0.21597010000004957,370.0592147999996,370.0592744000005,None,,,,,,,,,,,,,,,,,00015,001,2025-11-17_18h05.33.650,MST_task,2024.2.0,59.85185468911407,2025-11-17 18h05.42.494030 +0530,
,Scenes\110a.jpg,53,0,54,,,,,j,1.5161764999993466,0.2240844999996625,None,,,,,,54,0,53,370.0749427999999,,,,,,,,,,,,,,,,,,,,,,,370.05954999999994,370.0749427999999,370.5594020999997,,,,,,,,,,,,370.5810139999994,,,,,,,,,,,370.57756139999947,370.5810139999994,370.5810139999994,370.5810139999994,373.5756507999995,j,1.5161764999993466,0.2240844999996625,373.575918999999,373.57598080000025,None,,,,,,,,,,,,,,,,,00015,001,2025-11-17_18h05.33.650,MST_task,2024.2.0,59.85185468911407,2025-11-17 18h05.42.494030 +0530,
,Scenes\025a.jpg,54,0,55,,,,,j,1.0253205000008165,0.21557469999970635,None,,,,,,55,0,54,373.5917771000004,,,,,,,,,,,,,,,,,,,,,,,373.57634359999975,373.5917771000004,374.0761456,,,,,,,,,,,,374.10393400000066,,,,,,,,,,,374.1005936999991,374.10393400000066,374.10393400000066,374.10393400000066,377.0924302000003,j,1.0253205000008165,0.21557469999970635,377.09266620000017,377.0927338999991,None,,,,,,,,,,,,,,,,,00015,001,2025-11-17_18h05.33.650,MST_task,2024.2.0,59.85185468911407,2025-11-17 18h05.42.494030 +0530,
,Scenes\036a.jpg,55,0,56,,,,,j,1.6054039999999077,0.21663269999953627,None,,,,,,56,0,55,377.1083471999991,,,,,,,,,,,,,,,,,,,,,,,377.09308299999975,377.1083471999991,377.5929297999992,,,,,,,,,,,,377.61964330000046,,,,,,,,,,,377.6163054999997,377.61964330000046,377.61964330000046,377.61964330000046,380.60904440000013,j,1.6054039999999077,0.21663269999953627,380.6092632,380.60932259999936,None,,,,,,,,,,,,,,,,,00015,001,2025-11-17_18h05.33.650,MST_task,2024.2.0,59.85185468911407,2025-11-17 18h05.42.494030 +0530,
,Objects\108a.jpg,56,0,57,,,,,f,2.9165726999999606,None,None,,,,,,57,0,56,380.6251429999993,,,,,,,,,,,,,,,,,,,,,,,380.60961580000003,380.6251429999993,381.1092281000001,,,,,,,,,,,,381.13224479999917,,,,,,,,,,,381.12900939999963,381.13224479999917,381.13224479999917,381.13224479999917,384.1256469,f,2.9165726999999606,None,384.12587800000074,384.1259377000006,None,,,,,,,,,,,,,,,,,00015,001,2025-11-17_18h05.33.650,MST_task,2024.2.0,59.85185468911407,2025-11-17 18h05.42.494030 +0530,
,Objects\077a.jpg,57,0,58,,,,,j,1.813592600001357,0.23263139999835403,None,,,,,,58,0,57,384.14172569999937,,,,,,,,,,,,,,,,,,,,,,,384.1263182999992,384.14172569999937,384.626313499999,,,,,,,,,,,,384.6437403,,,,,,,,,,,384.6410830999994,384.6437403,384.6437403,384.6437403,387.6424466999997,j,1.813592600001357,0.23263139999835403,387.6426532000005,387.6427141999993,None,,,,,,,,,,,,,,,,,00015,001,2025-11-17_18h05.33.650,MST_task,2024.2.0,59.85185468911407,2025-11-17 18h05.42.494030 +0530,
,Objects\112a.jpg,58,0,59,,,,,f,1.5142174000011437,0.25611509999907867,None,,,,,,59,0,58,387.65859570000066,,,,,,,,,,,,,,,,,,,,,,,387.6431040999996,387.65859570000066,388.1427509999994,,,,,,,,,,,,388.158746699999,,,,,,,,,,,388.1551505999996,388.158746699999,388.158746699999,388.158746699999,391.14355609999984,f,1.5142174000011437,0.25611509999907867,391.1437463000002,391.1437862999992,None,391.1583807999996,391.1583807999996,391.1583807999996,,,,,,,,,,,,,,00015,001,2025-11-17_18h05.33.650,MST_task,2024.2.0,59.85185468911407,2025-11-17 18h05.42.494030 +0530,
,Objects\095a.jpg,59,0,60,,,,,f,1.101592700000765,0.2392266999995627,None,,,,,,60,0,59,391.1583807999996,,,,,,,,,,,,,,,,,,,,,,,391.14399240000057,391.1583807999996,391.64287610000065,,,,,,,,,,,,391.6600416000001,,,,,,,,,,,391.65744319999976,391.6600416000001,391.6600416000001,391.6600416000001,394.6590999,f,1.101592700000765,0.2392266999995627,394.6593312999994,394.65936089999923,None,,,,,,,,,,,,,,,,,00015,001,2025-11-17_18h05.33.650,MST_task,2024.2.0,59.85185468911407,2025-11-17 18h05.42.494030 +0530,
,Objects\037a.jpg,60,0,61,,,,,f,1.023733700001685,0.287606699999742,None,,,,,,61,0,60,394.67501509999965,,,,,,,,,,,,,,,,,,,,,,,394.6595314999995,394.67501509999965,395.159598799999,,,,,,,,,,,,395.1776546000001,,,,,,,,,,,395.17461209999965,395.1776546000001,395.1776546000001,395.1776546000001,398.1755376000001,f,1.023733700001685,0.287606699999742,398.17575249999936,398.17582109999967,None,,,,,,,,,,,,,,,,,00015,001,2025-11-17_18h05.33.650,MST_task,2024.2.0,59.85185468911407,2025-11-17 18h05.42.494030 +0530,
,Objects\119a.jpg,61,0,62,,,,,f,1.1300289999999222,0.3039965000007214,None,,,,,,62,0,61,398.1916975999993,,,,,,,,,,,,,,,,,,,,,,,398.17622069999925,398.1916975999993,398.6763437999998,,,,,,,,,,,,398.6952502999993,,,,,,,,,,,398.69162700000015,398.6952502999993,398.6952502999993,398.6952502999993,401.6924388000007,f,1.1300289999999222,0.3039965000007214,401.6927075000003,401.69277259999944,None,,,,,,,,,,,,,,,,,00015,001,2025-11-17_18h05.33.650,MST_task,2024.2.0,59.85185468911407,2025-11-17 18h05.42.494030 +0530,
,Objects\082a.jpg,62,0,63,,,,,j,2.190164999999979,0.26379980000092473,None,,,,,,63,0,62,401.7085270000007,,,,,,,,,,,,,,,,,,,,,,,401.69316190000063,401.7085270000007,402.19330459999946,,,,,,,,,,,,402.21078920000036,,,,,,,,,,,402.20825289999993,402.21078920000036,402.21078920000036,402.21078920000036,405.20897259999947,j,2.190164999999979,0.26379980000092473,405.2091545000003,405.20920079999996,None,,,,,,,,,,,,,,,,,00015,001,2025-11-17_18h05.33.650,MST_task,2024.2.0,59.85185468911407,2025-11-17 18h05.42.494030 +0530,
,Scenes\039a.jpg,63,0,64,,,,,j,0.8708125999983167,0.25557800000024145,None,,,,,,64,0,63,405.2249217999997,,,,,,,,,,,,,,,,,,,,,,,405.2094823999996,405.2249217999997,405.709847099999,,,,,,,,,,,,405.7305636000001,,,,,,,,,,,405.72746299999926,405.7305636000001,405.7305636000001,405.7305636000001,408.7254212000007,j,0.8708125999983167,0.25557800000024145,408.725634299999,408.7256935000005,None,,,,,,,,,,,,,,,,,00015,001,2025-11-17_18h05.33.650,MST_task,2024.2.0,59.85185468911407,2025-11-17 18h05.42.494030 +0530,
,Scenes\121a.jpg,64,0,65,,,,,j,0.8432327999998961,0.23181800000020303,None,,,,,,65,0,64,408.74178439999923,,,,,,,,,,,,,,,,,,,,,,,408.72611440000037,408.74178439999923,409.22626649999984,,,,,,,,,,,,409.2538521999995,,,,,,,,,,,409.2506802000007,409.2538521999995,409.2538521999995,409.2538521999995,412.2426230000001,j,0.8432327999998961,0.23181800000020303,412.2429269000004,412.24298590000035,None,,,,,,,,,,,,,,,,,00015,001,2025-11-17_18h05.33.650,MST_task,2024.2.0,59.85185468911407,2025-11-17 18h05.42.494030 +0530,
,Scenes\106a.jpg,65,0,66,,,,,j,1.203972100000101,0.18343069999900763,None,,,,,,66,0,65,412.25857410000026,,,,,,,,,,,,,,,,,,,,,,,412.24336930000027,412.25857410000026,412.7427492000006,,,,,,,,,,,,412.76542250000057,,,,,,,,,,,412.7626610999996,412.76542250000057,412.76542250000057,412.76542250000057,415.75879279999936,j,1.203972100000101,0.18343069999900763,415.7589231000002,415.75895800000035,None,,,,,,,,,,,,,,,,,00015,001,2025-11-17_18h05.33.650,MST_task,2024.2.0,59.85185468911407,2025-11-17 18h05.42.494030 +0530,
,Scenes\080a.jpg,66,0,67,,,,,j,1.4559470000003785,0.18413999999938824,None,,,,,,67,0,66,415.7748881999996,,,,,,,,,,,,,,,,,,,,,,,415.75918959999944,415.7748881999996,416.2597251999996,,,,,,,,,,,,416.28081159999965,,,,,,,,,,,416.27759349999906,416.28081159999965,416.28081159999965,416.28081159999965,419.27520449999975,j,1.4559470000003785,0.18413999999938824,419.2752787999998,419.2752956000004,None,,,,,,,,,,,,,,,,,00015,001,2025-11-17_18h05.33.650,MST_task,2024.2.0,59.85185468911407,2025-11-17 18h05.42.494030 +0530,
,Scenes\117a.jpg,67,0,68,,,,,j,1.9378568000011,0.2166877999989083,None,,,,,,68,0,67,419.2916418999994,,,,,,,,,,,,,,,,,,,,,,,419.2754179000003,419.2916418999994,419.7760245999998,,,,,,,,,,,,419.79879719999917,,,,,,,,,,,419.79569959999935,419.79879719999917,419.79879719999917,419.79879719999917,422.77565460000005,j,1.9378568000011,0.2166877999989083,422.7758725999993,422.7759342999998,None,,,,,,,,,,,,,,,,,00015,001,2025-11-17_18h05.33.650,MST_task,2024.2.0,59.85185468911407,2025-11-17 18h05.42.494030 +0530,
,Scenes\070a.jpg,68,0,69,,,,,j,2.9311753999991197,None,None,,,,,,69,0,68,422.7917949999992,,,,,,,,,,,,,,,,,,,,,,,422.77630820000013,422.7917949999992,423.2761668999992,,,,,,,,,,,,423.3015367000007,,,,,,,,,,,423.29806760000065,423.3015367000007,423.3015367000007,423.3015367000007,426.29258149999987,j,2.9311753999991197,None,426.29281470000024,426.29287719999957,None,,,,,,,,,,,,,,,,,00015,001,2025-11-17_18h05.33.650,MST_task,2024.2.0,59.85185468911407,2025-11-17 18h05.42.494030 +0530,
,Scenes\130a.jpg,69,0,70,,,,,None,,,j,1.5358551000008447,None,,,,70,0,69,426.30846799999927,,,,,,,,,,,,,,,,,,,,,,,426.29324500000075,426.30846799999927,426.7930999,,,,,,,,,,,,426.8230029000006,,,,,,,,,,,426.8196492999996,426.8230029000006,426.8230029000006,426.8230029000006,429.8089244999992,None,,,429.8091213000007,431.3772372000003,j,,,,429.8249486000004,429.8249486000004,1.5358551000008447,None,,,,,,,,,,00015,001,2025-11-17_18h05.33.650,MST_task,2024.2.0,59.85185468911407,2025-11-17 18h05.42.494030 +0530,
,Objects\177a.jpg,70,0,71,,,,,j,1.4353073999991466,0.19157620000078168,None,,,,,,71,0,70,431.3919705999997,,,,,,,,,,,,,,,,,,,,,,,431.3776135999997,431.3919705999997,431.87603110000055,,,,,,,,,,,,431.8940621999991,,,,,,,,,,,431.89071499999955,431.8940621999991,431.8940621999991,431.8940621999991,434.89239570000063,j,1.4353073999991466,0.19157620000078168,434.89262229999986,434.8926878000002,None,,,,,,,,,,,,,,,,,00015,001,2025-11-17_18h05.33.650,MST_task,2024.2.0,59.85185468911407,2025-11-17 18h05.42.494030 +0530,
,Objects\178a.jpg,71,0,72,,,,,None,,,j,0.4723254000000452,None,,,,72,0,71,434.9083962000004,,,,,,,,,,,,,,,,,,,,,,,434.8931716999996,434.9083962000004,435.3929329999992,,,,,,,,,,,,435.4147329999996,,,,,,,,,,,435.4122009999992,435.4147329999996,435.4147329999996,435.4147329999996,438.4089397000007,None,,,438.409087,438.91023289999976,j,,,,438.4249395000006,438.4249395000006,0.4723254000000452,None,,,,,,,,,,00015,001,2025-11-17_18h05.33.650,MST_task,2024.2.0,59.85185468911407,2025-11-17 18h05.42.494030 +0530,
,Objects\071a.jpg,72,0,73,,,,,j,1.8524962999999843,0.199547000000166,None,,,,,,73,0,72,438.92493579999973,,,,,,,,,,,,,,,,,,,,,,,438.91060280000056,438.92493579999973,439.4093080999992,,,,,,,,,,,,439.4290942000007,,,,,,,,,,,439.42651280000064,439.4290942000007,439.4290942000007,439.4290942000007,442.42576050000025,j,1.8524962999999843,0.199547000000166,442.42603769999914,442.4261026000004,None,,,,,,,,,,,,,,,,,00015,001,2025-11-17_18h05.33.650,MST_task,2024.2.0,59.85185468911407,2025-11-17 18h05.42.494030 +0530,
,Objects\154a.jpg,73,0,74,,,,,f,0.8234640999999101,0.2408030000005965,None,,,,,,74,0,73,442.4417319000004,,,,,,,,,,,,,,,,,,,,,,,442.4264948,442.4417319000004,442.9258957000002,,,,,,,,,,,,442.94523649999974,,,,,,,,,,,442.9427106000003,442.94523649999974,442.94523649999974,442.94523649999974,445.9425835000002,f,0.8234640999999101,0.2408030000005965,445.9428399999997,445.9429005000002,None,,,,,,,,,,,,,,,,,00015,001,2025-11-17_18h05.33.650,MST_task,2024.2.0,59.85185468911407,2025-11-17 18h05.42.494030 +0530,
,Objects\182a.jpg,74,0,75,,,,,j,1.2186761000011757,0.19263460000001942,None,,,,,,75,0,74,445.9584419999992,,,,,,,,,,,,,,,,,,,,,,,445.9432890999997,445.9584419999992,446.44289070000013,,,,,,,,,,,,446.462563699999,,,,,,,,,,,446.459828699999,446.462563699999,446.462563699999,446.462563699999,449.45897370000057,j,1.2186761000011757,0.19263460000001942,449.4591779000002,449.4592453999994,None,,,,,,,,,,,,,,,,,00015,001,2025-11-17_18h05.33.650,MST_task,2024.2.0,59.85185468911407,2025-11-17 18h05.42.494030 +0530,
,Objects\160a.jpg,75,0,76,,,,,j,0.9644188999991457,0.1759003000006487,None,,,,,,76,0,75,449.4749300000003,,,,,,,,,,,,,,,,,,,,,,,449.45960190000005,449.4749300000003,449.9594971000006,,,,,,,,,,,,449.98088069999903,,,,,,,,,,,449.9782324000007,449.98088069999903,449.98088069999903,449.98088069999903,452.9755662999996,j,0.9644188999991457,0.1759003000006487,452.97581250000076,452.9758719999991,None,,,,,,,,,,,,,,,,,00015,001,2025-11-17_18h05.33.650,MST_task,2024.2.0,59.85185468911407,2025-11-17 18h05.42.494030 +0530,
,Objects\050a.jpg,76,0,77,,,,,f,1.8777793999997812,0.19217849999949976,None,,,,,,77,0,76,452.99193279999963,,,,,,,,,,,,,,,,,,,,,,,452.9762052999995,452.99193279999963,453.47597270000006,,,,,,,,,,,,453.51525709999987,,,,,,,,,,,453.5124813000002,453.51525709999987,453.51525709999987,453.51525709999987,456.49237990000074,f,1.8777793999997812,0.19217849999949976,456.4925972000001,456.4926577999995,None,,,,,,,,,,,,,,,,,00015,001,2025-11-17_18h05.33.650,MST_task,2024.2.0,59.85185468911407,2025-11-17 18h05.42.494030 +0530,
,Scenes\020a.jpg,77,0,78,,,,,f,2.0400783000004594,0.18398559999877762,None,,,,,,78,0,77,456.5084791999998,,,,,,,,,,,,,,,,,,,,,,,456.493058,456.5084791999998,456.9931120000001,,,,,,,,,,,,457.024755299999,,,,,,,,,,,457.02140169999984,457.024755299999,457.024755299999,457.024755299999,460.0089984999995,f,2.0400783000004594,0.18398559999877762,460.00922960000025,460.0092891000004,None,,,,,,,,,,,,,,,,,00015,001,2025-11-17_18h05.33.650,MST_task,2024.2.0,59.85185468911407,2025-11-17 18h05.42.494030 +0530,
,Scenes\089a.jpg,78,0,79,,,,,j,1.2493463000009797,0.17544749999979103,None,,,,,,79,0,78,460.0251592000004,,,,,,,,,,,,,,,,,,,,,,,460.00965539999925,460.0251592000004,460.5095488999996,,,,,,,,,,,,460.53588110000055,,,,,,,,,,,460.532412999999,460.53588110000055,460.53588110000055,460.53588110000055,463.5256076000005,j,1.2493463000009797,0.17544749999979103,463.52585010000075,463.5259119000002,None,,,,,,,,,,,,,,,,,00015,001,2025-11-17_18h05.33.650,MST_task,2024.2.0,59.85185468911407,2025-11-17 18h05.42.494030 +0530,
,Scenes\042a.jpg,79,0,80,,,,,j,1.6304617999994662,0.1839983999998367,None,,,,,,80,0,79,463.541798799999,,,,,,,,,,,,,,,,,,,,,,,463.52626240000063,463.541798799999,464.02591890000076,,,,,,,,,,,,464.074497399999,,,,,,,,,,,464.0712370000001,464.074497399999,464.074497399999,464.074497399999,467.04223339999953,j,1.6304617999994662,0.1839983999998367,467.0424733,467.0425367000007,None,,,,,,,,,,,,,,,,,00015,001,2025-11-17_18h05.33.650,MST_task,2024.2.0,59.85185468911407,2025-11-17 18h05.42.494030 +0530,
,Scenes\140a.jpg,80,0,81,,,,,j,1.9747459000009258,0.19975130000057106,None,,,,,,81,0,80,467.05839670000023,,,,,,,,,,,,,,,,,,,,,,,467.0428759999995,467.05839670000023,467.5430503000007,,,,,,,,,,,,467.5627430000004,,,,,,,,,,,467.55934479999996,467.5627430000004,467.5627430000004,467.5627430000004,470.5588719999996,j,1.9747459000009258,0.19975130000057106,470.55909359999896,470.5591478000006,None,,,,,,,,,,,,,,,,,00015,001,2025-11-17_18h05.33.650,MST_task,2024.2.0,59.85185468911407,2025-11-17 18h05.42.494030 +0530,
,Scenes\069a.jpg,81,0,82,,,,,j,1.4167411999987962,0.19229600000107894,None,,,,,,82,0,81,470.57506680000006,,,,,,,,,,,,,,,,,,,,,,,470.5594899000007,470.57506680000006,471.0598377999995,,,,,,,,,,,,471.08002549999946,,,,,,,,,,,471.07679989999997,471.08002549999946,471.08002549999946,471.08002549999946,474.0755982999999,j,1.4167411999987962,0.19229600000107894,474.0757983000003,474.07585160000053,None,,,,,,,,,,,,,,,,,00015,001,2025-11-17_18h05.33.650,MST_task,2024.2.0,59.85185468911407,2025-11-17 18h05.42.494030 +0530,
,Scenes\078a.jpg,82,0,83,,,,,None,,,j,1.192954500000269,None,,,,83,0,82,474.09167290000005,,,,,,,,,,,,,,,,,,,,,,,474.076181299999,474.09167290000005,474.5761569999995,,,,,,,,,,,,474.5989477000003,,,,,,,,,,,474.5956750000005,474.5989477000003,474.5989477000003,474.5989477000003,477.59219830000075,None,,,477.59240689999933,478.81042049999996,j,,,,477.60839639999904,477.60839639999904,1.192954500000269,None,,,,,,,,,,00015,001,2025-11-17_18h05.33.650,MST_task,2024.2.0,59.85185468911407,2025-11-17 18h05.42.494030 +0530,
,Scenes\046a.jpg,83,0,84,,,,,j,1.1552049000001716,0.16882449999866367,None,,,,,,84,0,83,478.8250490999999,,,,,,,,,,,,,,,,,,,,,,,478.81083919999946,478.8250490999999,479.3094818999998,,,,,,,,,,,,479.3416295999996,,,,,,,,,,,479.3383701999992,479.3416295999996,479.3416295999996,479.3416295999996,482.32587599999897,j,1.1552049000001716,0.16882449999866367,482.3261072000005,482.3261674000005,None,,,,,,,,,,,,,,,,,00015,001,2025-11-17_18h05.33.650,MST_task,2024.2.0,59.85185468911407,2025-11-17 18h05.42.494030 +0530,
,Objects\061a.jpg,84,0,85,,,,,j,1.980242100000396,0.18407359999946493,None,,,,,,85,0,84,482.34159779999936,,,,,,,,,,,,,,,,,,,,,,,482.32655069999964,482.34159779999936,482.8263124999994,,,,,,,,,,,,482.8443762000006,,,,,,,,,,,482.8411013999994,482.8443762000006,482.8443762000006,482.8443762000006,485.84230109999953,j,1.980242100000396,0.18407359999946493,485.8425456999994,485.84260449999965,None,,,,,,,,,,,,,,,,,00015,001,2025-11-17_18h05.33.650,MST_task,2024.2.0,59.85185468911407,2025-11-17 18h05.42.494030 +0530,
,Objects\151a.jpg,85,0,86,,,,,f,0.9742850999991788,0.20864040000014938,None,,,,,,86,0,85,485.85843340000065,,,,,,,,,,,,,,,,,,,,,,,485.84296859999995,485.85843340000065,486.3429503999996,,,,,,,,,,,,486.36246389999906,,,,,,,,,,,486.35969280000063,486.36246389999906,486.36246389999906,486.36246389999906,489.35911730000043,f,0.9742850999991788,0.20864040000014938,489.3592690000005,489.3593062,None,,,,,,,,,,,,,,,,,00015,001,2025-11-17_18h05.33.650,MST_task,2024.2.0,59.85185468911407,2025-11-17 18h05.42.494030 +0530,
,Objects\068a.jpg,86,0,87,,,,,j,0.9715343000007124,0.23180129999855126,None,,,,,,87,0,86,489.3750447000002,,,,,,,,,,,,,,,,,,,,,,,489.35949470000014,489.3750447000002,489.8597532999993,,,,,,,,,,,,489.87808210000003,,,,,,,,,,,489.87521220000053,489.87808210000003,489.87808210000003,489.87808210000003,492.8756572000002,j,0.9715343000007124,0.23180129999855126,492.8758538000002,492.87591260000045,None,,,,,,,,,,,,,,,,,00015,001,2025-11-17_18h05.33.650,MST_task,2024.2.0,59.85185468911407,2025-11-17 18h05.42.494030 +0530,
,Objects\087a.jpg,87,0,88,,,,,j,1.8302655999996205,0.2233581000000413,None,,,,,,88,0,87,492.8917507999995,,,,,,,,,,,,,,,,,,,,,,,492.87618400000065,492.8917507999995,493.3762162000003,,,,,,,,,,,,493.39514380000037,,,,,,,,,,,493.3914029000007,493.39514380000037,493.39514380000037,493.39514380000037,496.39235969999936,j,1.8302655999996205,0.2233581000000413,496.39257290000023,496.3926307999991,None,,,,,,,,,,,,,,,,,00015,001,2025-11-17_18h05.33.650,MST_task,2024.2.0,59.85185468911407,2025-11-17 18h05.42.494030 +0530,
,Objects\120a.jpg,88,0,89,,,,,f,1.4346519999999146,0.2162759000002552,None,,,,,,89,0,88,496.4083747000004,,,,,,,,,,,,,,,,,,,,,,,496.39315290000013,496.4083747000004,496.89280169999984,,,,,,,,,,,,496.91013569999996,,,,,,,,,,,496.9073578999996,496.91013569999996,496.91013569999996,496.91013569999996,499.9090283000005,f,1.4346519999999146,0.2162759000002552,499.9092476000005,499.909307599999,None,,,,,,,,,,,,,,,,,00015,001,2025-11-17_18h05.33.650,MST_task,2024.2.0,59.85185468911407,2025-11-17 18h05.42.494030 +0530,
,Objects\059a.jpg,89,0,90,,,,,f,1.1685655000001134,0.20909669999855396,None,,,,,,90,0,89,499.9250649000005,,,,,,,,,,,,,,,,,,,,,,,499.90960859999905,499.9250649000005,500.40963100000045,,,,,,,,,,,,500.4326755000002,,,,,,,,,,,500.43007489999945,500.4326755000002,500.4326755000002,500.4326755000002,503.4257429999998,f,1.1685655000001134,0.20909669999855396,503.4259447000004,503.4260221000004,None,,,,,,,,,,,,,,,,,00015,001,2025-11-17_18h05.33.650,MST_task,2024.2.0,59.85185468911407,2025-11-17 18h05.42.494030 +0530,
,Objects\174a.jpg,90,0,91,,,,,f,1.3277223000004597,0.17595170000095095,None,,,,,,91,0,90,503.4415848999997,,,,,,,,,,,,,,,,,,,,,,,503.4263353999995,503.4415848999997,503.9262352000005,,,,,,,,,,,,503.9450065000001,,,,,,,,,,,503.94239170000037,503.9450065000001,503.9450065000001,503.9450065000001,506.94216830000005,f,1.3277223000004597,0.17595170000095095,506.94236590000037,506.9424214999999,None,,,,,,,,,,,,,,,,,00015,001,2025-11-17_18h05.33.650,MST_task,2024.2.0,59.85185468911407,2025-11-17 18h05.42.494030 +0530,
,Scenes\049a.jpg,91,0,92,,,,,j,1.5463596999998117,0.20667060000050697,None,,,,,,92,0,91,506.9583829000003,,,,,,,,,,,,,,,,,,,,,,,506.94283449999966,506.9583829000003,507.44254759999967,,,,,,,,,,,,507.4642509000005,,,,,,,,,,,507.46108280000044,507.4642509000005,507.4642509000005,507.4642509000005,510.4592126000007,j,1.5463596999998117,0.20667060000050697,510.45943330000046,510.45949440000004,None,,,,,,,,,,,,,,,,,00015,001,2025-11-17_18h05.33.650,MST_task,2024.2.0,59.85185468911407,2025-11-17 18h05.42.494030 +0530,
,Scenes\062a.jpg,92,0,93,,,,,j,1.4072174000011728,0.22394290000011097,None,,,,,,93,0,92,510.475086299999,,,,,,,,,,,,,,,,,,,,,,,510.4598747,510.475086299999,510.9596901999994,,,,,,,,,,,,510.9859856999992,,,,,,,,,,,510.9825297999996,510.9859856999992,510.9859856999992,510.9859856999992,513.9754587000007,j,1.4072174000011728,0.22394290000011097,513.9756397000001,513.9756844000003,None,,,,,,,,,,,,,,,,,00015,001,2025-11-17_18h05.33.650,MST_task,2024.2.0,59.85185468911407,2025-11-17 18h05.42.494030 +0530,
,Scenes\029a.jpg,93,0,94,,,,,j,0.9090544000009686,0.23177690000011353,None,,,,,,94,0,93,513.9915517999998,,,,,,,,,,,,,,,,,,,,,,,513.9760208000007,513.9915517999998,514.4760848000005,,,,,,,,,,,,514.5000462000007,,,,,,,,,,,514.4974051999998,514.5000462000007,514.5000462000007,514.5000462000007,517.4923132000004,j,0.9090544000009686,0.23177690000011353,517.4925210000001,517.4925834999995,None,,,,,,,,,,,,,,,,,00015,001,2025-11-17_18h05.33.650,MST_task,2024.2.0,59.85185468911407,2025-11-17 18h05.42.494030 +0530,
,Scenes\095a.jpg,94,0,95,,,,,f,1.075584500000332,0.23218659999838565,None,,,,,,95,0,94,517.5086776999997,,,,,,,,,,,,,,,,,,,,,,,517.4929570999993,517.5086776999997,517.9926804999996,,,,,,,,,,,,518.0137691,,,,,,,,,,,518.0104654000006,518.0137691,518.0137691,518.0137691,521.0090211000006,f,1.075584500000332,0.23218659999838565,521.0092370999992,521.0092982999995,None,,,,,,,,,,,,,,,,,00015,001,2025-11-17_18h05.33.650,MST_task,2024.2.0,59.85185468911407,2025-11-17 18h05.42.494030 +0530,
,Scenes\147a.jpg,95,0,96,,,,,j,1.2304844000009325,0.23181119999935618,None,,,,,,96,0,95,521.0250271999994,,,,,,,,,,,,,,,,,,,,,,,521.0097189999997,521.0250271999994,521.5095703999996,,,,,,,,,,,,521.5308401000002,,,,,,,,,,,521.527612599999,521.5308401000002,521.5308401000002,521.5308401000002,524.5257349000003,j,1.2304844000009325,0.23181119999935618,524.525964299999,524.526024499999,None,,,,,,,,,,,,,,,,,00015,001,2025-11-17_18h05.33.650,MST_task,2024.2.0,59.85185468911407,2025-11-17 18h05.42.494030 +0530,
,Scenes\023a.jpg,96,0,97,,,,,f,0.9454126000000542,0.20711219999975583,None,,,,,,97,0,96,524.5418446000003,,,,,,,,,,,,,,,,,,,,,,,524.5263899999991,524.5418446000003,525.0259791999997,,,,,,,,,,,,525.0560229000002,,,,,,,,,,,525.0526611000005,525.0560229000002,525.0560229000002,525.0560229000002,528.0423831000007,f,0.9454126000000542,0.20711219999975583,528.0426012000007,528.0426604999993,None,,,,,,,,,,,,,,,,,00015,001,2025-11-17_18h05.33.650,MST_task,2024.2.0,59.85185468911407,2025-11-17 18h05.42.494030 +0530,
,Scenes\014a.jpg,97,0,98,,,,,f,1.2680762999989383,0.23915740000120422,None,,,,,,98,0,97,528.0586306999994,,,,,,,,,,,,,,,,,,,,,,,528.0431748999999,528.0586306999994,528.5426552999998,,,,,,,,,,,,528.5654954999991,,,,,,,,,,,528.5620741999992,528.5654954999991,528.5654954999991,528.5654954999991,531.5592644000008,f,1.2680762999989383,0.23915740000120422,531.559479399999,531.5595384999997,None,,,,,,,,,,,,,,,,,00015,001,2025-11-17_18h05.33.650,MST_task,2024.2.0,59.85185468911407,2025-11-17 18h05.42.494030 +0530,
,Objects\167a.jpg,98,0,99,,,,,f,2.5946287999995548,0.21545460000015737,None,,,,,,99,0,98,531.575217399999,,,,,,,,,,,,,,,,,,,,,,,531.5598310000005,531.575217399999,532.0594010999994,,,,,,,,,,,,532.0790667000001,,,,,,,,,,,532.076125399999,532.0790667000001,532.0790667000001,532.0790667000001,535.0756803999993,f,2.5946287999995548,0.21545460000015737,535.0759010000002,535.0759598000004,None,,,,,,,,,,,,,,,,,00015,001,2025-11-17_18h05.33.650,MST_task,2024.2.0,59.85185468911407,2025-11-17 18h05.42.494030 +0530,
,Objects\029a.jpg,99,0,100,,,,,f,1.7262859000002209,0.21626880000076198,None,,,,,,100,0,99,535.0916058000003,,,,,,,,,,,,,,,,,,,,,,,535.0762525999999,535.0916058000003,535.5762792000005,,,,,,,,,,,,535.5946127000007,,,,,,,,,,,535.5919995000004,535.5946127000007,535.5946127000007,535.5946127000007,538.5921873000007,f,1.7262859000002209,0.21626880000076198,538.5924113000001,538.5924716999998,None,,,,,,,,,,,,,,,,,00015,001,2025-11-17_18h05.33.650,MST_task,2024.2.0,59.85185468911407,2025-11-17 18h05.42.494030 +0530,
,Objects\111a.jpg,100,0,101,,,,,f,0.7558958000008715,0.2069799000000785,None,,,,,,101,0,100,538.6084133000004,,,,,,,,,,,,,,,,,,,,,,,538.5928948000001,538.6084133000004,539.0927833999995,,,,,,,,,,,,539.1098903999991,,,,,,,,,,,539.1072512999999,539.1098903999991,539.1098903999991,539.1098903999991,542.1089219999994,f,0.7558958000008715,0.2069799000000785,542.1091794000004,542.1092417,None,,,,,,,,,,,,,,,,,00015,001,2025-11-17_18h05.33.650,MST_task,2024.2.0,59.85185468911407,2025-11-17 18h05.42.494030 +0530,
,Objects\007a.jpg,101,0,102,,,,,f,1.0242735000010725,0.2079476999988401,None,,,,,,102,0,101,542.1250438999996,,,,,,,,,,,,,,,,,,,,,,,542.1096077999991,542.1250438999996,542.6096596000007,,,,,,,,,,,,542.6333790999997,,,,,,,,,,,542.6306599,542.6333790999997,542.6333790999997,542.6333790999997,545.6255920999993,f,1.0242735000010725,0.2079476999988401,545.6257755999995,545.6258259000006,None,,,,,,,,,,,,,,,,,00015,001,2025-11-17_18h05.33.650,MST_task,2024.2.0,59.85185468911407,2025-11-17 18h05.42.494030 +0530,
,Objects\150a.jpg,102,0,103,,,,,f,1.786262000001443,0.2081158000000869,None,,,,,,103,0,102,545.6416363000008,,,,,,,,,,,,,,,,,,,,,,,545.6260741999995,545.6416363000008,546.1262738000005,,,,,,,,,,,,546.1428300000007,,,,,,,,,,,546.1403236000006,546.1428300000007,546.1428300000007,546.1428300000007,549.1268921999999,f,1.786262000001443,0.2081158000000869,549.1270865999995,549.1271273999992,None,549.1415885999995,549.1415885999995,549.1415885999995,,,,,,,,,,,,,,00015,001,2025-11-17_18h05.33.650,MST_task,2024.2.0,59.85185468911407,2025-11-17 18h05.42.494030 +0530,
,Objects\048a.jpg,103,0,104,,,,,j,1.1816216999995959,0.22340860000076646,None,,,,,,104,0,103,549.1415885999995,,,,,,,,,,,,,,,,,,,,,,,549.1273368000002,549.1415885999995,549.6265296999991,,,,,,,,,,,,549.6439386000002,,,,,,,,,,,549.6412631000003,549.6439386000002,549.6439386000002,549.6439386000002,552.6421988000002,j,1.1816216999995959,0.22340860000076646,552.6424203999995,552.6424803999998,None,,,,,,,,,,,,,,,,,00015,001,2025-11-17_18h05.33.650,MST_task,2024.2.0,59.85185468911407,2025-11-17 18h05.42.494030 +0530,
,Objects\034a.jpg,104,0,105,,,,,f,2.4022038000002794,0.19229779999841412,None,,,,,,105,0,104,552.6583718999991,,,,,,,,,,,,,,,,,,,,,,,552.6429165999998,552.6583718999991,553.1428472999996,,,,,,,,,,,,553.1666829000005,,,,,,,,,,,553.1639090999997,553.1666829000005,553.1666829000005,553.1666829000005,556.158940199999,f,2.4022038000002794,0.19229779999841412,556.1591606999991,556.1592196000001,None,,,,,,,,,,,,,,,,,00015,001,2025-11-17_18h05.33.650,MST_task,2024.2.0,59.85185468911407,2025-11-17 18h05.42.494030 +0530,
,Scenes\188a.jpg,105,0,106,,,,,j,1.7670144000003347,0.19252589999996417,None,,,,,,106,0,105,556.1750174999997,,,,,,,,,,,,,,,,,,,,,,,556.1595971000006,556.1750174999997,556.6595431000005,,,,,,,,,,,,556.6818774000003,,,,,,,,,,,556.6787671000002,556.6818774000003,556.6818774000003,556.6818774000003,559.6757402999992,j,1.7670144000003347,0.19252589999996417,559.6759583000003,559.6760176000007,None,,,,,,,,,,,,,,,,,00015,001,2025-11-17_18h05.33.650,MST_task,2024.2.0,59.85185468911407,2025-11-17 18h05.42.494030 +0530,
,Scenes\181a.jpg,106,0,107,,,,,f,1.2965198000001692,0.15999879999981204,None,,,,,,107,0,106,559.6916359999996,,,,,,,,,,,,,,,,,,,,,,,559.6763140000003,559.6916359999996,560.1761666999992,,,,,,,,,,,,560.2010496000003,,,,,,,,,,,560.1976916000003,560.2010496000003,560.2010496000003,560.2010496000003,563.1923224000002,f,1.2965198000001692,0.15999879999981204,563.1925525000006,563.1926134999994,None,,,,,,,,,,,,,,,,,00015,001,2025-11-17_18h05.33.650,MST_task,2024.2.0,59.85185468911407,2025-11-17 18h05.42.494030 +0530,
,Scenes\107a.jpg,107,0,108,,,,,j,1.4834637000003568,0.18458069999906002,None,,,,,,108,0,107,563.2083965000002,,,,,,,,,,,,,,,,,,,,,,,563.1929612000004,563.2083965000002,563.6930627000002,,,,,,,,,,,,563.7174587999998,,,,,,,,,,,563.7140127999992,563.7174587999998,563.7174587999998,563.7174587999998,566.7093879999993,j,1.4834637000003568,0.18458069999906002,566.7096113999996,566.7096703000007,None,,,,,,,,,,,,,,,,,00015,001,2025-11-17_18h05.33.650,MST_task,2024.2.0,59.85185468911407,2025-11-17 18h05.42.494030 +0530,
,Scenes\187a.jpg,108,0,109,,,,,j,0.8151166999996349,0.15955380000013974,None,,,,,,109,0,108,566.7251856000003,,,,,,,,,,,,,,,,,,,,,,,566.7099620999998,566.7251856000003,567.2096894999995,,,,,,,,,,,,567.2344716999996,,,,,,,,,,,567.2311501999993,567.2344716999996,567.2344716999996,567.2344716999996,570.2257320999997,j,0.8151166999996349,0.15955380000013974,570.2259474999992,570.2260091999997,None,,,,,,,,,,,,,,,,,00015,001,2025-11-17_18h05.33.650,MST_task,2024.2.0,59.85185468911407,2025-11-17 18h05.42.494030 +0530,
,Scenes\139a.jpg,109,0,110,,,,,j,1.6455526999998256,0.20818879999933415,None,,,,,,110,0,109,570.2417886999992,,,,,,,,,,,,,,,,,,,,,,,570.2263132000007,570.2417886999992,570.7265327999994,,,,,,,,,,,,570.7477890999999,,,,,,,,,,,570.7444359000001,570.7477890999999,570.7477890999999,570.7477890999999,573.7423046000004,j,1.6455526999998256,0.20818879999933415,573.7424950000004,573.7425406000002,None,,,,,,,,,,,,,,,,,00015,001,2025-11-17_18h05.33.650,MST_task,2024.2.0,59.85185468911407,2025-11-17 18h05.42.494030 +0530,
,Scenes\127a.jpg,110,0,111,,,,,j,1.0543720000005123,0.19182980000005045,None,,,,,,111,0,110,573.7586475999997,,,,,,,,,,,,,,,,,,,,,,,573.7428330000002,573.7586475999997,574.2429747999995,,,,,,,,,,,,574.2672263999993,,,,,,,,,,,574.2639223000006,574.2672263999993,574.2672263999993,574.2672263999993,577.2591625000005,j,1.0543720000005123,0.19182980000005045,577.2593871999998,577.2594463999994,None,,,,,,,,,,,,,,,,,00015,001,2025-11-17_18h05.33.650,MST_task,2024.2.0,59.85185468911407,2025-11-17 18h05.42.494030 +0530,
,Scenes\158a.jpg,111,0,112,,,,,j,0.9791469000010693,0.16739319999942381,None,,,,,,112,0,111,577.2752015000005,,,,,,,,,,,,,,,,,,,,,,,577.2598591999995,577.2752015000005,577.7595297999997,,,,,,,,,,,,577.7824364000007,,,,,,,,,,,577.7790752000001,577.7824364000007,577.7824364000007,577.7824364000007,580.7758832,j,0.9791469000010693,0.16739319999942381,580.7760926999999,580.7761420999996,None,,,,,,,,,,,,,,,,,00015,001,2025-11-17_18h05.33.650,MST_task,2024.2.0,59.85185468911407,2025-11-17 18h05.42.494030 +0530,
,Objects\125a.jpg,112,0,113,,,,,f,1.3938723999999638,0.1920669999999518,None,,,,,,113,0,112,580.7917908,,,,,,,,,,,,,,,,,,,,,,,580.7763957999996,580.7917908,581.2764279000003,,,,,,,,,,,,581.2950982999992,,,,,,,,,,,581.2918484000002,581.2950982999992,581.2950982999992,581.2950982999992,584.2926891000006,f,1.3938723999999638,0.1920669999999518,584.2929275999995,584.2929858999996,None,,,,,,,,,,,,,,,,,00015,001,2025-11-17_18h05.33.650,MST_task,2024.2.0,59.85185468911407,2025-11-17 18h05.42.494030 +0530,
,Objects\127a.jpg,113,0,114,,,,,f,1.4623074000010092,0.16817439999977069,None,,,,,,114,0,113,584.3085422000004,,,,,,,,,,,,,,,,,,,,,,,584.2933663000003,584.3085422000004,584.7929127999996,,,,,,,,,,,,584.8108169999996,,,,,,,,,,,584.8081705999994,584.8108169999996,584.8108169999996,584.8108169999996,587.8092756000005,f,1.4623074000010092,0.16817439999977069,587.8094944000004,587.8095534999993,None,,,,,,,,,,,,,,,,,00015,001,2025-11-17_18h05.33.650,MST_task,2024.2.0,59.85185468911407,2025-11-17 18h05.42.494030 +0530,
,Objects\080a.jpg,114,0,115,,,,,j,1.7301413000004686,0.17609810000067228,None,,,,,,115,0,114,587.8252353000007,,,,,,,,,,,,,,,,,,,,,,,587.8098535999998,587.8252353000007,588.309724499999,,,,,,,,,,,,588.3275589999994,,,,,,,,,,,588.3249816000007,588.3275589999994,588.3275589999994,588.3275589999994,591.3258561000002,j,1.7301413000004686,0.17609810000067228,591.3260721000006,591.326130899999,None,,,,,,,,,,,,,,,,,00015,001,2025-11-17_18h05.33.650,MST_task,2024.2.0,59.85185468911407,2025-11-17 18h05.42.494030 +0530,
,Objects\124a.jpg,115,0,116,,,,,f,0.8453795000004902,0.16789590000007593,None,,,,,,116,0,115,591.3417833999993,,,,,,,,,,,,,,,,,,,,,,,591.326430699999,591.3417833999993,591.8263360000001,,,,,,,,,,,,591.8435523999997,,,,,,,,,,,591.8408170000002,591.8435523999997,591.8435523999997,591.8435523999997,594.8421574000004,f,0.8453795000004902,0.16789590000007593,594.8423579999999,594.842411399999,None,,,,,,,,,,,,,,,,,00015,001,2025-11-17_18h05.33.650,MST_task,2024.2.0,59.85185468911407,2025-11-17 18h05.42.494030 +0530,
,Objects\081a.jpg,116,0,117,,,,,j,1.6633142000009684,0.15966259999913746,None,,,,,,117,0,116,594.8585008999999,,,,,,,,,,,,,,,,,,,,,,,594.8427274000005,594.8585008999999,595.3429624,,,,,,,,,,,,595.3624751999996,,,,,,,,,,,595.3599097999995,595.3624751999996,595.3624751999996,595.3624751999996,598.3589092000002,j,1.6633142000009684,0.15966259999913746,598.3591015000002,598.3591558000007,None,,,,,,,,,,,,,,,,,00015,001,2025-11-17_18h05.33.650,MST_task,2024.2.0,59.85185468911407,2025-11-17 18h05.42.494030 +0530,
,Objects\065a.jpg,117,0,118,,,,,None,,,f,2.0777061999997386,None,,,,118,0,117,598.3751835000003,,,,,,,,,,,,,,,,,,,,,,,598.3594395,598.3751835000003,598.8596601999998,,,,,,,,,,,,598.8777200999994,,,,,,,,,,,598.8750717999992,598.8777200999994,598.8777200999994,598.8777200999994,601.8751627999991,None,,,601.875219399999,603.9770377999994,f,,,,601.8914396,601.8914396,2.0777061999997386,None,,,,,,,,,,00015,001,2025-11-17_18h05.33.650,MST_task,2024.2.0,59.85185468911407,2025-11-17 18h05.42.494030 +0530,
,Objects\041a.jpg,118,0,119,,,,,j,1.722648000000845,0.17576669999834849,None,,,,,,119,0,118,603.9917341,,,,,,,,,,,,,,,,,,,,,,,603.9775700999999,603.9917341,604.4760449999994,,,,,,,,,,,,604.4945485999997,,,,,,,,,,,604.4916888000007,604.4945485999997,604.4945485999997,604.4945485999997,607.4925609999991,j,1.722648000000845,0.17576669999834849,607.4927494000003,607.4927951999998,None,,,,,,,,,,,,,,,,,00015,001,2025-11-17_18h05.33.650,MST_task,2024.2.0,59.85185468911407,2025-11-17 18h05.42.494030 +0530,
,Scenes\123a.jpg,119,0,120,,,,,j,0.935792100000981,0.16042249999918567,None,,,,,,120,0,119,607.5082729000005,,,,,,,,,,,,,,,,,,,,,,,607.493073399999,607.5082729000005,607.9921254000001,,,,,,,,,,,,608.0092793999993,,,,,,,,,,,608.0060353999997,608.0092793999993,608.0092793999993,608.0092793999993,610.9936101999992,j,0.935792100000981,0.16042249999918567,610.9938167,610.9938688999991,None,611.0084833000001,611.0084833000001,611.0084833000001,,,,,,,,,,,,,,00015,001,2025-11-17_18h05.33.650,MST_task,2024.2.0,59.85185468911407,2025-11-17 18h05.42.494030 +0530,
,Scenes\060a.jpg,120,0,121,,,,,j,0.8486226000004535,0.15994749999845226,None,,,,,,121,0,120,611.0084833000001,,,,,,,,,,,,,,,,,,,,,,,610.9942405999991,611.0084833000001,611.4926529999993,,,,,,,,,,,,611.5367783999991,,,,,,,,,,,611.5333572,611.5367783999991,611.5367783999991,611.5367783999991,614.5090464999994,j,0.8486226000004535,0.15994749999845226,614.5093878999996,614.5095397000005,None,,,,,,,,,,,,,,,,,00015,001,2025-11-17_18h05.33.650,MST_task,2024.2.0,59.85185468911407,2025-11-17 18h05.42.494030 +0530,
,Scenes\024a.jpg,121,0,122,,,,,j,1.0650445999999647,0.15934389999893028,None,,,,,,122,0,121,614.5250617000002,,,,,,,,,,,,,,,,,,,,,,,614.509926499999,614.5250617000002,615.0096885000003,,,,,,,,,,,,615.0323979999994,,,,,,,,,,,615.0288875000006,615.0323979999994,615.0323979999994,615.0323979999994,618.0259341000001,j,1.0650445999999647,0.15934389999893028,618.0261692999993,618.0262230000008,None,,,,,,,,,,,,,,,,,00015,001,2025-11-17_18h05.33.650,MST_task,2024.2.0,59.85185468911407,2025-11-17 18h05.42.494030 +0530,
,Scenes\144a.jpg,122,0,123,,,,,j,1.8031394000008731,0.14362549999896146,None,,,,,,123,0,122,618.0424421999996,,,,,,,,,,,,,,,,,,,,,,,618.0265519999994,618.0424421999996,618.5264478999998,,,,,,,,,,,,618.5499846000002,,,,,,,,,,,618.5468012000001,618.5499846000002,618.5499846000002,618.5499846000002,621.5423047000004,j,1.8031394000008731,0.14362549999896146,621.5425206,621.5425794000002,None,,,,,,,,,,,,,,,,,00015,001,2025-11-17_18h05.33.650,MST_task,2024.2.0,59.85185468911407,2025-11-17 18h05.42.494030 +0530,
,Scenes\105a.jpg,123,0,124,,,,,j,1.4682812000010017,0.18472039999869594,None,,,,,,124,0,123,621.5586304000008,,,,,,,,,,,,,,,,,,,,,,,621.5429569999997,621.5586304000008,622.0430658000005,,,,,,,,,,,,622.0687065999991,,,,,,,,,,,622.0654964000005,622.0687065999991,622.0687065999991,622.0687065999991,625.0588735999991,j,1.4682812000010017,0.18472039999869594,625.0591024999994,625.0591626999994,None,,,,,,,,,,,,,,,,,00015,001,2025-11-17_18h05.33.650,MST_task,2024.2.0,59.85185468911407,2025-11-17 18h05.42.494030 +0530,
,Scenes\033a.jpg,124,0,125,,,,,j,2.5491198999989138,0.16849250000086613,None,,,,,,125,0,124,625.0750478999998,,,,,,,,,,,,,,,,,,,,,,,625.0595362999993,625.0750478999998,625.5595312999994,,,,,,,,,,,,625.5802762000003,,,,,,,,,,,625.5769775999997,625.5802762000003,625.5802762000003,625.5802762000003,628.5756469999997,j,2.5491198999989138,0.16849250000086613,628.5758635999991,628.575933099999,None,,,,,,,,,,,,,,,,,00015,001,2025-11-17_18h05.33.650,MST_task,2024.2.0,59.85185468911407,2025-11-17 18h05.42.494030 +0530,
,Scenes\001a.jpg,125,0,126,,,,,f,1.2585423000000446,0.18398679999882006,None,,,,,,126,0,125,628.5915908000006,,,,,,,,,,,,,,,,,,,,,,,628.5762400999993,628.5915908000006,629.0760804000001,,,,,,,,,,,,629.1023356999995,,,,,,,,,,,629.0992888000001,629.1023356999995,629.1023356999995,629.1023356999995,632.0922494000006,f,1.2585423000000446,0.18398679999882006,632.0924367999996,632.0924856000001,None,,,,,,,,,,,,,,,,,00015,001,2025-11-17_18h05.33.650,MST_task,2024.2.0,59.85185468911407,2025-11-17 18h05.42.494030 +0530,
,Objects\114a.jpg,126,0,127,,,,,f,2.3744299999998475,0.14359870000043884,None,,,,,,127,0,126,632.1084788000007,,,,,,,,,,,,,,,,,,,,,,,632.0928299999996,632.1084788000007,632.5924871999996,,,,,,,,,,,,632.6111971999999,,,,,,,,,,,632.6078569999991,632.6111971999999,632.6111971999999,632.6111971999999,635.6088259000007,f,2.3744299999998475,0.14359870000043884,635.6089687999993,635.6090052,None,,,,,,,,,,,,,,,,,00015,001,2025-11-17_18h05.33.650,MST_task,2024.2.0,59.85185468911407,2025-11-17 18h05.42.494030 +0530,
,Objects\175a.jpg,127,0,128,,,,,f,1.0391552000000956,0.14423509999869566,None,,,,,,128,0,127,635.6251093999999,,,,,,,,,,,,,,,,,,,,,,,635.6091983999995,635.6251093999999,636.1098251999992,,,,,,,,,,,,636.1300085000003,,,,,,,,,,,636.1273469000007,636.1300085000003,636.1300085000003,636.1300085000003,639.1257769000003,f,1.0391552000000956,0.14423509999869566,639.1259492999998,639.1259945000002,None,,,,,,,,,,,,,,,,,00015,001,2025-11-17_18h05.33.650,MST_task,2024.2.0,59.85185468911407,2025-11-17 18h05.42.494030 +0530,
,Objects\122a.jpg,128,0,129,,,,,f,1.4940568000001804,0.16739099999904283,None,,,,,,129,0,128,639.1416917999995,,,,,,,,,,,,,,,,,,,,,,,639.1262167999994,639.1416917999995,639.6264365999996,,,,,,,,,,,,639.6434150999994,,,,,,,,,,,639.6409645999993,639.6434150999994,639.6434150999994,639.6434150999994,642.6423551999997,f,1.4940568000001804,0.16739099999904283,642.6425775000007,642.6426353999996,None,,,,,,,,,,,,,,,,,00015,001,2025-11-17_18h05.33.650,MST_task,2024.2.0,59.85185468911407,2025-11-17 18h05.42.494030 +0530,
,Objects\105a.jpg,129,0,130,,,,,f,0.8960358999993332,0.15982520000034128,None,,,,,,130,0,129,642.6585185000004,,,,,,,,,,,,,,,,,,,,,,,642.6429293000001,642.6585185000004,643.1429377999993,,,,,,,,,,,,643.1613825999993,,,,,,,,,,,643.1588009000006,643.1613825999993,643.1613825999993,643.1613825999993,646.1590978000004,f,0.8960358999993332,0.15982520000034128,646.1592636000005,646.1593090000006,None,,,,,,,,,,,,,,,,,00015,001,2025-11-17_18h05.33.650,MST_task,2024.2.0,59.85185468911407,2025-11-17 18h05.42.494030 +0530,
,Objects\003a.jpg,130,0,131,,,,,j,1.1469729999989795,0.1999195000007603,None,,,,,,131,0,130,646.1750582000004,,,,,,,,,,,,,,,,,,,,,,,646.1595660999992,646.1750582000004,646.6594127000008,,,,,,,,,,,,646.6779597000004,,,,,,,,,,,646.6753117000007,646.6779597000004,646.6779597000004,646.6779597000004,649.6755381000003,j,1.1469729999989795,0.1999195000007603,649.6757333999994,649.6757842000006,None,,,,,,,,,,,,,,,,,00015,001,2025-11-17_18h05.33.650,MST_task,2024.2.0,59.85185468911407,2025-11-17 18h05.42.494030 +0530,
,Objects\051a.jpg,131,0,132,,,,,f,2.2669592999991437,0.16102520000094955,None,,,,,,132,0,131,649.6915334999994,,,,,,,,,,,,,,,,,,,,,,,649.6760560999992,649.6915334999994,650.1764483999996,,,,,,,,,,,,650.1978588999991,,,,,,,,,,,650.1952285000007,650.1978588999991,650.1978588999991,650.1978588999991,653.1922113,f,2.2669592999991437,0.16102520000094955,653.1924216000007,653.1924829,None,,,,,,,,,,,,,,,,,00015,001,2025-11-17_18h05.33.650,MST_task,2024.2.0,59.85185468911407,2025-11-17 18h05.42.494030 +0530,
,Objects\113a.jpg,132,0,133,,,,,f,1.1064496999988478,0.15923790000124427,None,,,,,,133,0,132,653.2085406999995,,,,,,,,,,,,,,,,,,,,,,,653.1927809999997,653.2085406999995,653.6929177999991,,,,,,,,,,,,653.7111664999993,,,,,,,,,,,653.7080332999994,653.7111664999993,653.7111664999993,653.7111664999993,656.7092076999998,f,1.1064496999988478,0.15923790000124427,656.7094178999996,656.7094761999997,None,,,,,,,,,,,,,,,,,00015,001,2025-11-17_18h05.33.650,MST_task,2024.2.0,59.85185468911407,2025-11-17 18h05.42.494030 +0530,
,Scenes\150a.jpg,133,0,134,,,,,j,0.9281074000009539,0.1760398999995232,None,,,,,,134,0,133,656.7253191,,,,,,,,,,,,,,,,,,,,,,,656.709768499999,656.7253191,657.2094973999992,,,,,,,,,,,,657.232769799999,,,,,,,,,,,657.2296769999994,657.232769799999,657.232769799999,657.232769799999,660.2257248000005,j,0.9281074000009539,0.1760398999995232,660.2259572000003,660.2260177999997,None,,,,,,,,,,,,,,,,,00015,001,2025-11-17_18h05.33.650,MST_task,2024.2.0,59.85185468911407,2025-11-17 18h05.42.494030 +0530,
,Scenes\084a.jpg,134,0,135,,,,,j,0.8166724999991857,0.18407920000026934,None,,,,,,135,0,134,660.2416606000006,,,,,,,,,,,,,,,,,,,,,,,660.226400399999,660.2416606000006,660.7263536999999,,,,,,,,,,,,660.7523510999999,,,,,,,,,,,660.7488998999997,660.7523510999999,660.7523510999999,660.7523510999999,663.7422389999992,j,0.8166724999991857,0.18407920000026934,663.7424209000001,663.7424697000006,None,,,,,,,,,,,,,,,,,00015,001,2025-11-17_18h05.33.650,MST_task,2024.2.0,59.85185468911407,2025-11-17 18h05.42.494030 +0530,
,Scenes\146a.jpg,135,0,136,,,,,j,0.7534446999998181,0.13599629999953322,None,,,,,,136,0,135,663.7586525999996,,,,,,,,,,,,,,,,,,,,,,,663.7427824999995,663.7586525999996,664.2427045999993,,,,,,,,,,,,664.2715877999999,,,,,,,,,,,664.2682769000003,664.2715877999999,664.2715877999999,664.2715877999999,667.2592052,j,0.7534446999998181,0.13599629999953322,667.2594210999996,667.2594814999993,None,,,,,,,,,,,,,,,,,00015,001,2025-11-17_18h05.33.650,MST_task,2024.2.0,59.85185468911407,2025-11-17 18h05.42.494030 +0530,
,Scenes\152a.jpg,136,0,137,,,,,j,0.7548903000006248,0.15160300000025018,None,,,,,,137,0,136,667.2751177999999,,,,,,,,,,,,,,,,,,,,,,,667.2598803000001,667.2751177999999,667.7597415,,,,,,,,,,,,667.7827357999995,,,,,,,,,,,667.7793959999999,667.7827357999995,667.7827357999995,667.7827357999995,670.7757476000006,j,0.7548903000006248,0.15160300000025018,670.7759526999998,670.7760323999992,None,,,,,,,,,,,,,,,,,00015,001,2025-11-17_18h05.33.650,MST_task,2024.2.0,59.85185468911407,2025-11-17 18h05.42.494030 +0530,
,Scenes\182a.jpg,137,0,138,,,,,f,1.55972440000005,0.16859839999960968,None,,,,,,138,0,137,670.7916807999991,,,,,,,,,,,,,,,,,,,,,,,670.7763881999999,670.7916807999991,671.2763498000004,,,,,,,,,,,,671.2974952000004,,,,,,,,,,,671.2943966999992,671.2974952000004,671.2974952000004,671.2974952000004,674.2922730999999,f,1.55972440000005,0.16859839999960968,674.2926141000007,674.2926759000002,None,,,,,,,,,,,,,,,,,00015,001,2025-11-17_18h05.33.650,MST_task,2024.2.0,59.85185468911407,2025-11-17 18h05.42.494030 +0530,
,Scenes\167a.jpg,138,0,139,,,,,f,1.1196830999997474,0.16802439999992203,None,,,,,,139,0,138,674.3083710999999,,,,,,,,,,,,,,,,,,,,,,,674.2929705000006,674.3083710999999,674.7927440999993,,,,,,,,,,,,674.8177268,,,,,,,,,,,674.8143657,674.8177268,674.8177268,674.8177268,677.8092429999997,f,1.1196830999997474,0.16802439999992203,677.8094486999998,677.8095052999997,None,,,,,,,,,,,,,,,,,00015,001,2025-11-17_18h05.33.650,MST_task,2024.2.0,59.85185468911407,2025-11-17 18h05.42.494030 +0530,
,Scenes\143a.jpg,139,0,140,,,,,j,1.0425388000003295,0.14341959999910614,None,,,,,,140,0,139,677.8251399000001,,,,,,,,,,,,,,,,,,,,,,,677.8100145000008,677.8251399000001,678.3097283999996,,,,,,,,,,,,678.3349992000003,,,,,,,,,,,678.3317977000006,678.3349992000003,678.3349992000003,678.3349992000003,681.3258401000003,j,1.0425388000003295,0.14341959999910614,681.3260725,681.3261333999999,None,,,,,,,,,,,,,,,,,00015,001,2025-11-17_18h05.33.650,MST_task,2024.2.0,59.85185468911407,2025-11-17 18h05.42.494030 +0530,
,Objects\106a.jpg,140,0,141,,,,,f,1.115455799999836,0.1833409999999276,None,,,,,,141,0,140,681.3415678000001,,,,,,,,,,,,,,,,,,,,,,,681.3265171000003,681.3415678000001,681.8264669,,,,,,,,,,,,681.8462779000001,,,,,,,,,,,681.843175,681.8462779000001,681.8462779000001,681.8462779000001,684.8425922999995,f,1.115455799999836,0.1833409999999276,684.8428260000001,684.8428851999997,None,,,,,,,,,,,,,,,,,00015,001,2025-11-17_18h05.33.650,MST_task,2024.2.0,59.85185468911407,2025-11-17 18h05.42.494030 +0530,
,Objects\064a.jpg,141,0,142,,,,,j,1.5023880999997345,0.14465300000119896,None,,,,,,142,0,141,684.8585141999993,,,,,,,,,,,,,,,,,,,,,,,684.8433024000005,684.8585141999993,685.3428540999994,,,,,,,,,,,,685.3624359999994,,,,,,,,,,,685.3596895999999,685.3624359999994,685.3624359999994,685.3624359999994,688.3591780000006,j,1.5023880999997345,0.14465300000119896,688.3593896999992,688.3594472000004,None,,,,,,,,,,,,,,,,,00015,001,2025-11-17_18h05.33.650,MST_task,2024.2.0,59.85185468911407,2025-11-17 18h05.42.494030 +0530,
,Objects\009a.jpg,142,0,143,,,,,f,2.085515299999315,0.14420459999928426,None,,,,,,143,0,142,688.3751993000005,,,,,,,,,,,,,,,,,,,,,,,688.3598258999991,688.3751993000005,688.8598903999991,,,,,,,,,,,,688.8832939999993,,,,,,,,,,,688.8805714999999,688.8832939999993,688.8832939999993,688.8832939999993,691.8758142000006,f,2.085515299999315,0.14420459999928426,691.8760191999991,691.8760769,None,,,,,,,,,,,,,,,,,00015,001,2025-11-17_18h05.33.650,MST_task,2024.2.0,59.85185468911407,2025-11-17 18h05.42.494030 +0530,
,Objects\166a.jpg,143,0,144,,,,,None,,,j,2.072484500000428,None,,,,144,0,143,691.8919160999994,,,,,,,,,,,,,,,,,,,,,,,691.8763689999996,691.8919160999994,692.3765712999993,,,,,,,,,,,,692.3986509999995,,,,,,,,,,,692.3959199000001,692.3986509999995,692.3986509999995,692.3986509999995,695.3923859999995,None,,,695.3926338000001,697.493801999999,j,,,,695.4085364000002,695.4085364000002,2.072484500000428,None,,,,,,,,,,00015,001,2025-11-17_18h05.33.650,MST_task,2024.2.0,59.85185468911407,2025-11-17 18h05.42.494030 +0530,
,Objects\079a.jpg,144,0,145,,,,,f,1.1336531999986619,0.13588380000146572,None,,,,,,145,0,144,697.5085684999995,,,,,,,,,,,,,,,,,,,,,,,697.4942809999993,697.5085684999995,697.9932914000001,,,,,,,,,,,,698.0111997000004,,,,,,,,,,,698.0085015000004,698.0111997000004,698.0111997000004,698.0111997000004,701.0093983000006,f,1.1336531999986619,0.13588380000146572,701.0098713000007,701.0100507000006,None,,,,,,,,,,,,,,,,,00015,001,2025-11-17_18h05.33.650,MST_task,2024.2.0,59.85185468911407,2025-11-17 18h05.42.494030 +0530,
,Objects\161a.jpg,145,0,146,,,,,j,1.6071529000000737,0.14417730000059237,None,,,,,,146,0,145,701.0252817,,,,,,,,,,,,,,,,,,,,,,,701.0104866000001,701.0252817,701.5095820999995,,,,,,,,,,,,701.5302111000001,,,,,,,,,,,701.5274838000005,701.5302111000001,701.5302111000001,701.5302111000001,704.5258959000003,j,1.6071529000000737,0.14417730000059237,704.5261286000004,704.5261924999995,None,,,,,,,,,,,,,,,,,00015,001,2025-11-17_18h05.33.650,MST_task,2024.2.0,59.85185468911407,2025-11-17 18h05.42.494030 +0530,
,Objects\024a.jpg,146,0,147,,,,,f,1.2594397000011668,0.12892749999991793,None,,,,,,147,0,146,704.5417433000002,,,,,,,,,,,,,,,,,,,,,,,704.5264977000006,704.5417433000002,705.026489599999,,,,,,,,,,,,705.0459599000005,,,,,,,,,,,705.0431339999996,705.0459599000005,705.0459599000005,705.0459599000005,708.0424626000004,f,1.2594397000011668,0.12892749999991793,708.0426924000003,708.0427497000001,None,,,,,,,,,,,,,,,,,00015,001,2025-11-17_18h05.33.650,MST_task,2024.2.0,59.85185468911407,2025-11-17 18h05.42.494030 +0530,
,Scenes\124a.jpg,147,0,148,,,,,f,1.650679799999125,0.15267760000097041,None,,,,,,148,0,147,708.0587687999996,,,,,,,,,,,,,,,,,,,,,,,708.0431420999994,708.0587687999996,708.5428159999992,,,,,,,,,,,,708.5663244999996,,,,,,,,,,,708.5630679999995,708.5663244999996,708.5663244999996,708.5663244999996,711.5592806000004,f,1.650679799999125,0.15267760000097041,711.5594853999992,711.5595434000006,None,,,,,,,,,,,,,,,,,00015,001,2025-11-17_18h05.33.650,MST_task,2024.2.0,59.85185468911407,2025-11-17 18h05.42.494030 +0530,
,Scenes\186a.jpg,148,0,149,,,,,j,1.6474636000002647,0.16061029999946186,None,,,,,,149,0,148,711.5753882999998,,,,,,,,,,,,,,,,,,,,,,,711.5599187000007,711.5753882999998,712.0597741000001,,,,,,,,,,,,712.0814412,,,,,,,,,,,712.0781076999992,712.0814412,712.0814412,712.0814412,715.0758735,j,1.6474636000002647,0.16061029999946186,715.0761046000007,715.0761970999993,None,,,,,,,,,,,,,,,,,00015,001,2025-11-17_18h05.33.650,MST_task,2024.2.0,59.85185468911407,2025-11-17 18h05.42.494030 +0530,
,Scenes\153a.jpg,149,0,150,,,,,j,1.0876643999999942,0.16803149999941525,None,,,,,,150,0,149,715.0915917000002,,,,,,,,,,,,,,,,,,,,,,,715.0765762999999,715.0915917000002,715.5763470999991,,,,,,,,,,,,715.6010115999998,,,,,,,,,,,715.5973892999991,715.6010115999998,715.6010115999998,715.6010115999998,718.5924937,j,1.0876643999999942,0.16803149999941525,718.5927154000001,718.5927747000005,None,,,,,,,,,,,,,,,,,00015,001,2025-11-17_18h05.33.650,MST_task,2024.2.0,59.85185468911407,2025-11-17 18h05.42.494030 +0530,
,Scenes\011a.jpg,150,0,151,,,,,None,,,j,0.8040282000001753,None,,,,151,0,150,718.6085165999993,,,,,,,,,,,,,,,,,,,,,,,718.5931586000006,718.6085165999993,719.092913299999,,,,,,,,,,,,719.1200551999991,,,,,,,,,,,719.1165053999994,719.1200551999991,719.1200551999991,719.1200551999991,722.1092747000002,None,,,722.1094761000004,722.9438862999996,j,,,,722.1250667999993,722.1250667999993,0.8040282000001753,None,,,,,,,,,,00015,001,2025-11-17_18h05.33.650,MST_task,2024.2.0,59.85185468911407,2025-11-17 18h05.42.494030 +0530,
,Scenes\093a.jpg,151,0,152,,,,,f,0.9719771000000037,0.1519748000009713,None,,,,,,152,0,151,722.9585645000006,,,,,,,,,,,,,,,,,,,,,,,722.944414399999,722.9585645000006,723.4428043999997,,,,,,,,,,,,723.4693174000004,,,,,,,,,,,723.4659647000008,723.4693174000004,723.4693174000004,723.4693174000004,726.4591328000006,f,0.9719771000000037,0.1519748000009713,726.4593447999996,726.4594058000002,None,,,,,,,,,,,,,,,,,00015,001,2025-11-17_18h05.33.650,MST_task,2024.2.0,59.85185468911407,2025-11-17 18h05.42.494030 +0530,
,Scenes\076a.jpg,152,0,153,,,,,j,1.061287499998798,0.15930780000053346,None,,,,,,153,0,152,726.4752098999998,,,,,,,,,,,,,,,,,,,,,,,726.4597885999992,726.4752098999998,726.9595974999993,,,,,,,,,,,,726.9883788000006,,,,,,,,,,,726.9850055000006,726.9883788000006,726.9883788000006,726.9883788000006,729.9759878999994,j,1.061287499998798,0.15930780000053346,729.9762154,729.9762714000008,None,,,,,,,,,,,,,,,,,00015,001,2025-11-17_18h05.33.650,MST_task,2024.2.0,59.85185468911407,2025-11-17 18h05.42.494030 +0530,
,Scenes\165a.jpg,153,0,154,,,,,f,2.3869073999994725,0.13637430000017048,None,,,,,,154,0,153,729.9917055999995,,,,,,,,,,,,,,,,,,,,,,,729.9766569000003,729.9917055999995,730.4763650000004,,,,,,,,,,,,730.5022059999992,,,,,,,,,,,730.498631299999,730.5022059999992,730.5022059999992,730.5022059999992,733.4923823999998,f,2.3869073999994725,0.13637430000017048,733.4926075000003,733.4926665999992,None,,,,,,,,,,,,,,,,,00015,001,2025-11-17_18h05.33.650,MST_task,2024.2.0,59.85185468911407,2025-11-17 18h05.42.494030 +0530,
,Objects\135a.jpg,154,0,155,,,,,j,2.373760000000402,0.14391929999874264,None,,,,,,155,0,154,733.5085073999999,,,,,,,,,,,,,,,,,,,,,,,733.4929685000006,733.5085073999999,733.9929312000004,,,,,,,,,,,,734.0110523000003,,,,,,,,,,,734.0078778000006,734.0110523000003,734.0110523000003,734.0110523000003,737.0090964999999,j,2.373760000000402,0.14391929999874264,737.0093342,737.009398799999,None,,,,,,,,,,,,,,,,,00015,001,2025-11-17_18h05.33.650,MST_task,2024.2.0,59.85185468911407,2025-11-17 18h05.42.494030 +0530,
,Objects\163a.jpg,155,0,156,,,,,j,1.0492510000003676,0.14418889999979,None,,,,,,156,0,155,737.0251078000001,,,,,,,,,,,,,,,,,,,,,,,737.0097979000002,737.0251078000001,737.5099355999992,,,,,,,,,,,,737.5281080999994,,,,,,,,,,,737.5252922,737.5281080999994,737.5281080999994,737.5281080999994,740.5258360000007,j,1.0492510000003676,0.14418889999979,740.5260548999995,740.5261291999996,None,,,,,,,,,,,,,,,,,00015,001,2025-11-17_18h05.33.650,MST_task,2024.2.0,59.85185468911407,2025-11-17 18h05.42.494030 +0530,
,Objects\099a.jpg,156,0,157,,,,,j,2.6380293000001984,0.15939369999978226,None,,,,,,157,0,156,740.541685799999,,,,,,,,,,,,,,,,,,,,,,,740.5264666000003,740.541685799999,741.0263617,,,,,,,,,,,,741.0435127000001,,,,,,,,,,,741.0406741999996,741.0435127000001,741.0435127000001,741.0435127000001,744.0423305999993,j,2.6380293000001984,0.15939369999978226,744.0425505000003,744.0426102999991,None,,,,,,,,,,,,,,,,,00015,001,2025-11-17_18h05.33.650,MST_task,2024.2.0,59.85185468911407,2025-11-17 18h05.42.494030 +0530,
,Objects\040a.jpg,157,0,158,,,,,f,1.322261499999513,0.1515478000001167,None,,,,,,158,0,157,744.058513,,,,,,,,,,,,,,,,,,,,,,,744.0429198999991,744.058513,744.5429872000004,,,,,,,,,,,,744.5593281999991,,,,,,,,,,,744.5565043999995,744.5593281999991,744.5593281999991,744.5593281999991,747.5440226999999,f,1.322261499999513,0.1515478000001167,747.5442691999997,747.5443290000003,None,747.5585761999992,747.5585761999992,747.5585761999992,,,,,,,,,,,,,,00015,001,2025-11-17_18h05.33.650,MST_task,2024.2.0,59.85185468911407,2025-11-17 18h05.42.494030 +0530,
,Objects\128a.jpg,158,0,159,,,,,f,2.697810900001059,0.08810459999949671,None,,,,,,159,0,158,747.5585761999992,,,,,,,,,,,,,,,,,,,,,,,747.5447619999995,747.5585761999992,748.0428716000006,,,,,,,,,,,,748.0634047000003,,,,,,,,,,,748.0608718000003,748.0634047000003,748.0634047000003,748.0634047000003,751.0593934000008,f,2.697810900001059,0.08810459999949671,751.0595902999994,751.0596387999994,None,,,,,,,,,,,,,,,,,00015,001,2025-11-17_18h05.33.650,MST_task,2024.2.0,59.85185468911407,2025-11-17 18h05.42.494030 +0530,
,Objects\083a.jpg,159,0,160,,,,,f,1.3586368999986007,0.10394560000167985,None,,,,,,160,0,159,751.0750946000007,,,,,,,,,,,,,,,,,,,,,,,751.0598859000002,751.0750946000007,751.5595076999998,,,,,,,,,,,,751.5788412000002,,,,,,,,,,,751.5761775999999,751.5788412000002,751.5788412000002,751.5788412000002,754.5757776999999,f,1.3586368999986007,0.10394560000167985,754.5760288999991,754.5760907000003,None,,,,,,,,,,,,,,,,,00015,001,2025-11-17_18h05.33.650,MST_task,2024.2.0,59.85185468911407,2025-11-17 18h05.42.494030 +0530,
,Objects\130a.jpg,160,0,161,,,,,f,1.7933040999996592,0.1367086999998719,None,,,,,,161,0,160,754.5917303000006,,,,,,,,,,,,,,,,,,,,,,,754.5763927999997,754.5917303000006,755.0763946000006,,,,,,,,,,,,755.0958183999992,,,,,,,,,,,755.0930558,755.0958183999992,755.0958183999992,755.0958183999992,758.0923906999997,f,1.7933040999996592,0.1367086999998719,758.0926980000004,758.0927699000003,None,,,,,,,,,,,,,,,,,00015,001,2025-11-17_18h05.33.650,MST_task,2024.2.0,59.85185468911407,2025-11-17 18h05.42.494030 +0530,
,Scenes\118a.jpg,161,0,162,,,,,j,0.8662512000009883,0.13686609999967914,None,,,,,,162,0,161,758.1085113999998,,,,,,,,,,,,,,,,,,,,,,,758.0930693999999,758.1085113999998,758.5927952000002,,,,,,,,,,,,758.6145240999995,,,,,,,,,,,758.6114211000004,758.6145240999995,758.6145240999995,758.6145240999995,761.6091362000006,j,0.8662512000009883,0.13686609999967914,761.6093557000004,761.6094168,None,,,,,,,,,,,,,,,,,00015,001,2025-11-17_18h05.33.650,MST_task,2024.2.0,59.85185468911407,2025-11-17 18h05.42.494030 +0530,
,Scenes\015a.jpg,162,0,163,,,,,j,2.102474399998755,0.10443140000097628,None,,,,,,163,0,162,761.625204599999,,,,,,,,,,,,,,,,,,,,,,,761.6098010000005,761.625204599999,762.1096500000003,,,,,,,,,,,,762.138474899999,,,,,,,,,,,762.1349731999999,762.138474899999,762.138474899999,762.138474899999,765.1098237000006,j,2.102474399998755,0.10443140000097628,765.1100432000003,765.1101053999992,None,,,,,,,,,,,,,,,,,00015,001,2025-11-17_18h05.33.650,MST_task,2024.2.0,59.85185468911407,2025-11-17 18h05.42.494030 +0530,
,Scenes\073a.jpg,163,0,164,,,,,j,2.038509399999384,0.13776830000097107,None,,,,,,164,0,163,765.1251706000003,,,,,,,,,,,,,,,,,,,,,,,765.1106502999992,765.1251706000003,765.6097969999992,,,,,,,,,,,,765.6422837999999,,,,,,,,,,,765.6387730999995,765.6422837999999,765.6422837999999,765.6422837999999,768.6257031000005,j,2.038509399999384,0.13776830000097107,768.6259222999997,768.6259807000006,None,,,,,,,,,,,,,,,,,00015,001,2025-11-17_18h05.33.650,MST_task,2024.2.0,59.85185468911407,2025-11-17 18h05.42.494030 +0530,
,Scenes\050a.jpg,164,0,165,,,,,j,0.9494697000009182,0.16107629999896744,None,,,,,,165,0,164,768.6415543999992,,,,,,,,,,,,,,,,,,,,,,,768.6263588999991,768.6415543999992,769.1262740000002,,,,,,,,,,,,769.1472799000003,,,,,,,,,,,769.1440096999995,769.1472799000003,769.1472799000003,769.1472799000003,772.1423911999991,j,0.9494697000009182,0.16107629999896744,772.1426252000001,772.1426845999995,None,,,,,,,,,,,,,,,,,00015,001,2025-11-17_18h05.33.650,MST_task,2024.2.0,59.85185468911407,2025-11-17 18h05.42.494030 +0530,
,Scenes\113a.jpg,165,0,166,,,,,f,1.2571812999995018,0.15146140000069863,None,,,,,,166,0,165,772.1584070999997,,,,,,,,,,,,,,,,,,,,,,,772.1430622999997,772.1584070999997,772.6429614999997,,,,,,,,,,,,772.6643072999996,,,,,,,,,,,772.661210799999,772.6643072999996,772.6643072999996,772.6643072999996,775.6590947999994,f,1.2571812999995018,0.15146140000069863,775.659311899999,775.6593706999993,None,,,,,,,,,,,,,,,,,00015,001,2025-11-17_18h05.33.650,MST_task,2024.2.0,59.85185468911407,2025-11-17 18h05.42.494030 +0530,
,Scenes\101a.jpg,166,0,167,,,,,j,2.0627315000001545,0.13531159999911324,None,,,,,,167,0,166,775.6751339000002,,,,,,,,,,,,,,,,,,,,,,,775.6600266999994,775.6751339000002,776.1596850000005,,,,,,,,,,,,776.1869038000004,,,,,,,,,,,776.1834199000004,776.1869038000004,776.1869038000004,776.1869038000004,779.1757190999997,j,2.0627315000001545,0.13531159999911324,779.1758845999993,779.1759249000006,None,,,,,,,,,,,,,,,,,00015,001,2025-11-17_18h05.33.650,MST_task,2024.2.0,59.85185468911407,2025-11-17 18h05.42.494030 +0530,
,Scenes\156a.jpg,167,0,168,,,,,None,,,j,0.32445779999943625,None,,,,168,0,167,779.1917020000001,,,,,,,,,,,,,,,,,,,,,,,779.1761186000003,779.1917020000001,779.6761308999994,,,,,,,,,,,,779.7016308000002,,,,,,,,,,,779.6984372000006,779.7016308000002,779.7016308000002,779.7016308000002,782.6925207999993,None,,,782.6927355000007,783.0434834000007,j,,,,782.7085812999994,782.7085812999994,0.32445779999943625,None,,,,,,,,,,00015,001,2025-11-17_18h05.33.650,MST_task,2024.2.0,59.85185468911407,2025-11-17 18h05.42.494030 +0530,
,Objects\058a.jpg,168,0,169,,,,,f,1.975182299998778,0.13624040000104287,None,,,,,,169,0,168,783.0583968999999,,,,,,,,,,,,,,,,,,,,,,,783.044013499999,783.0583968999999,783.5425206,,,,,,,,,,,,783.5616644000002,,,,,,,,,,,783.5585360000005,783.5616644000002,783.5616644000002,783.5616644000002,786.5595212000007,f,1.975182299998778,0.13624040000104287,786.5598539000002,786.5599304999996,None,,,,,,,,,,,,,,,,,00015,001,2025-11-17_18h05.33.650,MST_task,2024.2.0,59.85185468911407,2025-11-17 18h05.42.494030 +0530,
,Objects\180a.jpg,169,0,170,,,,,f,1.787366499998825,0.15910059999987425,None,,,,,,170,0,169,786.5752580000008,,,,,,,,,,,,,,,,,,,,,,,786.5602319999998,786.5752580000008,787.0594469000007,,,,,,,,,,,,787.0785952999995,,,,,,,,,,,787.0759715999993,787.0785952999995,787.0785952999995,787.0785952999995,790.0758483999998,f,1.787366499998825,0.15910059999987425,790.0760439999995,790.0760917000007,None,,,,,,,,,,,,,,,,,00015,001,2025-11-17_18h05.33.650,MST_task,2024.2.0,59.85185468911407,2025-11-17 18h05.42.494030 +0530,
,Objects\042a.jpg,170,0,171,,,,,f,1.774298500000441,0.10416110000005574,None,,,,,,171,0,170,790.0916376000005,,,,,,,,,,,,,,,,,,,,,,,790.0763213999999,790.0916376000005,790.5765479000002,,,,,,,,,,,,790.5945768000001,,,,,,,,,,,790.5919990000002,790.5945768000001,790.5945768000001,790.5945768000001,793.5922135000001,f,1.774298500000441,0.10416110000005574,793.5925210999994,793.5925814000002,None,,,,,,,,,,,,,,,,,00015,001,2025-11-17_18h05.33.650,MST_task,2024.2.0,59.85185468911407,2025-11-17 18h05.42.494030 +0530,
,Objects\093a.jpg,171,0,172,,,,,j,2.209024899999349,0.16018400000029942,None,,,,,,172,0,171,793.6084604000007,,,,,,,,,,,,,,,,,,,,,,,793.5928566000002,793.6084604000007,794.0925286999991,,,,,,,,,,,,794.1117952999994,,,,,,,,,,,794.1092102999992,794.1117952999994,794.1117952999994,794.1117952999994,797.1090172000004,j,2.209024899999349,0.16018400000029942,797.1092848000008,797.1093435999992,None,,,,,,,,,,,,,,,,,00015,001,2025-11-17_18h05.33.650,MST_task,2024.2.0,59.85185468911407,2025-11-17 18h05.42.494030 +0530,
,Objects\139a.jpg,172,0,173,,,,,f,1.7343379000012646,0.13665499999842723,None,,,,,,173,0,172,797.125143199999,,,,,,,,,,,,,,,,,,,,,,,797.1096359999992,797.125143199999,797.6095248999991,,,,,,,,,,,,797.6425218000004,,,,,,,,,,,797.6396853999995,797.6425218000004,797.6425218000004,797.6425218000004,800.6257153000006,f,1.7343379000012646,0.13665499999842723,800.6260103999994,800.6260707999991,None,,,,,,,,,,,,,,,,,00015,001,2025-11-17_18h05.33.650,MST_task,2024.2.0,59.85185468911407,2025-11-17 18h05.42.494030 +0530,
,Objects\060a.jpg,173,0,174,,,,,f,1.5293724999992264,0.10372950000055425,None,,,,,,174,0,173,800.641577299999,,,,,,,,,,,,,,,,,,,,,,,800.6263751000006,800.641577299999,801.1263669,,,,,,,,,,,,801.1436131999999,,,,,,,,,,,801.1410821999998,801.1436131999999,801.1436131999999,801.1436131999999,804.1423412000004,f,1.5293724999992264,0.10372950000055425,804.1425729999992,804.1426329999995,None,,,,,,,,,,,,,,,,,00015,001,2025-11-17_18h05.33.650,MST_task,2024.2.0,59.85185468911407,2025-11-17 18h05.42.494030 +0530,
,Objects\107a.jpg,174,0,175,,,,,None,,,f,7.7978983000011795,None,,,,175,0,174,804.1585147999995,,,,,,,,,,,,,,,,,,,,,,,804.1429260999994,804.1585147999995,804.6431121000005,,,,,,,,,,,,804.6605314000008,,,,,,,,,,,804.6578332999998,804.6605314000008,804.6605314000008,804.6605314000008,807.6590128000007,None,,,807.6592172000001,815.4773170000008,f,,,,807.6751650000006,807.6751650000006,7.7978983000011795,None,,,,,,,,,,00015,001,2025-11-17_18h05.33.650,MST_task,2024.2.0,59.85185468911407,2025-11-17 18h05.42.494030 +0530,
,Scenes\091a.jpg,175,0,176,,,,,j,2.0119748000015534,0.16014369999902556,None,,,,,,176,0,175,815.4915887000006,,,,,,,,,,,,,,,,,,,,,,,815.4778339000004,815.4915887000006,815.9760421999999,,,,,,,,,,,,815.9967992999991,,,,,,,,,,,815.9936651000007,815.9967992999991,815.9967992999991,815.9967992999991,818.9923846999991,j,2.0119748000015534,0.16014369999902556,818.9926061999995,818.9926663999995,None,,,,,,,,,,,,,,,,,00015,001,2025-11-17_18h05.33.650,MST_task,2024.2.0,59.85185468911407,2025-11-17 18h05.42.494030 +0530,
,Scenes\166a.jpg,176,0,177,,,,,j,0.9095722000001842,0.16015229999902658,None,,,,,,177,0,176,819.0083979999999,,,,,,,,,,,,,,,,,,,,,,,818.9930691999998,819.0083979999999,819.4930636999998,,,,,,,,,,,,819.5153522,,,,,,,,,,,819.5120509000008,819.5153522,819.5153522,819.5153522,822.5090990999997,j,0.9095722000001842,0.16015229999902658,822.5093278999993,822.5093875000002,None,,,,,,,,,,,,,,,,,00015,001,2025-11-17_18h05.33.650,MST_task,2024.2.0,59.85185468911407,2025-11-17 18h05.42.494030 +0530,
