Sl_no,image_path,thisN,thisTrialN,thisRepN,key_resp_5.keys,key_resp_5.rt,key_resp_5.duration,key_resp_7.keys,key_resp_7.rt,key_resp_7.duration,key_resp_9.keys,key_resp_9.rt,key_resp_9.duration,key_resp_8.keys,key_resp_8.rt,key_resp_8.duration,practice.thisRepN,practice.thisTrialN,practice.thisN,practice.thisIndex,trials.thisRepN,trials.thisTrialN,trials.thisN,trials.thisIndex,thisRow.t,notes,welcome_page.started,text.started,key_resp.started,welcome_page.stopped,key_resp.keys,key_resp.rt,key_resp.duration,instructions.started,ins.started,key_resp_2.started,instructions.stopped,key_resp_2.keys,key_resp_2.rt,key_resp_2.duration,objects_only_instruction.started,text_3.started,key_resp_3.started,objects_only_instruction.stopped,key_resp_3.keys,key_resp_3.rt,key_resp_3.duration,ISI.started,text_4.started,text_4.stopped,ISI.stopped,practice_block.started,image.started,text_5.started,key_resp_5.started,practice_block.stopped,practice.key_resp_5.keys,practice.key_resp_5.rt,practice.key_resp_5.duration,indoor_outdoor.started,indoor_outdoor.stopped,practice.key_resp_7.keys,image.stopped,text_5.stopped,key_resp_5.stopped,text_7.started,key_resp_7.started,practice.key_resp_7.rt,practice.key_resp_7.duration,practice_to_main.started,text_2.started,key_resp_4.started,practice_to_main.stopped,key_resp_4.keys,key_resp_4.rt,key_resp_4.duration,objects.started,image_2.started,text_9.started,key_resp_9.started,objects.stopped,trials.key_resp_9.keys,trials.key_resp_9.rt,trials.key_resp_9.duration,encoding_task.started,encoding_task.stopped,trials.key_resp_8.keys,image_2.stopped,text_9.stopped,key_resp_9.stopped,text_8.started,key_resp_8.started,trials.key_resp_8.rt,trials.key_resp_8.duration,end_experiment.started,text_6.started,key_resp_6.started,end_experiment.stopped,key_resp_6.keys,key_resp_6.rt,key_resp_6.duration,list_of_stimuli,encoding_task_accuracy,participant,session,date,expName,psychopyVersion,frameRate,expStart,
,,,,,,,,,,,,,,,,,,,,,,,,,,,0.008042699999350589,0.024633400000311667,0.024633400000311667,11.741986999999426,space,11.675244900001417,None,,,,,,,,,,,,,,,,,,,,,,,,,,,,,,,,,,,,,,,,,,,,,,,,,,,,,,,,,,,,,,,,,,,,,,,00011,001,2025-11-14_21h11.30.103,MST_task,2024.2.2,59.98235319130333,2025-11-14 21h11.37.182057 +0530,
,,,,,,,,,,,,,,,,,,,,,,,,,,,,,,,,,,11.742029999999431,11.757659099999728,11.757659099999728,41.12425959999928,space,29.359002400000463,None,,,,,,,,,,,,,,,,,,,,,,,,,,,,,,,,,,,,,,,,,,,,,,,,,,,,,,,,,,,,,,,,00011,001,2025-11-14_21h11.30.103,MST_task,2024.2.2,59.98235319130333,2025-11-14 21h11.37.182057 +0530,
,,,,,,,,,,,,,,,,,,,,,,,,,,,,,,,,,,,,,,,,,41.12428969999928,41.14051330000075,41.14051330000075,57.14055650000046,space,15.991569599998911,None,,,,,,,,,,,,,,,,,,,,,,,,,,,,,,,,,,,,,,,,,,,,,,,,,,,,,,,,,00011,001,2025-11-14_21h11.30.103,MST_task,2024.2.2,59.98235319130333,2025-11-14 21h11.37.182057 +0530,
9,practice_images/180a.jpg,0,0,0,f,1.856865600000674,0.1818370999990293,None,,,,,,,,,0,0,0,8,,,,,57.15684920000058,,,,,,,,,,,,,,,,,,,,,,,57.144400600000154,57.15684920000058,57.67349920000015,57.64027929999975,57.654141700000764,57.67349920000015,57.67349920000015,57.67349920000015,60.65667779999967,f,1.856865600000674,0.1818370999990293,60.658065100000385,60.658082100000684,None,,,,,,,,,,,,,,,,,,,,,,,,,,,,,,,,,,,,,,,,,,00011,001,2025-11-14_21h11.30.103,MST_task,2024.2.2,59.98235319130333,2025-11-14 21h11.37.182057 +0530,
5,practice_images/139a.jpg,1,1,0,None,,,j,0.6000014999990526,None,,,,,,,0,1,1,4,,,,,60.67331000000013,,,,,,,,,,,,,,,,,,,,,,,60.65814490000048,60.67331000000013,61.17339390000052,61.15693540000029,61.1641170999992,61.17339390000052,61.17339390000052,61.17339390000052,64.15682829999969,None,,,64.1568714999994,64.7736449999993,j,64.17325859999983,64.17325859999983,64.17325859999983,64.17325859999983,64.17325859999983,0.6000014999990526,None,,,,,,,,,,,,,,,,,,,,,,,,,,,,,,,,,,,00011,001,2025-11-14_21h11.30.103,MST_task,2024.2.2,59.98235319130333,2025-11-14 21h11.37.182057 +0530,
6,practice_images/158a.jpg,2,2,0,j,1.7461829999992915,0.17756120000012743,None,,,,,,,,,0,2,2,5,,,,,64.7898910999993,,,,,,,,,,,,,,,,,,,,,,,64.77371990000029,64.7898910999993,65.28988220000065,65.27348159999929,65.28014909999911,65.28988220000065,65.28988220000065,65.28988220000065,68.27340150000055,j,1.7461829999992915,0.17756120000012743,68.27345140000034,68.27346150000085,None,68.28981849999946,68.28981849999946,68.28981849999946,,,,,,,,,,,,,,,,,,,,,,,,,,,,,,,,,,,,,,,00011,001,2025-11-14_21h11.30.103,MST_task,2024.2.2,59.98235319130333,2025-11-14 21h11.37.182057 +0530,
10,practice_images/182a.jpg,3,3,0,j,1.8968543999999383,0.1370865999997477,None,,,,,,,,,0,3,3,9,,,,,68.28981849999946,,,,,,,,,,,,,,,,,,,,,,,68.27352240000073,68.28981849999946,68.78982039999937,68.77338459999919,68.78004069999952,68.78982039999937,68.78982039999937,68.78982039999937,71.77332480000041,j,1.8968543999999383,0.1370865999997477,71.77337299999999,71.7733816,None,71.78979620000064,71.78979620000064,71.78979620000064,,,,,,,,,,,,,,,,,,,,,,,,,,,,,,,,,,,,,,,00011,001,2025-11-14_21h11.30.103,MST_task,2024.2.2,59.98235319130333,2025-11-14 21h11.37.182057 +0530,
2,practice_images/031a.jpg,4,4,0,f,1.170209200001409,0.25056149999909394,None,,,,,,,,,0,4,4,1,,,,,71.78979620000064,,,,,,,,,,,,,,,,,,,,,,,71.77343409999958,71.78979620000064,72.2897410000005,72.27332469999965,72.27996050000002,72.2897410000005,72.2897410000005,72.2897410000005,75.27329029999964,f,1.170209200001409,0.25056149999909394,75.27333680000083,75.27334610000071,None,75.28967499999999,75.28967499999999,75.28967499999999,,,,,,,,,,,,,,,,,,,,,,,,,,,,,,,,,,,,,,,00011,001,2025-11-14_21h11.30.103,MST_task,2024.2.2,59.98235319130333,2025-11-14 21h11.37.182057 +0530,
3,practice_images/037a.jpg,5,5,0,f,1.4106047000004764,0.2474930000007589,None,,,,,,,,,0,5,5,2,,,,,75.28967499999999,,,,,,,,,,,,,,,,,,,,,,,75.2734074,75.28967499999999,75.78965529999914,75.77324579999913,75.77977629999987,75.78965529999914,75.78965529999914,75.78965529999914,78.77312469999924,f,1.4106047000004764,0.2474930000007589,78.77317369999946,78.77318360000027,None,78.78963219999969,78.78963219999969,78.78963219999969,,,,,,,,,,,,,,,,,,,,,,,,,,,,,,,,,,,,,,,00011,001,2025-11-14_21h11.30.103,MST_task,2024.2.2,59.98235319130333,2025-11-14 21h11.37.182057 +0530,
7,practice_images/166a.jpg,6,6,0,f,1.8746898000008514,0.2777576999997109,None,,,,,,,,,0,6,6,6,,,,,78.78963219999969,,,,,,,,,,,,,,,,,,,,,,,78.77324190000036,78.78963219999969,79.28958919999968,79.27309310000055,79.27998090000074,79.28958919999968,79.28958919999968,79.28958919999968,82.27313370000047,f,1.8746898000008514,0.2777576999997109,82.27318299999934,82.27319259999967,None,82.2894938999998,82.2894938999998,82.2894938999998,,,,,,,,,,,,,,,,,,,,,,,,,,,,,,,,,,,,,,,00011,001,2025-11-14_21h11.30.103,MST_task,2024.2.2,59.98235319130333,2025-11-14 21h11.37.182057 +0530,
4,practice_images/002b.jpg,7,7,0,f,1.96676110000044,0.2863557000000583,None,,,,,,,,,0,7,7,3,,,,,82.2894938999998,,,,,,,,,,,,,,,,,,,,,,,82.2732501999999,82.2894938999998,82.78948689999925,82.77303240000037,82.7799668000007,82.78948689999925,82.78948689999925,82.78948689999925,85.7730947,f,1.96676110000044,0.2863557000000583,85.77314230000047,85.77315219999946,None,85.78942149999966,85.78942149999966,85.78942149999966,,,,,,,,,,,,,,,,,,,,,,,,,,,,,,,,,,,,,,,00011,001,2025-11-14_21h11.30.103,MST_task,2024.2.2,59.98235319130333,2025-11-14 21h11.37.182057 +0530,
1,practice_images/013a.jpg,8,8,0,f,2.531114699999307,0.28512790000058885,None,,,,,,,,,0,8,8,0,,,,,85.78942149999966,,,,,,,,,,,,,,,,,,,,,,,85.77320850000069,85.78942149999966,86.28941510000004,86.27307839999958,86.28106219999972,86.28941510000004,86.28941510000004,86.28941510000004,89.27297460000045,f,2.531114699999307,0.28512790000058885,89.27301930000067,89.27302899999995,None,89.28944690000026,89.28944690000026,89.28944690000026,,,,,,,,,,,,,,,,,,,,,,,,,,,,,,,,,,,,,,,00011,001,2025-11-14_21h11.30.103,MST_task,2024.2.2,59.98235319130333,2025-11-14 21h11.37.182057 +0530,
8,practice_images/178a.jpg,9,9,0,j,1.1106213000002754,0.2643527999989601,None,,,,,,,,,0,9,9,7,,,,,89.28944690000026,,,,,,,,,,,,,,,,,,,,,,,89.27308850000009,89.28944690000026,89.78943880000043,89.77298630000041,89.78051899999991,89.78943880000043,89.78943880000043,89.78943880000043,92.77306529999987,j,1.1106213000002754,0.2643527999989601,92.77312100000017,92.77313060000051,None,92.78958160000002,92.78958160000002,92.78958160000002,,,,,,,,,,,,,,,,,,,,,,,,,,,,,,,,,,,,,,,00011,001,2025-11-14_21h11.30.103,MST_task,2024.2.2,59.98235319130333,2025-11-14 21h11.37.182057 +0530,
,,,,,,,,,,,,,,,,,,,,,,,,,,,,,,,,,,,,,,,,,,,,,,,,,,,,,,,,,,,,,,,,,,,,,,92.77317140000014,92.78958160000002,92.78958160000002,119.02268879999974,space,26.232370499999888,None,,,,,,,,,,,,,,,,,,,,,,,,,,,,00011,001,2025-11-14_21h11.30.103,MST_task,2024.2.2,59.98235319130333,2025-11-14 21h11.37.182057 +0530,
,Objects\176a.jpg,0,0,0,,,,,,,j,2.5001174000008177,0.2100274000003992,None,,,,,,,0,0,0,0,119.03882909999993,,,,,,,,,,,,,,,,,,,,,,,119.02325559999917,119.03882909999993,119.55574820000038,119.52238700000089,,,,,,,,,,,,,,,,,,,,,,,,,,119.53504790000079,119.55574820000038,119.55574820000038,119.55574820000038,122.53882809999959,j,2.5001174000008177,0.2100274000003992,122.53992970000036,122.5399422999999,None,,,,,,,,,,,,,,,,,00011,001,2025-11-14_21h11.30.103,MST_task,2024.2.2,59.98235319130333,2025-11-14 21h11.37.182057 +0530,
,Objects\097a.jpg,1,0,1,,,,,,,j,1.611188700000639,0.29193669999949634,None,,,,,,,1,0,1,0,122.55542389999937,,,,,,,,,,,,,,,,,,,,,,,122.54001149999931,122.55542389999937,123.05540490000021,123.03888440000082,,,,,,,,,,,,,,,,,,,,,,,,,,123.0465093999992,123.05540490000021,123.05540490000021,123.05540490000021,126.03901269999915,j,1.611188700000639,0.29193669999949634,126.03905900000063,126.03906950000055,None,126.05536949999987,126.05536949999987,126.05536949999987,,,,,,,,,,,,,,00011,001,2025-11-14_21h11.30.103,MST_task,2024.2.2,59.98235319130333,2025-11-14 21h11.37.182057 +0530,
,Objects\138a.jpg,2,0,2,,,,,,,j,1.6625349999994796,0.23002939999969385,None,,,,,,,2,0,2,0,126.05536949999987,,,,,,,,,,,,,,,,,,,,,,,126.03912239999954,126.05536949999987,126.55533339999965,126.53913309999916,,,,,,,,,,,,,,,,,,,,,,,,,,126.54693989999942,126.55533339999965,126.55533339999965,126.55533339999965,129.53888109999934,j,1.6625349999994796,0.23002939999969385,129.5389324000007,129.53894240000045,None,129.55527529999927,129.55527529999927,129.55527529999927,,,,,,,,,,,,,,00011,001,2025-11-14_21h11.30.103,MST_task,2024.2.2,59.98235319130333,2025-11-14 21h11.37.182057 +0530,
,Objects\050a.jpg,3,0,3,,,,,,,None,,,j,5.479449599999498,None,,,,,3,0,3,0,129.55527529999927,,,,,,,,,,,,,,,,,,,,,,,129.5390172999996,129.55527529999927,130.05526810000083,130.0387812000008,,,,,,,,,,,,,,,,,,,,,,,,,,130.04632909999964,130.05526810000083,130.05526810000083,130.05526810000083,133.0388094000009,None,,,133.03884909999942,138.5387554000008,j,133.05520109999998,133.05520109999998,133.05520109999998,133.05520109999998,133.05520109999998,5.479449599999498,None,,,,,,,,,,00011,001,2025-11-14_21h11.30.103,MST_task,2024.2.2,59.98235319130333,2025-11-14 21h11.37.182057 +0530,
,Objects\005a.jpg,4,0,4,,,,,,,j,2.0948927999997977,0.20115369999984978,None,,,,,,,4,0,4,0,138.5551527000007,,,,,,,,,,,,,,,,,,,,,,,138.53882820000035,138.5551527000007,139.0550770000009,139.0386140999999,,,,,,,,,,,,,,,,,,,,,,,,,,139.04660669999976,139.0550770000009,139.0550770000009,139.0550770000009,142.03868909999983,j,2.0948927999997977,0.20115369999984978,142.03873310000017,142.03874309999992,None,142.05507059999945,142.05507059999945,142.05507059999945,,,,,,,,,,,,,,00011,001,2025-11-14_21h11.30.103,MST_task,2024.2.2,59.98235319130333,2025-11-14 21h11.37.182057 +0530,
,Objects\071a.jpg,5,0,5,,,,,,,f,1.7449513000010484,0.2682978999982879,None,,,,,,,5,0,5,0,142.05507059999945,,,,,,,,,,,,,,,,,,,,,,,142.03881039999942,142.05507059999945,142.5550045,142.53863610000008,,,,,,,,,,,,,,,,,,,,,,,,,,142.54624329999933,142.5550045,142.5550045,142.5550045,145.53858070000024,f,1.7449513000010484,0.2682978999982879,145.5386223000005,145.53863180000008,None,145.5549616999997,145.5549616999997,145.5549616999997,,,,,,,,,,,,,,00011,001,2025-11-14_21h11.30.103,MST_task,2024.2.2,59.98235319130333,2025-11-14 21h11.37.182057 +0530,
,Objects\119a.jpg,6,0,6,,,,,,,None,,,f,7.325628800001141,None,,,,,6,0,6,0,145.5549616999997,,,,,,,,,,,,,,,,,,,,,,,145.53870129999996,145.5549616999997,146.05493399999978,146.03879640000014,,,,,,,,,,,,,,,,,,,,,,,,,,146.04615820000072,146.05493399999978,146.05493399999978,146.05493399999978,149.03862819999995,None,,,149.03867940000055,156.3884440999991,f,149.05489579999994,149.05489579999994,149.05489579999994,149.05489579999994,149.05489579999994,7.325628800001141,None,,,,,,,,,,00011,001,2025-11-14_21h11.30.103,MST_task,2024.2.2,59.98235319130333,2025-11-14 21h11.37.182057 +0530,
,Scenes\114a.jpg,7,0,7,,,,,,,j,1.2986406999989413,0.21489950000068347,None,,,,,,,7,0,7,0,156.4047415999994,,,,,,,,,,,,,,,,,,,,,,,156.3885793999998,156.4047415999994,156.9212496,156.88818990000073,,,,,,,,,,,,,,,,,,,,,,,,,,156.91383080000014,156.9212496,156.9212496,156.9212496,159.90468200000032,j,1.2986406999989413,0.21489950000068347,159.90473050000037,159.9047415999994,None,,,,,,,,,,,,,,,,,00011,001,2025-11-14_21h11.30.103,MST_task,2024.2.2,59.98235319130333,2025-11-14 21h11.37.182057 +0530,
,Scenes\122a.jpg,8,0,8,,,,,,,f,1.1964453000000503,0.28740359999937937,None,,,,,,,8,0,8,0,159.92132649999985,,,,,,,,,,,,,,,,,,,,,,,159.90483909999966,159.92132649999985,160.4379699000001,160.40479419999974,,,,,,,,,,,,,,,,,,,,,,,,,,160.42407859999912,160.4379699000001,160.4379699000001,160.4379699000001,163.42129209999985,f,1.1964453000000503,0.28740359999937937,163.4213376000007,163.4213491999999,None,,,,,,,,,,,,,,,,,00011,001,2025-11-14_21h11.30.103,MST_task,2024.2.2,59.98235319130333,2025-11-14 21h11.37.182057 +0530,
,Scenes\051a.jpg,9,0,9,,,,,,,j,1.0413007000006473,0.25341540000044915,None,,,,,,,9,0,9,0,163.43793050000022,,,,,,,,,,,,,,,,,,,,,,,163.42142629999944,163.43793050000022,163.95482950000041,163.9214221000002,,,,,,,,,,,,,,,,,,,,,,,,,,163.93615300000056,163.95482950000041,163.95482950000041,163.95482950000041,166.93793840000035,j,1.0413007000006473,0.25341540000044915,166.93798459999925,166.9379955000004,None,,,,,,,,,,,,,,,,,00011,001,2025-11-14_21h11.30.103,MST_task,2024.2.2,59.98235319130333,2025-11-14 21h11.37.182057 +0530,
,Scenes\002a.jpg,10,0,10,,,,,,,j,1.2129139000007854,0.24183069999889995,None,,,,,,,10,0,10,0,166.95451979999962,,,,,,,,,,,,,,,,,,,,,,,166.9380708000008,166.95451979999962,167.47142390000045,167.43798679999963,,,,,,,,,,,,,,,,,,,,,,,,,,167.4590121000001,167.47142390000045,167.47142390000045,167.47142390000045,170.45448670000042,j,1.2129139000007854,0.24183069999889995,170.45454079999945,170.45457759999954,None,,,,,,,,,,,,,,,,,00011,001,2025-11-14_21h11.30.103,MST_task,2024.2.2,59.98235319130333,2025-11-14 21h11.37.182057 +0530,
,Scenes\052a.jpg,11,0,11,,,,,,,j,1.0539932000010594,0.25401619999865943,None,,,,,,,11,0,11,0,170.47111340000083,,,,,,,,,,,,,,,,,,,,,,,170.45465560000048,170.47111340000083,170.9879677000008,170.95458879999933,,,,,,,,,,,,,,,,,,,,,,,,,,170.97183480000058,170.9879677000008,170.9879677000008,170.9879677000008,173.97106519999943,j,1.0539932000010594,0.25401619999865943,173.9711124000005,173.97112349999952,None,,,,,,,,,,,,,,,,,00011,001,2025-11-14_21h11.30.103,MST_task,2024.2.2,59.98235319130333,2025-11-14 21h11.37.182057 +0530,
,Scenes\080a.jpg,12,0,12,,,,,,,j,0.7702021000004606,0.2456871999984287,None,,,,,,,12,0,12,0,173.9877292000001,,,,,,,,,,,,,,,,,,,,,,,173.97120539999923,173.9877292000001,174.50432929999988,174.47121399999924,,,,,,,,,,,,,,,,,,,,,,,,,,174.48711320000075,174.50432929999988,174.50432929999988,174.50432929999988,177.4876490000006,j,0.7702021000004606,0.2456871999984287,177.48769279999942,177.48770329999934,None,,,,,,,,,,,,,,,,,00011,001,2025-11-14_21h11.30.103,MST_task,2024.2.2,59.98235319130333,2025-11-14 21h11.37.182057 +0530,
,Scenes\053a.jpg,13,0,13,,,,,,,j,1.3696626000000833,0.1980863999997382,None,,,,,,,13,0,13,0,177.50433580000026,,,,,,,,,,,,,,,,,,,,,,,177.48779979999927,177.50433580000026,178.0044326999996,177.9878434000002,,,,,,,,,,,,,,,,,,,,,,,,,,177.9997913999996,178.0044326999996,178.0044326999996,178.0044326999996,180.98769469999934,j,1.3696626000000833,0.1980863999997382,180.98773749999964,180.98774729999968,None,181.00413610000032,181.00413610000032,181.00413610000032,,,,,,,,,,,,,,00011,001,2025-11-14_21h11.30.103,MST_task,2024.2.2,59.98235319130333,2025-11-14 21h11.37.182057 +0530,
,Objects\025a.jpg,14,0,14,,,,,,,j,1.4291358000009495,0.20237429999906453,None,,,,,,,14,0,14,0,181.00413610000032,,,,,,,,,,,,,,,,,,,,,,,180.98781280000003,181.00413610000032,181.52105090000077,181.48762969999916,,,,,,,,,,,,,,,,,,,,,,,,,,181.50310490000084,181.52105090000077,181.52105090000077,181.52105090000077,184.50408799999968,j,1.4291358000009495,0.20237429999906453,184.50413579999986,184.50414679999994,None,,,,,,,,,,,,,,,,,00011,001,2025-11-14_21h11.30.103,MST_task,2024.2.2,59.98235319130333,2025-11-14 21h11.37.182057 +0530,
,Objects\098a.jpg,15,0,15,,,,,,,f,1.3904452999995556,0.25406110000039916,None,,,,,,,15,0,15,0,184.5207317000004,,,,,,,,,,,,,,,,,,,,,,,184.5042271000002,184.5207317000004,185.03735779999988,185.00424270000076,,,,,,,,,,,,,,,,,,,,,,,,,,185.0197571000008,185.03735779999988,185.03735779999988,185.03735779999988,188.02083590000075,f,1.3904452999995556,0.25406110000039916,188.02088899999944,188.02090019999923,None,,,,,,,,,,,,,,,,,00011,001,2025-11-14_21h11.30.103,MST_task,2024.2.2,59.98235319130333,2025-11-14 21h11.37.182057 +0530,
,Objects\019a.jpg,16,0,16,,,,,,,f,1.9030361999994057,0.23757320000004256,None,,,,,,,16,0,16,0,188.03733680000005,,,,,,,,,,,,,,,,,,,,,,,188.02097420000064,188.03733680000005,188.55399489999945,188.52091549999932,,,,,,,,,,,,,,,,,,,,,,,,,,188.5372552000008,188.55399489999945,188.55399489999945,188.55399489999945,191.53730460000043,f,1.9030361999994057,0.23757320000004256,191.53737999999976,191.53739119999955,None,,,,,,,,,,,,,,,,,00011,001,2025-11-14_21h11.30.103,MST_task,2024.2.2,59.98235319130333,2025-11-14 21h11.37.182057 +0530,
,Objects\014a.jpg,17,0,17,,,,,,,f,1.4015737999998237,0.22222169999986363,None,,,,,,,17,0,17,0,191.55388719999974,,,,,,,,,,,,,,,,,,,,,,,191.53744860000006,191.55388719999974,192.07054229999994,192.0374009999996,,,,,,,,,,,,,,,,,,,,,,,,,,192.05389710000054,192.07054229999994,192.07054229999994,192.07054229999994,195.05387639999935,f,1.4015737999998237,0.22222169999986363,195.05392129999927,195.05393209999966,None,,,,,,,,,,,,,,,,,00011,001,2025-11-14_21h11.30.103,MST_task,2024.2.2,59.98235319130333,2025-11-14 21h11.37.182057 +0530,
,Objects\007a.jpg,18,0,18,,,,,,,f,1.2031420000002981,0.25206860000071174,None,,,,,,,18,0,18,0,195.07051370000045,,,,,,,,,,,,,,,,,,,,,,,195.05400949999967,195.07051370000045,195.58714580000014,195.55395769999996,,,,,,,,,,,,,,,,,,,,,,,,,,195.56960179999987,195.58714580000014,195.58714580000014,195.58714580000014,198.57049799999913,f,1.2031420000002981,0.25206860000071174,198.57054330000028,198.57055410000066,None,,,,,,,,,,,,,,,,,00011,001,2025-11-14_21h11.30.103,MST_task,2024.2.2,59.98235319130333,2025-11-14 21h11.37.182057 +0530,
,Objects\041a.jpg,19,0,19,,,,,,,j,1.9224778999996488,0.2556172999993578,None,,,,,,,19,0,19,0,198.58710529999917,,,,,,,,,,,,,,,,,,,,,,,198.5706097000002,198.58710529999917,199.1037250999998,199.07057580000037,,,,,,,,,,,,,,,,,,,,,,,,,,199.08767289999923,199.1037250999998,199.1037250999998,199.1037250999998,202.08717070000057,j,1.9224778999996488,0.2556172999993578,202.08722259999922,202.08723380000083,None,,,,,,,,,,,,,,,,,00011,001,2025-11-14_21h11.30.103,MST_task,2024.2.2,59.98235319130333,2025-11-14 21h11.37.182057 +0530,
,Objects\059a.jpg,20,0,20,,,,,,,None,,,j,0.5778410999992047,None,,,,,20,0,20,0,202.10369910000009,,,,,,,,,,,,,,,,,,,,,,,202.08731029999944,202.10369910000009,202.62035380000088,202.5872077999993,,,,,,,,,,,,,,,,,,,,,,,,,,202.60286869999982,202.62035380000088,202.62035380000088,202.62035380000088,205.60364800000025,None,,,205.60369759999958,206.20403149999947,j,,,,205.62029900000016,205.62029900000016,0.5778410999992047,None,,,,,,,,,,00011,001,2025-11-14_21h11.30.103,MST_task,2024.2.2,59.98235319130333,2025-11-14 21h11.37.182057 +0530,
,Scenes\176a.jpg,21,0,21,,,,,,,j,0.9257164999999077,0.18964650000089023,None,,,,,,,21,0,21,0,206.2202784000001,,,,,,,,,,,,,,,,,,,,,,,206.2041276,206.2202784000001,206.73689940000077,206.70375930000046,,,,,,,,,,,,,,,,,,,,,,,,,,206.72292890000062,206.73689940000077,206.73689940000077,206.73689940000077,209.72025609999946,j,0.9257164999999077,0.18964650000089023,209.72030059999997,209.7203112999996,None,,,,,,,,,,,,,,,,,00011,001,2025-11-14_21h11.30.103,MST_task,2024.2.2,59.98235319130333,2025-11-14 21h11.37.182057 +0530,
,Scenes\121a.jpg,22,0,22,,,,,,,j,1.0412023999997473,0.25546530000065104,None,,,,,,,22,0,22,0,209.73693640000056,,,,,,,,,,,,,,,,,,,,,,,209.72036809999918,209.73693640000056,210.25349260000075,210.22035999999935,,,,,,,,,,,,,,,,,,,,,,,,,,210.23290219999944,210.25349260000075,210.25349260000075,210.25349260000075,213.2368578000005,j,1.0412023999997473,0.25546530000065104,213.23690910000005,213.23692069999925,None,,,,,,,,,,,,,,,,,00011,001,2025-11-14_21h11.30.103,MST_task,2024.2.2,59.98235319130333,2025-11-14 21h11.37.182057 +0530,
,Scenes\004a.jpg,23,0,23,,,,,,,j,2.1497519000004104,0.26193830000011076,None,,,,,,,23,0,23,0,213.25345200000083,,,,,,,,,,,,,,,,,,,,,,,213.23699999999917,213.25345200000083,213.7700917000002,213.73695860000043,,,,,,,,,,,,,,,,,,,,,,,,,,213.75733509999918,213.7700917000002,213.7700917000002,213.7700917000002,216.7534126999999,j,2.1497519000004104,0.26193830000011076,216.75345709999965,216.75346809999974,None,,,,,,,,,,,,,,,,,00011,001,2025-11-14_21h11.30.103,MST_task,2024.2.2,59.98235319130333,2025-11-14 21h11.37.182057 +0530,
,Scenes\164a.jpg,24,0,24,,,,,,,j,1.107501599999523,0.2256347000002279,None,,,,,,,24,0,24,0,216.7700502000007,,,,,,,,,,,,,,,,,,,,,,,216.75354270000025,216.7700502000007,217.28667769999993,217.2535435000009,,,,,,,,,,,,,,,,,,,,,,,,,,217.2714687000007,217.28667769999993,217.28667769999993,217.28667769999993,220.27000140000018,j,1.107501599999523,0.2256347000002279,220.2700432999991,220.2700535999993,None,,,,,,,,,,,,,,,,,00011,001,2025-11-14_21h11.30.103,MST_task,2024.2.2,59.98235319130333,2025-11-14 21h11.37.182057 +0530,
,Scenes\149a.jpg,25,0,25,,,,,,,f,2.2752134000002115,0.24675250000109372,None,,,,,,,25,0,25,0,220.28661619999912,,,,,,,,,,,,,,,,,,,,,,,220.27011130000028,220.28661619999912,,220.77013269999952,,,,,,,,,,,,,,,,,,,,,,,,,,220.78849880000053,220.80327559999932,220.80327559999932,220.80327559999932,223.78663480000068,f,2.2752134000002115,0.24675250000109372,223.78667979999955,223.78669000000082,None,,,,,,,,,,,,,,,,,00011,001,2025-11-14_21h11.30.103,MST_task,2024.2.2,59.98235319130333,2025-11-14 21h11.37.182057 +0530,
,Scenes\167a.jpg,26,0,26,,,,,,,None,,,f,2.796455200001219,None,,,,,26,0,26,0,223.8032063999999,,,,,,,,,,,,,,,,,,,,,,,223.78676199999973,223.8032063999999,224.32016309999926,224.28673549999985,,,,,,,,,,,,,,,,,,,,,,,,,,224.30708419999974,224.32016309999926,224.32016309999926,224.32016309999926,227.30332350000026,None,,,227.30337409999993,230.1202960999999,f,,,,227.31979870000032,227.31979870000032,2.796455200001219,None,,,,,,,,,,00011,001,2025-11-14_21h11.30.103,MST_task,2024.2.2,59.98235319130333,2025-11-14 21h11.37.182057 +0530,
,Scenes\029a.jpg,27,0,27,,,,,,,None,,,j,1.7707592000006116,None,,,,,27,0,27,0,230.13640590000068,,,,,,,,,,,,,,,,,,,,,,,230.1204001999995,230.13640590000068,230.6531371000001,230.62013880000086,,,,,,,,,,,,,,,,,,,,,,,,,,230.6402190000008,230.6531371000001,230.6531371000001,230.6531371000001,233.63640640000085,None,,,233.63645030000043,235.43678120000004,j,,,,233.6530315,233.6530315,1.7707592000006116,None,,,,,,,,,,00011,001,2025-11-14_21h11.30.103,MST_task,2024.2.2,59.98235319130333,2025-11-14 21h11.37.182057 +0530,
,Objects\139a.jpg,28,0,28,,,,,,,None,,,f,1.6708589000008942,None,,,,,28,0,28,0,235.45298309999998,,,,,,,,,,,,,,,,,,,,,,,235.43689710000035,235.45298309999998,235.9699139000004,235.9365789000003,,,,,,,,,,,,,,,,,,,,,,,,,,235.95251869999993,235.9699139000004,235.9699139000004,235.9699139000004,238.95299499999965,None,,,238.95304380000016,240.6531271999993,f,,,,238.96962039999926,238.96962039999926,1.6708589000008942,None,,,,,,,,,,00011,001,2025-11-14_21h11.30.103,MST_task,2024.2.2,59.98235319130333,2025-11-14 21h11.37.182057 +0530,
,Objects\132a.jpg,29,0,29,,,,,,,j,1.1409046000007947,0.21749869999985094,None,,,,,,,29,0,29,0,240.66955339999913,,,,,,,,,,,,,,,,,,,,,,,240.65320710000015,240.66955339999913,241.18617799999993,241.15303160000076,,,,,,,,,,,,,,,,,,,,,,,,,,241.16873809999925,241.18617799999993,241.18617799999993,241.18617799999993,244.1695808000004,j,1.1409046000007947,0.21749869999985094,244.16962710000007,244.16963749999923,None,,,,,,,,,,,,,,,,,00011,001,2025-11-14_21h11.30.103,MST_task,2024.2.2,59.98235319130333,2025-11-14 21h11.37.182057 +0530,
,Objects\147a.jpg,30,0,30,,,,,,,f,1.2353423000004113,0.23584789999949862,None,,,,,,,30,0,30,0,244.1861652000007,,,,,,,,,,,,,,,,,,,,,,,244.16971489999924,244.1861652000007,244.70283869999912,244.66965080000045,,,,,,,,,,,,,,,,,,,,,,,,,,244.68559359999927,244.70283869999912,244.70283869999912,244.70283869999912,247.68611389999933,f,1.2353423000004113,0.23584789999949862,247.68616060000022,247.68617199999971,None,,,,,,,,,,,,,,,,,00011,001,2025-11-14_21h11.30.103,MST_task,2024.2.2,59.98235319130333,2025-11-14 21h11.37.182057 +0530,
,Objects\136a.jpg,31,0,31,,,,,,,f,1.7848953000011534,0.25353460000042105,None,,,,,,,31,0,31,0,247.70274380000046,,,,,,,,,,,,,,,,,,,,,,,247.68623099999968,247.70274380000046,,248.18622379999942,,,,,,,,,,,,,,,,,,,,,,,,,,248.20175799999924,248.21939949999978,248.21939949999978,248.21939949999978,251.20281710000017,f,1.7848953000011534,0.25353460000042105,251.20287389999976,251.20288470000014,None,,,,,,,,,,,,,,,,,00011,001,2025-11-14_21h11.30.103,MST_task,2024.2.2,59.98235319130333,2025-11-14 21h11.37.182057 +0530,
,Objects\140a.jpg,32,0,32,,,,,,,j,1.641946800000369,0.27027989999987767,None,,,,,,,32,0,32,0,251.21932750000087,,,,,,,,,,,,,,,,,,,,,,,251.20296939999935,251.21932750000087,251.73598590000074,251.70287889999963,,,,,,,,,,,,,,,,,,,,,,,,,,251.7188595000007,251.73598590000074,251.73598590000074,251.73598590000074,254.71927850000066,j,1.641946800000369,0.27027989999987767,254.71933490000083,254.71934619999956,None,,,,,,,,,,,,,,,,,00011,001,2025-11-14_21h11.30.103,MST_task,2024.2.2,59.98235319130333,2025-11-14 21h11.37.182057 +0530,
,Objects\100a.jpg,33,0,33,,,,,,,f,2.3034098999996786,0.22595340000043507,None,,,,,,,33,0,33,0,254.73592110000027,,,,,,,,,,,,,,,,,,,,,,,254.71940790000008,254.73592110000027,,255.21945059999962,,,,,,,,,,,,,,,,,,,,,,,,,,255.2349909000004,255.25255710000056,255.25255710000056,255.25255710000056,258.23591750000014,f,2.3034098999996786,0.22595340000043507,258.2359622999993,258.2359720000004,None,,,,,,,,,,,,,,,,,00011,001,2025-11-14_21h11.30.103,MST_task,2024.2.2,59.98235319130333,2025-11-14 21h11.37.182057 +0530,
,Objects\073a.jpg,34,0,34,,,,,,,f,1.5733197999998083,0.23373129999890807,None,,,,,,,34,0,34,0,258.2524787000002,,,,,,,,,,,,,,,,,,,,,,,258.2360313999998,258.2524787000002,,258.7360100999995,,,,,,,,,,,,,,,,,,,,,,,,,,258.7521957000008,258.76913910000076,258.76913910000076,258.76913910000076,261.7524998000008,f,1.5733197999998083,0.23373129999890807,261.7525464999999,261.7525564000007,None,,,,,,,,,,,,,,,,,00011,001,2025-11-14_21h11.30.103,MST_task,2024.2.2,59.98235319130333,2025-11-14 21h11.37.182057 +0530,
,Scenes\166a.jpg,35,0,35,,,,,,,j,1.6005304000009346,0.26930299999912677,None,,,,,,,35,0,35,0,261.7691365999999,,,,,,,,,,,,,,,,,,,,,,,261.75263599999926,261.7691365999999,262.2857521999995,262.25261710000086,,,,,,,,,,,,,,,,,,,,,,,,,,262.2673863,262.2857521999995,262.2857521999995,262.2857521999995,265.2691331999995,j,1.6005304000009346,0.26930299999912677,265.26918339999975,265.2691943000009,None,,,,,,,,,,,,,,,,,00011,001,2025-11-14_21h11.30.103,MST_task,2024.2.2,59.98235319130333,2025-11-14 21h11.37.182057 +0530,
,Scenes\071a.jpg,36,0,36,,,,,,,None,,,j,1.300113400000555,None,,,,,36,0,36,0,265.2857007999992,,,,,,,,,,,,,,,,,,,,,,,265.2692545000009,265.2857007999992,265.8026138999994,265.7692688999996,,,,,,,,,,,,,,,,,,,,,,,,,,265.7873627000008,265.8026138999994,265.8026138999994,265.8026138999994,268.7857719000003,None,,,268.78581809999923,270.11919730000045,j,,,,268.80229970000073,268.80229970000073,1.300113400000555,None,,,,,,,,,,00011,001,2025-11-14_21h11.30.103,MST_task,2024.2.2,59.98235319130333,2025-11-14 21h11.37.182057 +0530,
,Scenes\095a.jpg,37,0,37,,,,,,,j,1.7213001000000077,0.21402130000024044,None,,,,,,,37,0,37,0,270.1355913999996,,,,,,,,,,,,,,,,,,,,,,,270.11927450000076,270.1355913999996,270.6525509999992,270.61916349999956,,,,,,,,,,,,,,,,,,,,,,,,,,270.63662750000003,270.6525509999992,270.6525509999992,270.6525509999992,273.63566360000004,j,1.7213001000000077,0.21402130000024044,273.63572550000026,273.6357379000001,None,,,,,,,,,,,,,,,,,00011,001,2025-11-14_21h11.30.103,MST_task,2024.2.2,59.98235319130333,2025-11-14 21h11.37.182057 +0530,
,Scenes\055a.jpg,38,0,38,,,,,,,j,1.5668574000010267,0.21387510000022303,None,,,,,,,38,0,38,0,273.65219459999935,,,,,,,,,,,,,,,,,,,,,,,273.6358246,273.65219459999935,274.1690491999998,274.1356665000003,,,,,,,,,,,,,,,,,,,,,,,,,,274.15430299999935,274.1690491999998,274.1690491999998,274.1690491999998,277.1521615999991,j,1.5668574000010267,0.21387510000022303,277.15220670000053,277.15221740000015,None,,,,,,,,,,,,,,,,,00011,001,2025-11-14_21h11.30.103,MST_task,2024.2.2,59.98235319130333,2025-11-14 21h11.37.182057 +0530,
,Scenes\127a.jpg,39,0,39,,,,,,,j,0.820640199999616,0.20700249999936204,None,,,,,,,39,0,39,0,277.1687861999999,,,,,,,,,,,,,,,,,,,,,,,277.1522748999996,277.1687861999999,277.6856435000009,277.6522891000004,,,,,,,,,,,,,,,,,,,,,,,,,,277.6701761000004,277.6856435000009,277.6856435000009,277.6856435000009,280.6687296,j,0.820640199999616,0.20700249999936204,280.66877419999946,280.6687844999997,None,,,,,,,,,,,,,,,,,00011,001,2025-11-14_21h11.30.103,MST_task,2024.2.2,59.98235319130333,2025-11-14 21h11.37.182057 +0530,
,Scenes\060a.jpg,40,0,40,,,,,,,j,0.7853384999998525,0.20165519999864046,None,,,,,,,40,0,40,0,280.6853441000003,,,,,,,,,,,,,,,,,,,,,,,280.66888149999977,280.6853441000003,281.21897419999914,281.1688388999992,,,,,,,,,,,,,,,,,,,,,,,,,,281.2037024000001,281.21897419999914,281.21897419999914,281.21897419999914,284.18536459999996,j,0.7853384999998525,0.20165519999864046,284.18541449999975,284.18542549999984,None,,,,,,,,,,,,,,,,,00011,001,2025-11-14_21h11.30.103,MST_task,2024.2.2,59.98235319130333,2025-11-14 21h11.37.182057 +0530,
,Scenes\027a.jpg,41,0,41,,,,,,,f,2.8697298999995837,None,None,,,,,,,41,0,41,0,284.2019519000005,,,,,,,,,,,,,,,,,,,,,,,284.1855022,284.2019519000005,284.7185912999994,284.68556680000074,,,,,,,,,,,,,,,,,,,,,,,,,,284.7025957999995,284.7185912999994,284.7185912999994,284.7185912999994,287.7019326000009,f,2.8697298999995837,None,287.7019834999992,287.70199499999944,None,,,,,,,,,,,,,,,,,00011,001,2025-11-14_21h11.30.103,MST_task,2024.2.2,59.98235319130333,2025-11-14 21h11.37.182057 +0530,
,Objects\062a.jpg,42,0,42,,,,,,,f,1.1985569999997097,0.27239989999907266,None,,,,,,,42,0,42,0,287.7185867999997,,,,,,,,,,,,,,,,,,,,,,,287.7020599000007,287.7185867999997,288.23545960000047,288.2020235,,,,,,,,,,,,,,,,,,,,,,,,,,288.2185494999994,288.23545960000047,288.23545960000047,288.23545960000047,291.2185157999993,f,1.1985569999997097,0.27239989999907266,291.21856280000065,291.2185735000003,None,,,,,,,,,,,,,,,,,00011,001,2025-11-14_21h11.30.103,MST_task,2024.2.2,59.98235319130333,2025-11-14 21h11.37.182057 +0530,
,Objects\032a.jpg,43,0,43,,,,,,,j,1.903488699999798,0.22894519999863405,None,,,,,,,43,0,43,0,291.2351576000001,,,,,,,,,,,,,,,,,,,,,,,291.21863160000066,291.2351576000001,291.7517755000008,291.71865629999957,,,,,,,,,,,,,,,,,,,,,,,,,,291.73496630000045,291.7517755000008,291.7517755000008,291.7517755000008,294.73519750000014,j,1.903488699999798,0.22894519999863405,294.7352480999998,294.7352587000005,None,,,,,,,,,,,,,,,,,00011,001,2025-11-14_21h11.30.103,MST_task,2024.2.2,59.98235319130333,2025-11-14 21h11.37.182057 +0530,
,Objects\190a.jpg,44,0,44,,,,,,,None,,,f,1.0598829999998998,None,,,,,44,0,44,0,294.7517554999995,,,,,,,,,,,,,,,,,,,,,,,294.7353344999992,294.7517554999995,295.2683754999998,295.23533379999935,,,,,,,,,,,,,,,,,,,,,,,,,,295.25105409999924,295.2683754999998,295.2683754999998,295.2683754999998,298.2518411000001,None,,,298.2519109999994,299.3353657000007,f,,,,298.2683431000005,298.2683431000005,1.0598829999998998,None,,,,,,,,,,00011,001,2025-11-14_21h11.30.103,MST_task,2024.2.2,59.98235319130333,2025-11-14 21h11.37.182057 +0530,
,Objects\081a.jpg,45,0,45,,,,,,,j,0.9336490000005142,0.21804200000042329,None,,,,,,,45,0,45,0,299.35164629999963,,,,,,,,,,,,,,,,,,,,,,,299.33544299999994,299.35164629999963,299.8682805999997,299.8352419999992,,,,,,,,,,,,,,,,,,,,,,,,,,299.85090390000005,299.8682805999997,299.8682805999997,299.8682805999997,302.85162520000085,j,0.9336490000005142,0.21804200000042329,302.8516858999992,302.8516971000008,None,,,,,,,,,,,,,,,,,00011,001,2025-11-14_21h11.30.103,MST_task,2024.2.2,59.98235319130333,2025-11-14 21h11.37.182057 +0530,
,Objects\042a.jpg,46,0,46,,,,,,,f,2.2870425999990402,0.23979549999967276,None,,,,,,,46,0,46,0,302.8682494000004,,,,,,,,,,,,,,,,,,,,,,,302.8517565000002,302.8682494000004,303.38491090000025,303.35176239999964,,,,,,,,,,,,,,,,,,,,,,,,,,303.3674331000002,303.38491090000025,303.38491090000025,303.38491090000025,306.3681627999995,f,2.2870425999990402,0.23979549999967276,306.3682193000004,306.3682298999993,None,,,,,,,,,,,,,,,,,00011,001,2025-11-14_21h11.30.103,MST_task,2024.2.2,59.98235319130333,2025-11-14 21h11.37.182057 +0530,
,Objects\091a.jpg,47,0,47,,,,,,,f,0.9844888000006904,0.23973119999936898,None,,,,,,,47,0,47,0,306.38483950000045,,,,,,,,,,,,,,,,,,,,,,,306.3682867999996,306.38483950000045,306.9014833000001,306.8684018999993,,,,,,,,,,,,,,,,,,,,,,,,,,306.8836444000008,306.9014833000001,306.9014833000001,306.9014833000001,309.88479019999977,f,0.9844888000006904,0.23973119999936898,309.8848471000001,309.8848577000008,None,,,,,,,,,,,,,,,,,00011,001,2025-11-14_21h11.30.103,MST_task,2024.2.2,59.98235319130333,2025-11-14 21h11.37.182057 +0530,
,Objects\090a.jpg,48,0,48,,,,,,,None,,,j,0.8698320999992575,None,,,,,48,0,48,0,309.90142639999976,,,,,,,,,,,,,,,,,,,,,,,309.8849339999997,309.90142639999976,310.4180919999999,310.38493650000055,,,,,,,,,,,,,,,,,,,,,,,,,,310.4007294999992,310.4180919999999,310.4180919999999,310.4180919999999,313.40144019999934,None,,,313.4015123999998,314.30178030000025,j,,,,313.41804670000056,313.41804670000056,0.8698320999992575,None,,,,,,,,,,00011,001,2025-11-14_21h11.30.103,MST_task,2024.2.2,59.98235319130333,2025-11-14 21h11.37.182057 +0530,
,Scenes\005a.jpg,49,0,49,,,,,,,f,1.8031780999990588,0.20185979999951087,None,,,,,,,49,0,49,0,314.31800029999977,,,,,,,,,,,,,,,,,,,,,,,314.3018654000007,314.31800029999977,314.8348853000007,314.8015402000001,,,,,,,,,,,,,,,,,,,,,,,,,,314.81864830000086,314.8348853000007,314.8348853000007,314.8348853000007,317.81792759999917,f,1.8031780999990588,0.20185979999951087,317.8179724999991,317.81798309999976,None,,,,,,,,,,,,,,,,,00011,001,2025-11-14_21h11.30.103,MST_task,2024.2.2,59.98235319130333,2025-11-14 21h11.37.182057 +0530,
,Scenes\018a.jpg,50,0,50,,,,,,,j,0.8428432999990036,0.20650170000044454,None,,,,,,,50,0,50,0,317.8345950999992,,,,,,,,,,,,,,,,,,,,,,,317.81804080000074,317.8345950999992,318.35125750000043,318.3180496999994,,,,,,,,,,,,,,,,,,,,,,,,,,318.33373480000046,318.35125750000043,318.35125750000043,318.35125750000043,321.33453630000076,j,0.8428432999990036,0.20650170000044454,321.33458939999946,321.3346005000003,None,,,,,,,,,,,,,,,,,00011,001,2025-11-14_21h11.30.103,MST_task,2024.2.2,59.98235319130333,2025-11-14 21h11.37.182057 +0530,
,Scenes\091a.jpg,51,0,51,,,,,,,j,0.8621760999994876,0.21171400000093854,None,,,,,,,51,0,51,0,321.35115659999974,,,,,,,,,,,,,,,,,,,,,,,321.3346576999993,321.35115659999974,321.86781879999944,321.83463800000027,,,,,,,,,,,,,,,,,,,,,,,,,,321.85055509999984,321.86781879999944,321.86781879999944,321.86781879999944,324.85115100000075,j,0.8621760999994876,0.21171400000093854,324.8511954000005,324.85120599999937,None,,,,,,,,,,,,,,,,,00011,001,2025-11-14_21h11.30.103,MST_task,2024.2.2,59.98235319130333,2025-11-14 21h11.37.182057 +0530,
,Scenes\026a.jpg,52,0,52,,,,,,,j,0.7252023000000918,0.1898813000007067,None,,,,,,,52,0,52,0,324.86774700000024,,,,,,,,,,,,,,,,,,,,,,,324.8512795000006,324.86774700000024,325.3846147999993,325.3512417999991,,,,,,,,,,,,,,,,,,,,,,,,,,325.37435000000005,325.3846147999993,325.3846147999993,325.3846147999993,328.3677325999997,j,0.7252023000000918,0.1898813000007067,328.36777710000024,328.36778869999944,None,,,,,,,,,,,,,,,,,00011,001,2025-11-14_21h11.30.103,MST_task,2024.2.2,59.98235319130333,2025-11-14 21h11.37.182057 +0530,
,Scenes\035a.jpg,53,0,53,,,,,,,j,2.2512500999982876,0.21870380000109435,None,,,,,,,53,0,53,0,328.38438060000044,,,,,,,,,,,,,,,,,,,,,,,328.3678495000004,328.38438060000044,328.9009989999995,328.86783560000003,,,,,,,,,,,,,,,,,,,,,,,,,,328.88679369999954,328.9009989999995,328.9009989999995,328.9009989999995,331.8844319,j,2.2512500999982876,0.21870380000109435,331.8844783000004,331.8844891000008,None,,,,,,,,,,,,,,,,,00011,001,2025-11-14_21h11.30.103,MST_task,2024.2.2,59.98235319130333,2025-11-14 21h11.37.182057 +0530,
,Scenes\105a.jpg,54,0,54,,,,,,,None,,,j,2.3742920000004233,None,,,,,54,0,54,0,331.9009693000007,,,,,,,,,,,,,,,,,,,,,,,331.8845552999992,331.9009693000007,332.41763700000047,332.38450940000075,,,,,,,,,,,,,,,,,,,,,,,,,,332.40424709999934,332.41763700000047,332.41763700000047,332.41763700000047,335.40096099999937,None,,,335.4010018000008,337.8011463999992,j,,,,335.41755809999995,335.41755809999995,2.3742920000004233,None,,,,,,,,,,00011,001,2025-11-14_21h11.30.103,MST_task,2024.2.2,59.98235319130333,2025-11-14 21h11.37.182057 +0530,
,Scenes\100a.jpg,55,0,55,,,,,,,f,2.355995300000359,0.21806739999919955,None,,,,,,,55,0,55,0,337.81750590000047,,,,,,,,,,,,,,,,,,,,,,,337.8012572000007,337.81750590000047,338.33431500000006,338.30097150000074,,,,,,,,,,,,,,,,,,,,,,,,,,338.31990679999944,338.33431500000006,338.33431500000006,338.33431500000006,341.31745469999987,f,2.355995300000359,0.21806739999919955,341.3174975000002,341.3175080000001,None,,,,,,,,,,,,,,,,,00011,001,2025-11-14_21h11.30.103,MST_task,2024.2.2,59.98235319130333,2025-11-14 21h11.37.182057 +0530,
,Objects\192a.jpg,56,0,56,,,,,,,None,,,j,0.6231372000002011,None,,,,,56,0,56,0,341.33409720000054,,,,,,,,,,,,,,,,,,,,,,,341.31758179999997,341.33409720000054,341.85109229999944,341.8175960999997,,,,,,,,,,,,,,,,,,,,,,,,,,341.8338894999997,341.85109229999944,341.85109229999944,341.85109229999944,344.83411519999936,None,,,344.8341608999999,345.48437530000047,j,,,,344.8506947999995,344.8506947999995,0.6231372000002011,None,,,,,,,,,,00011,001,2025-11-14_21h11.30.103,MST_task,2024.2.2,59.98235319130333,2025-11-14 21h11.37.182057 +0530,
,Objects\185a.jpg,57,0,57,,,,,,,f,2.026900499999101,0.22624120000000403,None,,,,,,,57,0,57,0,345.5006818999991,,,,,,,,,,,,,,,,,,,,,,,345.48444949999976,345.5006818999991,346.0173066999996,345.98428219999914,,,,,,,,,,,,,,,,,,,,,,,,,,346.00115600000026,346.0173066999996,346.0173066999996,346.0173066999996,349.00065800000084,f,2.026900499999101,0.22624120000000403,349.0007315999992,349.00074270000005,None,,,,,,,,,,,,,,,,,00011,001,2025-11-14_21h11.30.103,MST_task,2024.2.2,59.98235319130333,2025-11-14 21h11.37.182057 +0530,
,Objects\174a.jpg,58,0,58,,,,,,,f,1.241195599999628,0.23157870000068215,None,,,,,,,58,0,58,0,349.01811629999975,,,,,,,,,,,,,,,,,,,,,,,349.0008230000003,349.01811629999975,349.5339021,349.5007034999999,,,,,,,,,,,,,,,,,,,,,,,,,,349.5162144999995,349.5339021,349.5339021,349.5339021,352.51725889999943,f,1.241195599999628,0.23157870000068215,352.5173054000006,352.5173157999998,None,,,,,,,,,,,,,,,,,00011,001,2025-11-14_21h11.30.103,MST_task,2024.2.2,59.98235319130333,2025-11-14 21h11.37.182057 +0530,
,Objects\107a.jpg,59,0,59,,,,,,,f,1.7020764000008057,0.2552646000003733,None,,,,,,,59,0,59,0,352.53387809999913,,,,,,,,,,,,,,,,,,,,,,,352.5173907999997,352.53387809999913,353.0504922,353.0173407000002,,,,,,,,,,,,,,,,,,,,,,,,,,353.0328196999999,353.0504922,353.0504922,353.0504922,356.0338415999995,f,1.7020764000008057,0.2552646000003733,356.03391510000074,356.0339265999992,None,,,,,,,,,,,,,,,,,00011,001,2025-11-14_21h11.30.103,MST_task,2024.2.2,59.98235319130333,2025-11-14 21h11.37.182057 +0530,
,Objects\164a.jpg,60,0,60,,,,,,,f,2.0375174000000698,0.26602310000089346,None,,,,,,,60,0,60,0,356.0504507000005,,,,,,,,,,,,,,,,,,,,,,,356.03400780000084,356.0504507000005,356.5671220999993,356.53402409999944,,,,,,,,,,,,,,,,,,,,,,,,,,356.55007149999983,356.5671220999993,356.5671220999993,356.5671220999993,359.55050309999933,f,2.0375174000000698,0.26602310000089346,359.5505472999994,359.5505826000008,None,,,,,,,,,,,,,,,,,00011,001,2025-11-14_21h11.30.103,MST_task,2024.2.2,59.98235319130333,2025-11-14 21h11.37.182057 +0530,
,Objects\055a.jpg,61,0,61,,,,,,,f,2.234384500001397,0.2197489999998652,None,,,,,,,61,0,61,0,359.5671777000007,,,,,,,,,,,,,,,,,,,,,,,359.55065619999914,359.5671777000007,360.0837704000005,360.05065470000045,,,,,,,,,,,,,,,,,,,,,,,,,,360.06633669999974,360.0837704000005,360.0837704000005,360.0837704000005,363.06709650000084,f,2.234384500001397,0.2197489999998652,363.06714979999924,363.06715970000005,None,,,,,,,,,,,,,,,,,00011,001,2025-11-14_21h11.30.103,MST_task,2024.2.2,59.98235319130333,2025-11-14 21h11.37.182057 +0530,
,Objects\124a.jpg,62,0,62,,,,,,,f,0.7854285999983404,0.24618950000149198,None,,,,,,,62,0,62,0,363.0837845999995,,,,,,,,,,,,,,,,,,,,,,,363.0672159000005,363.0837845999995,363.6003832999995,363.5671856000008,,,,,,,,,,,,,,,,,,,,,,,,,,363.5824838000008,363.6003832999995,363.6003832999995,363.6003832999995,366.5836567999995,f,0.7854285999983404,0.24618950000149198,366.5837004999994,366.58371070000067,None,,,,,,,,,,,,,,,,,00011,001,2025-11-14_21h11.30.103,MST_task,2024.2.2,59.98235319130333,2025-11-14 21h11.37.182057 +0530,
,Scenes\008a.jpg,63,0,63,,,,,,,j,1.0965894000000844,0.24872230000073614,None,,,,,,,63,0,63,0,366.60037659999944,,,,,,,,,,,,,,,,,,,,,,,366.5837974999995,366.60037659999944,367.1171756999993,367.0837831000008,,,,,,,,,,,,,,,,,,,,,,,,,,367.09949120000056,367.1171756999993,367.1171756999993,367.1171756999993,370.1002623000004,j,1.0965894000000844,0.24872230000073614,370.1003080999999,370.1003184000001,None,,,,,,,,,,,,,,,,,00011,001,2025-11-14_21h11.30.103,MST_task,2024.2.2,59.98235319130333,2025-11-14 21h11.37.182057 +0530,
,Scenes\107a.jpg,64,0,64,,,,,,,None,,,j,1.0448270999986562,None,,,,,64,0,64,0,370.1168660000003,,,,,,,,,,,,,,,,,,,,,,,370.1003746999995,370.1168660000003,370.63377089999994,370.60039420000066,,,,,,,,,,,,,,,,,,,,,,,,,,370.6179231999995,370.63377089999994,370.63377089999994,370.63377089999994,373.6168713999996,None,,,373.61691099999916,374.68377689999943,j,,,,373.6334788999993,373.6334788999993,1.0448270999986562,None,,,,,,,,,,00011,001,2025-11-14_21h11.30.103,MST_task,2024.2.2,59.98235319130333,2025-11-14 21h11.37.182057 +0530,
,Scenes\116a.jpg,65,0,65,,,,,,,j,1.0151791000007506,0.2070014999990235,None,,,,,,,65,0,65,0,374.7001529999998,,,,,,,,,,,,,,,,,,,,,,,374.68384999999944,374.7001529999998,375.2167809999992,375.1836638999994,,,,,,,,,,,,,,,,,,,,,,,,,,375.19891989999996,375.2167809999992,375.2167809999992,375.2167809999992,378.2000793999996,j,1.0151791000007506,0.2070014999990235,378.20012339999994,378.20013389999986,None,,,,,,,,,,,,,,,,,00011,001,2025-11-14_21h11.30.103,MST_task,2024.2.2,59.98235319130333,2025-11-14 21h11.37.182057 +0530,
,Scenes\184a.jpg,66,0,66,,,,,,,j,0.5985399000001053,0.19821219999903406,None,,,,,,,66,0,66,0,378.21674189999976,,,,,,,,,,,,,,,,,,,,,,,378.2002059999995,378.21674189999976,378.73337039999933,378.7002425999999,,,,,,,,,,,,,,,,,,,,,,,,,,378.71722059999956,378.73337039999933,378.73337039999933,378.73337039999933,381.70021409999936,j,0.5985399000001053,0.19821219999903406,381.7002637000005,381.7002745000009,None,,,,,,,,,,,,,,,,,00011,001,2025-11-14_21h11.30.103,MST_task,2024.2.2,59.98235319130333,2025-11-14 21h11.37.182057 +0530,
,Scenes\109a.jpg,67,0,67,,,,,,,j,2.1391698000006727,0.21164589999898453,None,,,,,,,67,0,67,0,381.71670559999984,,,,,,,,,,,,,,,,,,,,,,,381.7003315000002,381.71670559999984,382.2334873,382.20029819999945,,,,,,,,,,,,,,,,,,,,,,,,,,382.2166827000001,382.2334873,382.2334873,382.2334873,385.2165559999994,j,2.1391698000006727,0.21164589999898453,385.2166004999999,385.21661139999924,None,,,,,,,,,,,,,,,,,00011,001,2025-11-14_21h11.30.103,MST_task,2024.2.2,59.98235319130333,2025-11-14 21h11.37.182057 +0530,
,Scenes\156a.jpg,68,0,68,,,,,,,j,0.739526700001079,0.19641520000004675,None,,,,,,,68,0,68,0,385.2332561000003,,,,,,,,,,,,,,,,,,,,,,,385.2166930000003,385.2332561000003,385.74988959999973,385.7166410000009,,,,,,,,,,,,,,,,,,,,,,,,,,385.73285489999944,385.74988959999973,385.74988959999973,385.74988959999973,388.73311549999926,j,0.739526700001079,0.19641520000004675,388.7331591000002,388.7331699000006,None,,,,,,,,,,,,,,,,,00011,001,2025-11-14_21h11.30.103,MST_task,2024.2.2,59.98235319130333,2025-11-14 21h11.37.182057 +0530,
,Scenes\154a.jpg,69,0,69,,,,,,,None,,,j,0.753679600000396,None,,,,,69,0,69,0,388.74976219999917,,,,,,,,,,,,,,,,,,,,,,,388.73324590000084,388.74976219999917,389.26645629999985,389.2332502999998,,,,,,,,,,,,,,,,,,,,,,,,,,389.2488204000001,389.26645629999985,389.26645629999985,389.26645629999985,392.24974529999963,None,,,392.24979229999917,393.0333121999993,j,,,,392.2663253999999,392.2663253999999,0.753679600000396,None,,,,,,,,,,00011,001,2025-11-14_21h11.30.103,MST_task,2024.2.2,59.98235319130333,2025-11-14 21h11.37.182057 +0530,
,Objects\010a.jpg,70,0,70,,,,,,,f,0.7472921000007773,0.20254599999861966,None,,,,,,,70,0,70,0,393.0496741999996,,,,,,,,,,,,,,,,,,,,,,,393.0334191999991,393.0496741999996,393.5666046000006,393.5331661,,,,,,,,,,,,,,,,,,,,,,,,,,393.5502522000006,393.5666046000006,393.5666046000006,393.5666046000006,396.54965190000075,f,0.7472921000007773,0.20254599999861966,396.5496991,396.5497109000007,None,,,,,,,,,,,,,,,,,00011,001,2025-11-14_21h11.30.103,MST_task,2024.2.2,59.98235319130333,2025-11-14 21h11.37.182057 +0530,
,Objects\043a.jpg,71,0,71,,,,,,,f,1.6268863000004785,0.24379469999985304,None,,,,,,,71,0,71,0,396.56628529999944,,,,,,,,,,,,,,,,,,,,,,,396.54977189999954,396.56628529999944,,397.04974890000085,,,,,,,,,,,,,,,,,,,,,,,,,,397.06625859999986,397.08292529999926,397.08292529999926,397.08292529999926,400.06625410000015,f,1.6268863000004785,0.24379469999985304,400.0663010999997,400.06631129999914,None,,,,,,,,,,,,,,,,,00011,001,2025-11-14_21h11.30.103,MST_task,2024.2.2,59.98235319130333,2025-11-14 21h11.37.182057 +0530,
,Objects\017a.jpg,72,0,72,,,,,,,f,2.078556700000263,0.21082720000049449,None,,,,,,,72,0,72,0,400.08282359999976,,,,,,,,,,,,,,,,,,,,,,,400.06637149999915,400.08282359999976,400.5994821000004,400.5663385000007,,,,,,,,,,,,,,,,,,,,,,,,,,400.58242360000077,400.5994821000004,400.5994821000004,400.5994821000004,403.5828237000005,f,2.078556700000263,0.21082720000049449,403.58287369999925,403.5828865000003,None,,,,,,,,,,,,,,,,,00011,001,2025-11-14_21h11.30.103,MST_task,2024.2.2,59.98235319130333,2025-11-14 21h11.37.182057 +0530,
,Objects\121a.jpg,73,0,73,,,,,,,f,1.4358380000012403,0.3006341000000248,None,,,,,,,73,0,73,0,403.59944390000055,,,,,,,,,,,,,,,,,,,,,,,403.58295109999926,403.59944390000055,404.1160734999994,404.0829080000003,,,,,,,,,,,,,,,,,,,,,,,,,,404.0993503000009,404.1160734999994,404.1160734999994,404.1160734999994,407.0994004999993,f,1.4358380000012403,0.3006341000000248,407.0994675000002,407.0994788000007,None,,,,,,,,,,,,,,,,,00011,001,2025-11-14_21h11.30.103,MST_task,2024.2.2,59.98235319130333,2025-11-14 21h11.37.182057 +0530,
,Objects\110a.jpg,74,0,74,,,,,,,f,1.5239906000006158,0.17768170000090322,None,,,,,,,74,0,74,0,407.1160392999991,,,,,,,,,,,,,,,,,,,,,,,407.0995426999998,407.1160392999991,407.63266490000024,407.5994926000003,,,,,,,,,,,,,,,,,,,,,,,,,,407.6164711000001,407.63266490000024,407.63266490000024,407.63266490000024,410.61602870000024,f,1.5239906000006158,0.17768170000090322,410.61610739999924,410.6161224999996,None,,,,,,,,,,,,,,,,,00011,001,2025-11-14_21h11.30.103,MST_task,2024.2.2,59.98235319130333,2025-11-14 21h11.37.182057 +0530,
,Objects\181a.jpg,75,0,75,,,,,,,j,0.8565944000001764,0.2106030999984796,None,,,,,,,75,0,75,0,410.63269989999935,,,,,,,,,,,,,,,,,,,,,,,410.6162098999994,410.63269989999935,411.1492987999991,411.1161176000005,,,,,,,,,,,,,,,,,,,,,,,,,,411.1319070999998,411.1492987999991,411.1492987999991,411.1492987999991,414.1326160999997,j,0.8565944000001764,0.2106030999984796,414.1326618999992,414.13267219999943,None,,,,,,,,,,,,,,,,,00011,001,2025-11-14_21h11.30.103,MST_task,2024.2.2,59.98235319130333,2025-11-14 21h11.37.182057 +0530,
,Objects\166a.jpg,76,0,76,,,,,,,j,2.152511299998878,0.21733020000101533,None,,,,,,,76,0,76,0,414.14926249999917,,,,,,,,,,,,,,,,,,,,,,,414.1327290999998,414.14926249999917,414.6658571000007,414.6327012999991,,,,,,,,,,,,,,,,,,,,,,,,,,414.6489278000008,414.6658571000007,414.6658571000007,414.6658571000007,417.64920619999975,j,2.152511299998878,0.21733020000101533,417.6492510999997,417.64926170000035,None,,,,,,,,,,,,,,,,,00011,001,2025-11-14_21h11.30.103,MST_task,2024.2.2,59.98235319130333,2025-11-14 21h11.37.182057 +0530,
,Scenes\061a.jpg,77,0,77,,,,,,,j,0.665692599999602,0.21747049999976298,None,,,,,,,77,0,77,0,417.66580710000017,,,,,,,,,,,,,,,,,,,,,,,417.6493752999995,417.66580710000017,418.18273539999973,418.1493133999993,,,,,,,,,,,,,,,,,,,,,,,,,,418.16746500000045,418.18273539999973,418.18273539999973,418.18273539999973,421.1657658999993,j,0.665692599999602,0.21747049999976298,421.16581380000025,421.1658258000007,None,,,,,,,,,,,,,,,,,00011,001,2025-11-14_21h11.30.103,MST_task,2024.2.2,59.98235319130333,2025-11-14 21h11.37.182057 +0530,
,Scenes\170a.jpg,78,0,78,,,,,,,j,0.8863074999990204,0.19689500000094995,None,,,,,,,78,0,78,0,421.1824156999992,,,,,,,,,,,,,,,,,,,,,,,421.16591119999975,421.1824156999992,421.6992891000009,421.6659072000002,,,,,,,,,,,,,,,,,,,,,,,,,,421.6860808000001,421.6992891000009,421.6992891000009,421.6992891000009,424.6823611,j,0.8863074999990204,0.19689500000094995,424.68240569999944,424.6824166999995,None,,,,,,,,,,,,,,,,,00011,001,2025-11-14_21h11.30.103,MST_task,2024.2.2,59.98235319130333,2025-11-14 21h11.37.182057 +0530,
,Scenes\137a.jpg,79,0,79,,,,,,,None,,,j,0.8064102999996976,None,,,,,79,0,79,0,424.69899369999985,,,,,,,,,,,,,,,,,,,,,,,424.6824761000007,424.69899369999985,425.2158675999999,425.18251410000084,,,,,,,,,,,,,,,,,,,,,,,,,,425.19854569999916,425.2158675999999,425.2158675999999,425.2158675999999,428.1989854000003,None,,,428.19905239999935,429.0324963999992,j,,,,428.21556299999975,428.21556299999975,0.8064102999996976,None,,,,,,,,,,00011,001,2025-11-14_21h11.30.103,MST_task,2024.2.2,59.98235319130333,2025-11-14 21h11.37.182057 +0530,
,Scenes\168a.jpg,80,0,80,,,,,,,j,1.448301000000356,0.20751390000077663,None,,,,,,,80,0,80,0,429.0489190999997,,,,,,,,,,,,,,,,,,,,,,,429.03261139999995,429.0489190999997,429.56585500000074,429.5324930000006,,,,,,,,,,,,,,,,,,,,,,,,,,429.54784929999914,429.56585500000074,429.56585500000074,429.56585500000074,432.54890479999995,j,1.448301000000356,0.20751390000077663,432.5489536999994,432.5489651000007,None,,,,,,,,,,,,,,,,,00011,001,2025-11-14_21h11.30.103,MST_task,2024.2.2,59.98235319130333,2025-11-14 21h11.37.182057 +0530,
,Scenes\157a.jpg,81,0,81,,,,,,,j,1.6317075999995723,0.19275419999939913,None,,,,,,,81,0,81,0,432.5655900999991,,,,,,,,,,,,,,,,,,,,,,,432.54902989999937,432.5655900999991,433.08212880000065,433.0490253000007,,,,,,,,,,,,,,,,,,,,,,,,,,433.06491319999986,433.08212880000065,433.08212880000065,433.08212880000065,436.0654470999998,j,1.6317075999995723,0.19275419999939913,436.0654921000005,436.0655026000004,None,,,,,,,,,,,,,,,,,00011,001,2025-11-14_21h11.30.103,MST_task,2024.2.2,59.98235319130333,2025-11-14 21h11.37.182057 +0530,
,Scenes\139a.jpg,82,0,82,,,,,,,None,,,j,2.1749252999998134,None,,,,,82,0,82,0,436.08208659999946,,,,,,,,,,,,,,,,,,,,,,,436.06557729999986,436.08208659999946,436.59874649999983,436.56556119999914,,,,,,,,,,,,,,,,,,,,,,,,,,436.5803661000009,436.59874649999983,436.59874649999983,436.59874649999983,439.58207609999954,None,,,439.5821314999994,441.7822658999994,j,,,,439.5986928000002,439.5986928000002,2.1749252999998134,None,,,,,,,,,,00011,001,2025-11-14_21h11.30.103,MST_task,2024.2.2,59.98235319130333,2025-11-14 21h11.37.182057 +0530,
,Scenes\108a.jpg,83,0,83,,,,,,,j,1.3728602000010142,0.2049217999992834,None,,,,,,,83,0,83,0,441.79864479999924,,,,,,,,,,,,,,,,,,,,,,,441.78237590000026,441.79864479999924,442.31564099999923,442.2821846000006,,,,,,,,,,,,,,,,,,,,,,,,,,442.3018420999997,442.31564099999923,442.31564099999923,442.31564099999923,445.29858389999936,j,1.3728602000010142,0.2049217999992834,445.29862739999953,445.2986392999992,None,,,,,,,,,,,,,,,,,00011,001,2025-11-14_21h11.30.103,MST_task,2024.2.2,59.98235319130333,2025-11-14 21h11.37.182057 +0530,
,Objects\117a.jpg,84,0,84,,,,,,,None,,,j,1.8125202999999601,None,,,,,84,0,84,0,445.3152336000003,,,,,,,,,,,,,,,,,,,,,,,445.2986978000008,445.3152336000003,445.8321476000001,445.79881899999964,,,,,,,,,,,,,,,,,,,,,,,,,,445.8146735999999,445.8321476000001,445.8321476000001,445.8321476000001,448.8151835999997,None,,,448.81522770000083,450.6489098999991,j,,,,448.8318371000005,448.8318371000005,1.8125202999999601,None,,,,,,,,,,00011,001,2025-11-14_21h11.30.103,MST_task,2024.2.2,59.98235319130333,2025-11-14 21h11.37.182057 +0530,
,Objects\061a.jpg,85,0,85,,,,,,,j,1.8265126000005694,0.2494762999995146,None,,,,,,,85,0,85,0,450.6651192999998,,,,,,,,,,,,,,,,,,,,,,,450.6489975000004,450.6651192999998,451.1817850000007,451.14859889999934,,,,,,,,,,,,,,,,,,,,,,,,,,451.16503720000037,451.1817850000007,451.1817850000007,451.1817850000007,454.16506599999957,j,1.8265126000005694,0.2494762999995146,454.1651431999999,454.1651727999997,None,,,,,,,,,,,,,,,,,00011,001,2025-11-14_21h11.30.103,MST_task,2024.2.2,59.98235319130333,2025-11-14 21h11.37.182057 +0530,
,Objects\187a.jpg,86,0,86,,,,,,,f,1.5217869999996765,0.2602177999997366,None,,,,,,,86,0,86,0,454.18171430000075,,,,,,,,,,,,,,,,,,,,,,,454.1652704999997,454.18171430000075,454.69833330000074,454.66519789999984,,,,,,,,,,,,,,,,,,,,,,,,,,454.68278780000037,454.69833330000074,454.69833330000074,454.69833330000074,457.6816574000004,f,1.5217869999996765,0.2602177999997366,457.68170160000045,457.68171280000024,None,,,,,,,,,,,,,,,,,00011,001,2025-11-14_21h11.30.103,MST_task,2024.2.2,59.98235319130333,2025-11-14 21h11.37.182057 +0530,
,Objects\026a.jpg,87,0,87,,,,,,,j,1.4574711999994179,0.2220472000008158,None,,,,,,,87,0,87,0,457.6983366000004,,,,,,,,,,,,,,,,,,,,,,,457.6818153000004,457.6983366000004,458.21492670000043,458.18178590000025,,,,,,,,,,,,,,,,,,,,,,,,,,458.1973999999991,458.21492670000043,458.21492670000043,458.21492670000043,461.1982891000007,j,1.4574711999994179,0.2220472000008158,461.19833479999943,461.1983457000006,None,,,,,,,,,,,,,,,,,00011,001,2025-11-14_21h11.30.103,MST_task,2024.2.2,59.98235319130333,2025-11-14 21h11.37.182057 +0530,
,Objects\022a.jpg,88,0,88,,,,,,,j,1.804620500000965,0.2015835000001971,None,,,,,,,88,0,88,0,461.2148892999994,,,,,,,,,,,,,,,,,,,,,,,461.1984508000005,461.2148892999994,461.73155679999945,461.69849199999953,,,,,,,,,,,,,,,,,,,,,,,,,,461.71419629999946,461.73155679999945,461.73155679999945,461.73155679999945,464.7148785999998,j,1.804620500000965,0.2015835000001971,464.71492129999933,464.7149317000003,None,,,,,,,,,,,,,,,,,00011,001,2025-11-14_21h11.30.103,MST_task,2024.2.2,59.98235319130333,2025-11-14 21h11.37.182057 +0530,
,Objects\056a.jpg,89,0,89,,,,,,,None,,,j,1.9581156999993254,None,,,,,89,0,89,0,464.7315228999996,,,,,,,,,,,,,,,,,,,,,,,464.71498900000006,464.7315228999996,465.24819969999953,465.21496579999985,,,,,,,,,,,,,,,,,,,,,,,,,,465.23030370000015,465.24819969999953,465.24819969999953,465.24819969999953,468.2314614000006,None,,,468.23150910000004,470.21516970000084,j,,,,468.2480680000008,468.2480680000008,1.9581156999993254,None,,,,,,,,,,00011,001,2025-11-14_21h11.30.103,MST_task,2024.2.2,59.98235319130333,2025-11-14 21h11.37.182057 +0530,
,Objects\118a.jpg,90,0,90,,,,,,,f,0.816305000000284,0.2444073999995453,None,,,,,,,90,0,90,0,470.23137270000007,,,,,,,,,,,,,,,,,,,,,,,470.2152494000002,470.23137270000007,470.7479910999991,470.7148545,,,,,,,,,,,,,,,,,,,,,,,,,,470.7307510999999,470.7479910999991,470.7479910999991,470.7479910999991,473.73136259999956,f,0.816305000000284,0.2444073999995453,473.73140690000037,473.7314179999994,None,,,,,,,,,,,,,,,,,00011,001,2025-11-14_21h11.30.103,MST_task,2024.2.2,59.98235319130333,2025-11-14 21h11.37.182057 +0530,
,Scenes\142a.jpg,91,0,91,,,,,,,j,0.806926499999463,0.19446880000032252,None,,,,,,,91,0,91,0,473.74796160000005,,,,,,,,,,,,,,,,,,,,,,,473.7314760999998,473.74796160000005,474.2648595999999,474.2314549999992,,,,,,,,,,,,,,,,,,,,,,,,,,474.2499401999994,474.2648595999999,474.2648595999999,474.2648595999999,477.24791130000085,j,0.806926499999463,0.19446880000032252,477.2479542000001,477.2479648999997,None,,,,,,,,,,,,,,,,,00011,001,2025-11-14_21h11.30.103,MST_task,2024.2.2,59.98235319130333,2025-11-14 21h11.37.182057 +0530,
,Scenes\050a.jpg,92,0,92,,,,,,,j,1.6211636000007275,0.21218369999951392,None,,,,,,,92,0,92,0,477.2645551000005,,,,,,,,,,,,,,,,,,,,,,,477.24804120000044,477.2645551000005,477.78118390000054,477.7481294999998,,,,,,,,,,,,,,,,,,,,,,,,,,477.7640322999996,477.78118390000054,477.78118390000054,477.78118390000054,480.7645061000003,j,1.6211636000007275,0.21218369999951392,480.76455689999966,480.7645675999993,None,,,,,,,,,,,,,,,,,00011,001,2025-11-14_21h11.30.103,MST_task,2024.2.2,59.98235319130333,2025-11-14 21h11.37.182057 +0530,
,Scenes\075a.jpg,93,0,93,,,,,,,None,,,j,0.5202165999999124,None,,,,,93,0,93,0,480.78115400000024,,,,,,,,,,,,,,,,,,,,,,,480.7646571999994,480.78115400000024,481.2978041000006,481.2646936000001,,,,,,,,,,,,,,,,,,,,,,,,,,481.27941479999936,481.2978041000006,481.2978041000006,481.2978041000006,484.28120619999936,None,,,484.2812515000005,484.83133140000064,j,,,,484.2977393000001,484.2977393000001,0.5202165999999124,None,,,,,,,,,,00011,001,2025-11-14_21h11.30.103,MST_task,2024.2.2,59.98235319130333,2025-11-14 21h11.37.182057 +0530,
,Scenes\077a.jpg,94,0,94,,,,,,,None,,,j,3.2130988000008074,None,,,,,94,0,94,0,484.84773420000056,,,,,,,,,,,,,,,,,,,,,,,484.8314295,484.84773420000056,485.3643585000009,485.3312208999996,,,,,,,,,,,,,,,,,,,,,,,,,,485.34790880000037,485.3643585000009,485.3643585000009,485.3643585000009,488.3476716999994,None,,,488.3477320999991,491.5813808999992,j,,,,488.3643327000009,488.3643327000009,3.2130988000008074,None,,,,,,,,,,00011,001,2025-11-14_21h11.30.103,MST_task,2024.2.2,59.98235319130333,2025-11-14 21h11.37.182057 +0530,
,Scenes\041a.jpg,95,0,95,,,,,,,j,0.5196912999999768,0.18593979999968724,None,,,,,,,95,0,95,0,491.59759010000016,,,,,,,,,,,,,,,,,,,,,,,491.58146379999926,491.59759010000016,492.11421940000037,492.0810657999991,,,,,,,,,,,,,,,,,,,,,,,,,,492.0995918000008,492.11421940000037,492.11421940000037,492.11421940000037,495.09753590000037,j,0.5196912999999768,0.18593979999968724,495.09759119999944,495.09760559999995,None,,,,,,,,,,,,,,,,,00011,001,2025-11-14_21h11.30.103,MST_task,2024.2.2,59.98235319130333,2025-11-14 21h11.37.182057 +0530,
,Scenes\120a.jpg,96,0,96,,,,,,,j,0.71496660000048,0.21773720000055619,None,,,,,,,96,0,96,0,495.11417729999994,,,,,,,,,,,,,,,,,,,,,,,495.0976645999999,495.11417729999994,495.6311205999991,495.5976566999998,,,,,,,,,,,,,,,,,,,,,,,,,,495.61964719999924,495.6311205999991,495.6311205999991,495.6311205999991,498.6141408000003,j,0.71496660000048,0.21773720000055619,498.6142134999991,498.6142240999998,None,,,,,,,,,,,,,,,,,00011,001,2025-11-14_21h11.30.103,MST_task,2024.2.2,59.98235319130333,2025-11-14 21h11.37.182057 +0530,
,Scenes\141a.jpg,97,0,97,,,,,,,j,0.626864799998657,0.19414850000066508,None,,,,,,,97,0,97,0,498.6307560999994,,,,,,,,,,,,,,,,,,,,,,,498.61429920000046,498.6307560999994,499.14739139999983,499.1143955999996,,,,,,,,,,,,,,,,,,,,,,,,,,499.12925650000034,499.14739139999983,499.14739139999983,499.14739139999983,502.1307536000004,j,0.626864799998657,0.19414850000066508,502.13082700000086,502.13083799999913,None,,,,,,,,,,,,,,,,,00011,001,2025-11-14_21h11.30.103,MST_task,2024.2.2,59.98235319130333,2025-11-14 21h11.37.182057 +0530,
,Objects\178a.jpg,98,0,98,,,,,,,j,2.273597299999892,0.22297319999961474,None,,,,,,,98,0,98,0,502.14735719999953,,,,,,,,,,,,,,,,,,,,,,,502.1309173000009,502.14735719999953,502.6642037999991,502.6308327000006,,,,,,,,,,,,,,,,,,,,,,,,,,502.6475348999993,502.6642037999991,502.6642037999991,502.6642037999991,505.6473062999994,j,2.273597299999892,0.22297319999961474,505.6473518999992,505.64736300000004,None,,,,,,,,,,,,,,,,,00011,001,2025-11-14_21h11.30.103,MST_task,2024.2.2,59.98235319130333,2025-11-14 21h11.37.182057 +0530,
,Objects\094a.jpg,99,0,99,,,,,,,j,2.1261859000005643,0.18931789999987814,None,,,,,,,99,0,99,0,505.6639512999991,,,,,,,,,,,,,,,,,,,,,,,505.64741890000005,505.6639512999991,506.18057620000036,506.1475317000004,,,,,,,,,,,,,,,,,,,,,,,,,,506.1631593000002,506.18057620000036,506.18057620000036,506.18057620000036,509.1639027000001,j,2.1261859000005643,0.18931789999987814,509.1639515000006,509.16396200000054,None,,,,,,,,,,,,,,,,,00011,001,2025-11-14_21h11.30.103,MST_task,2024.2.2,59.98235319130333,2025-11-14 21h11.37.182057 +0530,
,Objects\189a.jpg,100,0,100,,,,,,,f,1.6652061999993748,0.24137940000036906,None,,,,,,,100,0,100,0,509.1805411000005,,,,,,,,,,,,,,,,,,,,,,,509.1640496,509.1805411000005,509.6971713999992,509.66418879999947,,,,,,,,,,,,,,,,,,,,,,,,,,509.6819634000003,509.6971713999992,509.6971713999992,509.6971713999992,512.6804948000008,f,1.6652061999993748,0.24137940000036906,512.6805461999993,512.6805578999993,None,,,,,,,,,,,,,,,,,00011,001,2025-11-14_21h11.30.103,MST_task,2024.2.2,59.98235319130333,2025-11-14 21h11.37.182057 +0530,
,Objects\066a.jpg,101,0,101,,,,,,,j,0.748293199998443,0.20218130000102974,None,,,,,,,101,0,101,0,512.6971398000005,,,,,,,,,,,,,,,,,,,,,,,512.6806383000003,512.6971398000005,513.2137961000008,513.1806204999993,,,,,,,,,,,,,,,,,,,,,,,,,,513.1981039000002,513.2137961000008,513.2137961000008,513.2137961000008,516.1971386999994,j,0.748293199998443,0.20218130000102974,516.1971842000003,516.1971943999997,None,,,,,,,,,,,,,,,,,00011,001,2025-11-14_21h11.30.103,MST_task,2024.2.2,59.98235319130333,2025-11-14 21h11.37.182057 +0530,
,Objects\060a.jpg,102,0,102,,,,,,,j,0.6034555999995064,0.211535600001298,None,,,,,,,102,0,102,0,516.2137352000009,,,,,,,,,,,,,,,,,,,,,,,516.1972729000008,516.2137352000009,,516.6981183000007,,,,,,,,,,,,,,,,,,,,,,,,,,516.7135765000003,516.7303498000001,516.7303498000001,516.7303498000001,519.7137041000005,j,0.6034555999995064,0.211535600001298,519.7137813999998,519.7137987999995,None,,,,,,,,,,,,,,,,,00011,001,2025-11-14_21h11.30.103,MST_task,2024.2.2,59.98235319130333,2025-11-14 21h11.37.182057 +0530,
,Objects\171a.jpg,103,0,103,,,,,,,j,1.8348856000011438,0.21020549999957439,None,,,,,,,103,0,103,0,519.7303661000005,,,,,,,,,,,,,,,,,,,,,,,519.7138716000009,519.7303661000005,520.2469942000007,520.2138087000003,,,,,,,,,,,,,,,,,,,,,,,,,,520.2292371999993,520.2469942000007,520.2469942000007,520.2469942000007,523.2302694999998,j,1.8348856000011438,0.21020549999957439,523.2303136999999,523.2303241999998,None,,,,,,,,,,,,,,,,,00011,001,2025-11-14_21h11.30.103,MST_task,2024.2.2,59.98235319130333,2025-11-14 21h11.37.182057 +0530,
,Objects\102a.jpg,104,0,104,,,,,,,j,2.918506399999387,None,None,,,,,,,104,0,104,0,523.2469165999992,,,,,,,,,,,,,,,,,,,,,,,523.2304065999997,523.2469165999992,523.7635792000001,523.7304918999998,,,,,,,,,,,,,,,,,,,,,,,,,,523.7460190999991,523.7635792000001,523.7635792000001,523.7635792000001,526.7469674999993,j,2.918506399999387,None,526.7470145999996,526.7470262000006,None,,,,,,,,,,,,,,,,,00011,001,2025-11-14_21h11.30.103,MST_task,2024.2.2,59.98235319130333,2025-11-14 21h11.37.182057 +0530,
,Scenes\081a.jpg,105,0,105,,,,,,,j,0.96768449999945,0.21072760000060953,None,,,,,,,105,0,105,0,526.7635360000004,,,,,,,,,,,,,,,,,,,,,,,526.7470869000008,526.7635360000004,527.2801593999993,527.2470990999991,,,,,,,,,,,,,,,,,,,,,,,,,,527.2667399000002,527.2801593999993,527.2801593999993,527.2801593999993,530.2634861000006,j,0.96768449999945,0.21072760000060953,530.2635379999992,530.2635491000001,None,,,,,,,,,,,,,,,,,00011,001,2025-11-14_21h11.30.103,MST_task,2024.2.2,59.98235319130333,2025-11-14 21h11.37.182057 +0530,
,Scenes\074a.jpg,106,0,106,,,,,,,j,2.6330480000015086,0.19483760000002803,None,,,,,,,106,0,106,0,530.2800678000003,,,,,,,,,,,,,,,,,,,,,,,530.2636469000008,530.2800678000003,530.7967386,530.7636402999997,,,,,,,,,,,,,,,,,,,,,,,,,,530.7753468999999,530.7967386,530.7967386,530.7967386,533.7800764000003,j,2.6330480000015086,0.19483760000002803,533.7801190999999,533.7801299000002,None,,,,,,,,,,,,,,,,,00011,001,2025-11-14_21h11.30.103,MST_task,2024.2.2,59.98235319130333,2025-11-14 21h11.37.182057 +0530,
,Scenes\017a.jpg,107,0,107,,,,,,,f,0.6749058000004879,0.22136789999967732,None,,,,,,,107,0,107,0,533.7966625999998,,,,,,,,,,,,,,,,,,,,,,,533.7802087,533.7966625999998,534.3136283000003,534.2801681000001,,,,,,,,,,,,,,,,,,,,,,,,,,534.2999278000007,534.3136283000003,534.3136283000003,534.3136283000003,537.2966312999997,f,0.6749058000004879,0.22136789999967732,537.2966737999996,537.2966890000007,None,,,,,,,,,,,,,,,,,00011,001,2025-11-14_21h11.30.103,MST_task,2024.2.2,59.98235319130333,2025-11-14 21h11.37.182057 +0530,
,Scenes\037a.jpg,108,0,108,,,,,,,j,2.3459474999999657,0.21415299999898707,None,,,,,,,108,0,108,0,537.3132850999991,,,,,,,,,,,,,,,,,,,,,,,537.2967680999991,537.3132850999991,537.8302573000001,537.7967274000002,,,,,,,,,,,,,,,,,,,,,,,,,,537.8159004000008,537.8302573000001,537.8302573000001,537.8302573000001,540.8132537000001,j,2.3459474999999657,0.21415299999898707,540.8132977000005,540.8133087000006,None,,,,,,,,,,,,,,,,,00011,001,2025-11-14_21h11.30.103,MST_task,2024.2.2,59.98235319130333,2025-11-14 21h11.37.182057 +0530,
,Scenes\092a.jpg,109,0,109,,,,,,,j,0.7436063000004651,0.19823600000017905,None,,,,,,,109,0,109,0,540.8298933000005,,,,,,,,,,,,,,,,,,,,,,,540.8133663999997,540.8298933000005,541.3467273999995,541.3133675999998,,,,,,,,,,,,,,,,,,,,,,,,,,541.3307862999991,541.3467273999995,541.3467273999995,541.3467273999995,544.3298254000001,j,0.7436063000004651,0.19823600000017905,544.3298689000003,544.3298790000008,None,,,,,,,,,,,,,,,,,00011,001,2025-11-14_21h11.30.103,MST_task,2024.2.2,59.98235319130333,2025-11-14 21h11.37.182057 +0530,
,Scenes\192a.jpg,110,0,110,,,,,,,None,,,j,0.03350570000111475,None,,,,,110,0,110,0,544.3464667000007,,,,,,,,,,,,,,,,,,,,,,,544.3299353999992,544.3464667000007,544.8633222000008,544.8300624000003,,,,,,,,,,,,,,,,,,,,,,,,,,544.8458965999998,544.8633222000008,544.8633222000008,544.8633222000008,547.8464179000002,None,,,547.8464690000001,547.8969077000002,j,,,,547.8630635999998,547.8630635999998,0.03350570000111475,None,,,,,,,,,,00011,001,2025-11-14_21h11.30.103,MST_task,2024.2.2,59.98235319130333,2025-11-14 21h11.37.182057 +0530,
,Scenes\049a.jpg,111,0,111,,,,,,,j,1.8303718999995908,0.21462790000077803,None,,,,,,,111,0,111,0,547.9130476999999,,,,,,,,,,,,,,,,,,,,,,,547.8969791,547.9130476999999,548.4296816000005,548.3965389000005,,,,,,,,,,,,,,,,,,,,,,,,,,548.4121386000006,548.4296816000005,548.4296816000005,548.4296816000005,551.4131801999993,j,1.8303718999995908,0.21462790000077803,551.4132398999991,551.4132518999995,None,,,,,,,,,,,,,,,,,00011,001,2025-11-14_21h11.30.103,MST_task,2024.2.2,59.98235319130333,2025-11-14 21h11.37.182057 +0530,
,Objects\021a.jpg,112,0,112,,,,,,,f,1.0821094999992056,0.24944379999942612,None,,,,,,,112,0,112,0,551.4296154000003,,,,,,,,,,,,,,,,,,,,,,,551.4133466999992,551.4296154000003,551.9464759999992,551.9131469000004,,,,,,,,,,,,,,,,,,,,,,,,,,551.9297974000001,551.9464759999992,551.9464759999992,551.9464759999992,554.9296016000008,f,1.0821094999992056,0.24944379999942612,554.9296489000008,554.9296599999998,None,,,,,,,,,,,,,,,,,00011,001,2025-11-14_21h11.30.103,MST_task,2024.2.2,59.98235319130333,2025-11-14 21h11.37.182057 +0530,
,Objects\080a.jpg,113,0,113,,,,,,,f,0.408578700000362,0.24106589999973949,None,,,,,,,113,0,113,0,554.9462387000003,,,,,,,,,,,,,,,,,,,,,,,554.9297207,554.9462387000003,555.4628733000009,555.4297294999997,,,,,,,,,,,,,,,,,,,,,,,,,,555.4450104999996,555.4628733000009,555.4628733000009,555.4628733000009,558.4461936000007,f,0.408578700000362,0.24106589999973949,558.4462425000002,558.4462530000001,None,,,,,,,,,,,,,,,,,00011,001,2025-11-14_21h11.30.103,MST_task,2024.2.2,59.98235319130333,2025-11-14 21h11.37.182057 +0530,
,Objects\148a.jpg,114,0,114,,,,,,,j,1.675091799999791,0.21073840000099153,None,,,,,,,114,0,114,0,558.4628407,,,,,,,,,,,,,,,,,,,,,,,558.4463104000006,558.4628407,558.9794825000008,558.9463479999995,,,,,,,,,,,,,,,,,,,,,,,,,,558.9617662,558.9794825000008,558.9794825000008,558.9794825000008,561.9628745999999,j,1.675091799999791,0.21073840000099153,561.9629199999999,561.9629304999999,None,,,,,,,,,,,,,,,,,00011,001,2025-11-14_21h11.30.103,MST_task,2024.2.2,59.98235319130333,2025-11-14 21h11.37.182057 +0530,
,Objects\065a.jpg,115,0,115,,,,,,,j,1.9504132000001846,0.21055819999855885,None,,,,,,,115,0,115,0,561.9794387999991,,,,,,,,,,,,,,,,,,,,,,,561.9629894999998,561.9794387999991,562.4961600000006,562.4630622999994,,,,,,,,,,,,,,,,,,,,,,,,,,562.4786643999996,562.4961600000006,562.4961600000006,562.4961600000006,565.4793716999993,j,1.9504132000001846,0.21055819999855885,565.4794158999994,565.4794266000008,None,,,,,,,,,,,,,,,,,00011,001,2025-11-14_21h11.30.103,MST_task,2024.2.2,59.98235319130333,2025-11-14 21h11.37.182057 +0530,
,Objects\172a.jpg,116,0,116,,,,,,,j,0.675526600000012,0.1698180000003049,None,,,,,,,116,0,116,0,565.4960198999997,,,,,,,,,,,,,,,,,,,,,,,565.4795097999995,565.4960198999997,566.0126825999996,565.9795254,,,,,,,,,,,,,,,,,,,,,,,,,,565.9948186999991,566.0126825999996,566.0126825999996,566.0126825999996,568.9960090000004,j,0.675526600000012,0.1698180000003049,568.9960539999993,568.9960646,None,,,,,,,,,,,,,,,,,00011,001,2025-11-14_21h11.30.103,MST_task,2024.2.2,59.98235319130333,2025-11-14 21h11.37.182057 +0530,
,Objects\135a.jpg,117,0,117,,,,,,,j,1.6717491999988852,0.22926990000087244,None,,,,,,,117,0,117,0,569.0125953000006,,,,,,,,,,,,,,,,,,,,,,,568.9961437000002,569.0125953000006,569.5292706,569.4962090999998,,,,,,,,,,,,,,,,,,,,,,,,,,569.5115251000007,569.5292706,569.5292706,569.5292706,572.5125537999993,j,1.6717491999988852,0.22926990000087244,572.5125998999993,572.5126110000001,None,,,,,,,,,,,,,,,,,00011,001,2025-11-14_21h11.30.103,MST_task,2024.2.2,59.98235319130333,2025-11-14 21h11.37.182057 +0530,
,Objects\064a.jpg,118,0,118,,,,,,,j,0.7702460000000428,0.23281280000082916,None,,,,,,,118,0,118,0,572.5291956000001,,,,,,,,,,,,,,,,,,,,,,,572.5127143999998,572.5291956000001,573.0458581000003,573.0127869000007,,,,,,,,,,,,,,,,,,,,,,,,,,573.0300385999999,573.0458581000003,573.0458581000003,573.0458581000003,576.0291988999998,j,0.7702460000000428,0.23281280000082916,576.0292511000007,576.0292614999998,None,,,,,,,,,,,,,,,,,00011,001,2025-11-14_21h11.30.103,MST_task,2024.2.2,59.98235319130333,2025-11-14 21h11.37.182057 +0530,
,Scenes\182a.jpg,119,0,119,,,,,,,j,2.5499567999995634,0.21830260000024282,None,,,,,,,119,0,119,0,576.0458811999997,,,,,,,,,,,,,,,,,,,,,,,576.0293337999992,576.0458811999997,576.5624810000008,576.5293956000005,,,,,,,,,,,,,,,,,,,,,,,,,,576.5468555999996,576.5624810000008,576.5624810000008,576.5624810000008,579.5457523000005,j,2.5499567999995634,0.21830260000024282,579.5458197999997,579.5458318000001,None,,,,,,,,,,,,,,,,,00011,001,2025-11-14_21h11.30.103,MST_task,2024.2.2,59.98235319130333,2025-11-14 21h11.37.182057 +0530,
,Scenes\102a.jpg,120,0,120,,,,,,,j,0.7251708000003418,0.22792259999914677,None,,,,,,,120,0,120,0,579.5623546999996,,,,,,,,,,,,,,,,,,,,,,,579.5458987999991,579.5623546999996,,580.0458653000005,,,,,,,,,,,,,,,,,,,,,,,,,,580.0654254000001,580.0790127,580.0790127,580.0790127,583.0624244999999,j,0.7251708000003418,0.22792259999914677,583.0624717999999,583.0624807999993,None,,,,,,,,,,,,,,,,,00011,001,2025-11-14_21h11.30.103,MST_task,2024.2.2,59.98235319130333,2025-11-14 21h11.37.182057 +0530,
,Scenes\171a.jpg,121,0,121,,,,,,,f,0.8448066000000836,0.24988309999935154,None,,,,,,,121,0,121,0,583.0789728,,,,,,,,,,,,,,,,,,,,,,,583.0625830999998,583.0789728,583.5958702999997,583.5624967999993,,,,,,,,,,,,,,,,,,,,,,,,,,583.5845475000006,583.5958702999997,583.5958702999997,583.5958702999997,586.5789236,f,0.8448066000000836,0.24988309999935154,586.5789679000009,586.5789789999999,None,,,,,,,,,,,,,,,,,00011,001,2025-11-14_21h11.30.103,MST_task,2024.2.2,59.98235319130333,2025-11-14 21h11.37.182057 +0530,
,Scenes\103a.jpg,122,0,122,,,,,,,j,2.3865848000004917,0.20154320000074222,None,,,,,,,122,0,122,0,586.5955742999995,,,,,,,,,,,,,,,,,,,,,,,586.5790543000003,586.5955742999995,587.1121932000005,587.0790431000005,,,,,,,,,,,,,,,,,,,,,,,,,,587.0977239999993,587.1121932000005,587.1121932000005,587.1121932000005,590.0955637000006,j,2.3865848000004917,0.20154320000074222,590.0956112999993,590.0956217999992,None,,,,,,,,,,,,,,,,,00011,001,2025-11-14_21h11.30.103,MST_task,2024.2.2,59.98235319130333,2025-11-14 21h11.37.182057 +0530,
,Scenes\181a.jpg,123,0,123,,,,,,,f,2.3733785999993415,0.25042799999937415,None,,,,,,,123,0,123,0,590.1121650000005,,,,,,,,,,,,,,,,,,,,,,,590.0956974000001,590.1121650000005,,590.5956846000008,,,,,,,,,,,,,,,,,,,,,,,,,,590.6140598999991,590.6287935,590.6287935,590.6287935,593.6121177000005,f,2.3733785999993415,0.25042799999937415,593.6121624000007,593.6121717999995,None,,,,,,,,,,,,,,,,,00011,001,2025-11-14_21h11.30.103,MST_task,2024.2.2,59.98235319130333,2025-11-14 21h11.37.182057 +0530,
,Scenes\067a.jpg,124,0,124,,,,,,,j,0.7066006000004563,0.21028839999962656,None,,,,,,,124,0,124,0,593.6287496999994,,,,,,,,,,,,,,,,,,,,,,,593.6122309999992,593.6287496999994,594.1453891000001,594.1123083000002,,,,,,,,,,,,,,,,,,,,,,,,,,594.1289756000006,594.1453891000001,594.1453891000001,594.1453891000001,597.1288571000005,j,0.7066006000004563,0.21028839999962656,597.1289108000001,597.1289223999993,None,,,,,,,,,,,,,,,,,00011,001,2025-11-14_21h11.30.103,MST_task,2024.2.2,59.98235319130333,2025-11-14 21h11.37.182057 +0530,
,Scenes\098a.jpg,125,0,125,,,,,,,f,1.7557489999999234,0.2920887000000221,None,,,,,,,125,0,125,0,597.1453521000003,,,,,,,,,,,,,,,,,,,,,,,597.1289992000002,597.1453521000003,,597.6454004999996,,,,,,,,,,,,,,,,,,,,,,,,,,597.6615452000005,597.6786699000004,597.6786699000004,597.6786699000004,600.6452950000003,f,1.7557489999999234,0.2920887000000221,600.6453684999997,600.6453786999991,None,,,,,,,,,,,,,,,,,00011,001,2025-11-14_21h11.30.103,MST_task,2024.2.2,59.98235319130333,2025-11-14 21h11.37.182057 +0530,
,Objects\009a.jpg,126,0,126,,,,,,,f,0.7477770999994391,0.2416269999994256,None,,,,,,,126,0,126,0,600.6619412,,,,,,,,,,,,,,,,,,,,,,,600.6454424000003,600.6619412,601.1788514,601.1455133,,,,,,,,,,,,,,,,,,,,,,,,,,601.1614265999997,601.1788514,601.1788514,601.1788514,604.1618866999997,f,0.7477770999994391,0.2416269999994256,604.1619305999993,604.1619408000006,None,,,,,,,,,,,,,,,,,00011,001,2025-11-14_21h11.30.103,MST_task,2024.2.2,59.98235319130333,2025-11-14 21h11.37.182057 +0530,
,Objects\078a.jpg,127,0,127,,,,,,,j,1.7814674000001105,0.22976650000055088,None,,,,,,,127,0,127,0,604.1785569000003,,,,,,,,,,,,,,,,,,,,,,,604.1619976999991,604.1785569000003,,604.6620196999993,,,,,,,,,,,,,,,,,,,,,,,,,,604.6777877000004,604.6951852999991,604.6951852999991,604.6951852999991,607.6785273000005,j,1.7814674000001105,0.22976650000055088,607.6785808999994,607.6785904999997,None,,,,,,,,,,,,,,,,,00011,001,2025-11-14_21h11.30.103,MST_task,2024.2.2,59.98235319130333,2025-11-14 21h11.37.182057 +0530,
,Objects\013a.jpg,128,0,128,,,,,,,None,,,j,2.256118499999502,None,,,,,128,0,128,0,607.6951265000007,,,,,,,,,,,,,,,,,,,,,,,607.6786527000004,607.6951265000007,608.2117515000009,608.1787322,,,,,,,,,,,,,,,,,,,,,,,,,,608.1944812000002,608.2117515000009,608.2117515000009,608.2117515000009,611.1952024000002,None,,,611.1952509000002,613.4787563999998,j,,,,611.2116831999992,611.2116831999992,2.256118499999502,None,,,,,,,,,,00011,001,2025-11-14_21h11.30.103,MST_task,2024.2.2,59.98235319130333,2025-11-14 21h11.37.182057 +0530,
,Objects\112a.jpg,129,0,129,,,,,,,f,0.8628415999992285,0.2616031000015937,None,,,,,,,129,0,129,0,613.4950067000009,,,,,,,,,,,,,,,,,,,,,,,613.4788365999993,613.4950067000009,614.0116228999996,613.9785059999995,,,,,,,,,,,,,,,,,,,,,,,,,,613.9940881999992,614.0116228999996,614.0116228999996,614.0116228999996,616.9949450000004,f,0.8628415999992285,0.2616031000015937,616.9949911999993,616.9950026000006,None,,,,,,,,,,,,,,,,,00011,001,2025-11-14_21h11.30.103,MST_task,2024.2.2,59.98235319130333,2025-11-14 21h11.37.182057 +0530,
,Objects\031a.jpg,130,0,130,,,,,,,j,1.577563500000906,0.3079751999994187,None,,,,,,,130,0,130,0,617.0115929000003,,,,,,,,,,,,,,,,,,,,,,,616.9950602000008,617.0115929000003,617.5282442999996,617.4951216000009,,,,,,,,,,,,,,,,,,,,,,,,,,617.5107867000006,617.5282442999996,617.5282442999996,617.5282442999996,620.5116906999992,j,1.577563500000906,0.3079751999994187,620.5117399999999,620.5117506999995,None,,,,,,,,,,,,,,,,,00011,001,2025-11-14_21h11.30.103,MST_task,2024.2.2,59.98235319130333,2025-11-14 21h11.37.182057 +0530,
,Objects\116a.jpg,131,0,131,,,,,,,f,2.041130499999781,0.2639858999991702,None,,,,,,,131,0,131,0,620.5281503000006,,,,,,,,,,,,,,,,,,,,,,,620.5118352000009,620.5281503000006,621.0448054000008,621.0116921999997,,,,,,,,,,,,,,,,,,,,,,,,,,621.0283184,621.0448054000008,621.0448054000008,621.0448054000008,624.0282834999998,f,2.041130499999781,0.2639858999991702,624.0283318999991,624.0283428999992,None,,,,,,,,,,,,,,,,,00011,001,2025-11-14_21h11.30.103,MST_task,2024.2.2,59.98235319130333,2025-11-14 21h11.37.182057 +0530,
,Objects\111a.jpg,132,0,132,,,,,,,f,1.7400156000003335,0.2646565999984887,None,,,,,,,132,0,132,0,624.0447423000005,,,,,,,,,,,,,,,,,,,,,,,624.0284207000004,624.0447423000005,624.5614036000006,624.5282157000001,,,,,,,,,,,,,,,,,,,,,,,,,,624.5442973000008,624.5614036000006,624.5614036000006,624.5614036000006,627.5447236,f,1.7400156000003335,0.2646565999984887,627.5447657000004,627.5447765000008,None,,,,,,,,,,,,,,,,,00011,001,2025-11-14_21h11.30.103,MST_task,2024.2.2,59.98235319130333,2025-11-14 21h11.37.182057 +0530,
,Scenes\054a.jpg,133,0,133,,,,,,,j,0.8518702000001213,0.22801170000093407,None,,,,,,,133,0,133,0,627.5613665000001,,,,,,,,,,,,,,,,,,,,,,,627.5448603999994,627.5613665000001,628.0781009000002,628.0449864999991,,,,,,,,,,,,,,,,,,,,,,,,,,628.0646326000006,628.0781009000002,628.0781009000002,628.0781009000002,631.0613592000009,j,0.8518702000001213,0.22801170000093407,631.0614022999998,631.0614127000008,None,,,,,,,,,,,,,,,,,00011,001,2025-11-14_21h11.30.103,MST_task,2024.2.2,59.98235319130333,2025-11-14 21h11.37.182057 +0530,
,Scenes\180a.jpg,134,0,134,,,,,,,j,0.9741026000010606,0.19749330000013288,None,,,,,,,134,0,134,0,631.0779660000007,,,,,,,,,,,,,,,,,,,,,,,631.0615042999998,631.0779660000007,631.5946034999997,631.5615417000008,,,,,,,,,,,,,,,,,,,,,,,,,,631.5785421,631.5946034999997,631.5946034999997,631.5946034999997,634.5779490000004,j,0.9741026000010606,0.19749330000013288,634.5779949000007,634.5780063000002,None,,,,,,,,,,,,,,,,,00011,001,2025-11-14_21h11.30.103,MST_task,2024.2.2,59.98235319130333,2025-11-14 21h11.37.182057 +0530,
,Scenes\190a.jpg,135,0,135,,,,,,,j,0.5947300999996514,0.20631839999987278,None,,,,,,,135,0,135,0,634.5945463999997,,,,,,,,,,,,,,,,,,,,,,,634.5780651000005,634.5945463999997,635.1111772999993,635.0781353999992,,,,,,,,,,,,,,,,,,,,,,,,,,635.098677,635.1111772999993,635.1111772999993,635.1111772999993,638.0945026999998,j,0.5947300999996514,0.20631839999987278,638.0945456000009,638.0945561999997,None,,,,,,,,,,,,,,,,,00011,001,2025-11-14_21h11.30.103,MST_task,2024.2.2,59.98235319130333,2025-11-14 21h11.37.182057 +0530,
,Scenes\173a.jpg,136,0,136,,,,,,,j,0.7082888000004459,0.20244759999877715,None,,,,,,,136,0,136,0,638.1111462000008,,,,,,,,,,,,,,,,,,,,,,,638.0946132000008,638.1111462000008,,638.5946249000008,,,,,,,,,,,,,,,,,,,,,,,,,,638.6103318000005,638.6277692999993,638.6277692999993,638.6277692999993,641.5946313999993,j,0.7082888000004459,0.20244759999877715,641.5946810000005,641.5946939999994,None,,,,,,,,,,,,,,,,,00011,001,2025-11-14_21h11.30.103,MST_task,2024.2.2,59.98235319130333,2025-11-14 21h11.37.182057 +0530,
,Scenes\011a.jpg,137,0,137,,,,,,,j,2.816246099999262,None,None,,,,,,,137,0,137,0,641.6110786000008,,,,,,,,,,,,,,,,,,,,,,,641.5947534999996,641.6110786000008,642.1279176999997,642.0947727999992,,,,,,,,,,,,,,,,,,,,,,,,,,642.1172114000001,642.1279176999997,642.1279176999997,642.1279176999997,645.1111485000001,j,2.816246099999262,None,645.1112025000002,645.1112135999992,None,,,,,,,,,,,,,,,,,00011,001,2025-11-14_21h11.30.103,MST_task,2024.2.2,59.98235319130333,2025-11-14 21h11.37.182057 +0530,
,Scenes\043a.jpg,138,0,138,,,,,,,j,2.7045395000004646,0.2192512000001443,None,,,,,,,138,0,138,0,645.1276560000006,,,,,,,,,,,,,,,,,,,,,,,645.1112911,645.1276560000006,645.6442984999994,645.6111765999995,,,,,,,,,,,,,,,,,,,,,,,,,,645.6306495000008,645.6442984999994,645.6442984999994,645.6442984999994,648.6276249999992,j,2.7045395000004646,0.2192512000001443,648.6276887999993,648.6277000999999,None,,,,,,,,,,,,,,,,,00011,001,2025-11-14_21h11.30.103,MST_task,2024.2.2,59.98235319130333,2025-11-14 21h11.37.182057 +0530,
,Scenes\160a.jpg,139,0,139,,,,,,,j,0.5816030000005412,0.2039495999997598,None,,,,,,,139,0,139,0,648.6442506000003,,,,,,,,,,,,,,,,,,,,,,,648.6277876999993,648.6442506000003,649.1609153999998,649.1277829999999,,,,,,,,,,,,,,,,,,,,,,,,,,649.1445208999994,649.1609153999998,649.1609153999998,649.1609153999998,652.1441981999997,j,0.5816030000005412,0.2039495999997598,652.1442447999998,652.1442616000004,None,,,,,,,,,,,,,,,,,00011,001,2025-11-14_21h11.30.103,MST_task,2024.2.2,59.98235319130333,2025-11-14 21h11.37.182057 +0530,
,Objects\086a.jpg,140,0,140,,,,,,,j,2.114832600000227,0.2036714000005304,None,,,,,,,140,0,140,0,652.1608431999994,,,,,,,,,,,,,,,,,,,,,,,652.1443632999999,652.1608431999994,652.6777170000005,652.6443080999998,,,,,,,,,,,,,,,,,,,,,,,,,,652.6601695000008,652.6777170000005,652.6777170000005,652.6777170000005,655.6609525000003,j,2.114832600000227,0.2036714000005304,655.6610019,655.6610129000001,None,,,,,,,,,,,,,,,,,00011,001,2025-11-14_21h11.30.103,MST_task,2024.2.2,59.98235319130333,2025-11-14 21h11.37.182057 +0530,
,Objects\089a.jpg,141,0,141,,,,,,,f,1.2065824999990582,0.2580678000012995,None,,,,,,,141,0,141,0,655.6774471999997,,,,,,,,,,,,,,,,,,,,,,,655.6610887000006,655.6774471999997,656.1940641000001,656.1610347999995,,,,,,,,,,,,,,,,,,,,,,,,,,656.1774776999991,656.1940641000001,656.1940641000001,656.1940641000001,659.1774003999999,f,1.2065824999990582,0.2580678000012995,659.1774618,659.1774719999994,None,,,,,,,,,,,,,,,,,00011,001,2025-11-14_21h11.30.103,MST_task,2024.2.2,59.98235319130333,2025-11-14 21h11.37.182057 +0530,
,Objects\053a.jpg,142,0,142,,,,,,,f,2.577796600000511,0.2637469000001147,None,,,,,,,142,0,142,0,659.1939937999996,,,,,,,,,,,,,,,,,,,,,,,659.1775469000004,659.1939937999996,659.7106495999997,659.6774986,,,,,,,,,,,,,,,,,,,,,,,,,,659.6936552000006,659.7106495999997,659.7106495999997,659.7106495999997,662.6939653999998,f,2.577796600000511,0.2637469000001147,662.6940238000007,662.6940376999992,None,,,,,,,,,,,,,,,,,00011,001,2025-11-14_21h11.30.103,MST_task,2024.2.2,59.98235319130333,2025-11-14 21h11.37.182057 +0530,
,Objects\143a.jpg,143,0,143,,,,,,,f,2.0888914999995905,0.2742596999996749,None,,,,,,,143,0,143,0,662.7106136000002,,,,,,,,,,,,,,,,,,,,,,,662.6941674000009,662.7106136000002,663.2272412000002,663.1940694999994,,,,,,,,,,,,,,,,,,,,,,,,,,663.2095532000003,663.2272412000002,663.2272412000002,663.2272412000002,666.2105833999995,f,2.0888914999995905,0.2742596999996749,666.2106270000004,666.2106373000006,None,,,,,,,,,,,,,,,,,00011,001,2025-11-14_21h11.30.103,MST_task,2024.2.2,59.98235319130333,2025-11-14 21h11.37.182057 +0530,
,Objects\069a.jpg,144,0,144,,,,,,,j,0.9825117000000319,0.22565799999938463,None,,,,,,,144,0,144,0,666.2272171000004,,,,,,,,,,,,,,,,,,,,,,,666.2107087000004,666.2272171000004,666.7438598999997,666.7106915999993,,,,,,,,,,,,,,,,,,,,,,,,,,666.7263552000004,666.7438598999997,666.7438598999997,666.7438598999997,669.7271435999992,j,0.9825117000000319,0.22565799999938463,669.7271858999993,669.7271966999997,None,,,,,,,,,,,,,,,,,00011,001,2025-11-14_21h11.30.103,MST_task,2024.2.2,59.98235319130333,2025-11-14 21h11.37.182057 +0530,
,Objects\044a.jpg,145,0,145,,,,,,,j,2.207669800000076,0.2341405000006489,None,,,,,,,145,0,145,0,669.7438070999997,,,,,,,,,,,,,,,,,,,,,,,669.7272721000008,669.7438070999997,670.2604630999995,670.2273693999996,,,,,,,,,,,,,,,,,,,,,,,,,,670.2428168999995,670.2604630999995,670.2604630999995,670.2604630999995,673.2437312999991,j,2.207669800000076,0.2341405000006489,673.2437855000007,673.2437998000005,None,,,,,,,,,,,,,,,,,00011,001,2025-11-14_21h11.30.103,MST_task,2024.2.2,59.98235319130333,2025-11-14 21h11.37.182057 +0530,
,Objects\144a.jpg,146,0,146,,,,,,,j,1.7753216000000975,0.21411989999978687,None,,,,,,,146,0,146,0,673.2603990000007,,,,,,,,,,,,,,,,,,,,,,,673.2438571000002,673.2603990000007,673.7770175000005,673.7438758999997,,,,,,,,,,,,,,,,,,,,,,,,,,673.7597002000002,673.7770175000005,673.7770175000005,673.7770175000005,676.7603416999991,j,1.7753216000000975,0.21411989999978687,676.7603842000008,676.7603952999998,None,,,,,,,,,,,,,,,,,00011,001,2025-11-14_21h11.30.103,MST_task,2024.2.2,59.98235319130333,2025-11-14 21h11.37.182057 +0530,
,Scenes\087a.jpg,147,0,147,,,,,,,j,1.0708039999990433,0.20961720000013884,None,,,,,,,147,0,147,0,676.7769766000001,,,,,,,,,,,,,,,,,,,,,,,676.7604689,676.7769766000001,677.2939071000001,677.2605022000007,,,,,,,,,,,,,,,,,,,,,,,,,,677.2757105000001,677.2939071000001,677.2939071000001,677.2939071000001,680.2770474000008,j,1.0708039999990433,0.20961720000013884,680.2771238999994,680.2771367000005,None,,,,,,,,,,,,,,,,,00011,001,2025-11-14_21h11.30.103,MST_task,2024.2.2,59.98235319130333,2025-11-14 21h11.37.182057 +0530,
,Scenes\152a.jpg,148,0,148,,,,,,,j,0.39231980000113253,0.2014698999992106,None,,,,,,,148,0,148,0,680.2935820000002,,,,,,,,,,,,,,,,,,,,,,,680.2771981000005,680.2935820000002,680.8104727000009,680.7771362999993,,,,,,,,,,,,,,,,,,,,,,,,,,680.7914256000004,680.8104727000009,680.8104727000009,680.8104727000009,683.7935027999993,j,0.39231980000113253,0.2014698999992106,683.7935608000007,683.7935717,None,,,,,,,,,,,,,,,,,00011,001,2025-11-14_21h11.30.103,MST_task,2024.2.2,59.98235319130333,2025-11-14 21h11.37.182057 +0530,
,Scenes\191a.jpg,149,0,149,,,,,,,j,1.835101399999985,0.23444109999945795,None,,,,,,,149,0,149,0,683.8101736999997,,,,,,,,,,,,,,,,,,,,,,,683.7936583999999,683.8101736999997,684.3270479000003,684.2936804000001,,,,,,,,,,,,,,,,,,,,,,,,,,684.3085391999994,684.3270479000003,684.3270479000003,684.3270479000003,687.3101404999998,j,1.835101399999985,0.23444109999945795,687.3102048000001,687.3102161000006,None,,,,,,,,,,,,,,,,,00011,001,2025-11-14_21h11.30.103,MST_task,2024.2.2,59.98235319130333,2025-11-14 21h11.37.182057 +0530,
,Scenes\022a.jpg,150,0,150,,,,,,,j,0.8932353000000148,0.1931419000011374,None,,,,,,,150,0,150,0,687.3267641999992,,,,,,,,,,,,,,,,,,,,,,,687.3102887999994,687.3267641999992,687.8433965000004,687.8102677999996,,,,,,,,,,,,,,,,,,,,,,,,,,687.8225461000002,687.8433965000004,687.8433965000004,687.8433965000004,690.8268456000005,j,0.8932353000000148,0.1931419000011374,690.8269012000001,690.8269122000002,None,,,,,,,,,,,,,,,,,00011,001,2025-11-14_21h11.30.103,MST_task,2024.2.2,59.98235319130333,2025-11-14 21h11.37.182057 +0530,
,Scenes\136a.jpg,151,0,151,,,,,,,j,2.0603227999999945,0.1901890999997704,None,,,,,,,151,0,151,0,690.8433205000001,,,,,,,,,,,,,,,,,,,,,,,690.8269887000006,690.8433205000001,691.3599814999998,691.3269395999996,,,,,,,,,,,,,,,,,,,,,,,,,,691.3433394000003,691.3599814999998,691.3599814999998,691.3599814999998,694.3433033000001,j,2.0603227999999945,0.1901890999997704,694.3433521999996,694.3433624999998,None,,,,,,,,,,,,,,,,,00011,001,2025-11-14_21h11.30.103,MST_task,2024.2.2,59.98235319130333,2025-11-14 21h11.37.182057 +0530,
,Scenes\033a.jpg,152,0,152,,,,,,,j,0.6967526000007638,0.1964334999993298,None,,,,,,,152,0,152,0,694.3599467000004,,,,,,,,,,,,,,,,,,,,,,,694.3434378000002,694.3599467000004,694.8767561999994,694.8435085000001,,,,,,,,,,,,,,,,,,,,,,,,,,694.8612164999995,694.8767561999994,694.8767561999994,694.8767561999994,697.8599455000003,j,0.6967526000007638,0.1964334999993298,697.8599916999992,697.8600026999993,None,,,,,,,,,,,,,,,,,00011,001,2025-11-14_21h11.30.103,MST_task,2024.2.2,59.98235319130333,2025-11-14 21h11.37.182057 +0530,
,Scenes\032a.jpg,153,0,153,,,,,,,j,0.5128164999987348,0.21191090000138502,None,,,,,,,153,0,153,0,697.8765519999997,,,,,,,,,,,,,,,,,,,,,,,697.8600602999995,697.8765519999997,698.3934061,698.3601510000008,,,,,,,,,,,,,,,,,,,,,,,,,,698.3838746000001,698.3934061,698.3934061,698.3934061,701.3764895000004,j,0.5128164999987348,0.21191090000138502,701.3765476999997,701.3765612999996,None,,,,,,,,,,,,,,,,,00011,001,2025-11-14_21h11.30.103,MST_task,2024.2.2,59.98235319130333,2025-11-14 21h11.37.182057 +0530,
,Objects\131a.jpg,154,0,154,,,,,,,f,2.5478668000014295,0.2540657999998075,None,,,,,,,154,0,154,0,701.3931358999998,,,,,,,,,,,,,,,,,,,,,,,701.3766211000002,701.3931358999998,701.9099210999993,701.8766424999994,,,,,,,,,,,,,,,,,,,,,,,,,,701.8929418000007,701.9099210999993,701.9099210999993,701.9099210999993,704.8931095000007,f,2.5478668000014295,0.2540657999998075,704.8931651000003,704.8931763,None,,,,,,,,,,,,,,,,,00011,001,2025-11-14_21h11.30.103,MST_task,2024.2.2,59.98235319130333,2025-11-14 21h11.37.182057 +0530,
,Objects\162a.jpg,155,0,155,,,,,,,f,0.9364776999991591,0.2550567000016599,None,,,,,,,155,0,155,0,704.9097149999998,,,,,,,,,,,,,,,,,,,,,,,704.8932385000007,704.9097149999998,705.4263453000003,705.3932210999992,,,,,,,,,,,,,,,,,,,,,,,,,,705.4089308000002,705.4263453000003,705.4263453000003,705.4263453000003,708.4096919000003,f,0.9364776999991591,0.2550567000016599,708.4097497999992,708.4097603999999,None,,,,,,,,,,,,,,,,,00011,001,2025-11-14_21h11.30.103,MST_task,2024.2.2,59.98235319130333,2025-11-14 21h11.37.182057 +0530,
,Objects\105a.jpg,156,0,156,,,,,,,f,0.5348400000002584,0.23810270000103628,None,,,,,,,156,0,156,0,708.4263167999998,,,,,,,,,,,,,,,,,,,,,,,708.4098180000001,708.4263167999998,708.9429894999994,708.909791,,,,,,,,,,,,,,,,,,,,,,,,,,708.9256347999999,708.9429894999994,708.9429894999994,708.9429894999994,711.9263790000005,f,0.5348400000002584,0.23810270000103628,711.9264356000003,711.9264469999998,None,,,,,,,,,,,,,,,,,00011,001,2025-11-14_21h11.30.103,MST_task,2024.2.2,59.98235319130333,2025-11-14 21h11.37.182057 +0530,
,Objects\092a.jpg,157,0,157,,,,,,,f,1.7010413000007247,0.23983179999959248,None,,,,,,,157,0,157,0,711.9429118999997,,,,,,,,,,,,,,,,,,,,,,,711.9265073999995,711.9429118999997,712.4595704999992,712.4263778999994,,,,,,,,,,,,,,,,,,,,,,,,,,712.4417802999997,712.4595704999992,712.4595704999992,712.4595704999992,715.4429956000004,f,1.7010413000007247,0.23983179999959248,715.4430441000004,715.4430554999999,None,,,,,,,,,,,,,,,,,00011,001,2025-11-14_21h11.30.103,MST_task,2024.2.2,59.98235319130333,2025-11-14 21h11.37.182057 +0530,
,Objects\006a.jpg,158,0,158,,,,,,,f,2.580544500000542,0.21791669999947771,None,,,,,,,158,0,158,0,715.4595026999996,,,,,,,,,,,,,,,,,,,,,,,715.4431363999993,715.4595026999996,715.9761254000005,715.9430119999997,,,,,,,,,,,,,,,,,,,,,,,,,,715.9585248999992,715.9761254000005,715.9761254000005,715.9761254000005,718.9594723999999,f,2.580544500000542,0.21791669999947771,718.9595148999997,718.9595262000003,None,,,,,,,,,,,,,,,,,00011,001,2025-11-14_21h11.30.103,MST_task,2024.2.2,59.98235319130333,2025-11-14 21h11.37.182057 +0530,
,Objects\070a.jpg,159,0,159,,,,,,,f,2.052039500000319,0.24361030000000028,None,,,,,,,159,0,159,0,718.9760611999991,,,,,,,,,,,,,,,,,,,,,,,718.9595838999994,718.9760611999991,719.4927152,719.4596476000006,,,,,,,,,,,,,,,,,,,,,,,,,,719.4761429999999,719.4927152,719.4927152,719.4927152,722.4760795000002,f,2.052039500000319,0.24361030000000028,722.4761214999999,722.4761323000002,None,,,,,,,,,,,,,,,,,00011,001,2025-11-14_21h11.30.103,MST_task,2024.2.2,59.98235319130333,2025-11-14 21h11.37.182057 +0530,
,Objects\150a.jpg,160,0,160,,,,,,,f,1.1333694999993895,0.2832395000004908,None,,,,,,,160,0,160,0,722.4926431999993,,,,,,,,,,,,,,,,,,,,,,,722.4761889000001,722.4926431999993,723.0093042999997,722.9762210000008,,,,,,,,,,,,,,,,,,,,,,,,,,722.9928531999994,723.0093042999997,723.0093042999997,723.0093042999997,725.9926453000007,f,1.1333694999993895,0.2832395000004908,725.9926907000008,725.9927016999991,None,,,,,,,,,,,,,,,,,00011,001,2025-11-14_21h11.30.103,MST_task,2024.2.2,59.98235319130333,2025-11-14 21h11.37.182057 +0530,
,Scenes\153a.jpg,161,0,161,,,,,,,j,2.5561906000002637,0.2029448000012053,None,,,,,,,161,0,161,0,726.0092712000005,,,,,,,,,,,,,,,,,,,,,,,725.9927616999994,726.0092712000005,726.5262232999994,726.4928163000004,,,,,,,,,,,,,,,,,,,,,,,,,,726.5077667000005,726.5262232999994,726.5262232999994,726.5262232999994,729.5092194000008,j,2.5561906000002637,0.2029448000012053,729.5092927999995,729.5093047999999,None,,,,,,,,,,,,,,,,,00011,001,2025-11-14_21h11.30.103,MST_task,2024.2.2,59.98235319130333,2025-11-14 21h11.37.182057 +0530,
,Scenes\131a.jpg,162,0,162,,,,,,,j,0.6634498000003077,0.19045749999895634,None,,,,,,,162,0,162,0,729.5258912999998,,,,,,,,,,,,,,,,,,,,,,,729.5093876999999,729.5258912999998,730.0427438999996,730.0093290999994,,,,,,,,,,,,,,,,,,,,,,,,,,730.0268799000005,730.0427438999996,730.0427438999996,730.0427438999996,733.0258166999993,j,0.6634498000003077,0.19045749999895634,733.0258603999991,733.0258711000006,None,,,,,,,,,,,,,,,,,00011,001,2025-11-14_21h11.30.103,MST_task,2024.2.2,59.98235319130333,2025-11-14 21h11.37.182057 +0530,
,Scenes\062a.jpg,163,0,163,,,,,,,j,0.5092534000013984,0.18954789999952482,None,,,,,,,163,0,163,0,733.0424552000004,,,,,,,,,,,,,,,,,,,,,,,733.0259299000008,733.0424552000004,733.5590821000005,733.5259497999996,,,,,,,,,,,,,,,,,,,,,,,,,,733.5453053000001,733.5590821000005,733.5590821000005,733.5590821000005,736.5424858000006,j,0.5092534000013984,0.18954789999952482,736.5425288999995,736.5425402000001,None,,,,,,,,,,,,,,,,,00011,001,2025-11-14_21h11.30.103,MST_task,2024.2.2,59.98235319130333,2025-11-14 21h11.37.182057 +0530,
,Scenes\150a.jpg,164,0,164,,,,,,,j,0.820421799999167,0.19053850000091188,None,,,,,,,164,0,164,0,736.5591320999993,,,,,,,,,,,,,,,,,,,,,,,736.5426201999999,736.5591320999993,737.0757293999995,737.0426829000007,,,,,,,,,,,,,,,,,,,,,,,,,,737.0600697999998,737.0757293999995,737.0757293999995,737.0757293999995,740.0589937000004,j,0.820421799999167,0.19053850000091188,740.0590372000006,740.0590475000008,None,,,,,,,,,,,,,,,,,00011,001,2025-11-14_21h11.30.103,MST_task,2024.2.2,59.98235319130333,2025-11-14 21h11.37.182057 +0530,
,Scenes\082a.jpg,165,0,165,,,,,,,None,,,f,3.449922699999661,None,,,,,165,0,165,0,740.0756713999999,,,,,,,,,,,,,,,,,,,,,,,740.0591225000007,740.0756713999999,740.5923094000009,740.5592362000007,,,,,,,,,,,,,,,,,,,,,,,,,,740.5791064000005,740.5923094000009,740.5923094000009,740.5923094000009,743.5756161000008,None,,,743.5756724000003,747.0425398999996,f,,,,743.5922554000008,743.5922554000008,3.449922699999661,None,,,,,,,,,,00011,001,2025-11-14_21h11.30.103,MST_task,2024.2.2,59.98235319130333,2025-11-14 21h11.37.182057 +0530,
,Scenes\059a.jpg,166,0,166,,,,,,,j,0.6846583000005921,0.1978822000000946,None,,,,,,,166,0,166,0,747.0588220000009,,,,,,,,,,,,,,,,,,,,,,,747.0426640999995,747.0588220000009,747.5754830999995,747.5423176999993,,,,,,,,,,,,,,,,,,,,,,,,,,747.5618723999996,747.5754830999995,747.5754830999995,747.5754830999995,750.5587770000002,j,0.6846583000005921,0.1978822000000946,750.5588308999995,750.5588415999991,None,,,,,,,,,,,,,,,,,00011,001,2025-11-14_21h11.30.103,MST_task,2024.2.2,59.98235319130333,2025-11-14 21h11.37.182057 +0530,
,Scenes\132a.jpg,167,0,167,,,,,,,None,,,f,1.0326250999987678,None,,,,,167,0,167,0,750.5754207000009,,,,,,,,,,,,,,,,,,,,,,,750.5589192000007,750.5754207000009,751.0920501,751.0588597000005,,,,,,,,,,,,,,,,,,,,,,,,,,751.0743531999997,751.0920501,751.0920501,751.0920501,754.0753939000006,None,,,754.0754648999991,755.1256584000002,f,,,,754.0920084000009,754.0920084000009,1.0326250999987678,None,,,,,,,,,,00011,001,2025-11-14_21h11.30.103,MST_task,2024.2.2,59.98235319130333,2025-11-14 21h11.37.182057 +0530,
,Objects\122a.jpg,168,0,168,,,,,,,f,1.1512600000005477,0.20787419999942358,None,,,,,,,168,0,168,0,755.1419506000002,,,,,,,,,,,,,,,,,,,,,,,755.1257339999993,755.1419506000002,755.6588857000006,755.6254862999995,,,,,,,,,,,,,,,,,,,,,,,,,,755.6432263000006,755.6588857000006,755.6588857000006,755.6588857000006,758.6419616000003,f,1.1512600000005477,0.20787419999942358,758.6420151999992,758.6420268000002,None,,,,,,,,,,,,,,,,,00011,001,2025-11-14_21h11.30.103,MST_task,2024.2.2,59.98235319130333,2025-11-14 21h11.37.182057 +0530,
,Objects\173a.jpg,169,0,169,,,,,,,f,0.9348830000017188,0.2198011000000406,None,,,,,,,169,0,169,0,758.6585775000003,,,,,,,,,,,,,,,,,,,,,,,758.6420849999995,758.6585775000003,759.1752004000009,759.1420259999995,,,,,,,,,,,,,,,,,,,,,,,,,,759.1593484999994,759.1752004000009,759.1752004000009,759.1752004000009,762.1585940999994,f,0.9348830000017188,0.2198011000000406,762.1586387999996,762.1586530000004,None,,,,,,,,,,,,,,,,,00011,001,2025-11-14_21h11.30.103,MST_task,2024.2.2,59.98235319130333,2025-11-14 21h11.37.182057 +0530,
,Objects\024a.jpg,170,0,170,,,,,,,f,2.048013900001024,0.2203706999989663,None,,,,,,,170,0,170,0,762.1751700999994,,,,,,,,,,,,,,,,,,,,,,,762.1587304999994,762.1751700999994,762.6917919000007,762.6586291000003,,,,,,,,,,,,,,,,,,,,,,,,,,762.6745301999999,762.6917919000007,762.6917919000007,762.6917919000007,765.6751158000006,f,2.048013900001024,0.2203706999989663,765.6751893,765.6752011000008,None,,,,,,,,,,,,,,,,,00011,001,2025-11-14_21h11.30.103,MST_task,2024.2.2,59.98235319130333,2025-11-14 21h11.37.182057 +0530,
,Objects\058a.jpg,171,0,171,,,,,,,f,0.8056154000005336,0.2584871999988536,None,,,,,,,171,0,171,0,765.6917548000001,,,,,,,,,,,,,,,,,,,,,,,765.675287,765.6917548000001,766.2083913999995,766.1753205000005,,,,,,,,,,,,,,,,,,,,,,,,,,766.1910207000001,766.2083913999995,766.2083913999995,766.2083913999995,769.1917171999994,f,0.8056154000005336,0.2584871999988536,769.1917587000007,769.1917694000003,None,,,,,,,,,,,,,,,,,00011,001,2025-11-14_21h11.30.103,MST_task,2024.2.2,59.98235319130333,2025-11-14 21h11.37.182057 +0530,
,Objects\101a.jpg,172,0,172,,,,,,,f,1.8697315999997954,0.239997200000289,None,,,,,,,172,0,172,0,769.2083798000003,,,,,,,,,,,,,,,,,,,,,,,769.1918282999995,769.2083798000003,769.7249828999993,769.6918877999997,,,,,,,,,,,,,,,,,,,,,,,,,,769.7076945000008,769.7249828999993,769.7249828999993,769.7249828999993,772.7083406999991,f,1.8697315999997954,0.239997200000289,772.7083858000005,772.7083982000004,None,,,,,,,,,,,,,,,,,00011,001,2025-11-14_21h11.30.103,MST_task,2024.2.2,59.98235319130333,2025-11-14 21h11.37.182057 +0530,
