Sl_no,image_path,thisN,thisTrialN,thisRepN,key_resp_5.keys,key_resp_7.keys,key_resp_7.rt,key_resp_7.duration,key_resp_5.rt,key_resp_5.duration,key_resp_9.keys,key_resp_8.keys,key_resp_8.rt,key_resp_8.duration,key_resp_9.rt,key_resp_9.duration,practice.thisRepN,practice.thisTrialN,practice.thisN,practice.thisIndex,trials.thisRepN,trials.thisTrialN,trials.thisN,trials.thisIndex,thisRow.t,notes,welcome_page.started,text.started,key_resp.started,welcome_page.stopped,key_resp.keys,key_resp.rt,key_resp.duration,instructions.started,ins.started,key_resp_2.started,instructions.stopped,key_resp_2.keys,key_resp_2.rt,key_resp_2.duration,objects_only_instruction.started,text_3.started,key_resp_3.started,objects_only_instruction.stopped,key_resp_3.keys,key_resp_3.rt,key_resp_3.duration,ISI.started,text_4.started,ISI.stopped,practice_block.started,image.started,text_5.started,key_resp_5.started,practice_block.stopped,practice.key_resp_5.keys,indoor_outdoor.started,text_7.started,key_resp_7.started,indoor_outdoor.stopped,practice.key_resp_7.keys,practice.key_resp_7.rt,practice.key_resp_7.duration,text_4.stopped,practice.key_resp_5.rt,practice.key_resp_5.duration,practice_to_main.started,text_2.started,key_resp_4.started,practice_to_main.stopped,key_resp_4.keys,key_resp_4.rt,key_resp_4.duration,objects.started,image_2.started,text_9.started,key_resp_9.started,objects.stopped,trials.key_resp_9.keys,encoding_task.started,text_8.started,key_resp_8.started,encoding_task.stopped,trials.key_resp_8.keys,trials.key_resp_8.rt,trials.key_resp_8.duration,trials.key_resp_9.rt,trials.key_resp_9.duration,end_experiment.started,text_6.started,key_resp_6.started,end_experiment.stopped,key_resp_6.keys,key_resp_6.rt,key_resp_6.duration,list_of_stimuli,encoding_task_accuracy,participant,session,date,expName,psychopyVersion,frameRate,expStart,
,,,,,,,,,,,,,,,,,,,,,,,,,,,0.04974630000000957,0.26640180000001124,0.26640180000001124,32.54383840000003,space,32.15296810000004,None,,,,,,,,,,,,,,,,,,,,,,,,,,,,,,,,,,,,,,,,,,,,,,,,,,,,,,,,,,,,,,,,,00010,001,2025-11-14_12h10.04.262,MST_task,2024.2.2,60.41452824410386,2025-11-14 17h40.18.766832 +0530,
,,,,,,,,,,,,,,,,,,,,,,,,,,,,,,,,,,32.54388110000002,32.56554010000002,32.56554010000002,77.23185810000001,space,44.66586480000001,None,,,,,,,,,,,,,,,,,,,,,,,,,,,,,,,,,,,,,,,,,,,,,,,,,,,,,,,,,,00010,001,2025-11-14_12h10.04.262,MST_task,2024.2.2,60.41452824410386,2025-11-14 17h40.18.766832 +0530,
,,,,,,,,,,,,,,,,,,,,,,,,,,,,,,,,,,,,,,,,,77.23189160000004,77.24789620000001,77.24789620000001,113.99791220000003,space,36.73577949999998,None,,,,,,,,,,,,,,,,,,,,,,,,,,,,,,,,,,,,,,,,,,,,,,,,,,,00010,001,2025-11-14_12h10.04.262,MST_task,2024.2.2,60.41452824410386,2025-11-14 17h40.18.766832 +0530,
8,practice_images/178a.jpg,0,0,0,None,j,3.3227165000000127,None,,,,,,,,,0,0,0,7,,,,,114.03048360000003,,,,,,,,,,,,,,,,,,,,,,,114.01255930000002,114.03048360000003,114.51382410000002,114.57039750000001,114.59720100000004,114.59720100000004,114.59720100000004,117.51373110000003,None,117.51498600000002,117.53040630000004,117.53040630000004,120.86404070000003,j,3.3227165000000127,None,,,,,,,,,,,,,,,,,,,,,,,,,,,,,,,,,,,00010,001,2025-11-14_12h10.04.262,MST_task,2024.2.2,60.41452824410386,2025-11-14 17h40.18.766832 +0530,
7,practice_images/166a.jpg,1,1,0,None,f,4.6378678999999465,None,,,,,,,,,0,1,1,6,,,,,120.88032179999999,,,,,,,,,,,,,,,,,,,,,,,120.86412089999999,120.88032179999999,121.36390520000003,121.38282570000001,121.39694940000004,121.39694940000004,121.39694940000004,124.38029169999999,None,124.38034800000003,124.39691800000003,124.39691800000003,129.04718680000002,f,4.6378678999999465,None,121.39694940000004,,,,,,,,,,,,,,,,,,,,,,,,,,,,,,,,,,00010,001,2025-11-14_12h10.04.262,MST_task,2024.2.2,60.41452824410386,2025-11-14 17h40.18.766832 +0530,
9,practice_images/180a.jpg,2,2,0,f,None,,,1.6991272999999865,0.08963610000000699,,,,,,,0,2,2,8,,,,,129.06348330000003,,,,,,,,,,,,,,,,,,,,,,,129.0472615,129.06348330000003,129.547037,129.56773680000003,129.58017560000002,129.58017560000002,129.58017560000002,132.5634687,f,132.56352430000004,,,132.56353490000004,None,,,129.58017560000002,1.6991272999999865,0.08963610000000699,,,,,,,,,,,,,,,,,,,,,,,,,,,,,,,,00010,001,2025-11-14_12h10.04.262,MST_task,2024.2.2,60.41452824410386,2025-11-14 17h40.18.766832 +0530,
6,practice_images/158a.jpg,3,3,0,j,None,,,2.0109335000000215,0.09717030000001614,,,,,,,0,3,3,5,,,,,132.58010410000003,,,,,,,,,,,,,,,,,,,,,,,132.5636002,132.58010410000003,133.0636401,133.0799356,133.0967369,133.0967369,133.0967369,136.08025810000004,j,136.08032359999999,,,136.08033370000004,None,,,133.0967369,2.0109335000000215,0.09717030000001614,,,,,,,,,,,,,,,,,,,,,,,,,,,,,,,,00010,001,2025-11-14_12h10.04.262,MST_task,2024.2.2,60.41452824410386,2025-11-14 17h40.18.766832 +0530,
4,practice_images/002b.jpg,4,4,0,f,None,,,2.353579400000001,0.134848599999998,,,,,,,0,4,4,3,,,,,136.0966633,,,,,,,,,,,,,,,,,,,,,,,136.0804,136.0966633,136.58027630000004,136.60196130000003,136.6133312,136.6133312,136.6133312,139.596634,f,139.5967023,,,139.5967119,None,,,136.6133312,2.353579400000001,0.134848599999998,,,,,,,,,,,,,,,,,,,,,,,,,,,,,,,,00010,001,2025-11-14_12h10.04.262,MST_task,2024.2.2,60.41452824410386,2025-11-14 17h40.18.766832 +0530,
3,practice_images/037a.jpg,5,5,0,f,None,,,1.8623853999999938,0.11871320000000196,,,,,,,0,5,5,2,,,,,139.6132553,,,,,,,,,,,,,,,,,,,,,,,139.5967683,139.6132553,140.0967372,140.1140474,140.12991550000004,140.12991550000004,140.12991550000004,143.1132162,f,143.11326560000003,,,143.1132756,None,,,140.12991550000004,1.8623853999999938,0.11871320000000196,,,,,,,,,,,,,,,,,,,,,,,,,,,,,,,,00010,001,2025-11-14_12h10.04.262,MST_task,2024.2.2,60.41452824410386,2025-11-14 17h40.18.766832 +0530,
1,practice_images/013a.jpg,6,6,0,f,None,,,1.8467756000000008,0.10789970000001858,,,,,,,0,6,6,0,,,,,143.12985550000002,,,,,,,,,,,,,,,,,,,,,,,143.113334,143.12985550000002,143.61335030000004,143.6307776,143.64651380000004,143.64651380000004,143.64651380000004,146.6298119,f,146.6298607,,,146.62987050000004,None,,,143.64651380000004,1.8467756000000008,0.10789970000001858,,,,,,,,,,,,,,,,,,,,,,,,,,,,,,,,00010,001,2025-11-14_12h10.04.262,MST_task,2024.2.2,60.41452824410386,2025-11-14 17h40.18.766832 +0530,
10,practice_images/182a.jpg,7,7,0,f,None,,,2.0676517999999646,0.11793340000002672,,,,,,,0,7,7,9,,,,,146.6464858,,,,,,,,,,,,,,,,,,,,,,,146.6299285,146.6464858,147.12952130000002,147.2768302,147.27923800000002,147.27923800000002,147.27923800000002,150.14637040000002,f,150.1464231,,,150.14643340000003,None,,,147.27923800000002,2.0676517999999646,0.11793340000002672,,,,,,,,,,,,,,,,,,,,,,,,,,,,,,,,00010,001,2025-11-14_12h10.04.262,MST_task,2024.2.2,60.41452824410386,2025-11-14 17h40.18.766832 +0530,
2,practice_images/031a.jpg,8,8,0,f,None,,,1.5277501999999572,0.11311460000001716,,,,,,,0,8,8,1,,,,,150.16298490000003,,,,,,,,,,,,,,,,,,,,,,,150.14649430000003,150.16298490000003,150.6466401,150.6910921,150.69595910000004,150.69595910000004,150.69595910000004,153.66296220000004,f,153.6630096,,,153.66301900000002,None,,,150.69595910000004,1.5277501999999572,0.11311460000001716,,,,,,,,,,,,,,,,,,,,,,,,,,,,,,,,00010,001,2025-11-14_12h10.04.262,MST_task,2024.2.2,60.41452824410386,2025-11-14 17h40.18.766832 +0530,
5,practice_images/139a.jpg,9,9,0,j,None,,,1.5093605000000139,0.10427329999998847,,,,,,,0,9,9,4,,,,,153.67963230000004,,,,,,,,,,,,,,,,,,,,,,,153.6630783,153.67963230000004,154.16322790000004,154.81171080000001,154.8296439,154.8296439,154.8296439,157.1795664,j,157.17961690000004,,,157.1796266,None,,,154.8296439,1.5093605000000139,0.10427329999998847,,,,,,,,,,,,,,,,,,,,,,,,,,,,,,,,00010,001,2025-11-14_12h10.04.262,MST_task,2024.2.2,60.41452824410386,2025-11-14 17h40.18.766832 +0530,
,,,,,,,,,,,,,,,,,,,,,,,,,,,,,,,,,,,,,,,,,,,,,,,,,,,,,,,,,,,,,,,,,,,157.17968439999999,157.1962931,157.1962931,200.7289624,space,43.52134749999999,None,,,,,,,,,,,,,,,,,,,,,,,,,00010,001,2025-11-14_12h10.04.262,MST_task,2024.2.2,60.41452824410386,2025-11-14 17h40.18.766832 +0530,
,Scenes\104a.jpg,0,0,0,,,,,,,None,j,1.9178576000000476,None,,,,,,,0,0,0,0,200.745336,,,,,,,,,,,,,,,,,,,,,,,200.72952850000001,200.745336,201.22887980000002,,,,,,,,,,,,,,201.2784449,,,,,,,,,,201.27037230000002,201.2784449,201.2784449,201.2784449,204.24524830000001,None,204.24642570000003,204.26182370000004,204.26182370000004,206.1956222,j,1.9178576000000476,None,,,,,,,,,,,,00010,001,2025-11-14_12h10.04.262,MST_task,2024.2.2,60.41452824410386,2025-11-14 17h40.18.766832 +0530,
,Scenes\124a.jpg,1,0,1,,,,,,,f,None,,,1.0998824000000127,0.1366370999999731,,,,,1,0,1,0,206.2120638,,,,,,,,,,,,,,,,,,,,,,,206.19570730000004,206.2120638,206.6955307,,,,,,,,,,,,,,206.74521150000004,,,,,,,,,,206.7336532,206.74521150000004,206.74521150000004,206.74521150000004,209.7118555,f,209.71190460000003,,,209.71191550000003,None,,,1.0998824000000127,0.1366370999999731,,,,,,,,,,00010,001,2025-11-14_12h10.04.262,MST_task,2024.2.2,60.41452824410386,2025-11-14 17h40.18.766832 +0530,
,Scenes\186a.jpg,2,0,2,,,,,,,j,None,,,1.2354108999999767,0.11123680000002878,,,,,2,0,2,0,209.7285025,,,,,,,,,,,,,,,,,,,,,,,209.71198730000003,209.7285025,210.2121171,,,,,,,,,,,,,,210.262202,,,,,,,,,,210.23955520000004,210.262202,210.262202,210.262202,213.22848620000002,j,213.22853550000002,,,213.22854560000002,None,,,1.2354108999999767,0.11123680000002878,,,,,,,,,,00010,001,2025-11-14_12h10.04.262,MST_task,2024.2.2,60.41452824410386,2025-11-14 17h40.18.766832 +0530,
,Scenes\120a.jpg,3,0,3,,,,,,,j,None,,,2.1865230000000224,0.11358639999997422,,,,,3,0,3,0,213.24514670000002,,,,,,,,,,,,,,,,,,,,,,,213.2286054,213.24514670000002,213.72865130000002,,,,,,,,,,,,,,213.7788749,,,,,,,,,,213.7665781,213.7788749,213.7788749,213.7788749,216.74495490000004,j,216.74499940000004,,,216.7450098,None,,,2.1865230000000224,0.11358639999997422,,,,,,,,,,00010,001,2025-11-14_12h10.04.262,MST_task,2024.2.2,60.41452824410386,2025-11-14 17h40.18.766832 +0530,
,Scenes\029a.jpg,4,0,4,,,,,,,j,None,,,1.4789556000000061,0.12578429999996388,,,,,4,0,4,0,216.76157970000003,,,,,,,,,,,,,,,,,,,,,,,216.74508500000002,216.76157970000003,217.24508830000002,,,,,,,,,,,,,,217.29481140000001,,,,,,,,,,217.2868449,217.29481140000001,217.29481140000001,217.29481140000001,220.261572,j,220.26161580000002,,,220.2616261,None,,,1.4789556000000061,0.12578429999996388,,,,,,,,,,00010,001,2025-11-14_12h10.04.262,MST_task,2024.2.2,60.41452824410386,2025-11-14 17h40.18.766832 +0530,
,Scenes\157a.jpg,5,0,5,,,,,,,j,None,,,1.485928299999955,0.11490440000000035,,,,,5,0,5,0,220.27818230000003,,,,,,,,,,,,,,,,,,,,,,,220.26170310000003,220.27818230000003,220.7617042,,,,,,,,,,,,,,220.7950882,,,,,,,,,,220.78426530000002,220.7950882,220.7950882,220.7950882,223.7782102,j,223.77825180000002,,,223.77826190000002,None,,,1.485928299999955,0.11490440000000035,,,,,,,,,,00010,001,2025-11-14_12h10.04.262,MST_task,2024.2.2,60.41452824410386,2025-11-14 17h40.18.766832 +0530,
,Scenes\094a.jpg,6,0,6,,,,,,,None,f,0.06898480000000973,None,,,,,,,6,0,6,0,223.7948672,,,,,,,,,,,,,,,,,,,,,,,223.77833500000003,223.7948672,224.27830390000003,,,,,,,,,,,,,,224.32819410000002,,,,,,,,,,224.3057407,224.32819410000002,224.32819410000002,224.32819410000002,227.29479180000004,None,227.29483270000003,227.31145700000002,227.31145700000002,227.39502570000002,f,0.06898480000000973,None,,,,,,,,,,,,00010,001,2025-11-14_12h10.04.262,MST_task,2024.2.2,60.41452824410386,2025-11-14 17h40.18.766832 +0530,
,Objects\063a.jpg,7,0,7,,,,,,,j,None,,,1.9947333999999728,0.1192702999999824,,,,,7,0,7,0,227.41145060000002,,,,,,,,,,,,,,,,,,,,,,,227.39508890000002,227.41145060000002,227.8950089,,,,,,,,,,,,,,227.9450248,,,,,,,,,,227.9286432,227.9450248,227.9450248,227.9450248,230.9114459,j,230.91150800000003,,,230.9115185,None,,,1.9947333999999728,0.1192702999999824,,,,,,,,,,00010,001,2025-11-14_12h10.04.262,MST_task,2024.2.2,60.41452824410386,2025-11-14 17h40.18.766832 +0530,
,Objects\153a.jpg,8,0,8,,,,,,,None,f,0.2389603999999963,None,,,,,,,8,0,8,0,230.92809340000002,,,,,,,,,,,,,,,,,,,,,,,230.9115944,230.92809340000002,231.4115395,,,,,,,,,,,,,,231.44467760000003,,,,,,,,,,231.4345581,231.44467760000003,231.44467760000003,231.44467760000003,234.428046,None,234.428087,234.4446314,234.4446314,234.69483050000002,f,0.2389603999999963,None,,,,,,,,,,,,00010,001,2025-11-14_12h10.04.262,MST_task,2024.2.2,60.41452824410386,2025-11-14 17h40.18.766832 +0530,
,Objects\003a.jpg,9,0,9,,,,,,,j,None,,,1.0217753000000016,0.10959480000002486,,,,,9,0,9,0,234.71134260000002,,,,,,,,,,,,,,,,,,,,,,,234.6948921,234.71134260000002,235.1947182,,,,,,,,,,,,,,235.22794900000002,,,,,,,,,,235.2230209,235.22794900000002,235.22794900000002,235.22794900000002,238.2112308,j,238.21127810000002,,,238.2112884,None,,,1.0217753000000016,0.10959480000002486,,,,,,,,,,00010,001,2025-11-14_12h10.04.262,MST_task,2024.2.2,60.41452824410386,2025-11-14 17h40.18.766832 +0530,
,Objects\147a.jpg,10,0,10,,,,,,,f,None,,,2.204207100000019,0.1300099999999702,,,,,10,0,10,0,238.22789010000002,,,,,,,,,,,,,,,,,,,,,,,238.21134570000004,238.22789010000002,238.7113971,,,,,,,,,,,,,,238.7613354,,,,,,,,,,238.7414131,238.7613354,238.7613354,238.7613354,241.7278538,f,241.72790170000002,,,241.727916,None,,,2.204207100000019,0.1300099999999702,,,,,,,,,,00010,001,2025-11-14_12h10.04.262,MST_task,2024.2.2,60.41452824410386,2025-11-14 17h40.18.766832 +0530,
,Objects\085a.jpg,11,0,11,,,,,,,f,None,,,1.10686579999998,0.14145839999997634,,,,,11,0,11,0,241.74447000000004,,,,,,,,,,,,,,,,,,,,,,,241.727976,241.74447000000004,242.2281438,,,,,,,,,,,,,,242.261104,,,,,,,,,,242.25365370000003,242.261104,242.261104,242.261104,245.2444701,f,245.2445171,,,245.24452690000004,None,,,1.10686579999998,0.14145839999997634,,,,,,,,,,00010,001,2025-11-14_12h10.04.262,MST_task,2024.2.2,60.41452824410386,2025-11-14 17h40.18.766832 +0530,
,Objects\114a.jpg,12,0,12,,,,,,,f,None,,,1.843763499999966,0.12377480000003516,,,,,12,0,12,0,245.2611028,,,,,,,,,,,,,,,,,,,,,,,245.24460720000002,245.2611028,245.7445924,,,,,,,,,,,,,,245.7777026,,,,,,,,,,245.7680547,245.7777026,245.7777026,245.7777026,248.7611347,f,248.7611854,,,248.7611961,None,,,1.843763499999966,0.12377480000003516,,,,,,,,,,00010,001,2025-11-14_12h10.04.262,MST_task,2024.2.2,60.41452824410386,2025-11-14 17h40.18.766832 +0530,
,Objects\002a.jpg,13,0,13,,,,,,,f,None,,,1.4752149000000259,0.09372739999997748,,,,,13,0,13,0,248.7776932,,,,,,,,,,,,,,,,,,,,,,,248.7612525,248.7776932,249.2611063,,,,,,,,,,,,,,249.29434750000001,,,,,,,,,,249.2766001,249.29434750000001,249.29434750000001,249.29434750000001,252.27765020000004,f,252.2776976,,,252.27770759999999,None,,,1.4752149000000259,0.09372739999997748,,,,,,,,,,00010,001,2025-11-14_12h10.04.262,MST_task,2024.2.2,60.41452824410386,2025-11-14 17h40.18.766832 +0530,
,Scenes\101a.jpg,14,0,14,,,,,,,j,None,,,0.9198837999999796,0.1237980999999877,,,,,14,0,14,0,252.2943019,,,,,,,,,,,,,,,,,,,,,,,252.27779780000003,252.2943019,252.77772270000003,,,,,,,,,,,,,,252.82755120000002,,,,,,,,,,252.80747030000003,252.82755120000002,252.82755120000002,252.82755120000002,255.79434100000003,j,255.79438850000003,,,255.79439860000002,None,,,0.9198837999999796,0.1237980999999877,,,,,,,,,,00010,001,2025-11-14_12h10.04.262,MST_task,2024.2.2,60.41452824410386,2025-11-14 17h40.18.766832 +0530,
,Scenes\054a.jpg,15,0,15,,,,,,,j,None,,,0.849563900000021,0.12594469999999092,,,,,15,0,15,0,255.8108383,,,,,,,,,,,,,,,,,,,,,,,255.79445600000003,255.8108383,256.2943548,,,,,,,,,,,,,,256.34414000000004,,,,,,,,,,256.323282,256.34414000000004,256.34414000000004,256.34414000000004,259.3107287,j,259.3107748,,,259.31078520000005,None,,,0.849563900000021,0.12594469999999092,,,,,,,,,,00010,001,2025-11-14_12h10.04.262,MST_task,2024.2.2,60.41452824410386,2025-11-14 17h40.18.766832 +0530,
,Scenes\011a.jpg,16,0,16,,,,,,,f,None,,,1.5561027999999624,0.12444730000004256,,,,,16,0,16,0,259.32731509999996,,,,,,,,,,,,,,,,,,,,,,,259.31085970000004,259.32731509999996,259.81081689999996,,,,,,,,,,,,,,259.86095969999997,,,,,,,,,,259.8453088,259.86095969999997,259.86095969999997,259.86095969999997,262.8273252,f,262.82737080000004,,,262.8273802,None,,,1.5561027999999624,0.12444730000004256,,,,,,,,,,00010,001,2025-11-14_12h10.04.262,MST_task,2024.2.2,60.41452824410386,2025-11-14 17h40.18.766832 +0530,
,Scenes\073a.jpg,17,0,17,,,,,,,j,None,,,0.891488900000013,0.12227529999995568,,,,,17,0,17,0,262.84390040000005,,,,,,,,,,,,,,,,,,,,,,,262.82745539999996,262.84390040000005,263.3274711,,,,,,,,,,,,,,263.377304,,,,,,,,,,263.36062000000004,263.377304,263.377304,263.377304,266.34388609999996,j,266.3439389,,,266.34394940000004,None,,,0.891488900000013,0.12227529999995568,,,,,,,,,,00010,001,2025-11-14_12h10.04.262,MST_task,2024.2.2,60.41452824410386,2025-11-14 17h40.18.766832 +0530,
,Scenes\103a.jpg,18,0,18,,,,,,,f,None,,,2.309374999999932,0.12651430000005348,,,,,18,0,18,0,266.3605188,,,,,,,,,,,,,,,,,,,,,,,266.34402480000006,266.3605188,266.84397650000005,,,,,,,,,,,,,,266.89387020000004,,,,,,,,,,266.87437209999996,266.89387020000004,266.89387020000004,266.89387020000004,269.86048040000003,f,269.86052459999996,,,269.86053519999996,None,,,2.309374999999932,0.12651430000005348,,,,,,,,,,00010,001,2025-11-14_12h10.04.262,MST_task,2024.2.2,60.41452824410386,2025-11-14 17h40.18.766832 +0530,
,Scenes\164a.jpg,19,0,19,,,,,,,f,None,,,1.6650475000000142,0.12596909999990658,,,,,19,0,19,0,269.8771074,,,,,,,,,,,,,,,,,,,,,,,269.8606076,269.8771074,270.3606205,,,,,,,,,,,,,,,,,,,,,,,,270.3878012,270.4104469,270.4104469,270.4104469,273.3770694,f,273.37711580000007,,,273.37712510000006,None,,,1.6650475000000142,0.12596909999990658,,,,,,,,,,00010,001,2025-11-14_12h10.04.262,MST_task,2024.2.2,60.41452824410386,2025-11-14 17h40.18.766832 +0530,
,Scenes\069a.jpg,20,0,20,,,,,,,j,None,,,0.8354144999999562,0.12370659999999134,,,,,20,0,20,0,273.39370299999996,,,,,,,,,,,,,,,,,,,,,,,273.37718400000006,273.39370299999996,273.877203,,,,,,,,,,,,,,273.90997390000007,,,,,,,,,,273.9043259,273.90997390000007,273.90997390000007,273.90997390000007,276.893677,j,276.8937323,,,276.8937426,None,,,0.8354144999999562,0.12370659999999134,,,,,,,,,,00010,001,2025-11-14_12h10.04.262,MST_task,2024.2.2,60.41452824410386,2025-11-14 17h40.18.766832 +0530,
,Objects\185a.jpg,21,0,21,,,,,,,f,None,,,1.0838622999999643,0.10834920000002057,,,,,21,0,21,0,276.9103222,,,,,,,,,,,,,,,,,,,,,,,276.89381649999996,276.9103222,277.3938183,,,,,,,,,,,,,,277.42721730000005,,,,,,,,,,277.41784789999997,277.42721730000005,277.42721730000005,277.42721730000005,280.4102637,f,280.41031,,,280.4103205,None,,,1.0838622999999643,0.10834920000002057,,,,,,,,,,00010,001,2025-11-14_12h10.04.262,MST_task,2024.2.2,60.41452824410386,2025-11-14 17h40.18.766832 +0530,
,Objects\131a.jpg,22,0,22,,,,,,,None,j,0.1575595000000476,None,,,,,,,22,0,22,0,280.42688799999996,,,,,,,,,,,,,,,,,,,,,,,280.4103957,280.42688799999996,280.91035650000003,,,,,,,,,,,,,,280.94351819999997,,,,,,,,,,280.938812,280.94351819999997,280.94351819999997,280.94351819999997,283.9268466,None,283.9268928,283.94348220000006,283.94348220000006,284.11048560000006,j,0.1575595000000476,None,,,,,,,,,,,,00010,001,2025-11-14_12h10.04.262,MST_task,2024.2.2,60.41452824410386,2025-11-14 17h40.18.766832 +0530,
,Objects\106a.jpg,23,0,23,,,,,,,f,None,,,1.5010352000000466,0.1525417999999945,,,,,23,0,23,0,284.12688449999996,,,,,,,,,,,,,,,,,,,,,,,284.1105539,284.12688449999996,284.61046239999996,,,,,,,,,,,,,,284.6601683,,,,,,,,,,284.6451436,284.6601683,284.6601683,284.6601683,287.6268252,f,287.6268761,,,287.62688620000006,None,,,1.5010352000000466,0.1525417999999945,,,,,,,,,,00010,001,2025-11-14_12h10.04.262,MST_task,2024.2.2,60.41452824410386,2025-11-14 17h40.18.766832 +0530,
,Objects\050a.jpg,24,0,24,,,,,,,j,None,,,1.0443788999999697,0.12652449999995952,,,,,24,0,24,0,287.64339530000007,,,,,,,,,,,,,,,,,,,,,,,287.6269615,287.64339530000007,288.12694369999997,,,,,,,,,,,,,,288.17670799999996,,,,,,,,,,288.15751209999996,288.17670799999996,288.17670799999996,288.17670799999996,291.14336249999997,j,291.143406,,,291.143416,None,,,1.0443788999999697,0.12652449999995952,,,,,,,,,,00010,001,2025-11-14_12h10.04.262,MST_task,2024.2.2,60.41452824410386,2025-11-14 17h40.18.766832 +0530,
,Objects\148a.jpg,25,0,25,,,,,,,f,None,,,1.949028300000009,0.13128649999998743,,,,,25,0,25,0,291.1599996,,,,,,,,,,,,,,,,,,,,,,,291.143471,291.1599996,291.6435202,,,,,,,,,,,,,,291.67661699999996,,,,,,,,,,291.66537100000005,291.67661699999996,291.67661699999996,291.67661699999996,294.6600482,f,294.66011119999996,,,294.6601216,None,,,1.949028300000009,0.13128649999998743,,,,,,,,,,00010,001,2025-11-14_12h10.04.262,MST_task,2024.2.2,60.41452824410386,2025-11-14 17h40.18.766832 +0530,
,Objects\041a.jpg,26,0,26,,,,,,,f,None,,,1.5665132000000312,0.12997889999996914,,,,,26,0,26,0,294.67661240000007,,,,,,,,,,,,,,,,,,,,,,,294.66017940000006,294.67661240000007,295.16005240000004,,,,,,,,,,,,,,295.19330890000003,,,,,,,,,,295.184022,295.19330890000003,295.19330890000003,295.19330890000003,298.1766645,f,298.1767194,,,298.1767298,None,,,1.5665132000000312,0.12997889999996914,,,,,,,,,,00010,001,2025-11-14_12h10.04.262,MST_task,2024.2.2,60.41452824410386,2025-11-14 17h40.18.766832 +0530,
,Objects\038a.jpg,27,0,27,,,,,,,f,None,,,1.2429351999999199,0.12430019999999331,,,,,27,0,27,0,298.1931359,,,,,,,,,,,,,,,,,,,,,,,298.1768127,298.1931359,298.67676170000004,,,,,,,,,,,,,,298.70979639999996,,,,,,,,,,298.7039154,298.70979639999996,298.70979639999996,298.70979639999996,301.69327369999996,f,301.6933318,,,301.6933427,None,,,1.2429351999999199,0.12430019999999331,,,,,,,,,,00010,001,2025-11-14_12h10.04.262,MST_task,2024.2.2,60.41452824410386,2025-11-14 17h40.18.766832 +0530,
,Scenes\138a.jpg,28,0,28,,,,,,,j,None,,,0.9338366999999153,0.11042750000001433,,,,,28,0,28,0,301.70976340000004,,,,,,,,,,,,,,,,,,,,,,,301.69343119999996,301.70976340000004,302.1932415,,,,,,,,,,,,,,302.24307810000005,,,,,,,,,,302.2220846,302.24307810000005,302.24307810000005,302.24307810000005,305.2096868,j,305.2097311,,,305.209741,None,,,0.9338366999999153,0.11042750000001433,,,,,,,,,,00010,001,2025-11-14_12h10.04.262,MST_task,2024.2.2,60.41452824410386,2025-11-14 17h40.18.766832 +0530,
,Scenes\122a.jpg,29,0,29,,,,,,,f,None,,,1.1473933999999417,0.13862779999999475,,,,,29,0,29,0,305.22635620000005,,,,,,,,,,,,,,,,,,,,,,,305.20981930000005,305.22635620000005,305.70986389999996,,,,,,,,,,,,,,305.75964550000003,,,,,,,,,,305.74490920000005,305.75964550000003,305.75964550000003,305.75964550000003,308.7263216,f,308.72636539999996,,,308.7263753,None,,,1.1473933999999417,0.13862779999999475,,,,,,,,,,00010,001,2025-11-14_12h10.04.262,MST_task,2024.2.2,60.41452824410386,2025-11-14 17h40.18.766832 +0530,
,Scenes\190a.jpg,30,0,30,,,,,,,j,None,,,0.6495583000000806,0.15973369999994702,,,,,30,0,30,0,308.74297490000004,,,,,,,,,,,,,,,,,,,,,,,308.72644980000007,308.74297490000004,309.226493,,,,,,,,,,,,,,309.25956970000004,,,,,,,,,,309.2463405,309.25956970000004,309.25956970000004,309.25956970000004,312.2430379,j,312.24308730000007,,,312.24309830000004,None,,,0.6495583000000806,0.15973369999994702,,,,,,,,,,00010,001,2025-11-14_12h10.04.262,MST_task,2024.2.2,60.41452824410386,2025-11-14 17h40.18.766832 +0530,
,Scenes\018a.jpg,31,0,31,,,,,,,j,None,,,2.3374809999999115,0.12190250000003289,,,,,31,0,31,0,312.25953990000005,,,,,,,,,,,,,,,,,,,,,,,312.2431554,312.25953990000005,312.7431894,,,,,,,,,,,,,,312.7761677,,,,,,,,,,312.7618874,312.7761677,312.7761677,312.7761677,315.7594587,j,315.7595163,,,315.75952659999996,None,,,2.3374809999999115,0.12190250000003289,,,,,,,,,,00010,001,2025-11-14_12h10.04.262,MST_task,2024.2.2,60.41452824410386,2025-11-14 17h40.18.766832 +0530,
,Scenes\075a.jpg,32,0,32,,,,,,,j,None,,,0.8756732000000511,0.13361559999998462,,,,,32,0,32,0,315.77612669999996,,,,,,,,,,,,,,,,,,,,,,,315.7595811,315.77612669999996,316.2597095,,,,,,,,,,,,,,316.30957450000005,,,,,,,,,,316.29237009999997,316.30957450000005,316.30957450000005,316.30957450000005,319.27614460000007,j,319.27618900000004,,,319.2761987,None,,,0.8756732000000511,0.13361559999998462,,,,,,,,,,00010,001,2025-11-14_12h10.04.262,MST_task,2024.2.2,60.41452824410386,2025-11-14 17h40.18.766832 +0530,
,Scenes\158a.jpg,33,0,33,,,,,,,j,None,,,1.6887702000000218,0.15858649999995578,,,,,33,0,33,0,319.29286049999996,,,,,,,,,,,,,,,,,,,,,,,319.2762867,319.29286049999996,319.77626040000007,,,,,,,,,,,,,,319.8261635,,,,,,,,,,319.8082782,319.8261635,319.8261635,319.8261635,322.79276830000003,j,322.79281090000006,,,322.7928214,None,,,1.6887702000000218,0.15858649999995578,,,,,,,,,,00010,001,2025-11-14_12h10.04.262,MST_task,2024.2.2,60.41452824410386,2025-11-14 17h40.18.766832 +0530,
,Scenes\079a.jpg,34,0,34,,,,,,,j,None,,,0.8861306000000013,0.14612829999998667,,,,,34,0,34,0,322.8093944,,,,,,,,,,,,,,,,,,,,,,,322.7928779,322.8093944,323.2928955,,,,,,,,,,,,,,323.3429212,,,,,,,,,,323.32259970000007,323.3429212,323.3429212,323.3429212,326.3093387,j,326.30938119999996,,,326.3093916,None,,,0.8861306000000013,0.14612829999998667,,,,,,,,,,00010,001,2025-11-14_12h10.04.262,MST_task,2024.2.2,60.41452824410386,2025-11-14 17h40.18.766832 +0530,
,Objects\172a.jpg,35,0,35,,,,,,,j,None,,,1.36491860000001,0.1231907000000092,,,,,35,0,35,0,326.3260136,,,,,,,,,,,,,,,,,,,,,,,326.3094628,326.3260136,326.8094416,,,,,,,,,,,,,,326.842852,,,,,,,,,,326.83269759999996,326.842852,326.842852,326.842852,329.82598770000004,j,329.8260298,,,329.8260398,None,,,1.36491860000001,0.1231907000000092,,,,,,,,,,00010,001,2025-11-14_12h10.04.262,MST_task,2024.2.2,60.41452824410386,2025-11-14 17h40.18.766832 +0530,
,Objects\016a.jpg,36,0,36,,,,,,,f,None,,,0.9725570000000516,0.17336909999994532,,,,,36,0,36,0,329.8425585,,,,,,,,,,,,,,,,,,,,,,,329.82611140000006,329.8425585,330.32618,,,,,,,,,,,,,,330.35920880000003,,,,,,,,,,330.35316090000003,330.35920880000003,330.35920880000003,330.35920880000003,333.34258880000004,f,333.3426376,,,333.34264730000007,None,,,0.9725570000000516,0.17336909999994532,,,,,,,,,,00010,001,2025-11-14_12h10.04.262,MST_task,2024.2.2,60.41452824410386,2025-11-14 17h40.18.766832 +0530,
,Objects\024a.jpg,37,0,37,,,,,,,f,None,,,0.9096164999999701,0.1348229000000174,,,,,37,0,37,0,333.35914490000005,,,,,,,,,,,,,,,,,,,,,,,333.3427196,333.35914490000005,333.84271250000006,,,,,,,,,,,,,,333.8759049,,,,,,,,,,333.8641443,333.8759049,333.8759049,333.8759049,336.85911540000006,f,336.85917760000007,,,336.8591881,None,,,0.9096164999999701,0.1348229000000174,,,,,,,,,,00010,001,2025-11-14_12h10.04.262,MST_task,2024.2.2,60.41452824410386,2025-11-14 17h40.18.766832 +0530,
,Objects\118a.jpg,38,0,38,,,,,,,f,None,,,1.8749257999999145,0.15841580000005706,,,,,38,0,38,0,336.87580760000003,,,,,,,,,,,,,,,,,,,,,,,336.8592684,336.87580760000003,337.35929239999996,,,,,,,,,,,,,,337.39234080000006,,,,,,,,,,337.388021,337.39234080000006,337.39234080000006,337.39234080000006,340.3756863,f,340.3757333,,,340.3757597,None,,,1.8749257999999145,0.15841580000005706,,,,,,,,,,00010,001,2025-11-14_12h10.04.262,MST_task,2024.2.2,60.41452824410386,2025-11-14 17h40.18.766832 +0530,
,Objects\168a.jpg,39,0,39,,,,,,,None,j,0.6445531000000528,None,,,,,,,39,0,39,0,340.39240540000003,,,,,,,,,,,,,,,,,,,,,,,340.37582080000004,340.39240540000003,340.8758407,,,,,,,,,,,,,,340.9088508,,,,,,,,,,340.9051849,340.9088508,340.9088508,340.9088508,343.8923476,None,343.89239269999996,343.90897259999997,343.90897259999997,344.5593926,j,0.6445531000000528,None,,,,,,,,,,,,00010,001,2025-11-14_12h10.04.262,MST_task,2024.2.2,60.41452824410386,2025-11-14 17h40.18.766832 +0530,
,Objects\056a.jpg,40,0,40,,,,,,,f,None,,,2.7211145999999644,0.15017310000007456,,,,,40,0,40,0,344.57557380000003,,,,,,,,,,,,,,,,,,,,,,,344.5595257,344.57557380000003,345.05909470000006,,,,,,,,,,,,,,345.09222710000006,,,,,,,,,,345.08652370000004,345.09222710000006,345.09222710000006,345.09222710000006,348.0755186,f,348.0755659,,,348.0755762,None,,,2.7211145999999644,0.15017310000007456,,,,,,,,,,00010,001,2025-11-14_12h10.04.262,MST_task,2024.2.2,60.41452824410386,2025-11-14 17h40.18.766832 +0530,
,Objects\097a.jpg,41,0,41,,,,,,,j,None,,,0.7867218000000094,0.16589699999997265,,,,,41,0,41,0,348.09224270000004,,,,,,,,,,,,,,,,,,,,,,,348.0756311,348.09224270000004,348.57562540000004,,,,,,,,,,,,,,348.60879840000007,,,,,,,,,,348.6041351,348.60879840000007,348.60879840000007,348.60879840000007,351.5921214,j,351.5923104,,,351.59232800000007,None,,,0.7867218000000094,0.16589699999997265,,,,,,,,,,00010,001,2025-11-14_12h10.04.262,MST_task,2024.2.2,60.41452824410386,2025-11-14 17h40.18.766832 +0530,
,Scenes\055a.jpg,42,0,42,,,,,,,j,None,,,1.297311200000081,0.16002470000000812,,,,,42,0,42,0,351.60882230000004,,,,,,,,,,,,,,,,,,,,,,,351.59239049999996,351.60882230000004,352.09227899999996,,,,,,,,,,,,,,352.1423601,,,,,,,,,,352.1230481,352.1423601,352.1423601,352.1423601,355.10870220000004,j,355.1087507,,,355.1087608,None,,,1.297311200000081,0.16002470000000812,,,,,,,,,,00010,001,2025-11-14_12h10.04.262,MST_task,2024.2.2,60.41452824410386,2025-11-14 17h40.18.766832 +0530,
,Scenes\002a.jpg,43,0,43,,,,,,,j,None,,,0.8463406000000759,0.18287179999992986,,,,,43,0,43,0,355.12537010000005,,,,,,,,,,,,,,,,,,,,,,,355.10881900000004,355.12537010000005,355.60879050000005,,,,,,,,,,,,,,,,,,,,,,,,355.6447365,355.65885520000006,355.65885520000006,355.65885520000006,358.6253534,j,358.6254,,,358.62540920000004,None,,,0.8463406000000759,0.18287179999992986,,,,,,,,,,00010,001,2025-11-14_12h10.04.262,MST_task,2024.2.2,60.41452824410386,2025-11-14 17h40.18.766832 +0530,
,Scenes\015a.jpg,44,0,44,,,,,,,j,None,,,1.7759708999999475,0.19378400000005058,,,,,44,0,44,0,358.64204340000003,,,,,,,,,,,,,,,,,,,,,,,358.6254847,358.64204340000003,359.12540379999996,,,,,,,,,,,,,,359.17556179999997,,,,,,,,,,359.15455399999996,359.17556179999997,359.17556179999997,359.17556179999997,362.1418996,j,362.14194970000005,,,362.14195960000006,None,,,1.7759708999999475,0.19378400000005058,,,,,,,,,,00010,001,2025-11-14_12h10.04.262,MST_task,2024.2.2,60.41452824410386,2025-11-14 17h40.18.766832 +0530,
,Scenes\009a.jpg,45,0,45,,,,,,,f,None,,,0.994236399999977,0.18934470000010606,,,,,45,0,45,0,362.1585446,,,,,,,,,,,,,,,,,,,,,,,362.1420343,362.1585446,362.642013,,,,,,,,,,,,,,,,,,,,,,,,362.67848230000004,362.69211310000003,362.69211310000003,362.69211310000003,365.65847859999997,f,365.6585255,,,365.6585344,None,,,0.994236399999977,0.18934470000010606,,,,,,,,,,00010,001,2025-11-14_12h10.04.262,MST_task,2024.2.2,60.41452824410386,2025-11-14 17h40.18.766832 +0530,
,Scenes\166a.jpg,46,0,46,,,,,,,j,None,,,0.6113126999999849,0.17395999999996548,,,,,46,0,46,0,365.67514170000004,,,,,,,,,,,,,,,,,,,,,,,365.6585904,365.67514170000004,366.1587016,,,,,,,,,,,,,,366.1919564,,,,,,,,,,366.1853141,366.1919564,366.1919564,366.1919564,369.17507320000004,j,369.1751166,,,369.17512680000004,None,,,0.6113126999999849,0.17395999999996548,,,,,,,,,,00010,001,2025-11-14_12h10.04.262,MST_task,2024.2.2,60.41452824410386,2025-11-14 17h40.18.766832 +0530,
,Scenes\097a.jpg,47,0,47,,,,,,,f,None,,,0.8425508000000264,0.18643199999996796,,,,,47,0,47,0,369.19176419999997,,,,,,,,,,,,,,,,,,,,,,,369.175198,369.19176419999997,369.67520790000003,,,,,,,,,,,,,,369.7085744,,,,,,,,,,369.69919649999997,369.7085744,369.7085744,369.7085744,372.6916602,f,372.6917085,,,372.6917187,None,,,0.8425508000000264,0.18643199999996796,,,,,,,,,,00010,001,2025-11-14_12h10.04.262,MST_task,2024.2.2,60.41452824410386,2025-11-14 17h40.18.766832 +0530,
,Scenes\189a.jpg,48,0,48,,,,,,,j,None,,,0.7329581999999846,0.17113319999998566,,,,,48,0,48,0,372.70830290000004,,,,,,,,,,,,,,,,,,,,,,,372.69179099999997,372.70830290000004,373.1918154,,,,,,,,,,,,,,373.2416203,,,,,,,,,,373.2258723,373.2416203,373.2416203,373.2416203,376.2082818,j,376.2083279,,,376.2083384,None,,,0.7329581999999846,0.17113319999998566,,,,,,,,,,00010,001,2025-11-14_12h10.04.262,MST_task,2024.2.2,60.41452824410386,2025-11-14 17h40.18.766832 +0530,
,Objects\069a.jpg,49,0,49,,,,,,,j,None,,,1.2214672000000064,0.1419224999999642,,,,,49,0,49,0,376.22489270000005,,,,,,,,,,,,,,,,,,,,,,,376.20839390000003,376.22489270000005,376.7083831,,,,,,,,,,,,,,376.7416942,,,,,,,,,,376.72981590000006,376.7416942,376.7416942,376.7416942,379.72478350000006,j,379.7248297,,,379.7248403,None,,,1.2214672000000064,0.1419224999999642,,,,,,,,,,00010,001,2025-11-14_12h10.04.262,MST_task,2024.2.2,60.41452824410386,2025-11-14 17h40.18.766832 +0530,
,Objects\144a.jpg,50,0,50,,,,,,,f,None,,,1.1531731999999693,0.17796980000002804,,,,,50,0,50,0,379.74141380000003,,,,,,,,,,,,,,,,,,,,,,,379.72491379999997,379.74141380000003,380.22485230000007,,,,,,,,,,,,,,380.25807580000003,,,,,,,,,,380.2531716,380.25807580000003,380.25807580000003,380.25807580000003,383.2414583,f,383.2415052,,,383.2415158,None,,,1.1531731999999693,0.17796980000002804,,,,,,,,,,00010,001,2025-11-14_12h10.04.262,MST_task,2024.2.2,60.41452824410386,2025-11-14 17h40.18.766832 +0530,
,Objects\112a.jpg,51,0,51,,,,,,,f,None,,,1.8163543000000573,0.1416482999999289,,,,,51,0,51,0,383.25800920000006,,,,,,,,,,,,,,,,,,,,,,,383.24159310000005,383.25800920000006,383.74154980000003,,,,,,,,,,,,,,383.7913086,,,,,,,,,,383.7743121,383.7913086,383.7913086,383.7913086,386.7580564,f,386.75810409999997,,,386.7581149,None,,,1.8163543000000573,0.1416482999999289,,,,,,,,,,00010,001,2025-11-14_12h10.04.262,MST_task,2024.2.2,60.41452824410386,2025-11-14 17h40.18.766832 +0530,
,Objects\055a.jpg,52,0,52,,,,,,,f,None,,,1.653094900000042,0.14665389999993295,,,,,52,0,52,0,386.7745975,,,,,,,,,,,,,,,,,,,,,,,386.7581765,386.7745975,387.2581966,,,,,,,,,,,,,,387.3079083,,,,,,,,,,387.2941875,387.3079083,387.3079083,387.3079083,390.2745463,f,390.27459010000007,,,390.2745999,None,,,1.653094900000042,0.14665389999993295,,,,,,,,,,00010,001,2025-11-14_12h10.04.262,MST_task,2024.2.2,60.41452824410386,2025-11-14 17h40.18.766832 +0530,
,Objects\129a.jpg,53,0,53,,,,,,,j,None,,,1.6470538999999462,0.1696210999999721,,,,,53,0,53,0,390.29118260000007,,,,,,,,,,,,,,,,,,,,,,,390.2746604,390.29118260000007,390.77471190000006,,,,,,,,,,,,,,390.824524,,,,,,,,,,390.8053502,390.824524,390.824524,390.824524,393.7911471,j,393.79119349999996,,,393.7912043,None,,,1.6470538999999462,0.1696210999999721,,,,,,,,,,00010,001,2025-11-14_12h10.04.262,MST_task,2024.2.2,60.41452824410386,2025-11-14 17h40.18.766832 +0530,
,Objects\051a.jpg,54,0,54,,,,,,,j,None,,,1.8006840999998985,0.15447410000001582,,,,,54,0,54,0,393.80777969999997,,,,,,,,,,,,,,,,,,,,,,,393.7912818,393.80777969999997,394.29138420000004,,,,,,,,,,,,,,394.3244023,,,,,,,,,,394.3186412,394.3244023,394.3244023,394.3244023,397.3077343,j,397.3077952,,,397.3078051,None,,,1.8006840999998985,0.15447410000001582,,,,,,,,,,00010,001,2025-11-14_12h10.04.262,MST_task,2024.2.2,60.41452824410386,2025-11-14 17h40.18.766832 +0530,
,Objects\045a.jpg,55,0,55,,,,,,,f,None,,,1.5091307000000143,0.19061950000002525,,,,,55,0,55,0,397.3243725,,,,,,,,,,,,,,,,,,,,,,,397.3078624,397.3243725,397.80789630000004,,,,,,,,,,,,,,397.84103319999997,,,,,,,,,,397.8236813,397.84103319999997,397.84103319999997,397.84103319999997,400.82433360000005,f,400.82438609999997,,,400.82439680000005,None,,,1.5091307000000143,0.19061950000002525,,,,,,,,,,00010,001,2025-11-14_12h10.04.262,MST_task,2024.2.2,60.41452824410386,2025-11-14 17h40.18.766832 +0530,
,Scenes\081a.jpg,56,0,56,,,,,,,j,None,,,0.9525858000000653,0.1481456999999864,,,,,56,0,56,0,400.8409898,,,,,,,,,,,,,,,,,,,,,,,400.8244698,400.8409898,401.32451750000007,,,,,,,,,,,,,,401.37424710000005,,,,,,,,,,401.35519380000005,401.37424710000005,401.37424710000005,401.37424710000005,404.34088380000003,j,404.3409305,,,404.34094060000007,None,,,0.9525858000000653,0.1481456999999864,,,,,,,,,,00010,001,2025-11-14_12h10.04.262,MST_task,2024.2.2,60.41452824410386,2025-11-14 17h40.18.766832 +0530,
,Scenes\038a.jpg,57,0,57,,,,,,,j,None,,,1.646511099999998,0.1678826999999501,,,,,57,0,57,0,404.3575158,,,,,,,,,,,,,,,,,,,,,,,404.3410149,404.3575158,404.84102010000004,,,,,,,,,,,,,,404.8911508,,,,,,,,,,404.87106300000005,404.8911508,404.8911508,404.8911508,407.8575134,j,407.85755830000005,,,407.85756849999996,None,,,1.646511099999998,0.1678826999999501,,,,,,,,,,00010,001,2025-11-14_12h10.04.262,MST_task,2024.2.2,60.41452824410386,2025-11-14 17h40.18.766832 +0530,
,Scenes\107a.jpg,58,0,58,,,,,,,j,None,,,0.6547867000000451,0.15330500000004577,,,,,58,0,58,0,407.87415310000006,,,,,,,,,,,,,,,,,,,,,,,407.85766309999997,407.87415310000006,408.3576269,,,,,,,,,,,,,,408.39076539999996,,,,,,,,,,408.3840156,408.39076539999996,408.39076539999996,408.39076539999996,411.3742042,j,411.37425270000006,,,411.3742632,None,,,0.6547867000000451,0.15330500000004577,,,,,,,,,,00010,001,2025-11-14_12h10.04.262,MST_task,2024.2.2,60.41452824410386,2025-11-14 17h40.18.766832 +0530,
,Scenes\187a.jpg,59,0,59,,,,,,,j,None,,,0.9033924999999954,0.13775139999995645,,,,,59,0,59,0,411.39073600000006,,,,,,,,,,,,,,,,,,,,,,,411.37432780000006,411.39073600000006,411.87438169999996,,,,,,,,,,,,,,411.92403580000007,,,,,,,,,,411.9050215,411.92403580000007,411.92403580000007,411.92403580000007,414.89065289999996,j,414.8906975,,,414.89070849999996,None,,,0.9033924999999954,0.13775139999995645,,,,,,,,,,00010,001,2025-11-14_12h10.04.262,MST_task,2024.2.2,60.41452824410386,2025-11-14 17h40.18.766832 +0530,
,Scenes\153a.jpg,60,0,60,,,,,,,j,None,,,0.9288820000000442,0.11158699999998589,,,,,60,0,60,0,414.90732790000004,,,,,,,,,,,,,,,,,,,,,,,414.8907647,414.90732790000004,415.39075379999997,,,,,,,,,,,,,,,,,,,,,,,,415.41917980000005,415.44065120000005,415.44065120000005,415.44065120000005,418.4073955,j,418.40744540000003,,,418.40745490000006,None,,,0.9288820000000442,0.11158699999998589,,,,,,,,,,00010,001,2025-11-14_12h10.04.262,MST_task,2024.2.2,60.41452824410386,2025-11-14 17h40.18.766832 +0530,
,Scenes\021a.jpg,61,0,61,,,,,,,j,None,,,1.3807389999999486,0.14097000000003845,,,,,61,0,61,0,418.423909,,,,,,,,,,,,,,,,,,,,,,,418.4075349,418.423909,418.9075081,,,,,,,,,,,,,,418.9405888,,,,,,,,,,418.93237110000007,418.9405888,418.9405888,418.9405888,421.92397460000007,j,421.92402119999997,,,421.9240317,None,,,1.3807389999999486,0.14097000000003845,,,,,,,,,,00010,001,2025-11-14_12h10.04.262,MST_task,2024.2.2,60.41452824410386,2025-11-14 17h40.18.766832 +0530,
,Scenes\034a.jpg,62,0,62,,,,,,,f,None,,,1.7514109999999619,0.2100302000000056,,,,,62,0,62,0,421.9405077,,,,,,,,,,,,,,,,,,,,,,,421.92408739999996,421.9405077,422.42398950000006,,,,,,,,,,,,,,422.47407150000004,,,,,,,,,,422.4639439,422.47407150000004,422.47407150000004,422.47407150000004,425.44043869999996,f,425.44048380000004,,,425.4404945,None,,,1.7514109999999619,0.2100302000000056,,,,,,,,,,00010,001,2025-11-14_12h10.04.262,MST_task,2024.2.2,60.41452824410386,2025-11-14 17h40.18.766832 +0530,
,Objects\139a.jpg,63,0,63,,,,,,,f,None,,,0.8598077999999987,0.17717319999997017,,,,,63,0,63,0,425.45709569999997,,,,,,,,,,,,,,,,,,,,,,,425.4405693,425.45709569999997,425.9405749,,,,,,,,,,,,,,,,,,,,,,,,425.97017189999997,425.9906545,425.9906545,425.9906545,428.9571909,f,428.9572375,,,428.9572468,None,,,0.8598077999999987,0.17717319999997017,,,,,,,,,,00010,001,2025-11-14_12h10.04.262,MST_task,2024.2.2,60.41452824410386,2025-11-14 17h40.18.766832 +0530,
,Objects\030a.jpg,64,0,64,,,,,,,f,None,,,1.2545604000000594,0.13654369999994742,,,,,64,0,64,0,428.9736808,,,,,,,,,,,,,,,,,,,,,,,428.95730449999996,428.9736808,429.457135,,,,,,,,,,,,,,429.4903392,,,,,,,,,,429.48142240000004,429.4903392,429.4903392,429.4903392,432.47368600000004,f,432.47373600000003,,,432.47374609999997,None,,,1.2545604000000594,0.13654369999994742,,,,,,,,,,00010,001,2025-11-14_12h10.04.262,MST_task,2024.2.2,60.41452824410386,2025-11-14 17h40.18.766832 +0530,
,Objects\028a.jpg,65,0,65,,,,,,,f,None,,,0.7973398999999972,0.145370699999944,,,,,65,0,65,0,432.506941,,,,,,,,,,,,,,,,,,,,,,,432.47382100000004,432.506941,432.9904302,,,,,,,,,,,,,,,,,,,,,,,,433.0065631,433.0235669,433.0235669,433.0235669,435.9902415,f,435.9902886,,,435.9902979,None,,,0.7973398999999972,0.145370699999944,,,,,,,,,,00010,001,2025-11-14_12h10.04.262,MST_task,2024.2.2,60.41452824410386,2025-11-14 17h40.18.766832 +0530,
,Objects\120a.jpg,66,0,66,,,,,,,f,None,,,1.522191399999997,0.16983029999994415,,,,,66,0,66,0,436.0068364,,,,,,,,,,,,,,,,,,,,,,,435.990375,436.0068364,436.4904739,,,,,,,,,,,,,,436.5235099,,,,,,,,,,436.51332249999996,436.5235099,436.5235099,436.5235099,439.5068503,f,439.5068962,,,439.50690740000005,None,,,1.522191399999997,0.16983029999994415,,,,,,,,,,00010,001,2025-11-14_12h10.04.262,MST_task,2024.2.2,60.41452824410386,2025-11-14 17h40.18.766832 +0530,
,Objects\137a.jpg,67,0,67,,,,,,,f,None,,,1.5913232000000335,0.15329889999998159,,,,,67,0,67,0,439.52344400000004,,,,,,,,,,,,,,,,,,,,,,,439.50696489999996,439.52344400000004,440.0069396,,,,,,,,,,,,,,440.0401018,,,,,,,,,,440.02363019999996,440.0401018,440.0401018,440.0401018,443.0234038,f,443.023452,,,443.02346209999996,None,,,1.5913232000000335,0.15329889999998159,,,,,,,,,,00010,001,2025-11-14_12h10.04.262,MST_task,2024.2.2,60.41452824410386,2025-11-14 17h40.18.766832 +0530,
,Objects\013a.jpg,68,0,68,,,,,,,j,None,,,1.4562080999999125,0.1762128999999959,,,,,68,0,68,0,443.0400554,,,,,,,,,,,,,,,,,,,,,,,443.0235248,443.0400554,443.52351840000006,,,,,,,,,,,,,,443.5734479,,,,,,,,,,443.5551686,443.5734479,443.5734479,443.5734479,446.54007390000004,j,446.5401197,,,446.54013,None,,,1.4562080999999125,0.1762128999999959,,,,,,,,,,00010,001,2025-11-14_12h10.04.262,MST_task,2024.2.2,60.41452824410386,2025-11-14 17h40.18.766832 +0530,
,Objects\084a.jpg,69,0,69,,,,,,,f,None,,,1.3992841000000453,0.14581629999997858,,,,,69,0,69,0,446.55680889999996,,,,,,,,,,,,,,,,,,,,,,,446.54018670000005,446.55680889999996,447.0401498,,,,,,,,,,,,,,447.09010780000006,,,,,,,,,,447.06990989999997,447.09010780000006,447.09010780000006,447.09010780000006,450.0567231,f,450.0567684,,,450.0567783,None,,,1.3992841000000453,0.14581629999997858,,,,,,,,,,00010,001,2025-11-14_12h10.04.262,MST_task,2024.2.2,60.41452824410386,2025-11-14 17h40.18.766832 +0530,
,Scenes\114a.jpg,70,0,70,,,,,,,f,None,,,0.8260681000000432,0.14401389999989078,,,,,70,0,70,0,450.0733716,,,,,,,,,,,,,,,,,,,,,,,450.0568561,450.0733716,450.55682609999997,,,,,,,,,,,,,,450.60690410000007,,,,,,,,,,450.5936897,450.60690410000007,450.60690410000007,450.60690410000007,453.57328600000005,f,453.57332930000007,,,453.57334430000003,None,,,0.8260681000000432,0.14401389999989078,,,,,,,,,,00010,001,2025-11-14_12h10.04.262,MST_task,2024.2.2,60.41452824410386,2025-11-14 17h40.18.766832 +0530,
,Scenes\096a.jpg,71,0,71,,,,,,,j,None,,,2.3632325999999466,0.15174020000006294,,,,,71,0,71,0,453.58991100000003,,,,,,,,,,,,,,,,,,,,,,,453.57342860000006,453.58991100000003,454.0733964,,,,,,,,,,,,,,454.12411810000003,,,,,,,,,,454.1041298,454.12411810000003,454.12411810000003,454.12411810000003,457.0899021,j,457.08994459999997,,,457.0899547,None,,,2.3632325999999466,0.15174020000006294,,,,,,,,,,00010,001,2025-11-14_12h10.04.262,MST_task,2024.2.2,60.41452824410386,2025-11-14 17h40.18.766832 +0530,
,Scenes\167a.jpg,72,0,72,,,,,,,f,None,,,0.7291477999999643,0.17807519999996657,,,,,72,0,72,0,457.1065409,,,,,,,,,,,,,,,,,,,,,,,457.0900322,457.1065409,457.5900288,,,,,,,,,,,,,,457.64011089999997,,,,,,,,,,457.62385000000006,457.64011089999997,457.64011089999997,457.64011089999997,460.6064417,f,460.60651140000004,,,460.6065274,None,,,0.7291477999999643,0.17807519999996657,,,,,,,,,,00010,001,2025-11-14_12h10.04.262,MST_task,2024.2.2,60.41452824410386,2025-11-14 17h40.18.766832 +0530,
,Scenes\074a.jpg,73,0,73,,,,,,,j,None,,,0.7171736999999894,0.13972520000004351,,,,,73,0,73,0,460.62322100000006,,,,,,,,,,,,,,,,,,,,,,,460.6066184,460.62322100000006,461.10657960000003,,,,,,,,,,,,,,461.14007530000003,,,,,,,,,,461.123645,461.14007530000003,461.14007530000003,461.14007530000003,464.12309189999996,j,464.12316780000003,,,464.12318360000006,None,,,0.7171736999999894,0.13972520000004351,,,,,,,,,,00010,001,2025-11-14_12h10.04.262,MST_task,2024.2.2,60.41452824410386,2025-11-14 17h40.18.766832 +0530,
,Scenes\176a.jpg,74,0,74,,,,,,,j,None,,,0.7643796999999495,0.17797920000009526,,,,,74,0,74,0,464.1396807,,,,,,,,,,,,,,,,,,,,,,,464.12327230000005,464.1396807,464.6233155,,,,,,,,,,,,,,464.6563721,,,,,,,,,,464.6471589,464.6563721,464.6563721,464.6563721,467.63968380000006,j,467.6397264,,,467.6397369,None,,,0.7643796999999495,0.17797920000009526,,,,,,,,,,00010,001,2025-11-14_12h10.04.262,MST_task,2024.2.2,60.41452824410386,2025-11-14 17h40.18.766832 +0530,
,Scenes\024a.jpg,75,0,75,,,,,,,j,None,,,0.6473766999999953,0.19042549999994662,,,,,75,0,75,0,467.656249,,,,,,,,,,,,,,,,,,,,,,,467.6397954,467.656249,468.1397968,,,,,,,,,,,,,,468.18959400000006,,,,,,,,,,468.17038460000003,468.18959400000006,468.18959400000006,468.18959400000006,471.15622870000004,j,471.1562718,,,471.15628200000003,None,,,0.6473766999999953,0.19042549999994662,,,,,,,,,,00010,001,2025-11-14_12h10.04.262,MST_task,2024.2.2,60.41452824410386,2025-11-14 17h40.18.766832 +0530,
,Scenes\139a.jpg,76,0,76,,,,,,,j,None,,,0.7827691999999615,0.16232620000005227,,,,,76,0,76,0,471.17284800000004,,,,,,,,,,,,,,,,,,,,,,,471.15635410000004,471.17284800000004,471.65634190000003,,,,,,,,,,,,,,471.7064071,,,,,,,,,,471.68425890000003,471.7064071,471.7064071,471.7064071,474.67279740000004,j,474.6728385,,,474.6728484,None,,,0.7827691999999615,0.16232620000005227,,,,,,,,,,00010,001,2025-11-14_12h10.04.262,MST_task,2024.2.2,60.41452824410386,2025-11-14 17h40.18.766832 +0530,
,Objects\039a.jpg,77,0,77,,,,,,,j,None,,,1.8287357999998903,0.16848560000005364,,,,,77,0,77,0,474.68945859999997,,,,,,,,,,,,,,,,,,,,,,,474.6729202,474.68945859999997,475.1728978,,,,,,,,,,,,,,475.206321,,,,,,,,,,475.18821330000003,475.206321,475.206321,475.206321,478.1893989,j,478.18944439999996,,,478.18945410000003,None,,,1.8287357999998903,0.16848560000005364,,,,,,,,,,00010,001,2025-11-14_12h10.04.262,MST_task,2024.2.2,60.41452824410386,2025-11-14 17h40.18.766832 +0530,
,Objects\086a.jpg,78,0,78,,,,,,,f,None,,,1.2766922000000704,0.2055660999999418,,,,,78,0,78,0,478.2060491,,,,,,,,,,,,,,,,,,,,,,,478.189527,478.2060491,478.6895233,,,,,,,,,,,,,,478.72273440000004,,,,,,,,,,478.71454900000003,478.72273440000004,478.72273440000004,478.72273440000004,481.70621200000005,f,481.70625670000004,,,481.70626660000005,None,,,1.2766922000000704,0.2055660999999418,,,,,,,,,,00010,001,2025-11-14_12h10.04.262,MST_task,2024.2.2,60.41452824410386,2025-11-14 17h40.18.766832 +0530,
,Objects\167a.jpg,79,0,79,,,,,,,f,None,,,0.9692270000000462,0.16535209999995004,,,,,79,0,79,0,481.72258669999997,,,,,,,,,,,,,,,,,,,,,,,481.7063379,481.72258669999997,482.2061095,,,,,,,,,,,,,,482.23927019999996,,,,,,,,,,482.2320013,482.23927019999996,482.23927019999996,482.23927019999996,485.22264140000004,f,485.2226856,,,485.2226958,None,,,0.9692270000000462,0.16535209999995004,,,,,,,,,,00010,001,2025-11-14_12h10.04.262,MST_task,2024.2.2,60.41452824410386,2025-11-14 17h40.18.766832 +0530,
,Objects\054a.jpg,80,0,80,,,,,,,f,None,,,0.6317592999999988,0.16544149999992896,,,,,80,0,80,0,485.23926689999996,,,,,,,,,,,,,,,,,,,,,,,485.22275320000006,485.23926689999996,485.72268210000004,,,,,,,,,,,,,,485.75585350000006,,,,,,,,,,485.74347320000004,485.75585350000006,485.75585350000006,485.75585350000006,488.7391805,f,488.73922760000005,,,488.7392373,None,,,0.6317592999999988,0.16544149999992896,,,,,,,,,,00010,001,2025-11-14_12h10.04.262,MST_task,2024.2.2,60.41452824410386,2025-11-14 17h40.18.766832 +0530,
,Objects\188a.jpg,81,0,81,,,,,,,f,None,,,2.006685100000027,0.138045199999965,,,,,81,0,81,0,488.75581520000003,,,,,,,,,,,,,,,,,,,,,,,488.7393125,488.75581520000003,489.2392622,,,,,,,,,,,,,,489.27247009999996,,,,,,,,,,489.26649370000007,489.27247009999996,489.27247009999996,489.27247009999996,492.25576179999996,f,492.255807,,,492.25581780000005,None,,,2.006685100000027,0.138045199999965,,,,,,,,,,00010,001,2025-11-14_12h10.04.262,MST_task,2024.2.2,60.41452824410386,2025-11-14 17h40.18.766832 +0530,
,Objects\040a.jpg,82,0,82,,,,,,,f,None,,,1.0525449000000435,0.16198740000004364,,,,,82,0,82,0,492.2724088,,,,,,,,,,,,,,,,,,,,,,,492.2558911,492.2724088,492.75586310000006,,,,,,,,,,,,,,492.78904109999996,,,,,,,,,,492.7761018,492.78904109999996,492.78904109999996,492.78904109999996,495.77239640000005,f,495.77245170000003,,,495.77246230000003,None,,,1.0525449000000435,0.16198740000004364,,,,,,,,,,00010,001,2025-11-14_12h10.04.262,MST_task,2024.2.2,60.41452824410386,2025-11-14 17h40.18.766832 +0530,
,Objects\152a.jpg,83,0,83,,,,,,,f,None,,,1.0879160999999158,0.17510330000004615,,,,,83,0,83,0,495.7890039,,,,,,,,,,,,,,,,,,,,,,,495.77251850000005,495.7890039,496.27253300000007,,,,,,,,,,,,,,496.3057933,,,,,,,,,,496.30046630000004,496.3057933,496.3057933,496.3057933,499.28909050000004,f,499.2891625,,,499.28917720000004,None,,,1.0879160999999158,0.17510330000004615,,,,,,,,,,00010,001,2025-11-14_12h10.04.262,MST_task,2024.2.2,60.41452824410386,2025-11-14 17h40.18.766832 +0530,
,Scenes\026a.jpg,84,0,84,,,,,,,j,None,,,1.2019173000001047,0.15040460000000166,,,,,84,0,84,0,499.3055597,,,,,,,,,,,,,,,,,,,,,,,499.28926160000003,499.3055597,499.7891843,,,,,,,,,,,,,,499.8390631,,,,,,,,,,499.82302930000003,499.8390631,499.8390631,499.8390631,502.8054608,j,502.80550690000007,,,502.80551690000004,None,,,1.2019173000001047,0.15040460000000166,,,,,,,,,,00010,001,2025-11-14_12h10.04.262,MST_task,2024.2.2,60.41452824410386,2025-11-14 17h40.18.766832 +0530,
,Scenes\071a.jpg,85,0,85,,,,,,,f,None,,,2.399807199999941,0.1936758000000509,,,,,85,0,85,0,502.8221502,,,,,,,,,,,,,,,,,,,,,,,502.80557910000005,502.8221502,503.30564460000005,,,,,,,,,,,,,,503.3556827,,,,,,,,,,503.33767090000003,503.3556827,503.3556827,503.3556827,506.3220553,f,506.32209720000003,,,506.32210740000005,None,,,2.399807199999941,0.1936758000000509,,,,,,,,,,00010,001,2025-11-14_12h10.04.262,MST_task,2024.2.2,60.41452824410386,2025-11-14 17h40.18.766832 +0530,
,Scenes\012a.jpg,86,0,86,,,,,,,j,None,,,0.6298083000000361,0.14548019999995176,,,,,86,0,86,0,506.33864500000004,,,,,,,,,,,,,,,,,,,,,,,506.3221611,506.33864500000004,506.82215930000007,,,,,,,,,,,,,,506.87236640000003,,,,,,,,,,506.85037420000003,506.87236640000003,506.87236640000003,506.87236640000003,509.83868430000007,j,509.83873059999996,,,509.838741,None,,,0.6298083000000361,0.14548019999995176,,,,,,,,,,00010,001,2025-11-14_12h10.04.262,MST_task,2024.2.2,60.41452824410386,2025-11-14 17h40.18.766832 +0530,
,Scenes\150a.jpg,87,0,87,,,,,,,j,None,,,1.0566919999999982,0.1256233000000293,,,,,87,0,87,0,509.8552876,,,,,,,,,,,,,,,,,,,,,,,509.8388178,509.8552876,510.33876269999996,,,,,,,,,,,,,,510.3885692,,,,,,,,,,510.3698206,510.3885692,510.3885692,510.3885692,513.3552638,j,513.3553086000001,,,513.3553188,None,,,1.0566919999999982,0.1256233000000293,,,,,,,,,,00010,001,2025-11-14_12h10.04.262,MST_task,2024.2.2,60.41452824410386,2025-11-14 17h40.18.766832 +0530,
,Scenes\191a.jpg,88,0,88,,,,,,,j,None,,,2.1430953000000272,0.12438699999995606,,,,,88,0,88,0,513.3718686,,,,,,,,,,,,,,,,,,,,,,,513.3553935,513.3718686,513.8554172,,,,,,,,,,,,,,513.905456,,,,,,,,,,513.8849586,513.905456,513.905456,513.905456,516.8719189,j,516.871969,,,516.8719794,None,,,2.1430953000000272,0.12438699999995606,,,,,,,,,,00010,001,2025-11-14_12h10.04.262,MST_task,2024.2.2,60.41452824410386,2025-11-14 17h40.18.766832 +0530,
,Scenes\165a.jpg,89,0,89,,,,,,,j,None,,,1.0634746000000632,0.1585395999999264,,,,,89,0,89,0,516.8884635000001,,,,,,,,,,,,,,,,,,,,,,,516.8720368,516.8884635000001,517.3720036,,,,,,,,,,,,,,517.4217843,,,,,,,,,,517.4008866,517.4217843,517.4217843,517.4217843,520.3883814,j,520.3884393,,,520.3884523,None,,,1.0634746000000632,0.1585395999999264,,,,,,,,,,00010,001,2025-11-14_12h10.04.262,MST_task,2024.2.2,60.41452824410386,2025-11-14 17h40.18.766832 +0530,
,Scenes\118a.jpg,90,0,90,,,,,,,j,None,,,0.5933922000000393,0.14990319999992607,,,,,90,0,90,0,520.4050431000001,,,,,,,,,,,,,,,,,,,,,,,520.3885261,520.4050431000001,520.8885642,,,,,,,,,,,,,,520.9216765,,,,,,,,,,520.912852,520.9216765,520.9216765,520.9216765,523.9050392,j,523.9050909,,,523.9051021,None,,,0.5933922000000393,0.14990319999992607,,,,,,,,,,00010,001,2025-11-14_12h10.04.262,MST_task,2024.2.2,60.41452824410386,2025-11-14 17h40.18.766832 +0530,
,Objects\159a.jpg,91,0,91,,,,,,,f,None,,,0.822619799999984,0.1905447000000322,,,,,91,0,91,0,523.9216417,,,,,,,,,,,,,,,,,,,,,,,523.9051834,523.9216417,524.4052585000001,,,,,,,,,,,,,,524.4386082,,,,,,,,,,524.4265643,524.4386082,524.4386082,524.4386082,527.4222029,f,527.4222455,,,527.4222554,None,,,0.822619799999984,0.1905447000000322,,,,,,,,,,00010,001,2025-11-14_12h10.04.262,MST_task,2024.2.2,60.41452824410386,2025-11-14 17h40.18.766832 +0530,
,Objects\031a.jpg,92,0,92,,,,,,,f,None,,,2.162937500000112,0.1707270999999082,,,,,92,0,92,0,527.4383188,,,,,,,,,,,,,,,,,,,,,,,527.422334,527.4383188,527.9218807,,,,,,,,,,,,,,527.9550228,,,,,,,,,,527.9411523,527.9550228,527.9550228,527.9550228,530.9382518,f,530.9382943,,,530.9383049,None,,,2.162937500000112,0.1707270999999082,,,,,,,,,,00010,001,2025-11-14_12h10.04.262,MST_task,2024.2.2,60.41452824410386,2025-11-14 17h40.18.766832 +0530,
,Objects\145a.jpg,93,0,93,,,,,,,f,None,,,1.8268447000000378,0.19032609999999295,,,,,93,0,93,0,530.9550820000001,,,,,,,,,,,,,,,,,,,,,,,530.9383776,530.9550820000001,531.438391,,,,,,,,,,,,,,531.488211,,,,,,,,,,531.4703154,531.488211,531.488211,531.488211,534.4549831,f,534.4550249,,,534.4550352,None,,,1.8268447000000378,0.19032609999999295,,,,,,,,,,00010,001,2025-11-14_12h10.04.262,MST_task,2024.2.2,60.41452824410386,2025-11-14 17h40.18.766832 +0530,
,Objects\163a.jpg,94,0,94,,,,,,,j,None,,,1.7151969000000236,0.13808059999996658,,,,,94,0,94,0,534.4714849000001,,,,,,,,,,,,,,,,,,,,,,,534.4551051,534.4714849000001,534.9549556000001,,,,,,,,,,,,,,534.9881281,,,,,,,,,,534.9709551,534.9881281,534.9881281,534.9881281,537.9714785,j,537.9715246000001,,,537.9715344,None,,,1.7151969000000236,0.13808059999996658,,,,,,,,,,00010,001,2025-11-14_12h10.04.262,MST_task,2024.2.2,60.41452824410386,2025-11-14 17h40.18.766832 +0530,
,Objects\075a.jpg,95,0,95,,,,,,,f,None,,,0.8434554000000389,0.19394490000001952,,,,,95,0,95,0,537.9880803,,,,,,,,,,,,,,,,,,,,,,,537.9715961,537.9880803,538.4715311,,,,,,,,,,,,,,538.5047519,,,,,,,,,,538.4976437,538.5047519,538.5047519,538.5047519,541.4880241,f,541.4880687,,,541.4880787,None,,,0.8434554000000389,0.19394490000001952,,,,,,,,,,00010,001,2025-11-14_12h10.04.262,MST_task,2024.2.2,60.41452824410386,2025-11-14 17h40.18.766832 +0530,
,Objects\189a.jpg,96,0,96,,,,,,,f,None,,,0.8217525000000023,0.1501432999999679,,,,,96,0,96,0,541.504681,,,,,,,,,,,,,,,,,,,,,,,541.4881528,541.504681,541.988111,,,,,,,,,,,,,,542.0212663,,,,,,,,,,542.0170757,542.0212663,542.0212663,542.0212663,545.0046785000001,f,545.004726,,,545.0047362,None,,,0.8217525000000023,0.1501432999999679,,,,,,,,,,00010,001,2025-11-14_12h10.04.262,MST_task,2024.2.2,60.41452824410386,2025-11-14 17h40.18.766832 +0530,
,Objects\149a.jpg,97,0,97,,,,,,,f,None,,,1.0071976999998924,0.15683110000009037,,,,,97,0,97,0,545.0212751,,,,,,,,,,,,,,,,,,,,,,,545.0048101,545.0212751,545.5048158,,,,,,,,,,,,,,545.5378996000001,,,,,,,,,,545.5308088,545.5378996000001,545.5378996000001,545.5378996000001,548.5212305,f,548.5212716,,,548.5212816000001,None,,,1.0071976999998924,0.15683110000009037,,,,,,,,,,00010,001,2025-11-14_12h10.04.262,MST_task,2024.2.2,60.41452824410386,2025-11-14 17h40.18.766832 +0530,
,Scenes\163a.jpg,98,0,98,,,,,,,j,None,,,2.183745599999952,0.15327130000002853,,,,,98,0,98,0,548.5378646,,,,,,,,,,,,,,,,,,,,,,,548.5213548,548.5378646,549.0213271,,,,,,,,,,,,,,549.0544939,,,,,,,,,,549.0463993,549.0544939,549.0544939,549.0544939,552.0379762,j,552.0380215,,,552.0380318,None,,,2.183745599999952,0.15327130000002853,,,,,,,,,,00010,001,2025-11-14_12h10.04.262,MST_task,2024.2.2,60.41452824410386,2025-11-14 17h40.18.766832 +0530,
,Scenes\078a.jpg,99,0,99,,,,,,,j,None,,,2.3390337999999247,0.15241630000002715,,,,,99,0,99,0,552.054487,,,,,,,,,,,,,,,,,,,,,,,552.0381057,552.054487,552.5379712,,,,,,,,,,,,,,552.5880498,,,,,,,,,,552.5672733,552.5880498,552.5880498,552.5880498,555.5544405,j,555.5544834,,,555.5544935,None,,,2.3390337999999247,0.15241630000002715,,,,,,,,,,00010,001,2025-11-14_12h10.04.262,MST_task,2024.2.2,60.41452824410386,2025-11-14 17h40.18.766832 +0530,
,Scenes\169a.jpg,100,0,100,,,,,,,j,None,,,0.6247356000000082,0.18125049999991916,,,,,100,0,100,0,555.571084,,,,,,,,,,,,,,,,,,,,,,,555.5545657,555.571084,556.0544971,,,,,,,,,,,,,,556.0876717,,,,,,,,,,556.0784564,556.0876717,556.0876717,556.0876717,559.0710597,j,559.0711032,,,559.0711141,None,,,0.6247356000000082,0.18125049999991916,,,,,,,,,,00010,001,2025-11-14_12h10.04.262,MST_task,2024.2.2,60.41452824410386,2025-11-14 17h40.18.766832 +0530,
,Scenes\149a.jpg,101,0,101,,,,,,,f,None,,,0.908248599999979,0.19178469999997105,,,,,101,0,101,0,559.0876639,,,,,,,,,,,,,,,,,,,,,,,559.07117,559.0876639,559.5710858,,,,,,,,,,,,,,559.6209375,,,,,,,,,,559.6035789,559.6209375,559.6209375,559.6209375,562.5875895,f,562.5876357,,,562.5876459,None,,,0.908248599999979,0.19178469999997105,,,,,,,,,,00010,001,2025-11-14_12h10.04.262,MST_task,2024.2.2,60.41452824410386,2025-11-14 17h40.18.766832 +0530,
,Scenes\137a.jpg,102,0,102,,,,,,,j,None,,,1.1168499999999995,0.18083439999998063,,,,,102,0,102,0,562.6042621,,,,,,,,,,,,,,,,,,,,,,,562.5877016000001,562.6042621,563.0876788,,,,,,,,,,,,,,563.1377905,,,,,,,,,,563.1182361,563.1377905,563.1377905,563.1377905,566.1042205,j,566.1042640000001,,,566.1042743,None,,,1.1168499999999995,0.18083439999998063,,,,,,,,,,00010,001,2025-11-14_12h10.04.262,MST_task,2024.2.2,60.41452824410386,2025-11-14 17h40.18.766832 +0530,
,Scenes\067a.jpg,103,0,103,,,,,,,f,None,,,0.8900763000000325,0.13989270000001852,,,,,103,0,103,0,566.1207832,,,,,,,,,,,,,,,,,,,,,,,566.1043508,566.1207832,566.6043099,,,,,,,,,,,,,,566.6374588,,,,,,,,,,566.6200841,566.6374588,566.6374588,566.6374588,569.6208138000001,f,569.6208564,,,569.6208785,None,,,0.8900763000000325,0.13989270000001852,,,,,,,,,,00010,001,2025-11-14_12h10.04.262,MST_task,2024.2.2,60.41452824410386,2025-11-14 17h40.18.766832 +0530,
,Scenes\126a.jpg,104,0,104,,,,,,,j,None,,,0.8160017000000153,0.16219430000001012,,,,,104,0,104,0,569.6373868000001,,,,,,,,,,,,,,,,,,,,,,,569.6209606,569.6373868000001,570.120858,,,,,,,,,,,,,,570.1536556,,,,,,,,,,570.1464783,570.1536556,570.1536556,570.1536556,573.1373471,j,573.137391,,,573.1374014,None,,,0.8160017000000153,0.16219430000001012,,,,,,,,,,00010,001,2025-11-14_12h10.04.262,MST_task,2024.2.2,60.41452824410386,2025-11-14 17h40.18.766832 +0530,
,Objects\048a.jpg,105,0,105,,,,,,,j,None,,,1.7042608000000428,0.17438459999993938,,,,,105,0,105,0,573.1540627,,,,,,,,,,,,,,,,,,,,,,,573.1374744,573.1540627,573.637429,,,,,,,,,,,,,,573.6708741,,,,,,,,,,573.6622599,573.6708741,573.6708741,573.6708741,576.6539577,j,576.6539996,,,576.6540092,None,,,1.7042608000000428,0.17438459999993938,,,,,,,,,,00010,001,2025-11-14_12h10.04.262,MST_task,2024.2.2,60.41452824410386,2025-11-14 17h40.18.766832 +0530,
,Objects\077a.jpg,106,0,106,,,,,,,j,None,,,0.9647347999999738,0.17118210000001,,,,,106,0,106,0,576.6705852,,,,,,,,,,,,,,,,,,,,,,,576.6540649,576.6705852,577.1540633,,,,,,,,,,,,,,577.1872177,,,,,,,,,,577.1797254,577.1872177,577.1872177,577.1872177,580.1705276,j,580.1705715,,,580.1705864,None,,,0.9647347999999738,0.17118210000001,,,,,,,,,,00010,001,2025-11-14_12h10.04.262,MST_task,2024.2.2,60.41452824410386,2025-11-14 17h40.18.766832 +0530,
,Objects\042a.jpg,107,0,107,,,,,,,j,None,,,2.20308,0.1618019000000004,,,,,107,0,107,0,580.1872278,,,,,,,,,,,,,,,,,,,,,,,580.1706646,580.1872278,580.6707005000001,,,,,,,,,,,,,,580.7204756,,,,,,,,,,580.7147769000001,580.7204756,580.7204756,580.7204756,583.6871836,j,583.6872297,,,583.6872398,None,,,2.20308,0.1618019000000004,,,,,,,,,,00010,001,2025-11-14_12h10.04.262,MST_task,2024.2.2,60.41452824410386,2025-11-14 17h40.18.766832 +0530,
,Objects\146a.jpg,108,0,108,,,,,,,f,None,,,1.9607924000000594,0.21827509999991435,,,,,108,0,108,0,583.7038256,,,,,,,,,,,,,,,,,,,,,,,583.6872954,583.7038256,584.1872519,,,,,,,,,,,,,,584.2204114,,,,,,,,,,584.2056785,584.2204114,584.2204114,584.2204114,587.2037433,f,587.2037895,,,587.2037996,None,,,1.9607924000000594,0.21827509999991435,,,,,,,,,,00010,001,2025-11-14_12h10.04.262,MST_task,2024.2.2,60.41452824410386,2025-11-14 17h40.18.766832 +0530,
,Objects\173a.jpg,109,0,109,,,,,,,f,None,,,1.3187148000000661,0.1937514999999621,,,,,109,0,109,0,587.2203617,,,,,,,,,,,,,,,,,,,,,,,587.2038572,587.2203617,587.7038497,,,,,,,,,,,,,,587.7369962,,,,,,,,,,587.7295402,587.7369962,587.7369962,587.7369962,590.7203152,f,590.7203581,,,590.7203685000001,None,,,1.3187148000000661,0.1937514999999621,,,,,,,,,,00010,001,2025-11-14_12h10.04.262,MST_task,2024.2.2,60.41452824410386,2025-11-14 17h40.18.766832 +0530,
,Objects\158a.jpg,110,0,110,,,,,,,f,None,,,0.7302468999999974,0.18994110000005548,,,,,110,0,110,0,590.7370053,,,,,,,,,,,,,,,,,,,,,,,590.7204435,590.7370053,591.2204122,,,,,,,,,,,,,,591.2535819,,,,,,,,,,591.2456811000001,591.2535819,591.2535819,591.2535819,594.2369458000001,f,594.237001,,,594.2370116,None,,,0.7302468999999974,0.18994110000005548,,,,,,,,,,00010,001,2025-11-14_12h10.04.262,MST_task,2024.2.2,60.41452824410386,2025-11-14 17h40.18.766832 +0530,
,Objects\111a.jpg,111,0,111,,,,,,,f,None,,,0.9726406000000907,0.19234669999991638,,,,,111,0,111,0,594.2535703,,,,,,,,,,,,,,,,,,,,,,,594.237092,594.2535703,594.7371199,,,,,,,,,,,,,,594.7868412,,,,,,,,,,594.7668763,594.7868412,594.7868412,594.7868412,597.7535369,f,597.7535795,,,597.75359,None,,,0.9726406000000907,0.19234669999991638,,,,,,,,,,00010,001,2025-11-14_12h10.04.262,MST_task,2024.2.2,60.41452824410386,2025-11-14 17h40.18.766832 +0530,
,Scenes\052a.jpg,112,0,112,,,,,,,j,None,,,0.8167560999999068,0.17485240000007707,,,,,112,0,112,0,597.7701066,,,,,,,,,,,,,,,,,,,,,,,597.7536634,597.7701066,598.2536205,,,,,,,,,,,,,,598.2867662,,,,,,,,,,598.2781235,598.2867662,598.2867662,598.2867662,601.2702459,j,601.2702929,,,601.2703027,None,,,0.8167560999999068,0.17485240000007707,,,,,,,,,,00010,001,2025-11-14_12h10.04.262,MST_task,2024.2.2,60.41452824410386,2025-11-14 17h40.18.766832 +0530,
,Scenes\127a.jpg,113,0,113,,,,,,,j,None,,,1.41991500000006,0.189608499999963,,,,,113,0,113,0,601.2867001,,,,,,,,,,,,,,,,,,,,,,,601.2703604,601.2867001,601.7701437000001,,,,,,,,,,,,,,601.8035895,,,,,,,,,,601.7941072,601.8035895,601.8035895,601.8035895,604.7866643,j,604.7867088,,,604.7867187,None,,,1.41991500000006,0.189608499999963,,,,,,,,,,00010,001,2025-11-14_12h10.04.262,MST_task,2024.2.2,60.41452824410386,2025-11-14 17h40.18.766832 +0530,
,Scenes\179a.jpg,114,0,114,,,,,,,j,None,,,1.4575929000000087,0.1548370000000432,,,,,114,0,114,0,604.8033578,,,,,,,,,,,,,,,,,,,,,,,604.7867952,604.8033578,605.2867579,,,,,,,,,,,,,,605.3199612,,,,,,,,,,605.31138,605.3199612,605.3199612,605.3199612,608.3032696,j,608.3033436000001,,,608.3033543,None,,,1.4575929000000087,0.1548370000000432,,,,,,,,,,00010,001,2025-11-14_12h10.04.262,MST_task,2024.2.2,60.41452824410386,2025-11-14 17h40.18.766832 +0530,
,Scenes\132a.jpg,115,0,115,,,,,,,j,None,,,2.125353300000029,0.19704090000004726,,,,,115,0,115,0,608.3199346,,,,,,,,,,,,,,,,,,,,,,,608.3034124000001,608.3199346,608.8034657000001,,,,,,,,,,,,,,608.8365545,,,,,,,,,,608.825382,608.8365545,608.8365545,608.8365545,611.8198405,j,611.8198829,,,611.8198928,None,,,2.125353300000029,0.19704090000004726,,,,,,,,,,00010,001,2025-11-14_12h10.04.262,MST_task,2024.2.2,60.41452824410386,2025-11-14 17h40.18.766832 +0530,
,Scenes\086a.jpg,116,0,116,,,,,,,j,None,,,1.2054491999999755,0.18982570000002852,,,,,116,0,116,0,611.8364965000001,,,,,,,,,,,,,,,,,,,,,,,611.8199459,611.8364965000001,612.3199684,,,,,,,,,,,,,,612.3698709,,,,,,,,,,612.3560247,612.3698709,612.3698709,612.3698709,615.3365123,j,615.3365538,,,615.3365642,None,,,1.2054491999999755,0.18982570000002852,,,,,,,,,,00010,001,2025-11-14_12h10.04.262,MST_task,2024.2.2,60.41452824410386,2025-11-14 17h40.18.766832 +0530,
,Scenes\059a.jpg,117,0,117,,,,,,,j,None,,,1.3882757000000083,0.17701629999999113,,,,,117,0,117,0,615.3531261,,,,,,,,,,,,,,,,,,,,,,,615.3366202,615.3531261,615.8365704,,,,,,,,,,,,,,615.8864491,,,,,,,,,,615.8727269,615.8864491,615.8864491,615.8864491,618.852925,j,618.8529671,,,618.8529775000001,None,,,1.3882757000000083,0.17701629999999113,,,,,,,,,,00010,001,2025-11-14_12h10.04.262,MST_task,2024.2.2,60.41452824410386,2025-11-14 17h40.18.766832 +0530,
,Scenes\080a.jpg,118,0,118,,,,,,,j,None,,,0.9697125999999798,0.17351380000002337,,,,,118,0,118,0,618.869588,,,,,,,,,,,,,,,,,,,,,,,618.853052,618.869588,619.3531609,,,,,,,,,,,,,,619.3862118000001,,,,,,,,,,619.3792082,619.3862118000001,619.3862118000001,619.3862118000001,622.3696275,j,622.3696732,,,622.3696837,None,,,0.9697125999999798,0.17351380000002337,,,,,,,,,,00010,001,2025-11-14_12h10.04.262,MST_task,2024.2.2,60.41452824410386,2025-11-14 17h40.18.766832 +0530,
,Objects\049a.jpg,119,0,119,,,,,,,f,None,,,0.801692199999934,0.13245960000006107,,,,,119,0,119,0,622.3861745,,,,,,,,,,,,,,,,,,,,,,,622.3697649000001,622.3861745,622.8697272,,,,,,,,,,,,,,622.903243,,,,,,,,,,622.8854174,622.903243,622.903243,622.903243,625.886202,f,625.8862451,,,625.8862554,None,,,0.801692199999934,0.13245960000006107,,,,,,,,,,00010,001,2025-11-14_12h10.04.262,MST_task,2024.2.2,60.41452824410386,2025-11-14 17h40.18.766832 +0530,
,Objects\090a.jpg,120,0,120,,,,,,,j,None,,,0.78390330000002,0.12817570000004253,,,,,120,0,120,0,625.9027811,,,,,,,,,,,,,,,,,,,,,,,625.8863118,625.9027811,626.3862625,,,,,,,,,,,,,,626.4193907,,,,,,,,,,626.413307,626.4193907,626.4193907,626.4193907,629.4027294,j,629.4027708,,,629.4027805000001,None,,,0.78390330000002,0.12817570000004253,,,,,,,,,,00010,001,2025-11-14_12h10.04.262,MST_task,2024.2.2,60.41452824410386,2025-11-14 17h40.18.766832 +0530,
,Objects\140a.jpg,121,0,121,,,,,,,j,None,,,0.9807560000000421,0.15667080000002898,,,,,121,0,121,0,629.4193291,,,,,,,,,,,,,,,,,,,,,,,629.4028365,629.4193291,629.9028457000001,,,,,,,,,,,,,,,,,,,,,,,,629.9294747,629.9359856,629.9359856,629.9359856,632.9193712,j,632.9194151,,,632.919424,None,,,0.9807560000000421,0.15667080000002898,,,,,,,,,,00010,001,2025-11-14_12h10.04.262,MST_task,2024.2.2,60.41452824410386,2025-11-14 17h40.18.766832 +0530,
,Objects\180a.jpg,122,0,122,,,,,,,f,None,,,1.170248000000015,0.1498641000000589,,,,,122,0,122,0,632.9359331,,,,,,,,,,,,,,,,,,,,,,,632.9194808,632.9359331,633.4194122,,,,,,,,,,,,,,633.4692588,,,,,,,,,,633.450708,633.4692588,633.4692588,633.4692588,636.436021,f,636.4360738,,,636.4360839,None,,,1.170248000000015,0.1498641000000589,,,,,,,,,,00010,001,2025-11-14_12h10.04.262,MST_task,2024.2.2,60.41452824410386,2025-11-14 17h40.18.766832 +0530,
,Objects\029a.jpg,123,0,123,,,,,,,f,None,,,1.7441515000000436,0.15789870000003248,,,,,123,0,123,0,636.4525378,,,,,,,,,,,,,,,,,,,,,,,636.4361415,636.4525378,636.9360752,,,,,,,,,,,,,,636.9691713,,,,,,,,,,636.9525253,636.9691713,636.9691713,636.9691713,639.9524948000001,f,639.9525375000001,,,639.9525482,None,,,1.7441515000000436,0.15789870000003248,,,,,,,,,,00010,001,2025-11-14_12h10.04.262,MST_task,2024.2.2,60.41452824410386,2025-11-14 17h40.18.766832 +0530,
,Objects\121a.jpg,124,0,124,,,,,,,f,None,,,0.9323306999999659,0.17275469999992765,,,,,124,0,124,0,639.9691372,,,,,,,,,,,,,,,,,,,,,,,639.952624,639.9691372,640.4526751,,,,,,,,,,,,,,640.4857548,,,,,,,,,,640.4781038,640.4857548,640.4857548,640.4857548,643.4690875,f,643.4691361,,,643.4691463,None,,,0.9323306999999659,0.17275469999992765,,,,,,,,,,00010,001,2025-11-14_12h10.04.262,MST_task,2024.2.2,60.41452824410386,2025-11-14 17h40.18.766832 +0530,
,Objects\101a.jpg,125,0,125,,,,,,,j,None,,,2.0748432999999977,0.21853020000003198,,,,,125,0,125,0,643.4857183,,,,,,,,,,,,,,,,,,,,,,,643.4692066,643.4857183,643.9692067,,,,,,,,,,,,,,644.002347,,,,,,,,,,643.9930364,644.002347,644.002347,644.002347,646.9856827,j,646.9857401,,,646.9857498,None,,,2.0748432999999977,0.21853020000003198,,,,,,,,,,00010,001,2025-11-14_12h10.04.262,MST_task,2024.2.2,60.41452824410386,2025-11-14 17h40.18.766832 +0530,
,Scenes\156a.jpg,126,0,126,,,,,,,j,None,,,0.8370356000000356,0.19736189999991893,,,,,126,0,126,0,647.0023154,,,,,,,,,,,,,,,,,,,,,,,646.9858051,647.0023154,647.4858665,,,,,,,,,,,,,,647.5189483,,,,,,,,,,647.5103343000001,647.5189483,647.5189483,647.5189483,650.5022434,j,650.5023015,,,650.5023116,None,,,0.8370356000000356,0.19736189999991893,,,,,,,,,,00010,001,2025-11-14_12h10.04.262,MST_task,2024.2.2,60.41452824410386,2025-11-14 17h40.18.766832 +0530,
,Scenes\162a.jpg,127,0,127,,,,,,,j,None,,,1.5533697000000757,0.19916189999992184,,,,,127,0,127,0,650.5189066,,,,,,,,,,,,,,,,,,,,,,,650.5023906,650.5189066,651.0024162,,,,,,,,,,,,,,,,,,,,,,,,651.0241141,651.0355327,651.0355327,651.0355327,654.0188555,j,654.0188977,,,654.0189067,None,,,1.5533697000000757,0.19916189999992184,,,,,,,,,,00010,001,2025-11-14_12h10.04.262,MST_task,2024.2.2,60.41452824410386,2025-11-14 17h40.18.766832 +0530,
,Scenes\175a.jpg,128,0,128,,,,,,,j,None,,,0.8463009000000739,0.1981736999999839,,,,,128,0,128,0,654.035499,,,,,,,,,,,,,,,,,,,,,,,654.0189825,654.035499,654.5190268,,,,,,,,,,,,,,654.5691063,,,,,,,,,,654.553474,654.5691063,654.5691063,654.5691063,657.5354366,j,657.5354796,,,657.5354896,None,,,0.8463009000000739,0.1981736999999839,,,,,,,,,,00010,001,2025-11-14_12h10.04.262,MST_task,2024.2.2,60.41452824410386,2025-11-14 17h40.18.766832 +0530,
,Scenes\128a.jpg,129,0,129,,,,,,,j,None,,,0.6876141000000189,0.170550300000059,,,,,129,0,129,0,657.5520899,,,,,,,,,,,,,,,,,,,,,,,657.5355455,657.5520899,658.0355843,,,,,,,,,,,,,,658.0853863,,,,,,,,,,658.0683619,658.0853863,658.0853863,658.0853863,661.0520959,j,661.052141,,,661.052151,None,,,0.6876141000000189,0.170550300000059,,,,,,,,,,00010,001,2025-11-14_12h10.04.262,MST_task,2024.2.2,60.41452824410386,2025-11-14 17h40.18.766832 +0530,
,Scenes\014a.jpg,130,0,130,,,,,,,f,None,,,0.8276194000000032,0.16156469999998535,,,,,130,0,130,0,661.0686497,,,,,,,,,,,,,,,,,,,,,,,661.0522256,661.0686497,661.5522835,,,,,,,,,,,,,,661.5857143000001,,,,,,,,,,661.5781036,661.5857143000001,661.5857143000001,661.5857143000001,664.5686617,f,664.5687074,,,664.5687175,None,,,0.8276194000000032,0.16156469999998535,,,,,,,,,,00010,001,2025-11-14_12h10.04.262,MST_task,2024.2.2,60.41452824410386,2025-11-14 17h40.18.766832 +0530,
,Scenes\181a.jpg,131,0,131,,,,,,,f,None,,,1.3863840999999866,0.16515340000000833,,,,,131,0,131,0,664.5852367,,,,,,,,,,,,,,,,,,,,,,,664.5687751,664.5852367,665.0687746,,,,,,,,,,,,,,,,,,,,,,,,665.0884545,665.1019326,665.1019326,665.1019326,668.0852189,f,668.0852657,,,668.0852748,None,,,1.3863840999999866,0.16515340000000833,,,,,,,,,,00010,001,2025-11-14_12h10.04.262,MST_task,2024.2.2,60.41452824410386,2025-11-14 17h40.18.766832 +0530,
,Scenes\068a.jpg,132,0,132,,,,,,,j,None,,,0.8601625000000013,0.16270489999999427,,,,,132,0,132,0,668.1018592,,,,,,,,,,,,,,,,,,,,,,,668.0853324,668.1018592,668.5853018,,,,,,,,,,,,,,668.6351998,,,,,,,,,,668.6129014,668.6351998,668.6351998,668.6351998,671.6018607,j,671.6019069,,,671.6019167000001,None,,,0.8601625000000013,0.16270489999999427,,,,,,,,,,00010,001,2025-11-14_12h10.04.262,MST_task,2024.2.2,60.41452824410386,2025-11-14 17h40.18.766832 +0530,
,Objects\089a.jpg,133,0,133,,,,,,,f,None,,,1.3317878000000292,0.10583099999996648,,,,,133,0,133,0,671.6184583,,,,,,,,,,,,,,,,,,,,,,,671.6020068,671.6184583,672.1021766,,,,,,,,,,,,,,672.1353403,,,,,,,,,,672.1234148,672.1353403,672.1353403,672.1353403,675.1184356,f,675.1184774,,,675.1184878,None,,,1.3317878000000292,0.10583099999996648,,,,,,,,,,00010,001,2025-11-14_12h10.04.262,MST_task,2024.2.2,60.41452824410386,2025-11-14 17h40.18.766832 +0530,
,Objects\191a.jpg,134,0,134,,,,,,,j,None,,,2.096829600000092,0.11815649999994093,,,,,134,0,134,0,675.1350978,,,,,,,,,,,,,,,,,,,,,,,675.1185611,675.1350978,675.6185444,,,,,,,,,,,,,,,,,,,,,,,,675.657245,675.6683336,675.6683336,675.6683336,678.6351373,j,678.6351823,,,678.6351914,None,,,2.096829600000092,0.11815649999994093,,,,,,,,,,00010,001,2025-11-14_12h10.04.262,MST_task,2024.2.2,60.41452824410386,2025-11-14 17h40.18.766832 +0530,
,Objects\102a.jpg,135,0,135,,,,,,,f,None,,,0.5935425000000123,0.10577490000002854,,,,,135,0,135,0,678.6516333,,,,,,,,,,,,,,,,,,,,,,,678.6352683,678.6516333,679.1350962,,,,,,,,,,,,,,679.16826,,,,,,,,,,679.1615635,679.16826,679.16826,679.16826,682.151655,f,682.1516999,,,682.1517102,None,,,0.5935425000000123,0.10577490000002854,,,,,,,,,,00010,001,2025-11-14_12h10.04.262,MST_task,2024.2.2,60.41452824410386,2025-11-14 17h40.18.766832 +0530,
,Objects\009a.jpg,136,0,136,,,,,,,f,None,,,0.8642634000000271,0.10786129999996774,,,,,136,0,136,0,682.1682863,,,,,,,,,,,,,,,,,,,,,,,682.1517651,682.1682863,682.6517693000001,,,,,,,,,,,,,,682.6848887,,,,,,,,,,682.6676591,682.6848887,682.6848887,682.6848887,685.6682488,f,685.6682928,,,685.6683031,None,,,0.8642634000000271,0.10786129999996774,,,,,,,,,,00010,001,2025-11-14_12h10.04.262,MST_task,2024.2.2,60.41452824410386,2025-11-14 17h40.18.766832 +0530,
,Objects\019a.jpg,137,0,137,,,,,,,f,None,,,0.9955059999999776,0.11843099999998685,,,,,137,0,137,0,685.6848115,,,,,,,,,,,,,,,,,,,,,,,685.668358,685.6848115,686.1683373,,,,,,,,,,,,,,,,,,,,,,,,686.1841143,686.2015213,686.2015213,686.2015213,689.1848963,f,689.1849542,,,689.1849706,None,,,0.9955059999999776,0.11843099999998685,,,,,,,,,,00010,001,2025-11-14_12h10.04.262,MST_task,2024.2.2,60.41452824410386,2025-11-14 17h40.18.766832 +0530,
,Objects\136a.jpg,138,0,138,,,,,,,f,None,,,1.1143507000000454,0.11899670000002516,,,,,138,0,138,0,689.2014095000001,,,,,,,,,,,,,,,,,,,,,,,689.18503,689.2014095000001,689.6848808,,,,,,,,,,,,,,689.7347004000001,,,,,,,,,,689.7158420000001,689.7347004000001,689.7347004000001,689.7347004000001,692.7014142,f,692.7014588000001,,,692.701469,None,,,1.1143507000000454,0.11899670000002516,,,,,,,,,,00010,001,2025-11-14_12h10.04.262,MST_task,2024.2.2,60.41452824410386,2025-11-14 17h40.18.766832 +0530,
,Objects\122a.jpg,139,0,139,,,,,,,f,None,,,0.9124004999999897,0.10005310000008194,,,,,139,0,139,0,692.7179614,,,,,,,,,,,,,,,,,,,,,,,692.7015463,692.7179614,693.2014674000001,,,,,,,,,,,,,,693.2346538,,,,,,,,,,693.2223635,693.2346538,693.2346538,693.2346538,696.2179844,f,696.2180306,,,696.2180405,None,,,0.9124004999999897,0.10005310000008194,,,,,,,,,,00010,001,2025-11-14_12h10.04.262,MST_task,2024.2.2,60.41452824410386,2025-11-14 17h40.18.766832 +0530,
,Scenes\091a.jpg,140,0,140,,,,,,,j,None,,,0.7096987999999556,0.11409979999996267,,,,,140,0,140,0,696.2346221,,,,,,,,,,,,,,,,,,,,,,,696.2180960000001,696.2346221,696.7180443,,,,,,,,,,,,,,696.7512146,,,,,,,,,,696.7422731,696.7512146,696.7512146,696.7512146,699.7345395,j,699.7345849,,,699.7345977,None,,,0.7096987999999556,0.11409979999996267,,,,,,,,,,00010,001,2025-11-14_12h10.04.262,MST_task,2024.2.2,60.41452824410386,2025-11-14 17h40.18.766832 +0530,
,Scenes\013a.jpg,141,0,141,,,,,,,j,None,,,1.5954479000000674,0.10773039999992307,,,,,141,0,141,0,699.751184,,,,,,,,,,,,,,,,,,,,,,,699.7346698,699.751184,700.2346221,,,,,,,,,,,,,,700.2845789,,,,,,,,,,700.2689127,700.2845789,700.2845789,700.2845789,703.2511880000001,j,703.2512518,,,703.2512627,None,,,1.5954479000000674,0.10773039999992307,,,,,,,,,,00010,001,2025-11-14_12h10.04.262,MST_task,2024.2.2,60.41452824410386,2025-11-14 17h40.18.766832 +0530,
,Scenes\109a.jpg,142,0,142,,,,,,,j,None,,,1.539568999999915,0.08532590000004348,,,,,142,0,142,0,703.2677729000001,,,,,,,,,,,,,,,,,,,,,,,703.2513483,703.2677729000001,703.7513246,,,,,,,,,,,,,,703.8013574,,,,,,,,,,703.7806032,703.8013574,703.8013574,703.8013574,706.7677295,j,706.7677738,,,706.7677847,None,,,1.539568999999915,0.08532590000004348,,,,,,,,,,00010,001,2025-11-14_12h10.04.262,MST_task,2024.2.2,60.41452824410386,2025-11-14 17h40.18.766832 +0530,
,Scenes\145a.jpg,143,0,143,,,,,,,j,None,,,2.0835309999999936,0.07587150000006204,,,,,143,0,143,0,706.7843604,,,,,,,,,,,,,,,,,,,,,,,706.7678423,706.7843604,707.2677995,,,,,,,,,,,,,,707.3177107,,,,,,,,,,707.3014417,707.3177107,707.3177107,707.3177107,710.2843466,j,710.2843932000001,,,710.2844073,None,,,2.0835309999999936,0.07587150000006204,,,,,,,,,,00010,001,2025-11-14_12h10.04.262,MST_task,2024.2.2,60.41452824410386,2025-11-14 17h40.18.766832 +0530,
,Scenes\102a.jpg,144,0,144,,,,,,,f,None,,,1.2505548999999974,0.10247880000008536,,,,,144,0,144,0,710.3009579,,,,,,,,,,,,,,,,,,,,,,,710.2844804,710.3009579,710.78459,,,,,,,,,,,,,,710.8343921000001,,,,,,,,,,710.8143159,710.8343921000001,710.8343921000001,710.8343921000001,713.8010009,f,713.801041,,,713.801052,None,,,1.2505548999999974,0.10247880000008536,,,,,,,,,,00010,001,2025-11-14_12h10.04.262,MST_task,2024.2.2,60.41452824410386,2025-11-14 17h40.18.766832 +0530,
,Scenes\049a.jpg,145,0,145,,,,,,,j,None,,,1.3288201999999956,0.10157570000001215,,,,,145,0,145,0,713.8176364,,,,,,,,,,,,,,,,,,,,,,,713.8011237000001,713.8176364,714.3012259,,,,,,,,,,,,,,714.3342623,,,,,,,,,,714.3242863,714.3342623,714.3342623,714.3342623,717.3175642,j,717.3176064,,,717.3176163,None,,,1.3288201999999956,0.10157570000001215,,,,,,,,,,00010,001,2025-11-14_12h10.04.262,MST_task,2024.2.2,60.41452824410386,2025-11-14 17h40.18.766832 +0530,
,Scenes\131a.jpg,146,0,146,,,,,,,j,None,,,2.680966000000012,0.08347500000002128,,,,,146,0,146,0,717.334221,,,,,,,,,,,,,,,,,,,,,,,717.3176866,717.334221,717.8176778000001,,,,,,,,,,,,,,,,,,,,,,,,717.8444999,717.8507249,717.8507249,717.8507249,720.8342497,j,720.8342933,,,720.8343026,None,,,2.680966000000012,0.08347500000002128,,,,,,,,,,00010,001,2025-11-14_12h10.04.262,MST_task,2024.2.2,60.41452824410386,2025-11-14 17h40.18.766832 +0530,
,Objects\066a.jpg,147,0,147,,,,,,,f,None,,,1.4998882000001004,0.12952419999999165,,,,,147,0,147,0,720.8508548,,,,,,,,,,,,,,,,,,,,,,,720.8343684,720.8508548,721.3343449,,,,,,,,,,,,,,721.3677672,,,,,,,,,,721.3584092,721.3677672,721.3677672,721.3677672,724.3508213,f,724.3508652,,,724.3508755,None,,,1.4998882000001004,0.12952419999999165,,,,,,,,,,00010,001,2025-11-14_12h10.04.262,MST_task,2024.2.2,60.41452824410386,2025-11-14 17h40.18.766832 +0530,
,Objects\087a.jpg,148,0,148,,,,,,,j,None,,,1.551053799999977,0.10810850000007122,,,,,148,0,148,0,724.3673816,,,,,,,,,,,,,,,,,,,,,,,724.3509303,724.3673816,724.8508934,,,,,,,,,,,,,,724.9007626,,,,,,,,,,724.8814202,724.9007626,724.9007626,724.9007626,727.8673591,j,727.8674064,,,727.8674177,None,,,1.551053799999977,0.10810850000007122,,,,,,,,,,00010,001,2025-11-14_12h10.04.262,MST_task,2024.2.2,60.41452824410386,2025-11-14 17h40.18.766832 +0530,
,Objects\156a.jpg,149,0,149,,,,,,,f,None,,,0.7348016999999345,0.14176640000005136,,,,,149,0,149,0,727.8839753,,,,,,,,,,,,,,,,,,,,,,,727.8675043000001,727.8839753,728.3675418,,,,,,,,,,,,,,728.4006523,,,,,,,,,,728.3936706000001,728.4006523,728.4006523,728.4006523,731.3839308,f,731.3839764,,,731.3839868,None,,,0.7348016999999345,0.14176640000005136,,,,,,,,,,00010,001,2025-11-14_12h10.04.262,MST_task,2024.2.2,60.41452824410386,2025-11-14 17h40.18.766832 +0530,
,Objects\093a.jpg,150,0,150,,,,,,,j,None,,,0.9261476000000357,0.16681229999994684,,,,,150,0,150,0,731.4006211,,,,,,,,,,,,,,,,,,,,,,,731.3840451,731.4006211,731.8841287,,,,,,,,,,,,,,731.9338869000001,,,,,,,,,,731.9233292,731.9338869000001,731.9338869000001,731.9338869000001,734.9005444000001,j,734.9005893,,,734.9006116,None,,,0.9261476000000357,0.16681229999994684,,,,,,,,,,00010,001,2025-11-14_12h10.04.262,MST_task,2024.2.2,60.41452824410386,2025-11-14 17h40.18.766832 +0530,
,Objects\076a.jpg,151,0,151,,,,,,,j,None,,,1.2537088000000267,0.1333767999999509,,,,,151,0,151,0,734.9172149,,,,,,,,,,,,,,,,,,,,,,,734.9006675,734.9172149,735.4006708000001,,,,,,,,,,,,,,735.4338056,,,,,,,,,,735.4258017,735.4338056,735.4338056,735.4338056,738.4170489,j,738.4170948,,,738.417105,None,,,1.2537088000000267,0.1333767999999509,,,,,,,,,,00010,001,2025-11-14_12h10.04.262,MST_task,2024.2.2,60.41452824410386,2025-11-14 17h40.18.766832 +0530,
,Objects\010a.jpg,152,0,152,,,,,,,f,None,,,0.7172099000000571,0.1194349999999531,,,,,152,0,152,0,738.4336693,,,,,,,,,,,,,,,,,,,,,,,738.4171803,738.4336693,738.917193,,,,,,,,,,,,,,738.9503049,,,,,,,,,,738.9431253,738.9503049,738.9503049,738.9503049,741.9336818,f,741.9337285,,,741.9337386,None,,,0.7172099000000571,0.1194349999999531,,,,,,,,,,00010,001,2025-11-14_12h10.04.262,MST_task,2024.2.2,60.41452824410386,2025-11-14 17h40.18.766832 +0530,
,Objects\015a.jpg,153,0,153,,,,,,,f,None,,,0.8072280999999748,0.12920599999995375,,,,,153,0,153,0,741.9502727,,,,,,,,,,,,,,,,,,,,,,,741.9338081,741.9502727,742.4337302,,,,,,,,,,,,,,742.4668982000001,,,,,,,,,,742.4618191,742.4668982000001,742.4668982000001,742.4668982000001,745.4501957,f,745.4502415000001,,,745.4502513,None,,,0.8072280999999748,0.12920599999995375,,,,,,,,,,00010,001,2025-11-14_12h10.04.262,MST_task,2024.2.2,60.41452824410386,2025-11-14 17h40.18.766832 +0530,
,Scenes\023a.jpg,154,0,154,,,,,,,f,None,,,1.9835795999999846,0.10723829999994905,,,,,154,0,154,0,745.4668582,,,,,,,,,,,,,,,,,,,,,,,745.4503321,745.4668582,745.9503641,,,,,,,,,,,,,,746.0004182,,,,,,,,,,745.9821429,746.0004182,746.0004182,746.0004182,748.9669712,f,748.9670148,,,748.967025,None,,,1.9835795999999846,0.10723829999994905,,,,,,,,,,00010,001,2025-11-14_12h10.04.262,MST_task,2024.2.2,60.41452824410386,2025-11-14 17h40.18.766832 +0530,
,Scenes\134a.jpg,155,0,155,,,,,,,j,None,,,0.678643700000066,0.11763629999995828,,,,,155,0,155,0,748.9834497,,,,,,,,,,,,,,,,,,,,,,,748.9670984,748.9834497,749.4669248,,,,,,,,,,,,,,749.5171092,,,,,,,,,,749.4949982,749.5171092,749.5171092,749.5171092,752.4834159000001,j,752.4834703,,,752.4834809,None,,,0.678643700000066,0.11763629999995828,,,,,,,,,,00010,001,2025-11-14_12h10.04.262,MST_task,2024.2.2,60.41452824410386,2025-11-14 17h40.18.766832 +0530,
,Scenes\171a.jpg,156,0,156,,,,,,,f,None,,,1.6659597000000304,0.10955660000001899,,,,,156,0,156,0,752.5000471,,,,,,,,,,,,,,,,,,,,,,,752.4835534,752.5000471,752.9835327000001,,,,,,,,,,,,,,753.0336431000001,,,,,,,,,,753.0192134,753.0336431000001,753.0336431000001,753.0336431000001,756.0000018000001,f,756.0000428,,,756.0000523,None,,,1.6659597000000304,0.10955660000001899,,,,,,,,,,00010,001,2025-11-14_12h10.04.262,MST_task,2024.2.2,60.41452824410386,2025-11-14 17h40.18.766832 +0530,
,Scenes\089a.jpg,157,0,157,,,,,,,j,None,,,1.7407000000000608,0.09961239999995541,,,,,157,0,157,0,756.0166337,,,,,,,,,,,,,,,,,,,,,,,756.0001267,756.0166337,756.500124,,,,,,,,,,,,,,,,,,,,,,,,756.5250505,756.5328808,756.5328808,756.5328808,759.5166102000001,j,759.5166534,,,759.5166622,None,,,1.7407000000000608,0.09961239999995541,,,,,,,,,,00010,001,2025-11-14_12h10.04.262,MST_task,2024.2.2,60.41452824410386,2025-11-14 17h40.18.766832 +0530,
,Scenes\133a.jpg,158,0,158,,,,,,,j,None,,,0.8741072000000258,0.12552289999996447,,,,,158,0,158,0,759.5331899,,,,,,,,,,,,,,,,,,,,,,,759.516743,759.5331899,760.0168034,,,,,,,,,,,,,,760.0498927,,,,,,,,,,760.0431276,760.0498927,760.0498927,760.0498927,763.03315,j,763.0331922,,,763.0332023,None,,,0.8741072000000258,0.12552289999996447,,,,,,,,,,00010,001,2025-11-14_12h10.04.262,MST_task,2024.2.2,60.41452824410386,2025-11-14 17h40.18.766832 +0530,
,Scenes\022a.jpg,159,0,159,,,,,,,j,None,,,1.5165706999999884,0.12002949999998691,,,,,159,0,159,0,763.0498211,,,,,,,,,,,,,,,,,,,,,,,763.0332792,763.0498211,763.5332407,,,,,,,,,,,,,,763.5667049,,,,,,,,,,763.5538029,763.5667049,763.5667049,763.5667049,766.5497477,j,766.5497898,,,766.5498002,None,,,1.5165706999999884,0.12002949999998691,,,,,,,,,,00010,001,2025-11-14_12h10.04.262,MST_task,2024.2.2,60.41452824410386,2025-11-14 17h40.18.766832 +0530,
,Scenes\185a.jpg,160,0,160,,,,,,,j,None,,,0.6979028000000653,0.12449409999999261,,,,,160,0,160,0,766.5664195,,,,,,,,,,,,,,,,,,,,,,,766.5498898,766.5664195,767.0499896,,,,,,,,,,,,,,767.0833205,,,,,,,,,,767.0657600000001,767.0833205,767.0833205,767.0833205,770.0663462,j,770.0664018,,,770.0664116,None,,,0.6979028000000653,0.12449409999999261,,,,,,,,,,00010,001,2025-11-14_12h10.04.262,MST_task,2024.2.2,60.41452824410386,2025-11-14 17h40.18.766832 +0530,
,Objects\099a.jpg,161,0,161,,,,,,,f,None,,,1.8987520999999106,0.10403739999992467,,,,,161,0,161,0,770.0830091,,,,,,,,,,,,,,,,,,,,,,,770.0664659,770.0830091,770.5665183,,,,,,,,,,,,,,770.5998799,,,,,,,,,,770.5895273,770.5998799,770.5998799,770.5998799,773.5829587,f,773.5830009,,,773.5830106,None,,,1.8987520999999106,0.10403739999992467,,,,,,,,,,00010,001,2025-11-14_12h10.04.262,MST_task,2024.2.2,60.41452824410386,2025-11-14 17h40.18.766832 +0530,
,Objects\174a.jpg,162,0,162,,,,,,,j,None,,,2.558595200000127,0.09601410000004762,,,,,162,0,162,0,773.5995846,,,,,,,,,,,,,,,,,,,,,,,773.5830655999999,773.5995846,774.0831595000001,,,,,,,,,,,,,,774.1328749,,,,,,,,,,774.1135419000001,774.1328749,774.1328749,774.1328749,777.0995085000001,j,777.0995512999999,,,777.0995610000001,None,,,2.558595200000127,0.09601410000004762,,,,,,,,,,00010,001,2025-11-14_12h10.04.262,MST_task,2024.2.2,60.41452824410386,2025-11-14 17h40.18.766832 +0530,
,Objects\123a.jpg,163,0,163,,,,,,,j,None,,,0.9687635000000228,0.10947600000008606,,,,,163,0,163,0,777.1161794000001,,,,,,,,,,,,,,,,,,,,,,,777.0996303999999,777.1161794000001,777.5997123000001,,,,,,,,,,,,,,777.6328311000001,,,,,,,,,,777.6155675000001,777.6328311000001,777.6328311000001,777.6328311000001,780.6160983000001,j,780.6161461,,,780.6161562000001,None,,,0.9687635000000228,0.10947600000008606,,,,,,,,,,00010,001,2025-11-14_12h10.04.262,MST_task,2024.2.2,60.41452824410386,2025-11-14 17h40.18.766832 +0530,
,Objects\134a.jpg,164,0,164,,,,,,,f,None,,,1.8560749999999189,0.10593900000003487,,,,,164,0,164,0,780.6327691,,,,,,,,,,,,,,,,,,,,,,,780.6162273000001,780.6327691,781.1163278,,,,,,,,,,,,,,781.1493945000001,,,,,,,,,,781.1390647,781.1493945000001,781.1493945000001,781.1493945000001,784.1327004999999,f,784.1327608,,,784.1327709000001,None,,,1.8560749999999189,0.10593900000003487,,,,,,,,,,00010,001,2025-11-14_12h10.04.262,MST_task,2024.2.2,60.41452824410386,2025-11-14 17h40.18.766832 +0530,
,Objects\169a.jpg,165,0,165,,,,,,,f,None,,,1.5525987000000896,0.12834219999990637,,,,,165,0,165,0,784.1493701,,,,,,,,,,,,,,,,,,,,,,,784.1328552000001,784.1493701,784.632896,,,,,,,,,,,,,,784.6826688,,,,,,,,,,784.6630214,784.6826688,784.6826688,784.6826688,787.6493145000001,f,787.6493588,,,787.6493691,None,,,1.5525987000000896,0.12834219999990637,,,,,,,,,,00010,001,2025-11-14_12h10.04.262,MST_task,2024.2.2,60.41452824410386,2025-11-14 17h40.18.766832 +0530,
,Objects\067a.jpg,166,0,166,,,,,,,f,None,,,1.0884813999998642,0.14227530000016486,,,,,166,0,166,0,787.6659172000001,,,,,,,,,,,,,,,,,,,,,,,787.6494242,787.6659172000001,788.1495036,,,,,,,,,,,,,,788.1825729000001,,,,,,,,,,788.1775908000001,788.1825729000001,788.1825729000001,788.1825729000001,791.1659177,f,791.165959,,,791.1659685999999,None,,,1.0884813999998642,0.14227530000016486,,,,,,,,,,00010,001,2025-11-14_12h10.04.262,MST_task,2024.2.2,60.41452824410386,2025-11-14 17h40.18.766832 +0530,
,Objects\022a.jpg,167,0,167,,,,,,,f,None,,,0.9917677000000822,0.13041520000001583,,,,,167,0,167,0,791.1825428999999,,,,,,,,,,,,,,,,,,,,,,,791.166024,791.1825428999999,791.6661072,,,,,,,,,,,,,,791.6991961,,,,,,,,,,791.6886525000001,791.6991961,791.6991961,791.6991961,794.6826084999999,f,794.6826546000001,,,794.6826652000001,None,,,0.9917677000000822,0.13041520000001583,,,,,,,,,,00010,001,2025-11-14_12h10.04.262,MST_task,2024.2.2,60.41452824410386,2025-11-14 17h40.18.766832 +0530,
,Scenes\066a.jpg,168,0,168,,,,,,,j,None,,,1.8898589999998876,0.10929950000013378,,,,,168,0,168,0,794.6991320999999,,,,,,,,,,,,,,,,,,,,,,,794.6827231999999,794.6991320999999,795.1826702,,,,,,,,,,,,,,795.2160872000001,,,,,,,,,,795.2049476999999,795.2160872000001,795.2160872000001,795.2160872000001,798.1992088000001,j,798.1992555,,,798.1992658,None,,,1.8898589999998876,0.10929950000013378,,,,,,,,,,00010,001,2025-11-14_12h10.04.262,MST_task,2024.2.2,60.41452824410386,2025-11-14 17h40.18.766832 +0530,
,Scenes\192a.jpg,169,0,169,,,,,,,j,None,,,0.9946097999998074,0.10144530000002305,,,,,169,0,169,0,798.2157526,,,,,,,,,,,,,,,,,,,,,,,798.19934,798.2157526,798.6992012,,,,,,,,,,,,,,798.7493876,,,,,,,,,,798.7326506,798.7493876,798.7493876,798.7493876,801.7156891999999,j,801.7157370000001,,,801.7157467000001,None,,,0.9946097999998074,0.10144530000002305,,,,,,,,,,00010,001,2025-11-14_12h10.04.262,MST_task,2024.2.2,60.41452824410386,2025-11-14 17h40.18.766832 +0530,
,Scenes\173a.jpg,170,0,170,,,,,,,j,None,,,0.5965934999999263,0.10563150000007226,,,,,170,0,170,0,801.7323149,,,,,,,,,,,,,,,,,,,,,,,801.7158029999999,801.7323149,802.2158605000001,,,,,,,,,,,,,,802.2492653,,,,,,,,,,802.2399437,802.2492653,802.2492653,802.2492653,805.2324216000001,j,805.2324705,,,805.2324809,None,,,0.5965934999999263,0.10563150000007226,,,,,,,,,,00010,001,2025-11-14_12h10.04.262,MST_task,2024.2.2,60.41452824410386,2025-11-14 17h40.18.766832 +0530,
,Scenes\143a.jpg,171,0,171,,,,,,,j,None,,,0.5134345000001304,0.10707919999981641,,,,,171,0,171,0,805.2489053,,,,,,,,,,,,,,,,,,,,,,,805.2325362,805.2489053,805.732447,,,,,,,,,,,,,,805.7822358,,,,,,,,,,805.7606357999999,805.7822358,805.7822358,805.7822358,808.7488492000001,j,808.7488927999999,,,808.7489025000001,None,,,0.5134345000001304,0.10707919999981641,,,,,,,,,,00010,001,2025-11-14_12h10.04.262,MST_task,2024.2.2,60.41452824410386,2025-11-14 17h40.18.766832 +0530,
,Scenes\053a.jpg,172,0,172,,,,,,,j,None,,,0.657713000000058,0.12585919999992257,,,,,172,0,172,0,808.7655002,,,,,,,,,,,,,,,,,,,,,,,808.7489747000001,808.7655002,809.2490285,,,,,,,,,,,,,,809.2823694,,,,,,,,,,809.2661824999999,809.2823694,809.2823694,809.2823694,812.2655009000001,j,812.2655466,,,812.2655568000001,None,,,0.657713000000058,0.12585919999992257,,,,,,,,,,00010,001,2025-11-14_12h10.04.262,MST_task,2024.2.2,60.41452824410386,2025-11-14 17h40.18.766832 +0530,
,Scenes\151a.jpg,173,0,173,,,,,,,j,None,,,1.1363446000000295,0.10863229999995383,,,,,173,0,173,0,812.2820843000001,,,,,,,,,,,,,,,,,,,,,,,812.2656495,812.2820843000001,812.7657012999999,,,,,,,,,,,,,,812.7987503999999,,,,,,,,,,812.7866206,812.7987503999999,812.7987503999999,812.7987503999999,815.7820607,j,815.782106,,,815.7821163,None,,,1.1363446000000295,0.10863229999995383,,,,,,,,,,00010,001,2025-11-14_12h10.04.262,MST_task,2024.2.2,60.41452824410386,2025-11-14 17h40.18.766832 +0530,
,Scenes\095a.jpg,174,0,174,,,,,,,f,None,,,1.3972879000000376,0.1742252000001372,,,,,174,0,174,0,815.7986824999999,,,,,,,,,,,,,,,,,,,,,,,815.7821743000001,815.7986824999999,816.2821700000001,,,,,,,,,,,,,,,,,,,,,,,,816.3152056,816.3322887,816.3322887,816.3322887,819.2987062000001,f,819.2987491,,,819.2987582,None,,,1.3972879000000376,0.1742252000001372,,,,,,,,,,00010,001,2025-11-14_12h10.04.262,MST_task,2024.2.2,60.41452824410386,2025-11-14 17h40.18.766832 +0530,
,Objects\081a.jpg,175,0,175,,,,,,,None,f,0.9817203999998583,None,,,,,,,175,0,175,0,819.3153314,,,,,,,,,,,,,,,,,,,,,,,819.2988372000001,819.3153314,819.7988233,,,,,,,,,,,,,,819.8322281,,,,,,,,,,819.8151683,819.8322281,819.8322281,819.8322281,822.8153561,None,822.8153985,822.8319327,822.8319327,823.8156389,f,0.9817203999998583,None,,,,,,,,,,,,00010,001,2025-11-14_12h10.04.262,MST_task,2024.2.2,60.41452824410386,2025-11-14 17h40.18.766832 +0530,
,Objects\023a.jpg,176,0,176,,,,,,,f,None,,,0.7126210999999785,0.15279420000001664,,,,,176,0,176,0,823.8328009,,,,,,,,,,,,,,,,,,,,,,,823.8157170999999,823.8328009,824.3155962,,,,,,,,,,,,,,824.3486137000001,,,,,,,,,,824.3414772,824.3486137000001,824.3486137000001,824.3486137000001,827.3317846000001,f,827.3318502000001,,,827.3318648999999,None,,,0.7126210999999785,0.15279420000001664,,,,,,,,,,00010,001,2025-11-14_12h10.04.262,MST_task,2024.2.2,60.41452824410386,2025-11-14 17h40.18.766832 +0530,
,Objects\133a.jpg,177,0,177,,,,,,,None,f,0.7768792000001667,None,,,,,,,177,0,177,0,827.3485006,,,,,,,,,,,,,,,,,,,,,,,827.3319242000001,827.3485006,827.8319045,,,,,,,,,,,,,,,,,,,,,,,,827.8495975,827.8650773,827.8650773,827.8650773,830.8483766999999,None,830.8484212,830.8650229000001,830.8650229000001,831.6485767,f,0.7768792000001667,None,,,,,,,,,,,,00010,001,2025-11-14_12h10.04.262,MST_task,2024.2.2,60.41452824410386,2025-11-14 17h40.18.766832 +0530,
,Objects\130a.jpg,178,0,178,,,,,,,f,None,,,0.8883714000000964,0.1459732000000713,,,,,178,0,178,0,831.6650126000001,,,,,,,,,,,,,,,,,,,,,,,831.6486434,831.6650126000001,832.1484624000001,,,,,,,,,,,,,,832.1816941000001,,,,,,,,,,832.1734760999999,832.1816941000001,832.1816941000001,832.1816941000001,835.1649788999999,f,835.1650248,,,835.1650356000001,None,,,0.8883714000000964,0.1459732000000713,,,,,,,,,,00010,001,2025-11-14_12h10.04.262,MST_task,2024.2.2,60.41452824410386,2025-11-14 17h40.18.766832 +0530,
,Objects\027a.jpg,179,0,179,,,,,,,f,None,,,0.6092725999999402,0.12943160000008902,,,,,179,0,179,0,835.1816023,,,,,,,,,,,,,,,,,,,,,,,835.1650931,835.1816023,835.6652204999999,,,,,,,,,,,,,,835.6982191000001,,,,,,,,,,835.6911405,835.6982191000001,835.6982191000001,835.6982191000001,838.6815392,f,838.6815865,,,838.6815975000001,None,,,0.6092725999999402,0.12943160000008902,,,,,,,,,,00010,001,2025-11-14_12h10.04.262,MST_task,2024.2.2,60.41452824410386,2025-11-14 17h40.18.766832 +0530,
,Objects\107a.jpg,180,0,180,,,,,,,f,None,,,0.7869493999999122,0.13392700000008517,,,,,180,0,180,0,838.6981861,,,,,,,,,,,,,,,,,,,,,,,838.6816528999999,838.6981861,839.1818916999999,,,,,,,,,,,,,,839.2148028,,,,,,,,,,839.2056726,839.2148028,839.2148028,839.2148028,842.1982859000001,f,842.1983374,,,842.1983475999999,None,,,0.7869493999999122,0.13392700000008517,,,,,,,,,,00010,001,2025-11-14_12h10.04.262,MST_task,2024.2.2,60.41452824410386,2025-11-14 17h40.18.766832 +0530,
,Objects\164a.jpg,181,0,181,,,,,,,f,None,,,1.318205300000045,0.10416359999999258,,,,,181,0,181,0,842.2147817000001,,,,,,,,,,,,,,,,,,,,,,,842.1984404000001,842.2147817000001,842.6982438000001,,,,,,,,,,,,,,842.7314018000001,,,,,,,,,,842.7266963999999,842.7314018000001,842.7314018000001,842.7314018000001,845.7147291,f,845.7147811000001,,,845.7147928,None,,,1.318205300000045,0.10416359999999258,,,,,,,,,,00010,001,2025-11-14_12h10.04.262,MST_task,2024.2.2,60.41452824410386,2025-11-14 17h40.18.766832 +0530,
,Scenes\042a.jpg,182,0,182,,,,,,,j,None,,,0.934597199999871,0.1620916000001671,,,,,182,0,182,0,845.7313624,,,,,,,,,,,,,,,,,,,,,,,845.7148783000001,845.7313624,846.2148742,,,,,,,,,,,,,,,,,,,,,,,,846.2459593,846.2650342999999,846.2650342999999,846.2650342999999,849.2313141000001,j,849.2313591999999,,,849.2313684,None,,,0.934597199999871,0.1620916000001671,,,,,,,,,,00010,001,2025-11-14_12h10.04.262,MST_task,2024.2.2,60.41452824410386,2025-11-14 17h40.18.766832 +0530,
,Scenes\084a.jpg,183,0,183,,,,,,,j,None,,,2.0409786000000167,0.10183460000007472,,,,,183,0,183,0,849.2479597,,,,,,,,,,,,,,,,,,,,,,,849.2314295,849.2479597,849.7314676,,,,,,,,,,,,,,849.7645868000001,,,,,,,,,,849.7513107999999,849.7645868000001,849.7645868000001,849.7645868000001,852.7479042000001,j,852.7479457999999,,,852.7479557,None,,,2.0409786000000167,0.10183460000007472,,,,,,,,,,00010,001,2025-11-14_12h10.04.262,MST_task,2024.2.2,60.41452824410386,2025-11-14 17h40.18.766832 +0530,
,Scenes\058a.jpg,184,0,184,,,,,,,f,None,,,1.443429500000093,0.12093579999987014,,,,,184,0,184,0,852.7645319,,,,,,,,,,,,,,,,,,,,,,,852.7480311999999,852.7645319,853.2480231999999,,,,,,,,,,,,,,853.2811707,,,,,,,,,,853.2669400999999,853.2811707,853.2811707,853.2811707,856.2645276,f,856.2645712,,,856.2645816,None,,,1.443429500000093,0.12093579999987014,,,,,,,,,,00010,001,2025-11-14_12h10.04.262,MST_task,2024.2.2,60.41452824410386,2025-11-14 17h40.18.766832 +0530,
,Scenes\033a.jpg,185,0,185,,,,,,,j,None,,,0.7214299999998275,0.11704810000014731,,,,,185,0,185,0,856.2811061000001,,,,,,,,,,,,,,,,,,,,,,,856.2646642000001,856.2811061000001,856.7647008,,,,,,,,,,,,,,856.8147842,,,,,,,,,,856.8020863,856.8147842,856.8147842,856.8147842,859.7810717000001,j,859.7811261,,,859.781136,None,,,0.7214299999998275,0.11704810000014731,,,,,,,,,,00010,001,2025-11-14_12h10.04.262,MST_task,2024.2.2,60.41452824410386,2025-11-14 17h40.18.766832 +0530,
,Scenes\119a.jpg,186,0,186,,,,,,,j,None,,,0.5841342000001077,0.13020189999997456,,,,,186,0,186,0,859.7978323000001,,,,,,,,,,,,,,,,,,,,,,,859.78119,859.7978323000001,860.2812766000001,,,,,,,,,,,,,,860.3313081,,,,,,,,,,860.309345,860.3313081,860.3313081,860.3313081,863.2976572000001,j,863.2977133,,,863.2977235,None,,,0.5841342000001077,0.13020189999997456,,,,,,,,,,00010,001,2025-11-14_12h10.04.262,MST_task,2024.2.2,60.41452824410386,2025-11-14 17h40.18.766832 +0530,
,Scenes\051a.jpg,187,0,187,,,,,,,j,None,,,0.8142500999999811,0.12715930000013032,,,,,187,0,187,0,863.3143281000001,,,,,,,,,,,,,,,,,,,,,,,863.2978013000001,863.3143281000001,863.7978455000001,,,,,,,,,,,,,,863.8307189000001,,,,,,,,,,863.8242048000001,863.8307189000001,863.8307189000001,863.8307189000001,866.8142441000001,j,866.8142864,,,866.8142962999999,None,,,0.8142500999999811,0.12715930000013032,,,,,,,,,,00010,001,2025-11-14_12h10.04.262,MST_task,2024.2.2,60.41452824410386,2025-11-14 17h40.18.766832 +0530,
,Scenes\017a.jpg,188,0,188,,,,,,,j,None,,,2.2254553000000215,0.1252044999998816,,,,,188,0,188,0,866.8309187000001,,,,,,,,,,,,,,,,,,,,,,,866.814368,866.8309187000001,867.3144685999999,,,,,,,,,,,,,,867.3645474000001,,,,,,,,,,867.3415083000001,867.3645474000001,867.3645474000001,867.3645474000001,870.3308318,j,870.3308725,,,870.3308826000001,None,,,2.2254553000000215,0.1252044999998816,,,,,,,,,,00010,001,2025-11-14_12h10.04.262,MST_task,2024.2.2,60.41452824410386,2025-11-14 17h40.18.766832 +0530,
,Objects\037a.jpg,189,0,189,,,,,,,j,None,,,2.6875396000000364,0.16166040000007342,,,,,189,0,189,0,870.3475089,,,,,,,,,,,,,,,,,,,,,,,870.3309541,870.3475089,870.8310436,,,,,,,,,,,,,,870.8643899,,,,,,,,,,870.8505058,870.8643899,870.8643899,870.8643899,873.8474517000001,j,873.8474927000001,,,873.8475026,None,,,2.6875396000000364,0.16166040000007342,,,,,,,,,,00010,001,2025-11-14_12h10.04.262,MST_task,2024.2.2,60.41452824410386,2025-11-14 17h40.18.766832 +0530,
,Objects\044a.jpg,190,0,190,,,,,,,j,None,,,1.6718882000000121,0.13023899999984678,,,,,190,0,190,0,873.864099,,,,,,,,,,,,,,,,,,,,,,,873.8475718000001,873.864099,874.3475790000001,,,,,,,,,,,,,,,,,,,,,,,,874.3783164,874.3973823,874.3973823,874.3973823,877.3640151000001,j,877.3640581999999,,,877.3640675,None,,,1.6718882000000121,0.13023899999984678,,,,,,,,,,00010,001,2025-11-14_12h10.04.262,MST_task,2024.2.2,60.41452824410386,2025-11-14 17h40.18.766832 +0530,
,Objects\155a.jpg,191,0,191,,,,,,,f,None,,,0.6263203999999405,0.1414067000000614,,,,,191,0,191,0,877.3806903999999,,,,,,,,,,,,,,,,,,,,,,,877.3641226999999,877.3806903999999,877.8642257,,,,,,,,,,,,,,877.8973152,,,,,,,,,,877.8889169,877.8973152,877.8973152,877.8973152,880.8641034999999,f,880.8641518000001,,,880.8641624,None,,,0.6263203999999405,0.1414067000000614,,,,,,,,,,00010,001,2025-11-14_12h10.04.262,MST_task,2024.2.2,60.41452824410386,2025-11-14 17h40.18.766832 +0530,
,Objects\060a.jpg,192,0,192,,,,,,,j,None,,,1.13197439999999,0.13459039999997913,,,,,192,0,192,0,880.8806077,,,,,,,,,,,,,,,,,,,,,,,880.8642392,880.8806077,881.3641690999999,,,,,,,,,,,,,,881.3972689000001,,,,,,,,,,881.3797695,881.3972689000001,881.3972689000001,881.3972689000001,884.3806786000001,j,884.3807313000001,,,884.3807419999999,None,,,1.13197439999999,0.13459039999997913,,,,,,,,,,00010,001,2025-11-14_12h10.04.262,MST_task,2024.2.2,60.41452824410386,2025-11-14 17h40.18.766832 +0530,
,Objects\161a.jpg,193,0,193,,,,,,,j,None,,,1.297920700000077,0.14937899999995352,,,,,193,0,193,0,884.3972054,,,,,,,,,,,,,,,,,,,,,,,884.3808089,884.3972054,884.8806899,,,,,,,,,,,,,,884.913882,,,,,,,,,,884.8976200000001,884.913882,884.913882,884.913882,887.8971508000001,j,887.8971923,,,887.8972027000001,None,,,1.297920700000077,0.14937899999995352,,,,,,,,,,00010,001,2025-11-14_12h10.04.262,MST_task,2024.2.2,60.41452824410386,2025-11-14 17h40.18.766832 +0530,
,Objects\096a.jpg,194,0,194,,,,,,,f,None,,,0.9855407000000014,0.13739729999997508,,,,,194,0,194,0,887.9137976000001,,,,,,,,,,,,,,,,,,,,,,,887.8972591,887.9137976000001,888.3972683999999,,,,,,,,,,,,,,888.4302911999999,,,,,,,,,,888.4263468,888.4302911999999,888.4302911999999,888.4302911999999,891.4137987,f,891.4138578999999,,,891.4138678999999,None,,,0.9855407000000014,0.13739729999997508,,,,,,,,,,00010,001,2025-11-14_12h10.04.262,MST_task,2024.2.2,60.41452824410386,2025-11-14 17h40.18.766832 +0530,
