thisN,thisTrialN,thisRepN,key_resp_3.keys,key_resp_3.rt,key_resp_3.duration,trials.thisRepN,trials.thisTrialN,trials.thisN,thisRow.t,notes,intro_page.started,text.started,key_resp.started,intro_page.stopped,key_resp.keys,key_resp.rt,key_resp.duration,instructions.started,text_2.started,key_resp_2.started,instructions.stopped,key_resp_2.keys,key_resp_2.rt,key_resp_2.duration,demo1.started,image_1.started,image_2.started,text_7.started,key_resp_6.started,text_9.started,demo1.stopped,key_resp_6.keys,key_resp_6.rt,key_resp_6.duration,demo2.started,image_5.started,image_6.started,text_11.started,text_12.started,key_resp_8.started,demo2.stopped,key_resp_8.keys,key_resp_8.rt,key_resp_8.duration,demo_conclusion.started,text_13.started,key_resp_9.started,demo_conclusion.stopped,key_resp_9.keys,key_resp_9.rt,key_resp_9.duration,start_test.started,text_6.started,key_resp_5.started,start_test.stopped,key_resp_5.keys,key_resp_5.rt,key_resp_5.duration,ISI.started,text_4.started,ISI.stopped,routine_1.started,image.started,text_3.started,key_resp_3.started,routine_1.stopped,image_path,position_of_stimuli,trials.key_resp_3.keys,trials.key_resp_3.rt,trials.key_resp_3.duration,End_page.started,text_5.started,key_resp_4.started,End_page.stopped,key_resp_4.keys,key_resp_4.rt,key_resp_4.duration,participant,session,date,expName,psychopyVersion,frameRate,expStart,
,,,,,,,,,,,0.016072200029157102,0.032318999990820885,0.032318999990820885,3.4247658000094816,space,3.332792100030929,None,,,,,,,,,,,,,,,,,,,,,,,,,,,,,,,,,,,,,,,,,,,,,,,,,,,,,,,,,,,,,,00017,001,2026-01-20_12h47.41.536,MST_test,2024.2.0,59.794557825306576,2026-01-20 12h47.55.958780 +0530,
,,,,,,,,,,,,,,,,,,3.424812400015071,3.4456853999290615,3.4456853999290615,16.442247599945404,space,12.99158399994485,None,,,,,,,,,,,,,,,,,,,,,,,,,,,,,,,,,,,,,,,,,,,,,,,,,,,,,,,00017,001,2026-01-20_12h47.41.536,MST_test,2024.2.0,59.794557825306576,2026-01-20 12h47.55.958780 +0530,
,,,,,,,,,,,,,,,,,,,,,,,,,16.442285199998878,16.458633599919267,16.458633599919267,16.458633599919267,16.458633599919267,16.458633599919267,28.4342063999502,space,11.963619900052436,None,,,,,,,,,,,,,,,,,,,,,,,,,,,,,,,,,,,,,,,,,,,,,00017,001,2026-01-20_12h47.41.536,MST_test,2024.2.0,59.794557825306576,2026-01-20 12h47.55.958780 +0530,
,,,,,,,,,,,,,,,,,,,,,,,,,,,,,,,,,,,28.434234299929813,28.450334699940868,28.450334699940868,28.450334699940868,28.450334699940868,28.450334699940868,32.91633869998623,space,4.458963599987328,None,,,,,,,,,,,,,,,,,,,,,,,,,,,,,,,,,,,00017,001,2026-01-20_12h47.41.536,MST_test,2024.2.0,59.794557825306576,2026-01-20 12h47.55.958780 +0530,
,,,,,,,,,,,,,,,,,,,,,,,,,,,,,,,,,,,,,,,,,,,,,32.91640039999038,32.93236630002502,32.93236630002502,49.591496799956076,space,16.657194399973378,None,,,,,,,,,,,,,,,,,,,,,,,,,,,,00017,001,2026-01-20_12h47.41.536,MST_test,2024.2.0,59.794557825306576,2026-01-20 12h47.55.958780 +0530,
,,,,,,,,,,,,,,,,,,,,,,,,,,,,,,,,,,,,,,,,,,,,,,,,,,,,49.59152739995625,49.60764389997348,49.60764389997348,107.27682219992857,space,57.65401800000109,None,,,,,,,,,,,,,,,,,,,,,00017,001,2026-01-20_12h47.41.536,MST_test,2024.2.0,59.794557825306576,2026-01-20 12h47.55.958780 +0530,
0,0,1,s,2.6413826999487355,None,1,0,0,107.2929941000184,,,,,,,,,,,,,,,,,,,,,,,,,,,,,,,,,,,,,,,,,,,,,,,,,,107.28026359993964,107.2929941000184,107.77830899995752,107.79905659996439,107.81233500002418,107.81233500002418,107.81233500002418,110.45512659999076,Objects\054b.jpg,pre,s,2.6413826999487355,None,,,,,,,,00017,001,2026-01-20_12h47.41.536,MST_test,2024.2.0,59.794557825306576,2026-01-20 12h47.55.958780 +0530,
1,0,2,o,1.8077535999473184,None,2,0,1,110.47077689995058,,,,,,,,,,,,,,,,,,,,,,,,,,,,,,,,,,,,,,,,,,,,,,,,,,110.45522549992893,110.47077689995058,110.95599669998046,110.96546610002406,110.9896375000244,110.9896375000244,110.9896375000244,112.81305759993847,Objects\020a.jpg,mid,o,1.8077535999473184,None,,,,,,,,00017,001,2026-01-20_12h47.41.536,MST_test,2024.2.0,59.794557825306576,2026-01-20 12h47.55.958780 +0530,
2,0,3,s,1.7442416000412777,None,3,0,2,112.82911579997744,,,,,,,,,,,,,,,,,,,,,,,,,,,,,,,,,,,,,,,,,,,,,,,,,,112.81315419997554,112.82911579997744,113.31434069992974,113.3401576000033,113.3656015000306,113.3656015000306,113.3656015000306,115.12130070000421,Scenes\055b.jpg,post,s,1.7442416000412777,None,,,,,,,,00017,001,2026-01-20_12h47.41.536,MST_test,2024.2.0,59.794557825306576,2026-01-20 12h47.55.958780 +0530,
3,0,4,n,1.6473114000400528,None,4,0,3,115.13799830002245,,,,,,,,,,,,,,,,,,,,,,,,,,,,,,,,,,,,,,,,,,,,,,,,,,115.12140049994923,115.13799830002245,115.62218730000313,115.75282149994746,115.77436569996644,115.77436569996644,115.77436569996644,117.4290632000193,Foils\scenes25.jpg,none,n,1.6473114000400528,None,,,,,,,,00017,001,2026-01-20_12h47.41.536,MST_test,2024.2.0,59.794557825306576,2026-01-20 12h47.55.958780 +0530,
4,0,5,s,1.7517438000068069,None,5,0,4,117.44560099998489,,,,,,,,,,,,,,,,,,,,,,,,,,,,,,,,,,,,,,,,,,,,,,,,,,117.42916009994224,117.44560099998489,117.93056419992354,117.9653647999512,117.9811786999926,117.9811786999926,117.9811786999926,119.73733269993681,Scenes\037a.jpg,pre,s,1.7517438000068069,None,,,,,,,,00017,001,2026-01-20_12h47.41.536,MST_test,2024.2.0,59.794557825306576,2026-01-20 12h47.55.958780 +0530,
5,0,6,s,1.9090245000552386,None,6,0,5,119.75326070003211,,,,,,,,,,,,,,,,,,,,,,,,,,,,,,,,,,,,,,,,,,,,,,,,,,119.73742849996779,119.75326070003211,120.23865319998004,120.26309140003286,120.27189949993044,120.27189949993044,120.27189949993044,122.19583650003187,Objects\159b.jpg,mid,s,1.9090245000552386,None,,,,,,,,00017,001,2026-01-20_12h47.41.536,MST_test,2024.2.0,59.794557825306576,2026-01-20 12h47.55.958780 +0530,
6,0,7,o,1.537903800024651,None,7,0,6,122.21186509996187,,,,,,,,,,,,,,,,,,,,,,,,,,,,,,,,,,,,,,,,,,,,,,,,,,122.19596529996488,122.21186509996187,122.69713629991747,122.71843220002484,122.73132549994625,122.73132549994625,122.73132549994625,124.26995989994612,Scenes\166a.jpg,mid,o,1.537903800024651,None,,,,,,,,00017,001,2026-01-20_12h47.41.536,MST_test,2024.2.0,59.794557825306576,2026-01-20 12h47.55.958780 +0530,
7,0,8,o,1.3138786000199616,None,8,0,7,124.28605230001267,,,,,,,,,,,,,,,,,,,,,,,,,,,,,,,,,,,,,,,,,,,,,,,,,,124.27006319991779,124.28605230001267,124.77105600002687,124.79467959993053,124.80359249992762,124.80359249992762,124.80359249992762,126.12653709994629,Objects\071a.jpg,pre,o,1.3138786000199616,None,,,,,,,,00017,001,2026-01-20_12h47.41.536,MST_test,2024.2.0,59.794557825306576,2026-01-20 12h47.55.958780 +0530,
8,0,9,o,1.6009280000580475,None,9,0,8,126.14230069995392,,,,,,,,,,,,,,,,,,,,,,,,,,,,,,,,,,,,,,,,,,,,,,,,,,126.12663389998488,126.14230069995392,126.62763320002705,126.65079789992888,126.66079370002262,126.66079370002262,126.66079370002262,128.26708669995423,Objects\046b.jpg,post,o,1.6009280000580475,None,,,,,,,,00017,001,2026-01-20_12h47.41.536,MST_test,2024.2.0,59.794557825306576,2026-01-20 12h47.55.958780 +0530,
9,0,10,s,1.3873648999724537,None,10,0,9,128.28339240001515,,,,,,,,,,,,,,,,,,,,,,,,,,,,,,,,,,,,,,,,,,,,,,,,,,128.26720130001195,128.28339240001515,128.768219999969,128.7910861999262,128.80173199996352,128.80173199996352,128.80173199996352,130.19053090002853,Objects\177b.jpg,mid,s,1.3873648999724537,None,,,,,,,,00017,001,2026-01-20_12h47.41.536,MST_test,2024.2.0,59.794557825306576,2026-01-20 12h47.55.958780 +0530,
10,0,11,n,1.2251012000488117,None,11,0,10,130.2067826000275,,,,,,,,,,,,,,,,,,,,,,,,,,,,,,,,,,,,,,,,,,,,,,,,,,130.1906248999294,130.2067826000275,130.69164209999144,130.71494550001808,130.72513129992876,130.72513129992876,130.72513129992876,131.96342469996307,Foils\049a.jpg,none,n,1.2251012000488117,None,,,,,,,,00017,001,2026-01-20_12h47.41.536,MST_test,2024.2.0,59.794557825306576,2026-01-20 12h47.55.958780 +0530,
11,0,12,n,1.372871799976565,None,12,0,11,131.97941809997428,,,,,,,,,,,,,,,,,,,,,,,,,,,,,,,,,,,,,,,,,,,,,,,,,,131.96352390001994,131.97941809997428,132.46460219996516,132.4877884000307,132.4978848999599,132.4978848999599,132.4978848999599,133.88708439993206,Foils\098a.jpg,none,n,1.372871799976565,None,,,,,,,,00017,001,2026-01-20_12h47.41.536,MST_test,2024.2.0,59.794557825306576,2026-01-20 12h47.55.958780 +0530,
12,0,13,s,2.2474341000197455,None,13,0,12,133.902819299954,,,,,,,,,,,,,,,,,,,,,,,,,,,,,,,,,,,,,,,,,,,,,,,,,,133.88717759994324,133.902819299954,134.38806609995663,134.4071050999919,134.4220511999447,134.4220511999447,134.4220511999447,136.68008379999083,Foils\scenes12.jpg,none,s,2.2474341000197455,None,,,,,,,,00017,001,2026-01-20_12h47.41.536,MST_test,2024.2.0,59.794557825306576,2026-01-20 12h47.55.958780 +0530,
13,0,14,s,1.4788287000264972,None,14,0,13,136.6958459999878,,,,,,,,,,,,,,,,,,,,,,,,,,,,,,,,,,,,,,,,,,,,,,,,,,136.68018159992062,136.6958459999878,137.18117070000153,137.20510339993052,137.21462320000865,137.21462320000865,137.21462320000865,138.70356930000708,Objects\118b.jpg,mid,s,1.4788287000264972,None,,,,,,,,00017,001,2026-01-20_12h47.41.536,MST_test,2024.2.0,59.794557825306576,2026-01-20 12h47.55.958780 +0530,
14,0,15,o,1.4235245999880135,None,15,0,14,138.71969129994977,,,,,,,,,,,,,,,,,,,,,,,,,,,,,,,,,,,,,,,,,,,,,,,,,,138.70366200001445,138.71969129994977,139.2048854000168,139.22880859998986,139.23815849993844,139.23815849993844,139.23815849993844,140.6774962999625,Objects\003b.jpg,pre,o,1.4235245999880135,None,,,,,,,,00017,001,2026-01-20_12h47.41.536,MST_test,2024.2.0,59.794557825306576,2026-01-20 12h47.55.958780 +0530,
15,0,16,o,3.0892056999728084,None,16,0,15,140.69338129996322,,,,,,,,,,,,,,,,,,,,,,,,,,,,,,,,,,,,,,,,,,,,,,,,,,140.67758839996532,140.69338129996322,141.17834719992243,141.20177839999087,141.2118557000067,141.2118557000067,141.2118557000067,144.30651219992433,Objects\117b.jpg,post,o,3.0892056999728084,None,,,,,,,,00017,001,2026-01-20_12h47.41.536,MST_test,2024.2.0,59.794557825306576,2026-01-20 12h47.55.958780 +0530,
16,0,17,s,1.6608300000661984,None,17,0,16,144.32276180002373,,,,,,,,,,,,,,,,,,,,,,,,,,,,,,,,,,,,,,,,,,,,,,,,,,144.30661560001317,144.32276180002373,144.80772189993877,144.8264804999344,144.84123339992948,144.84123339992948,144.84123339992948,146.51449059997685,Foils\scenes13.jpg,none,s,1.6608300000661984,None,,,,,,,,00017,001,2026-01-20_12h47.41.536,MST_test,2024.2.0,59.794557825306576,2026-01-20 12h47.55.958780 +0530,
17,0,18,s,1.604393000015989,None,18,0,17,146.5303723999532,,,,,,,,,,,,,,,,,,,,,,,,,,,,,,,,,,,,,,,,,,,,,,,,,,146.51458299998194,146.5303723999532,147.01584859995637,147.03351079998538,147.04895319999196,147.04895319999196,147.04895319999196,148.6551089999266,Foils\scenes8.jpg,none,s,1.604393000015989,None,,,,,,,,00017,001,2026-01-20_12h47.41.536,MST_test,2024.2.0,59.794557825306576,2026-01-20 12h47.55.958780 +0530,
18,0,19,s,1.8466329000657424,None,19,0,18,148.67088699992746,,,,,,,,,,,,,,,,,,,,,,,,,,,,,,,,,,,,,,,,,,,,,,,,,,148.65521190001164,148.67088699992746,149.15611769992393,149.19423189992085,149.20718399994075,149.20718399994075,149.20718399994075,151.0636975999223,Scenes\172b.jpg,pre,s,1.8466329000657424,None,,,,,,,,00017,001,2026-01-20_12h47.41.536,MST_test,2024.2.0,59.794557825306576,2026-01-20 12h47.55.958780 +0530,
19,0,20,o,3.334919900051318,None,20,0,19,151.07933749991935,,,,,,,,,,,,,,,,,,,,,,,,,,,,,,,,,,,,,,,,,,,,,,,,,,151.0638006000081,151.07933749991935,151.56488499999978,151.58778409997467,151.59802689997014,151.59802689997014,151.59802689997014,154.94366019999143,Objects\096b.jpg,pre,o,3.334919900051318,None,,,,,,,,00017,001,2026-01-20_12h47.41.536,MST_test,2024.2.0,59.794557825306576,2026-01-20 12h47.55.958780 +0530,
20,0,21,o,1.3802689000731334,None,21,0,20,154.95957950002048,,,,,,,,,,,,,,,,,,,,,,,,,,,,,,,,,,,,,,,,,,,,,,,,,,154.94375279999804,154.95957950002048,155.44481619994622,155.49079239997081,155.51314809999894,155.51314809999894,155.51314809999894,156.90057469997555,Scenes\065b.jpg,pre,o,1.3802689000731334,None,,,,,,,,00017,001,2026-01-20_12h47.41.536,MST_test,2024.2.0,59.794557825306576,2026-01-20 12h47.55.958780 +0530,
21,0,22,s,1.506552099948749,None,22,0,21,156.91661099996418,,,,,,,,,,,,,,,,,,,,,,,,,,,,,,,,,,,,,,,,,,,,,,,,,,156.90067200001795,156.91661099996418,157.40183290001005,157.42341859999578,157.43516039999668,157.43516039999668,157.43516039999668,158.95783999993,Objects\173a.jpg,post,s,1.506552099948749,None,,,,,,,,00017,001,2026-01-20_12h47.41.536,MST_test,2024.2.0,59.794557825306576,2026-01-20 12h47.55.958780 +0530,
22,0,23,n,3.0159761999966577,None,23,0,22,158.97392589994706,,,,,,,,,,,,,,,,,,,,,,,,,,,,,,,,,,,,,,,,,,,,,,,,,,158.95793739997316,158.97392589994706,159.45891849999316,159.49466640001629,159.50977150001563,159.50977150001563,159.50977150001563,162.53665050002746,Scenes\184b.jpg,pre,n,3.0159761999966577,None,,,,,,,,00017,001,2026-01-20_12h47.41.536,MST_test,2024.2.0,59.794557825306576,2026-01-20 12h47.55.958780 +0530,
23,0,24,s,1.4925438999198377,None,24,0,23,162.5543077000184,,,,,,,,,,,,,,,,,,,,,,,,,,,,,,,,,,,,,,,,,,,,,,,,,,162.53674220002722,162.5543077000184,163.03821189992595,163.05800449999515,163.0723337000236,163.0723337000236,163.0723337000236,164.5772575000301,Foils\scenes14.jpg,none,s,1.4925438999198377,None,,,,,,,,00017,001,2026-01-20_12h47.41.536,MST_test,2024.2.0,59.794557825306576,2026-01-20 12h47.55.958780 +0530,
24,0,25,n,2.4775971999624744,None,25,0,24,164.59349659993313,,,,,,,,,,,,,,,,,,,,,,,,,,,,,,,,,,,,,,,,,,,,,,,,,,164.57735539996065,164.59349659993313,165.07867880002595,165.0959038999863,165.111928600003,165.111928600003,165.111928600003,167.60449649998918,Foils\scenes20.jpg,none,n,2.4775971999624744,None,,,,,,,,00017,001,2026-01-20_12h47.41.536,MST_test,2024.2.0,59.794557825306576,2026-01-20 12h47.55.958780 +0530,
25,0,26,s,1.3536734000081196,None,26,0,25,167.62076850002632,,,,,,,,,,,,,,,,,,,,,,,,,,,,,,,,,,,,,,,,,,,,,,,,,,167.60459330002777,167.62076850002632,168.10598029999528,168.13040249992628,168.1400893999962,168.1400893999962,168.1400893999962,169.49462399992626,Foils\018a.jpg,none,s,1.3536734000081196,None,,,,,,,,00017,001,2026-01-20_12h47.41.536,MST_test,2024.2.0,59.794557825306576,2026-01-20 12h47.55.958780 +0530,
26,0,27,o,1.9616446000291035,None,27,0,26,169.5105267999461,,,,,,,,,,,,,,,,,,,,,,,,,,,,,,,,,,,,,,,,,,,,,,,,,,169.49472730001435,169.5105267999461,169.99574799998663,170.01990680000745,170.02897699992172,170.02897699992172,170.02897699992172,172.0032627999317,Objects\008b.jpg,pre,o,1.9616446000291035,None,,,,,,,,00017,001,2026-01-20_12h47.41.536,MST_test,2024.2.0,59.794557825306576,2026-01-20 12h47.55.958780 +0530,
27,0,28,s,1.6910024000098929,None,28,0,27,172.01944579998963,,,,,,,,,,,,,,,,,,,,,,,,,,,,,,,,,,,,,,,,,,,,,,,,,,172.00336129998323,172.01944579998963,172.5044224000303,172.54393909999635,172.55461559991818,172.55461559991818,172.55461559991818,174.26131480000913,Scenes\029b.jpg,post,s,1.6910024000098929,None,,,,,,,,00017,001,2026-01-20_12h47.41.536,MST_test,2024.2.0,59.794557825306576,2026-01-20 12h47.55.958780 +0530,
28,0,29,o,1.3216359000653028,None,29,0,28,174.27723419992253,,,,,,,,,,,,,,,,,,,,,,,,,,,,,,,,,,,,,,,,,,,,,,,,,,174.2614091000287,174.27723419992253,174.76243419991806,174.7834268999286,174.79579979996197,174.79579979996197,174.79579979996197,176.13466119999066,Objects\023a.jpg,mid,o,1.3216359000653028,None,,,,,,,,00017,001,2026-01-20_12h47.41.536,MST_test,2024.2.0,59.794557825306576,2026-01-20 12h47.55.958780 +0530,
29,0,30,o,1.3999439999461174,None,30,0,29,176.15078769996762,,,,,,,,,,,,,,,,,,,,,,,,,,,,,,,,,,,,,,,,,,,,,,,,,,176.13476159994025,176.15078769996762,176.63565940002445,176.6580254000146,176.66897020000033,176.66897020000033,176.66897020000033,178.0745374999242,Objects\032b.jpg,mid,o,1.3999439999461174,None,,,,,,,,00017,001,2026-01-20_12h47.41.536,MST_test,2024.2.0,59.794557825306576,2026-01-20 12h47.55.958780 +0530,
30,0,31,s,1.8603624999523163,None,31,0,30,178.0906937000109,,,,,,,,,,,,,,,,,,,,,,,,,,,,,,,,,,,,,,,,,,,,,,,,,,178.07463259994984,178.0906937000109,178.57568669994362,178.59397179994266,178.60920409997925,178.60920409997925,178.60920409997925,180.4828699999489,Scenes\113a.jpg,pre,s,1.8603624999523163,None,,,,,,,,00017,001,2026-01-20_12h47.41.536,MST_test,2024.2.0,59.794557825306576,2026-01-20 12h47.55.958780 +0530,
31,0,32,o,2.0264079000335187,None,32,0,31,180.49901999998838,,,,,,,,,,,,,,,,,,,,,,,,,,,,,,,,,,,,,,,,,,,,,,,,,,180.4829674999928,180.49901999998838,180.98453479993623,181.02384219993837,181.03454110003076,181.03454110003076,181.03454110003076,183.07547889999114,Scenes\043a.jpg,post,o,2.0264079000335187,None,,,,,,,,00017,001,2026-01-20_12h47.41.536,MST_test,2024.2.0,59.794557825306576,2026-01-20 12h47.55.958780 +0530,
32,0,33,n,2.4504298999672756,None,33,0,32,183.0915528999176,,,,,,,,,,,,,,,,,,,,,,,,,,,,,,,,,,,,,,,,,,,,,,,,,,183.07557200000156,183.0915528999176,183.57653219997883,183.5940086999908,183.6111477999948,183.6111477999948,183.6111477999948,186.06924510002136,Foils\scenes3.jpg,none,n,2.4504298999672756,None,,,,,,,,00017,001,2026-01-20_12h47.41.536,MST_test,2024.2.0,59.794557825306576,2026-01-20 12h47.55.958780 +0530,
33,0,34,s,2.7696876999689266,None,34,0,33,186.08525250002276,,,,,,,,,,,,,,,,,,,,,,,,,,,,,,,,,,,,,,,,,,,,,,,,,,186.06934729998466,186.08525250002276,186.5703093999764,186.60774200002197,186.62053239997476,186.62053239997476,186.62053239997476,189.39800059993286,Scenes\093b.jpg,post,s,2.7696876999689266,None,,,,,,,,00017,001,2026-01-20_12h47.41.536,MST_test,2024.2.0,59.794557825306576,2026-01-20 12h47.55.958780 +0530,
34,0,35,o,1.4958231000928208,None,35,0,34,189.41358579997905,,,,,,,,,,,,,,,,,,,,,,,,,,,,,,,,,,,,,,,,,,,,,,,,,,189.39811009995174,189.41358579997905,189.89879050001036,189.92081259994302,189.93311159999575,189.93311159999575,189.93311159999575,191.43797839991748,Objects\127a.jpg,mid,o,1.4958231000928208,None,,,,,,,,00017,001,2026-01-20_12h47.41.536,MST_test,2024.2.0,59.794557825306576,2026-01-20 12h47.55.958780 +0530,
35,0,36,o,1.0647180000087246,None,36,0,35,191.45419780001976,,,,,,,,,,,,,,,,,,,,,,,,,,,,,,,,,,,,,,,,,,,,,,,,,,191.43807679996826,191.45419780001976,191.93926439993083,191.96155180002097,191.9726455999771,191.9726455999771,191.9726455999771,193.04358699999284,Objects\085a.jpg,mid,o,1.0647180000087246,None,,,,,,,,00017,001,2026-01-20_12h47.41.536,MST_test,2024.2.0,59.794557825306576,2026-01-20 12h47.55.958780 +0530,
36,0,37,s,2.042523800046183,None,37,0,36,193.05979420000222,,,,,,,,,,,,,,,,,,,,,,,,,,,,,,,,,,,,,,,,,,,,,,,,,,193.04368170001544,193.05979420000222,193.54474739998113,193.5820596999256,193.5949623999186,193.5949623999186,193.5949623999186,195.65277939999942,Scenes\114a.jpg,mid,s,2.042523800046183,None,,,,,,,,00017,001,2026-01-20_12h47.41.536,MST_test,2024.2.0,59.794557825306576,2026-01-20 12h47.55.958780 +0530,
37,0,38,s,1.9558552999515086,None,38,0,37,195.6689250000054,,,,,,,,,,,,,,,,,,,,,,,,,,,,,,,,,,,,,,,,,,,,,,,,,,195.65287420002278,195.6689250000054,196.15389810001943,196.17759999993723,196.18725359998643,196.18725359998643,196.18725359998643,198.14482369995676,Objects\184b.jpg,pre,s,1.9558552999515086,None,,,,,,,,00017,001,2026-01-20_12h47.41.536,MST_test,2024.2.0,59.794557825306576,2026-01-20 12h47.55.958780 +0530,
38,0,39,n,2.0772629999555647,None,39,0,38,198.1608715999173,,,,,,,,,,,,,,,,,,,,,,,,,,,,,,,,,,,,,,,,,,,,,,,,,,198.14491429994814,198.1608715999173,198.64677290001418,198.98146749997977,199.01566529995762,199.01566529995762,199.01566529995762,201.1054065999342,Foils\scenes26.jpg,none,n,2.0772629999555647,None,,,,,,,,00017,001,2026-01-20_12h47.41.536,MST_test,2024.2.0,59.794557825306576,2026-01-20 12h47.55.958780 +0530,
39,0,40,o,3.332626400049776,None,40,0,39,201.12164149992168,,,,,,,,,,,,,,,,,,,,,,,,,,,,,,,,,,,,,,,,,,,,,,,,,,201.10550269996747,201.12164149992168,201.60662099998444,201.6465867999941,201.6579065999249,201.6579065999249,201.6579065999249,205.00260210002307,Scenes\178a.jpg,post,o,3.332626400049776,None,,,,,,,,00017,001,2026-01-20_12h47.41.536,MST_test,2024.2.0,59.794557825306576,2026-01-20 12h47.55.958780 +0530,
40,0,41,s,1.5722536999965087,None,41,0,40,205.01850829995237,,,,,,,,,,,,,,,,,,,,,,,,,,,,,,,,,,,,,,,,,,,,,,,,,,205.00270039995667,205.01850829995237,205.50377109996043,205.52964159997646,205.5370570999803,205.5370570999803,205.5370570999803,207.10997629992198,Objects\082b.jpg,pre,s,1.5722536999965087,None,,,,,,,,00017,001,2026-01-20_12h47.41.536,MST_test,2024.2.0,59.794557825306576,2026-01-20 12h47.55.958780 +0530,
41,0,42,o,1.7286320000421256,None,42,0,41,207.12588049995247,,,,,,,,,,,,,,,,,,,,,,,,,,,,,,,,,,,,,,,,,,,,,,,,,,207.11007629998494,207.12588049995247,207.61110420001205,207.6341862999834,207.6443614999298,207.6443614999298,207.6443614999298,209.3845187999541,Objects\009a.jpg,post,o,1.7286320000421256,None,,,,,,,,00017,001,2026-01-20_12h47.41.536,MST_test,2024.2.0,59.794557825306576,2026-01-20 12h47.55.958780 +0530,
42,0,43,o,1.9165881000226364,None,43,0,42,209.4007408999605,,,,,,,,,,,,,,,,,,,,,,,,,,,,,,,,,,,,,,,,,,,,,,,,,,209.38461800001096,209.4007408999605,209.88562880002428,209.92745479999576,209.93703259993345,209.93703259993345,209.93703259993345,211.85991529992316,Scenes\134a.jpg,mid,o,1.9165881000226364,None,,,,,,,,00017,001,2026-01-20_12h47.41.536,MST_test,2024.2.0,59.794557825306576,2026-01-20 12h47.55.958780 +0530,
43,0,44,n,1.49886749999132,None,44,0,43,211.87598220002837,,,,,,,,,,,,,,,,,,,,,,,,,,,,,,,,,,,,,,,,,,,,,,,,,,211.86001139995642,211.87598220002837,212.36105079995468,212.38647879997734,212.39431899995543,212.39431899995543,212.39431899995543,213.90058919996955,Foils\020b.jpg,none,n,1.49886749999132,None,,,,,,,,00017,001,2026-01-20_12h47.41.536,MST_test,2024.2.0,59.794557825306576,2026-01-20 12h47.55.958780 +0530,
44,0,45,s,1.7623940999619663,None,45,0,44,213.9164477000013,,,,,,,,,,,,,,,,,,,,,,,,,,,,,,,,,,,,,,,,,,,,,,,,,,213.90068229997996,213.9164477000013,214.4015893000178,214.41781569994055,214.4349406999536,214.4349406999536,214.4349406999536,216.20853639999405,Objects\130a.jpg,pre,s,1.7623940999619663,None,,,,,,,,00017,001,2026-01-20_12h47.41.536,MST_test,2024.2.0,59.794557825306576,2026-01-20 12h47.55.958780 +0530,
45,0,46,s,1.7257245000218973,None,46,0,45,216.22441030002665,,,,,,,,,,,,,,,,,,,,,,,,,,,,,,,,,,,,,,,,,,,,,,,,,,216.20863579993602,216.22441030002665,216.70964469993487,216.74732780002523,216.7596861999482,216.7596861999482,216.7596861999482,218.49979879998136,Scenes\189a.jpg,pre,s,1.7257245000218973,None,,,,,,,,00017,001,2026-01-20_12h47.41.536,MST_test,2024.2.0,59.794557825306576,2026-01-20 12h47.55.958780 +0530,
46,0,47,o,1.1719455999555066,None,47,0,46,218.51602280000225,,,,,,,,,,,,,,,,,,,,,,,,,,,,,,,,,,,,,,,,,,,,,,,,,,218.4998934000032,218.51602280000225,219.0019799999427,219.02674459991977,219.03375850000884,219.03375850000884,219.03375850000884,220.20622809999622,Objects\015a.jpg,post,o,1.1719455999555066,None,,,,,,,,00017,001,2026-01-20_12h47.41.536,MST_test,2024.2.0,59.794557825306576,2026-01-20 12h47.55.958780 +0530,
47,0,48,o,1.4490637000417337,None,48,0,47,220.22244499996305,,,,,,,,,,,,,,,,,,,,,,,,,,,,,,,,,,,,,,,,,,,,,,,,,,220.20636299997568,220.22244499996305,220.70688149996568,220.72913619992323,220.7404190999223,220.7404190999223,220.7404190999223,222.19600390002597,Objects\192a.jpg,post,o,1.4490637000417337,None,,,,,,,,00017,001,2026-01-20_12h47.41.536,MST_test,2024.2.0,59.794557825306576,2026-01-20 12h47.55.958780 +0530,
48,0,49,n,1.617585700005293,None,49,0,48,222.21216110000387,,,,,,,,,,,,,,,,,,,,,,,,,,,,,,,,,,,,,,,,,,,,,,,,,,222.196095900028,222.21216110000387,222.69725079997443,222.71617629996035,222.73149479995482,222.73149479995482,222.73149479995482,224.35361589991953,Foils\scenes30.jpg,none,n,1.617585700005293,None,,,,,,,,00017,001,2026-01-20_12h47.41.536,MST_test,2024.2.0,59.794557825306576,2026-01-20 12h47.55.958780 +0530,
49,0,50,s,1.78755549993366,None,50,0,49,224.36960700002965,,,,,,,,,,,,,,,,,,,,,,,,,,,,,,,,,,,,,,,,,,,,,,,,,,224.35371549997944,224.36960700002965,224.8547869999893,224.90136529994197,224.92236339999363,224.92236339999363,224.92236339999363,226.71195499994792,Scenes\001a.jpg,pre,s,1.78755549993366,None,,,,,,,,00017,001,2026-01-20_12h47.41.536,MST_test,2024.2.0,59.794557825306576,2026-01-20 12h47.55.958780 +0530,
50,0,51,s,1.9171439999481663,None,51,0,50,226.72786290000658,,,,,,,,,,,,,,,,,,,,,,,,,,,,,,,,,,,,,,,,,,,,,,,,,,226.712049499969,226.72786290000658,227.21308349992614,227.24828189995605,227.26419799996074,227.26419799996074,227.26419799996074,229.18733789992984,Scenes\186b.jpg,post,s,1.9171439999481663,None,,,,,,,,00017,001,2026-01-20_12h47.41.536,MST_test,2024.2.0,59.794557825306576,2026-01-20 12h47.55.958780 +0530,
51,0,52,o,1.259176299907267,None,52,0,51,229.20343280001543,,,,,,,,,,,,,,,,,,,,,,,,,,,,,,,,,,,,,,,,,,,,,,,,,,229.1874308999395,229.20343280001543,229.68827439995948,229.7123229999561,229.7224361000117,229.7224361000117,229.7224361000117,230.99358649994247,Objects\018a.jpg,post,o,1.259176299907267,None,,,,,,,,00017,001,2026-01-20_12h47.41.536,MST_test,2024.2.0,59.794557825306576,2026-01-20 12h47.55.958780 +0530,
52,0,53,s,1.4050475000403821,None,53,0,52,231.00963099999353,,,,,,,,,,,,,,,,,,,,,,,,,,,,,,,,,,,,,,,,,,,,,,,,,,230.99368559999857,231.00963099999353,231.4947480999399,231.51844679994974,231.52825889992528,231.52825889992528,231.52825889992528,232.95041189994663,Objects\080b.jpg,post,s,1.4050475000403821,None,,,,,,,,00017,001,2026-01-20_12h47.41.536,MST_test,2024.2.0,59.794557825306576,2026-01-20 12h47.55.958780 +0530,
53,0,54,s,1.5358508999925107,None,54,0,53,232.96654609998222,,,,,,,,,,,,,,,,,,,,,,,,,,,,,,,,,,,,,,,,,,,,,,,,,,232.95050659996923,232.96654609998222,233.45148289995268,233.4754985999316,233.48509460000787,233.48509460000787,233.48509460000787,235.02474239992443,Objects\079b.jpg,mid,s,1.5358508999925107,None,,,,,,,,00017,001,2026-01-20_12h47.41.536,MST_test,2024.2.0,59.794557825306576,2026-01-20 12h47.55.958780 +0530,
54,0,55,s,1.645702900015749,None,55,0,54,235.04044389992487,,,,,,,,,,,,,,,,,,,,,,,,,,,,,,,,,,,,,,,,,,,,,,,,,,235.024855799973,235.04044389992487,235.5255258999532,235.54825639992487,235.55918089998886,235.55918089998886,235.55918089998886,237.21521639998537,Foils\065a.jpg,none,s,1.645702900015749,None,,,,,,,,00017,001,2026-01-20_12h47.41.536,MST_test,2024.2.0,59.794557825306576,2026-01-20 12h47.55.958780 +0530,
55,0,56,n,1.7276723999530077,None,56,0,55,237.23131489998195,,,,,,,,,,,,,,,,,,,,,,,,,,,,,,,,,,,,,,,,,,,,,,,,,,237.2153128000209,237.23131489998195,237.7166493999539,237.74015750002582,237.74977989995386,237.74977989995386,237.74977989995386,239.49007800000254,Foils\090a.jpg,none,n,1.7276723999530077,None,,,,,,,,00017,001,2026-01-20_12h47.41.536,MST_test,2024.2.0,59.794557825306576,2026-01-20 12h47.55.958780 +0530,
56,0,57,s,1.5160515999887139,None,57,0,56,239.50606099993456,,,,,,,,,,,,,,,,,,,,,,,,,,,,,,,,,,,,,,,,,,,,,,,,,,239.490173600032,239.50606099993456,239.99071499996353,240.00880509999115,240.02511839999352,240.02511839999352,240.02511839999352,241.5465863000136,Foils\scenes1.jpg,none,s,1.5160515999887139,None,,,,,,,,00017,001,2026-01-20_12h47.41.536,MST_test,2024.2.0,59.794557825306576,2026-01-20 12h47.55.958780 +0530,
57,0,58,o,2.036393699934706,None,58,0,57,241.5628626999678,,,,,,,,,,,,,,,,,,,,,,,,,,,,,,,,,,,,,,,,,,,,,,,,,,241.54669170000125,241.5628626999678,242.0480811999878,242.07143499993253,242.0812790999189,242.0812790999189,242.0812790999189,244.12266440002713,Objects\017b.jpg,pre,o,2.036393699934706,None,,,,,,,,00017,001,2026-01-20_12h47.41.536,MST_test,2024.2.0,59.794557825306576,2026-01-20 12h47.55.958780 +0530,
58,0,59,s,2.0840327000478283,None,59,0,58,244.13865420001093,,,,,,,,,,,,,,,,,,,,,,,,,,,,,,,,,,,,,,,,,,,,,,,,,,244.1227666999912,244.13865420001093,244.6238078000024,244.6469337999588,244.65722009993624,244.65722009993624,244.65722009993624,246.7481443999568,Objects\144b.jpg,pre,s,2.0840327000478283,None,,,,,,,,00017,001,2026-01-20_12h47.41.536,MST_test,2024.2.0,59.794557825306576,2026-01-20 12h47.55.958780 +0530,
59,0,60,s,1.5446836999617517,None,60,0,59,246.76468199992087,,,,,,,,,,,,,,,,,,,,,,,,,,,,,,,,,,,,,,,,,,,,,,,,,,246.74824260000605,246.76468199992087,247.2496360000223,247.29557529999875,247.31746369996108,247.31746369996108,247.31746369996108,248.87253439996857,Scenes\120a.jpg,post,s,1.5446836999617517,None,,,,,,,,00017,001,2026-01-20_12h47.41.536,MST_test,2024.2.0,59.794557825306576,2026-01-20 12h47.55.958780 +0530,
60,0,61,s,1.1161109999520704,None,61,0,60,248.88877930003218,,,,,,,,,,,,,,,,,,,,,,,,,,,,,,,,,,,,,,,,,,,,,,,,,,248.87262909999117,248.88877930003218,249.37376480002422,249.4040190000087,249.42515169992112,249.42515169992112,249.42515169992112,250.54590779996943,Scenes\050a.jpg,mid,s,1.1161109999520704,None,,,,,,,,00017,001,2026-01-20_12h47.41.536,MST_test,2024.2.0,59.794557825306576,2026-01-20 12h47.55.958780 +0530,
61,0,62,s,1.860377199947834,None,62,0,61,250.56151209992822,,,,,,,,,,,,,,,,,,,,,,,,,,,,,,,,,,,,,,,,,,,,,,,,,,250.54600770003162,250.56151209992822,251.0462987999199,251.0718958999496,251.08055820001755,251.08055820001755,251.08055820001755,252.9533868000144,Objects\043b.jpg,pre,s,1.860377199947834,None,,,,,,,,00017,001,2026-01-20_12h47.41.536,MST_test,2024.2.0,59.794557825306576,2026-01-20 12h47.55.958780 +0530,
62,0,63,o,1.4277960999170318,None,63,0,62,252.96946289995685,,,,,,,,,,,,,,,,,,,,,,,,,,,,,,,,,,,,,,,,,,,,,,,,,,252.95348060003016,252.96946289995685,253.45467379991896,253.49699649994727,253.50559820001945,253.50559820001945,253.50559820001945,254.94359419995453,Scenes\002b.jpg,mid,o,1.4277960999170318,None,,,,,,,,00017,001,2026-01-20_12h47.41.536,MST_test,2024.2.0,59.794557825306576,2026-01-20 12h47.55.958780 +0530,
63,0,64,o,1.8301269999938086,None,64,0,63,254.95987729995977,,,,,,,,,,,,,,,,,,,,,,,,,,,,,,,,,,,,,,,,,,,,,,,,,,254.943687699968,254.95987729995977,255.4449740999844,255.48240440001246,255.49581979995128,255.49581979995128,255.49581979995128,257.3358140999917,Scenes\003a.jpg,pre,o,1.8301269999938086,None,,,,,,,,00017,001,2026-01-20_12h47.41.536,MST_test,2024.2.0,59.794557825306576,2026-01-20 12h47.55.958780 +0530,
64,0,65,s,2.222645999980159,None,65,0,64,257.35176210000645,,,,,,,,,,,,,,,,,,,,,,,,,,,,,,,,,,,,,,,,,,,,,,,,,,257.3359095000196,257.35176210000645,257.8365630999906,257.86173290002625,257.8708716999972,257.8708716999972,257.8708716999972,260.0952859999379,Objects\157a.jpg,mid,s,2.222645999980159,None,,,,,,,,00017,001,2026-01-20_12h47.41.536,MST_test,2024.2.0,59.794557825306576,2026-01-20 12h47.55.958780 +0530,
65,0,66,o,1.4636732999933884,None,66,0,65,260.11136879993137,,,,,,,,,,,,,,,,,,,,,,,,,,,,,,,,,,,,,,,,,,,,,,,,,,260.09538369998336,260.11136879993137,260.5963068000274,260.6167140000034,260.6296938000014,260.6296938000014,260.6296938000014,262.1021033999277,Objects\094a.jpg,post,o,1.4636732999933884,None,,,,,,,,00017,001,2026-01-20_12h47.41.536,MST_test,2024.2.0,59.794557825306576,2026-01-20 12h47.55.958780 +0530,
66,0,67,s,1.9990537000121549,None,67,0,66,262.11815889994614,,,,,,,,,,,,,,,,,,,,,,,,,,,,,,,,,,,,,,,,,,,,,,,,,,262.10219829995185,262.11815889994614,262.6033862999175,262.63683169998694,262.6540927999886,262.6540927999886,262.6540927999886,264.66111440001987,Scenes\110b.jpg,post,s,1.9990537000121549,None,,,,,,,,00017,001,2026-01-20_12h47.41.536,MST_test,2024.2.0,59.794557825306576,2026-01-20 12h47.55.958780 +0530,
67,0,68,n,1.3614293999271467,None,68,0,67,264.6772412999999,,,,,,,,,,,,,,,,,,,,,,,,,,,,,,,,,,,,,,,,,,,,,,,,,,264.6612249999307,264.6772412999999,265.16231929999776,265.18575659999624,265.1958486000076,265.1958486000076,265.1958486000076,266.5678627999732,Foils\106a.jpg,none,n,1.3614293999271467,None,,,,,,,,00017,001,2026-01-20_12h47.41.536,MST_test,2024.2.0,59.794557825306576,2026-01-20 12h47.55.958780 +0530,
68,0,69,o,1.3503332999534905,None,69,0,68,266.5850084000267,,,,,,,,,,,,,,,,,,,,,,,,,,,,,,,,,,,,,,,,,,,,,,,,,,266.5679657999426,266.5850084000267,267.0690000000177,267.0888651999412,267.1027209999738,267.1027209999738,267.1027209999738,268.45781659998465,Objects\142a.jpg,post,o,1.3503332999534905,None,,,,,,,,00017,001,2026-01-20_12h47.41.536,MST_test,2024.2.0,59.794557825306576,2026-01-20 12h47.55.958780 +0530,
69,0,70,s,2.1321152000455186,None,70,0,69,268.47390679991804,,,,,,,,,,,,,,,,,,,,,,,,,,,,,,,,,,,,,,,,,,,,,,,,,,268.45791310002096,268.47390679991804,268.9591261999449,268.99723640002776,269.0099750999361,269.0099750999361,269.0099750999361,271.1505208000308,Scenes\183b.jpg,mid,s,2.1321152000455186,None,,,,,,,,00017,001,2026-01-20_12h47.41.536,MST_test,2024.2.0,59.794557825306576,2026-01-20 12h47.55.958780 +0530,
70,0,71,o,1.3438169999280944,None,71,0,70,271.1666835999349,,,,,,,,,,,,,,,,,,,,,,,,,,,,,,,,,,,,,,,,,,,,,,,,,,271.15061479993165,271.1666835999349,271.6515802999493,271.6865864000283,271.70177869999316,271.70177869999316,271.70177869999316,273.0570250999881,Scenes\067a.jpg,mid,o,1.3438169999280944,None,,,,,,,,00017,001,2026-01-20_12h47.41.536,MST_test,2024.2.0,59.794557825306576,2026-01-20 12h47.55.958780 +0530,
71,0,72,o,1.6754971999907866,None,72,0,71,273.0733061999781,,,,,,,,,,,,,,,,,,,,,,,,,,,,,,,,,,,,,,,,,,,,,,,,,,273.0571198000107,273.0733061999781,273.5582691000309,273.60809370002244,273.6260087999981,273.6260087999981,273.6260087999981,275.31505939993076,Scenes\032b.jpg,post,o,1.6754971999907866,None,,,,,,,,00017,001,2026-01-20_12h47.41.536,MST_test,2024.2.0,59.794557825306576,2026-01-20 12h47.55.958780 +0530,
72,0,73,o,1.4510778998956084,None,73,0,72,275.3312757000094,,,,,,,,,,,,,,,,,,,,,,,,,,,,,,,,,,,,,,,,,,,,,,,,,,275.31515179993585,275.3312757000094,275.8162905999925,275.8504004999995,275.86649990000296,275.86649990000296,275.86649990000296,277.3225504999282,Scenes\182a.jpg,pre,o,1.4510778998956084,None,,,,,,,,00017,001,2026-01-20_12h47.41.536,MST_test,2024.2.0,59.794557825306576,2026-01-20 12h47.55.958780 +0530,
73,0,74,s,1.9002383999759331,None,74,0,73,277.33811949996743,,,,,,,,,,,,,,,,,,,,,,,,,,,,,,,,,,,,,,,,,,,,,,,,,,277.3228298999602,277.33811949996743,277.82338139996864,277.85577010002453,277.87328679999337,277.87328679999337,277.87328679999337,279.78070859995205,Scenes\133a.jpg,post,s,1.9002383999759331,None,,,,,,,,00017,001,2026-01-20_12h47.41.536,MST_test,2024.2.0,59.794557825306576,2026-01-20 12h47.55.958780 +0530,
74,0,75,s,2.2004436999559402,None,75,0,74,279.7968448000029,,,,,,,,,,,,,,,,,,,,,,,,,,,,,,,,,,,,,,,,,,,,,,,,,,279.7808073000051,279.7968448000029,280.2818334000185,280.3200342999771,280.33297859993763,280.33297859993763,280.33297859993763,282.5401415999513,Scenes\125b.jpg,mid,s,2.2004436999559402,None,,,,,,,,00017,001,2026-01-20_12h47.41.536,MST_test,2024.2.0,59.794557825306576,2026-01-20 12h47.55.958780 +0530,
75,0,76,n,1.9937596000963822,None,76,0,75,282.5564932000125,,,,,,,,,,,,,,,,,,,,,,,,,,,,,,,,,,,,,,,,,,,,,,,,,,282.54023669997696,282.5564932000125,283.04159809998237,283.0651002000086,283.0759762999369,283.0759762999369,283.0759762999369,285.0823889999883,Objects\169b.jpg,mid,n,1.9937596000963822,None,,,,,,,,00017,001,2026-01-20_12h47.41.536,MST_test,2024.2.0,59.794557825306576,2026-01-20 12h47.55.958780 +0530,
76,0,77,o,1.835275800083764,None,77,0,76,285.09885609999765,,,,,,,,,,,,,,,,,,,,,,,,,,,,,,,,,,,,,,,,,,,,,,,,,,285.0824828000041,285.09885609999765,285.58406239992473,285.6195332999341,285.6348192000296,285.6348192000296,285.6348192000296,287.4743491000263,Scenes\071a.jpg,post,o,1.835275800083764,None,,,,,,,,00017,001,2026-01-20_12h47.41.536,MST_test,2024.2.0,59.794557825306576,2026-01-20 12h47.55.958780 +0530,
77,0,78,o,1.946906500030309,None,78,0,77,287.49033459997736,,,,,,,,,,,,,,,,,,,,,,,,,,,,,,,,,,,,,,,,,,,,,,,,,,287.474443999934,287.49033459997736,287.9756654999219,288.00800249993335,288.02644369995687,288.02644369995687,288.02644369995687,289.98310840001795,Scenes\006b.jpg,pre,o,1.946906500030309,None,,,,,,,,00017,001,2026-01-20_12h47.41.536,MST_test,2024.2.0,59.794557825306576,2026-01-20 12h47.55.958780 +0530,
78,0,79,o,1.8950824999483302,None,79,0,78,289.9992602999555,,,,,,,,,,,,,,,,,,,,,,,,,,,,,,,,,,,,,,,,,,,,,,,,,,289.9832007000223,289.9992602999555,290.4843302000081,290.5096723999595,290.51836240000557,290.51836240000557,290.51836240000557,292.4248332999414,Objects\165b.jpg,pre,o,1.8950824999483302,None,,,,,,,,00017,001,2026-01-20_12h47.41.536,MST_test,2024.2.0,59.794557825306576,2026-01-20 12h47.55.958780 +0530,
79,0,80,o,2.109607399906963,None,80,0,79,292.44111709995195,,,,,,,,,,,,,,,,,,,,,,,,,,,,,,,,,,,,,,,,,,,,,,,,,,292.4249276999617,292.44111709995195,292.9261922999285,292.96381769992877,292.97639500000514,292.97639500000514,292.97639500000514,295.10210909997113,Scenes\085a.jpg,post,o,2.109607399906963,None,,,,,,,,00017,001,2026-01-20_12h47.41.536,MST_test,2024.2.0,59.794557825306576,2026-01-20 12h47.55.958780 +0530,
80,0,81,o,1.434008099953644,None,81,0,80,295.1174714999506,,,,,,,,,,,,,,,,,,,,,,,,,,,,,,,,,,,,,,,,,,,,,,,,,,295.10221669997554,295.1174714999506,295.6028392999433,295.62428939994425,295.6354896000121,295.6354896000121,295.6354896000121,297.0749784000218,Objects\057a.jpg,pre,o,1.434008099953644,None,,,,,,,,00017,001,2026-01-20_12h47.41.536,MST_test,2024.2.0,59.794557825306576,2026-01-20 12h47.55.958780 +0530,
81,0,82,s,1.5799887999892235,None,82,0,81,297.09073469997384,,,,,,,,,,,,,,,,,,,,,,,,,,,,,,,,,,,,,,,,,,,,,,,,,,297.0750774999615,297.09073469997384,297.57568200002424,297.61516519996803,297.6258982999716,297.6258982999716,297.6258982999716,299.2154068999225,Scenes\084b.jpg,pre,s,1.5799887999892235,None,,,,,,,,00017,001,2026-01-20_12h47.41.536,MST_test,2024.2.0,59.794557825306576,2026-01-20 12h47.55.958780 +0530,
82,0,83,o,1.151139699970372,None,83,0,82,299.2315918999957,,,,,,,,,,,,,,,,,,,,,,,,,,,,,,,,,,,,,,,,,,,,,,,,,,299.2155089000007,299.2315918999957,299.7165438999655,299.73057989997324,299.75001249997877,299.75001249997877,299.75001249997877,300.9048716999823,Objects\120a.jpg,mid,o,1.151139699970372,None,,,,,,,,00017,001,2026-01-20_12h47.41.536,MST_test,2024.2.0,59.794557825306576,2026-01-20 12h47.55.958780 +0530,
83,0,84,s,1.5414754999801517,None,84,0,83,300.9209569999948,,,,,,,,,,,,,,,,,,,,,,,,,,,,,,,,,,,,,,,,,,,,,,,,,,300.9049717999296,300.9209569999948,301.4058008999564,301.4452865999192,301.45598720002454,301.45598720002454,301.45598720002454,303.01181069994345,Scenes\171b.jpg,mid,s,1.5414754999801517,None,,,,,,,,00017,001,2026-01-20_12h47.41.536,MST_test,2024.2.0,59.794557825306576,2026-01-20 12h47.55.958780 +0530,
84,0,85,n,1.5062907999381423,None,85,0,84,303.0282132999273,,,,,,,,,,,,,,,,,,,,,,,,,,,,,,,,,,,,,,,,,,,,,,,,,,303.0119036999531,303.0282132999273,303.51323109993245,303.53673359996174,303.5466451999964,303.5466451999964,303.5466451999964,305.0692529999651,Foils\097a.jpg,none,n,1.5062907999381423,None,,,,,,,,00017,001,2026-01-20_12h47.41.536,MST_test,2024.2.0,59.794557825306576,2026-01-20 12h47.55.958780 +0530,
85,0,86,n,2.7371741998940706,None,86,0,85,305.0854070999194,,,,,,,,,,,,,,,,,,,,,,,,,,,,,,,,,,,,,,,,,,,,,,,,,,305.069350100006,305.0854070999194,305.57043939991854,305.5999021999305,305.62056950002443,305.62056950002443,305.62056950002443,308.3640664999839,Scenes\069a.jpg,pre,n,2.7371741998940706,None,,,,,,,,00017,001,2026-01-20_12h47.41.536,MST_test,2024.2.0,59.794557825306576,2026-01-20 12h47.55.958780 +0530,
86,0,87,n,0.943806100054644,None,87,0,86,308.38015139999334,,,,,,,,,,,,,,,,,,,,,,,,,,,,,,,,,,,,,,,,,,,,,,,,,,308.3641641000286,308.38015139999334,308.8653510999866,308.92352159996517,308.9335125000216,308.9335125000216,308.9335125000216,309.88617449998856,Foils\scenes28.jpg,none,n,0.943806100054644,None,,,,,,,,00017,001,2026-01-20_12h47.41.536,MST_test,2024.2.0,59.794557825306576,2026-01-20 12h47.55.958780 +0530,
87,0,88,s,1.4642035000724718,None,88,0,87,309.9022512999363,,,,,,,,,,,,,,,,,,,,,,,,,,,,,,,,,,,,,,,,,,,,,,,,,,309.88626790000126,309.9022512999363,310.3873619999504,310.41358549997676,310.4214984999271,310.4214984999271,310.4214984999271,311.8931484000059,Objects\029b.jpg,post,s,1.4642035000724718,None,,,,,,,,00017,001,2026-01-20_12h47.41.536,MST_test,2024.2.0,59.794557825306576,2026-01-20 12h47.55.958780 +0530,
88,0,89,o,2.201759400079027,None,89,0,88,311.9091670999769,,,,,,,,,,,,,,,,,,,,,,,,,,,,,,,,,,,,,,,,,,,,,,,,,,311.89324579993263,311.9091670999769,312.39437609992456,312.4085784999188,312.4277407999616,312.4277407999616,312.4277407999616,314.63610030000564,Objects\132a.jpg,pre,o,2.201759400079027,None,,,,,,,,00017,001,2026-01-20_12h47.41.536,MST_test,2024.2.0,59.794557825306576,2026-01-20 12h47.55.958780 +0530,
89,0,90,s,1.2585182000184432,None,90,0,89,314.65222739998717,,,,,,,,,,,,,,,,,,,,,,,,,,,,,,,,,,,,,,,,,,,,,,,,,,314.6361928000115,314.65222739998717,315.13718920003157,315.16086529998574,315.17107639997266,315.17107639997266,315.17107639997266,316.4425788000226,Objects\102b.jpg,post,s,1.2585182000184432,None,,,,,,,,00017,001,2026-01-20_12h47.41.536,MST_test,2024.2.0,59.794557825306576,2026-01-20 12h47.55.958780 +0530,
90,0,91,o,1.130668899975717,None,91,0,90,316.4584244999569,,,,,,,,,,,,,,,,,,,,,,,,,,,,,,,,,,,,,,,,,,,,,,,,,,316.4427435999969,316.4584244999569,316.94367229996715,316.97818560001906,316.9943693999667,316.9943693999667,316.9943693999667,318.1316066000145,Scenes\077a.jpg,pre,o,1.130668899975717,None,,,,,,,,00017,001,2026-01-20_12h47.41.536,MST_test,2024.2.0,59.794557825306576,2026-01-20 12h47.55.958780 +0530,
91,0,92,o,1.6510655999882147,None,92,0,91,318.147798400023,,,,,,,,,,,,,,,,,,,,,,,,,,,,,,,,,,,,,,,,,,,,,,,,,,318.13170219992753,318.147798400023,318.6327739999397,318.65555229992606,318.66637719993014,318.66637719993014,318.66637719993014,320.32264070003293,Objects\093a.jpg,mid,o,1.6510655999882147,None,,,,,,,,00017,001,2026-01-20_12h47.41.536,MST_test,2024.2.0,59.794557825306576,2026-01-20 12h47.55.958780 +0530,
92,0,93,s,1.4846861000405625,None,93,0,92,320.3388105999911,,,,,,,,,,,,,,,,,,,,,,,,,,,,,,,,,,,,,,,,,,,,,,,,,,320.3227361999452,320.3388105999911,320.8238091999665,320.8478324000025,320.85725819994695,320.85725819994695,320.85725819994695,322.34642419999,Objects\111b.jpg,mid,s,1.4846861000405625,None,,,,,,,,00017,001,2026-01-20_12h47.41.536,MST_test,2024.2.0,59.794557825306576,2026-01-20 12h47.55.958780 +0530,
93,0,94,o,0.8839163000229746,None,94,0,93,322.36257200001273,,,,,,,,,,,,,,,,,,,,,,,,,,,,,,,,,,,,,,,,,,,,,,,,,,322.3465229999274,322.36257200001273,322.8475198999513,322.87796379998326,322.89785059995484,322.89785059995484,322.89785059995484,323.7847495999886,Scenes\151a.jpg,mid,o,0.8839163000229746,None,,,,,,,,00017,001,2026-01-20_12h47.41.536,MST_test,2024.2.0,59.794557825306576,2026-01-20 12h47.55.958780 +0530,
94,0,95,o,1.3013622000580654,None,95,0,94,323.80093939998187,,,,,,,,,,,,,,,,,,,,,,,,,,,,,,,,,,,,,,,,,,,,,,,,,,323.78484279999975,323.80093939998187,324.28650899999775,324.3275399999693,324.3362329999218,324.3362329999218,324.3362329999218,325.64166909991764,Scenes\089a.jpg,mid,o,1.3013622000580654,None,,,,,,,,00017,001,2026-01-20_12h47.41.536,MST_test,2024.2.0,59.794557825306576,2026-01-20 12h47.55.958780 +0530,
95,0,96,n,1.8141722000436857,None,96,0,95,325.6573256999254,,,,,,,,,,,,,,,,,,,,,,,,,,,,,,,,,,,,,,,,,,,,,,,,,,325.64176119992044,325.6573256999254,326.14307679992635,326.1672738000052,326.1758772999747,326.1758772999747,326.1758772999747,327.99953519995324,Foils\009a.jpg,none,n,1.8141722000436857,None,,,,,,,,00017,001,2026-01-20_12h47.41.536,MST_test,2024.2.0,59.794557825306576,2026-01-20 12h47.55.958780 +0530,
96,0,97,n,1.5899617000250146,None,97,0,96,328.0155897999648,,,,,,,,,,,,,,,,,,,,,,,,,,,,,,,,,,,,,,,,,,,,,,,,,,327.99962859996594,328.0155897999648,328.5007839000318,328.52134189999197,328.5349238999188,328.5349238999188,328.5349238999188,330.1402305000229,Foils\scenes16.jpg,none,n,1.5899617000250146,None,,,,,,,,00017,001,2026-01-20_12h47.41.536,MST_test,2024.2.0,59.794557825306576,2026-01-20 12h47.55.958780 +0530,
97,0,98,n,0.9945131000131369,None,98,0,97,330.15651689993683,,,,,,,,,,,,,,,,,,,,,,,,,,,,,,,,,,,,,,,,,,,,,,,,,,330.1403245999245,330.15651689993683,330.64178790000733,330.6622358999448,330.67496410000604,330.67496410000604,330.67496410000604,331.67892700002994,Foils\scenes7.jpg,none,n,0.9945131000131369,None,,,,,,,,00017,001,2026-01-20_12h47.41.536,MST_test,2024.2.0,59.794557825306576,2026-01-20 12h47.55.958780 +0530,
98,0,99,o,1.2239768999861553,None,99,0,98,331.69524399994407,,,,,,,,,,,,,,,,,,,,,,,,,,,,,,,,,,,,,,,,,,,,,,,,,,331.6790207999293,331.69524399994407,332.18033669993747,332.20360559993424,332.21367550001014,332.21367550001014,332.21367550001014,333.45214219996706,Objects\098a.jpg,pre,o,1.2239768999861553,None,,,,,,,,00017,001,2026-01-20_12h47.41.536,MST_test,2024.2.0,59.794557825306576,2026-01-20 12h47.55.958780 +0530,
99,0,100,n,1.242638999945484,None,100,0,99,333.46800029999577,,,,,,,,,,,,,,,,,,,,,,,,,,,,,,,,,,,,,,,,,,,,,,,,,,333.452258199919,333.46800029999577,333.95321910001803,333.97618769994006,333.9864527999889,333.9864527999889,333.9864527999889,335.2414780999534,Foils\073a.jpg,none,n,1.242638999945484,None,,,,,,,,00017,001,2026-01-20_12h47.41.536,MST_test,2024.2.0,59.794557825306576,2026-01-20 12h47.55.958780 +0530,
100,0,101,n,1.772699199966155,None,101,0,100,335.2576033999212,,,,,,,,,,,,,,,,,,,,,,,,,,,,,,,,,,,,,,,,,,,,,,,,,,335.24157189996913,335.2576033999212,335.74280729994643,335.76788930001203,335.7769507999765,335.7769507999765,335.7769507999765,337.56629330001306,Scenes\022a.jpg,pre,n,1.772699199966155,None,,,,,,,,00017,001,2026-01-20_12h47.41.536,MST_test,2024.2.0,59.794557825306576,2026-01-20 12h47.55.958780 +0530,
101,0,102,o,1.1584446999477223,None,102,0,101,337.5824128999375,,,,,,,,,,,,,,,,,,,,,,,,,,,,,,,,,,,,,,,,,,,,,,,,,,337.56638620002195,337.5824128999375,338.06770160002634,338.1103917999426,338.1186826999765,338.1186826999765,338.1186826999765,339.2896385999629,Scenes\076a.jpg,mid,o,1.1584446999477223,None,,,,,,,,00017,001,2026-01-20_12h47.41.536,MST_test,2024.2.0,59.794557825306576,2026-01-20 12h47.55.958780 +0530,
102,0,103,o,1.3392222999827936,None,103,0,102,339.3053552999627,,,,,,,,,,,,,,,,,,,,,,,,,,,,,,,,,,,,,,,,,,,,,,,,,,339.2897362000076,339.3053552999627,339.7901878999546,339.82427500002086,339.84160549996886,339.84160549996886,339.84160549996886,341.19598630000837,Scenes\124a.jpg,pre,o,1.3392222999827936,None,,,,,,,,00017,001,2026-01-20_12h47.41.536,MST_test,2024.2.0,59.794557825306576,2026-01-20 12h47.55.958780 +0530,
103,0,104,n,1.2669024000642821,None,104,0,103,341.2120615999447,,,,,,,,,,,,,,,,,,,,,,,,,,,,,,,,,,,,,,,,,,,,,,,,,,341.19608080002945,341.2120615999447,341.6968599000247,341.7235889999429,341.7305579999229,341.7305579999229,341.7305579999229,343.00219000002835,Foils\101b.jpg,none,n,1.2669024000642821,None,,,,,,,,00017,001,2026-01-20_12h47.41.536,MST_test,2024.2.0,59.794557825306576,2026-01-20 12h47.55.958780 +0530,
104,0,105,s,1.8286849000724033,None,105,0,104,343.0181917999871,,,,,,,,,,,,,,,,,,,,,,,,,,,,,,,,,,,,,,,,,,,,,,,,,,343.0022868999513,343.0181917999871,343.5033566999482,343.52663159999065,343.5366368999239,343.5366368999239,343.5366368999239,345.3769067999674,Objects\060b.jpg,post,s,1.8286849000724033,None,,,,,,,,00017,001,2026-01-20_12h47.41.536,MST_test,2024.2.0,59.794557825306576,2026-01-20 12h47.55.958780 +0530,
105,0,106,s,1.724398700054735,None,106,0,105,345.3932134999195,,,,,,,,,,,,,,,,,,,,,,,,,,,,,,,,,,,,,,,,,,,,,,,,,,345.37700320000295,345.3932134999195,345.87831780000124,345.90644930000417,345.9290330000222,345.9290330000222,345.9290330000222,347.66843920003157,Objects\051b.jpg,post,s,1.724398700054735,None,,,,,,,,00017,001,2026-01-20_12h47.41.536,MST_test,2024.2.0,59.794557825306576,2026-01-20 12h47.55.958780 +0530,
106,0,107,s,1.2562795999692753,None,107,0,106,347.68468960002065,,,,,,,,,,,,,,,,,,,,,,,,,,,,,,,,,,,,,,,,,,,,,,,,,,347.6685365999583,347.68468960002065,348.16964979993645,348.20115680003073,348.220495400019,348.220495400019,348.220495400019,349.4914285999257,Scenes\191b.jpg,mid,s,1.2562795999692753,None,,,,,,,,00017,001,2026-01-20_12h47.41.536,MST_test,2024.2.0,59.794557825306576,2026-01-20 12h47.55.958780 +0530,
107,0,108,n,1.1133210000116378,None,108,0,107,349.50770989991724,,,,,,,,,,,,,,,,,,,,,,,,,,,,,,,,,,,,,,,,,,,,,,,,,,349.4915219999384,349.50770989991724,349.9925806999672,350.02005890000146,350.04379629995674,350.04379629995674,350.04379629995674,351.16388429992367,Foils\010a.jpg,none,n,1.1133210000116378,None,,,,,,,,00017,001,2026-01-20_12h47.41.536,MST_test,2024.2.0,59.794557825306576,2026-01-20 12h47.55.958780 +0530,
108,0,109,n,1.3927637999877334,None,109,0,108,351.18014660000335,,,,,,,,,,,,,,,,,,,,,,,,,,,,,,,,,,,,,,,,,,,,,,,,,,351.16398349998053,351.18014660000335,351.6651183000067,351.70716440002434,351.7163880999433,351.7163880999433,351.7163880999433,353.12086619995534,Scenes\190b.jpg,pre,n,1.3927637999877334,None,,,,,,,,00017,001,2026-01-20_12h47.41.536,MST_test,2024.2.0,59.794557825306576,2026-01-20 12h47.55.958780 +0530,
109,0,110,o,1.534070200053975,None,110,0,109,353.13688110001385,,,,,,,,,,,,,,,,,,,,,,,,,,,,,,,,,,,,,,,,,,,,,,,,,,353.1209627999924,353.13688110001385,353.6220698999241,353.64318419992924,353.6553217000328,353.6553217000328,353.6553217000328,355.19509349996224,Objects\171a.jpg,post,o,1.534070200053975,None,,,,,,,,00017,001,2026-01-20_12h47.41.536,MST_test,2024.2.0,59.794557825306576,2026-01-20 12h47.55.958780 +0530,
110,0,111,o,1.0915848999284208,None,111,0,110,355.2109245000174,,,,,,,,,,,,,,,,,,,,,,,,,,,,,,,,,,,,,,,,,,,,,,,,,,355.19519030000083,355.2109245000174,355.69593559997156,355.7182294999948,355.7292695000069,355.7292695000069,355.7292695000069,356.8339363000123,Objects\116b.jpg,pre,o,1.0915848999284208,None,,,,,,,,00017,001,2026-01-20_12h47.41.536,MST_test,2024.2.0,59.794557825306576,2026-01-20 12h47.55.958780 +0530,
111,0,112,n,1.061738200020045,None,112,0,111,356.8498770999722,,,,,,,,,,,,,,,,,,,,,,,,,,,,,,,,,,,,,,,,,,,,,,,,,,356.83402589999605,356.8498770999722,357.33519919996615,357.3584302000236,357.3683186999988,357.3683186999988,357.3683186999988,358.43927059997804,Foils\033a.jpg,none,n,1.061738200020045,None,,,,,,,,00017,001,2026-01-20_12h47.41.536,MST_test,2024.2.0,59.794557825306576,2026-01-20 12h47.55.958780 +0530,
112,0,113,s,1.58108960010577,None,113,0,112,358.4556430999655,,,,,,,,,,,,,,,,,,,,,,,,,,,,,,,,,,,,,,,,,,,,,,,,,,358.4393669000128,358.4556430999655,358.9405800999375,358.9801695999922,358.9917632000288,358.9917632000288,358.9917632000288,360.58022489992436,Scenes\047b.jpg,mid,s,1.58108960010577,None,,,,,,,,00017,001,2026-01-20_12h47.41.536,MST_test,2024.2.0,59.794557825306576,2026-01-20 12h47.55.958780 +0530,
113,0,114,s,1.4331571999937296,None,114,0,113,360.5964573000092,,,,,,,,,,,,,,,,,,,,,,,,,,,,,,,,,,,,,,,,,,,,,,,,,,360.5803231999744,360.5964573000092,361.0817180000013,361.10076579998713,361.1156788999215,361.1156788999215,361.1156788999215,362.5537731000222,Foils\scenes2.jpg,none,s,1.4331571999937296,None,,,,,,,,00017,001,2026-01-20_12h47.41.536,MST_test,2024.2.0,59.794557825306576,2026-01-20 12h47.55.958780 +0530,
114,0,115,n,0.9561436000512913,None,115,0,114,362.5698888999177,,,,,,,,,,,,,,,,,,,,,,,,,,,,,,,,,,,,,,,,,,,,,,,,,,362.5538672999246,362.5698888999177,363.0560662000207,363.07222490001004,363.0888173999265,363.0888173999265,363.0888173999265,364.05901720002294,Foils\scenes19.jpg,none,n,0.9561436000512913,None,,,,,,,,00017,001,2026-01-20_12h47.41.536,MST_test,2024.2.0,59.794557825306576,2026-01-20 12h47.55.958780 +0530,
115,0,116,s,1.5237493999302387,None,116,0,115,364.0760111999698,,,,,,,,,,,,,,,,,,,,,,,,,,,,,,,,,,,,,,,,,,,,,,,,,,364.0591158999596,364.0760111999698,364.56035970000084,364.5977945999475,364.6104742999887,364.6104742999887,364.6104742999887,366.1498873999808,Scenes\054b.jpg,post,s,1.5237493999302387,None,,,,,,,,00017,001,2026-01-20_12h47.41.536,MST_test,2024.2.0,59.794557825306576,2026-01-20 12h47.55.958780 +0530,
116,0,117,n,0.6241547999670729,None,117,0,116,366.16590549994726,,,,,,,,,,,,,,,,,,,,,,,,,,,,,,,,,,,,,,,,,,,,,,,,,,366.14997879997827,366.16590549994726,366.6509405999677,366.676148599945,366.68511409999337,366.68511409999337,366.68511409999337,367.3204565999331,Foils\121a.jpg,none,n,0.6241547999670729,None,,,,,,,,00017,001,2026-01-20_12h47.41.536,MST_test,2024.2.0,59.794557825306576,2026-01-20 12h47.55.958780 +0530,
117,0,118,n,1.149775999947451,None,118,0,117,367.3368186999578,,,,,,,,,,,,,,,,,,,,,,,,,,,,,,,,,,,,,,,,,,,,,,,,,,367.32055039994884,367.3368186999578,367.821822399972,367.845755700022,367.855133999954,367.855133999954,367.855133999954,369.00980919995345,Foils\066a.jpg,none,n,1.149775999947451,None,,,,,,,,00017,001,2026-01-20_12h47.41.536,MST_test,2024.2.0,59.794557825306576,2026-01-20 12h47.55.958780 +0530,
118,0,119,s,1.6834608999779448,None,119,0,118,369.02592009992804,,,,,,,,,,,,,,,,,,,,,,,,,,,,,,,,,,,,,,,,,,,,,,,,,,369.00990209996235,369.02592009992804,369.51105339999776,369.53645879996475,369.5455152000068,369.5455152000068,369.5455152000068,371.23426329996437,Scenes\014a.jpg,post,s,1.6834608999779448,None,,,,,,,,00017,001,2026-01-20_12h47.41.536,MST_test,2024.2.0,59.794557825306576,2026-01-20 12h47.55.958780 +0530,
119,0,120,s,1.2687545999651775,None,120,0,119,371.2504702999722,,,,,,,,,,,,,,,,,,,,,,,,,,,,,,,,,,,,,,,,,,,,,,,,,,371.2343598000007,371.2504702999722,371.73567710001953,371.7619104000041,371.7688929999713,371.7688929999713,371.7688929999713,373.0403853999451,Scenes\091a.jpg,mid,s,1.2687545999651775,None,,,,,,,,00017,001,2026-01-20_12h47.41.536,MST_test,2024.2.0,59.794557825306576,2026-01-20 12h47.55.958780 +0530,
120,0,121,o,1.2539715999737382,None,121,0,120,373.05690389999654,,,,,,,,,,,,,,,,,,,,,,,,,,,,,,,,,,,,,,,,,,,,,,,,,,373.0405146999983,373.05690389999654,373.54190109996125,373.56304889998864,373.5753544999752,373.5753544999752,373.5753544999752,374.83042669994757,Objects\119a.jpg,post,o,1.2539715999737382,None,,,,,,,,00017,001,2026-01-20_12h47.41.536,MST_test,2024.2.0,59.794557825306576,2026-01-20 12h47.55.958780 +0530,
121,0,122,s,1.3845343000721186,None,122,0,121,374.84634569997434,,,,,,,,,,,,,,,,,,,,,,,,,,,,,,,,,,,,,,,,,,,,,,,,,,374.83051909995265,374.84634569997434,375.33131259994116,375.35420890001114,375.3647479999345,375.3647479999345,375.3647479999345,376.75346139993053,Objects\187b.jpg,pre,s,1.3845343000721186,None,,,,,,,,00017,001,2026-01-20_12h47.41.536,MST_test,2024.2.0,59.794557825306576,2026-01-20 12h47.55.958780 +0530,
122,0,123,s,2.2850014000432566,None,123,0,122,376.7698884999845,,,,,,,,,,,,,,,,,,,,,,,,,,,,,,,,,,,,,,,,,,,,,,,,,,376.75357369997073,376.7698884999845,377.25473789998796,377.27693870000076,377.2881948000286,377.2881948000286,377.2881948000286,379.58015019993763,Objects\030b.jpg,pre,s,2.2850014000432566,None,,,,,,,,00017,001,2026-01-20_12h47.41.536,MST_test,2024.2.0,59.794557825306576,2026-01-20 12h47.55.958780 +0530,
123,0,124,o,1.6338328000856563,None,124,0,123,379.59633319999557,,,,,,,,,,,,,,,,,,,,,,,,,,,,,,,,,,,,,,,,,,,,,,,,,,379.58024819998536,379.59633319999557,380.08133750001434,380.11785589996725,380.13148670003284,380.13148670003284,380.13148670003284,381.7711536999559,Scenes\143b.jpg,post,o,1.6338328000856563,None,,,,,,,,00017,001,2026-01-20_12h47.41.536,MST_test,2024.2.0,59.794557825306576,2026-01-20 12h47.55.958780 +0530,
124,0,125,s,2.273888000054285,None,125,0,124,381.787191899959,,,,,,,,,,,,,,,,,,,,,,,,,,,,,,,,,,,,,,,,,,,,,,,,,,381.7712450999534,381.787191899959,382.2724156000186,382.30694159993436,382.3233822999755,382.3233822999755,382.3233822999755,384.5977361999685,Scenes\027a.jpg,mid,s,2.273888000054285,None,,,,,,,,00017,001,2026-01-20_12h47.41.536,MST_test,2024.2.0,59.794557825306576,2026-01-20 12h47.55.958780 +0530,
125,0,126,o,1.0722672999836504,None,126,0,125,384.6137616999913,,,,,,,,,,,,,,,,,,,,,,,,,,,,,,,,,,,,,,,,,,,,,,,,,,384.5978277999675,384.6137616999913,385.0989489000058,385.1208096999908,385.133109999937,385.133109999937,385.133109999937,386.2200083999196,Objects\042a.jpg,post,o,1.0722672999836504,None,,,,,,,,00017,001,2026-01-20_12h47.41.536,MST_test,2024.2.0,59.794557825306576,2026-01-20 12h47.55.958780 +0530,
126,0,127,s,1.6321348999626935,None,127,0,126,386.2362775999354,,,,,,,,,,,,,,,,,,,,,,,,,,,,,,,,,,,,,,,,,,,,,,,,,,386.22010169993155,386.2362775999354,386.72149109991733,386.76696319994517,386.78925599996,386.78925599996,386.78925599996,388.42785530001856,Scenes\170b.jpg,post,s,1.6321348999626935,None,,,,,,,,00017,001,2026-01-20_12h47.41.536,MST_test,2024.2.0,59.794557825306576,2026-01-20 12h47.55.958780 +0530,
127,0,128,s,2.297826800029725,None,128,0,127,388.44396149995737,,,,,,,,,,,,,,,,,,,,,,,,,,,,,,,,,,,,,,,,,,,,,,,,,,388.42795159993693,388.44396149995737,388.92893389996607,388.96159690001514,388.98011959996074,388.98011959996074,388.98011959996074,391.28785800002515,Scenes\111b.jpg,pre,s,2.297826800029725,None,,,,,,,,00017,001,2026-01-20_12h47.41.536,MST_test,2024.2.0,59.794557825306576,2026-01-20 12h47.55.958780 +0530,
128,0,129,o,0.9342124999966472,None,129,0,128,391.3038479000097,,,,,,,,,,,,,,,,,,,,,,,,,,,,,,,,,,,,,,,,,,,,,,,,,,391.2879503000295,391.3038479000097,391.7891801999649,391.8191866999259,391.83902419998776,391.83902419998776,391.83902419998776,392.7769009999465,Scenes\181a.jpg,post,o,0.9342124999966472,None,,,,,,,,00017,001,2026-01-20_12h47.41.536,MST_test,2024.2.0,59.794557825306576,2026-01-20 12h47.55.958780 +0530,
129,0,130,o,1.2214756000321358,None,130,0,129,392.7929591999855,,,,,,,,,,,,,,,,,,,,,,,,,,,,,,,,,,,,,,,,,,,,,,,,,,392.7770052999258,392.7929591999855,393.2775076000253,393.30115009995643,393.3120243999874,393.3120243999874,393.3120243999874,394.5493531000102,Objects\162a.jpg,pre,o,1.2214756000321358,None,,,,,,,,00017,001,2026-01-20_12h47.41.536,MST_test,2024.2.0,59.794557825306576,2026-01-20 12h47.55.958780 +0530,
130,0,131,o,1.448528099921532,None,131,0,130,394.5652805999853,,,,,,,,,,,,,,,,,,,,,,,,,,,,,,,,,,,,,,,,,,,,,,,,,,394.54945129994303,394.5652805999853,395.05047449993435,395.0818205999676,395.1004471000051,395.1004471000051,395.1004471000051,396.55685129994527,Scenes\118b.jpg,mid,o,1.448528099921532,None,,,,,,,,00017,001,2026-01-20_12h47.41.536,MST_test,2024.2.0,59.794557825306576,2026-01-20 12h47.55.958780 +0530,
131,0,132,s,1.3067216000054032,None,132,0,131,396.57242199999746,,,,,,,,,,,,,,,,,,,,,,,,,,,,,,,,,,,,,,,,,,,,,,,,,,396.55694369995035,396.57242199999746,397.057507099933,397.0800870999228,397.09076159994584,397.09076159994584,397.09076159994584,398.4136016999837,Objects\114a.jpg,mid,s,1.3067216000054032,None,,,,,,,,00017,001,2026-01-20_12h47.41.536,MST_test,2024.2.0,59.794557825306576,2026-01-20 12h47.55.958780 +0530,
132,0,133,s,1.5465645999647677,None,133,0,132,398.4294454000192,,,,,,,,,,,,,,,,,,,,,,,,,,,,,,,,,,,,,,,,,,,,,,,,,,398.4137129000155,398.4294454000192,398.9147798999911,398.93797179998364,398.9472621999448,398.9472621999448,398.9472621999448,400.5034182999516,Objects\069b.jpg,mid,s,1.5465645999647677,None,,,,,,,,00017,001,2026-01-20_12h47.41.536,MST_test,2024.2.0,59.794557825306576,2026-01-20 12h47.55.958780 +0530,
133,0,134,n,1.1423049999866635,None,134,0,133,400.51945689995773,,,,,,,,,,,,,,,,,,,,,,,,,,,,,,,,,,,,,,,,,,,,,,,,,,400.50351670000236,400.51945689995773,401.00512500002515,401.04330909997225,401.0547435999615,401.0547435999615,401.0547435999615,402.20936019998044,Scenes\145b.jpg,post,n,1.1423049999866635,None,,,,,,,,00017,001,2026-01-20_12h47.41.536,MST_test,2024.2.0,59.794557825306576,2026-01-20 12h47.55.958780 +0530,
134,0,135,s,1.1735291000222787,None,135,0,134,402.22542579995934,,,,,,,,,,,,,,,,,,,,,,,,,,,,,,,,,,,,,,,,,,,,,,,,,,402.20945899991784,402.22542579995934,402.7106553999474,402.73538570001256,402.74404120002873,402.74404120002873,402.74404120002873,403.93196730001364,Objects\026b.jpg,mid,s,1.1735291000222787,None,,,,,,,,00017,001,2026-01-20_12h47.41.536,MST_test,2024.2.0,59.794557825306576,2026-01-20 12h47.55.958780 +0530,
135,0,136,o,0.9857364000054076,None,136,0,135,403.94825100002345,,,,,,,,,,,,,,,,,,,,,,,,,,,,,,,,,,,,,,,,,,,,,,,,,,403.93206529994495,403.94825100002345,404.43322359991726,404.4636424999917,404.48415109992493,404.48415109992493,404.48415109992493,405.47109010000713,Scenes\008a.jpg,pre,o,0.9857364000054076,None,,,,,,,,00017,001,2026-01-20_12h47.41.536,MST_test,2024.2.0,59.794557825306576,2026-01-20 12h47.55.958780 +0530,
136,0,137,s,1.614096699981019,None,137,0,136,405.4870574999368,,,,,,,,,,,,,,,,,,,,,,,,,,,,,,,,,,,,,,,,,,,,,,,,,,405.4711844000267,405.4870574999368,405.9719397999579,406.0106377999764,406.0231070999289,406.0231070999289,406.0231070999289,407.6457231999375,Scenes\174b.jpg,post,s,1.614096699981019,None,,,,,,,,00017,001,2026-01-20_12h47.41.536,MST_test,2024.2.0,59.794557825306576,2026-01-20 12h47.55.958780 +0530,
137,0,138,n,1.9370295000262558,None,138,0,137,407.6614239999326,,,,,,,,,,,,,,,,,,,,,,,,,,,,,,,,,,,,,,,,,,,,,,,,,,407.64581749995705,407.6614239999326,408.14621019992046,408.18320839991793,408.19642439996824,408.19642439996824,408.19642439996824,410.13702959998045,Scenes\106b.jpg,mid,n,1.9370295000262558,None,,,,,,,,00017,001,2026-01-20_12h47.41.536,MST_test,2024.2.0,59.794557825306576,2026-01-20 12h47.55.958780 +0530,
138,0,139,o,2.2210010999115184,None,139,0,138,410.15326519997325,,,,,,,,,,,,,,,,,,,,,,,,,,,,,,,,,,,,,,,,,,,,,,,,,,410.1371349999681,410.15326519997325,410.63846139993984,410.66109740000684,410.6723976000212,410.6723976000212,410.6723976000212,412.89706969994586,Objects\095a.jpg,post,o,2.2210010999115184,None,,,,,,,,00017,001,2026-01-20_12h47.41.536,MST_test,2024.2.0,59.794557825306576,2026-01-20 12h47.55.958780 +0530,
139,0,140,s,1.167447500047274,None,140,0,139,412.91286959999707,,,,,,,,,,,,,,,,,,,,,,,,,,,,,,,,,,,,,,,,,,,,,,,,,,412.8971761999419,412.91286959999707,413.39806379994843,413.42047260003164,413.4313042999711,413.4313042999711,413.4313042999711,414.60282809997443,Objects\163b.jpg,mid,s,1.167447500047274,None,,,,,,,,00017,001,2026-01-20_12h47.41.536,MST_test,2024.2.0,59.794557825306576,2026-01-20 12h47.55.958780 +0530,
140,0,141,s,1.2122904999414459,None,141,0,140,414.6189418999711,,,,,,,,,,,,,,,,,,,,,,,,,,,,,,,,,,,,,,,,,,,,,,,,,,414.60292169998866,414.6189418999711,415.1040963999694,415.1406255000038,415.1541094999993,415.1541094999993,415.1541094999993,416.37575589993503,Scenes\146a.jpg,post,s,1.2122904999414459,None,,,,,,,,00017,001,2026-01-20_12h47.41.536,MST_test,2024.2.0,59.794557825306576,2026-01-20 12h47.55.958780 +0530,
141,0,142,s,1.2397221999708563,None,142,0,141,416.3919607999269,,,,,,,,,,,,,,,,,,,,,,,,,,,,,,,,,,,,,,,,,,,,,,,,,,416.3758467999287,416.3919607999269,416.8768120999448,416.91726509993896,416.92698079999536,416.92698079999536,416.92698079999536,418.18198899994604,Scenes\164b.jpg,mid,s,1.2397221999708563,None,,,,,,,,00017,001,2026-01-20_12h47.41.536,MST_test,2024.2.0,59.794557825306576,2026-01-20 12h47.55.958780 +0530,
142,0,143,s,0.9772104000439867,None,143,0,142,418.1982376999222,,,,,,,,,,,,,,,,,,,,,,,,,,,,,,,,,,,,,,,,,,,,,,,,,,418.1820876999991,418.1982376999222,418.68311829993036,418.70770819997415,418.71658999996725,418.71658999996725,418.71658999996725,419.7041538999183,Objects\053b.jpg,post,s,0.9772104000439867,None,,,,,,,,00017,001,2026-01-20_12h47.41.536,MST_test,2024.2.0,59.794557825306576,2026-01-20 12h47.55.958780 +0530,
143,0,144,o,1.6541017000563443,None,144,0,143,419.7201486999402,,,,,,,,,,,,,,,,,,,,,,,,,,,,,,,,,,,,,,,,,,,,,,,,,,419.704251499963,419.7201486999402,420.20514710003044,420.24139640002977,420.2552989999531,420.2552989999531,420.2552989999531,421.9117412000196,Scenes\074a.jpg,pre,o,1.6541017000563443,None,,,,,,,,00017,001,2026-01-20_12h47.41.536,MST_test,2024.2.0,59.794557825306576,2026-01-20 12h47.55.958780 +0530,
144,0,145,o,1.0383486000355333,None,145,0,144,421.927867099992,,,,,,,,,,,,,,,,,,,,,,,,,,,,,,,,,,,,,,,,,,,,,,,,,,421.91183519992046,421.927867099992,422.4128353999695,422.44290309993085,422.46303899993654,422.46303899993654,422.46303899993654,423.51737799996044,Scenes\132a.jpg,mid,o,1.0383486000355333,None,,,,,,,,00017,001,2026-01-20_12h47.41.536,MST_test,2024.2.0,59.794557825306576,2026-01-20 12h47.55.958780 +0530,
145,0,146,o,0.7698185000335798,None,146,0,145,423.53370589995757,,,,,,,,,,,,,,,,,,,,,,,,,,,,,,,,,,,,,,,,,,,,,,,,,,423.5174685999518,423.53370589995757,424.0184582999209,424.0413408000022,424.0520797999343,424.0520797999343,424.0520797999343,424.83904849993996,Objects\135a.jpg,mid,o,0.7698185000335798,None,,,,,,,,00017,001,2026-01-20_12h47.41.536,MST_test,2024.2.0,59.794557825306576,2026-01-20 12h47.55.958780 +0530,
146,0,147,o,1.2644377999240533,None,147,0,146,424.8547916000243,,,,,,,,,,,,,,,,,,,,,,,,,,,,,,,,,,,,,,,,,,,,,,,,,,424.83914609998465,424.8547916000243,425.33978949999437,425.3599413000047,425.3734288000269,425.3734288000269,425.3734288000269,426.6447861000197,Objects\039a.jpg,pre,o,1.2644377999240533,None,,,,,,,,00017,001,2026-01-20_12h47.41.536,MST_test,2024.2.0,59.794557825306576,2026-01-20 12h47.55.958780 +0530,
147,0,148,s,1.6496178999077529,None,148,0,147,426.6611133000115,,,,,,,,,,,,,,,,,,,,,,,,,,,,,,,,,,,,,,,,,,,,,,,,,,426.6448932000203,426.6611133000115,427.14622989995405,427.1680292999372,427.1795650999993,427.1795650999993,427.1795650999993,428.836149699986,Objects\191b.jpg,post,s,1.6496178999077529,None,,,,,,,,00017,001,2026-01-20_12h47.41.536,MST_test,2024.2.0,59.794557825306576,2026-01-20 12h47.55.958780 +0530,
148,0,149,o,1.145467400085181,None,149,0,148,428.85210229991935,,,,,,,,,,,,,,,,,,,,,,,,,,,,,,,,,,,,,,,,,,,,,,,,,,428.83624730003066,428.85210229991935,429.3371428999817,429.37426660000347,429.3872661999194,429.3872661999194,429.3872661999194,430.5420113999862,Scenes\021a.jpg,pre,o,1.145467400085181,None,,,,,,,,00017,001,2026-01-20_12h47.41.536,MST_test,2024.2.0,59.794557825306576,2026-01-20 12h47.55.958780 +0530,
149,0,150,o,1.5523981000296772,None,150,0,149,430.55813929997385,,,,,,,,,,,,,,,,,,,,,,,,,,,,,,,,,,,,,,,,,,,,,,,,,,430.5421117999358,430.55813929997385,431.0430946999695,431.06634170003235,431.0765554999234,431.0765554999234,431.0765554999234,432.6328838999616,Objects\034b.jpg,mid,o,1.5523981000296772,None,,,,,,,,00017,001,2026-01-20_12h47.41.536,MST_test,2024.2.0,59.794557825306576,2026-01-20 12h47.55.958780 +0530,
,,,,,,,,,,,,,,,,,,,,,,,,,,,,,,,,,,,,,,,,,,,,,,,,,,,,,,,,,,,,,,,,,,,,,,,,432.63296239997726,432.6488815000048,432.6488815000048,442.3003063999349,space,9.64471170003526,None,00017,001,2026-01-20_12h47.41.536,MST_test,2024.2.0,59.794557825306576,2026-01-20 12h47.55.958780 +0530,
