thisN,thisTrialN,thisRepN,key_resp_3.keys,key_resp_3.rt,key_resp_3.duration,trials.thisRepN,trials.thisTrialN,trials.thisN,trials.thisIndex,thisRow.t,notes,intro_page.started,text.started,key_resp.started,intro_page.stopped,key_resp.keys,key_resp.rt,key_resp.duration,instructions.started,text_2.started,key_resp_2.started,instructions.stopped,key_resp_2.keys,key_resp_2.rt,key_resp_2.duration,demo1.started,image_1.started,image_2.started,text_7.started,key_resp_6.started,text_9.started,demo1.stopped,key_resp_6.keys,key_resp_6.rt,key_resp_6.duration,demo2.started,image_5.started,image_6.started,text_11.started,text_12.started,key_resp_8.started,demo2.stopped,key_resp_8.keys,key_resp_8.rt,key_resp_8.duration,demo_conclusion.started,text_13.started,key_resp_9.started,demo_conclusion.stopped,key_resp_9.keys,key_resp_9.rt,key_resp_9.duration,start_test.started,text_6.started,key_resp_5.started,start_test.stopped,key_resp_5.keys,key_resp_5.rt,key_resp_5.duration,ISI.started,text_4.started,text_4.stopped,ISI.stopped,routine_1.started,image.started,text_3.started,key_resp_3.started,routine_1.stopped,image_path,position_of_stimuli,trials.key_resp_3.keys,trials.key_resp_3.rt,trials.key_resp_3.duration,End_page.started,text_5.started,key_resp_4.started,End_page.stopped,key_resp_4.keys,key_resp_4.rt,key_resp_4.duration,participant,session,date,expName,psychopyVersion,frameRate,expStart,
,,,,,,,,,,,,0.015802100000655628,0.03218390000074578,0.03218390000074578,3.533751900000425,space,3.495245200001591,None,,,,,,,,,,,,,,,,,,,,,,,,,,,,,,,,,,,,,,,,,,,,,,,,,,,,,,,,,,,,,,,00011,001,2025-11-14_21h38.18.508,MST_test,2024.2.2,59.99988000041766,2025-11-14 21h38.24.850946 +0530,
,,,,,,,,,,,,,,,,,,,3.5337789000004705,3.5487450000000536,3.5487450000000536,15.99874810000074,space,12.434628099999827,None,,,,,,,,,,,,,,,,,,,,,,,,,,,,,,,,,,,,,,,,,,,,,,,,,,,,,,,,00011,001,2025-11-14_21h38.18.508,MST_test,2024.2.2,59.99988000041766,2025-11-14 21h38.24.850946 +0530,
,,,,,,,,,,,,,,,,,,,,,,,,,,15.998773400000573,16.015112600000066,16.015112600000066,16.015112600000066,16.015112600000066,16.015112600000066,22.715365800000654,space,6.686353200000667,None,,,,,,,,,,,,,,,,,,,,,,,,,,,,,,,,,,,,,,,,,,,,,,00011,001,2025-11-14_21h38.18.508,MST_test,2024.2.2,59.99988000041766,2025-11-14 21h38.24.850946 +0530,
,,,,,,,,,,,,,,,,,,,,,,,,,,,,,,,,,,,,22.71538959999998,22.731639900001028,22.731639900001028,22.731639900001028,22.731639900001028,22.731639900001028,27.998520000001008,space,5.256115399999544,None,,,,,,,,,,,,,,,,,,,,,,,,,,,,,,,,,,,,00011,001,2025-11-14_21h38.18.508,MST_test,2024.2.2,59.99988000041766,2025-11-14 21h38.24.850946 +0530,
,,,,,,,,,,,,,,,,,,,,,,,,,,,,,,,,,,,,,,,,,,,,,,27.998542299999826,28.014889899999616,28.014889899999616,122.42984849999993,space,94.40856689999964,None,,,,,,,,,,,,,,,,,,,,,,,,,,,,,00011,001,2025-11-14_21h38.18.508,MST_test,2024.2.2,59.99988000041766,2025-11-14 21h38.24.850946 +0530,
,,,,,,,,,,,,,,,,,,,,,,,,,,,,,,,,,,,,,,,,,,,,,,,,,,,,,122.42988660000083,122.44620050000049,122.44620050000049,137.4294788999996,space,14.969971999998961,None,,,,,,,,,,,,,,,,,,,,,,00011,001,2025-11-14_21h38.18.508,MST_test,2024.2.2,59.99988000041766,2025-11-14 21h38.24.850946 +0530,
0,0,0,s,2.6588561000007758,None,0,0,0,0,137.44587070000125,,,,,,,,,,,,,,,,,,,,,,,,,,,,,,,,,,,,,,,,,,,,,,,,,,137.4323774000004,137.44587070000125,137.9628083000007,137.92931640000097,137.94455430000016,137.9628083000007,137.9628083000007,137.9628083000007,140.6294713999996,Objects\102b.jpg,pre,s,2.6588561000007758,None,,,,,,,,00011,001,2025-11-14_21h38.18.508,MST_test,2024.2.2,59.99988000041766,2025-11-14 21h38.24.850946 +0530,
1,0,1,o,3.022720200000549,None,1,0,1,0,140.64580860000024,,,,,,,,,,,,,,,,,,,,,,,,,,,,,,,,,,,,,,,,,,,,,,,,,,140.62954949999948,140.64580860000024,141.16270079999958,141.12924419999945,141.1489720999998,141.16270079999958,141.16270079999958,141.16270079999958,144.19597290000092,Scenes\029b.jpg,pre,o,3.022720200000549,None,,,,,,,,00011,001,2025-11-14_21h38.18.508,MST_test,2024.2.2,59.99988000041766,2025-11-14 21h38.24.850946 +0530,
2,0,2,o,2.5753321000011056,None,2,0,2,0,144.21238830000038,,,,,,,,,,,,,,,,,,,,,,,,,,,,,,,,,,,,,,,,,,,,,,,,,,144.19605720000072,144.21238830000038,144.71270800000093,144.69584639999994,144.70706880000034,144.71270800000093,144.71270800000093,144.71270800000093,147.29589970000052,Foils\scenes2.jpg,none,o,2.5753321000011056,None,,,,,,,,00011,001,2025-11-14_21h38.18.508,MST_test,2024.2.2,59.99988000041766,2025-11-14 21h38.24.850946 +0530,
3,0,3,o,1.5387862000006862,None,3,0,3,0,147.31231560000015,,,,,,,,,,,,,,,,,,,,,,,,,,,,,,,,,,,,,,,,,,,,,,,,,,147.29597769999964,147.31231560000015,147.81250309999996,147.79580119999991,147.802020000001,147.81250309999996,147.81250309999996,147.81250309999996,149.36255429999983,Scenes\022a.jpg,mid,o,1.5387862000006862,None,,,,,,,,00011,001,2025-11-14_21h38.18.508,MST_test,2024.2.2,59.99988000041766,2025-11-14 21h38.24.850946 +0530,
4,0,4,s,2.4080033999998705,None,4,0,4,0,149.3789095000011,,,,,,,,,,,,,,,,,,,,,,,,,,,,,,,,,,,,,,,,,,,,,,,,,,149.36263830000098,149.3789095000011,149.89557120000063,149.86240460000045,149.87705880000067,149.89557120000063,149.89557120000063,149.89557120000063,152.31328140000005,Scenes\132b.jpg,pre,s,2.4080033999998705,None,,,,,,,,00011,001,2025-11-14_21h38.18.508,MST_test,2024.2.2,59.99988000041766,2025-11-14 21h38.24.850946 +0530,
5,0,5,n,2.819139899998845,None,5,0,5,0,152.32888620000085,,,,,,,,,,,,,,,,,,,,,,,,,,,,,,,,,,,,,,,,,,,,,,,,,,152.3133613000009,152.32888620000085,152.8290644000008,152.81240030000117,152.8241424000007,152.8290644000008,152.8290644000008,152.8290644000008,155.66252200000054,Foils\scenes5.jpg,none,n,2.819139899998845,None,,,,,,,,00011,001,2025-11-14_21h38.18.508,MST_test,2024.2.2,59.99988000041766,2025-11-14 21h38.24.850946 +0530,
6,0,6,s,6.507761200000459,None,6,0,6,0,155.67880210000112,,,,,,,,,,,,,,,,,,,,,,,,,,,,,,,,,,,,,,,,,,,,,,,,,,155.6626197000005,155.67880210000112,156.19576840000082,156.16233319999992,156.17899519999992,156.19576840000082,156.19576840000082,156.19576840000082,162.71237930000098,Foils\065a.jpg,none,s,6.507761200000459,None,,,,,,,,00011,001,2025-11-14_21h38.18.508,MST_test,2024.2.2,59.99988000041766,2025-11-14 21h38.24.850946 +0530,
7,0,7,o,1.611302400000568,None,7,0,7,0,162.72865470000033,,,,,,,,,,,,,,,,,,,,,,,,,,,,,,,,,,,,,,,,,,,,,,,,,,162.712478200001,162.72865470000033,163.228658,163.212260100001,163.22231880000072,163.228658,163.228658,163.228658,164.84577329999956,Objects\192a.jpg,post,o,1.611302400000568,None,,,,,,,,00011,001,2025-11-14_21h38.18.508,MST_test,2024.2.2,59.99988000041766,2025-11-14 21h38.24.850946 +0530,
8,0,8,o,1.8536233000013453,None,8,0,8,0,164.8619391000011,,,,,,,,,,,,,,,,,,,,,,,,,,,,,,,,,,,,,,,,,,,,,,,,,,164.84586070000114,164.8619391000011,165.37861160000102,165.34551040000042,165.3581451000009,165.37861160000102,165.37861160000102,165.37861160000102,167.24556959999973,Scenes\040a.jpg,mid,o,1.8536233000013453,None,,,,,,,,00011,001,2025-11-14_21h38.18.508,MST_test,2024.2.2,59.99988000041766,2025-11-14 21h38.24.850946 +0530,
9,0,9,o,1.3194853999993938,None,9,0,9,0,167.26189760000125,,,,,,,,,,,,,,,,,,,,,,,,,,,,,,,,,,,,,,,,,,,,,,,,,,167.24565470000016,167.26189760000125,167.77877760000047,167.7455045000006,167.7612566000007,167.77877760000047,167.77877760000047,167.77877760000047,169.11207579999973,Scenes\088a.jpg,pre,o,1.3194853999993938,None,,,,,,,,00011,001,2025-11-14_21h38.18.508,MST_test,2024.2.2,59.99988000041766,2025-11-14 21h38.24.850946 +0530,
10,0,10,o,1.3894393000009586,None,10,0,10,0,169.12852030000067,,,,,,,,,,,,,,,,,,,,,,,,,,,,,,,,,,,,,,,,,,,,,,,,,,169.11216109999987,169.12852030000067,169.66212650000125,169.61206169999969,169.6454104000004,169.66212650000125,169.66212650000125,169.66212650000125,171.06217959999958,Objects\065b.jpg,mid,o,1.3894393000009586,None,,,,,,,,00011,001,2025-11-14_21h38.18.508,MST_test,2024.2.2,59.99988000041766,2025-11-14 21h38.24.850946 +0530,
11,0,11,s,1.830395099999805,None,11,0,11,0,171.0784715000009,,,,,,,,,,,,,,,,,,,,,,,,,,,,,,,,,,,,,,,,,,,,,,,,,,171.06225500000073,171.0784715000009,171.59514520000084,171.56208080000033,171.57865400000082,171.59514520000084,171.59514520000084,171.59514520000084,173.42886390000058,Objects\025b.jpg,post,s,1.830395099999805,None,,,,,,,,00011,001,2025-11-14_21h38.18.508,MST_test,2024.2.2,59.99988000041766,2025-11-14 21h38.24.850946 +0530,
12,0,12,s,1.655775299999732,None,12,0,12,0,173.4450856000003,,,,,,,,,,,,,,,,,,,,,,,,,,,,,,,,,,,,,,,,,,,,,,,,,,173.428940400001,173.4450856000003,173.96174620000056,173.92857350000122,173.94469039999967,173.96174620000056,173.96174620000056,173.96174620000056,175.6287570000004,Objects\144b.jpg,pre,s,1.655775299999732,None,,,,,,,,00011,001,2025-11-14_21h38.18.508,MST_test,2024.2.2,59.99988000041766,2025-11-14 21h38.24.850946 +0530,
13,0,13,o,1.391891499999474,None,13,0,13,0,175.6450380999995,,,,,,,,,,,,,,,,,,,,,,,,,,,,,,,,,,,,,,,,,,,,,,,,,,175.62883460000012,175.6450380999995,176.14504149999993,176.12852170000042,176.13881849999962,176.14504149999993,176.14504149999993,176.14504149999993,177.5452865999996,Objects\008a.jpg,pre,o,1.391891499999474,None,,,,,,,,00011,001,2025-11-14_21h38.18.508,MST_test,2024.2.2,59.99988000041766,2025-11-14 21h38.24.850946 +0530,
14,0,14,o,1.5841288000010536,None,14,0,14,0,177.56166389999999,,,,,,,,,,,,,,,,,,,,,,,,,,,,,,,,,,,,,,,,,,,,,,,,,,177.54537010000058,177.56166389999999,178.07853539999996,178.0453333000005,178.05697549999968,178.07853539999996,178.07853539999996,178.07853539999996,179.67867430000115,Scenes\160a.jpg,pre,o,1.5841288000010536,None,,,,,,,,00011,001,2025-11-14_21h38.18.508,MST_test,2024.2.2,59.99988000041766,2025-11-14 21h38.24.850946 +0530,
15,0,15,o,0.8868211999997584,None,15,0,15,0,179.69495470000038,,,,,,,,,,,,,,,,,,,,,,,,,,,,,,,,,,,,,,,,,,,,,,,,,,179.67875800000002,179.69495470000038,180.19490790000054,180.17850050000015,180.18843370000104,180.19490790000054,180.19490790000054,180.19490790000054,181.095282100001,Objects\021a.jpg,post,o,0.8868211999997584,None,,,,,,,,00011,001,2025-11-14_21h38.18.508,MST_test,2024.2.2,59.99988000041766,2025-11-14 21h38.24.850946 +0530,
16,0,16,s,1.7031256999998732,None,16,0,16,0,181.11158109999997,,,,,,,,,,,,,,,,,,,,,,,,,,,,,,,,,,,,,,,,,,,,,,,,,,181.09535570000116,181.11158109999997,181.62825030000022,181.59513569999945,181.6122372000009,181.62825030000022,181.62825030000022,181.62825030000022,183.34536470000057,Scenes\182b.jpg,post,s,1.7031256999998732,None,,,,,,,,00011,001,2025-11-14_21h38.18.508,MST_test,2024.2.2,59.99988000041766,2025-11-14 21h38.24.850946 +0530,
17,0,17,s,2.4876540999994177,None,17,0,17,0,183.36154390000047,,,,,,,,,,,,,,,,,,,,,,,,,,,,,,,,,,,,,,,,,,,,,,,,,,183.3454715000007,183.36154390000047,183.87837170000057,183.8450386000004,183.8605258000007,183.87837170000057,183.87837170000057,183.87837170000057,186.37843319999956,Scenes\154b.jpg,pre,s,2.4876540999994177,None,,,,,,,,00011,001,2025-11-14_21h38.18.508,MST_test,2024.2.2,59.99988000041766,2025-11-14 21h38.24.850946 +0530,
18,0,18,o,1.1981431000003795,None,18,0,18,0,186.3948135999999,,,,,,,,,,,,,,,,,,,,,,,,,,,,,,,,,,,,,,,,,,,,,,,,,,186.37851910000063,186.3948135999999,186.91167400000086,186.87831740000001,186.89411219999965,186.91167400000086,186.91167400000086,186.91167400000086,188.11175670000011,Objects\057b.jpg,mid,o,1.1981431000003795,None,,,,,,,,00011,001,2025-11-14_21h38.18.508,MST_test,2024.2.2,59.99988000041766,2025-11-14 21h38.24.850946 +0530,
19,0,19,s,3.469034499999907,None,19,0,19,0,188.1281041000002,,,,,,,,,,,,,,,,,,,,,,,,,,,,,,,,,,,,,,,,,,,,,,,,,,188.11183520000122,188.1281041000002,188.64499570000044,188.61157430000094,188.6300269000003,188.64499570000044,188.64499570000044,188.64499570000044,192.12838850000117,Scenes\145b.jpg,post,s,3.469034499999907,None,,,,,,,,00011,001,2025-11-14_21h38.18.508,MST_test,2024.2.2,59.99988000041766,2025-11-14 21h38.24.850946 +0530,
20,0,20,o,1.0632538000008935,None,20,0,20,0,192.14474259999952,,,,,,,,,,,,,,,,,,,,,,,,,,,,,,,,,,,,,,,,,,,,,,,,,,192.12847470000088,192.14474259999952,192.64473680000083,192.62824040000123,192.63866410000082,192.64473680000083,192.64473680000083,192.64473680000083,193.71175330000005,Objects\099a.jpg,pre,o,1.0632538000008935,None,,,,,,,,00011,001,2025-11-14_21h38.18.508,MST_test,2024.2.2,59.99988000041766,2025-11-14 21h38.24.850946 +0530,
21,0,21,n,2.5393418000003294,None,21,0,21,0,193.72806909999963,,,,,,,,,,,,,,,,,,,,,,,,,,,,,,,,,,,,,,,,,,,,,,,,,,193.71183539999947,193.72806909999963,194.29483640000035,194.21156710000105,194.2741397000009,194.29483640000035,194.29483640000035,194.29483640000035,196.845046800001,Foils\scenes15.jpg,none,n,2.5393418000003294,None,,,,,,,,00011,001,2025-11-14_21h38.18.508,MST_test,2024.2.2,59.99988000041766,2025-11-14 21h38.24.850946 +0530,
22,0,22,o,1.393528200000219,None,22,0,22,0,196.86131370000112,,,,,,,,,,,,,,,,,,,,,,,,,,,,,,,,,,,,,,,,,,,,,,,,,,196.8451268000008,196.86131370000112,197.37821450000047,197.3448515,197.37372610000057,197.37821450000047,197.37821450000047,197.37821450000047,198.77824169999985,Scenes\032a.jpg,pre,o,1.393528200000219,None,,,,,,,,00011,001,2025-11-14_21h38.18.508,MST_test,2024.2.2,59.99988000041766,2025-11-14 21h38.24.850946 +0530,
23,0,23,o,1.3291402000013477,None,23,0,23,0,198.79462729999977,,,,,,,,,,,,,,,,,,,,,,,,,,,,,,,,,,,,,,,,,,,,,,,,,,198.7783216000007,198.79462729999977,199.2949625000001,199.27808100000038,199.28828819999944,199.2949625000001,199.2949625000001,199.2949625000001,200.6281942000005,Objects\183a.jpg,pre,o,1.3291402000013477,None,,,,,,,,00011,001,2025-11-14_21h38.18.508,MST_test,2024.2.2,59.99988000041766,2025-11-14 21h38.24.850946 +0530,
24,0,24,s,2.0747658999989653,None,24,0,24,0,200.6445904000011,,,,,,,,,,,,,,,,,,,,,,,,,,,,,,,,,,,,,,,,,,,,,,,,,,200.62826920000043,200.6445904000011,201.16121730000123,201.12807729999986,201.14327390000108,201.16121730000123,201.16121730000123,201.16121730000123,203.24479260000044,Objects\179b.jpg,post,s,2.0747658999989653,None,,,,,,,,00011,001,2025-11-14_21h38.18.508,MST_test,2024.2.2,59.99988000041766,2025-11-14 21h38.24.850946 +0530,
25,0,25,o,1.0726917000010872,None,25,0,25,0,203.26118060000044,,,,,,,,,,,,,,,,,,,,,,,,,,,,,,,,,,,,,,,,,,,,,,,,,,203.24487640000007,203.26118060000044,203.76118599999973,203.74467150000055,203.75520450000113,203.76118599999973,203.76118599999973,203.76118599999973,204.84520540000085,Objects\010a.jpg,post,o,1.0726917000010872,None,,,,,,,,00011,001,2025-11-14_21h38.18.508,MST_test,2024.2.2,59.99988000041766,2025-11-14 21h38.24.850946 +0530,
26,0,26,s,2.422502600000371,None,26,0,26,0,204.8611591000008,,,,,,,,,,,,,,,,,,,,,,,,,,,,,,,,,,,,,,,,,,,,,,,,,,204.84528479999972,204.8611591000008,205.37779650000084,205.34466620000057,205.36132390000057,205.37779650000084,205.37779650000084,205.37779650000084,207.81138570000076,Foils\042a.jpg,none,s,2.422502600000371,None,,,,,,,,00011,001,2025-11-14_21h38.18.508,MST_test,2024.2.2,59.99988000041766,2025-11-14 21h38.24.850946 +0530,
27,0,27,s,1.3631406999993487,None,27,0,27,0,207.8277693,,,,,,,,,,,,,,,,,,,,,,,,,,,,,,,,,,,,,,,,,,,,,,,,,,207.81146190000072,207.8277693,208.3444285000005,208.31122450000112,208.32725870000104,208.3444285000005,208.3444285000005,208.3444285000005,209.7113757999996,Objects\127b.jpg,post,s,1.3631406999993487,None,,,,,,,,00011,001,2025-11-14_21h38.18.508,MST_test,2024.2.2,59.99988000041766,2025-11-14 21h38.24.850946 +0530,
28,0,28,s,1.1979433999986213,None,28,0,28,0,209.72772890000124,,,,,,,,,,,,,,,,,,,,,,,,,,,,,,,,,,,,,,,,,,,,,,,,,,209.71145989999968,209.72772890000124,210.2443803999995,210.21120730000075,210.22673430000032,210.2443803999995,210.2443803999995,210.2443803999995,211.4446724999998,Objects\009b.jpg,post,s,1.1979433999986213,None,,,,,,,,00011,001,2025-11-14_21h38.18.508,MST_test,2024.2.2,59.99988000041766,2025-11-14 21h38.24.850946 +0530,
29,0,29,o,1.1623073999999178,None,29,0,29,0,211.46102000000064,,,,,,,,,,,,,,,,,,,,,,,,,,,,,,,,,,,,,,,,,,,,,,,,,,211.44475489999968,211.46102000000064,211.9779708999995,211.94462569999996,211.96349490000102,211.9779708999995,211.9779708999995,211.9779708999995,213.14454880000085,Scenes\005a.jpg,post,o,1.1623073999999178,None,,,,,,,,00011,001,2025-11-14_21h38.18.508,MST_test,2024.2.2,59.99988000041766,2025-11-14 21h38.24.850946 +0530,
30,0,30,s,1.1942073999998684,None,30,0,30,0,213.16099130000111,,,,,,,,,,,,,,,,,,,,,,,,,,,,,,,,,,,,,,,,,,,,,,,,,,213.1446231000009,213.16099130000111,213.67764230000103,213.64448540000012,213.66576990000067,213.67764230000103,213.67764230000103,213.67764230000103,214.87786589999996,Scenes\098b.jpg,pre,s,1.1942073999998684,None,,,,,,,,00011,001,2025-11-14_21h38.18.508,MST_test,2024.2.2,59.99988000041766,2025-11-14 21h38.24.850946 +0530,
31,0,31,o,1.0579557000000932,None,31,0,31,0,214.8942766,,,,,,,,,,,,,,,,,,,,,,,,,,,,,,,,,,,,,,,,,,,,,,,,,,214.87794779999967,214.8942766,215.39425250000022,215.3777381,215.38760530000036,215.39425250000022,215.39425250000022,215.39425250000022,216.4611889000007,Objects\153a.jpg,post,o,1.0579557000000932,None,,,,,,,,00011,001,2025-11-14_21h38.18.508,MST_test,2024.2.2,59.99988000041766,2025-11-14 21h38.24.850946 +0530,
32,0,32,o,1.0693523999998433,None,32,0,32,0,216.4775791000011,,,,,,,,,,,,,,,,,,,,,,,,,,,,,,,,,,,,,,,,,,,,,,,,,,216.4612742999998,216.4775791000011,216.99420950000058,216.96103969999967,216.9774785999998,216.99420950000058,216.99420950000058,216.99420950000058,218.07781609999984,Objects\111b.jpg,pre,o,1.0693523999998433,None,,,,,,,,00011,001,2025-11-14_21h38.18.508,MST_test,2024.2.2,59.99988000041766,2025-11-14 21h38.24.850946 +0530,
33,0,33,o,1.6548799000011059,None,33,0,33,0,218.09418990000086,,,,,,,,,,,,,,,,,,,,,,,,,,,,,,,,,,,,,,,,,,,,,,,,,,218.07789910000065,218.09418990000086,218.61087039999984,218.57765550000113,218.59635530000014,218.61087039999984,218.61087039999984,218.61087039999984,220.27785100000074,Scenes\144a.jpg,pre,o,1.6548799000011059,None,,,,,,,,00011,001,2025-11-14_21h38.18.508,MST_test,2024.2.2,59.99988000041766,2025-11-14 21h38.24.850946 +0530,
34,0,34,s,2.9132767000010062,None,34,0,34,0,220.29414160000124,,,,,,,,,,,,,,,,,,,,,,,,,,,,,,,,,,,,,,,,,,,,,,,,,,220.27792640000007,220.29414160000124,220.81072140000106,220.77756279999994,220.79425609999998,220.81072140000106,220.81072140000106,220.81072140000106,223.7276503000012,Foils\066a.jpg,none,s,2.9132767000010062,None,,,,,,,,00011,001,2025-11-14_21h38.18.508,MST_test,2024.2.2,59.99988000041766,2025-11-14 21h38.24.850946 +0530,
35,0,35,s,2.8350090000003547,None,35,0,35,0,223.74400570000034,,,,,,,,,,,,,,,,,,,,,,,,,,,,,,,,,,,,,,,,,,,,,,,,,,223.72773620000044,223.74400570000034,224.26062749999983,224.22747280000112,224.2500011000011,224.26062749999983,224.26062749999983,224.26062749999983,227.11109770000076,Scenes\126b.jpg,pre,s,2.8350090000003547,None,,,,,,,,00011,001,2025-11-14_21h38.18.508,MST_test,2024.2.2,59.99988000041766,2025-11-14 21h38.24.850946 +0530,
36,0,36,s,2.3520778000001883,None,36,0,36,0,227.12724200000048,,,,,,,,,,,,,,,,,,,,,,,,,,,,,,,,,,,,,,,,,,,,,,,,,,227.11119510000026,227.12724200000048,227.64389800000026,227.6108808000008,227.6290097000001,227.64389800000026,227.64389800000026,227.64389800000026,230.0108694999999,Scenes\049a.jpg,pre,s,2.3520778000001883,None,,,,,,,,00011,001,2025-11-14_21h38.18.508,MST_test,2024.2.2,59.99988000041766,2025-11-14 21h38.24.850946 +0530,
37,0,37,o,2.7264670000004116,None,37,0,37,0,230.0272041999997,,,,,,,,,,,,,,,,,,,,,,,,,,,,,,,,,,,,,,,,,,,,,,,,,,230.01094550000016,230.0272041999997,230.54407979999996,230.5107695000006,230.53958910000074,230.54407979999996,230.54407979999996,230.54407979999996,233.27742229999967,Scenes\134b.jpg,post,o,2.7264670000004116,None,,,,,,,,00011,001,2025-11-14_21h38.18.508,MST_test,2024.2.2,59.99988000041766,2025-11-14 21h38.24.850946 +0530,
38,0,38,s,2.513182400000005,None,38,0,38,0,233.29379440000048,,,,,,,,,,,,,,,,,,,,,,,,,,,,,,,,,,,,,,,,,,,,,,,,,,233.27749870000116,233.29379440000048,233.81062999999995,233.77731160000076,233.79538700000012,233.81062999999995,233.81062999999995,233.81062999999995,236.3273552999999,Objects\143b.jpg,mid,s,2.513182400000005,None,,,,,,,,00011,001,2025-11-14_21h38.18.508,MST_test,2024.2.2,59.99988000041766,2025-11-14 21h38.24.850946 +0530,
39,0,39,n,1.8679081999998743,None,39,0,39,0,236.3437345000002,,,,,,,,,,,,,,,,,,,,,,,,,,,,,,,,,,,,,,,,,,,,,,,,,,236.32743310000114,236.3437345000002,236.84396480000032,236.82725089999985,236.83474190000015,236.84396480000032,236.84396480000032,236.84396480000032,238.72726409999996,Foils\scenes14.jpg,none,n,1.8679081999998743,None,,,,,,,,00011,001,2025-11-14_21h38.18.508,MST_test,2024.2.2,59.99988000041766,2025-11-14 21h38.24.850946 +0530,
40,0,40,s,2.151574499999697,None,40,0,40,0,238.74368529999992,,,,,,,,,,,,,,,,,,,,,,,,,,,,,,,,,,,,,,,,,,,,,,,,,,238.72734740000124,238.74368529999992,239.26030549999996,239.22716480000054,239.2425948,239.26030549999996,239.26030549999996,239.26030549999996,241.4272899000007,Objects\104b.jpg,mid,s,2.151574499999697,None,,,,,,,,00011,001,2025-11-14_21h38.18.508,MST_test,2024.2.2,59.99988000041766,2025-11-14 21h38.24.850946 +0530,
41,0,41,o,3.14945280000029,None,41,0,41,0,241.4436268999998,,,,,,,,,,,,,,,,,,,,,,,,,,,,,,,,,,,,,,,,,,,,,,,,,,241.42737260000104,241.4436268999998,241.96049510000012,241.92707300000075,241.94876280000062,241.96049510000012,241.96049510000012,241.96049510000012,245.11068700000033,Scenes\100a.jpg,pre,o,3.14945280000029,None,,,,,,,,00011,001,2025-11-14_21h38.18.508,MST_test,2024.2.2,59.99988000041766,2025-11-14 21h38.24.850946 +0530,
42,0,42,n,2.742272600000433,None,42,0,42,0,245.1268772000003,,,,,,,,,,,,,,,,,,,,,,,,,,,,,,,,,,,,,,,,,,,,,,,,,,245.11077550000118,245.1268772000003,245.64350130000093,245.61036810000041,245.6268887999995,245.64350130000093,245.64350130000093,245.64350130000093,248.39381479999975,Objects\122b.jpg,post,n,2.742272600000433,None,,,,,,,,00011,001,2025-11-14_21h38.18.508,MST_test,2024.2.2,59.99988000041766,2025-11-14 21h38.24.850946 +0530,
43,0,43,n,7.6957235999998375,None,43,0,43,0,248.41014200000063,,,,,,,,,,,,,,,,,,,,,,,,,,,,,,,,,,,,,,,,,,,,,,,,,,248.39390260000073,248.41014200000063,248.91027990000111,248.89377840000088,248.90501089999998,248.91027990000111,248.91027990000111,248.91027990000111,256.61036220000096,Foils\scenes8.jpg,none,n,7.6957235999998375,None,,,,,,,,00011,001,2025-11-14_21h38.18.508,MST_test,2024.2.2,59.99988000041766,2025-11-14 21h38.24.850946 +0530,
44,0,44,s,2.074802200000704,None,44,0,44,0,256.62663070000053,,,,,,,,,,,,,,,,,,,,,,,,,,,,,,,,,,,,,,,,,,,,,,,,,,256.61045229999945,256.62663070000053,257.1265824000002,257.11022520000006,257.11977920000027,257.1265824000002,257.1265824000002,257.1265824000002,259.2102859000006,Objects\028a.jpg,mid,s,2.074802200000704,None,,,,,,,,00011,001,2025-11-14_21h38.18.508,MST_test,2024.2.2,59.99988000041766,2025-11-14 21h38.24.850946 +0530,
45,0,45,s,1.4396549999983108,None,45,0,45,0,259.2265760999999,,,,,,,,,,,,,,,,,,,,,,,,,,,,,,,,,,,,,,,,,,,,,,,,,,259.21037799999976,259.2265760999999,259.7265279000003,259.71005700000023,259.72159889999966,259.7265279000003,259.7265279000003,259.7265279000003,261.1769046999998,Scenes\053b.jpg,pre,s,1.4396549999983108,None,,,,,,,,00011,001,2025-11-14_21h38.18.508,MST_test,2024.2.2,59.99988000041766,2025-11-14 21h38.24.850946 +0530,
46,0,46,s,1.273462400000426,None,46,0,46,0,261.1932095000011,,,,,,,,,,,,,,,,,,,,,,,,,,,,,,,,,,,,,,,,,,,,,,,,,,261.1769836000003,261.1932095000011,261.71007740000096,261.6767412999998,261.6984854000002,261.71007740000096,261.71007740000096,261.71007740000096,262.99358120000034,Scenes\185b.jpg,mid,s,1.273462400000426,None,,,,,,,,00011,001,2025-11-14_21h38.18.508,MST_test,2024.2.2,59.99988000041766,2025-11-14 21h38.24.850946 +0530,
47,0,47,s,3.0337997000006,None,47,0,47,0,263.0098290999995,,,,,,,,,,,,,,,,,,,,,,,,,,,,,,,,,,,,,,,,,,,,,,,,,,262.9936646999995,263.0098290999995,263.5264795000003,263.4933946000001,263.5087345000011,263.5264795000003,263.5264795000003,263.5264795000003,266.5767887000002,Objects\093b.jpg,pre,s,3.0337997000006,None,,,,,,,,00011,001,2025-11-14_21h38.18.508,MST_test,2024.2.2,59.99988000041766,2025-11-14 21h38.24.850946 +0530,
48,0,48,n,1.5599643999994441,None,48,0,48,0,266.59308280000005,,,,,,,,,,,,,,,,,,,,,,,,,,,,,,,,,,,,,,,,,,,,,,,,,,266.57686680000006,266.59308280000005,267.3599795000009,267.0766158999995,267.3221269000005,267.3599795000009,267.3599795000009,267.3599795000009,268.9267517999997,Foils\scenes26.jpg,none,n,1.5599643999994441,None,,,,,,,,00011,001,2025-11-14_21h38.18.508,MST_test,2024.2.2,59.99988000041766,2025-11-14 21h38.24.850946 +0530,
49,0,49,s,3.0867459000000963,None,49,0,49,0,268.9431218000009,,,,,,,,,,,,,,,,,,,,,,,,,,,,,,,,,,,,,,,,,,,,,,,,,,268.92683390000093,268.9431218000009,269.4597511000011,269.4265728999999,269.4406945999999,269.4597511000011,269.4597511000011,269.4597511000011,272.55989580000096,Objects\035a.jpg,mid,s,3.0867459000000963,None,,,,,,,,00011,001,2025-11-14_21h38.18.508,MST_test,2024.2.2,59.99988000041766,2025-11-14 21h38.24.850946 +0530,
50,0,50,o,0.9744124999997439,None,50,0,50,0,272.57626040000105,,,,,,,,,,,,,,,,,,,,,,,,,,,,,,,,,,,,,,,,,,,,,,,,,,272.5599739999998,272.57626040000105,273.09316170000056,273.05991390000054,273.0783689,273.09316170000056,273.09316170000056,273.09316170000056,274.07662230000096,Scenes\087a.jpg,post,o,0.9744124999997439,None,,,,,,,,00011,001,2025-11-14_21h38.18.508,MST_test,2024.2.2,59.99988000041766,2025-11-14 21h38.24.850946 +0530,
51,0,51,o,0.7027895000010176,None,51,0,51,0,274.09292070000083,,,,,,,,,,,,,,,,,,,,,,,,,,,,,,,,,,,,,,,,,,,,,,,,,,274.0767037000005,274.09292070000083,274.60981060000086,274.5765535999999,274.5994453000003,274.60981060000086,274.60981060000086,274.60981060000086,275.32658319999973,Scenes\150a.jpg,mid,o,0.7027895000010176,None,,,,,,,,00011,001,2025-11-14_21h38.18.508,MST_test,2024.2.2,59.99988000041766,2025-11-14 21h38.24.850946 +0530,
52,0,52,o,0.8241379000010056,None,52,0,52,0,275.34289250000074,,,,,,,,,,,,,,,,,,,,,,,,,,,,,,,,,,,,,,,,,,,,,,,,,,275.32666679999966,275.34289250000074,275.8595485000005,275.8263767999997,275.8458405000001,275.8595485000005,275.8595485000005,275.8595485000005,276.69325150000077,Scenes\184a.jpg,mid,o,0.8241379000010056,None,,,,,,,,00011,001,2025-11-14_21h38.18.508,MST_test,2024.2.2,59.99988000041766,2025-11-14 21h38.24.850946 +0530,
53,0,53,o,4.141694299998562,None,53,0,53,0,276.70952729999954,,,,,,,,,,,,,,,,,,,,,,,,,,,,,,,,,,,,,,,,,,,,,,,,,,276.69333480000023,276.70952729999954,277.2263767000004,277.1930769999999,277.21890560000065,277.2263767000004,277.2263767000004,277.2263767000004,281.3765335999997,Scenes\108a.jpg,pre,o,4.141694299998562,None,,,,,,,,00011,001,2025-11-14_21h38.18.508,MST_test,2024.2.2,59.99988000041766,2025-11-14 21h38.24.850946 +0530,
54,0,54,o,2.3487275000006775,None,54,0,54,0,281.3927524999999,,,,,,,,,,,,,,,,,,,,,,,,,,,,,,,,,,,,,,,,,,,,,,,,,,281.3766187000001,281.3927524999999,281.90941770000063,281.87622740000006,281.89800060000016,281.90941770000063,281.90941770000063,281.90941770000063,284.25973669999985,Scenes\113b.jpg,pre,o,2.3487275000006775,None,,,,,,,,00011,001,2025-11-14_21h38.18.508,MST_test,2024.2.2,59.99988000041766,2025-11-14 21h38.24.850946 +0530,
55,0,55,o,0.7860011000011582,None,55,0,55,0,284.2760357999996,,,,,,,,,,,,,,,,,,,,,,,,,,,,,,,,,,,,,,,,,,,,,,,,,,284.25982190000104,284.2760357999996,284.77621499999987,284.7595158000004,284.77050820000113,284.77621499999987,284.77621499999987,284.77621499999987,285.5762781000012,Objects\073a.jpg,pre,o,0.7860011000011582,None,,,,,,,,00011,001,2025-11-14_21h38.18.508,MST_test,2024.2.2,59.99988000041766,2025-11-14 21h38.24.850946 +0530,
56,0,56,s,2.330135000000155,None,56,0,56,0,285.5926455000008,,,,,,,,,,,,,,,,,,,,,,,,,,,,,,,,,,,,,,,,,,,,,,,,,,285.57636060000004,285.5926455000008,286.1092958999998,286.07643330000064,286.0929976000007,286.1092958999998,286.1092958999998,286.1092958999998,288.4431027999999,Objects\079b.jpg,post,s,2.330135000000155,None,,,,,,,,00011,001,2025-11-14_21h38.18.508,MST_test,2024.2.2,59.99988000041766,2025-11-14 21h38.24.850946 +0530,
57,0,57,n,1.2260372999990068,None,57,0,57,0,288.45927850000044,,,,,,,,,,,,,,,,,,,,,,,,,,,,,,,,,,,,,,,,,,,,,,,,,,288.4431947000012,288.45927850000044,288.9759367000006,288.9427852000008,288.95807720000084,288.9759367000006,288.9759367000006,288.9759367000006,290.2095962000003,Foils\074a.jpg,none,n,1.2260372999990068,None,,,,,,,,00011,001,2025-11-14_21h38.18.508,MST_test,2024.2.2,59.99988000041766,2025-11-14 21h38.24.850946 +0530,
58,0,58,o,1.2421943000008469,None,58,0,58,0,290.22590070000115,,,,,,,,,,,,,,,,,,,,,,,,,,,,,,,,,,,,,,,,,,,,,,,,,,290.2096792000011,290.22590070000115,290.72590669999954,290.7095100000006,290.71946840000055,290.72590669999954,290.72590669999954,290.72590669999954,291.9762819999996,Objects\121a.jpg,mid,o,1.2421943000008469,None,,,,,,,,00011,001,2025-11-14_21h38.18.508,MST_test,2024.2.2,59.99988000041766,2025-11-14 21h38.24.850946 +0530,
59,0,59,o,1.1304634000007354,None,59,0,59,0,291.99253789999966,,,,,,,,,,,,,,,,,,,,,,,,,,,,,,,,,,,,,,,,,,,,,,,,,,291.9763581999996,291.99253789999966,292.5091936000008,292.47613230000024,292.49369970000043,292.5091936000008,292.5091936000008,292.5091936000008,293.64286970000103,Objects\124b.jpg,pre,o,1.1304634000007354,None,,,,,,,,00011,001,2025-11-14_21h38.18.508,MST_test,2024.2.2,59.99988000041766,2025-11-14 21h38.24.850946 +0530,
60,0,60,o,0.9945781000005809,None,60,0,60,0,293.65915940000014,,,,,,,,,,,,,,,,,,,,,,,,,,,,,,,,,,,,,,,,,,,,,,,,,,293.642945900001,293.65915940000014,294.15912539999954,294.14267850000033,294.1523066000009,294.15912539999954,294.15912539999954,294.15912539999954,295.1593868,Objects\128a.jpg,pre,o,0.9945781000005809,None,,,,,,,,00011,001,2025-11-14_21h38.18.508,MST_test,2024.2.2,59.99988000041766,2025-11-14 21h38.24.850946 +0530,
61,0,61,n,1.299999700000626,None,61,0,61,0,295.1757988999998,,,,,,,,,,,,,,,,,,,,,,,,,,,,,,,,,,,,,,,,,,,,,,,,,,295.15946070000064,295.1757988999998,295.69245799999953,295.65927250000095,295.6758858000012,295.69245799999953,295.69245799999953,295.69245799999953,296.9929140000004,Foils\097a.jpg,none,n,1.299999700000626,None,,,,,,,,00011,001,2025-11-14_21h38.18.508,MST_test,2024.2.2,59.99988000041766,2025-11-14 21h38.24.850946 +0530,
62,0,62,o,2.607368900000438,None,62,0,62,0,297.00910079999994,,,,,,,,,,,,,,,,,,,,,,,,,,,,,,,,,,,,,,,,,,,,,,,,,,296.9929967999997,297.00910079999994,297.54273769999963,297.49272440000095,297.52260449999994,297.54273769999963,297.54273769999963,297.54273769999963,300.1594347999999,Scenes\046a.jpg,mid,o,2.607368900000438,None,,,,,,,,00011,001,2025-11-14_21h38.18.508,MST_test,2024.2.2,59.99988000041766,2025-11-14 21h38.24.850946 +0530,
63,0,63,s,1.4478678000014042,None,63,0,63,0,300.1756958999995,,,,,,,,,,,,,,,,,,,,,,,,,,,,,,,,,,,,,,,,,,,,,,,,,,300.15952760000073,300.1756958999995,300.6923354999999,300.65917850000005,300.6747654999999,300.6923354999999,300.6923354999999,300.6923354999999,302.1426936000007,Objects\112b.jpg,mid,s,1.4478678000014042,None,,,,,,,,00011,001,2025-11-14_21h38.18.508,MST_test,2024.2.2,59.99988000041766,2025-11-14 21h38.24.850946 +0530,
64,0,64,s,0.8778796999995393,None,64,0,64,0,302.158982500001,,,,,,,,,,,,,,,,,,,,,,,,,,,,,,,,,,,,,,,,,,,,,,,,,,302.14278100000047,302.158982500001,302.67593940000006,302.6425395999995,302.66583730000093,302.67593940000006,302.67593940000006,302.67593940000006,303.55932480000047,Scenes\186b.jpg,mid,s,0.8778796999995393,None,,,,,,,,00011,001,2025-11-14_21h38.18.508,MST_test,2024.2.2,59.99988000041766,2025-11-14 21h38.24.850946 +0530,
65,0,65,s,1.0515345000003435,None,65,0,65,0,303.57562880000114,,,,,,,,,,,,,,,,,,,,,,,,,,,,,,,,,,,,,,,,,,,,,,,,,,303.55940700000065,303.57562880000114,304.09228149999944,304.0590979000008,304.07457609999983,304.09228149999944,304.09228149999944,304.09228149999944,305.15930950000075,Objects\150b.jpg,pre,s,1.0515345000003435,None,,,,,,,,00011,001,2025-11-14_21h38.18.508,MST_test,2024.2.2,59.99988000041766,2025-11-14 21h38.24.850946 +0530,
66,0,66,n,1.4435147999993205,None,66,0,66,0,305.17558720000125,,,,,,,,,,,,,,,,,,,,,,,,,,,,,,,,,,,,,,,,,,,,,,,,,,305.15938910000114,305.17558720000125,305.6758628000007,305.6591661000002,305.67094650000035,305.6758628000007,305.6758628000007,305.6758628000007,307.1259568000005,Foils\scenes6.jpg,none,n,1.4435147999993205,None,,,,,,,,00011,001,2025-11-14_21h38.18.508,MST_test,2024.2.2,59.99988000041766,2025-11-14 21h38.24.850946 +0530,
67,0,67,n,0.8005849000001035,None,67,0,67,0,307.1422170000005,,,,,,,,,,,,,,,,,,,,,,,,,,,,,,,,,,,,,,,,,,,,,,,,,,307.1260452000006,307.1422170000005,307.6588337000012,307.62579860000005,307.6422154000011,307.6588337000012,307.6588337000012,307.6588337000012,308.4758313000002,Foils\113a.jpg,none,n,0.8005849000001035,None,,,,,,,,00011,001,2025-11-14_21h38.18.508,MST_test,2024.2.2,59.99988000041766,2025-11-14 21h38.24.850946 +0530,
68,0,68,n,1.154674100000193,None,68,0,68,0,308.49220400000013,,,,,,,,,,,,,,,,,,,,,,,,,,,,,,,,,,,,,,,,,,,,,,,,,,308.4759081000011,308.49220400000013,309.0088386000007,308.9757874000006,308.9917709000001,309.0088386000007,309.0088386000007,309.0088386000007,310.1758812999997,Objects\067b.jpg,post,n,1.154674100000193,None,,,,,,,,00011,001,2025-11-14_21h38.18.508,MST_test,2024.2.2,59.99988000041766,2025-11-14 21h38.24.850946 +0530,
69,0,69,n,1.3624509000001126,None,69,0,69,0,310.19214060000013,,,,,,,,,,,,,,,,,,,,,,,,,,,,,,,,,,,,,,,,,,,,,,,,,,310.175970100001,310.19214060000013,310.7090626999998,310.6758843000007,310.69465780000064,310.7090626999998,310.7090626999998,310.7090626999998,312.0759173999995,Scenes\173a.jpg,mid,n,1.3624509000001126,None,,,,,,,,00011,001,2025-11-14_21h38.18.508,MST_test,2024.2.2,59.99988000041766,2025-11-14 21h38.24.850946 +0530,
70,0,70,s,1.5328675999990082,None,70,0,70,0,312.0920829000006,,,,,,,,,,,,,,,,,,,,,,,,,,,,,,,,,,,,,,,,,,,,,,,,,,312.0760037,312.0920829000006,312.6087227000007,312.5758576999997,312.6012799,312.6087227000007,312.6087227000007,312.6087227000007,314.14232450000054,Scenes\021b.jpg,post,s,1.5328675999990082,None,,,,,,,,00011,001,2025-11-14_21h38.18.508,MST_test,2024.2.2,59.99988000041766,2025-11-14 21h38.24.850946 +0530,
71,0,71,o,1.7086405999998533,None,71,0,71,0,314.15872130000025,,,,,,,,,,,,,,,,,,,,,,,,,,,,,,,,,,,,,,,,,,,,,,,,,,314.14240059999975,314.15872130000025,314.6753712999998,314.64216789999955,314.65875080000114,314.6753712999998,314.6753712999998,314.6753712999998,316.39245140000094,Objects\086b.jpg,post,o,1.7086405999998533,None,,,,,,,,00011,001,2025-11-14_21h38.18.508,MST_test,2024.2.2,59.99988000041766,2025-11-14 21h38.24.850946 +0530,
72,0,72,o,1.4372277999991638,None,72,0,72,0,316.40867360000084,,,,,,,,,,,,,,,,,,,,,,,,,,,,,,,,,,,,,,,,,,,,,,,,,,316.39253160000044,316.40867360000084,316.95895980000023,316.89216470000065,316.9102631000005,316.95895980000023,316.95895980000023,316.95895980000023,318.40901210000084,Scenes\008a.jpg,post,o,1.4372277999991638,None,,,,,,,,00011,001,2025-11-14_21h38.18.508,MST_test,2024.2.2,59.99988000041766,2025-11-14 21h38.24.850946 +0530,
73,0,73,o,1.9362657999990915,None,73,0,73,0,318.425366200001,,,,,,,,,,,,,,,,,,,,,,,,,,,,,,,,,,,,,,,,,,,,,,,,,,318.40909830000055,318.425366200001,318.94231089999994,318.90888840000116,318.9301553000005,318.94231089999994,318.94231089999994,318.94231089999994,320.89230150000003,Scenes\168b.jpg,mid,o,1.9362657999990915,None,,,,,,,,00011,001,2025-11-14_21h38.18.508,MST_test,2024.2.2,59.99988000041766,2025-11-14 21h38.24.850946 +0530,
74,0,74,s,1.5365870000005089,None,74,0,74,0,320.9085735000008,,,,,,,,,,,,,,,,,,,,,,,,,,,,,,,,,,,,,,,,,,,,,,,,,,320.8923899000001,320.9085735000008,321.42520800000057,321.3922063000009,321.4171017000008,321.42520800000057,321.42520800000057,321.42520800000057,322.9754974999996,Scenes\115b.jpg,post,s,1.5365870000005089,None,,,,,,,,00011,001,2025-11-14_21h38.18.508,MST_test,2024.2.2,59.99988000041766,2025-11-14 21h38.24.850946 +0530,
75,0,75,s,0.8996458000001439,None,75,0,75,0,322.9918963,,,,,,,,,,,,,,,,,,,,,,,,,,,,,,,,,,,,,,,,,,,,,,,,,,322.97557210000014,322.9918963,323.50849779999953,323.4753782000007,323.49767729999985,323.50849779999953,323.50849779999953,323.50849779999953,324.4087760000002,Scenes\141b.jpg,pre,s,0.8996458000001439,None,,,,,,,,00011,001,2025-11-14_21h38.18.508,MST_test,2024.2.2,59.99988000041766,2025-11-14 21h38.24.850946 +0530,
76,0,76,o,1.5728547999988223,None,76,0,76,0,324.42516890000115,,,,,,,,,,,,,,,,,,,,,,,,,,,,,,,,,,,,,,,,,,,,,,,,,,324.4088651000002,324.42516890000115,324.92530310000075,324.90863759999957,324.9190957999999,324.92530310000075,324.92530310000075,324.92530310000075,326.5088667,Objects\066a.jpg,mid,o,1.5728547999988223,None,,,,,,,,00011,001,2025-11-14_21h38.18.508,MST_test,2024.2.2,59.99988000041766,2025-11-14 21h38.24.850946 +0530,
77,0,77,s,1.3557448000010481,None,77,0,77,0,326.5251210999995,,,,,,,,,,,,,,,,,,,,,,,,,,,,,,,,,,,,,,,,,,,,,,,,,,326.5089416999999,326.5251210999995,327.04178429999956,327.00865970000086,327.02400490000036,327.04178429999956,327.04178429999956,327.04178429999956,328.40881939999963,Objects\004b.jpg,post,s,1.3557448000010481,None,,,,,,,,00011,001,2025-11-14_21h38.18.508,MST_test,2024.2.2,59.99988000041766,2025-11-14 21h38.24.850946 +0530,
78,0,78,o,1.388902999999118,None,78,0,78,0,328.42508530000123,,,,,,,,,,,,,,,,,,,,,,,,,,,,,,,,,,,,,,,,,,,,,,,,,,328.4089055000004,328.42508530000123,328.9250427999996,328.9085462000003,328.91823640000075,328.9250427999996,328.9250427999996,328.9250427999996,330.3253695000003,Objects\058a.jpg,mid,o,1.388902999999118,None,,,,,,,,00011,001,2025-11-14_21h38.18.508,MST_test,2024.2.2,59.99988000041766,2025-11-14 21h38.24.850946 +0530,
79,0,79,o,0.8217905000001338,None,79,0,79,0,330.34171629999946,,,,,,,,,,,,,,,,,,,,,,,,,,,,,,,,,,,,,,,,,,,,,,,,,,330.3254562000002,330.34171629999946,330.8416668000009,330.8252848000011,330.83517779999966,330.8416668000009,330.8416668000009,330.8416668000009,331.6752783000011,Objects\050a.jpg,mid,o,0.8217905000001338,None,,,,,,,,00011,001,2025-11-14_21h38.18.508,MST_test,2024.2.2,59.99988000041766,2025-11-14 21h38.24.850946 +0530,
80,0,80,n,3.2554624999993393,None,80,0,80,0,331.6916782999997,,,,,,,,,,,,,,,,,,,,,,,,,,,,,,,,,,,,,,,,,,,,,,,,,,331.67535560000033,331.6916782999997,332.2083125999998,332.1751734999998,332.1922488,332.2083125999998,332.2083125999998,332.2083125999998,335.4751749999996,Foils\093b.jpg,none,n,3.2554624999993393,None,,,,,,,,00011,001,2025-11-14_21h38.18.508,MST_test,2024.2.2,59.99988000041766,2025-11-14 21h38.24.850946 +0530,
81,0,81,o,1.3853424999997515,None,81,0,81,0,335.4916503000004,,,,,,,,,,,,,,,,,,,,,,,,,,,,,,,,,,,,,,,,,,,,,,,,,,335.4752561000005,335.4916503000004,336.00822680000056,335.97513190000063,335.99578629999996,336.00822680000056,336.00822680000056,336.00822680000056,337.40847659999963,Scenes\142a.jpg,post,o,1.3853424999997515,None,,,,,,,,00011,001,2025-11-14_21h38.18.508,MST_test,2024.2.2,59.99988000041766,2025-11-14 21h38.24.850946 +0530,
82,0,82,n,1.60255750000033,None,82,0,82,0,337.42488779999985,,,,,,,,,,,,,,,,,,,,,,,,,,,,,,,,,,,,,,,,,,,,,,,,,,337.40856259999964,337.42488779999985,337.9415200000003,337.9083793000009,337.92388500000015,337.9415200000003,337.9415200000003,337.9415200000003,339.5584744000007,Foils\049a.jpg,none,n,1.60255750000033,None,,,,,,,,00011,001,2025-11-14_21h38.18.508,MST_test,2024.2.2,59.99988000041766,2025-11-14 21h38.24.850946 +0530,
83,0,83,o,1.068728899999769,None,83,0,83,0,339.57481630000075,,,,,,,,,,,,,,,,,,,,,,,,,,,,,,,,,,,,,,,,,,,,,,,,,,339.5585482000006,339.57481630000075,340.09149550000075,340.05839620000006,340.07440320000023,340.09149550000075,340.09149550000075,340.09149550000075,341.1752267000011,Objects\030b.jpg,pre,o,1.068728899999769,None,,,,,,,,00011,001,2025-11-14_21h38.18.508,MST_test,2024.2.2,59.99988000041766,2025-11-14 21h38.24.850946 +0530,
84,0,84,n,3.3740925999991305,None,84,0,84,0,341.19144290000077,,,,,,,,,,,,,,,,,,,,,,,,,,,,,,,,,,,,,,,,,,,,,,,,,,341.17531380000037,341.19144290000077,341.7085127999999,341.67504290000034,341.6971188999996,341.7085127999999,341.7085127999999,341.7085127999999,345.0918051999997,Scenes\176b.jpg,post,n,3.3740925999991305,None,,,,,,,,00011,001,2025-11-14_21h38.18.508,MST_test,2024.2.2,59.99988000041766,2025-11-14 21h38.24.850946 +0530,
85,0,85,s,1.500897600000826,None,85,0,85,0,345.10805509999955,,,,,,,,,,,,,,,,,,,,,,,,,,,,,,,,,,,,,,,,,,,,,,,,,,345.09188170000016,345.10805509999955,345.6248340000002,345.5915834999996,345.6201056000009,345.6248340000002,345.6248340000002,345.6248340000002,347.1417271999999,Scenes\023a.jpg,mid,s,1.500897600000826,None,,,,,,,,00011,001,2025-11-14_21h38.18.508,MST_test,2024.2.2,59.99988000041766,2025-11-14 21h38.24.850946 +0530,
86,0,86,o,2.9653463999984524,None,86,0,86,0,347.158010000001,,,,,,,,,,,,,,,,,,,,,,,,,,,,,,,,,,,,,,,,,,,,,,,,,,347.1418113,347.158010000001,347.6581309000012,347.64149630000065,347.6518960000012,347.6581309000012,347.6581309000012,347.6581309000012,350.6249005000009,Objects\090a.jpg,pre,o,2.9653463999984524,None,,,,,,,,00011,001,2025-11-14_21h38.18.508,MST_test,2024.2.2,59.99988000041766,2025-11-14 21h38.24.850946 +0530,
87,0,87,s,8.467217499999606,None,87,0,87,0,350.6412710000004,,,,,,,,,,,,,,,,,,,,,,,,,,,,,,,,,,,,,,,,,,,,,,,,,,350.62498179999966,350.6412710000004,351.1582147000008,351.1247863000008,351.15193960000033,351.1582147000008,351.1582147000008,351.1582147000008,359.64134130000093,Scenes\104b.jpg,post,s,8.467217499999606,None,,,,,,,,00011,001,2025-11-14_21h38.18.508,MST_test,2024.2.2,59.99988000041766,2025-11-14 21h38.24.850946 +0530,
88,0,88,s,1.4978645999999571,None,88,0,88,0,359.6577448000007,,,,,,,,,,,,,,,,,,,,,,,,,,,,,,,,,,,,,,,,,,,,,,,,,,359.64142399999946,359.6577448000007,360.1743774000006,360.1413580999997,360.1639938999997,360.1743774000006,360.1743774000006,360.1743774000006,361.67473820000123,Scenes\138b.jpg,mid,s,1.4978645999999571,None,,,,,,,,00011,001,2025-11-14_21h38.18.508,MST_test,2024.2.2,59.99988000041766,2025-11-14 21h38.24.850946 +0530,
89,0,89,s,1.200065099999847,None,89,0,89,0,361.69103580000046,,,,,,,,,,,,,,,,,,,,,,,,,,,,,,,,,,,,,,,,,,,,,,,,,,361.67481410000073,361.69103580000046,362.20772130000114,362.17451679999976,362.1915938000002,362.20772130000114,362.20772130000114,362.20772130000114,363.4083470000005,Objects\095b.jpg,mid,s,1.200065099999847,None,,,,,,,,00011,001,2025-11-14_21h38.18.508,MST_test,2024.2.2,59.99988000041766,2025-11-14 21h38.24.850946 +0530,
90,0,90,s,4.626671299998634,None,90,0,90,0,363.4245025,,,,,,,,,,,,,,,,,,,,,,,,,,,,,,,,,,,,,,,,,,,,,,,,,,363.4084309000009,363.4245025,363.94107350000013,363.9078692000003,363.9267514000003,363.94107350000013,363.94107350000013,363.94107350000013,368.57451910000054,Scenes\077a.jpg,mid,s,4.626671299998634,None,,,,,,,,00011,001,2025-11-14_21h38.18.508,MST_test,2024.2.2,59.99988000041766,2025-11-14 21h38.24.850946 +0530,
91,0,91,s,0.9746381000004476,None,91,0,91,0,368.5908790000012,,,,,,,,,,,,,,,,,,,,,,,,,,,,,,,,,,,,,,,,,,,,,,,,,,368.5746008999995,368.5908790000012,369.0908378000004,369.07439780000095,369.08424840000043,369.0908378000004,369.0908378000004,369.0908378000004,370.0745827999999,Objects\120a.jpg,pre,s,0.9746381000004476,None,,,,,,,,00011,001,2025-11-14_21h38.18.508,MST_test,2024.2.2,59.99988000041766,2025-11-14 21h38.24.850946 +0530,
92,0,92,o,1.3562031000001298,None,92,0,92,0,370.09085480000067,,,,,,,,,,,,,,,,,,,,,,,,,,,,,,,,,,,,,,,,,,,,,,,,,,370.07465729999967,370.09085480000067,370.60750420000113,370.57443670000066,370.5923966999999,370.60750420000113,370.60750420000113,370.60750420000113,371.9744713,Scenes\178a.jpg,post,o,1.3562031000001298,None,,,,,,,,00011,001,2025-11-14_21h38.18.508,MST_test,2024.2.2,59.99988000041766,2025-11-14 21h38.24.850946 +0530,
93,0,93,o,1.5702172000001156,None,93,0,93,0,371.99081260000094,,,,,,,,,,,,,,,,,,,,,,,,,,,,,,,,,,,,,,,,,,,,,,,,,,371.9745614000003,371.99081260000094,372.50744830000076,372.4743458000012,372.4994150000002,372.50744830000076,372.50744830000076,372.50744830000076,374.0911369000005,Scenes\055b.jpg,mid,o,1.5702172000001156,None,,,,,,,,00011,001,2025-11-14_21h38.18.508,MST_test,2024.2.2,59.99988000041766,2025-11-14 21h38.24.850946 +0530,
94,0,94,s,1.0177837000010186,None,94,0,94,0,374.1074327000006,,,,,,,,,,,,,,,,,,,,,,,,,,,,,,,,,,,,,,,,,,,,,,,,,,374.09122449999995,374.1074327000006,374.62408610000057,374.5909797000004,374.6075930999996,374.62408610000057,374.62408610000057,374.62408610000057,375.6577261000002,Objects\026b.jpg,mid,s,1.0177837000010186,None,,,,,,,,00011,001,2025-11-14_21h38.18.508,MST_test,2024.2.2,59.99988000041766,2025-11-14 21h38.24.850946 +0530,
95,0,95,s,1.733914399999776,None,95,0,95,0,375.67406239999946,,,,,,,,,,,,,,,,,,,,,,,,,,,,,,,,,,,,,,,,,,,,,,,,,,375.6578067999999,375.67406239999946,376.1907028000005,376.15754390000075,376.1730246999996,376.1907028000005,376.1907028000005,376.1907028000005,377.9410179000006,Objects\087b.jpg,mid,s,1.733914399999776,None,,,,,,,,00011,001,2025-11-14_21h38.18.508,MST_test,2024.2.2,59.99988000041766,2025-11-14 21h38.24.850946 +0530,
96,0,96,o,3.7687903000005463,None,96,0,96,0,377.9573541000009,,,,,,,,,,,,,,,,,,,,,,,,,,,,,,,,,,,,,,,,,,,,,,,,,,377.9411022000004,377.9573541000009,378.45730619999995,378.44087519999994,378.45123109999986,378.45730619999995,378.45730619999995,378.45730619999995,382.24094830000104,Objects\178a.jpg,post,o,3.7687903000005463,None,,,,,,,,00011,001,2025-11-14_21h38.18.508,MST_test,2024.2.2,59.99988000041766,2025-11-14 21h38.24.850946 +0530,
97,0,97,s,1.1695026000015787,None,97,0,97,0,382.2572352999996,,,,,,,,,,,,,,,,,,,,,,,,,,,,,,,,,,,,,,,,,,,,,,,,,,382.24103490000016,382.2572352999996,382.7740038000011,382.7407002,382.76946959999987,382.7740038000011,382.7740038000011,382.7740038000011,383.9575784999997,Scenes\026a.jpg,mid,s,1.1695026000015787,None,,,,,,,,00011,001,2025-11-14_21h38.18.508,MST_test,2024.2.2,59.99988000041766,2025-11-14 21h38.24.850946 +0530,
98,0,98,n,1.3383128000004945,None,98,0,98,0,383.97388599999977,,,,,,,,,,,,,,,,,,,,,,,,,,,,,,,,,,,,,,,,,,,,,,,,,,383.9576584999995,383.97388599999977,384.6240415000011,384.4573627000009,384.6044555999997,384.6240415000011,384.6240415000011,384.6240415000011,385.97418970000035,Foils\scenes25.jpg,none,n,1.3383128000004945,None,,,,,,,,00011,001,2025-11-14_21h38.18.508,MST_test,2024.2.2,59.99988000041766,2025-11-14 21h38.24.850946 +0530,
99,0,99,n,1.3627479999995558,None,99,0,99,0,385.9904994999997,,,,,,,,,,,,,,,,,,,,,,,,,,,,,,,,,,,,,,,,,,,,,,,,,,385.9742747,385.9904994999997,386.5074368000005,386.47401420000097,386.49233190000086,386.5074368000005,386.5074368000005,386.5074368000005,387.8741733000006,Foils\020b.jpg,none,n,1.3627479999995558,None,,,,,,,,00011,001,2025-11-14_21h38.18.508,MST_test,2024.2.2,59.99988000041766,2025-11-14 21h38.24.850946 +0530,
100,0,100,n,1.2688240999996196,None,100,0,100,0,387.8904684000008,,,,,,,,,,,,,,,,,,,,,,,,,,,,,,,,,,,,,,,,,,,,,,,,,,387.8742578000001,387.8904684000008,388.40710130000116,388.3740237000002,388.38975949999985,388.40710130000116,388.40710130000116,388.40710130000116,389.69080550000035,Foils\026a.jpg,none,n,1.2688240999996196,None,,,,,,,,00011,001,2025-11-14_21h38.18.508,MST_test,2024.2.2,59.99988000041766,2025-11-14 21h38.24.850946 +0530,
101,0,101,s,6.105491500000426,None,101,0,101,0,389.7071046000001,,,,,,,,,,,,,,,,,,,,,,,,,,,,,,,,,,,,,,,,,,,,,,,,,,389.69088920000104,389.7071046000001,390.22372110000106,390.19063710000046,390.20699609999974,390.22372110000106,390.22372110000106,390.22372110000106,396.340851500001,Foils\010a.jpg,none,s,6.105491500000426,None,,,,,,,,00011,001,2025-11-14_21h38.18.508,MST_test,2024.2.2,59.99988000041766,2025-11-14 21h38.24.850946 +0530,
102,0,102,s,2.3834897999986424,None,102,0,102,0,396.35696129999997,,,,,,,,,,,,,,,,,,,,,,,,,,,,,,,,,,,,,,,,,,,,,,,,,,396.3409415999995,396.35696129999997,396.8739471000008,396.84052800000063,396.86853820000033,396.8739471000008,396.8739471000008,396.8739471000008,399.2739168999997,Scenes\009a.jpg,pre,s,2.3834897999986424,None,,,,,,,,00011,001,2025-11-14_21h38.18.508,MST_test,2024.2.2,59.99988000041766,2025-11-14 21h38.24.850946 +0530,
103,0,103,s,0.7986691000005521,None,103,0,103,0,399.29024910000044,,,,,,,,,,,,,,,,,,,,,,,,,,,,,,,,,,,,,,,,,,,,,,,,,,399.2740111000003,399.29024910000044,399.8068581000007,399.77377610000076,399.7890566999995,399.8068581000007,399.8068581000007,399.8068581000007,400.6072531000009,Foils\058a.jpg,none,s,0.7986691000005521,None,,,,,,,,00011,001,2025-11-14_21h38.18.508,MST_test,2024.2.2,59.99988000041766,2025-11-14 21h38.24.850946 +0530,
104,0,104,s,3.4139381000004505,None,104,0,104,0,400.6235293000009,,,,,,,,,,,,,,,,,,,,,,,,,,,,,,,,,,,,,,,,,,,,,,,,,,400.60732889999963,400.6235293000009,401.14017799999965,401.10699920000116,401.1228468999998,401.14017799999965,401.14017799999965,401.14017799999965,404.5572219000005,Objects\113b.jpg,mid,s,3.4139381000004505,None,,,,,,,,00011,001,2025-11-14_21h38.18.508,MST_test,2024.2.2,59.99988000041766,2025-11-14 21h38.24.850946 +0530,
105,0,105,o,2.4353415999994468,None,105,0,105,0,404.5734814000007,,,,,,,,,,,,,,,,,,,,,,,,,,,,,,,,,,,,,,,,,,,,,,,,,,404.5573060000006,404.5734814000007,405.0904535000009,405.0569759000009,405.07777440000064,405.0904535000009,405.0904535000009,405.0904535000009,407.5404201000001,Scenes\054a.jpg,post,o,2.4353415999994468,None,,,,,,,,00011,001,2025-11-14_21h38.18.508,MST_test,2024.2.2,59.99988000041766,2025-11-14 21h38.24.850946 +0530,
106,0,106,s,2.3425029999998515,None,106,0,106,0,407.5567028000005,,,,,,,,,,,,,,,,,,,,,,,,,,,,,,,,,,,,,,,,,,,,,,,,,,407.54050629999983,407.5567028000005,408.10698260000026,408.0403296000004,408.08707909999976,408.10698260000026,408.10698260000026,408.10698260000026,410.45703049999975,Foils\scenes22.jpg,none,s,2.3425029999998515,None,,,,,,,,00011,001,2025-11-14_21h38.18.508,MST_test,2024.2.2,59.99988000041766,2025-11-14 21h38.24.850946 +0530,
107,0,107,o,1.6858881000007386,None,107,0,107,0,410.4733216000004,,,,,,,,,,,,,,,,,,,,,,,,,,,,,,,,,,,,,,,,,,,,,,,,,,410.457122400001,410.4733216000004,410.9736047000006,410.9568528,410.96683010000015,410.9736047000006,410.9736047000006,410.9736047000006,412.67353060000096,Objects\125a.jpg,pre,o,1.6858881000007386,None,,,,,,,,00011,001,2025-11-14_21h38.18.508,MST_test,2024.2.2,59.99988000041766,2025-11-14 21h38.24.850946 +0530,
108,0,108,o,2.499409800000649,None,108,0,108,0,412.6899078000006,,,,,,,,,,,,,,,,,,,,,,,,,,,,,,,,,,,,,,,,,,,,,,,,,,412.6736099000009,412.6899078000006,413.19019649999973,413.1735841000009,413.18538420000004,413.19019649999973,413.19019649999973,413.19019649999973,415.69048680000014,Scenes\061a.jpg,post,o,2.499409800000649,None,,,,,,,,00011,001,2025-11-14_21h38.18.508,MST_test,2024.2.2,59.99988000041766,2025-11-14 21h38.24.850946 +0530,
109,0,109,o,0.789672499999142,None,109,0,109,0,415.7065132000007,,,,,,,,,,,,,,,,,,,,,,,,,,,,,,,,,,,,,,,,,,,,,,,,,,415.690588200001,415.7065132000007,416.22315809999964,416.1899921000004,416.20294730000023,416.22315809999964,416.22315809999964,416.22315809999964,417.0235690999998,Scenes\037a.jpg,mid,o,0.789672499999142,None,,,,,,,,00011,001,2025-11-14_21h38.18.508,MST_test,2024.2.2,59.99988000041766,2025-11-14 21h38.24.850946 +0530,
110,0,110,o,0.9604209999997693,None,110,0,110,0,417.03984690000107,,,,,,,,,,,,,,,,,,,,,,,,,,,,,,,,,,,,,,,,,,,,,,,,,,417.0236509000006,417.03984690000107,417.53985939999984,417.5234373000003,417.5330322000009,417.53985939999984,417.53985939999984,417.53985939999984,418.5068916,Objects\119a.jpg,pre,o,0.9604209999997693,None,,,,,,,,00011,001,2025-11-14_21h38.18.508,MST_test,2024.2.2,59.99988000041766,2025-11-14 21h38.24.850946 +0530,
111,0,111,o,0.8172756999992998,None,111,0,111,0,418.52314000000115,,,,,,,,,,,,,,,,,,,,,,,,,,,,,,,,,,,,,,,,,,,,,,,,,,418.50697500000024,418.52314000000115,419.0230960000008,419.0067061999998,419.01662620000025,419.0230960000008,419.0230960000008,419.0230960000008,419.8566675000002,Objects\014a.jpg,mid,o,0.8172756999992998,None,,,,,,,,00011,001,2025-11-14_21h38.18.508,MST_test,2024.2.2,59.99988000041766,2025-11-14 21h38.24.850946 +0530,
112,0,112,s,1.5093446999999287,None,112,0,112,0,419.8730988999996,,,,,,,,,,,,,,,,,,,,,,,,,,,,,,,,,,,,,,,,,,,,,,,,,,419.8567512999998,419.8730988999996,420.3899918999996,420.3566675000002,420.37794570000005,420.3899918999996,420.3899918999996,420.3899918999996,421.906690400001,Scenes\047a.jpg,mid,s,1.5093446999999287,None,,,,,,,,00011,001,2025-11-14_21h38.18.508,MST_test,2024.2.2,59.99988000041766,2025-11-14 21h38.24.850946 +0530,
113,0,113,o,1.2339609999999084,None,113,0,113,0,421.92307230000006,,,,,,,,,,,,,,,,,,,,,,,,,,,,,,,,,,,,,,,,,,,,,,,,,,421.9067742999996,421.92307230000006,422.4397355000001,422.4065878000001,422.42994890000045,422.4397355000001,422.4397355000001,422.4397355000001,423.6900614999995,Scenes\006b.jpg,mid,o,1.2339609999999084,None,,,,,,,,00011,001,2025-11-14_21h38.18.508,MST_test,2024.2.2,59.99988000041766,2025-11-14 21h38.24.850946 +0530,
114,0,114,o,0.9805357999994158,None,114,0,114,0,423.70633350000026,,,,,,,,,,,,,,,,,,,,,,,,,,,,,,,,,,,,,,,,,,,,,,,,,,423.6901428000001,423.70633350000026,424.2229919000001,424.1899704000007,424.20712360000107,424.2229919000001,424.2229919000001,424.2229919000001,425.2066795999999,Scenes\124a.jpg,post,o,0.9805357999994158,None,,,,,,,,00011,001,2025-11-14_21h38.18.508,MST_test,2024.2.2,59.99988000041766,2025-11-14 21h38.24.850946 +0530,
115,0,115,s,3.746291299999939,None,115,0,115,0,425.2229676999996,,,,,,,,,,,,,,,,,,,,,,,,,,,,,,,,,,,,,,,,,,,,,,,,,,425.2067654000002,425.2229676999996,425.7396521999999,425.70651670000007,425.7243352000005,425.7396521999999,425.7396521999999,425.7396521999999,429.48996420000003,Foils\034a.jpg,none,s,3.746291299999939,None,,,,,,,,00011,001,2025-11-14_21h38.18.508,MST_test,2024.2.2,59.99988000041766,2025-11-14 21h38.24.850946 +0530,
116,0,116,s,1.275038300000233,None,116,0,116,0,429.5062479999997,,,,,,,,,,,,,,,,,,,,,,,,,,,,,,,,,,,,,,,,,,,,,,,,,,429.49004849999983,429.5062479999997,430.00646120000056,429.9897428000004,430.0010591999999,430.00646120000056,430.00646120000056,430.00646120000056,431.289866000001,Foils\scenes3.jpg,none,s,1.275038300000233,None,,,,,,,,00011,001,2025-11-14_21h38.18.508,MST_test,2024.2.2,59.99988000041766,2025-11-14 21h38.24.850946 +0530,
117,0,117,s,1.0931753000004392,None,117,0,117,0,431.306199300001,,,,,,,,,,,,,,,,,,,,,,,,,,,,,,,,,,,,,,,,,,,,,,,,,,431.2899481000004,431.306199300001,431.82320849999996,431.7897401000009,431.8113265000011,431.82320849999996,431.82320849999996,431.82320849999996,432.92324370000097,Scenes\081a.jpg,post,s,1.0931753000004392,None,,,,,,,,00011,001,2025-11-14_21h38.18.508,MST_test,2024.2.2,59.99988000041766,2025-11-14 21h38.24.850946 +0530,
118,0,118,n,1.443763499999477,None,118,0,118,0,432.9394974000006,,,,,,,,,,,,,,,,,,,,,,,,,,,,,,,,,,,,,,,,,,,,,,,,,,432.92332309999983,432.9394974000006,433.4561203000012,433.42305280000073,433.4395456000002,433.4561203000012,433.4561203000012,433.4561203000012,434.9064154000007,Foils\073a.jpg,none,n,1.443763499999477,None,,,,,,,,00011,001,2025-11-14_21h38.18.508,MST_test,2024.2.2,59.99988000041766,2025-11-14 21h38.24.850946 +0530,
119,0,119,o,3.1248005000015837,None,119,0,119,0,434.9227681000011,,,,,,,,,,,,,,,,,,,,,,,,,,,,,,,,,,,,,,,,,,,,,,,,,,434.9065017000012,434.9227681000011,435.43942310000057,435.4062905999999,435.4217073,435.43942310000057,435.43942310000057,435.43942310000057,438.5730672999998,Scenes\166a.jpg,post,o,3.1248005000015837,None,,,,,,,,00011,001,2025-11-14_21h38.18.508,MST_test,2024.2.2,59.99988000041766,2025-11-14 21h38.24.850946 +0530,
120,0,120,s,2.5716868999988947,None,120,0,120,0,438.58937999999944,,,,,,,,,,,,,,,,,,,,,,,,,,,,,,,,,,,,,,,,,,,,,,,,,,438.5731536000003,438.58937999999944,439.1060027000003,439.0729105999999,439.09492189999946,439.1060027000003,439.1060027000003,439.1060027000003,441.6896147000007,Scenes\153b.jpg,post,s,2.5716868999988947,None,,,,,,,,00011,001,2025-11-14_21h38.18.508,MST_test,2024.2.2,59.99988000041766,2025-11-14 21h38.24.850946 +0530,
121,0,121,o,3.8391074999999546,None,121,0,121,0,441.70597930000076,,,,,,,,,,,,,,,,,,,,,,,,,,,,,,,,,,,,,,,,,,,,,,,,,,441.6896940000006,441.70597930000076,442.2228460000006,442.18966270000055,442.21439570000075,442.2228460000006,442.2228460000006,442.2228460000006,446.07287800000086,Scenes\002a.jpg,mid,o,3.8391074999999546,None,,,,,,,,00011,001,2025-11-14_21h38.18.508,MST_test,2024.2.2,59.99988000041766,2025-11-14 21h38.24.850946 +0530,
122,0,122,s,2.448053100000834,None,122,0,122,0,446.0892137999999,,,,,,,,,,,,,,,,,,,,,,,,,,,,,,,,,,,,,,,,,,,,,,,,,,446.0729616000008,446.0892137999999,446.60620689999996,446.57278270000097,446.5893329999999,446.60620689999996,446.60620689999996,446.60620689999996,449.05620400000043,Foils\086a.jpg,none,s,2.448053100000834,None,,,,,,,,00011,001,2025-11-14_21h38.18.508,MST_test,2024.2.2,59.99988000041766,2025-11-14 21h38.24.850946 +0530,
123,0,123,s,1.3524727000003622,None,123,0,123,0,449.07248620000064,,,,,,,,,,,,,,,,,,,,,,,,,,,,,,,,,,,,,,,,,,,,,,,,,,449.05629659999977,449.07248620000064,449.58914770000047,449.5560036000006,449.5715495000004,449.58914770000047,449.58914770000047,449.58914770000047,450.9560738,Objects\176b.jpg,post,s,1.3524727000003622,None,,,,,,,,00011,001,2025-11-14_21h38.18.508,MST_test,2024.2.2,59.99988000041766,2025-11-14 21h38.24.850946 +0530,
124,0,124,o,2.6230424999994284,None,124,0,124,0,450.9724445000011,,,,,,,,,,,,,,,,,,,,,,,,,,,,,,,,,,,,,,,,,,,,,,,,,,450.95615759999964,450.9724445000011,451.4893898999999,451.4559014999995,451.46929550000095,451.4893898999999,451.4893898999999,451.4893898999999,454.12273769999956,Scenes\036a.jpg,post,o,2.6230424999994284,None,,,,,,,,00011,001,2025-11-14_21h38.18.508,MST_test,2024.2.2,59.99988000041766,2025-11-14 21h38.24.850946 +0530,
125,0,125,s,1.4199590999996872,None,125,0,125,0,454.1390424000001,,,,,,,,,,,,,,,,,,,,,,,,,,,,,,,,,,,,,,,,,,,,,,,,,,454.12282179999966,454.1390424000001,454.6556681000002,454.6226347000011,454.6380227000009,454.6556681000002,454.6556681000002,454.6556681000002,456.0893804999996,Objects\107b.jpg,mid,s,1.4199590999996872,None,,,,,,,,00011,001,2025-11-14_21h38.18.508,MST_test,2024.2.2,59.99988000041766,2025-11-14 21h38.24.850946 +0530,
126,0,126,s,1.909601899998961,None,126,0,126,0,456.1056731000008,,,,,,,,,,,,,,,,,,,,,,,,,,,,,,,,,,,,,,,,,,,,,,,,,,456.0894671999995,456.1056731000008,456.6058331000004,456.58914279999954,456.6000973000009,456.6058331000004,456.6058331000004,456.6058331000004,458.5227343000006,Foils\scenes19.jpg,none,s,1.909601899998961,None,,,,,,,,00011,001,2025-11-14_21h38.18.508,MST_test,2024.2.2,59.99988000041766,2025-11-14 21h38.24.850946 +0530,
127,0,127,s,3.852915600000415,None,127,0,127,0,458.53903680000076,,,,,,,,,,,,,,,,,,,,,,,,,,,,,,,,,,,,,,,,,,,,,,,,,,458.52282390000073,458.53903680000076,459.05578869999954,459.0224397000002,459.041357600001,459.05578869999954,459.05578869999954,459.05578869999954,462.92262909999954,Scenes\027a.jpg,pre,s,3.852915600000415,None,,,,,,,,00011,001,2025-11-14_21h38.18.508,MST_test,2024.2.2,59.99988000041766,2025-11-14 21h38.24.850946 +0530,
128,0,128,o,2.794107499999882,None,128,0,128,0,462.93892659999983,,,,,,,,,,,,,,,,,,,,,,,,,,,,,,,,,,,,,,,,,,,,,,,,,,462.92271430000073,462.93892659999983,463.4555954999996,463.4225236000002,463.4377820999998,463.4555954999996,463.4555954999996,463.4555954999996,466.2558141999998,Objects\081b.jpg,mid,o,2.794107499999882,None,,,,,,,,00011,001,2025-11-14_21h38.18.508,MST_test,2024.2.2,59.99988000041766,2025-11-14 21h38.24.850946 +0530,
129,0,129,s,1.9851840999999695,None,129,0,129,0,466.27217030000065,,,,,,,,,,,,,,,,,,,,,,,,,,,,,,,,,,,,,,,,,,,,,,,,,,466.25589050000053,466.27217030000065,466.7890487000004,466.75566939999953,466.7823076000004,466.7890487000004,466.7890487000004,466.7890487000004,468.7890496,Scenes\165b.jpg,pre,s,1.9851840999999695,None,,,,,,,,00011,001,2025-11-14_21h38.18.508,MST_test,2024.2.2,59.99988000041766,2025-11-14 21h38.24.850946 +0530,
130,0,130,o,1.1942431999996188,None,130,0,130,0,468.8054050999999,,,,,,,,,,,,,,,,,,,,,,,,,,,,,,,,,,,,,,,,,,,,,,,,,,468.78913210000064,468.8054050999999,469.32213480000064,469.2889121999997,469.304363700001,469.32213480000064,469.32213480000064,469.32213480000064,470.52259740000045,Objects\064b.jpg,pre,o,1.1942431999996188,None,,,,,,,,00011,001,2025-11-14_21h38.18.508,MST_test,2024.2.2,59.99988000041766,2025-11-14 21h38.24.850946 +0530,
131,0,131,s,1.966946000000462,None,131,0,131,0,470.53878000000077,,,,,,,,,,,,,,,,,,,,,,,,,,,,,,,,,,,,,,,,,,,,,,,,,,470.52267290000054,470.53878000000077,471.0554723000005,471.0222577000004,471.03751569999986,471.0554723000005,471.0554723000005,471.0554723000005,473.03913250000005,Objects\062b.jpg,post,s,1.966946000000462,None,,,,,,,,00011,001,2025-11-14_21h38.18.508,MST_test,2024.2.2,59.99988000041766,2025-11-14 21h38.24.850946 +0530,
132,0,132,n,1.2524788000009721,None,132,0,132,0,473.0553895000012,,,,,,,,,,,,,,,,,,,,,,,,,,,,,,,,,,,,,,,,,,,,,,,,,,473.0392092000002,473.0553895000012,473.57208360000004,473.53886860000057,473.554069400001,473.57208360000004,473.57208360000004,473.57208360000004,474.83905810000033,Foils\082a.jpg,none,n,1.2524788000009721,None,,,,,,,,00011,001,2025-11-14_21h38.18.508,MST_test,2024.2.2,59.99988000041766,2025-11-14 21h38.24.850946 +0530,
133,0,133,s,5.039532099999633,None,133,0,133,0,474.85539770000105,,,,,,,,,,,,,,,,,,,,,,,,,,,,,,,,,,,,,,,,,,,,,,,,,,474.83914189999996,474.85539770000105,475.37199990000045,475.33892970000124,475.35430500000075,475.37199990000045,475.37199990000045,475.37199990000045,480.42238089999955,Objects\166b.jpg,pre,s,5.039532099999633,None,,,,,,,,00011,001,2025-11-14_21h38.18.508,MST_test,2024.2.2,59.99988000041766,2025-11-14 21h38.24.850946 +0530,
134,0,134,s,0.9619476000007126,None,134,0,134,0,480.4385660000007,,,,,,,,,,,,,,,,,,,,,,,,,,,,,,,,,,,,,,,,,,,,,,,,,,480.4224556999998,480.4385660000007,480.93832550000116,480.9221916000006,480.93400719999954,480.93832550000116,480.93832550000116,480.93832550000116,481.9055633000007,Foils\scenes16.jpg,none,s,0.9619476000007126,None,,,,,,,,00011,001,2025-11-14_21h38.18.508,MST_test,2024.2.2,59.99988000041766,2025-11-14 21h38.24.850946 +0530,
135,0,135,s,2.5411745000001247,None,135,0,135,0,481.9218713999999,,,,,,,,,,,,,,,,,,,,,,,,,,,,,,,,,,,,,,,,,,,,,,,,,,481.90564280000035,481.9218713999999,482.4387862000003,482.4054107000011,482.42753640000046,482.4387862000003,482.4387862000003,482.4387862000003,484.9887897999997,Foils\scenes27.jpg,none,s,2.5411745000001247,None,,,,,,,,00011,001,2025-11-14_21h38.18.508,MST_test,2024.2.2,59.99988000041766,2025-11-14 21h38.24.850946 +0530,
136,0,136,s,1.9226569999991625,None,136,0,136,0,485.0051105000002,,,,,,,,,,,,,,,,,,,,,,,,,,,,,,,,,,,,,,,,,,,,,,,,,,484.98887300000024,485.0051105000002,485.52179070000057,485.48877510000057,485.5065961,485.52179070000057,485.52179070000057,485.52179070000057,487.45543800000087,Objects\059b.jpg,pre,s,1.9226569999991625,None,,,,,,,,00011,001,2025-11-14_21h38.18.508,MST_test,2024.2.2,59.99988000041766,2025-11-14 21h38.24.850946 +0530,
137,0,137,s,0.9278599999997823,None,137,0,137,0,487.4717438000007,,,,,,,,,,,,,,,,,,,,,,,,,,,,,,,,,,,,,,,,,,,,,,,,,,487.45552690000113,487.4717438000007,487.98840250000103,487.95543440000074,487.9718442000012,487.98840250000103,487.98840250000103,487.98840250000103,488.9219757999999,Objects\092b.jpg,mid,s,0.9278599999997823,None,,,,,,,,00011,001,2025-11-14_21h38.18.508,MST_test,2024.2.2,59.99988000041766,2025-11-14 21h38.24.850946 +0530,
138,0,138,s,3.104617099999814,None,138,0,138,0,488.9383792000008,,,,,,,,,,,,,,,,,,,,,,,,,,,,,,,,,,,,,,,,,,,,,,,,,,488.92205079999985,488.9383792000008,489.4550123000008,489.42182409999987,489.43853300000046,489.4550123000008,489.4550123000008,489.4550123000008,492.5717638999995,Objects\139b.jpg,post,s,3.104617099999814,None,,,,,,,,00011,001,2025-11-14_21h38.18.508,MST_test,2024.2.2,59.99988000041766,2025-11-14 21h38.24.850946 +0530,
139,0,139,o,1.4985776000012265,None,139,0,139,0,492.588219700001,,,,,,,,,,,,,,,,,,,,,,,,,,,,,,,,,,,,,,,,,,,,,,,,,,492.57184210000014,492.588219700001,493.1051184000007,493.07176150000123,493.09274209999967,493.1051184000007,493.1051184000007,493.1051184000007,494.6054428999996,Scenes\114a.jpg,post,o,1.4985776000012265,None,,,,,,,,00011,001,2025-11-14_21h38.18.508,MST_test,2024.2.2,59.99988000041766,2025-11-14 21h38.24.850946 +0530,
140,0,140,s,1.4837263000008534,None,140,0,140,0,494.62147780000123,,,,,,,,,,,,,,,,,,,,,,,,,,,,,,,,,,,,,,,,,,,,,,,,,,494.6055271000005,494.62147780000123,495.1381572999999,495.104946200001,495.12143540000034,495.1381572999999,495.1381572999999,495.1381572999999,496.63846960000046,Objects\118b.jpg,pre,s,1.4837263000008534,None,,,,,,,,00011,001,2025-11-14_21h38.18.508,MST_test,2024.2.2,59.99988000041766,2025-11-14 21h38.24.850946 +0530,
141,0,141,s,1.827595000000656,None,141,0,141,0,496.6548068000011,,,,,,,,,,,,,,,,,,,,,,,,,,,,,,,,,,,,,,,,,,,,,,,,,,496.63854770000034,496.6548068000011,497.15479270000105,497.1382582999995,497.1483456999995,497.15479270000105,497.15479270000105,497.15479270000105,498.98848030000045,Objects\131a.jpg,post,s,1.827595000000656,None,,,,,,,,00011,001,2025-11-14_21h38.18.508,MST_test,2024.2.2,59.99988000041766,2025-11-14 21h38.24.850946 +0530,
142,0,142,n,5.035428600000159,None,142,0,142,0,499.0047534000005,,,,,,,,,,,,,,,,,,,,,,,,,,,,,,,,,,,,,,,,,,,,,,,,,,498.98856220000016,499.0047534000005,499.50469499999963,499.488204700001,499.4978284000008,499.50469499999963,499.50469499999963,499.50469499999963,504.5548808000003,Objects\168a.jpg,post,n,5.035428600000159,None,,,,,,,,00011,001,2025-11-14_21h38.18.508,MST_test,2024.2.2,59.99988000041766,2025-11-14 21h38.24.850946 +0530,
143,0,143,o,1.2006813000007241,None,143,0,143,0,504.57129689999965,,,,,,,,,,,,,,,,,,,,,,,,,,,,,,,,,,,,,,,,,,,,,,,,,,504.5549599999995,504.57129689999965,505.0879287000007,505.05491489999986,505.0832277999998,505.0879287000007,505.0879287000007,505.0879287000007,506.3049286000005,Scenes\103b.jpg,mid,o,1.2006813000007241,None,,,,,,,,00011,001,2025-11-14_21h38.18.508,MST_test,2024.2.2,59.99988000041766,2025-11-14 21h38.24.850946 +0530,
144,0,144,s,1.3639780000012252,None,144,0,144,0,506.32127240000045,,,,,,,,,,,,,,,,,,,,,,,,,,,,,,,,,,,,,,,,,,,,,,,,,,506.3050108999996,506.32127240000045,506.83787459999985,506.8047139999999,506.8323596000009,506.83787459999985,506.83787459999985,506.83787459999985,508.2049465,Scenes\164b.jpg,mid,s,1.3639780000012252,None,,,,,,,,00011,001,2025-11-14_21h38.18.508,MST_test,2024.2.2,59.99988000041766,2025-11-14 21h38.24.850946 +0530,
145,0,145,o,1.6922119000009843,None,145,0,145,0,508.22120429999995,,,,,,,,,,,,,,,,,,,,,,,,,,,,,,,,,,,,,,,,,,,,,,,,,,508.20503029999963,508.22120429999995,508.72116020000067,508.7048169999998,508.71450110000114,508.72116020000067,508.72116020000067,508.72116020000067,510.4216037999995,Objects\136a.jpg,mid,o,1.6922119000009843,None,,,,,,,,00011,001,2025-11-14_21h38.18.508,MST_test,2024.2.2,59.99988000041766,2025-11-14 21h38.24.850946 +0530,
146,0,146,o,1.2955170000004728,None,146,0,146,0,510.4378342,,,,,,,,,,,,,,,,,,,,,,,,,,,,,,,,,,,,,,,,,,,,,,,,,,510.4216907000009,510.4378342,510.9546912000005,510.9213018999999,510.94152310000027,510.9546912000005,510.9546912000005,510.9546912000005,512.254796700001,Scenes\013a.jpg,pre,o,1.2955170000004728,None,,,,,,,,00011,001,2025-11-14_21h38.18.508,MST_test,2024.2.2,59.99988000041766,2025-11-14 21h38.24.850946 +0530,
147,0,147,o,1.3092321000003722,None,147,0,147,0,512.2711311000003,,,,,,,,,,,,,,,,,,,,,,,,,,,,,,,,,,,,,,,,,,,,,,,,,,512.2548786999996,512.2711311000003,512.7710745000004,512.7547052000009,512.7647078999998,512.7710745000004,512.7710745000004,512.7710745000004,514.0880388000005,Objects\117a.jpg,post,o,1.3092321000003722,None,,,,,,,,00011,001,2025-11-14_21h38.18.508,MST_test,2024.2.2,59.99988000041766,2025-11-14 21h38.24.850946 +0530,
148,0,148,o,1.011428399999204,None,148,0,148,0,514.1044230999996,,,,,,,,,,,,,,,,,,,,,,,,,,,,,,,,,,,,,,,,,,,,,,,,,,514.0881233,514.1044230999996,514.6045850999999,514.5879032000012,514.5998880000006,514.6045850999999,514.6045850999999,514.6045850999999,515.6214082999995,Scenes\066a.jpg,pre,o,1.011428399999204,None,,,,,,,,00011,001,2025-11-14_21h38.18.508,MST_test,2024.2.2,59.99988000041766,2025-11-14 21h38.24.850946 +0530,
149,0,149,n,1.3396623000007821,None,149,0,149,0,515.6377504000011,,,,,,,,,,,,,,,,,,,,,,,,,,,,,,,,,,,,,,,,,,,,,,,,,,515.6214930999995,515.6377504000011,516.1543515000012,516.121328700001,516.1373272000001,516.1543515000012,516.1543515000012,516.1543515000012,517.5046180999998,Foils\009a.jpg,none,n,1.3396623000007821,None,,,,,,,,00011,001,2025-11-14_21h38.18.508,MST_test,2024.2.2,59.99988000041766,2025-11-14 21h38.24.850946 +0530,
,,,,,,,,,,,,,,,,,,,,,,,,,,,,,,,,,,,,,,,,,,,,,,,,,,,,,,,,,,,,,,,,,,,,,,,,,,517.5046784999995,517.5210114000001,517.5210114000001,522.0213469999999,space,4.493073499999809,None,00011,001,2025-11-14_21h38.18.508,MST_test,2024.2.2,59.99988000041766,2025-11-14 21h38.24.850946 +0530,
