Sl_no,image_path,thisN,thisTrialN,thisRepN,key_resp_5.keys,key_resp_7.keys,key_resp_7.rt,key_resp_7.duration,key_resp_5.rt,key_resp_5.duration,key_resp_9.keys,key_resp_9.rt,key_resp_9.duration,key_resp_8.keys,key_resp_8.rt,key_resp_8.duration,practice.thisRepN,practice.thisTrialN,practice.thisN,trials.thisRepN,trials.thisTrialN,trials.thisN,thisRow.t,notes,welcome_page.started,text.started,key_resp.started,welcome_page.stopped,key_resp.keys,key_resp.rt,key_resp.duration,instructions.started,ins.started,key_resp_2.started,instructions.stopped,key_resp_2.keys,key_resp_2.rt,key_resp_2.duration,objects_only_instruction.started,text_3.started,key_resp_3.started,objects_only_instruction.stopped,key_resp_3.keys,key_resp_3.rt,key_resp_3.duration,ISI.started,text_4.started,ISI.stopped,practice_block.started,image.started,text_5.started,key_resp_5.started,practice_block.stopped,practice.key_resp_5.keys,indoor_outdoor.started,text_7.started,key_resp_7.started,indoor_outdoor.stopped,practice.key_resp_7.keys,practice.key_resp_7.rt,practice.key_resp_7.duration,text_4.stopped,practice.key_resp_5.rt,practice.key_resp_5.duration,image.stopped,text_5.stopped,key_resp_5.stopped,practice_to_main.started,text_2.started,key_resp_4.started,practice_to_main.stopped,key_resp_4.keys,key_resp_4.rt,key_resp_4.duration,objects.started,image_2.started,text_9.started,key_resp_9.started,objects.stopped,trials.key_resp_9.keys,trials.key_resp_9.rt,trials.key_resp_9.duration,encoding_task.started,encoding_task.stopped,trials.key_resp_8.keys,text_8.started,key_resp_8.started,trials.key_resp_8.rt,trials.key_resp_8.duration,image_2.stopped,text_9.stopped,key_resp_9.stopped,end_experiment.started,text_6.started,key_resp_6.started,end_experiment.stopped,key_resp_6.keys,key_resp_6.rt,key_resp_6.duration,list_of_stimuli,encoding_task_accuracy,participant,session,date,expName,psychopyVersion,frameRate,expStart,
,,,,,,,,,,,,,,,,,,,,,,,,,0.0017726999999467807,0.004403399999773683,0.004403399999773683,834.1199895999998,space,834.1124044000003,None,,,,,,,,,,,,,,,,,,,,,,,,,,,,,,,,,,,,,,,,,,,,,,,,,,,,,,,,,,,,,,,,,,,,,,,00014,001,2025-11-17_15h22.12.288,MST_task,2024.2.0,60.20759579030844,2025-11-17 15h22.19.194916 +0530,
,,,,,,,,,,,,,,,,,,,,,,,,,,,,,,,,834.1201438999997,834.1362961999998,834.1362961999998,858.9363740999997,space,24.78818820000015,None,,,,,,,,,,,,,,,,,,,,,,,,,,,,,,,,,,,,,,,,,,,,,,,,,,,,,,,,,,,,,,,,00014,001,2025-11-17_15h22.12.288,MST_task,2024.2.0,60.20759579030844,2025-11-17 15h22.19.194916 +0530,
,,,,,,,,,,,,,,,,,,,,,,,,,,,,,,,,,,,,,,,858.9365339999999,858.9545284999999,858.9545284999999,866.1204334999998,space,7.1616165000000365,None,,,,,,,,,,,,,,,,,,,,,,,,,,,,,,,,,,,,,,,,,,,,,,,,,,,,,,,,,00014,001,2025-11-17_15h22.12.288,MST_task,2024.2.0,60.20759579030844,2025-11-17 15h22.19.194916 +0530,
4,practice_images/002b.jpg,0,0,1,None,j,1.3217626000000564,None,,,,,,,,,1,0,0,,,,866.1472940999997,,,,,,,,,,,,,,,,,,,,,,,866.1446263999997,866.1472940999997,866.6349558999996,866.6570635999997,866.6685235999998,866.6685235999998,866.6685235999998,869.6349747999998,None,869.6410331999996,869.6510273999997,869.6510273999997,870.9866211999997,j,1.3217626000000564,None,,,,,,,,,,,,,,,,,,,,,,,,,,,,,,,,,,,,,,,,,00014,001,2025-11-17_15h22.12.288,MST_task,2024.2.0,60.20759579030844,2025-11-17 15h22.19.194916 +0530,
8,practice_images/178a.jpg,1,1,1,j,None,,,1.4762735999997858,0.13639389999980267,,,,,,,1,1,1,,,,871.0012594,,,,,,,,,,,,,,,,,,,,,,,870.9869650999999,871.0012594,871.4854243,871.5172551999999,871.5197192999999,871.5197192999999,871.5197192999999,874.5017000999997,j,874.5019335999996,,,874.5020020999996,None,,,871.5197192999999,1.4762735999997858,0.13639389999980267,,,,,,,,,,,,,,,,,,,,,,,,,,,,,,,,,,,,,,00014,001,2025-11-17_15h22.12.288,MST_task,2024.2.0,60.20759579030844,2025-11-17 15h22.19.194916 +0530,
10,practice_images/182a.jpg,2,2,1,j,None,,,0.09365029999980834,0.11941220000016983,,,,,,,1,2,2,,,,874.5178329999999,,,,,,,,,,,,,,,,,,,,,,,874.5022939999999,874.5178329999999,875.0023518999997,875.0210180999998,875.0232529,875.0232529,875.0232529,878.0184835999999,j,878.0187133999998,,,878.0187836,None,,,875.0232529,0.09365029999980834,0.11941220000016983,,,,,,,,,,,,,,,,,,,,,,,,,,,,,,,,,,,,,,00014,001,2025-11-17_15h22.12.288,MST_task,2024.2.0,60.20759579030844,2025-11-17 15h22.19.194916 +0530,
9,practice_images/180a.jpg,3,3,1,f,None,,,1.7382118000000446,0.11937299999999595,,,,,,,1,3,3,,,,878.0343491999997,,,,,,,,,,,,,,,,,,,,,,,878.0190809999999,878.0343491999997,878.5194250999998,878.5359994999999,878.5386653999999,878.5386653999999,878.5386653999999,881.5349831999997,f,881.5351919,,,881.5352589999998,None,,,878.5386653999999,1.7382118000000446,0.11937299999999595,,,,,,,,,,,,,,,,,,,,,,,,,,,,,,,,,,,,,,00014,001,2025-11-17_15h22.12.288,MST_task,2024.2.0,60.20759579030844,2025-11-17 15h22.19.194916 +0530,
7,practice_images/166a.jpg,4,4,1,f,None,,,0.22346079999988433,0.14348450000034063,,,,,,,1,4,4,,,,881.5513804999996,,,,,,,,,,,,,,,,,,,,,,,881.5355509999999,881.5513804999996,882.0351099999998,882.0509712999997,882.0534073999997,882.0534073999997,882.0534073999997,885.0516713999996,f,885.0518826999996,,,885.0519495999997,None,,,882.0534073999997,0.22346079999988433,0.14348450000034063,,,,,,,,,,,,,,,,,,,,,,,,,,,,,,,,,,,,,,00014,001,2025-11-17_15h22.12.288,MST_task,2024.2.0,60.20759579030844,2025-11-17 15h22.19.194916 +0530,
5,practice_images/139a.jpg,5,5,1,f,None,,,1.6672129999997196,0.1676052000002528,,,,,,,1,5,5,,,,885.0678633999996,,,,,,,,,,,,,,,,,,,,,,,885.0522699999997,885.0678633999996,885.5523366999996,885.5671665,885.5695538,885.5695538,885.5695538,888.5684643,f,888.5686807999996,,,888.5687452999996,None,,,885.5695538,1.6672129999997196,0.1676052000002528,,,,,,,,,,,,,,,,,,,,,,,,,,,,,,,,,,,,,,00014,001,2025-11-17_15h22.12.288,MST_task,2024.2.0,60.20759579030844,2025-11-17 15h22.19.194916 +0530,
6,practice_images/158a.jpg,6,6,1,j,None,,,1.0708098999998583,0.17542469999989407,,,,,,,1,6,6,,,,888.5847050999996,,,,,,,,,,,,,,,,,,,,,,,888.5690371999999,888.5847050999996,889.0688295999998,889.0835211999997,889.0858447999999,889.0858447999999,889.0858447999999,892.0849733999999,j,892.0852854999998,,,892.0853783999996,None,,,889.0858447999999,1.0708098999998583,0.17542469999989407,,,,,,,,,,,,,,,,,,,,,,,,,,,,,,,,,,,,,,00014,001,2025-11-17_15h22.12.288,MST_task,2024.2.0,60.20759579030844,2025-11-17 15h22.19.194916 +0530,
1,practice_images/013a.jpg,7,7,1,j,None,,,1.1551549999999224,0.1837537000001248,,,,,,,1,7,7,,,,892.1011688999997,,,,,,,,,,,,,,,,,,,,,,,892.0856866999998,892.1011688999997,892.5853235,892.5980178,892.6014544,892.6014544,892.6014544,895.5858564999999,j,895.5860657999997,,,895.5861292,None,,,892.6014544,1.1551549999999224,0.1837537000001248,895.6012025,895.6012025,895.6012025,,,,,,,,,,,,,,,,,,,,,,,,,,,,,,,,,,,00014,001,2025-11-17_15h22.12.288,MST_task,2024.2.0,60.20759579030844,2025-11-17 15h22.19.194916 +0530,
2,practice_images/031a.jpg,8,8,1,f,None,,,1.1244955000001937,0.15969319999976506,,,,,,,1,8,8,,,,895.6012025,,,,,,,,,,,,,,,,,,,,,,,895.5864133,895.6012025,896.0856721999999,896.1015496,896.1038901999996,896.1038901999996,896.1038901999996,899.1025654,f,899.1027786,,,899.1028460999996,None,,,896.1038901999996,1.1244955000001937,0.15969319999976506,,,,,,,,,,,,,,,,,,,,,,,,,,,,,,,,,,,,,,00014,001,2025-11-17_15h22.12.288,MST_task,2024.2.0,60.20759579030844,2025-11-17 15h22.19.194916 +0530,
3,practice_images/037a.jpg,9,9,1,f,None,,,1.086552600000232,0.18428309999990233,,,,,,,1,9,9,,,,899.1178786999999,,,,,,,,,,,,,,,,,,,,,,,899.1031905,899.1178786999999,899.6024725999996,899.6195562999997,899.6218159999999,899.6218159999999,899.6218159999999,902.6185598999996,f,902.6187700999999,,,902.6188373999998,None,,,899.6218159999999,1.086552600000232,0.18428309999990233,,,,,,,,,,,,,,,,,,,,,,,,,,,,,,,,,,,,,,00014,001,2025-11-17_15h22.12.288,MST_task,2024.2.0,60.20759579030844,2025-11-17 15h22.19.194916 +0530,
,,,,,,,,,,,,,,,,,,,,,,,,,,,,,,,,,,,,,,,,,,,,,,,,,,,,,,,,,,,,,,,,,,,,902.6190240999999,902.6343647999997,902.6343647999997,934.9035286999997,space,32.25787889999992,None,,,,,,,,,,,,,,,,,,,,,,,,,,,,00014,001,2025-11-17_15h22.12.288,MST_task,2024.2.0,60.20759579030844,2025-11-17 15h22.19.194916 +0530,
,Scenes\059a.jpg,0,0,1,,,,,,,j,1.79219379999995,0.15942790000008245,None,,,,,,1,0,0,934.9177296999997,,,,,,,,,,,,,,,,,,,,,,,934.9060106999996,934.9177296999997,935.4026293999996,,,,,,,,,,,,,,935.4365779999998,,,,,,,,,,,,,935.4327199999998,935.4365779999998,935.4365779999998,935.4365779999998,938.4183745999999,j,1.79219379999995,0.15942790000008245,938.4229341999999,938.4229707999998,None,,,,,,,,,,,,,,,,,00014,001,2025-11-17_15h22.12.288,MST_task,2024.2.0,60.20759579030844,2025-11-17 15h22.19.194916 +0530,
,Scenes\192a.jpg,1,0,2,,,,,,,j,2.7734534999999596,0.1831661000001077,None,,,,,,2,0,1,938.4342357999999,,,,,,,,,,,,,,,,,,,,,,,938.4231696999996,938.4342357999999,938.9191219999998,,,,,,,,,,,,,,938.9433688999998,,,,,,,,,,,,,938.9401954999998,938.9433688999998,938.9433688999998,938.9433688999998,941.9352507999997,j,2.7734534999999596,0.1831661000001077,941.9355469999996,941.9356172999996,None,,,,,,,,,,,,,,,,,00014,001,2025-11-17_15h22.12.288,MST_task,2024.2.0,60.20759579030844,2025-11-17 15h22.19.194916 +0530,
,Scenes\068a.jpg,2,0,3,,,,,,,j,1.5523349000000053,0.25581970000030196,None,,,,,,3,0,2,941.9512458999998,,,,,,,,,,,,,,,,,,,,,,,941.9358980999996,941.9512458999998,942.4359692999997,,,,,,,,,,,,,,942.4603220999998,,,,,,,,,,,,,942.4571547999999,942.4603220999998,942.4603220999998,942.4603220999998,945.4519975999997,j,1.5523349000000053,0.25581970000030196,945.4522269999998,945.4522872999996,None,,,,,,,,,,,,,,,,,00014,001,2025-11-17_15h22.12.288,MST_task,2024.2.0,60.20759579030844,2025-11-17 15h22.19.194916 +0530,
,Scenes\154a.jpg,3,0,4,,,,,,,j,2.1408738999998604,0.2156446000003598,None,,,,,,4,0,3,945.4680491999998,,,,,,,,,,,,,,,,,,,,,,,945.4527177,945.4680491999998,945.9524525999996,,,,,,,,,,,,,,945.9759721999999,,,,,,,,,,,,,945.9726452999998,945.9759721999999,945.9759721999999,945.9759721999999,948.9684156999997,j,2.1408738999998604,0.2156446000003598,948.9686376,948.9687010999996,None,,,,,,,,,,,,,,,,,00014,001,2025-11-17_15h22.12.288,MST_task,2024.2.0,60.20759579030844,2025-11-17 15h22.19.194916 +0530,
,Scenes\011a.jpg,4,0,5,,,,,,,j,2.267601800000193,0.19165799999973387,None,,,,,,5,0,4,948.9843779999997,,,,,,,,,,,,,,,,,,,,,,,948.9690928999999,948.9843779999997,949.4688326999999,,,,,,,,,,,,,,949.4965697999996,,,,,,,,,,,,,949.4933029999997,949.4965697999996,949.4965697999996,949.4965697999996,952.4852859999996,j,2.267601800000193,0.19165799999973387,952.4855094,952.4855723999999,None,,,,,,,,,,,,,,,,,00014,001,2025-11-17_15h22.12.288,MST_task,2024.2.0,60.20759579030844,2025-11-17 15h22.19.194916 +0530,
,Scenes\040a.jpg,5,0,6,,,,,,,f,1.2553889999999228,0.23227640000004612,None,,,,,,6,0,5,952.5012839999999,,,,,,,,,,,,,,,,,,,,,,,952.4859882999999,952.5012839999999,952.9856403999997,,,,,,,,,,,,,,953.0128798999999,,,,,,,,,,,,,953.0096113,953.0128798999999,953.0128798999999,953.0128798999999,956.0018514999997,f,1.2553889999999228,0.23227640000004612,956.0020713999997,956.002133,None,,,,,,,,,,,,,,,,,00014,001,2025-11-17_15h22.12.288,MST_task,2024.2.0,60.20759579030844,2025-11-17 15h22.19.194916 +0530,
,Scenes\080a.jpg,6,0,7,,,,,,,j,1.8048573999999462,0.19199610000032408,None,,,,,,7,0,6,956.0181147999997,,,,,,,,,,,,,,,,,,,,,,,956.0025017999997,956.0181147999997,956.5031356,,,,,,,,,,,,,,956.5275036999997,,,,,,,,,,,,,956.5243317,956.5275036999997,956.5275036999997,956.5275036999997,959.5185038,j,1.8048573999999462,0.19199610000032408,959.5187229999997,959.5187840999997,None,,,,,,,,,,,,,,,,,00014,001,2025-11-17_15h22.12.288,MST_task,2024.2.0,60.20759579030844,2025-11-17 15h22.19.194916 +0530,
,Objects\067a.jpg,7,0,8,,,,,,,f,2.146882900000037,0.20044069999994463,None,,,,,,8,0,7,959.5346431999997,,,,,,,,,,,,,,,,,,,,,,,959.5191522,959.5346431999997,960.0192390999996,,,,,,,,,,,,,,960.0413473999997,,,,,,,,,,,,,960.0386125999999,960.0413473999997,960.0413473999997,960.0413473999997,963.0350563999996,f,2.146882900000037,0.20044069999994463,963.0352967999997,963.0353611999999,None,,,,,,,,,,,,,,,,,00014,001,2025-11-17_15h22.12.288,MST_task,2024.2.0,60.20759579030844,2025-11-17 15h22.19.194916 +0530,
,Objects\177a.jpg,8,0,9,,,,,,,j,2.2423177999999098,0.19238460000042323,None,,,,,,9,0,8,963.0511525999996,,,,,,,,,,,,,,,,,,,,,,,963.035672,963.0511525999996,963.5353109999996,,,,,,,,,,,,,,963.5538973999996,,,,,,,,,,,,,963.5513136999998,963.5538973999996,963.5538973999996,963.5538973999996,966.5358643999998,j,2.2423177999999098,0.19238460000042323,966.5360885,966.5361512999998,None,,,,,,,,,,,,,,,,,00014,001,2025-11-17_15h22.12.288,MST_task,2024.2.0,60.20759579030844,2025-11-17 15h22.19.194916 +0530,
,Objects\060a.jpg,9,0,10,,,,,,,None,,,j,0.6249241999998958,None,,,,10,0,9,966.5511754999998,,,,,,,,,,,,,,,,,,,,,,,966.5365734999996,966.5511754999998,967.0357783999998,,,,,,,,,,,,,,967.0561915999997,,,,,,,,,,,,,967.0535704999998,967.0561915999997,967.0561915999997,967.0561915999997,970.0517335,None,,,970.0519136999997,970.7032752,j,970.0678156999998,970.0678156999998,0.6249241999998958,None,,,,,,,,,,,,,00014,001,2025-11-17_15h22.12.288,MST_task,2024.2.0,60.20759579030844,2025-11-17 15h22.19.194916 +0530,
,Objects\163a.jpg,10,0,11,,,,,,,j,1.7985976999998456,0.1921196000002965,None,,,,,,11,0,10,970.7177296,,,,,,,,,,,,,,,,,,,,,,,970.7036857999997,970.7177296,971.2025033999998,,,,,,,,,,,,,,971.2216881999998,,,,,,,,,,,,,971.2190757999997,971.2216881999998,971.2216881999998,971.2216881999998,974.2184651999996,j,1.7985976999998456,0.1921196000002965,974.2186936999997,974.2187556999997,None,,,,,,,,,,,,,,,,,00014,001,2025-11-17_15h22.12.288,MST_task,2024.2.0,60.20759579030844,2025-11-17 15h22.19.194916 +0530,
,Objects\104a.jpg,11,0,12,,,,,,,f,2.817673200000172,None,None,,,,,,12,0,11,974.2345786999999,,,,,,,,,,,,,,,,,,,,,,,974.2190582999997,974.2345786999999,974.7190157999999,,,,,,,,,,,,,,974.7384732999999,,,,,,,,,,,,,974.7356488999999,974.7384732999999,974.7384732999999,974.7384732999999,977.7350800999998,f,2.817673200000172,None,977.7353077999996,977.7353701999996,None,,,,,,,,,,,,,,,,,00014,001,2025-11-17_15h22.12.288,MST_task,2024.2.0,60.20759579030844,2025-11-17 15h22.19.194916 +0530,
,Objects\065a.jpg,12,0,13,,,,,,,j,2.5178126000000702,0.23168110000005981,None,,,,,,13,0,12,977.7511535999997,,,,,,,,,,,,,,,,,,,,,,,977.7357413999998,977.7511535999997,978.2358859999999,,,,,,,,,,,,,,978.2544168,,,,,,,,,,,,,978.2516814999999,978.2544168,978.2544168,978.2544168,981.2521333999998,j,2.5178126000000702,0.23168110000005981,981.2523502999998,981.2524108999996,None,,,,,,,,,,,,,,,,,00014,001,2025-11-17_15h22.12.288,MST_task,2024.2.0,60.20759579030844,2025-11-17 15h22.19.194916 +0530,
,Objects\083a.jpg,13,0,14,,,,,,,f,1.7056572000001324,0.20810979999987467,None,,,,,,14,0,13,981.2678219,,,,,,,,,,,,,,,,,,,,,,,981.2527947999997,981.2678219,981.7524254,,,,,,,,,,,,,,981.7703789999996,,,,,,,,,,,,,981.7676716999999,981.7703789999996,981.7703789999996,981.7703789999996,984.7684562999998,f,1.7056572000001324,0.20810979999987467,984.7687134999996,984.7687738,None,,,,,,,,,,,,,,,,,00014,001,2025-11-17_15h22.12.288,MST_task,2024.2.0,60.20759579030844,2025-11-17 15h22.19.194916 +0530,
,Scenes\129a.jpg,14,0,15,,,,,,,j,1.0971561000001202,0.24754159999974945,None,,,,,,15,0,14,984.7843505999999,,,,,,,,,,,,,,,,,,,,,,,984.7690767999998,984.7843505999999,985.2690210999999,,,,,,,,,,,,,,985.2916682999999,,,,,,,,,,,,,985.2886083999997,985.2916682999999,985.2916682999999,985.2916682999999,988.2848990999996,j,1.0971561000001202,0.24754159999974945,988.2850727,988.2851117999999,None,,,,,,,,,,,,,,,,,00014,001,2025-11-17_15h22.12.288,MST_task,2024.2.0,60.20759579030844,2025-11-17 15h22.19.194916 +0530,
,Scenes\079a.jpg,15,0,16,,,,,,,j,1.5813830999995844,0.22314230000029056,None,,,,,,16,0,15,988.3012552999999,,,,,,,,,,,,,,,,,,,,,,,988.2853158999997,988.3012552999999,988.7856747999999,,,,,,,,,,,,,,988.8082307,,,,,,,,,,,,,988.8050682999997,988.8082307,988.8082307,988.8082307,991.8019418999997,j,1.5813830999995844,0.22314230000029056,991.8021652999996,991.8022268999998,None,,,,,,,,,,,,,,,,,00014,001,2025-11-17_15h22.12.288,MST_task,2024.2.0,60.20759579030844,2025-11-17 15h22.19.194916 +0530,
,Scenes\070a.jpg,16,0,17,,,,,,,f,2.411007199999858,0.24729419999994207,None,,,,,,17,0,16,991.8179232999996,,,,,,,,,,,,,,,,,,,,,,,991.8026132,991.8179232999996,992.3024057999996,,,,,,,,,,,,,,992.3295875999997,,,,,,,,,,,,,992.3263139999999,992.3295875999997,992.3295875999997,992.3295875999997,995.3184372999999,f,2.411007199999858,0.24729419999994207,995.3186268,995.3186782999996,None,,,,,,,,,,,,,,,,,00014,001,2025-11-17_15h22.12.288,MST_task,2024.2.0,60.20759579030844,2025-11-17 15h22.19.194916 +0530,
,Scenes\117a.jpg,17,0,18,,,,,,,j,1.303849700000228,0.28019270000004326,None,,,,,,18,0,17,995.3344055999996,,,,,,,,,,,,,,,,,,,,,,,995.3189889999999,995.3344055999996,995.8190288999999,,,,,,,,,,,,,,995.8442230999999,,,,,,,,,,,,,995.8409694999996,995.8442230999999,995.8442230999999,995.8442230999999,998.8350722999999,j,1.303849700000228,0.28019270000004326,998.8352879999998,998.8353505,None,,,,,,,,,,,,,,,,,00014,001,2025-11-17_15h22.12.288,MST_task,2024.2.0,60.20759579030844,2025-11-17 15h22.19.194916 +0530,
,Scenes\123a.jpg,18,0,19,,,,,,,j,1.228598300000158,0.2640161999997872,None,,,,,,19,0,18,998.8512001999998,,,,,,,,,,,,,,,,,,,,,,,998.8357346999996,998.8512001999998,999.3357203999999,,,,,,,,,,,,,,999.3598706999996,,,,,,,,,,,,,999.3572165999999,999.3598706999996,999.3598706999996,999.3598706999996,1002.3517757999998,j,1.228598300000158,0.2640161999997872,1002.3519979999996,1002.3520595,None,,,,,,,,,,,,,,,,,00014,001,2025-11-17_15h22.12.288,MST_task,2024.2.0,60.20759579030844,2025-11-17 15h22.19.194916 +0530,
,Scenes\034a.jpg,19,0,20,,,,,,,j,2.08854539999993,0.28026320000026317,None,,,,,,20,0,19,1002.3678175,,,,,,,,,,,,,,,,,,,,,,,1002.3524348999999,1002.3678175,1002.8525344999998,,,,,,,,,,,,,,1002.8833940999998,,,,,,,,,,,,,1002.8800432999997,1002.8833940999998,1002.8833940999998,1002.8833940999998,1005.8685413999997,j,2.08854539999993,0.28026320000026317,1005.8687639999998,1005.8688244999998,None,,,,,,,,,,,,,,,,,00014,001,2025-11-17_15h22.12.288,MST_task,2024.2.0,60.20759579030844,2025-11-17 15h22.19.194916 +0530,
,Scenes\029a.jpg,20,0,21,,,,,,,j,1.733371100000113,0.23924589999978707,None,,,,,,21,0,20,1005.8844985999999,,,,,,,,,,,,,,,,,,,,,,,1005.8692412999999,1005.8844985999999,1006.3690063999998,,,,,,,,,,,,,,1006.3994545999999,,,,,,,,,,,,,1006.3958611999997,1006.3994545999999,1006.3994545999999,1006.3994545999999,1009.3852261999996,j,1.733371100000113,0.23924589999978707,1009.3854468,1009.3855085999999,None,,,,,,,,,,,,,,,,,00014,001,2025-11-17_15h22.12.288,MST_task,2024.2.0,60.20759579030844,2025-11-17 15h22.19.194916 +0530,
,Objects\028a.jpg,21,0,22,,,,,,,f,2.0378216999997676,0.22395740000001751,None,,,,,,22,0,21,1009.4012720999999,,,,,,,,,,,,,,,,,,,,,,,1009.3858975999997,1009.4012720999999,1009.8851484999996,,,,,,,,,,,,,,1009.9020130999997,,,,,,,,,,,,,1009.8963609999996,1009.9020130999997,1009.9020130999997,1009.9020130999997,1012.8866497999998,f,2.0378216999997676,0.22395740000001751,1012.8868422999999,1012.8868895999999,None,,,,,1012.9012942999998,1012.9012942999998,1012.9012942999998,,,,,,,,,,00014,001,2025-11-17_15h22.12.288,MST_task,2024.2.0,60.20759579030844,2025-11-17 15h22.19.194916 +0530,
,Objects\102a.jpg,22,0,23,,,,,,,f,1.374898999999914,0.21556310000005396,None,,,,,,23,0,22,1012.9012942999998,,,,,,,,,,,,,,,,,,,,,,,1012.8872066999998,1012.9012942999998,1013.3858951999996,,,,,,,,,,,,,,1013.4057224999997,,,,,,,,,,,,,1013.4028524999999,1013.4057224999997,1013.4057224999997,1013.4057224999997,1016.4019912999997,f,1.374898999999914,0.21556310000005396,1016.4021875999997,1016.4022475999996,None,,,,,,,,,,,,,,,,,00014,001,2025-11-17_15h22.12.288,MST_task,2024.2.0,60.20759579030844,2025-11-17 15h22.19.194916 +0530,
,Objects\124a.jpg,23,0,24,,,,,,,j,1.647025400000075,0.23173769999993965,None,,,,,,24,0,23,1016.4179541999997,,,,,,,,,,,,,,,,,,,,,,,1016.4025450999998,1016.4179541999997,1016.9022897999998,,,,,,,,,,,,,,1016.9255807999998,,,,,,,,,,,,,1016.9223783999996,1016.9255807999998,1016.9255807999998,1016.9255807999998,1019.9186130999997,j,1.647025400000075,0.23173769999993965,1019.9188393999998,1019.9188993999996,None,,,,,,,,,,,,,,,,,00014,001,2025-11-17_15h22.12.288,MST_task,2024.2.0,60.20759579030844,2025-11-17 15h22.19.194916 +0530,
,Objects\077a.jpg,24,0,25,,,,,,,j,2.4376925000001393,0.22430239999994228,None,,,,,,25,0,24,1019.9345778999996,,,,,,,,,,,,,,,,,,,,,,,1019.9192807999998,1019.9345778999996,1020.4189984,,,,,,,,,,,,,,1020.4382844999996,,,,,,,,,,,,,1020.4355607999996,1020.4382844999996,1020.4382844999996,1020.4382844999996,1023.4352939999999,j,2.4376925000001393,0.22430239999994228,1023.435528,1023.4355903999999,None,,,,,,,,,,,,,,,,,00014,001,2025-11-17_15h22.12.288,MST_task,2024.2.0,60.20759579030844,2025-11-17 15h22.19.194916 +0530,
,Objects\045a.jpg,25,0,26,,,,,,,j,1.1687301000001753,0.24010479999969903,None,,,,,,26,0,25,1023.4512954999996,,,,,,,,,,,,,,,,,,,,,,,1023.4359761999999,1023.4512954999996,1023.9358085999997,,,,,,,,,,,,,,1023.95534,,,,,,,,,,,,,1023.9525990999996,1023.95534,1023.95534,1023.95534,1026.9519733999996,j,1.1687301000001753,0.24010479999969903,1026.9521891999998,1026.9522482999996,None,,,,,,,,,,,,,,,,,00014,001,2025-11-17_15h22.12.288,MST_task,2024.2.0,60.20759579030844,2025-11-17 15h22.19.194916 +0530,
,Objects\043a.jpg,26,0,27,,,,,,,f,1.4684901000000536,0.23205060000009325,None,,,,,,27,0,26,1026.9680693999999,,,,,,,,,,,,,,,,,,,,,,,1026.9526333999997,1026.9680693999999,1027.4524503999996,,,,,,,,,,,,,,1027.4716509999998,,,,,,,,,,,,,1027.4689824999996,1027.4716509999998,1027.4716509999998,1027.4716509999998,1030.4688886,f,1.4684901000000536,0.23205060000009325,1030.4691224999997,1030.4691826999997,None,,,,,,,,,,,,,,,,,00014,001,2025-11-17_15h22.12.288,MST_task,2024.2.0,60.20759579030844,2025-11-17 15h22.19.194916 +0530,
,Objects\116a.jpg,27,0,28,,,,,,,j,2.616193899999871,0.22400010000001203,None,,,,,,28,0,27,1030.4846266,,,,,,,,,,,,,,,,,,,,,,,1030.469459,1030.4846266,1030.9693852999999,,,,,,,,,,,,,,1030.9878261,,,,,,,,,,,,,1030.9851313,1030.9878261,1030.9878261,1030.9878261,1033.9851381999997,j,2.616193899999871,0.22400010000001203,1033.9853432,1033.9854039999996,None,,,,,,,,,,,,,,,,,00014,001,2025-11-17_15h22.12.288,MST_task,2024.2.0,60.20759579030844,2025-11-17 15h22.19.194916 +0530,
,Scenes\153a.jpg,28,0,29,,,,,,,j,1.086989800000083,0.22343259999979637,None,,,,,,29,0,28,1034.0013643999996,,,,,,,,,,,,,,,,,,,,,,,1033.9857819,1034.0013643999996,1034.4857521,,,,,,,,,,,,,,1034.5094924,,,,,,,,,,,,,1034.5062712,1034.5094924,1034.5094924,1034.5094924,1037.5018682999998,j,1.086989800000083,0.22343259999979637,1037.5020852999996,1037.5021465999998,None,,,,,,,,,,,,,,,,,00014,001,2025-11-17_15h22.12.288,MST_task,2024.2.0,60.20759579030844,2025-11-17 15h22.19.194916 +0530,
,Scenes\185a.jpg,29,0,30,,,,,,,j,2.8901976000001923,None,None,,,,,,30,0,29,1037.5178112999997,,,,,,,,,,,,,,,,,,,,,,,1037.502528,1037.5178112999997,1038.0026045,,,,,,,,,,,,,,1038.0262859,,,,,,,,,,,,,1038.0229660999998,1038.0262859,1038.0262859,1038.0262859,1041.0186264,j,2.8901976000001923,None,1041.0188441999999,1041.0189039999996,None,,,,,,,,,,,,,,,,,00014,001,2025-11-17_15h22.12.288,MST_task,2024.2.0,60.20759579030844,2025-11-17 15h22.19.194916 +0530,
,Scenes\094a.jpg,30,0,31,,,,,,,f,1.3203682000003027,0.25586829999974725,None,,,,,,31,0,30,1041.0346697,,,,,,,,,,,,,,,,,,,,,,,1041.019206,1041.0346697,1041.5191671999996,,,,,,,,,,,,,,1041.5477677,,,,,,,,,,,,,1041.5443031999998,1041.5477677,1041.5477677,1041.5477677,1044.5351567999996,f,1.3203682000003027,0.25586829999974725,1044.5353781999997,1044.5354399999997,None,,,,,,,,,,,,,,,,,00014,001,2025-11-17_15h22.12.288,MST_task,2024.2.0,60.20759579030844,2025-11-17 15h22.19.194916 +0530,
,Scenes\016a.jpg,31,0,32,,,,,,,j,1.607680000000073,0.19223620000002484,None,,,,,,32,0,31,1044.5516401,,,,,,,,,,,,,,,,,,,,,,,1044.5357406999997,1044.5516401,1045.0357197999997,,,,,,,,,,,,,,1045.0608429999997,,,,,,,,,,,,,1045.0570457999997,1045.0608429999997,1045.0608429999997,1045.0608429999997,1048.0519876999997,j,1.607680000000073,0.19223620000002484,1048.0522084,1048.0522684999996,None,,,,,,,,,,,,,,,,,00014,001,2025-11-17_15h22.12.288,MST_task,2024.2.0,60.20759579030844,2025-11-17 15h22.19.194916 +0530,
,Scenes\136a.jpg,32,0,33,,,,,,,j,1.8204812999997557,0.20788690000017596,None,,,,,,33,0,32,1048.0680816,,,,,,,,,,,,,,,,,,,,,,,1048.0526541999998,1048.0680816,1048.5525749999997,,,,,,,,,,,,,,1048.5759272999999,,,,,,,,,,,,,1048.5727499999998,1048.5759272999999,1048.5759272999999,1048.5759272999999,1051.5683568999998,j,1.8204812999997557,0.20788690000017596,1051.5685638999998,1051.5686253,None,,,,,,,,,,,,,,,,,00014,001,2025-11-17_15h22.12.288,MST_task,2024.2.0,60.20759579030844,2025-11-17 15h22.19.194916 +0530,
,Scenes\177a.jpg,33,0,34,,,,,,,j,1.3168099999998049,0.2558118000001741,None,,,,,,34,0,33,1051.584527,,,,,,,,,,,,,,,,,,,,,,,1051.5690142999997,1051.584527,1052.0692909999998,,,,,,,,,,,,,,1052.0955651,,,,,,,,,,,,,1052.0923356999997,1052.0955651,1052.0955651,1052.0955651,1055.0849666,j,1.3168099999998049,0.2558118000001741,1055.0851856999998,1055.0852473999998,None,,,,,,,,,,,,,,,,,00014,001,2025-11-17_15h22.12.288,MST_task,2024.2.0,60.20759579030844,2025-11-17 15h22.19.194916 +0530,
,Scenes\002a.jpg,34,0,35,,,,,,,j,1.7510819999997693,0.22351000000026033,None,,,,,,35,0,34,1055.1012437999998,,,,,,,,,,,,,,,,,,,,,,,1055.0855533999998,1055.1012437999998,1055.5857007999998,,,,,,,,,,,,,,1055.6132318,,,,,,,,,,,,,1055.6098373,1055.6132318,1055.6132318,1055.6132318,1058.6019265999998,j,1.7510819999997693,0.22351000000026033,1058.6021474,1058.6022058999997,None,,,,,,,,,,,,,,,,,00014,001,2025-11-17_15h22.12.288,MST_task,2024.2.0,60.20759579030844,2025-11-17 15h22.19.194916 +0530,
,Objects\054a.jpg,35,0,36,,,,,,,f,1.3917747000000418,0.22396949999983917,None,,,,,,36,0,35,1058.6180818999997,,,,,,,,,,,,,,,,,,,,,,,1058.6025661999997,1058.6180818999997,1059.1024862,,,,,,,,,,,,,,1059.1251017,,,,,,,,,,,,,1059.1217018999996,1059.1251017,1059.1251017,1059.1251017,1062.1185456999997,f,1.3917747000000418,0.22396949999983917,1062.1187640999997,1062.1188254999997,None,,,,,,,,,,,,,,,,,00014,001,2025-11-17_15h22.12.288,MST_task,2024.2.0,60.20759579030844,2025-11-17 15h22.19.194916 +0530,
,Objects\039a.jpg,36,0,37,,,,,,,j,1.7493777999998201,0.24808570000004693,None,,,,,,37,0,36,1062.1343499,,,,,,,,,,,,,,,,,,,,,,,1062.1191894999997,1062.1343499,1062.6188975999999,,,,,,,,,,,,,,1062.6388147999996,,,,,,,,,,,,,1062.6361887999997,1062.6388147999996,1062.6388147999996,1062.6388147999996,1065.6349167999997,j,1.7493777999998201,0.24808570000004693,1065.6351581,1065.635221,None,,,,,,,,,,,,,,,,,00014,001,2025-11-17_15h22.12.288,MST_task,2024.2.0,60.20759579030844,2025-11-17 15h22.19.194916 +0530,
,Objects\192a.jpg,37,0,38,,,,,,,j,0.9725645000003169,0.256571299999905,None,,,,,,38,0,37,1065.6511212999999,,,,,,,,,,,,,,,,,,,,,,,1065.6355958999998,1065.6511212999999,1066.1351746999999,,,,,,,,,,,,,,1066.1516853999997,,,,,,,,,,,,,1066.1472718,1066.1516853999997,1066.1516853999997,1066.1516853999997,1069.1363988999997,j,0.9725645000003169,0.256571299999905,1069.1365927999996,1069.1368946999996,None,,,,,1069.1513220999996,1069.1513220999996,1069.1513220999996,,,,,,,,,,00014,001,2025-11-17_15h22.12.288,MST_task,2024.2.0,60.20759579030844,2025-11-17 15h22.19.194916 +0530,
,Objects\121a.jpg,38,0,39,,,,,,,f,2.1486360999997487,0.24020820000032472,None,,,,,,39,0,38,1069.1513220999996,,,,,,,,,,,,,,,,,,,,,,,1069.1372257999997,1069.1513220999996,1069.6357088999998,,,,,,,,,,,,,,1069.6553495999997,,,,,,,,,,,,,1069.6526724999999,1069.6553495999997,1069.6553495999997,1069.6553495999997,1072.6516724999997,f,2.1486360999997487,0.24020820000032472,1072.6519162999998,1072.6519792999998,None,,,,,,,,,,,,,,,,,00014,001,2025-11-17_15h22.12.288,MST_task,2024.2.0,60.20759579030844,2025-11-17 15h22.19.194916 +0530,
,Objects\003a.jpg,39,0,40,,,,,,,j,1.1537257999998474,0.2635854999998628,None,,,,,,40,0,39,1072.6678806999998,,,,,,,,,,,,,,,,,,,,,,,1072.6522812999997,1072.6678806999998,1073.1521796999996,,,,,,,,,,,,,,1073.1707472999997,,,,,,,,,,,,,1073.1681962999996,1073.1707472999997,1073.1707472999997,1073.1707472999997,1076.1680748999997,j,1.1537257999998474,0.2635854999998628,1076.1681725999997,1076.1681974999997,None,,,,,,,,,,,,,,,,,00014,001,2025-11-17_15h22.12.288,MST_task,2024.2.0,60.20759579030844,2025-11-17 15h22.19.194916 +0530,
,Objects\086a.jpg,40,0,41,,,,,,,j,2.731872199999998,None,None,,,,,,41,0,40,1076.1843666999998,,,,,,,,,,,,,,,,,,,,,,,1076.16833,1076.1843666999998,1076.6688409999997,,,,,,,,,,,,,,1076.6886365999999,,,,,,,,,,,,,1076.6860631999998,1076.6886365999999,1076.6886365999999,1076.6886365999999,1079.6685080999996,j,2.731872199999998,None,1079.6687098999996,1079.6687709999997,None,,,,,,,,,,,,,,,,,00014,001,2025-11-17_15h22.12.288,MST_task,2024.2.0,60.20759579030844,2025-11-17 15h22.19.194916 +0530,
,Objects\002a.jpg,41,0,42,,,,,,,f,1.3208005999999841,0.24838780000027327,None,,,,,,42,0,41,1079.6846518999996,,,,,,,,,,,,,,,,,,,,,,,1079.6691428999998,1079.6846518999996,1080.1687935999998,,,,,,,,,,,,,,1080.1874320999996,,,,,,,,,,,,,1080.1849337999997,1080.1874320999996,1080.1874320999996,1080.1874320999996,1083.1852215,f,1.3208005999999841,0.24838780000027327,1083.1854415999996,1083.1855038999997,None,,,,,,,,,,,,,,,,,00014,001,2025-11-17_15h22.12.288,MST_task,2024.2.0,60.20759579030844,2025-11-17 15h22.19.194916 +0530,
,Scenes\025a.jpg,42,0,43,,,,,,,j,2.377746600000137,0.24730129999989003,None,,,,,,43,0,42,1083.2012274999997,,,,,,,,,,,,,,,,,,,,,,,1083.1858899,1083.2012274999997,1083.6854285,,,,,,,,,,,,,,1083.7148727,,,,,,,,,,,,,1083.7117323999996,1083.7148727,1083.7148727,1083.7148727,1086.7021127999997,j,2.377746600000137,0.24730129999989003,1086.7023339999996,1086.7023958,None,,,,,,,,,,,,,,,,,00014,001,2025-11-17_15h22.12.288,MST_task,2024.2.0,60.20759579030844,2025-11-17 15h22.19.194916 +0530,
,Scenes\166a.jpg,43,0,44,,,,,,,j,1.1614803999996184,0.30425600000035047,None,,,,,,44,0,43,1086.7178417,,,,,,,,,,,,,,,,,,,,,,,1086.7027011999999,1086.7178417,1087.2025878,,,,,,,,,,,,,,1087.2266679999998,,,,,,,,,,,,,1087.2233281,1087.2266679999998,1087.2266679999998,1087.2266679999998,1090.2187436,j,1.1614803999996184,0.30425600000035047,1090.2189703,1090.2190324999997,None,,,,,,,,,,,,,,,,,00014,001,2025-11-17_15h22.12.288,MST_task,2024.2.0,60.20759579030844,2025-11-17 15h22.19.194916 +0530,
,Scenes\121a.jpg,44,0,45,,,,,,,j,1.2099498000002313,0.24800729999969917,None,,,,,,45,0,44,1090.2344445999997,,,,,,,,,,,,,,,,,,,,,,,1090.2193324,1090.2344445999997,1090.7190839,,,,,,,,,,,,,,1090.7465966,,,,,,,,,,,,,1090.7431861,1090.7465966,1090.7465966,1090.7465966,1093.7349669999999,j,1.2099498000002313,0.24800729999969917,1093.7351758999998,1093.7352345,None,,,,,,,,,,,,,,,,,00014,001,2025-11-17_15h22.12.288,MST_task,2024.2.0,60.20759579030844,2025-11-17 15h22.19.194916 +0530,
,Scenes\182a.jpg,45,0,46,,,,,,,j,1.3529612999996061,0.26429860000007466,None,,,,,,46,0,45,1093.7514557999998,,,,,,,,,,,,,,,,,,,,,,,1093.7356201999996,1093.7514557999998,1094.2357084999999,,,,,,,,,,,,,,1094.2595442999996,,,,,,,,,,,,,1094.2563133999997,1094.2595442999996,1094.2595442999996,1094.2595442999996,1097.2518358999996,j,1.3529612999996061,0.26429860000007466,1097.2520537999999,1097.2521140999997,None,,,,,,,,,,,,,,,,,00014,001,2025-11-17_15h22.12.288,MST_task,2024.2.0,60.20759579030844,2025-11-17 15h22.19.194916 +0530,
,Scenes\030a.jpg,46,0,47,,,,,,,j,1.4305257999999412,0.23245589999987715,None,,,,,,47,0,46,1097.2679303,,,,,,,,,,,,,,,,,,,,,,,1097.2524165999998,1097.2679303,1097.7524574,,,,,,,,,,,,,,1097.7816776999998,,,,,,,,,,,,,1097.7784112,1097.7816776999998,1097.7816776999998,1097.7816776999998,1100.7685242999996,j,1.4305257999999412,0.23245589999987715,1100.7687180999997,1100.7687662999997,None,,,,,,,,,,,,,,,,,00014,001,2025-11-17_15h22.12.288,MST_task,2024.2.0,60.20759579030844,2025-11-17 15h22.19.194916 +0530,
,Scenes\174a.jpg,47,0,48,,,,,,,j,1.75673740000002,0.2330298000001676,None,,,,,,48,0,47,1100.7844381,,,,,,,,,,,,,,,,,,,,,,,1100.7690135999997,1100.7844381,1101.2689856999996,,,,,,,,,,,,,,1101.2952946999999,,,,,,,,,,,,,1101.2926829999997,1101.2952946999999,1101.2952946999999,1101.2952946999999,1104.2850344999997,j,1.75673740000002,0.2330298000001676,1104.2852451999997,1104.2853041999997,None,,,,,,,,,,,,,,,,,00014,001,2025-11-17_15h22.12.288,MST_task,2024.2.0,60.20759579030844,2025-11-17 15h22.19.194916 +0530,
,Scenes\091a.jpg,48,0,49,,,,,,,j,1.102107100000012,0.2555191000001287,None,,,,,,49,0,48,1104.3012168999999,,,,,,,,,,,,,,,,,,,,,,,1104.2856081999998,1104.3012168999999,1104.7856734999996,,,,,,,,,,,,,,1104.8145734,,,,,,,,,,,,,1104.8113973999998,1104.8145734,1104.8145734,1104.8145734,1107.8018008,j,1.102107100000012,0.2555191000001287,1107.8020293999998,1107.8020917,None,,,,,,,,,,,,,,,,,00014,001,2025-11-17_15h22.12.288,MST_task,2024.2.0,60.20759579030844,2025-11-17 15h22.19.194916 +0530,
,Objects\027a.jpg,49,0,50,,,,,,,f,1.1758417999999438,0.2632707000002483,None,,,,,,50,0,49,1107.8178543,,,,,,,,,,,,,,,,,,,,,,,1107.802483,1107.8178543,1108.3025570999998,,,,,,,,,,,,,,1108.3411558999996,,,,,,,,,,,,,1108.3378381999996,1108.3411558999996,1108.3411558999996,1108.3411558999996,1111.3186386999996,f,1.1758417999999438,0.2632707000002483,1111.3188587999998,1111.3189183,None,,,,,,,,,,,,,,,,,00014,001,2025-11-17_15h22.12.288,MST_task,2024.2.0,60.20759579030844,2025-11-17 15h22.19.194916 +0530,
,Objects\053a.jpg,50,0,51,,,,,,,f,0.8219452000003002,0.24802890000000843,None,,,,,,51,0,50,1111.3343799,,,,,,,,,,,,,,,,,,,,,,,1111.3192199999999,1111.3343799,1111.8191828,,,,,,,,,,,,,,1111.8386458,,,,,,,,,,,,,1111.8360346999998,1111.8386458,1111.8386458,1111.8386458,1114.8348239999996,f,0.8219452000003002,0.24802890000000843,1114.8350447999997,1114.8351057999998,None,,,,,,,,,,,,,,,,,00014,001,2025-11-17_15h22.12.288,MST_task,2024.2.0,60.20759579030844,2025-11-17 15h22.19.194916 +0530,
,Objects\006a.jpg,51,0,52,,,,,,,f,1.8115210000000843,0.2156632000001082,None,,,,,,52,0,51,1114.8511224999997,,,,,,,,,,,,,,,,,,,,,,,1114.8355079999997,1114.8511224999997,1115.3355520999999,,,,,,,,,,,,,,1115.3529609999996,,,,,,,,,,,,,1115.3500897,1115.3529609999996,1115.3529609999996,1115.3529609999996,1118.3520851999997,f,1.8115210000000843,0.2156632000001082,1118.3523019999998,1118.3523648999999,None,,,,,,,,,,,,,,,,,00014,001,2025-11-17_15h22.12.288,MST_task,2024.2.0,60.20759579030844,2025-11-17 15h22.19.194916 +0530,
,Objects\004a.jpg,52,0,53,,,,,,,f,1.2708388999999443,0.23956730000008974,None,,,,,,53,0,52,1118.3679496,,,,,,,,,,,,,,,,,,,,,,,1118.3526681999997,1118.3679496,1118.8520251,,,,,,,,,,,,,,1118.8697599999996,,,,,,,,,,,,,1118.8673264999998,1118.8697599999996,1118.8697599999996,1118.8697599999996,1121.8686246999996,f,1.2708388999999443,0.23956730000008974,1121.8688361999998,1121.8688948,None,,,,,,,,,,,,,,,,,00014,001,2025-11-17_15h22.12.288,MST_task,2024.2.0,60.20759579030844,2025-11-17 15h22.19.194916 +0530,
,Objects\129a.jpg,53,0,54,,,,,,,f,1.638068000000203,0.24043540000002395,None,,,,,,54,0,53,1121.8845748999997,,,,,,,,,,,,,,,,,,,,,,,1121.8691937999997,1121.8845748999997,1122.3692502999997,,,,,,,,,,,,,,1122.3902633999996,,,,,,,,,,,,,1122.3876750999998,1122.3902633999996,1122.3902633999996,1122.3902633999996,1125.3848656999999,f,1.638068000000203,0.24043540000002395,1125.3850693,1125.3852325999997,None,,,,,,,,,,,,,,,,,00014,001,2025-11-17_15h22.12.288,MST_task,2024.2.0,60.20759579030844,2025-11-17 15h22.19.194916 +0530,
,Objects\038a.jpg,54,0,55,,,,,,,f,0.9946837000002233,0.2006306999996923,None,,,,,,55,0,54,1125.4013216999997,,,,,,,,,,,,,,,,,,,,,,,1125.3856481999997,1125.4013216999997,1125.8853151999997,,,,,,,,,,,,,,1125.9052809999998,,,,,,,,,,,,,1125.902772,1125.9052809999998,1125.9052809999998,1125.9052809999998,1128.9018447999997,f,0.9946837000002233,0.2006306999996923,1128.9020646999998,1128.9021248999998,None,,,,,,,,,,,,,,,,,00014,001,2025-11-17_15h22.12.288,MST_task,2024.2.0,60.20759579030844,2025-11-17 15h22.19.194916 +0530,
,Objects\185a.jpg,55,0,56,,,,,,,f,1.11202510000021,0.19986920000019381,None,,,,,,56,0,55,1128.9179237999997,,,,,,,,,,,,,,,,,,,,,,,1128.9024880999996,1128.9179237999997,1129.4024666999999,,,,,,,,,,,,,,1129.4205313999996,,,,,,,,,,,,,1129.4179368999999,1129.4205313999996,1129.4205313999996,1129.4205313999996,1132.4185075999999,f,1.11202510000021,0.19986920000019381,1132.4187229999998,1132.4188293999996,None,,,,,,,,,,,,,,,,,00014,001,2025-11-17_15h22.12.288,MST_task,2024.2.0,60.20759579030844,2025-11-17 15h22.19.194916 +0530,
,Scenes\045a.jpg,56,0,57,,,,,,,j,0.9566399000000274,0.2638627000001179,None,,,,,,57,0,56,1132.4345165,,,,,,,,,,,,,,,,,,,,,,,1132.4192332999996,1132.4345165,1132.9188983999998,,,,,,,,,,,,,,1132.9674275999996,,,,,,,,,,,,,1132.9639355999998,1132.9674275999996,1132.9674275999996,1132.9674275999996,1135.9353667999999,j,0.9566399000000274,0.2638627000001179,1135.9355815,1135.9356414999997,None,,,,,,,,,,,,,,,,,00014,001,2025-11-17_15h22.12.288,MST_task,2024.2.0,60.20759579030844,2025-11-17 15h22.19.194916 +0530,
,Scenes\162a.jpg,57,0,58,,,,,,,None,,,j,0.6011098999997557,None,,,,58,0,57,1135.9513390999996,,,,,,,,,,,,,,,,,,,,,,,1135.9359421,1135.9513390999996,1136.4357329,,,,,,,,,,,,,,1136.4603361999998,,,,,,,,,,,,,1136.4567721999997,1136.4603361999998,1136.4603361999998,1136.4603361999998,1139.4516059999996,None,,,1139.4517225,1140.0866004,j,1139.4677282999996,1139.4677282999996,0.6011098999997557,None,,,,,,,,,,,,,00014,001,2025-11-17_15h22.12.288,MST_task,2024.2.0,60.20759579030844,2025-11-17 15h22.19.194916 +0530,
,Scenes\180a.jpg,58,0,59,,,,,,,j,0.9058325999999397,0.2162862000000132,None,,,,,,59,0,58,1140.1012329999999,,,,,,,,,,,,,,,,,,,,,,,1140.0871926999998,1140.1012329999999,1140.5858076999998,,,,,,,,,,,,,,1140.6100644999997,,,,,,,,,,,,,1140.6071233999996,1140.6100644999997,1140.6100644999997,1140.6100644999997,1143.6016167999996,j,0.9058325999999397,0.2162862000000132,1143.6018033999999,1143.6018535999997,None,,,,,,,,,,,,,,,,,00014,001,2025-11-17_15h22.12.288,MST_task,2024.2.0,60.20759579030844,2025-11-17 15h22.19.194916 +0530,
,Scenes\037a.jpg,59,0,60,,,,,,,j,0.9042986999997993,0.19246350000003076,None,,,,,,60,0,59,1143.6179373999998,,,,,,,,,,,,,,,,,,,,,,,1143.6021027999996,1143.6179373999998,1144.1023981999997,,,,,,,,,,,,,,1144.1236376999996,,,,,,,,,,,,,1144.1202881999998,1144.1236376999996,1144.1236376999996,1144.1236376999996,1147.1189313999998,j,0.9042986999997993,0.19246350000003076,1147.1191672999998,1147.1192325999996,None,,,,,,,,,,,,,,,,,00014,001,2025-11-17_15h22.12.288,MST_task,2024.2.0,60.20759579030844,2025-11-17 15h22.19.194916 +0530,
,Scenes\044a.jpg,60,0,61,,,,,,,j,0.9685951000001296,0.20757159999993746,None,,,,,,61,0,60,1147.1347575,,,,,,,,,,,,,,,,,,,,,,,1147.1195343,1147.1347575,1147.6190227999996,,,,,,,,,,,,,,1147.6441025999998,,,,,,,,,,,,,1147.6407516,1147.6441025999998,1147.6441025999998,1147.6441025999998,1150.6354573999997,j,0.9685951000001296,0.20757159999993746,1150.6356766,1150.6357361999999,None,,,,,,,,,,,,,,,,,00014,001,2025-11-17_15h22.12.288,MST_task,2024.2.0,60.20759579030844,2025-11-17 15h22.19.194916 +0530,
,Scenes\151a.jpg,61,0,62,,,,,,,j,0.8531075000000783,0.17529560000002675,None,,,,,,62,0,61,1150.6512970999997,,,,,,,,,,,,,,,,,,,,,,,1150.6360353,1150.6512970999997,1151.1362642999998,,,,,,,,,,,,,,1151.1596212,,,,,,,,,,,,,1151.1560569999997,1151.1596212,1151.1596212,1151.1596212,1154.1520882,j,0.8531075000000783,0.17529560000002675,1154.1523223,1154.1523805999996,None,,,,,,,,,,,,,,,,,00014,001,2025-11-17_15h22.12.288,MST_task,2024.2.0,60.20759579030844,2025-11-17 15h22.19.194916 +0530,
,Scenes\065a.jpg,62,0,63,,,,,,,j,0.8289472999999816,0.20034649999979592,None,,,,,,63,0,62,1154.1679909999998,,,,,,,,,,,,,,,,,,,,,,,1154.1526884,1154.1679909999998,1154.6525063999998,,,,,,,,,,,,,,1154.6791214999998,,,,,,,,,,,,,1154.6757426999998,1154.6791214999998,1154.6791214999998,1154.6791214999998,1157.6685201999999,j,0.8289472999999816,0.20034649999979592,1157.6687300999997,1157.6687854999996,None,,,,,,,,,,,,,,,,,00014,001,2025-11-17_15h22.12.288,MST_task,2024.2.0,60.20759579030844,2025-11-17 15h22.19.194916 +0530,
,Objects\186a.jpg,63,0,64,,,,,,,f,1.2332734999999957,0.20723910000015167,None,,,,,,64,0,63,1157.6844489,,,,,,,,,,,,,,,,,,,,,,,1157.6691683,1157.6844489,1158.1688643999996,,,,,,,,,,,,,,1158.1873295999999,,,,,,,,,,,,,1158.1840724999997,1158.1873295999999,1158.1873295999999,1158.1873295999999,1161.1850560999997,f,1.2332734999999957,0.20723910000015167,1161.1852571,1161.1853167999998,None,,,,,,,,,,,,,,,,,00014,001,2025-11-17_15h22.12.288,MST_task,2024.2.0,60.20759579030844,2025-11-17 15h22.19.194916 +0530,
,Objects\184a.jpg,64,0,65,,,,,,,j,1.8216732000000775,0.2150328999996418,None,,,,,,65,0,64,1161.2009581999996,,,,,,,,,,,,,,,,,,,,,,,1161.1856349999998,1161.2009581999996,1161.6855374999996,,,,,,,,,,,,,,1161.7032519,,,,,,,,,,,,,1161.7007289999997,1161.7032519,1161.7032519,1161.7032519,1164.7015764999996,j,1.8216732000000775,0.2150328999996418,1164.7017924999996,1164.7018534,None,,,,,,,,,,,,,,,,,00014,001,2025-11-17_15h22.12.288,MST_task,2024.2.0,60.20759579030844,2025-11-17 15h22.19.194916 +0530,
,Objects\153a.jpg,65,0,66,,,,,,,f,1.091368599999896,0.22396690000005037,None,,,,,,66,0,65,1164.7178038999996,,,,,,,,,,,,,,,,,,,,,,,1164.702237,1164.7178038999996,1165.2020656,,,,,,,,,,,,,,1165.2407495999996,,,,,,,,,,,,,1165.2376875,1165.2407495999996,1165.2407495999996,1165.2407495999996,1168.2183492999998,f,1.091368599999896,0.22396690000005037,1168.2184951999998,1168.2185345999997,None,,,,,,,,,,,,,,,,,00014,001,2025-11-17_15h22.12.288,MST_task,2024.2.0,60.20759579030844,2025-11-17 15h22.19.194916 +0530,
,Objects\156a.jpg,66,0,67,,,,,,,f,1.1881773999998586,0.2158382000002348,None,,,,,,67,0,66,1168.2344053999996,,,,,,,,,,,,,,,,,,,,,,,1168.2187403999997,1168.2344053999996,1168.7188265,,,,,,,,,,,,,,1168.7364211,,,,,,,,,,,,,1168.7338914999996,1168.7364211,1168.7364211,1168.7364211,1171.7349903,f,1.1881773999998586,0.2158382000002348,1171.7352280999999,1171.7352885999999,None,,,,,,,,,,,,,,,,,00014,001,2025-11-17_15h22.12.288,MST_task,2024.2.0,60.20759579030844,2025-11-17 15h22.19.194916 +0530,
,Objects\016a.jpg,67,0,68,,,,,,,f,2.9006521999999677,None,None,,,,,,68,0,67,1171.7510383,,,,,,,,,,,,,,,,,,,,,,,1171.7355900999996,1171.7510383,1172.2355862999998,,,,,,,,,,,,,,1172.2566817999996,,,,,,,,,,,,,1172.2540418999997,1172.2566817999996,1172.2566817999996,1172.2566817999996,1175.2515491,f,2.9006521999999677,None,1175.2517687,1175.2518315999996,None,,,,,,,,,,,,,,,,,00014,001,2025-11-17_15h22.12.288,MST_task,2024.2.0,60.20759579030844,2025-11-17 15h22.19.194916 +0530,
,Objects\179a.jpg,68,0,69,,,,,,,f,1.9302568000002793,0.19994850000011866,None,,,,,,69,0,68,1175.2678641999996,,,,,,,,,,,,,,,,,,,,,,,1175.2522593999997,1175.2678641999996,1175.7525367999997,,,,,,,,,,,,,,1175.77027,,,,,,,,,,,,,1175.7677380999999,1175.77027,1175.77027,1175.77027,1178.7685380999997,f,1.9302568000002793,0.19994850000011866,1178.7687598999996,1178.7688214999998,None,,,,,,,,,,,,,,,,,00014,001,2025-11-17_15h22.12.288,MST_task,2024.2.0,60.20759579030844,2025-11-17 15h22.19.194916 +0530,
,Objects\144a.jpg,69,0,70,,,,,,,f,1.2428023000002213,0.22355830000014976,None,,,,,,70,0,69,1178.7845820999996,,,,,,,,,,,,,,,,,,,,,,,1178.7692656999998,1178.7845820999996,1179.2689105999998,,,,,,,,,,,,,,1179.2895995,,,,,,,,,,,,,1179.2869119999996,1179.2895995,1179.2895995,1179.2895995,1182.2850254,f,1.2428023000002213,0.22355830000014976,1182.2852227999997,1182.2852801999998,None,,,,,,,,,,,,,,,,,00014,001,2025-11-17_15h22.12.288,MST_task,2024.2.0,60.20759579030844,2025-11-17 15h22.19.194916 +0530,
,Scenes\125a.jpg,70,0,71,,,,,,,j,0.9536775999999918,0.22331850000000486,None,,,,,,71,0,70,1182.3010983999998,,,,,,,,,,,,,,,,,,,,,,,1182.2856671999998,1182.3010983999998,1182.7858867999998,,,,,,,,,,,,,,1182.8348569,,,,,,,,,,,,,1182.8316937,1182.8348569,1182.8348569,1182.8348569,1185.8018389999997,j,0.9536775999999918,0.22331850000000486,1185.8020548999998,1185.8021147,None,,,,,,,,,,,,,,,,,00014,001,2025-11-17_15h22.12.288,MST_task,2024.2.0,60.20759579030844,2025-11-17 15h22.19.194916 +0530,
,Scenes\132a.jpg,71,0,72,,,,,,,f,1.4686467999999877,0.2401361000001998,None,,,,,,72,0,71,1185.8179023999996,,,,,,,,,,,,,,,,,,,,,,,1185.8024810999996,1185.8179023999996,1186.3023909999997,,,,,,,,,,,,,,1186.32766,,,,,,,,,,,,,1186.3242649,1186.32766,1186.32766,1186.32766,1189.3183967999998,f,1.4686467999999877,0.2401361000001998,1189.3185944999996,1189.3186554999997,None,,,,,,,,,,,,,,,,,00014,001,2025-11-17_15h22.12.288,MST_task,2024.2.0,60.20759579030844,2025-11-17 15h22.19.194916 +0530,
,Scenes\141a.jpg,72,0,73,,,,,,,j,1.0257985000002918,0.19168979999994917,None,,,,,,73,0,72,1189.3344846999998,,,,,,,,,,,,,,,,,,,,,,,1189.3189539999998,1189.3344846999998,1189.8189175999996,,,,,,,,,,,,,,1189.8427964999996,,,,,,,,,,,,,1189.8396320999996,1189.8427964999996,1189.8427964999996,1189.8427964999996,1192.8351220999998,j,1.0257985000002918,0.19168979999994917,1192.8353309999998,1192.8353921999997,None,,,,,,,,,,,,,,,,,00014,001,2025-11-17_15h22.12.288,MST_task,2024.2.0,60.20759579030844,2025-11-17 15h22.19.194916 +0530,
,Scenes\191a.jpg,73,0,74,,,,,,,j,1.3647147000001496,0.20782789999975648,None,,,,,,74,0,73,1192.8511810999998,,,,,,,,,,,,,,,,,,,,,,,1192.8357643,1192.8511810999998,1193.3357585999997,,,,,,,,,,,,,,1193.3595062999998,,,,,,,,,,,,,1193.3563869,1193.3595062999998,1193.3595062999998,1193.3595062999998,1196.3517390999996,j,1.3647147000001496,0.20782789999975648,1196.3519279999996,1196.3519792999996,None,,,,,,,,,,,,,,,,,00014,001,2025-11-17_15h22.12.288,MST_task,2024.2.0,60.20759579030844,2025-11-17 15h22.19.194916 +0530,
,Scenes\184a.jpg,74,0,75,,,,,,,j,1.359780199999932,0.19229909999967276,None,,,,,,75,0,74,1196.3677361999999,,,,,,,,,,,,,,,,,,,,,,,1196.3522337999998,1196.3677361999999,1196.8521859999996,,,,,,,,,,,,,,1196.8764280999999,,,,,,,,,,,,,1196.8732616999996,1196.8764280999999,1196.8764280999999,1196.8764280999999,1199.8689504999998,j,1.359780199999932,0.19229909999967276,1199.8691569999996,1199.8692165999996,None,,,,,,,,,,,,,,,,,00014,001,2025-11-17_15h22.12.288,MST_task,2024.2.0,60.20759579030844,2025-11-17 15h22.19.194916 +0530,
,Scenes\111a.jpg,75,0,76,,,,,,,j,0.8423535000001721,0.2161935999997695,None,,,,,,76,0,75,1199.8845631,,,,,,,,,,,,,,,,,,,,,,,1199.8695162,1199.8845631,1200.3691424999997,,,,,,,,,,,,,,1200.3935872999996,,,,,,,,,,,,,1200.3904596999996,1200.3935872999996,1200.3935872999996,1200.3935872999996,1203.3851238999996,j,0.8423535000001721,0.2161935999997695,1203.3853500999999,1203.3854110999996,None,,,,,,,,,,,,,,,,,00014,001,2025-11-17_15h22.12.288,MST_task,2024.2.0,60.20759579030844,2025-11-17 15h22.19.194916 +0530,
,Scenes\112a.jpg,76,0,77,,,,,,,j,0.7408098000000791,0.2078684000002795,None,,,,,,77,0,76,1203.4012461999996,,,,,,,,,,,,,,,,,,,,,,,1203.3857138999997,1203.4012461999996,1203.8856941,,,,,,,,,,,,,,1203.9115264999996,,,,,,,,,,,,,1203.9081373999998,1203.9115264999996,1203.9115264999996,1203.9115264999996,1206.9015047999997,j,0.7408098000000791,0.2078684000002795,1206.9016594999998,1206.9016901999998,None,,,,,,,,,,,,,,,,,00014,001,2025-11-17_15h22.12.288,MST_task,2024.2.0,60.20759579030844,2025-11-17 15h22.19.194916 +0530,
,Objects\134a.jpg,77,0,78,,,,,,,f,1.5427251000000979,0.17571179999958986,None,,,,,,78,0,77,1206.9178943999996,,,,,,,,,,,,,,,,,,,,,,,1206.9018226999997,1206.9178943999996,1207.4023113999997,,,,,,,,,,,,,,1207.4215851999998,,,,,,,,,,,,,1207.4183586,1207.4215851999998,1207.4215851999998,1207.4215851999998,1210.4021801,f,1.5427251000000979,0.17571179999958986,1210.4024760999996,1210.4025727999997,None,,,,,,,,,,,,,,,,,00014,001,2025-11-17_15h22.12.288,MST_task,2024.2.0,60.20759579030844,2025-11-17 15h22.19.194916 +0530,
,Objects\068a.jpg,78,0,79,,,,,,,j,0.9070050000000265,0.15080719999969006,None,,,,,,79,0,78,1210.4179181,,,,,,,,,,,,,,,,,,,,,,,1210.4029573999997,1210.4179181,1210.9024703,,,,,,,,,,,,,,1210.9222011999996,,,,,,,,,,,,,1210.9194149,1210.9222011999996,1210.9222011999996,1210.9222011999996,1213.9182625999997,j,0.9070050000000265,0.15080719999969006,1213.9184744,1213.9185352999998,None,,,,,,,,,,,,,,,,,00014,001,2025-11-17_15h22.12.288,MST_task,2024.2.0,60.20759579030844,2025-11-17 15h22.19.194916 +0530,
,Objects\145a.jpg,79,0,80,,,,,,,f,1.4265237999998135,0.23251389999995808,None,,,,,,80,0,79,1213.9344729,,,,,,,,,,,,,,,,,,,,,,,1213.9188425999996,1213.9344729,1214.4190239,,,,,,,,,,,,,,1214.457852,,,,,,,,,,,,,1214.4552132999997,1214.457852,1214.457852,1214.457852,1217.4351076999997,f,1.4265237999998135,0.23251389999995808,1217.4352967,1217.4353523999998,None,,,,,,,,,,,,,,,,,00014,001,2025-11-17_15h22.12.288,MST_task,2024.2.0,60.20759579030844,2025-11-17 15h22.19.194916 +0530,
,Objects\076a.jpg,80,0,81,,,,,,,j,1.8147813000000497,0.2014603000002353,None,,,,,,81,0,80,1217.4511536,,,,,,,,,,,,,,,,,,,,,,,1217.4356885999996,1217.4511536,1217.9357909999999,,,,,,,,,,,,,,1217.9572993999996,,,,,,,,,,,,,1217.9542416999998,1217.9572993999996,1217.9572993999996,1217.9572993999996,1220.9519432999996,j,1.8147813000000497,0.2014603000002353,1220.9521602999998,1220.9522229999998,None,,,,,,,,,,,,,,,,,00014,001,2025-11-17_15h22.12.288,MST_task,2024.2.0,60.20759579030844,2025-11-17 15h22.19.194916 +0530,
,Objects\170a.jpg,81,0,82,,,,,,,f,0.9728900999998586,0.2312274000000798,None,,,,,,82,0,81,1220.9677595999997,,,,,,,,,,,,,,,,,,,,,,,1220.9526076999996,1220.9677595999997,1221.4523467999998,,,,,,,,,,,,,,1221.4717081,,,,,,,,,,,,,1221.4690659999997,1221.4717081,1221.4717081,1221.4717081,1224.4681925,f,0.9728900999998586,0.2312274000000798,1224.4683873,1224.468445,None,,,,,,,,,,,,,,,,,00014,001,2025-11-17_15h22.12.288,MST_task,2024.2.0,60.20759579030844,2025-11-17 15h22.19.194916 +0530,
,Objects\154a.jpg,82,0,83,,,,,,,f,1.3038413999997829,0.2246610000001965,None,,,,,,83,0,82,1224.4844439999997,,,,,,,,,,,,,,,,,,,,,,,1224.4687451999998,1224.4844439999997,1224.9687422999996,,,,,,,,,,,,,,1224.9880756999996,,,,,,,,,,,,,1224.9853174,1224.9880756999996,1224.9880756999996,1224.9880756999996,1227.9851332999997,f,1.3038413999997829,0.2246610000001965,1227.9853647999998,1227.9854247999997,None,,,,,,,,,,,,,,,,,00014,001,2025-11-17_15h22.12.288,MST_task,2024.2.0,60.20759579030844,2025-11-17 15h22.19.194916 +0530,
,Objects\172a.jpg,83,0,84,,,,,,,j,1.2676747000000432,0.19267290000016146,None,,,,,,84,0,83,1228.0011405999999,,,,,,,,,,,,,,,,,,,,,,,1227.9858001999996,1228.0011405999999,1228.4855143999998,,,,,,,,,,,,,,1228.5043530999997,,,,,,,,,,,,,1228.5015228999996,1228.5043530999997,1228.5043530999997,1228.5043530999997,1231.5018891999998,j,1.2676747000000432,0.19267290000016146,1231.5021607999997,1231.5022262999996,None,,,,,,,,,,,,,,,,,00014,001,2025-11-17_15h22.12.288,MST_task,2024.2.0,60.20759579030844,2025-11-17 15h22.19.194916 +0530,
,Scenes\004a.jpg,84,0,85,,,,,,,j,1.2788040000000365,0.19898929999999382,None,,,,,,85,0,84,1231.5178830999998,,,,,,,,,,,,,,,,,,,,,,,1231.502622,1231.5178830999998,1232.0024488,,,,,,,,,,,,,,1232.0299520999997,,,,,,,,,,,,,1232.0267277999997,1232.0299520999997,1232.0299520999997,1232.0299520999997,1235.0184743,j,1.2788040000000365,0.19898929999999382,1235.0186884,1235.0187481999997,None,,,,,,,,,,,,,,,,,00014,001,2025-11-17_15h22.12.288,MST_task,2024.2.0,60.20759579030844,2025-11-17 15h22.19.194916 +0530,
,Scenes\087a.jpg,85,0,86,,,,,,,j,0.8587035999998989,0.18459010000015041,None,,,,,,86,0,85,1235.0346281999996,,,,,,,,,,,,,,,,,,,,,,,1235.019132,1235.0346281999996,1235.5190613,,,,,,,,,,,,,,1235.5374502999998,,,,,,,,,,,,,1235.5342119999996,1235.5374502999998,1235.5374502999998,1235.5374502999998,1238.5350430999997,j,0.8587035999998989,0.18459010000015041,1238.5352466,1238.5353080999998,None,,,,,,,,,,,,,,,,,00014,001,2025-11-17_15h22.12.288,MST_task,2024.2.0,60.20759579030844,2025-11-17 15h22.19.194916 +0530,
,Scenes\039a.jpg,86,0,87,,,,,,,j,1.5270080000000235,0.17657259999987218,None,,,,,,87,0,86,1238.5511822999997,,,,,,,,,,,,,,,,,,,,,,,1238.5356085999997,1238.5511822999997,1239.0360240999998,,,,,,,,,,,,,,1239.0769974,,,,,,,,,,,,,1239.073547,1239.0769974,1239.0769974,1239.0769974,1242.0518843999998,j,1.5270080000000235,0.17657259999987218,1242.0521004999996,1242.0521608999998,None,,,,,,,,,,,,,,,,,00014,001,2025-11-17_15h22.12.288,MST_task,2024.2.0,60.20759579030844,2025-11-17 15h22.19.194916 +0530,
,Scenes\164a.jpg,87,0,88,,,,,,,j,0.9348387000000002,0.17563990000007834,None,,,,,,88,0,87,1242.0679038999997,,,,,,,,,,,,,,,,,,,,,,,1242.0525426,1242.0679038999997,1242.552303,,,,,,,,,,,,,,1242.5817505999999,,,,,,,,,,,,,1242.5783365999996,1242.5817505999999,1242.5817505999999,1242.5817505999999,1245.5683021,j,0.9348387000000002,0.17563990000007834,1245.5686108,1245.5686718999996,None,,,,,,,,,,,,,,,,,00014,001,2025-11-17_15h22.12.288,MST_task,2024.2.0,60.20759579030844,2025-11-17 15h22.19.194916 +0530,
,Scenes\076a.jpg,88,0,89,,,,,,,j,0.9057080000002316,0.1839737000000241,None,,,,,,89,0,88,1245.5845883999996,,,,,,,,,,,,,,,,,,,,,,,1245.5689088999998,1245.5845883999996,1246.0691352999997,,,,,,,,,,,,,,1246.1061836,,,,,,,,,,,,,1246.1028134999997,1246.1061836,1246.1061836,1246.1061836,1249.0854101999998,j,0.9057080000002316,0.1839737000000241,1249.0859446999998,1249.0860347999997,None,,,,,,,,,,,,,,,,,00014,001,2025-11-17_15h22.12.288,MST_task,2024.2.0,60.20759579030844,2025-11-17 15h22.19.194916 +0530,
,Scenes\083a.jpg,89,0,90,,,,,,,j,1.7105750999999145,0.1759823000002143,None,,,,,,90,0,89,1249.1011614999998,,,,,,,,,,,,,,,,,,,,,,,1249.086456,1249.1011614999998,1249.5857487999997,,,,,,,,,,,,,,1249.6137531,,,,,,,,,,,,,1249.6102970999996,1249.6137531,1249.6137531,1249.6137531,1252.6018599999998,j,1.7105750999999145,0.1759823000002143,1252.6020790999996,1252.6021401999997,None,,,,,,,,,,,,,,,,,00014,001,2025-11-17_15h22.12.288,MST_task,2024.2.0,60.20759579030844,2025-11-17 15h22.19.194916 +0530,
,Scenes\102a.jpg,90,0,91,,,,,,,j,1.3057035000001633,0.18403889999990497,None,,,,,,91,0,90,1252.6178562999999,,,,,,,,,,,,,,,,,,,,,,,1252.6025267,1252.6178562999999,1253.1020383,,,,,,,,,,,,,,1253.1307723,,,,,,,,,,,,,1253.1281064,1253.1307723,1253.1307723,1253.1307723,1256.1184903999997,j,1.3057035000001633,0.18403889999990497,1256.118767,1256.1188370999998,None,,,,,,,,,,,,,,,,,00014,001,2025-11-17_15h22.12.288,MST_task,2024.2.0,60.20759579030844,2025-11-17 15h22.19.194916 +0530,
,Objects\090a.jpg,91,0,92,,,,,,,j,0.9483482000000549,0.17698739999968893,None,,,,,,92,0,91,1256.1345417999996,,,,,,,,,,,,,,,,,,,,,,,1256.1192323999999,1256.1345417999996,1256.6189319,,,,,,,,,,,,,,1256.6396957999996,,,,,,,,,,,,,1256.6365079999996,1256.6396957999996,1256.6396957999996,1256.6396957999996,1259.6351066999996,j,0.9483482000000549,0.17698739999968893,1259.6353059999997,1259.6353645,None,,,,,,,,,,,,,,,,,00014,001,2025-11-17_15h22.12.288,MST_task,2024.2.0,60.20759579030844,2025-11-17 15h22.19.194916 +0530,
,Objects\171a.jpg,92,0,93,,,,,,,f,1.2027517000001353,0.19200780000028317,None,,,,,,93,0,92,1259.6514129999996,,,,,,,,,,,,,,,,,,,,,,,1259.6356873999998,1259.6514129999996,1260.1353396,,,,,,,,,,,,,,1260.1771082999999,,,,,,,,,,,,,1260.1738723999997,1260.1771082999999,1260.1771082999999,1260.1771082999999,1263.1517153,f,1.2027517000001353,0.19200780000028317,1263.1519165,1263.1519773,None,,,,,,,,,,,,,,,,,00014,001,2025-11-17_15h22.12.288,MST_task,2024.2.0,60.20759579030844,2025-11-17 15h22.19.194916 +0530,
,Objects\109a.jpg,93,0,94,,,,,,,f,1.576642499999707,0.2079834999999548,None,,,,,,94,0,93,1263.1676927999997,,,,,,,,,,,,,,,,,,,,,,,1263.1525103,1263.1676927999997,1263.6521263999998,,,,,,,,,,,,,,1263.6912223,,,,,,,,,,,,,1263.6883659,1263.6912223,1263.6912223,1263.6912223,1266.6685534999997,f,1.576642499999707,0.2079834999999548,1266.6687794,1266.6688391999996,None,,,,,,,,,,,,,,,,,00014,001,2025-11-17_15h22.12.288,MST_task,2024.2.0,60.20759579030844,2025-11-17 15h22.19.194916 +0530,
,Objects\015a.jpg,94,0,95,,,,,,,f,1.0190511999999217,0.22486639999988256,None,,,,,,95,0,94,1266.6846237,,,,,,,,,,,,,,,,,,,,,,,1266.6692254,1266.6846237,1267.1690294,,,,,,,,,,,,,,1267.1848827,,,,,,,,,,,,,1267.1822542,1267.1848827,1267.1848827,1267.1848827,1270.1698552999997,f,1.0190511999999217,0.22486639999988256,1270.1700566,1270.1701064999997,None,,,,,1270.1846395999996,1270.1846395999996,1270.1846395999996,,,,,,,,,,00014,001,2025-11-17_15h22.12.288,MST_task,2024.2.0,60.20759579030844,2025-11-17 15h22.19.194916 +0530,
,Objects\062a.jpg,95,0,96,,,,,,,f,0.8588970999999219,0.18372139999974024,None,,,,,,96,0,95,1270.1846395999996,,,,,,,,,,,,,,,,,,,,,,,1270.1704441999996,1270.1846395999996,1270.6689825999997,,,,,,,,,,,,,,1270.689222,,,,,,,,,,,,,1270.6860946999996,1270.689222,1270.689222,1270.689222,1273.6851428999998,f,0.8588970999999219,0.18372139999974024,1273.6853781999998,1273.6854394999996,None,,,,,,,,,,,,,,,,,00014,001,2025-11-17_15h22.12.288,MST_task,2024.2.0,60.20759579030844,2025-11-17 15h22.19.194916 +0530,
,Objects\018a.jpg,96,0,97,,,,,,,f,0.7912336999997933,0.17637229999991177,None,,,,,,97,0,96,1273.7012725999998,,,,,,,,,,,,,,,,,,,,,,,1273.6857403,1273.7012725999998,1274.1858066999998,,,,,,,,,,,,,,1274.2048572999997,,,,,,,,,,,,,1274.2021516999998,1274.2048572999997,1274.2048572999997,1274.2048572999997,1277.2021925,f,0.7912336999997933,0.17637229999991177,1277.2024932,1277.2025562999997,None,,,,,,,,,,,,,,,,,00014,001,2025-11-17_15h22.12.288,MST_task,2024.2.0,60.20759579030844,2025-11-17 15h22.19.194916 +0530,
,Objects\041a.jpg,97,0,98,,,,,,,j,1.3869669000000613,0.17605269999967277,None,,,,,,98,0,97,1277.2178623,,,,,,,,,,,,,,,,,,,,,,,1277.2028793999998,1277.2178623,1277.7023344,,,,,,,,,,,,,,1277.7209868,,,,,,,,,,,,,1277.7184488999997,1277.7209868,1277.7209868,1277.7209868,1280.7182922999996,j,1.3869669000000613,0.17605269999967277,1280.7184977999996,1280.7185505999996,None,,,,,,,,,,,,,,,,,00014,001,2025-11-17_15h22.12.288,MST_task,2024.2.0,60.20759579030844,2025-11-17 15h22.19.194916 +0530,
,Scenes\019a.jpg,98,0,99,,,,,,,j,1.0196132999999463,0.19221950000019206,None,,,,,,99,0,98,1280.7345191999998,,,,,,,,,,,,,,,,,,,,,,,1280.7189359,1280.7345191999998,1281.2189314999996,,,,,,,,,,,,,,1281.2409306,,,,,,,,,,,,,1281.2376941999996,1281.2409306,1281.2409306,1281.2409306,1284.2354105999998,j,1.0196132999999463,0.19221950000019206,1284.2355883999999,1284.235635,None,,,,,,,,,,,,,,,,,00014,001,2025-11-17_15h22.12.288,MST_task,2024.2.0,60.20759579030844,2025-11-17 15h22.19.194916 +0530,
,Scenes\022a.jpg,99,0,100,,,,,,,j,0.7201955000000453,0.1673276999999871,None,,,,,,100,0,99,1284.2512024999996,,,,,,,,,,,,,,,,,,,,,,,1284.2358585999996,1284.2512024999996,1284.7356765999998,,,,,,,,,,,,,,1284.7564318,,,,,,,,,,,,,1284.7531952,1284.7564318,1284.7564318,1284.7564318,1287.7516484999996,j,0.7201955000000453,0.1673276999999871,1287.751879,1287.7519380999997,None,,,,,,,,,,,,,,,,,00014,001,2025-11-17_15h22.12.288,MST_task,2024.2.0,60.20759579030844,2025-11-17 15h22.19.194916 +0530,
,Scenes\026a.jpg,100,0,101,,,,,,,j,0.7801037999997789,0.15918250000004264,None,,,,,,101,0,100,1287.7677116,,,,,,,,,,,,,,,,,,,,,,,1287.7522193999998,1287.7677116,1288.252325,,,,,,,,,,,,,,1288.2810083,,,,,,,,,,,,,1288.2778807,1288.2810083,1288.2810083,1288.2810083,1291.2684023999996,j,0.7801037999997789,0.15918250000004264,1291.2686191999996,1291.2686795999998,None,,,,,,,,,,,,,,,,,00014,001,2025-11-17_15h22.12.288,MST_task,2024.2.0,60.20759579030844,2025-11-17 15h22.19.194916 +0530,
,Scenes\127a.jpg,101,0,102,,,,,,,j,1.1475256999997328,0.17656480000005104,None,,,,,,102,0,101,1291.2845272,,,,,,,,,,,,,,,,,,,,,,,1291.2689818,1291.2845272,1291.7687277,,,,,,,,,,,,,,1291.7927307,,,,,,,,,,,,,1291.7894781999998,1291.7927307,1291.7927307,1291.7927307,1294.7847296,j,1.1475256999997328,0.17656480000005104,1294.7848311999996,1294.7848575999997,None,,,,,,,,,,,,,,,,,00014,001,2025-11-17_15h22.12.288,MST_task,2024.2.0,60.20759579030844,2025-11-17 15h22.19.194916 +0530,
,Scenes\142a.jpg,102,0,103,,,,,,,j,1.054845099999966,0.16682040000023335,None,,,,,,103,0,102,1294.8011299,,,,,,,,,,,,,,,,,,,,,,,1294.7850316,1294.8011299,1295.2855446999997,,,,,,,,,,,,,,,,,,,,,,,,,,,1295.3148193999996,1295.3182861999999,1295.3182861999999,1295.3182861999999,1298.2851707,j,1.054845099999966,0.16682040000023335,1298.2853854999998,1298.2854470999996,None,,,,,,,,,,,,,,,,,00014,001,2025-11-17_15h22.12.288,MST_task,2024.2.0,60.20759579030844,2025-11-17 15h22.19.194916 +0530,
,Scenes\108a.jpg,103,0,104,,,,,,,j,0.5509362000002511,0.17586759999994683,None,,,,,,104,0,103,1298.3011956999999,,,,,,,,,,,,,,,,,,,,,,,1298.2858336999998,1298.3011956999999,1298.7857304999998,,,,,,,,,,,,,,1298.8132765999999,,,,,,,,,,,,,1298.8099405999997,1298.8132765999999,1298.8132765999999,1298.8132765999999,1301.8018221999996,j,0.5509362000002511,0.17586759999994683,1301.8020389999997,1301.8020997999997,None,,,,,,,,,,,,,,,,,00014,001,2025-11-17_15h22.12.288,MST_task,2024.2.0,60.20759579030844,2025-11-17 15h22.19.194916 +0530,
,Scenes\163a.jpg,104,0,105,,,,,,,j,0.9659871999997449,0.1756735000003573,None,,,,,,105,0,104,1301.8177754999997,,,,,,,,,,,,,,,,,,,,,,,1301.8024004,1301.8177754999997,1302.3022930999996,,,,,,,,,,,,,,1302.3265225999999,,,,,,,,,,,,,1302.3229300999997,1302.3265225999999,1302.3265225999999,1302.3265225999999,1305.3184413999998,j,0.9659871999997449,0.1756735000003573,1305.3186460999996,1305.3187065999996,None,,,,,,,,,,,,,,,,,00014,001,2025-11-17_15h22.12.288,MST_task,2024.2.0,60.20759579030844,2025-11-17 15h22.19.194916 +0530,
,Objects\159a.jpg,105,0,106,,,,,,,f,1.2614379999999983,0.21695340000042052,None,,,,,,106,0,105,1305.3345405999999,,,,,,,,,,,,,,,,,,,,,,,1305.3190953999997,1305.3345405999999,1305.8188800999997,,,,,,,,,,,,,,1305.8385778999996,,,,,,,,,,,,,1305.8355281999998,1305.8385778999996,1305.8385778999996,1305.8385778999996,1308.8351082999998,f,1.2614379999999983,0.21695340000042052,1308.8353201,1308.8353809999999,None,,,,,,,,,,,,,,,,,00014,001,2025-11-17_15h22.12.288,MST_task,2024.2.0,60.20759579030844,2025-11-17 15h22.19.194916 +0530,
,Objects\048a.jpg,106,0,107,,,,,,,j,2.087023600000066,0.15177589999984775,None,,,,,,107,0,106,1308.8511835,,,,,,,,,,,,,,,,,,,,,,,1308.8357603,1308.8511835,1309.3360319999997,,,,,,,,,,,,,,1309.3572046999998,,,,,,,,,,,,,1309.3543940999998,1309.3572046999998,1309.3572046999998,1309.3572046999998,1312.3517365999996,j,2.087023600000066,0.15177589999984775,1312.3519336999998,1312.3519862999997,None,,,,,,,,,,,,,,,,,00014,001,2025-11-17_15h22.12.288,MST_task,2024.2.0,60.20759579030844,2025-11-17 15h22.19.194916 +0530,
,Objects\123a.jpg,107,0,108,,,,,,,j,0.7945598999999675,0.16750169999977516,None,,,,,,108,0,107,1312.3676192999997,,,,,,,,,,,,,,,,,,,,,,,1312.3522847,1312.3676192999997,1312.8523687999996,,,,,,,,,,,,,,1312.8738716999997,,,,,,,,,,,,,1312.8712283999998,1312.8738716999997,1312.8738716999997,1312.8738716999997,1315.8682285,j,0.7945598999999675,0.16750169999977516,1315.8684481999999,1315.8685066999997,None,,,,,,,,,,,,,,,,,00014,001,2025-11-17_15h22.12.288,MST_task,2024.2.0,60.20759579030844,2025-11-17 15h22.19.194916 +0530,
,Objects\080a.jpg,108,0,109,,,,,,,f,0.8469782000001942,0.1602506999997786,None,,,,,,109,0,108,1315.8844728,,,,,,,,,,,,,,,,,,,,,,,1315.8688057999998,1315.8844728,1316.3692588,,,,,,,,,,,,,,1316.3890910999999,,,,,,,,,,,,,1316.3864009,1316.3890910999999,1316.3890910999999,1316.3890910999999,1319.3850223999998,f,0.8469782000001942,0.1602506999997786,1319.3852669999997,1319.3853282999999,None,,,,,,,,,,,,,,,,,00014,001,2025-11-17_15h22.12.288,MST_task,2024.2.0,60.20759579030844,2025-11-17 15h22.19.194916 +0530,
,Objects\137a.jpg,109,0,110,,,,,,,f,1.3713007000001198,0.191552799999954,None,,,,,,110,0,109,1319.4013157,,,,,,,,,,,,,,,,,,,,,,,1319.3856407999997,1319.4013157,1319.8857211,,,,,,,,,,,,,,1319.9055516999997,,,,,,,,,,,,,1319.9026562999998,1319.9055516999997,1319.9055516999997,1319.9055516999997,1322.9019753999996,f,1.3713007000001198,0.191552799999954,1322.9021798999997,1322.9022349999996,None,,,,,,,,,,,,,,,,,00014,001,2025-11-17_15h22.12.288,MST_task,2024.2.0,60.20759579030844,2025-11-17 15h22.19.194916 +0530,
,Objects\190a.jpg,110,0,111,,,,,,,f,0.9383723000000828,0.17603409999992436,None,,,,,,111,0,110,1322.9179026999996,,,,,,,,,,,,,,,,,,,,,,,1322.9025069999998,1322.9179026999996,1323.4015061,,,,,,,,,,,,,,1323.4178361999998,,,,,,,,,,,,,1323.4149212999996,1323.4178361999998,1323.4178361999998,1323.4178361999998,1326.4031865999996,f,0.9383723000000828,0.17603409999992436,1326.4033920999996,1326.4034398999997,None,,,,,1326.4178774999996,1326.4178774999996,1326.4178774999996,,,,,,,,,,00014,001,2025-11-17_15h22.12.288,MST_task,2024.2.0,60.20759579030844,2025-11-17 15h22.19.194916 +0530,
,Objects\141a.jpg,111,0,112,,,,,,,j,1.2344009000003098,0.15977609999981723,None,,,,,,112,0,111,1326.4178774999996,,,,,,,,,,,,,,,,,,,,,,,1326.4036889999998,1326.4178774999996,1326.9024791999996,,,,,,,,,,,,,,1326.9217730999999,,,,,,,,,,,,,1326.9192116,1326.9217730999999,1326.9217730999999,1326.9217730999999,1329.9184937999999,j,1.2344009000003098,0.15977609999981723,1329.9187112999998,1329.9187729999999,None,,,,,,,,,,,,,,,,,00014,001,2025-11-17_15h22.12.288,MST_task,2024.2.0,60.20759579030844,2025-11-17 15h22.19.194916 +0530,
,Scenes\085a.jpg,112,0,113,,,,,,,j,1.49381429999994,0.120651899999757,None,,,,,,113,0,112,1329.9346418,,,,,,,,,,,,,,,,,,,,,,,1329.9190850999998,1329.9346418,1330.4189456999998,,,,,,,,,,,,,,1330.4462909,,,,,,,,,,,,,1330.4431003,1330.4462909,1330.4462909,1330.4462909,1333.4351518999997,j,1.49381429999994,0.120651899999757,1333.4353663999996,1333.4354319999998,None,,,,,,,,,,,,,,,,,00014,001,2025-11-17_15h22.12.288,MST_task,2024.2.0,60.20759579030844,2025-11-17 15h22.19.194916 +0530,
,Scenes\066a.jpg,113,0,114,,,,,,,j,0.6983291999999892,0.15943690000040078,None,,,,,,114,0,113,1333.4514410999996,,,,,,,,,,,,,,,,,,,,,,,1333.4358426999997,1333.4514410999996,1333.9355934999999,,,,,,,,,,,,,,1333.9782426999996,,,,,,,,,,,,,1333.9749361999998,1333.9782426999996,1333.9782426999996,1333.9782426999996,1336.9517993,j,0.6983291999999892,0.15943690000040078,1336.9520390999996,1336.9521006,None,,,,,,,,,,,,,,,,,00014,001,2025-11-17_15h22.12.288,MST_task,2024.2.0,60.20759579030844,2025-11-17 15h22.19.194916 +0530,
,Scenes\078a.jpg,114,0,115,,,,,,,j,0.9026923999999781,0.15167440000004717,None,,,,,,115,0,114,1336.9677021999996,,,,,,,,,,,,,,,,,,,,,,,1336.9524867999999,1336.9677021999996,1337.4522380999997,,,,,,,,,,,,,,1337.4780864999998,,,,,,,,,,,,,1337.4749594,1337.4780864999998,1337.4780864999998,1337.4780864999998,1340.4683498,j,0.9026923999999781,0.15167440000004717,1340.4685619999996,1340.4686223999997,None,,,,,,,,,,,,,,,,,00014,001,2025-11-17_15h22.12.288,MST_task,2024.2.0,60.20759579030844,2025-11-17 15h22.19.194916 +0530,
,Scenes\090a.jpg,115,0,116,,,,,,,j,0.6958438999999998,0.1754851000000599,None,,,,,,116,0,115,1340.4844915999997,,,,,,,,,,,,,,,,,,,,,,,1340.4690014999996,1340.4844915999997,1340.9689406999996,,,,,,,,,,,,,,1340.9968912999998,,,,,,,,,,,,,1340.9936797999999,1340.9968912999998,1340.9968912999998,1340.9968912999998,1343.9851173999996,j,0.6958438999999998,0.1754851000000599,1343.9853205999998,1343.9853713999996,None,,,,,,,,,,,,,,,,,00014,001,2025-11-17_15h22.12.288,MST_task,2024.2.0,60.20759579030844,2025-11-17 15h22.19.194916 +0530,
,Scenes\001a.jpg,116,0,117,,,,,,,f,2.728450000000066,0.1271060999997644,None,,,,,,117,0,116,1344.0011757999996,,,,,,,,,,,,,,,,,,,,,,,1343.9856734999998,1344.0011757999996,1344.4859032,,,,,,,,,,,,,,1344.5164120999998,,,,,,,,,,,,,1344.5129549999997,1344.5164120999998,1344.5164120999998,1344.5164120999998,1347.5017208999998,f,2.728450000000066,0.1271060999997644,1347.5019835999997,1347.5020627,None,,,,,,,,,,,,,,,,,00014,001,2025-11-17_15h22.12.288,MST_task,2024.2.0,60.20759579030844,2025-11-17 15h22.19.194916 +0530,
,Scenes\049a.jpg,117,0,118,,,,,,,j,1.234081999999944,0.15929999999980282,None,,,,,,118,0,117,1347.5176675999996,,,,,,,,,,,,,,,,,,,,,,,1347.5024697999997,1347.5176675999996,1348.0023324,,,,,,,,,,,,,,1348.0264989999996,,,,,,,,,,,,,1348.0232775999998,1348.0264989999996,1348.0264989999996,1348.0264989999996,1351.0184053999997,j,1.234081999999944,0.15929999999980282,1351.0186440999996,1351.0186924999998,None,,,,,,,,,,,,,,,,,00014,001,2025-11-17_15h22.12.288,MST_task,2024.2.0,60.20759579030844,2025-11-17 15h22.19.194916 +0530,
,Scenes\041a.jpg,118,0,119,,,,,,,j,0.9541534999998476,0.16768899999988207,None,,,,,,119,0,118,1351.0346071,,,,,,,,,,,,,,,,,,,,,,,1351.0190107999997,1351.0346071,1351.5180999999998,,,,,,,,,,,,,,1351.5395689999996,,,,,,,,,,,,,1351.5363564,1351.5395689999996,1351.5395689999996,1351.5395689999996,1354.5353378999998,j,0.9541534999998476,0.16768899999988207,1354.5355394999997,1354.5356015999996,None,,,,,,,,,,,,,,,,,00014,001,2025-11-17_15h22.12.288,MST_task,2024.2.0,60.20759579030844,2025-11-17 15h22.19.194916 +0530,
,Objects\131a.jpg,119,0,120,,,,,,,j,2.0207877999996526,0.1923556000001554,None,,,,,,120,0,119,1354.5519895999996,,,,,,,,,,,,,,,,,,,,,,,1354.5359924,1354.5519895999996,1355.0357721999999,,,,,,,,,,,,,,1355.0551885999998,,,,,,,,,,,,,1355.0520692,1355.0551885999998,1355.0551885999998,1355.0551885999998,1358.0519823,j,2.0207877999996526,0.1923556000001554,1358.0522137999997,1358.0522752999996,None,,,,,,,,,,,,,,,,,00014,001,2025-11-17_15h22.12.288,MST_task,2024.2.0,60.20759579030844,2025-11-17 15h22.19.194916 +0530,
,Objects\040a.jpg,120,0,121,,,,,,,f,0.7996370999999272,0.1684914000002209,None,,,,,,121,0,120,1358.0678283999996,,,,,,,,,,,,,,,,,,,,,,,1358.0525823999997,1358.0678283999996,1358.5523036999998,,,,,,,,,,,,,,1358.5720760999998,,,,,,,,,,,,,1358.5694165999998,1358.5720760999998,1358.5720760999998,1358.5720760999998,1361.5683654,f,0.7996370999999272,0.1684914000002209,1361.5685624999996,1361.5686176,None,,,,,,,,,,,,,,,,,00014,001,2025-11-17_15h22.12.288,MST_task,2024.2.0,60.20759579030844,2025-11-17 15h22.19.194916 +0530,
,Objects\019a.jpg,121,0,122,,,,,,,f,0.9271066999999675,0.2009247000000869,None,,,,,,122,0,121,1361.5844886,,,,,,,,,,,,,,,,,,,,,,,1361.5688950999997,1361.5844886,1362.0681568999998,,,,,,,,,,,,,,1362.0846497999996,,,,,,,,,,,,,1362.080008,1362.0846497999996,1362.0846497999996,1362.0846497999996,1365.0698462999999,f,0.9271066999999675,0.2009247000000869,1365.0700499999998,1365.0700960999998,None,,,,,1365.0845402,1365.0845402,1365.0845402,,,,,,,,,,00014,001,2025-11-17_15h22.12.288,MST_task,2024.2.0,60.20759579030844,2025-11-17 15h22.19.194916 +0530,
,Objects\013a.jpg,122,0,123,,,,,,,f,0.8716782000001331,0.16045260000009876,None,,,,,,123,0,122,1365.0845402,,,,,,,,,,,,,,,,,,,,,,,1365.0703706,1365.0845402,1365.5691777999996,,,,,,,,,,,,,,1365.5884078999998,,,,,,,,,,,,,1365.5858119999998,1365.5884078999998,1365.5884078999998,1365.5884078999998,1368.5852009999999,f,0.8716782000001331,0.16045260000009876,1368.5853860999996,1368.5854319999999,None,,,,,,,,,,,,,,,,,00014,001,2025-11-17_15h22.12.288,MST_task,2024.2.0,60.20759579030844,2025-11-17 15h22.19.194916 +0530,
,Objects\115a.jpg,123,0,124,,,,,,,f,1.5516621000001578,0.18367480000006253,None,,,,,,124,0,123,1368.6013106999999,,,,,,,,,,,,,,,,,,,,,,,1368.5856664999997,1368.6013106999999,1369.0858402,,,,,,,,,,,,,,1369.1086535,,,,,,,,,,,,,1369.1058013999996,1369.1086535,1369.1086535,1369.1086535,1372.1020603999996,f,1.5516621000001578,0.18367480000006253,1372.1022755999998,1372.1023305999997,None,,,,,,,,,,,,,,,,,00014,001,2025-11-17_15h22.12.288,MST_task,2024.2.0,60.20759579030844,2025-11-17 15h22.19.194916 +0530,
,Objects\005a.jpg,124,0,125,,,,,,,f,0.8201513999997587,0.15939430000025823,None,,,,,,125,0,124,1372.1178906999999,,,,,,,,,,,,,,,,,,,,,,,1372.1026807999997,1372.1178906999999,1372.6025932999996,,,,,,,,,,,,,,1372.6245119999999,,,,,,,,,,,,,1372.6216873999997,1372.6245119999999,1372.6245119999999,1372.6245119999999,1375.6186054999998,f,0.8201513999997587,0.15939430000025823,1375.6188349999998,1375.6188991,None,,,,,,,,,,,,,,,,,00014,001,2025-11-17_15h22.12.288,MST_task,2024.2.0,60.20759579030844,2025-11-17 15h22.19.194916 +0530,
,Objects\118a.jpg,125,0,126,,,,,,,j,0.9906678000002103,0.11944039999980305,None,,,,,,126,0,125,1375.6346595,,,,,,,,,,,,,,,,,,,,,,,1375.6192827,1375.6346595,1376.1191554999996,,,,,,,,,,,,,,1376.1421172999999,,,,,,,,,,,,,1376.1392182999998,1376.1421172999999,1376.1421172999999,1376.1421172999999,1379.1354996999999,j,0.9906678000002103,0.11944039999980305,1379.1358136,1379.1358851,None,,,,,,,,,,,,,,,,,00014,001,2025-11-17_15h22.12.288,MST_task,2024.2.0,60.20759579030844,2025-11-17 15h22.19.194916 +0530,
,Scenes\074a.jpg,126,0,127,,,,,,,j,2.3907332000003407,0.12782990000005157,None,,,,,,127,0,126,1379.1513314,,,,,,,,,,,,,,,,,,,,,,,1379.1361895999999,1379.1513314,1379.6359152,,,,,,,,,,,,,,1379.6613589999997,,,,,,,,,,,,,1379.6580669,1379.6613589999997,1379.6613589999997,1379.6613589999997,1382.6517941999996,j,2.3907332000003407,0.12782990000005157,1382.6520042999996,1382.6520646999998,None,,,,,,,,,,,,,,,,,00014,001,2025-11-17_15h22.12.288,MST_task,2024.2.0,60.20759579030844,2025-11-17 15h22.19.194916 +0530,
,Scenes\110a.jpg,127,0,128,,,,,,,j,0.9289324999999735,0.15213630000016565,None,,,,,,128,0,127,1382.66788,,,,,,,,,,,,,,,,,,,,,,,1382.6524378999998,1382.66788,1383.1523407,,,,,,,,,,,,,,1383.1790517999998,,,,,,,,,,,,,1383.1757748999999,1383.1790517999998,1383.1790517999998,1383.1790517999998,1386.1685052999997,j,0.9289324999999735,0.15213630000016565,1386.1686836999997,1386.1687296,None,,,,,,,,,,,,,,,,,00014,001,2025-11-17_15h22.12.288,MST_task,2024.2.0,60.20759579030844,2025-11-17 15h22.19.194916 +0530,
,Scenes\089a.jpg,128,0,129,,,,,,,j,0.826198199999908,0.16765060000034282,None,,,,,,129,0,128,1386.1846142,,,,,,,,,,,,,,,,,,,,,,,1386.1690403999996,1386.1846142,1386.6685650999998,,,,,,,,,,,,,,1386.6983145999998,,,,,,,,,,,,,1386.6950244,1386.6983145999998,1386.6983145999998,1386.6983145999998,1389.6853806999998,j,0.826198199999908,0.16765060000034282,1389.6856264999997,1389.6856911,None,,,,,,,,,,,,,,,,,00014,001,2025-11-17_15h22.12.288,MST_task,2024.2.0,60.20759579030844,2025-11-17 15h22.19.194916 +0530,
,Scenes\114a.jpg,129,0,130,,,,,,,f,1.3034213000000818,0.19237929999962944,None,,,,,,130,0,129,1389.7010044999997,,,,,,,,,,,,,,,,,,,,,,,1389.6859971,1389.7010044999997,1390.1859737,,,,,,,,,,,,,,1390.2130848999996,,,,,,,,,,,,,1390.2097402,1390.2130848999996,1390.2130848999996,1390.2130848999996,1393.2018223,f,1.3034213000000818,0.19237929999962944,1393.2020146,1393.2020647999998,None,,,,,,,,,,,,,,,,,00014,001,2025-11-17_15h22.12.288,MST_task,2024.2.0,60.20759579030844,2025-11-17 15h22.19.194916 +0530,
,Scenes\054a.jpg,130,0,131,,,,,,,j,1.1255985999996483,0.15991110000004483,None,,,,,,131,0,130,1393.2178651999998,,,,,,,,,,,,,,,,,,,,,,,1393.2023912,1393.2178651999998,1393.7021339999997,,,,,,,,,,,,,,1393.7269862999997,,,,,,,,,,,,,1393.7240807999997,1393.7269862999997,1393.7269862999997,1393.7269862999997,1396.7183274,j,1.1255985999996483,0.15991110000004483,1396.7184776999998,1396.7185200999998,None,,,,,,,,,,,,,,,,,00014,001,2025-11-17_15h22.12.288,MST_task,2024.2.0,60.20759579030844,2025-11-17 15h22.19.194916 +0530,
,Scenes\140a.jpg,131,0,132,,,,,,,j,0.7698205000001508,0.15178599999990183,None,,,,,,132,0,131,1396.7346373999999,,,,,,,,,,,,,,,,,,,,,,,1396.7187952999998,1396.7346373999999,1397.2189199999998,,,,,,,,,,,,,,1397.2427202999997,,,,,,,,,,,,,1397.2393112999998,1397.2427202999997,1397.2427202999997,1397.2427202999997,1400.2351485,j,0.7698205000001508,0.15178599999990183,1400.2353598,1400.2354203,None,,,,,,,,,,,,,,,,,00014,001,2025-11-17_15h22.12.288,MST_task,2024.2.0,60.20759579030844,2025-11-17 15h22.19.194916 +0530,
,Scenes\006a.jpg,132,0,133,,,,,,,None,,,j,0.2609413999998651,None,,,,133,0,132,1400.251452,,,,,,,,,,,,,,,,,,,,,,,1400.2358086999998,1400.251452,1400.7346490999998,,,,,,,,,,,,,,1400.7550744999999,,,,,,,,,,,,,1400.7518065,1400.7550744999999,1400.7550744999999,1400.7550744999999,1403.7518673999998,None,,,1403.7520645999998,1404.0364774,j,1403.7677365,1403.7677365,0.2609413999998651,None,,,,,,,,,,,,,00014,001,2025-11-17_15h22.12.288,MST_task,2024.2.0,60.20759579030844,2025-11-17 15h22.19.194916 +0530,
,Objects\044a.jpg,133,0,134,,,,,,,f,1.374101200000041,0.21647440000015195,None,,,,,,134,0,133,1404.0512554999996,,,,,,,,,,,,,,,,,,,,,,,1404.0368408999998,1404.0512554999996,1404.5358402999996,,,,,,,,,,,,,,1404.5579277999996,,,,,,,,,,,,,1404.5547216999998,1404.5579277999996,1404.5579277999996,1404.5579277999996,1407.5516994999998,f,1.374101200000041,0.21647440000015195,1407.5519446999997,1407.5520075,None,,,,,,,,,,,,,,,,,00014,001,2025-11-17_15h22.12.288,MST_task,2024.2.0,60.20759579030844,2025-11-17 15h22.19.194916 +0530,
,Objects\117a.jpg,134,0,135,,,,,,,f,1.956432500000119,0.1918644000002132,None,,,,,,135,0,134,1407.5676841,,,,,,,,,,,,,,,,,,,,,,,1407.5523097999999,1407.5676841,1408.0523162999998,,,,,,,,,,,,,,1408.0719977999997,,,,,,,,,,,,,1408.0694716999997,1408.0719977999997,1408.0719977999997,1408.0719977999997,1411.0682238999998,f,1.956432500000119,0.1918644000002132,1411.0684389999997,1411.0685021,None,,,,,,,,,,,,,,,,,00014,001,2025-11-17_15h22.12.288,MST_task,2024.2.0,60.20759579030844,2025-11-17 15h22.19.194916 +0530,
,Objects\042a.jpg,135,0,136,,,,,,,f,1.9211448000000928,0.16038799999978437,None,,,,,,136,0,135,1411.0846144999996,,,,,,,,,,,,,,,,,,,,,,,1411.0688437,1411.0846144999996,1411.5689865999998,,,,,,,,,,,,,,1411.5869346,,,,,,,,,,,,,1411.5843636999998,1411.5869346,1411.5869346,1411.5869346,1414.5849991999999,f,1.9211448000000928,0.16038799999978437,1414.5852169,1414.5852756,None,,,,,,,,,,,,,,,,,00014,001,2025-11-17_15h22.12.288,MST_task,2024.2.0,60.20759579030844,2025-11-17 15h22.19.194916 +0530,
,Objects\026a.jpg,136,0,137,,,,,,,f,0.8855930999998236,0.17672129999982644,None,,,,,,137,0,136,1414.6011670999997,,,,,,,,,,,,,,,,,,,,,,,1414.5856175,1414.6011670999997,1415.0854895999996,,,,,,,,,,,,,,1415.1024509,,,,,,,,,,,,,1415.0999889999998,1415.1024509,1415.1024509,1415.1024509,1418.1017567,f,0.8855930999998236,0.17672129999982644,1418.1019723999998,1418.1020328999998,None,,,,,,,,,,,,,,,,,00014,001,2025-11-17_15h22.12.288,MST_task,2024.2.0,60.20759579030844,2025-11-17 15h22.19.194916 +0530,
,Objects\094a.jpg,137,0,138,,,,,,,f,1.0132604000000356,0.17548040000019682,None,,,,,,138,0,137,1418.1177503,,,,,,,,,,,,,,,,,,,,,,,1418.1023962,1418.1177503,1418.6025743999999,,,,,,,,,,,,,,1418.6232928,,,,,,,,,,,,,1418.6205299999997,1418.6232928,1418.6232928,1418.6232928,1421.6183113999996,f,1.0132604000000356,0.17548040000019682,1421.6185220999996,1421.618587,None,,,,,,,,,,,,,,,,,00014,001,2025-11-17_15h22.12.288,MST_task,2024.2.0,60.20759579030844,2025-11-17 15h22.19.194916 +0530,
,Objects\100a.jpg,138,0,139,,,,,,,f,0.938456099999712,0.18435100000033344,None,,,,,,139,0,138,1421.6344628999996,,,,,,,,,,,,,,,,,,,,,,,1421.6190121,1421.6344628999996,1422.1191027,,,,,,,,,,,,,,1422.1376732999997,,,,,,,,,,,,,1422.1351126,1422.1376732999997,1422.1376732999997,1422.1376732999997,1425.1350552999997,f,0.938456099999712,0.18435100000033344,1425.1352889,1425.1353495999997,None,,,,,,,,,,,,,,,,,00014,001,2025-11-17_15h22.12.288,MST_task,2024.2.0,60.20759579030844,2025-11-17 15h22.19.194916 +0530,
,Objects\126a.jpg,139,0,140,,,,,,,j,1.1805411000000277,0.1683389999998326,None,,,,,,140,0,139,1425.1511455999998,,,,,,,,,,,,,,,,,,,,,,,1425.1356502999997,1425.1511455999998,1425.6359349,,,,,,,,,,,,,,1425.6555212999997,,,,,,,,,,,,,1425.6528365,1425.6555212999997,1425.6555212999997,1425.6555212999997,1428.6518260999997,j,1.1805411000000277,0.1683389999998326,1428.6520733999996,1428.6521374,None,,,,,,,,,,,,,,,,,00014,001,2025-11-17_15h22.12.288,MST_task,2024.2.0,60.20759579030844,2025-11-17 15h22.19.194916 +0530,
,Scenes\187a.jpg,140,0,141,,,,,,,j,0.6171791000001576,0.13558789999979126,None,,,,,,141,0,140,1428.6678871999998,,,,,,,,,,,,,,,,,,,,,,,1428.6524372,1428.6678871999998,1429.1525070999996,,,,,,,,,,,,,,1429.1794406999998,,,,,,,,,,,,,1429.1763371999996,1429.1794406999998,1429.1794406999998,1429.1794406999998,1432.1680901,j,0.6171791000001576,0.13558789999979126,1432.1682345,1432.1682724999996,None,,,,,,,,,,,,,,,,,00014,001,2025-11-17_15h22.12.288,MST_task,2024.2.0,60.20759579030844,2025-11-17 15h22.19.194916 +0530,
,Scenes\052a.jpg,141,0,142,,,,,,,j,1.2674541999999747,0.14402109999991808,None,,,,,,142,0,141,1432.1844812999998,,,,,,,,,,,,,,,,,,,,,,,1432.1684593999998,1432.1844812999998,1432.6690366999997,,,,,,,,,,,,,,1432.6973678,,,,,,,,,,,,,1432.6940210999996,1432.6973678,1432.6973678,1432.6973678,1435.6851092999996,j,1.2674541999999747,0.14402109999991808,1435.6853219,1435.6853795999996,None,,,,,,,,,,,,,,,,,00014,001,2025-11-17_15h22.12.288,MST_task,2024.2.0,60.20759579030844,2025-11-17 15h22.19.194916 +0530,
,Scenes\009a.jpg,142,0,143,,,,,,,f,1.1315483999997014,0.2242220000002817,None,,,,,,143,0,142,1435.7012246,,,,,,,,,,,,,,,,,,,,,,,1435.6856798,1435.7012246,1436.1858192,,,,,,,,,,,,,,1436.2164839999996,,,,,,,,,,,,,1436.2131041999996,1436.2164839999996,1436.2164839999996,1436.2164839999996,1439.2018120999996,f,1.1315483999997014,0.2242220000002817,1439.2020177,1439.2020676999996,None,,,,,,,,,,,,,,,,,00014,001,2025-11-17_15h22.12.288,MST_task,2024.2.0,60.20759579030844,2025-11-17 15h22.19.194916 +0530,
,Scenes\165a.jpg,143,0,144,,,,,,,j,1.6345605999999862,0.12076170000000275,None,,,,,,144,0,143,1439.2176872999999,,,,,,,,,,,,,,,,,,,,,,,1439.2023209,1439.2176872999999,1439.7026812999998,,,,,,,,,,,,,,1439.7301279999997,,,,,,,,,,,,,1439.7266642,1439.7301279999997,1439.7301279999997,1439.7301279999997,1442.7185,j,1.6345605999999862,0.12076170000000275,1442.7187359,1442.7187973,None,,,,,,,,,,,,,,,,,00014,001,2025-11-17_15h22.12.288,MST_task,2024.2.0,60.20759579030844,2025-11-17 15h22.19.194916 +0530,
,Scenes\071a.jpg,144,0,145,,,,,,,j,0.911778200000299,0.15263400000003458,None,,,,,,145,0,144,1442.7345698999998,,,,,,,,,,,,,,,,,,,,,,,1442.7190984,1442.7345698999998,1443.2189765999997,,,,,,,,,,,,,,1443.2442646999998,,,,,,,,,,,,,1443.2409622999999,1443.2442646999998,1443.2442646999998,1443.2442646999998,1446.2352288999996,j,0.911778200000299,0.15263400000003458,1446.2354477,1446.2355091,None,,,,,,,,,,,,,,,,,00014,001,2025-11-17_15h22.12.288,MST_task,2024.2.0,60.20759579030844,2025-11-17 15h22.19.194916 +0530,
,Scenes\100a.jpg,145,0,146,,,,,,,f,1.0220975999995972,0.18391080000037618,None,,,,,,146,0,145,1446.2512459999998,,,,,,,,,,,,,,,,,,,,,,,1446.2358120999997,1446.2512459999998,1446.7360366999997,,,,,,,,,,,,,,1446.7658623999996,,,,,,,,,,,,,1446.7624469999996,1446.7658623999996,1446.7658623999996,1446.7658623999996,1449.7520547,f,1.0220975999995972,0.18391080000037618,1449.7522912999998,1449.7523526999998,None,,,,,,,,,,,,,,,,,00014,001,2025-11-17_15h22.12.288,MST_task,2024.2.0,60.20759579030844,2025-11-17 15h22.19.194916 +0530,
,Scenes\077a.jpg,146,0,147,,,,,,,f,0.9057118999999147,0.2081809000001158,None,,,,,,147,0,146,1449.7676471,,,,,,,,,,,,,,,,,,,,,,,1449.7527505999997,1449.7676471,1450.2522336999996,,,,,,,,,,,,,,1450.2744659999998,,,,,,,,,,,,,1450.2712275,1450.2744659999998,1450.2744659999998,1450.2744659999998,1453.2685397999999,f,0.9057118999999147,0.2081809000001158,1453.2687778999998,1453.268838,None,,,,,,,,,,,,,,,,,00014,001,2025-11-17_15h22.12.288,MST_task,2024.2.0,60.20759579030844,2025-11-17 15h22.19.194916 +0530,
,Objects\033a.jpg,147,0,148,,,,,,,f,0.8099682000001849,0.2233032999997704,None,,,,,,148,0,147,1453.2845628,,,,,,,,,,,,,,,,,,,,,,,1453.2691372,1453.2845628,1453.7692659999998,,,,,,,,,,,,,,1453.7869926999997,,,,,,,,,,,,,1453.7839129999998,1453.7869926999997,1453.7869926999997,1453.7869926999997,1456.7851931999999,f,0.8099682000001849,0.2233032999997704,1456.7853943999999,1456.785449,None,,,,,,,,,,,,,,,,,00014,001,2025-11-17_15h22.12.288,MST_task,2024.2.0,60.20759579030844,2025-11-17 15h22.19.194916 +0530,
,Objects\079a.jpg,148,0,149,,,,,,,f,1.242873900000177,0.20802469999989626,None,,,,,,149,0,148,1456.8012494,,,,,,,,,,,,,,,,,,,,,,,1456.7857402,1456.8012494,1457.2857801999999,,,,,,,,,,,,,,1457.3052332999996,,,,,,,,,,,,,1457.3026240999998,1457.3052332999996,1457.3052332999996,1457.3052332999996,1460.3014918,f,1.242873900000177,0.20802469999989626,1460.3016562999996,1460.3017069999996,None,,,,,,,,,,,,,,,,,00014,001,2025-11-17_15h22.12.288,MST_task,2024.2.0,60.20759579030844,2025-11-17 15h22.19.194916 +0530,
,Objects\061a.jpg,149,0,150,,,,,,,j,1.2874455000001035,0.15190619999975752,None,,,,,,150,0,149,1460.3175020999997,,,,,,,,,,,,,,,,,,,,,,,1460.3020250999998,1460.3175020999997,1460.8024379999997,,,,,,,,,,,,,,1460.8206738999997,,,,,,,,,,,,,1460.8180808999996,1460.8206738999997,1460.8206738999997,1460.8206738999997,1463.8019666999999,j,1.2874455000001035,0.15190619999975752,1463.8021778999996,1463.8022373999997,None,,,,,,,,,,,,,,,,,00014,001,2025-11-17_15h22.12.288,MST_task,2024.2.0,60.20759579030844,2025-11-17 15h22.19.194916 +0530,
,Objects\136a.jpg,150,0,151,,,,,,,f,1.8914396999998644,0.20031480000034207,None,,,,,,151,0,150,1463.8178392,,,,,,,,,,,,,,,,,,,,,,,1463.8026065999998,1463.8178392,1464.3025499999999,,,,,,,,,,,,,,1464.3207980999996,,,,,,,,,,,,,1464.3180802999996,1464.3207980999996,1464.3207980999996,1464.3207980999996,1467.3182843999998,f,1.8914396999998644,0.20031480000034207,1467.3185021,1467.3185641999999,None,,,,,,,,,,,,,,,,,00014,001,2025-11-17_15h22.12.288,MST_task,2024.2.0,60.20759579030844,2025-11-17 15h22.19.194916 +0530,
,Objects\017a.jpg,151,0,152,,,,,,,f,1.2631956000000173,0.19207280000000537,None,,,,,,152,0,151,1467.3347522999998,,,,,,,,,,,,,,,,,,,,,,,1467.3189733,1467.3347522999998,1467.8191184999996,,,,,,,,,,,,,,1467.8372210999996,,,,,,,,,,,,,1467.8344459999998,1467.8372210999996,1467.8372210999996,1467.8372210999996,1470.8353304999996,f,1.2631956000000173,0.19207280000000537,1470.8355797999998,1470.8356406999997,None,,,,,,,,,,,,,,,,,00014,001,2025-11-17_15h22.12.288,MST_task,2024.2.0,60.20759579030844,2025-11-17 15h22.19.194916 +0530,
,Objects\085a.jpg,152,0,153,,,,,,,j,1.361498699999629,0.1673919000004389,None,,,,,,153,0,152,1470.8511144,,,,,,,,,,,,,,,,,,,,,,,1470.8359180999996,1470.8511144,1471.3353914999998,,,,,,,,,,,,,,1471.3550464,,,,,,,,,,,,,1471.3524614999997,1471.3550464,1471.3550464,1471.3550464,1474.3517171999997,j,1.361498699999629,0.1673919000004389,1474.3519167999998,1474.3519720999998,None,,,,,,,,,,,,,,,,,00014,001,2025-11-17_15h22.12.288,MST_task,2024.2.0,60.20759579030844,2025-11-17 15h22.19.194916 +0530,
,Objects\097a.jpg,153,0,154,,,,,,,j,1.0686424000000443,0.15247609999960332,None,,,,,,154,0,153,1474.3676727999996,,,,,,,,,,,,,,,,,,,,,,,1474.3523999999998,1474.3676727999996,1474.852575,,,,,,,,,,,,,,1474.8715728999996,,,,,,,,,,,,,1474.8689179999997,1474.8715728999996,1474.8715728999996,1474.8715728999996,1477.8683554,j,1.0686424000000443,0.15247609999960332,1477.8685567999996,1477.8686134,None,,,,,,,,,,,,,,,,,00014,001,2025-11-17_15h22.12.288,MST_task,2024.2.0,60.20759579030844,2025-11-17 15h22.19.194916 +0530,
,Scenes\097a.jpg,154,0,155,,,,,,,f,2.5992316000001665,0.14402629999995042,None,,,,,,155,0,154,1477.8844935999996,,,,,,,,,,,,,,,,,,,,,,,1477.8689559,1477.8844935999996,1478.3688985999997,,,,,,,,,,,,,,1478.3888447,,,,,,,,,,,,,1478.3858888999998,1478.3888447,1478.3888447,1478.3888447,1481.3853414999999,f,2.5992316000001665,0.14402629999995042,1481.3855577999998,1481.3856185,None,,,,,,,,,,,,,,,,,00014,001,2025-11-17_15h22.12.288,MST_task,2024.2.0,60.20759579030844,2025-11-17 15h22.19.194916 +0530,
,Scenes\109a.jpg,155,0,156,,,,,,,j,0.9578013999998802,0.15090289999989182,None,,,,,,156,0,155,1481.4011369999998,,,,,,,,,,,,,,,,,,,,,,,1481.3860092999998,1481.4011369999998,1481.8857713999996,,,,,,,,,,,,,,1481.9110744999998,,,,,,,,,,,,,1481.9079712999996,1481.9110744999998,1481.9110744999998,1481.9110744999998,1484.9015495999997,j,0.9578013999998802,0.15090289999989182,1484.9016622,1484.9016887999996,None,,,,,,,,,,,,,,,,,00014,001,2025-11-17_15h22.12.288,MST_task,2024.2.0,60.20759579030844,2025-11-17 15h22.19.194916 +0530,
,Scenes\058a.jpg,156,0,157,,,,,,,f,1.1996558999999252,0.1914504000001216,None,,,,,,157,0,156,1484.9177498999998,,,,,,,,,,,,,,,,,,,,,,,1484.9018333,1484.9177498999998,1485.4023124999999,,,,,,,,,,,,,,1485.4292225999998,,,,,,,,,,,,,1485.4259515999997,1485.4292225999998,1485.4292225999998,1485.4292225999998,1488.4019813999998,f,1.1996558999999252,0.1914504000001216,1488.4021998999997,1488.4022599,None,,,,,,,,,,,,,,,,,00014,001,2025-11-17_15h22.12.288,MST_task,2024.2.0,60.20759579030844,2025-11-17 15h22.19.194916 +0530,
,Scenes\130a.jpg,157,0,158,,,,,,,j,0.9879038999997647,0.1601135000000795,None,,,,,,158,0,157,1488.4179944999996,,,,,,,,,,,,,,,,,,,,,,,1488.4026331999999,1488.4179944999996,1488.9015393999998,,,,,,,,,,,,,,1488.9287878999999,,,,,,,,,,,,,1488.9253919999996,1488.9287878999999,1488.9287878999999,1488.9287878999999,1491.9058696999996,j,0.9879038999997647,0.1601135000000795,1491.9061109,1491.9061834,None,,,,,,,,,,,,,,,,,00014,001,2025-11-17_15h22.12.288,MST_task,2024.2.0,60.20759579030844,2025-11-17 15h22.19.194916 +0530,
,Scenes\170a.jpg,158,0,159,,,,,,,j,1.2372881000001144,0.1192178999999669,None,,,,,,159,0,158,1491.9180656999997,,,,,,,,,,,,,,,,,,,,,,,1491.9065269999996,1491.9180656999997,1492.4024049,,,,,,,,,,,,,,1492.4313806999999,,,,,,,,,,,,,1492.4279121999998,1492.4313806999999,1492.4313806999999,1492.4313806999999,1495.4185893,j,1.2372881000001144,0.1192178999999669,1495.4188113999999,1495.4188703,None,,,,,,,,,,,,,,,,,00014,001,2025-11-17_15h22.12.288,MST_task,2024.2.0,60.20759579030844,2025-11-17 15h22.19.194916 +0530,
,Scenes\038a.jpg,159,0,160,,,,,,,j,1.0235343999997895,0.13659510000024966,None,,,,,,160,0,159,1495.4347826999997,,,,,,,,,,,,,,,,,,,,,,,1495.4191750999998,1495.4347826999997,1495.9192807999998,,,,,,,,,,,,,,1495.9484736999998,,,,,,,,,,,,,1495.9447942999996,1495.9484736999998,1495.9484736999998,1495.9484736999998,1498.9352417,j,1.0235343999997895,0.13659510000024966,1498.9354654999997,1498.9355240999998,None,,,,,,,,,,,,,,,,,00014,001,2025-11-17_15h22.12.288,MST_task,2024.2.0,60.20759579030844,2025-11-17 15h22.19.194916 +0530,
,Scenes\179a.jpg,160,0,161,,,,,,,j,1.6927537999999913,0.12761300000011033,None,,,,,,161,0,160,1498.9512744999997,,,,,,,,,,,,,,,,,,,,,,,1498.9359106999996,1498.9512744999997,1499.4359937999998,,,,,,,,,,,,,,1499.4635953999996,,,,,,,,,,,,,1499.4601347999997,1499.4635953999996,1499.4635953999996,1499.4635953999996,1502.4512895999997,j,1.6927537999999913,0.12761300000011033,1502.4513518999997,1502.4513656999998,None,,,,,,,,,,,,,,,,,00014,001,2025-11-17_15h22.12.288,MST_task,2024.2.0,60.20759579030844,2025-11-17 15h22.19.194916 +0530,
,Objects\036a.jpg,161,0,162,,,,,,,j,1.3358713000002354,0.13598259999980655,None,,,,,,162,0,161,1502.4675189,,,,,,,,,,,,,,,,,,,,,,,1502.4514535999997,1502.4675189,1502.9516755999998,,,,,,,,,,,,,,,,,,,,,,,,,,,1502.9697916,1502.9730086999998,1502.9730086999998,1502.9730086999998,1505.9518049999997,j,1.3358713000002354,0.13598259999980655,1505.9520232,1505.9520810999998,None,,,,,,,,,,,,,,,,,00014,001,2025-11-17_15h22.12.288,MST_task,2024.2.0,60.20759579030844,2025-11-17 15h22.19.194916 +0530,
,Objects\122a.jpg,162,0,163,,,,,,,f,0.9067079999999805,0.15941380000003846,None,,,,,,163,0,162,1505.967894,,,,,,,,,,,,,,,,,,,,,,,1505.9523854,1505.967894,1506.4523413999996,,,,,,,,,,,,,,1506.4739029999996,,,,,,,,,,,,,1506.4706683999998,1506.4739029999996,1506.4739029999996,1506.4739029999996,1509.4686735999999,f,0.9067079999999805,0.15941380000003846,1509.4689050999996,1509.4689684,None,,,,,,,,,,,,,,,,,00014,001,2025-11-17_15h22.12.288,MST_task,2024.2.0,60.20759579030844,2025-11-17 15h22.19.194916 +0530,
,Objects\174a.jpg,163,0,164,,,,,,,f,1.0975399000003563,0.15910809999968478,None,,,,,,164,0,163,1509.4846994,,,,,,,,,,,,,,,,,,,,,,,1509.4692781999997,1509.4846994,1509.9689306999999,,,,,,,,,,,,,,1509.9874034,,,,,,,,,,,,,1509.9846659999998,1509.9874034,1509.9874034,1509.9874034,1512.9854176999997,f,1.0975399000003563,0.15910809999968478,1512.9856943,1512.9857686999999,None,,,,,,,,,,,,,,,,,00014,001,2025-11-17_15h22.12.288,MST_task,2024.2.0,60.20759579030844,2025-11-17 15h22.19.194916 +0530,
,Objects\099a.jpg,164,0,165,,,,,,,f,1.3621689000001425,0.17631329999994705,None,,,,,,165,0,164,1513.0012831,,,,,,,,,,,,,,,,,,,,,,,1512.9862073999998,1513.0012831,1513.4855082999998,,,,,,,,,,,,,,1513.5064497999997,,,,,,,,,,,,,1513.5039600999999,1513.5064497999997,1513.5064497999997,1513.5064497999997,1516.5018391999997,f,1.3621689000001425,0.17631329999994705,1516.5020468999996,1516.5021091999997,None,,,,,,,,,,,,,,,,,00014,001,2025-11-17_15h22.12.288,MST_task,2024.2.0,60.20759579030844,2025-11-17 15h22.19.194916 +0530,
,Objects\064a.jpg,165,0,166,,,,,,,f,0.7916470000000118,0.2072571999997308,None,,,,,,166,0,165,1516.5179555999998,,,,,,,,,,,,,,,,,,,,,,,1516.5024399,1516.5179555999998,1517.0025506999996,,,,,,,,,,,,,,1517.0209750999998,,,,,,,,,,,,,1517.0183152999998,1517.0209750999998,1517.0209750999998,1517.0209750999998,1520.0182447999996,f,0.7916470000000118,0.2072571999997308,1520.0184448999998,1520.0185066,None,,,,,,,,,,,,,,,,,00014,001,2025-11-17_15h22.12.288,MST_task,2024.2.0,60.20759579030844,2025-11-17 15h22.19.194916 +0530,
,Objects\049a.jpg,166,0,167,,,,,,,f,2.9717403000004197,None,None,,,,,,167,0,166,1520.0344922,,,,,,,,,,,,,,,,,,,,,,,1520.0188761,1520.0344922,1520.5188294,,,,,,,,,,,,,,1520.5369959,,,,,,,,,,,,,1520.5343218999997,1520.5369959,1520.5369959,1520.5369959,1523.5351419999997,f,2.9717403000004197,None,1523.5353544,1523.5354107999997,None,,,,,,,,,,,,,,,,,00014,001,2025-11-17_15h22.12.288,MST_task,2024.2.0,60.20759579030844,2025-11-17 15h22.19.194916 +0530,
,Objects\114a.jpg,167,0,168,,,,,,,f,1.1820772000000943,0.19152949999988778,None,,,,,,168,0,167,1523.5509254999997,,,,,,,,,,,,,,,,,,,,,,,1523.5356487999998,1523.5509254999997,1524.0357067999998,,,,,,,,,,,,,,1524.0547609999999,,,,,,,,,,,,,1524.0521638999999,1524.0547609999999,1524.0547609999999,1524.0547609999999,1527.0517489999997,f,1.1820772000000943,0.19152949999988778,1527.0519550999998,1527.0520275999997,None,,,,,,,,,,,,,,,,,00014,001,2025-11-17_15h22.12.288,MST_task,2024.2.0,60.20759579030844,2025-11-17 15h22.19.194916 +0530,
,Scenes\183a.jpg,168,0,169,,,,,,,f,1.4965821999999207,0.19966660000000047,None,,,,,,169,0,168,1527.0677062,,,,,,,,,,,,,,,,,,,,,,,1527.0523328,1527.0677062,1527.5521262999996,,,,,,,,,,,,,,1527.5959102999996,,,,,,,,,,,,,1527.5925797999998,1527.5959102999996,1527.5959102999996,1527.5959102999996,1530.5684907,f,1.4965821999999207,0.19966660000000047,1530.5687175999997,1530.5687776,None,,,,,,,,,,,,,,,,,00014,001,2025-11-17_15h22.12.288,MST_task,2024.2.0,60.20759579030844,2025-11-17 15h22.19.194916 +0530,
,Scenes\098a.jpg,169,0,170,,,,,,,f,0.9509173000001283,0.19937269999991258,None,,,,,,170,0,169,1530.5846447999998,,,,,,,,,,,,,,,,,,,,,,,1530.5691592999997,1530.5846447999998,1531.0689657999997,,,,,,,,,,,,,,1531.0939255999997,,,,,,,,,,,,,1531.0906462999997,1531.0939255999997,1531.0939255999997,1531.0939255999997,1534.0853721999997,f,0.9509173000001283,0.19937269999991258,1534.0857612999998,1534.0858922999996,None,,,,,,,,,,,,,,,,,00014,001,2025-11-17_15h22.12.288,MST_task,2024.2.0,60.20759579030844,2025-11-17 15h22.19.194916 +0530,
,Scenes\069a.jpg,170,0,171,,,,,,,j,0.89243660000011,0.17541119999987131,None,,,,,,171,0,170,1534.1011555,,,,,,,,,,,,,,,,,,,,,,,1534.0862521999998,1534.1011555,1534.5857944,,,,,,,,,,,,,,1534.6083589999998,,,,,,,,,,,,,1534.6052422999996,1534.6083589999998,1534.6083589999998,1534.6083589999998,1537.6019637,j,0.89243660000011,0.17541119999987131,1537.6022243999996,1537.6023004999997,None,,,,,,,,,,,,,,,,,00014,001,2025-11-17_15h22.12.288,MST_task,2024.2.0,60.20759579030844,2025-11-17 15h22.19.194916 +0530,
,Scenes\188a.jpg,171,0,172,,,,,,,j,0.8241377999997894,0.14408200000025317,None,,,,,,172,0,171,1537.6177097,,,,,,,,,,,,,,,,,,,,,,,1537.6026938,1537.6177097,1538.1022845999996,,,,,,,,,,,,,,1538.1244574999996,,,,,,,,,,,,,1538.1213291999998,1538.1244574999996,1538.1244574999996,1538.1244574999996,1541.118215,j,0.8241377999997894,0.14408200000025317,1541.1184432999999,1541.1185054999996,None,,,,,,,,,,,,,,,,,00014,001,2025-11-17_15h22.12.288,MST_task,2024.2.0,60.20759579030844,2025-11-17 15h22.19.194916 +0530,
,Scenes\147a.jpg,172,0,173,,,,,,,None,,,j,1.1844848999999158,None,,,,173,0,172,1541.1344680999996,,,,,,,,,,,,,,,,,,,,,,,1541.1188115,1541.1344680999996,1541.6188159999997,,,,,,,,,,,,,,1541.6398250999996,,,,,,,,,,,,,1541.6366746999997,1541.6398250999996,1541.6398250999996,1541.6398250999996,1544.6353279,None,,,1544.6355116999998,1545.8531693,j,1544.6513229999996,1544.6513229999996,1.1844848999999158,None,,,,,,,,,,,,,00014,001,2025-11-17_15h22.12.288,MST_task,2024.2.0,60.20759579030844,2025-11-17 15h22.19.194916 +0530,
,Scenes\051a.jpg,173,0,174,,,,,,,j,0.6993145999999797,0.19952820000025895,None,,,,,,174,0,173,1545.867902,,,,,,,,,,,,,,,,,,,,,,,1545.8536233,1545.867902,1546.3525234999997,,,,,,,,,,,,,,1546.3772339999996,,,,,,,,,,,,,1546.3740552999998,1546.3772339999996,1546.3772339999996,1546.3772339999996,1549.3682720999996,j,0.6993145999999797,0.19952820000025895,1549.368485,1549.3685469999996,None,,,,,,,,,,,,,,,,,00014,001,2025-11-17_15h22.12.288,MST_task,2024.2.0,60.20759579030844,2025-11-17 15h22.19.194916 +0530,
,Scenes\120a.jpg,174,0,175,,,,,,,j,0.782138600000053,0.15266909999991185,None,,,,,,175,0,174,1549.3845539,,,,,,,,,,,,,,,,,,,,,,,1549.3689338999998,1549.3845539,1549.8689793999997,,,,,,,,,,,,,,1549.8941092999999,,,,,,,,,,,,,1549.8906514999999,1549.8941092999999,1549.8941092999999,1549.8941092999999,1552.8851198999996,j,0.782138600000053,0.15266909999991185,1552.8853169,1552.8853732999996,None,,,,,,,,,,,,,,,,,00014,001,2025-11-17_15h22.12.288,MST_task,2024.2.0,60.20759579030844,2025-11-17 15h22.19.194916 +0530,
,Objects\168a.jpg,175,0,176,,,,,,,j,1.0003676000001178,0.15874650000023394,None,,,,,,176,0,175,1552.9012896999998,,,,,,,,,,,,,,,,,,,,,,,1552.8857878,1552.9012896999998,1553.3857036,,,,,,,,,,,,,,1553.4053003,,,,,,,,,,,,,1553.4020311,1553.4053003,1553.4053003,1553.4053003,1556.402059,j,1.0003676000001178,0.15874650000023394,1556.4023607,1556.4024344,None,,,,,,,,,,,,,,,,,00014,001,2025-11-17_15h22.12.288,MST_task,2024.2.0,60.20759579030844,2025-11-17 15h22.19.194916 +0530,
,Objects\010a.jpg,176,0,177,,,,,,,j,0.8657705999999052,0.16650790000039706,None,,,,,,177,0,176,1556.417814,,,,,,,,,,,,,,,,,,,,,,,1556.4028271999996,1556.417814,1556.9021057,,,,,,,,,,,,,,1556.923942,,,,,,,,,,,,,1556.9213609999997,1556.923942,1556.923942,1556.923942,1559.9186545999996,j,0.8657705999999052,0.16650790000039706,1559.9188832,1559.9189453,None,,,,,,,,,,,,,,,,,00014,001,2025-11-17_15h22.12.288,MST_task,2024.2.0,60.20759579030844,2025-11-17 15h22.19.194916 +0530,
,Objects\082a.jpg,177,0,178,,,,,,,f,1.1699585999999726,0.19121399999994537,None,,,,,,178,0,177,1559.9346225999998,,,,,,,,,,,,,,,,,,,,,,,1559.9192446999996,1559.9346225999998,1560.4177226999996,,,,,,,,,,,,,,1560.4354362999998,,,,,,,,,,,,,1560.4328376999997,1560.4354362999998,1560.4354362999998,1560.4354362999998,1563.4195867999997,f,1.1699585999999726,0.19121399999994537,1563.4198026,1563.4198552999997,None,,,,,1563.4344623999996,1563.4344623999996,1563.4344623999996,,,,,,,,,,00014,001,2025-11-17_15h22.12.288,MST_task,2024.2.0,60.20759579030844,2025-11-17 15h22.19.194916 +0530,
,Objects\138a.jpg,178,0,179,,,,,,,j,1.7716350000000602,0.15195219999986875,None,,,,,,179,0,178,1563.4344623999996,,,,,,,,,,,,,,,,,,,,,,,1563.4202237999998,1563.4344623999996,1563.9189343999997,,,,,,,,,,,,,,1563.9369850999997,,,,,,,,,,,,,1563.9342484,1563.9369850999997,1563.9369850999997,1563.9369850999997,1566.9352308999996,j,1.7716350000000602,0.15195219999986875,1566.9354383999998,1566.9354996999996,None,,,,,,,,,,,,,,,,,00014,001,2025-11-17_15h22.12.288,MST_task,2024.2.0,60.20759579030844,2025-11-17 15h22.19.194916 +0530,
