thisN,thisTrialN,thisRepN,key_resp_3.keys,key_resp_3.rt,key_resp_3.duration,trials.thisRepN,trials.thisTrialN,trials.thisN,thisRow.t,notes,intro_page.started,text.started,key_resp.started,intro_page.stopped,key_resp.keys,key_resp.rt,key_resp.duration,instructions.started,text_2.started,key_resp_2.started,instructions.stopped,key_resp_2.keys,key_resp_2.rt,key_resp_2.duration,demo1.started,image_1.started,image_2.started,text_7.started,key_resp_6.started,text_9.started,demo1.stopped,key_resp_6.keys,key_resp_6.rt,key_resp_6.duration,demo2.started,image_5.started,image_6.started,text_11.started,text_12.started,key_resp_8.started,demo2.stopped,key_resp_8.keys,key_resp_8.rt,key_resp_8.duration,demo_conclusion.started,text_13.started,key_resp_9.started,demo_conclusion.stopped,key_resp_9.keys,key_resp_9.rt,key_resp_9.duration,start_test.started,text_6.started,key_resp_5.started,start_test.stopped,key_resp_5.keys,key_resp_5.rt,key_resp_5.duration,ISI.started,text_4.started,text_4.stopped,ISI.stopped,routine_1.started,image.started,text_3.started,key_resp_3.started,routine_1.stopped,image_path,position_of_stimuli,trials.key_resp_3.keys,trials.key_resp_3.rt,trials.key_resp_3.duration,End_page.started,text_5.started,key_resp_4.started,End_page.stopped,key_resp_4.keys,key_resp_4.rt,key_resp_4.duration,participant,session,date,expName,psychopyVersion,frameRate,expStart,
,,,,,,,,,,,0.0016303000002153567,0.00352039999961562,0.00352039999961562,2.7577838999995947,space,2.701890600000297,None,,,,,,,,,,,,,,,,,,,,,,,,,,,,,,,,,,,,,,,,,,,,,,,,,,,,,,,,,,,,,,,00016,001,2025-11-18_15h57.27.139,MST_test,2024.2.0,59.99052149755911,2025-11-18 15h57.35.418839 +0530,
,,,,,,,,,,,,,,,,,,2.757824199999959,2.7662290999996912,2.7662290999996912,12.48302220000005,space,9.699405600000318,None,,,,,,,,,,,,,,,,,,,,,,,,,,,,,,,,,,,,,,,,,,,,,,,,,,,,,,,,00016,001,2025-11-18_15h57.27.139,MST_test,2024.2.0,59.99052149755911,2025-11-18 15h57.35.418839 +0530,
,,,,,,,,,,,,,,,,,,,,,,,,,12.483137100000022,12.499541399999544,12.499541399999544,12.499541399999544,12.499541399999544,12.499541399999544,17.317480099999557,space,4.80544750000081,None,,,,,,,,,,,,,,,,,,,,,,,,,,,,,,,,,,,,,,,,,,,,,,00016,001,2025-11-18_15h57.27.139,MST_test,2024.2.0,59.99052149755911,2025-11-18 15h57.35.418839 +0530,
,,,,,,,,,,,,,,,,,,,,,,,,,,,,,,,,,,,17.317607799999678,17.332051399999727,17.332051399999727,17.332051399999727,17.332051399999727,17.332051399999727,20.68380049999996,space,3.340986299999713,None,,,,,,,,,,,,,,,,,,,,,,,,,,,,,,,,,,,,00016,001,2025-11-18_15h57.27.139,MST_test,2024.2.0,59.99052149755911,2025-11-18 15h57.35.418839 +0530,
,,,,,,,,,,,,,,,,,,,,,,,,,,,,,,,,,,,,,,,,,,,,,20.683888399999887,20.697965999999724,20.697965999999724,36.4165224999997,space,15.71106140000029,None,,,,,,,,,,,,,,,,,,,,,,,,,,,,,00016,001,2025-11-18_15h57.27.139,MST_test,2024.2.0,59.99052149755911,2025-11-18 15h57.35.418839 +0530,
,,,,,,,,,,,,,,,,,,,,,,,,,,,,,,,,,,,,,,,,,,,,,,,,,,,,36.416639099999884,36.43133289999969,36.43133289999969,51.233444299999974,space,14.794030699999894,None,,,,,,,,,,,,,,,,,,,,,,00016,001,2025-11-18_15h57.27.139,MST_test,2024.2.0,59.99052149755911,2025-11-18 15h57.35.418839 +0530,
0,0,1,s,15.811235699999997,None,1,0,0,51.24755490000007,,,,,,,,,,,,,,,,,,,,,,,,,,,,,,,,,,,,,,,,,,,,,,,,,,51.241484899999705,51.24755490000007,51.765587300000334,51.732171599999674,51.76269880000018,51.765587300000334,51.765587300000334,51.765587300000334,67.58344209999996,Scenes\002b.jpg,pre,s,15.811235699999997,None,,,,,,,,00016,001,2025-11-18_15h57.27.139,MST_test,2024.2.0,59.99052149755911,2025-11-18 15h57.35.418839 +0530,
1,0,2,o,2.9137622999996893,None,2,0,1,67.59765619999962,,,,,,,,,,,,,,,,,,,,,,,,,,,,,,,,,,,,,,,,,,,,,,,,,,67.5838404999995,67.59765619999962,68.10297319999972,68.08256789999996,68.10062130000006,68.10297319999972,68.10297319999972,68.10297319999972,71.03316790000008,Objects\172b.jpg,pre,o,2.9137622999996893,None,,,,,,,,00016,001,2025-11-18_15h57.27.139,MST_test,2024.2.0,59.99052149755911,2025-11-18 15h57.35.418839 +0530,
2,0,3,o,1.1302541000004567,None,3,0,2,71.0478379999995,,,,,,,,,,,,,,,,,,,,,,,,,,,,,,,,,,,,,,,,,,,,,,,,,,71.0335669999995,71.0478379999995,71.55159730000014,71.53236230000039,71.54908299999988,71.55159730000014,71.55159730000014,71.55159730000014,72.68364070000007,Objects\008b.jpg,post,o,1.1302541000004567,None,,,,,,,,00016,001,2025-11-18_15h57.27.139,MST_test,2024.2.0,59.99052149755911,2025-11-18 15h57.35.418839 +0530,
3,0,4,s,2.4983522000002267,None,4,0,3,72.69779060000019,,,,,,,,,,,,,,,,,,,,,,,,,,,,,,,,,,,,,,,,,,,,,,,,,,72.68400139999994,72.69779060000019,73.20725779999975,73.18211909999991,73.2043751000001,73.20725779999975,73.20725779999975,73.20725779999975,75.7174417999995,Scenes\178b.jpg,post,s,2.4983522000002267,None,,,,,,,,00016,001,2025-11-18_15h57.27.139,MST_test,2024.2.0,59.99052149755911,2025-11-18 15h57.35.418839 +0530,
4,0,5,n,2.972131200000149,None,5,0,4,75.73126239999965,,,,,,,,,,,,,,,,,,,,,,,,,,,,,,,,,,,,,,,,,,,,,,,,,,75.71787539999968,75.73126239999965,76.23710099999971,76.21560339999996,76.23393159999978,76.23710099999971,76.23710099999971,76.23710099999971,79.21646659999988,Foils\093b.jpg,none,n,2.972131200000149,None,,,,,,,,00016,001,2025-11-18_15h57.27.139,MST_test,2024.2.0,59.99052149755911,2025-11-18 15h57.35.418839 +0530,
5,0,6,s,12.941166599999633,None,6,0,5,79.23114799999985,,,,,,,,,,,,,,,,,,,,,,,,,,,,,,,,,,,,,,,,,,,,,,,,,,79.21679419999964,79.23114799999985,79.73192329999983,79.7156189999996,79.72949559999961,79.73192329999983,79.73192329999983,79.73192329999983,92.68358660000013,Objects\060b.jpg,mid,s,12.941166599999633,None,,,,,,,,00016,001,2025-11-18_15h57.27.139,MST_test,2024.2.0,59.99052149755911,2025-11-18 15h57.35.418839 +0530,
6,0,7,o,1.3351709999997183,None,7,0,6,92.69772000000012,,,,,,,,,,,,,,,,,,,,,,,,,,,,,,,,,,,,,,,,,,,,,,,,,,92.68392769999991,92.69772000000012,93.20976109999992,93.18250239999998,93.20658290000029,93.20976109999992,93.20976109999992,93.20976109999992,94.5502964999996,Scenes\045a.jpg,post,o,1.3351709999997183,None,,,,,,,,00016,001,2025-11-18_15h57.27.139,MST_test,2024.2.0,59.99052149755911,2025-11-18 15h57.35.418839 +0530,
7,0,8,o,0.9674660000000586,None,8,0,7,94.56441129999985,,,,,,,,,,,,,,,,,,,,,,,,,,,,,,,,,,,,,,,,,,,,,,,,,,94.55059640000036,94.56441129999985,95.0657586999996,95.04897830000027,95.06226700000025,95.0657586999996,95.0657586999996,95.0657586999996,96.04966630000035,Objects\167a.jpg,pre,o,0.9674660000000586,None,,,,,,,,00016,001,2025-11-18_15h57.27.139,MST_test,2024.2.0,59.99052149755911,2025-11-18 15h57.35.418839 +0530,
8,0,9,o,4.048589800000627,None,9,0,8,96.06450080000013,,,,,,,,,,,,,,,,,,,,,,,,,,,,,,,,,,,,,,,,,,,,,,,,,,96.05000519999976,96.06450080000013,96.56854180000028,96.5490592999995,96.56557650000013,96.56854180000028,96.56854180000028,96.56854180000028,100.63367850000031,Objects\077b.jpg,mid,o,4.048589800000627,None,,,,,,,,00016,001,2025-11-18_15h57.27.139,MST_test,2024.2.0,59.99052149755911,2025-11-18 15h57.35.418839 +0530,
9,0,10,n,4.197644200000468,None,10,0,9,100.64753959999962,,,,,,,,,,,,,,,,,,,,,,,,,,,,,,,,,,,,,,,,,,,,,,,,,,100.63399659999959,100.64753959999962,101.15540669999973,101.13246879999951,101.15192779999961,101.15540669999973,101.15540669999973,101.15540669999973,105.36659669999972,Scenes\162b.jpg,mid,n,4.197644200000468,None,,,,,,,,00016,001,2025-11-18_15h57.27.139,MST_test,2024.2.0,59.99052149755911,2025-11-18 15h57.35.418839 +0530,
10,0,11,s,2.559698300000491,None,11,0,10,105.38143690000015,,,,,,,,,,,,,,,,,,,,,,,,,,,,,,,,,,,,,,,,,,,,,,,,,,105.36699750000025,105.38143690000015,105.88263410000036,105.86541159999979,105.87990309999986,105.88263410000036,105.88263410000036,105.88263410000036,108.45007650000025,Foils\scenes3.jpg,none,s,2.559698300000491,None,,,,,,,,00016,001,2025-11-18_15h57.27.139,MST_test,2024.2.0,59.99052149755911,2025-11-18 15h57.35.418839 +0530,
11,0,12,s,1.479356099999677,None,12,0,11,108.46451509999952,,,,,,,,,,,,,,,,,,,,,,,,,,,,,,,,,,,,,,,,,,,,,,,,,,108.45043009999972,108.46451509999952,108.97013630000038,108.94925739999962,108.96754609999971,108.97013630000038,108.97013630000038,108.97013630000038,110.45154889999958,Foils\066a.jpg,none,s,1.479356099999677,None,,,,,,,,00016,001,2025-11-18_15h57.27.139,MST_test,2024.2.0,59.99052149755911,2025-11-18 15h57.35.418839 +0530,
12,0,13,o,1.3558466000004046,None,13,0,12,110.46460070000012,,,,,,,,,,,,,,,,,,,,,,,,,,,,,,,,,,,,,,,,,,,,,,,,,,110.45194670000001,110.46460070000012,110.97320909999962,110.94917299999997,110.97012749999976,110.97320909999962,110.97320909999962,110.97320909999962,112.33385029999954,Scenes\129a.jpg,pre,o,1.3558466000004046,None,,,,,,,,00016,001,2025-11-18_15h57.27.139,MST_test,2024.2.0,59.99052149755911,2025-11-18 15h57.35.418839 +0530,
13,0,14,o,3.0431202999998277,None,14,0,13,112.3479572999995,,,,,,,,,,,,,,,,,,,,,,,,,,,,,,,,,,,,,,,,,,,,,,,,,,112.33425939999961,112.3479572999995,112.85392260000026,112.83214969999972,112.85100559999955,112.85392260000026,112.85392260000026,112.85392260000026,115.89990599999965,Scenes\049a.jpg,pre,o,3.0431202999998277,None,,,,,,,,00016,001,2025-11-18_15h57.27.139,MST_test,2024.2.0,59.99052149755911,2025-11-18 15h57.35.418839 +0530,
14,0,15,s,4.486421800000244,None,15,0,14,115.91450950000035,,,,,,,,,,,,,,,,,,,,,,,,,,,,,,,,,,,,,,,,,,,,,,,,,,115.90035859999989,115.91450950000035,116.41918799999985,116.39869379999982,116.41647550000016,116.41918799999985,116.41918799999985,116.41918799999985,120.91673939999964,Objects\141b.jpg,mid,s,4.486421800000244,None,,,,,,,,00016,001,2025-11-18_15h57.27.139,MST_test,2024.2.0,59.99052149755911,2025-11-18 15h57.35.418839 +0530,
15,0,16,o,1.6725847999996404,None,16,0,15,120.93121580000025,,,,,,,,,,,,,,,,,,,,,,,,,,,,,,,,,,,,,,,,,,,,,,,,,,120.91709809999975,120.93121580000025,121.43271939999977,121.41567380000015,121.4303130999997,121.43271939999977,121.43271939999977,121.43271939999977,123.11699990000034,Objects\001a.jpg,mid,o,1.6725847999996404,None,,,,,,,,00016,001,2025-11-18_15h57.27.139,MST_test,2024.2.0,59.99052149755911,2025-11-18 15h57.35.418839 +0530,
16,0,17,o,2.4032505000004676,None,17,0,16,123.13120199999958,,,,,,,,,,,,,,,,,,,,,,,,,,,,,,,,,,,,,,,,,,,,,,,,,,123.11740529999952,123.13120199999958,123.63845750000019,123.61576830000013,123.63551949999965,123.63845750000019,123.63845750000019,123.63845750000019,126.05004730000019,Scenes\080a.jpg,pre,o,2.4032505000004676,None,,,,,,,,00016,001,2025-11-18_15h57.27.139,MST_test,2024.2.0,59.99052149755911,2025-11-18 15h57.35.418839 +0530,
17,0,18,n,1.0489331999997376,None,18,0,17,126.06455379999989,,,,,,,,,,,,,,,,,,,,,,,,,,,,,,,,,,,,,,,,,,,,,,,,,,126.05045259999952,126.06455379999989,126.56789939999999,126.5487449000002,126.56503799999973,126.56789939999999,126.56789939999999,126.56789939999999,127.63319500000034,Foils\034a.jpg,none,n,1.0489331999997376,None,,,,,,,,00016,001,2025-11-18_15h57.27.139,MST_test,2024.2.0,59.99052149755911,2025-11-18 15h57.35.418839 +0530,
18,0,19,s,1.4278504999992947,None,19,0,18,127.64768029999959,,,,,,,,,,,,,,,,,,,,,,,,,,,,,,,,,,,,,,,,,,,,,,,,,,127.63354499999969,127.64768029999959,128.14955819999977,128.1323295000002,128.14709500000026,128.14955819999977,128.14955819999977,128.14955819999977,129.58318169999984,Objects\169b.jpg,post,s,1.4278504999992947,None,,,,,,,,00016,001,2025-11-18_15h57.27.139,MST_test,2024.2.0,59.99052149755911,2025-11-18 15h57.35.418839 +0530,
19,0,20,s,1.2685104000001957,None,20,0,19,129.59774180000022,,,,,,,,,,,,,,,,,,,,,,,,,,,,,,,,,,,,,,,,,,,,,,,,,,129.58351709999988,129.59774180000022,130.1007794999996,130.0825933999995,130.09841619999952,130.1007794999996,130.1007794999996,130.1007794999996,131.38297390000025,Objects\063b.jpg,pre,s,1.2685104000001957,None,,,,,,,,00016,001,2025-11-18_15h57.27.139,MST_test,2024.2.0,59.99052149755911,2025-11-18 15h57.35.418839 +0530,
20,0,21,o,1.7643713000006755,None,21,0,20,131.39766710000004,,,,,,,,,,,,,,,,,,,,,,,,,,,,,,,,,,,,,,,,,,,,,,,,,,131.3833493000002,131.39766710000004,131.9086529999995,131.88224830000036,131.9056516999999,131.9086529999995,131.9086529999995,131.9086529999995,133.6834232000001,Scenes\105a.jpg,mid,o,1.7643713000006755,None,,,,,,,,00016,001,2025-11-18_15h57.27.139,MST_test,2024.2.0,59.99052149755911,2025-11-18 15h57.35.418839 +0530,
21,0,22,n,3.427407199999834,None,22,0,21,133.69773739999982,,,,,,,,,,,,,,,,,,,,,,,,,,,,,,,,,,,,,,,,,,,,,,,,,,133.68373809999957,133.69773739999982,134.20550980000007,134.18239170000015,134.20262000000002,134.20550980000007,134.20550980000007,134.20550980000007,137.64872130000003,Scenes\155b.jpg,pre,n,3.427407199999834,None,,,,,,,,00016,001,2025-11-18_15h57.27.139,MST_test,2024.2.0,59.99052149755911,2025-11-18 15h57.35.418839 +0530,
22,0,23,s,1.6061816000001272,None,23,0,22,137.66448800000035,,,,,,,,,,,,,,,,,,,,,,,,,,,,,,,,,,,,,,,,,,,,,,,,,,137.6489115000004,137.66448800000035,138.1707452999999,138.14869699999963,138.16766259999986,138.1707452999999,138.1707452999999,138.1707452999999,139.78332640000008,Objects\002b.jpg,mid,s,1.6061816000001272,None,,,,,,,,00016,001,2025-11-18_15h57.27.139,MST_test,2024.2.0,59.99052149755911,2025-11-18 15h57.35.418839 +0530,
23,0,24,n,2.6736111999998684,None,24,0,23,139.7977654999995,,,,,,,,,,,,,,,,,,,,,,,,,,,,,,,,,,,,,,,,,,,,,,,,,,139.78367350000008,139.7977654999995,140.30343730000004,140.28256260000035,140.30113919999985,140.30343730000004,140.30343730000004,140.30343730000004,142.98378969999976,Foils\scenes11.jpg,none,n,2.6736111999998684,None,,,,,,,,00016,001,2025-11-18_15h57.27.139,MST_test,2024.2.0,59.99052149755911,2025-11-18 15h57.35.418839 +0530,
24,0,25,n,4.81881390000035,None,25,0,24,142.99773019999975,,,,,,,,,,,,,,,,,,,,,,,,,,,,,,,,,,,,,,,,,,,,,,,,,,142.98409079999965,142.99773019999975,143.50291329999982,143.48213810000016,143.50040100000024,143.50291329999982,143.50291329999982,143.50291329999982,148.33285999999953,Foils\scenes19.jpg,none,n,4.81881390000035,None,,,,,,,,00016,001,2025-11-18_15h57.27.139,MST_test,2024.2.0,59.99052149755911,2025-11-18 15h57.35.418839 +0530,
25,0,26,s,1.3409048000003168,None,26,0,25,148.3478611999999,,,,,,,,,,,,,,,,,,,,,,,,,,,,,,,,,,,,,,,,,,,,,,,,,,148.33310809999966,148.3478611999999,148.85194299999966,148.8327879999997,148.8493042,148.85194299999966,148.85194299999966,148.85194299999966,150.19975020000038,Objects\073b.jpg,post,s,1.3409048000003168,None,,,,,,,,00016,001,2025-11-18_15h57.27.139,MST_test,2024.2.0,59.99052149755911,2025-11-18 15h57.35.418839 +0530,
26,0,27,o,1.3841996999999537,None,27,0,26,150.21456680000028,,,,,,,,,,,,,,,,,,,,,,,,,,,,,,,,,,,,,,,,,,,,,,,,,,150.20012399999996,150.21456680000028,150.7289638000002,150.6990525000001,150.7261123999997,150.7289638000002,150.7289638000002,150.7289638000002,152.1171449000003,Scenes\149b.jpg,mid,o,1.3841996999999537,None,,,,,,,,00016,001,2025-11-18_15h57.27.139,MST_test,2024.2.0,59.99052149755911,2025-11-18 15h57.35.418839 +0530,
27,0,28,s,6.3826772000002165,None,28,0,27,152.13128779999988,,,,,,,,,,,,,,,,,,,,,,,,,,,,,,,,,,,,,,,,,,,,,,,,,,152.11749529999997,152.13128779999988,152.6348552999998,152.61554739999974,152.63206590000027,152.6348552999998,152.6348552999998,152.6348552999998,159.0335200999998,Objects\136b.jpg,post,s,6.3826772000002165,None,,,,,,,,00016,001,2025-11-18_15h57.27.139,MST_test,2024.2.0,59.99052149755911,2025-11-18 15h57.35.418839 +0530,
28,0,29,s,2.3738447999994605,None,29,0,28,159.047775,,,,,,,,,,,,,,,,,,,,,,,,,,,,,,,,,,,,,,,,,,,,,,,,,,159.0338324000004,159.047775,159.5561944000001,159.5324526000004,159.55327959999977,159.5561944000001,159.5561944000001,159.5561944000001,161.9337131000002,Foils\scenes27.jpg,none,s,2.3738447999994605,None,,,,,,,,00016,001,2025-11-18_15h57.27.139,MST_test,2024.2.0,59.99052149755911,2025-11-18 15h57.35.418839 +0530,
29,0,30,s,4.287968300000102,None,30,0,29,161.94776829999955,,,,,,,,,,,,,,,,,,,,,,,,,,,,,,,,,,,,,,,,,,,,,,,,,,161.93412919999992,161.94776829999955,162.45748360000016,162.43255130000034,162.4545674000001,162.45748360000016,162.45748360000016,162.45748360000016,166.75014209999972,Scenes\163b.jpg,mid,s,4.287968300000102,None,,,,,,,,00016,001,2025-11-18_15h57.27.139,MST_test,2024.2.0,59.99052149755911,2025-11-18 15h57.35.418839 +0530,
30,0,31,o,2.1130165000004126,None,31,0,30,166.76452410000002,,,,,,,,,,,,,,,,,,,,,,,,,,,,,,,,,,,,,,,,,,,,,,,,,,166.75053130000015,166.76452410000002,167.27987339999981,167.24908330000017,167.2767985999999,167.27987339999981,167.27987339999981,167.27987339999981,169.3999729999996,Scenes\106b.jpg,post,o,2.1130165000004126,None,,,,,,,,00016,001,2025-11-18_15h57.27.139,MST_test,2024.2.0,59.99052149755911,2025-11-18 15h57.35.418839 +0530,
31,0,32,o,1.5727022999999463,None,32,0,31,169.41449889999967,,,,,,,,,,,,,,,,,,,,,,,,,,,,,,,,,,,,,,,,,,,,,,,,,,169.40028379999967,169.41449889999967,169.91708449999987,169.8990229000001,169.9141179999997,169.91708449999987,169.91708449999987,169.91708449999987,171.4999496999999,Objects\013a.jpg,mid,o,1.5727022999999463,None,,,,,,,,00016,001,2025-11-18_15h57.27.139,MST_test,2024.2.0,59.99052149755911,2025-11-18 15h57.35.418839 +0530,
32,0,33,o,1.4097069999997984,None,33,0,32,171.51453149999998,,,,,,,,,,,,,,,,,,,,,,,,,,,,,,,,,,,,,,,,,,,,,,,,,,171.50033470000017,171.51453149999998,172.02320129999953,171.99876330000006,172.02049309999984,172.02320129999953,172.02320129999953,172.02320129999953,173.44924919999994,Objects\192b.jpg,mid,o,1.4097069999997984,None,,,,,,,,00016,001,2025-11-18_15h57.27.139,MST_test,2024.2.0,59.99052149755911,2025-11-18 15h57.35.418839 +0530,
33,0,34,s,3.751920599999721,None,34,0,33,173.46450709999954,,,,,,,,,,,,,,,,,,,,,,,,,,,,,,,,,,,,,,,,,,,,,,,,,,173.44948130000012,173.46450709999954,173.96953870000016,173.94928640000035,173.96684129999994,173.96953870000016,173.96953870000016,173.96953870000016,177.73357060000035,Scenes\191a.jpg,pre,s,3.751920599999721,None,,,,,,,,00016,001,2025-11-18_15h57.27.139,MST_test,2024.2.0,59.99052149755911,2025-11-18 15h57.35.418839 +0530,
34,0,35,s,1.147646600000371,None,35,0,34,177.74781499999972,,,,,,,,,,,,,,,,,,,,,,,,,,,,,,,,,,,,,,,,,,,,,,,,,,177.7339218999996,177.74781499999972,178.25328549999995,178.23273030000018,178.25043629999982,178.25328549999995,178.25328549999995,178.25328549999995,179.41697310000018,Scenes\098b.jpg,pre,s,1.147646600000371,None,,,,,,,,00016,001,2025-11-18_15h57.27.139,MST_test,2024.2.0,59.99052149755911,2025-11-18 15h57.35.418839 +0530,
35,0,36,n,1.4897120000005089,None,36,0,35,179.43132400000013,,,,,,,,,,,,,,,,,,,,,,,,,,,,,,,,,,,,,,,,,,,,,,,,,,179.41738329999953,179.43132400000013,179.9357689999997,179.9159239999999,179.93281169999955,179.9357689999997,179.9357689999997,179.9357689999997,181.43333129999974,Foils\scenes4.jpg,none,n,1.4897120000005089,None,,,,,,,,00016,001,2025-11-18_15h57.27.139,MST_test,2024.2.0,59.99052149755911,2025-11-18 15h57.35.418839 +0530,
36,0,37,o,1.2392295999998169,None,37,0,36,181.44789839999976,,,,,,,,,,,,,,,,,,,,,,,,,,,,,,,,,,,,,,,,,,,,,,,,,,181.4336685999997,181.44789839999976,181.96331589999954,181.93262330000016,181.96062710000024,181.96331589999954,181.96331589999954,181.96331589999954,183.21709370000008,Scenes\161b.jpg,post,o,1.2392295999998169,None,,,,,,,,00016,001,2025-11-18_15h57.27.139,MST_test,2024.2.0,59.99052149755911,2025-11-18 15h57.35.418839 +0530,
37,0,38,o,1.099101900000278,None,38,0,37,183.2311810000001,,,,,,,,,,,,,,,,,,,,,,,,,,,,,,,,,,,,,,,,,,,,,,,,,,183.21742670000003,183.2311810000001,183.74308779999956,183.7159498000001,183.7400404,183.74308779999956,183.74308779999956,183.74308779999956,184.84997329999987,Scenes\167a.jpg,mid,o,1.099101900000278,None,,,,,,,,00016,001,2025-11-18_15h57.27.139,MST_test,2024.2.0,59.99052149755911,2025-11-18 15h57.35.418839 +0530,
38,0,39,o,1.2106309999999212,None,39,0,38,184.86454849999973,,,,,,,,,,,,,,,,,,,,,,,,,,,,,,,,,,,,,,,,,,,,,,,,,,184.8503214000002,184.86454849999973,185.36700269999983,185.34922579999966,185.36412269999983,185.36700269999983,185.36700269999983,185.36700269999983,186.58321419999993,Scenes\016a.jpg,post,o,1.2106309999999212,None,,,,,,,,00016,001,2025-11-18_15h57.27.139,MST_test,2024.2.0,59.99052149755911,2025-11-18 15h57.35.418839 +0530,
39,0,40,o,1.2049918000002435,None,40,0,39,186.5977899999998,,,,,,,,,,,,,,,,,,,,,,,,,,,,,,,,,,,,,,,,,,,,,,,,,,186.58357220000016,186.5977899999998,187.09996950000004,187.0823623999995,187.0971755999999,187.09996950000004,187.09996950000004,187.09996950000004,188.31671149999966,Objects\029a.jpg,post,o,1.2049918000002435,None,,,,,,,,00016,001,2025-11-18_15h57.27.139,MST_test,2024.2.0,59.99052149755911,2025-11-18 15h57.35.418839 +0530,
40,0,41,s,1.2355790999999954,None,41,0,40,188.33135570000013,,,,,,,,,,,,,,,,,,,,,,,,,,,,,,,,,,,,,,,,,,,,,,,,,,188.31710939999994,188.33135570000013,188.85383230000025,188.8156726999996,188.8514298,188.85383230000025,188.85383230000025,188.85383230000025,190.09994749999987,Objects\037b.jpg,post,s,1.2355790999999954,None,,,,,,,,00016,001,2025-11-18_15h57.27.139,MST_test,2024.2.0,59.99052149755911,2025-11-18 15h57.35.418839 +0530,
41,0,42,n,3.1045729999996183,None,42,0,41,190.1146587000003,,,,,,,,,,,,,,,,,,,,,,,,,,,,,,,,,,,,,,,,,,,,,,,,,,190.10029049999957,190.1146587000003,190.6248695000004,190.5987640000003,190.62180119999994,190.6248695000004,190.6248695000004,190.6248695000004,193.7336293999997,Foils\scenes22.jpg,none,n,3.1045729999996183,None,,,,,,,,00016,001,2025-11-18_15h57.27.139,MST_test,2024.2.0,59.99052149755911,2025-11-18 15h57.35.418839 +0530,
42,0,43,o,2.149063799999567,None,43,0,42,193.7477761,,,,,,,,,,,,,,,,,,,,,,,,,,,,,,,,,,,,,,,,,,,,,,,,,,193.73399210000025,193.7477761,194.25187800000003,194.23224070000015,194.24859829999968,194.25187800000003,194.25187800000003,194.25187800000003,196.41672730000028,Scenes\124a.jpg,post,o,2.149063799999567,None,,,,,,,,00016,001,2025-11-18_15h57.27.139,MST_test,2024.2.0,59.99052149755911,2025-11-18 15h57.35.418839 +0530,
43,0,44,o,1.1465449999996054,None,44,0,43,196.43137709999974,,,,,,,,,,,,,,,,,,,,,,,,,,,,,,,,,,,,,,,,,,,,,,,,,,196.41714669999965,196.43137709999974,196.9346175999999,196.9159338999998,196.93181060000006,196.9346175999999,196.9346175999999,196.9346175999999,198.08391099999972,Objects\039b.jpg,mid,o,1.1465449999996054,None,,,,,,,,00016,001,2025-11-18_15h57.27.139,MST_test,2024.2.0,59.99052149755911,2025-11-18 15h57.35.418839 +0530,
44,0,45,o,3.460787299999538,None,45,0,44,198.0979030999997,,,,,,,,,,,,,,,,,,,,,,,,,,,,,,,,,,,,,,,,,,,,,,,,,,198.08429429999978,198.0979030999997,198.60530839999956,198.58228750000035,198.6025367000002,198.60530839999956,198.60530839999956,198.60530839999956,202.0829716999997,Scenes\176b.jpg,mid,o,3.460787299999538,None,,,,,,,,00016,001,2025-11-18_15h57.27.139,MST_test,2024.2.0,59.99052149755911,2025-11-18 15h57.35.418839 +0530,
45,0,46,o,1.7355939999997645,None,46,0,45,202.0978613999996,,,,,,,,,,,,,,,,,,,,,,,,,,,,,,,,,,,,,,,,,,,,,,,,,,202.0832862999996,202.0978613999996,202.60155250000025,202.58232659999976,202.5988158,202.60155250000025,202.60155250000025,202.60155250000025,204.34992460000012,Objects\095b.jpg,mid,o,1.7355939999997645,None,,,,,,,,00016,001,2025-11-18_15h57.27.139,MST_test,2024.2.0,59.99052149755911,2025-11-18 15h57.35.418839 +0530,
46,0,47,o,0.9207579000003534,None,47,0,46,204.36460540000007,,,,,,,,,,,,,,,,,,,,,,,,,,,,,,,,,,,,,,,,,,,,,,,,,,204.3503197,204.36460540000007,204.86477279999963,204.84856620000028,204.86033979999957,204.86477279999963,204.86477279999963,204.86477279999963,205.80055269999957,Objects\166a.jpg,post,o,0.9207579000003534,None,,,,,,,,00016,001,2025-11-18_15h57.27.139,MST_test,2024.2.0,59.99052149755911,2025-11-18 15h57.35.418839 +0530,
47,0,48,o,0.8445607999992717,None,48,0,47,205.81453129999954,,,,,,,,,,,,,,,,,,,,,,,,,,,,,,,,,,,,,,,,,,,,,,,,,,205.80086849999952,205.81453129999954,206.32595450000008,206.29882290000023,206.32304440000007,206.32595450000008,206.32595450000008,206.32595450000008,207.1817646999998,Scenes\072b.jpg,mid,o,0.8445607999992717,None,,,,,,,,00016,001,2025-11-18_15h57.27.139,MST_test,2024.2.0,59.99052149755911,2025-11-18 15h57.35.418839 +0530,
48,0,49,o,2.757180100000369,None,49,0,48,207.19764740000028,,,,,,,,,,,,,,,,,,,,,,,,,,,,,,,,,,,,,,,,,,,,,,,,,,207.18186109999988,207.19764740000028,207.7083130000001,207.68260869999995,207.7053251999996,207.7083130000001,207.7083130000001,207.7083130000001,210.46739509999952,Scenes\054b.jpg,post,o,2.757180100000369,None,,,,,,,,00016,001,2025-11-18_15h57.27.139,MST_test,2024.2.0,59.99052149755911,2025-11-18 15h57.35.418839 +0530,
49,0,50,n,1.197845600000619,None,50,0,49,210.48121960000026,,,,,,,,,,,,,,,,,,,,,,,,,,,,,,,,,,,,,,,,,,,,,,,,,,210.46778840000025,210.48121960000026,210.98739810000006,210.96556450000026,210.98418709999987,210.98739810000006,210.98739810000006,210.98739810000006,212.20024759999978,Foils\113a.jpg,none,n,1.197845600000619,None,,,,,,,,00016,001,2025-11-18_15h57.27.139,MST_test,2024.2.0,59.99052149755911,2025-11-18 15h57.35.418839 +0530,
50,0,51,s,1.339688400000341,None,51,0,50,212.21463370000038,,,,,,,,,,,,,,,,,,,,,,,,,,,,,,,,,,,,,,,,,,,,,,,,,,212.2006298999995,212.21463370000038,212.7255556,212.69885969999996,212.7227442000003,212.7255556,212.7255556,212.7255556,214.06657160000032,Scenes\142b.jpg,pre,s,1.339688400000341,None,,,,,,,,00016,001,2025-11-18_15h57.27.139,MST_test,2024.2.0,59.99052149755911,2025-11-18 15h57.35.418839 +0530,
51,0,52,n,2.3588949000004504,None,52,0,51,214.08115420000013,,,,,,,,,,,,,,,,,,,,,,,,,,,,,,,,,,,,,,,,,,,,,,,,,,214.06685430000016,214.08115420000013,214.58688299999994,214.56604309999966,214.58397439999953,214.58688299999994,214.58688299999994,214.58688299999994,216.95049440000003,Foils\009a.jpg,none,n,2.3588949000004504,None,,,,,,,,00016,001,2025-11-18_15h57.27.139,MST_test,2024.2.0,59.99052149755911,2025-11-18 15h57.35.418839 +0530,
52,0,53,s,1.4305984000002354,None,53,0,52,216.96456669999952,,,,,,,,,,,,,,,,,,,,,,,,,,,,,,,,,,,,,,,,,,,,,,,,,,216.9509052000003,216.96456669999952,217.46679719999975,217.44936959999995,217.4642791999995,217.46679719999975,217.46679719999975,217.46679719999975,218.90031679999993,Objects\180a.jpg,pre,s,1.4305984000002354,None,,,,,,,,00016,001,2025-11-18_15h57.27.139,MST_test,2024.2.0,59.99052149755911,2025-11-18 15h57.35.418839 +0530,
53,0,54,o,1.221812100000534,None,54,0,53,218.91482780000024,,,,,,,,,,,,,,,,,,,,,,,,,,,,,,,,,,,,,,,,,,,,,,,,,,218.90073109999958,218.91482780000024,219.4193353999999,219.39891410000018,219.41629829999965,219.4193353999999,219.4193353999999,219.4193353999999,220.64994699999988,Scenes\182a.jpg,pre,o,1.221812100000534,None,,,,,,,,00016,001,2025-11-18_15h57.27.139,MST_test,2024.2.0,59.99052149755911,2025-11-18 15h57.35.418839 +0530,
54,0,55,s,1.8131883999994898,None,55,0,54,220.66463289999956,,,,,,,,,,,,,,,,,,,,,,,,,,,,,,,,,,,,,,,,,,,,,,,,,,220.6502150999995,220.66463289999956,221.18860380000024,221.14893839999968,221.18569750000006,221.18860380000024,221.18860380000024,221.18860380000024,223.01717389999976,Objects\055b.jpg,mid,s,1.8131883999994898,None,,,,,,,,00016,001,2025-11-18_15h57.27.139,MST_test,2024.2.0,59.99052149755911,2025-11-18 15h57.35.418839 +0530,
55,0,56,o,1.0519980999997642,None,56,0,55,223.03133100000014,,,,,,,,,,,,,,,,,,,,,,,,,,,,,,,,,,,,,,,,,,,,,,,,,,223.01757610000004,223.03133100000014,223.5330745000001,223.51588850000007,223.5305656999999,223.5330745000001,223.5330745000001,223.5330745000001,224.60001199999988,Objects\103a.jpg,pre,o,1.0519980999997642,None,,,,,,,,00016,001,2025-11-18_15h57.27.139,MST_test,2024.2.0,59.99052149755911,2025-11-18 15h57.35.418839 +0530,
56,0,57,o,1.1744425000006231,None,57,0,56,224.6145588999998,,,,,,,,,,,,,,,,,,,,,,,,,,,,,,,,,,,,,,,,,,,,,,,,,,224.60037850000026,224.6145588999998,225.11503220000031,225.0991009999998,225.11271589999978,225.11503220000031,225.11503220000031,225.11503220000031,226.3001717999996,Objects\168a.jpg,mid,o,1.1744425000006231,None,,,,,,,,00016,001,2025-11-18_15h57.27.139,MST_test,2024.2.0,59.99052149755911,2025-11-18 15h57.35.418839 +0530,
57,0,58,o,1.1431083000006765,None,58,0,57,226.31470249999984,,,,,,,,,,,,,,,,,,,,,,,,,,,,,,,,,,,,,,,,,,,,,,,,,,226.30057279999983,226.31470249999984,226.82685579999998,226.7990361000002,226.82396549999976,226.82685579999998,226.82685579999998,226.82685579999998,227.98370330000034,Scenes\009a.jpg,post,o,1.1431083000006765,None,,,,,,,,00016,001,2025-11-18_15h57.27.139,MST_test,2024.2.0,59.99052149755911,2025-11-18 15h57.35.418839 +0530,
58,0,59,o,3.1549425000002884,None,59,0,58,227.99778369999967,,,,,,,,,,,,,,,,,,,,,,,,,,,,,,,,,,,,,,,,,,,,,,,,,,227.98414200000025,227.99778369999967,228.50205000000005,228.48250749999988,228.49901469999986,228.50205000000005,228.50205000000005,228.50205000000005,231.6666825000002,Scenes\132a.jpg,post,o,3.1549425000002884,None,,,,,,,,00016,001,2025-11-18_15h57.27.139,MST_test,2024.2.0,59.99052149755911,2025-11-18 15h57.35.418839 +0530,
59,0,60,o,0.8159478999996281,None,60,0,59,231.6812589000001,,,,,,,,,,,,,,,,,,,,,,,,,,,,,,,,,,,,,,,,,,,,,,,,,,231.6670478999995,231.6812589000001,232.18539189999956,232.1660810000003,232.18244090000007,232.18539189999956,232.18539189999956,232.18539189999956,233.01692900000035,Objects\040a.jpg,mid,o,0.8159478999996281,None,,,,,,,,00016,001,2025-11-18_15h57.27.139,MST_test,2024.2.0,59.99052149755911,2025-11-18 15h57.35.418839 +0530,
60,0,61,o,0.8748729999997522,None,61,0,60,233.03121360000023,,,,,,,,,,,,,,,,,,,,,,,,,,,,,,,,,,,,,,,,,,,,,,,,,,233.01727800000026,233.03121360000023,233.54225169999972,233.51571760000024,233.53933039999993,233.54225169999972,233.54225169999972,233.54225169999972,234.43256629999996,Scenes\005a.jpg,pre,o,0.8748729999997522,None,,,,,,,,00016,001,2025-11-18_15h57.27.139,MST_test,2024.2.0,59.99052149755911,2025-11-18 15h57.35.418839 +0530,
61,0,62,n,4.665080300000227,None,62,0,61,234.44776029999957,,,,,,,,,,,,,,,,,,,,,,,,,,,,,,,,,,,,,,,,,,,,,,,,,,234.4327856,234.44776029999957,234.95230269999956,234.93277620000026,234.94960360000005,234.95230269999956,234.95230269999956,234.95230269999956,239.63386360000004,Foils\scenes30.jpg,none,n,4.665080300000227,None,,,,,,,,00016,001,2025-11-18_15h57.27.139,MST_test,2024.2.0,59.99052149755911,2025-11-18 15h57.35.418839 +0530,
62,0,63,o,1.2354430000004868,None,63,0,62,239.6476574999997,,,,,,,,,,,,,,,,,,,,,,,,,,,,,,,,,,,,,,,,,,,,,,,,,,239.63413370000035,239.6476574999997,240.14964640000017,240.1324851999998,240.14705669999967,240.14964640000017,240.14964640000017,240.14964640000017,241.4003302000001,Objects\098a.jpg,post,o,1.2354430000004868,None,,,,,,,,00016,001,2025-11-18_15h57.27.139,MST_test,2024.2.0,59.99052149755911,2025-11-18 15h57.35.418839 +0530,
63,0,64,o,1.929482900000039,None,64,0,63,241.41468900000018,,,,,,,,,,,,,,,,,,,,,,,,,,,,,,,,,,,,,,,,,,,,,,,,,,241.40070490000016,241.41468900000018,241.91942899999958,241.89938110000003,241.9169912999996,241.91942899999958,241.91942899999958,241.91942899999958,243.8508836000001,Objects\117b.jpg,pre,o,1.929482900000039,None,,,,,,,,00016,001,2025-11-18_15h57.27.139,MST_test,2024.2.0,59.99052149755911,2025-11-18 15h57.35.418839 +0530,
64,0,65,o,2.8551191999995353,None,65,0,64,243.86454979999962,,,,,,,,,,,,,,,,,,,,,,,,,,,,,,,,,,,,,,,,,,,,,,,,,,243.85128129999975,243.86454979999962,244.36982699999953,244.34927119999975,244.36746930000027,244.36982699999953,244.36982699999953,244.36982699999953,247.23362050000014,Objects\170b.jpg,post,o,2.8551191999995353,None,,,,,,,,00016,001,2025-11-18_15h57.27.139,MST_test,2024.2.0,59.99052149755911,2025-11-18 15h57.35.418839 +0530,
65,0,66,o,0.7966746000001876,None,66,0,65,247.24780889999965,,,,,,,,,,,,,,,,,,,,,,,,,,,,,,,,,,,,,,,,,,,,,,,,,,247.2340710999997,247.24780889999965,247.74879359999977,247.73243060000004,247.74639200000001,247.74879359999977,247.74879359999977,247.74879359999977,248.55050159999973,Objects\016a.jpg,mid,o,0.7966746000001876,None,,,,,,,,00016,001,2025-11-18_15h57.27.139,MST_test,2024.2.0,59.99052149755911,2025-11-18 15h57.35.418839 +0530,
66,0,67,n,3.6633381999999983,None,67,0,66,248.5647068999997,,,,,,,,,,,,,,,,,,,,,,,,,,,,,,,,,,,,,,,,,,,,,,,,,,248.55088820000037,248.5647068999997,249.06597839999995,249.04901840000002,249.06365449999976,249.06597839999995,249.06597839999995,249.06597839999995,252.73337470000024,Foils\082a.jpg,none,n,3.6633381999999983,None,,,,,,,,00016,001,2025-11-18_15h57.27.139,MST_test,2024.2.0,59.99052149755911,2025-11-18 15h57.35.418839 +0530,
67,0,68,o,0.7814937000002828,None,68,0,67,252.7477769999996,,,,,,,,,,,,,,,,,,,,,,,,,,,,,,,,,,,,,,,,,,,,,,,,,,252.73374499999954,252.7477769999996,253.25206340000022,253.23231729999952,253.24920089999978,253.25206340000022,253.25206340000022,253.25206340000022,254.05020849999983,Scenes\033b.jpg,post,o,0.7814937000002828,None,,,,,,,,00016,001,2025-11-18_15h57.27.139,MST_test,2024.2.0,59.99052149755911,2025-11-18 15h57.35.418839 +0530,
68,0,69,o,1.720350999999937,None,69,0,68,254.06456739999976,,,,,,,,,,,,,,,,,,,,,,,,,,,,,,,,,,,,,,,,,,,,,,,,,,254.05054889999974,254.06456739999976,254.5767794000003,254.54878329999974,254.5739795999998,254.5767794000003,254.5767794000003,254.5767794000003,256.30094159999953,Scenes\174a.jpg,mid,o,1.720350999999937,None,,,,,,,,00016,001,2025-11-18_15h57.27.139,MST_test,2024.2.0,59.99052149755911,2025-11-18 15h57.35.418839 +0530,
69,0,70,o,1.5294795999998314,None,70,0,69,256.31470830000035,,,,,,,,,,,,,,,,,,,,,,,,,,,,,,,,,,,,,,,,,,,,,,,,,,256.3013887999996,256.31470830000035,256.82351709999966,256.79917229999955,256.8205578999996,256.82351709999966,256.82351709999966,256.82351709999966,258.3670933000003,Scenes\035a.jpg,mid,o,1.5294795999998314,None,,,,,,,,00016,001,2025-11-18_15h57.27.139,MST_test,2024.2.0,59.99052149755911,2025-11-18 15h57.35.418839 +0530,
70,0,71,n,2.450551400000222,None,71,0,70,258.3813957000002,,,,,,,,,,,,,,,,,,,,,,,,,,,,,,,,,,,,,,,,,,,,,,,,,,258.3674265999998,258.3813957000002,258.8864113999998,258.86592070000006,258.88348979999955,258.8864113999998,258.8864113999998,258.8864113999998,261.3505146999996,Foils\scenes6.jpg,none,n,2.450551400000222,None,,,,,,,,00016,001,2025-11-18_15h57.27.139,MST_test,2024.2.0,59.99052149755911,2025-11-18 15h57.35.418839 +0530,
71,0,72,o,1.883703599999535,None,72,0,71,261.3646676999997,,,,,,,,,,,,,,,,,,,,,,,,,,,,,,,,,,,,,,,,,,,,,,,,,,261.35096989999965,261.3646676999997,261.8692038999998,261.84923549999985,261.8666317999996,261.8692038999998,261.8692038999998,261.8692038999998,263.7669855000004,Objects\099b.jpg,post,o,1.883703599999535,None,,,,,,,,00016,001,2025-11-18_15h57.27.139,MST_test,2024.2.0,59.99052149755911,2025-11-18 15h57.35.418839 +0530,
72,0,73,n,4.916787099999965,None,73,0,72,263.7813937000001,,,,,,,,,,,,,,,,,,,,,,,,,,,,,,,,,,,,,,,,,,,,,,,,,,263.7674119000003,263.7813937000001,264.2841476000003,264.26603650000015,264.2813587999999,264.2841476000003,264.2841476000003,264.2841476000003,269.2172407999997,Foils\scenes20.jpg,none,n,4.916787099999965,None,,,,,,,,00016,001,2025-11-18_15h57.27.139,MST_test,2024.2.0,59.99052149755911,2025-11-18 15h57.35.418839 +0530,
73,0,74,s,1.8447415999999066,None,74,0,73,269.2314378000001,,,,,,,,,,,,,,,,,,,,,,,,,,,,,,,,,,,,,,,,,,,,,,,,,,269.21763050000027,269.2314378000001,269.7409539999999,269.71587029999955,269.7381171999996,269.7409539999999,269.7409539999999,269.7409539999999,271.60071549999975,Scenes\013a.jpg,mid,s,1.8447415999999066,None,,,,,,,,00016,001,2025-11-18_15h57.27.139,MST_test,2024.2.0,59.99052149755911,2025-11-18 15h57.35.418839 +0530,
74,0,75,n,1.1532004000000597,None,75,0,74,271.61479880000024,,,,,,,,,,,,,,,,,,,,,,,,,,,,,,,,,,,,,,,,,,,,,,,,,,271.6011189000001,271.61479880000024,272.12014029999955,272.09926749999977,272.1170804000003,272.12014029999955,272.12014029999955,272.12014029999955,273.2835948000002,Foils\018a.jpg,none,n,1.1532004000000597,None,,,,,,,,00016,001,2025-11-18_15h57.27.139,MST_test,2024.2.0,59.99052149755911,2025-11-18 15h57.35.418839 +0530,
75,0,76,s,1.3751328999996986,None,76,0,75,273.29794330000004,,,,,,,,,,,,,,,,,,,,,,,,,,,,,,,,,,,,,,,,,,,,,,,,,,273.28393719999985,273.29794330000004,273.8020542000004,273.7824664,273.79960089999986,273.8020542000004,273.8020542000004,273.8020542000004,275.1838828,Objects\108b.jpg,post,s,1.3751328999996986,None,,,,,,,,00016,001,2025-11-18_15h57.27.139,MST_test,2024.2.0,59.99052149755911,2025-11-18 15h57.35.418839 +0530,
76,0,77,s,0.8997872999998435,None,77,0,76,275.19791449999957,,,,,,,,,,,,,,,,,,,,,,,,,,,,,,,,,,,,,,,,,,,,,,,,,,275.1842483999999,275.19791449999957,275.7012144,275.6825778000002,275.69868080000015,275.7012144,275.7012144,275.7012144,276.6170130999999,Objects\071b.jpg,pre,s,0.8997872999998435,None,,,,,,,,00016,001,2025-11-18_15h57.27.139,MST_test,2024.2.0,59.99052149755911,2025-11-18 15h57.35.418839 +0530,
77,0,78,o,1.0964340999998967,None,78,0,77,276.63151039999957,,,,,,,,,,,,,,,,,,,,,,,,,,,,,,,,,,,,,,,,,,,,,,,,,,276.6173367000001,276.63151039999957,277.1370541999995,277.11617449999994,277.13413409999976,277.1370541999995,277.1370541999995,277.1370541999995,278.2504726999996,Objects\111a.jpg,mid,o,1.0964340999998967,None,,,,,,,,00016,001,2025-11-18_15h57.27.139,MST_test,2024.2.0,59.99052149755911,2025-11-18 15h57.35.418839 +0530,
78,0,79,o,1.3807258000006186,None,79,0,78,278.2648772000002,,,,,,,,,,,,,,,,,,,,,,,,,,,,,,,,,,,,,,,,,,,,,,,,,,278.2507821999998,278.2648772000002,278.76479279999967,278.7492468999999,278.76214640000035,278.76479279999967,278.76479279999967,278.76479279999967,280.15035530000023,Objects\067a.jpg,post,o,1.3807258000006186,None,,,,,,,,00016,001,2025-11-18_15h57.27.139,MST_test,2024.2.0,59.99052149755911,2025-11-18 15h57.35.418839 +0530,
79,0,80,s,1.0114944999995714,None,80,0,79,280.1647001000001,,,,,,,,,,,,,,,,,,,,,,,,,,,,,,,,,,,,,,,,,,,,,,,,,,280.1507826999996,280.1647001000001,280.67768179999985,280.64880919999996,280.6746981999995,280.67768179999985,280.67768179999985,280.67768179999985,281.70024120000016,Scenes\189b.jpg,post,s,1.0114944999995714,None,,,,,,,,00016,001,2025-11-18_15h57.27.139,MST_test,2024.2.0,59.99052149755911,2025-11-18 15h57.35.418839 +0530,
80,0,81,s,1.0919635000000198,None,81,0,80,281.71473630000037,,,,,,,,,,,,,,,,,,,,,,,,,,,,,,,,,,,,,,,,,,,,,,,,,,281.70062469999993,281.71473630000037,282.22176260000015,282.1990866999995,282.21865119999984,282.22176260000015,282.22176260000015,282.22176260000015,283.31701710000016,Scenes\123b.jpg,post,s,1.0919635000000198,None,,,,,,,,00016,001,2025-11-18_15h57.27.139,MST_test,2024.2.0,59.99052149755911,2025-11-18 15h57.35.418839 +0530,
81,0,82,o,1.1066131999996287,None,82,0,81,283.33140449999973,,,,,,,,,,,,,,,,,,,,,,,,,,,,,,,,,,,,,,,,,,,,,,,,,,283.31734510000024,283.33140449999973,283.8391437,283.8159599999999,283.8360210999999,283.8391437,283.8391437,283.8391437,284.95056829999976,Scenes\074a.jpg,post,o,1.1066131999996287,None,,,,,,,,00016,001,2025-11-18_15h57.27.139,MST_test,2024.2.0,59.99052149755911,2025-11-18 15h57.35.418839 +0530,
82,0,83,o,1.0277009000001271,None,83,0,82,284.96481849999964,,,,,,,,,,,,,,,,,,,,,,,,,,,,,,,,,,,,,,,,,,,,,,,,,,284.9509396000003,284.96481849999964,285.4776549999997,285.4489969999995,285.47515850000036,285.4776549999997,285.4776549999997,285.4776549999997,286.51702810000006,Scenes\170a.jpg,post,o,1.0277009000001271,None,,,,,,,,00016,001,2025-11-18_15h57.27.139,MST_test,2024.2.0,59.99052149755911,2025-11-18 15h57.35.418839 +0530,
83,0,84,n,0.8364854000001287,None,84,0,83,286.5313563999998,,,,,,,,,,,,,,,,,,,,,,,,,,,,,,,,,,,,,,,,,,,,,,,,,,286.51737140000023,286.5313563999998,287.03698600000007,287.0158438999997,287.03394109999954,287.03698600000007,287.03698600000007,287.03698600000007,287.8838870999998,Foils\106a.jpg,none,n,0.8364854000001287,None,,,,,,,,00016,001,2025-11-18_15h57.27.139,MST_test,2024.2.0,59.99052149755911,2025-11-18 15h57.35.418839 +0530,
84,0,85,o,1.1424216999994314,None,85,0,84,287.8980716999995,,,,,,,,,,,,,,,,,,,,,,,,,,,,,,,,,,,,,,,,,,,,,,,,,,287.88415150000037,287.8980716999995,288.40325680000024,288.3822729000003,288.4009285000002,288.40325680000024,288.40325680000024,288.40325680000024,289.5503751999995,Objects\161b.jpg,pre,o,1.1424216999994314,None,,,,,,,,00016,001,2025-11-18_15h57.27.139,MST_test,2024.2.0,59.99052149755911,2025-11-18 15h57.35.418839 +0530,
85,0,86,o,0.9997849000001224,None,86,0,85,289.56472419999955,,,,,,,,,,,,,,,,,,,,,,,,,,,,,,,,,,,,,,,,,,,,,,,,,,289.55077900000015,289.56472419999955,290.0657798000002,290.04912779999995,290.06337520000034,290.0657798000002,290.0657798000002,290.0657798000002,291.06804939999984,Objects\075a.jpg,pre,o,0.9997849000001224,None,,,,,,,,00016,001,2025-11-18_15h57.27.139,MST_test,2024.2.0,59.99052149755911,2025-11-18 15h57.35.418839 +0530,
86,0,87,o,1.1704329999993206,None,87,0,86,291.08140079999976,,,,,,,,,,,,,,,,,,,,,,,,,,,,,,,,,,,,,,,,,,,,,,,,,,291.0683989999998,291.08140079999976,291.5836268000003,291.5660120000002,291.58115220000036,291.5836268000003,291.5836268000003,291.5836268000003,292.7664001000003,Objects\078a.jpg,pre,o,1.1704329999993206,None,,,,,,,,00016,001,2025-11-18_15h57.27.139,MST_test,2024.2.0,59.99052149755911,2025-11-18 15h57.35.418839 +0530,
87,0,88,o,0.9238389999991341,None,88,0,87,292.7813907,,,,,,,,,,,,,,,,,,,,,,,,,,,,,,,,,,,,,,,,,,,,,,,,,,292.7667201000004,292.7813907,293.2938666,293.2659119,293.29090389999965,293.2938666,293.2938666,293.2938666,294.2328631999999,Scenes\020a.jpg,mid,o,0.9238389999991341,None,,,,,,,,00016,001,2025-11-18_15h57.27.139,MST_test,2024.2.0,59.99052149755911,2025-11-18 15h57.35.418839 +0530,
88,0,89,o,0.9425615000000107,None,89,0,88,294.2477823999998,,,,,,,,,,,,,,,,,,,,,,,,,,,,,,,,,,,,,,,,,,,,,,,,,,294.23311749999993,294.2477823999998,294.7548644999997,294.73252030000003,294.75181989999965,294.7548644999997,294.7548644999997,294.7548644999997,295.7002429000004,Objects\130a.jpg,pre,o,0.9425615000000107,None,,,,,,,,00016,001,2025-11-18_15h57.27.139,MST_test,2024.2.0,59.99052149755911,2025-11-18 15h57.35.418839 +0530,
89,0,90,o,1.3939745999996376,None,90,0,89,295.7147984000003,,,,,,,,,,,,,,,,,,,,,,,,,,,,,,,,,,,,,,,,,,,,,,,,,,295.70067199999994,295.7147984000003,296.2228359999999,296.19904620000034,296.2198421000003,296.2228359999999,296.2228359999999,296.2228359999999,297.6325439000002,Scenes\138a.jpg,pre,o,1.3939745999996376,None,,,,,,,,00016,001,2025-11-18_15h57.27.139,MST_test,2024.2.0,59.99052149755911,2025-11-18 15h57.35.418839 +0530,
90,0,91,s,1.519723100000192,None,91,0,90,297.6476541000002,,,,,,,,,,,,,,,,,,,,,,,,,,,,,,,,,,,,,,,,,,,,,,,,,,297.6327462999998,297.6476541000002,298.1531431000003,298.1323763999999,298.15030079999997,298.1531431000003,298.1531431000003,298.1531431000003,299.6826659999997,Objects\089b.jpg,pre,s,1.519723100000192,None,,,,,,,,00016,001,2025-11-18_15h57.27.139,MST_test,2024.2.0,59.99052149755911,2025-11-18 15h57.35.418839 +0530,
91,0,92,s,1.0758032999992793,None,92,0,91,299.69793519999985,,,,,,,,,,,,,,,,,,,,,,,,,,,,,,,,,,,,,,,,,,,,,,,,,,299.68292889999975,299.69793519999985,300.20519220000006,300.1825109000001,300.2022218000002,300.20519220000006,300.20519220000006,300.20519220000006,301.2838277000001,Scenes\069b.jpg,post,s,1.0758032999992793,None,,,,,,,,00016,001,2025-11-18_15h57.27.139,MST_test,2024.2.0,59.99052149755911,2025-11-18 15h57.35.418839 +0530,
92,0,93,o,1.1619075000007797,None,93,0,92,301.2979658000004,,,,,,,,,,,,,,,,,,,,,,,,,,,,,,,,,,,,,,,,,,,,,,,,,,301.2841609999996,301.2979658000004,301.80742120000014,301.78249510000023,301.8044971999998,301.80742120000014,301.80742120000014,301.80742120000014,302.98389700000007,Foils\scenes2.jpg,none,o,1.1619075000007797,None,,,,,,,,00016,001,2025-11-18_15h57.27.139,MST_test,2024.2.0,59.99052149755911,2025-11-18 15h57.35.418839 +0530,
93,0,94,o,2.0955426000000443,None,94,0,93,302.9977971999997,,,,,,,,,,,,,,,,,,,,,,,,,,,,,,,,,,,,,,,,,,,,,,,,,,302.98428499999955,302.9977971999997,303.4985508999998,303.4823391,303.4961102999996,303.4985508999998,303.4985508999998,303.4985508999998,305.6001260000003,Objects\143a.jpg,post,o,2.0955426000000443,None,,,,,,,,00016,001,2025-11-18_15h57.27.139,MST_test,2024.2.0,59.99052149755911,2025-11-18 15h57.35.418839 +0530,
94,0,95,n,0.9698799999996481,None,95,0,94,305.6146190999998,,,,,,,,,,,,,,,,,,,,,,,,,,,,,,,,,,,,,,,,,,,,,,,,,,305.60047870000017,305.6146190999998,306.1192586999996,306.09881680000035,306.1169582000002,306.1192586999996,306.1192586999996,306.1192586999996,307.1003383999996,Foils\073a.jpg,none,n,0.9698799999996481,None,,,,,,,,00016,001,2025-11-18_15h57.27.139,MST_test,2024.2.0,59.99052149755911,2025-11-18 15h57.35.418839 +0530,
95,0,96,n,1.1206685000006473,None,96,0,95,307.11461599999984,,,,,,,,,,,,,,,,,,,,,,,,,,,,,,,,,,,,,,,,,,,,,,,,,,307.1006989999996,307.11461599999984,307.6163740000002,307.59912989999975,307.6136970999996,307.6163740000002,307.6163740000002,307.6163740000002,308.74941539999963,Foils\scenes13.jpg,none,n,1.1206685000006473,None,,,,,,,,00016,001,2025-11-18_15h57.27.139,MST_test,2024.2.0,59.99052149755911,2025-11-18 15h57.35.418839 +0530,
96,0,97,n,1.006313500000033,None,97,0,96,308.7645671999999,,,,,,,,,,,,,,,,,,,,,,,,,,,,,,,,,,,,,,,,,,,,,,,,,,308.7496898999998,308.7645671999999,309.2669345000004,309.24910610000006,309.26456880000023,309.2669345000004,309.2669345000004,309.2669345000004,310.28307049999967,Foils\scenes5.jpg,none,n,1.006313500000033,None,,,,,,,,00016,001,2025-11-18_15h57.27.139,MST_test,2024.2.0,59.99052149755911,2025-11-18 15h57.35.418839 +0530,
97,0,98,o,1.1967109999995955,None,98,0,97,310.29776609999954,,,,,,,,,,,,,,,,,,,,,,,,,,,,,,,,,,,,,,,,,,,,,,,,,,310.2834493999999,310.29776609999954,310.80437749999965,310.78261610000027,310.80151769999975,310.80437749999965,310.80437749999965,310.80437749999965,312.0167868999997,Scenes\101a.jpg,pre,o,1.1967109999995955,None,,,,,,,,00016,001,2025-11-18_15h57.27.139,MST_test,2024.2.0,59.99052149755911,2025-11-18 15h57.35.418839 +0530,
98,0,99,o,0.7002766000005067,None,99,0,98,312.0312262999996,,,,,,,,,,,,,,,,,,,,,,,,,,,,,,,,,,,,,,,,,,,,,,,,,,312.0171357999998,312.0312262999996,312.54130499999974,312.5157180999995,312.53839270000026,312.54130499999974,312.54130499999974,312.54130499999974,313.2506811000003,Scenes\067b.jpg,mid,o,0.7002766000005067,None,,,,,,,,00016,001,2025-11-18_15h57.27.139,MST_test,2024.2.0,59.99052149755911,2025-11-18 15h57.35.418839 +0530,
99,0,100,o,0.697400999999445,None,100,0,99,313.2645394000001,,,,,,,,,,,,,,,,,,,,,,,,,,,,,,,,,,,,,,,,,,,,,,,,,,313.2510228000001,313.2645394000001,313.7678070000002,313.7489380999996,313.7650477999996,313.7678070000002,313.7678070000002,313.7678070000002,314.4677800999998,Foils\scenes1.jpg,none,o,0.697400999999445,None,,,,,,,,00016,001,2025-11-18_15h57.27.139,MST_test,2024.2.0,59.99052149755911,2025-11-18 15h57.35.418839 +0530,
100,0,101,o,1.29472799999985,None,101,0,100,314.4811897999998,,,,,,,,,,,,,,,,,,,,,,,,,,,,,,,,,,,,,,,,,,,,,,,,,,314.46812469999986,314.4811897999998,314.9863167000003,314.9660409999997,314.9834356000001,314.9863167000003,314.9863167000003,314.9863167000003,316.2838334999997,Objects\187a.jpg,pre,o,1.29472799999985,None,,,,,,,,00016,001,2025-11-18_15h57.27.139,MST_test,2024.2.0,59.99052149755911,2025-11-18 15h57.35.418839 +0530,
101,0,102,o,0.7465544999995473,None,102,0,101,316.2977973999996,,,,,,,,,,,,,,,,,,,,,,,,,,,,,,,,,,,,,,,,,,,,,,,,,,316.2842577000001,316.2977973999996,316.79869750000034,316.7821148000003,316.79645789999995,316.79869750000034,316.79869750000034,316.79869750000034,317.5502366999999,Objects\174a.jpg,post,o,0.7465544999995473,None,,,,,,,,00016,001,2025-11-18_15h57.27.139,MST_test,2024.2.0,59.99052149755911,2025-11-18 15h57.35.418839 +0530,
102,0,103,o,0.9507329999996728,None,103,0,102,317.5645975999996,,,,,,,,,,,,,,,,,,,,,,,,,,,,,,,,,,,,,,,,,,,,,,,,,,317.5506201999997,317.5645975999996,318.0749509999996,318.04902260000017,318.07193449999977,318.0749509999996,318.0749509999996,318.0749509999996,319.0332456999995,Scenes\114a.jpg,mid,o,0.9507329999996728,None,,,,,,,,00016,001,2025-11-18_15h57.27.139,MST_test,2024.2.0,59.99052149755911,2025-11-18 15h57.35.418839 +0530,
103,0,104,s,1.6197057999997924,None,104,0,103,319.0479501,,,,,,,,,,,,,,,,,,,,,,,,,,,,,,,,,,,,,,,,,,,,,,,,,,319.0335384,319.0479501,319.5580288000001,319.5325294000004,319.5548189000001,319.5580288000001,319.5580288000001,319.5580288000001,321.18385320000016,Scenes\119b.jpg,pre,s,1.6197057999997924,None,,,,,,,,00016,001,2025-11-18_15h57.27.139,MST_test,2024.2.0,59.99052149755911,2025-11-18 15h57.35.418839 +0530,
104,0,105,o,1.2325128000002223,None,105,0,104,321.1981334000002,,,,,,,,,,,,,,,,,,,,,,,,,,,,,,,,,,,,,,,,,,,,,,,,,,321.1842306999997,321.1981334000002,321.70488149999983,321.6829367,321.7017446,321.70488149999983,321.70488149999983,321.70488149999983,322.9502013000001,Objects\140b.jpg,pre,o,1.2325128000002223,None,,,,,,,,00016,001,2025-11-18_15h57.27.139,MST_test,2024.2.0,59.99052149755911,2025-11-18 15h57.35.418839 +0530,
105,0,106,n,2.1508076999998593,None,106,0,105,322.96470359999967,,,,,,,,,,,,,,,,,,,,,,,,,,,,,,,,,,,,,,,,,,,,,,,,,,322.9506239000002,322.96470359999967,323.4662497999998,323.4492016000004,323.46338939999987,323.4662497999998,323.4662497999998,323.4662497999998,325.63382509999974,Foils\scenes18.jpg,none,n,2.1508076999998593,None,,,,,,,,00016,001,2025-11-18_15h57.27.139,MST_test,2024.2.0,59.99052149755911,2025-11-18 15h57.35.418839 +0530,
106,0,107,o,0.9980190000005678,None,107,0,106,325.6476296999999,,,,,,,,,,,,,,,,,,,,,,,,,,,,,,,,,,,,,,,,,,,,,,,,,,325.6342160000004,325.6476296999999,326.15572169999996,326.1324687999995,326.1531163999998,326.15572169999996,326.15572169999996,326.15572169999996,327.1667368999997,Objects\093b.jpg,pre,o,0.9980190000005678,None,,,,,,,,00016,001,2025-11-18_15h57.27.139,MST_test,2024.2.0,59.99052149755911,2025-11-18 15h57.35.418839 +0530,
107,0,108,n,1.6985052999998516,None,108,0,107,327.1812688,,,,,,,,,,,,,,,,,,,,,,,,,,,,,,,,,,,,,,,,,,,,,,,,,,327.1670258000004,327.1812688,327.6952073000002,327.6659023000002,327.6919551000001,327.6952073000002,327.6952073000002,327.6952073000002,329.4006615999997,Foils\scenes28.jpg,none,n,1.6985052999998516,None,,,,,,,,00016,001,2025-11-18_15h57.27.139,MST_test,2024.2.0,59.99052149755911,2025-11-18 15h57.35.418839 +0530,
108,0,109,n,3.1881100000000515,None,109,0,108,329.4145873999996,,,,,,,,,,,,,,,,,,,,,,,,,,,,,,,,,,,,,,,,,,,,,,,,,,329.4010414000004,329.4145873999996,329.9253472999999,329.8992766000001,329.9217384000003,329.9253472999999,329.9253472999999,329.9253472999999,333.11678159999974,Scenes\184b.jpg,pre,n,3.1881100000000515,None,,,,,,,,00016,001,2025-11-18_15h57.27.139,MST_test,2024.2.0,59.99052149755911,2025-11-18 15h57.35.418839 +0530,
109,0,110,s,1.4922381999995196,None,110,0,109,333.1312661000002,,,,,,,,,,,,,,,,,,,,,,,,,,,,,,,,,,,,,,,,,,,,,,,,,,333.1170871000004,333.1312661000002,333.63781279999967,333.6160871000002,333.6348876000002,333.63781279999967,333.63781279999967,333.63781279999967,335.13368420000006,Scenes\160b.jpg,pre,s,1.4922381999995196,None,,,,,,,,00016,001,2025-11-18_15h57.27.139,MST_test,2024.2.0,59.99052149755911,2025-11-18 15h57.35.418839 +0530,
110,0,111,s,2.8304252999996606,None,111,0,110,335.14782709999963,,,,,,,,,,,,,,,,,,,,,,,,,,,,,,,,,,,,,,,,,,,,,,,,,,335.13398849999976,335.14782709999963,335.6512365999997,335.6323394000001,335.6482630999999,335.6512365999997,335.6512365999997,335.6512365999997,338.48320369999965,Objects\027b.jpg,pre,s,2.8304252999996606,None,,,,,,,,00016,001,2025-11-18_15h57.27.139,MST_test,2024.2.0,59.99052149755911,2025-11-18 15h57.35.418839 +0530,
111,0,112,n,3.1517448999993576,None,112,0,111,338.4977487999995,,,,,,,,,,,,,,,,,,,,,,,,,,,,,,,,,,,,,,,,,,,,,,,,,,338.48344610000004,338.4977487999995,339.00170479999997,338.9824628999995,338.99922760000027,339.00170479999997,339.00170479999997,339.00170479999997,342.16701699999976,Foils\020b.jpg,none,n,3.1517448999993576,None,,,,,,,,00016,001,2025-11-18_15h57.27.139,MST_test,2024.2.0,59.99052149755911,2025-11-18 15h57.35.418839 +0530,
112,0,113,o,2.6736817000000883,None,113,0,112,342.1812501000004,,,,,,,,,,,,,,,,,,,,,,,,,,,,,,,,,,,,,,,,,,,,,,,,,,342.16738199999963,342.1812501000004,342.68776009999965,342.66566150000017,342.68501240000023,342.68776009999965,342.68776009999965,342.68776009999965,345.36674700000003,Scenes\036b.jpg,post,o,2.6736817000000883,None,,,,,,,,00016,001,2025-11-18_15h57.27.139,MST_test,2024.2.0,59.99052149755911,2025-11-18 15h57.35.418839 +0530,
113,0,114,o,0.7654390999996394,None,114,0,113,345.38123429999996,,,,,,,,,,,,,,,,,,,,,,,,,,,,,,,,,,,,,,,,,,,,,,,,,,345.36704759999975,345.38123429999996,345.8839803999999,345.8658077,345.8810688000003,345.8839803999999,345.8839803999999,345.8839803999999,346.6660713000001,Objects\003a.jpg,post,o,0.7654390999996394,None,,,,,,,,00016,001,2025-11-18_15h57.27.139,MST_test,2024.2.0,59.99052149755911,2025-11-18 15h57.35.418839 +0530,
114,0,115,o,0.645897800000057,None,115,0,114,346.6813266999998,,,,,,,,,,,,,,,,,,,,,,,,,,,,,,,,,,,,,,,,,,,,,,,,,,346.6663488000004,346.6813266999998,347.1951135999998,347.1657906999999,347.1921626000003,347.1951135999998,347.1951135999998,347.1951135999998,347.8503045999996,Scenes\043a.jpg,post,o,0.645897800000057,None,,,,,,,,00016,001,2025-11-18_15h57.27.139,MST_test,2024.2.0,59.99052149755911,2025-11-18 15h57.35.418839 +0530,
115,0,116,s,1.3994431999999506,None,116,0,115,347.8645919999999,,,,,,,,,,,,,,,,,,,,,,,,,,,,,,,,,,,,,,,,,,,,,,,,,,347.85064109999985,347.8645919999999,348.37007619999986,348.34896130000016,348.36713320000035,348.37007619999986,348.37007619999986,348.37007619999986,349.78372020000006,Foils\105a.jpg,none,s,1.3994431999999506,None,,,,,,,,00016,001,2025-11-18_15h57.27.139,MST_test,2024.2.0,59.99052149755911,2025-11-18 15h57.35.418839 +0530,
116,0,117,o,1.1831325000002835,None,117,0,116,349.7978184000003,,,,,,,,,,,,,,,,,,,,,,,,,,,,,,,,,,,,,,,,,,,,,,,,,,349.7840865999997,349.7978184000003,350.29842780000035,350.28225399999974,350.29592159999993,350.29842780000035,350.29842780000035,350.29842780000035,351.4836148000004,Objects\044a.jpg,mid,o,1.1831325000002835,None,,,,,,,,00016,001,2025-11-18_15h57.27.139,MST_test,2024.2.0,59.99052149755911,2025-11-18 15h57.35.418839 +0530,
117,0,118,s,1.2689114999993762,None,118,0,117,351.49785710000015,,,,,,,,,,,,,,,,,,,,,,,,,,,,,,,,,,,,,,,,,,,,,,,,,,351.4839476999996,351.49785710000015,352.0047819000001,351.9823858999998,352.00241949999963,352.0047819000001,352.0047819000001,352.0047819000001,353.2830272000001,Objects\083b.jpg,mid,s,1.2689114999993762,None,,,,,,,,00016,001,2025-11-18_15h57.27.139,MST_test,2024.2.0,59.99052149755911,2025-11-18 15h57.35.418839 +0530,
118,0,119,n,2.4086317999999665,None,119,0,118,353.2977662000003,,,,,,,,,,,,,,,,,,,,,,,,,,,,,,,,,,,,,,,,,,,,,,,,,,353.28336539999964,353.2977662000003,353.80047170000034,353.78233360000013,353.79788610000014,353.80047170000034,353.80047170000034,353.80047170000034,356.2173118999999,Foils\scenes29.jpg,none,n,2.4086317999999665,None,,,,,,,,00016,001,2025-11-18_15h57.27.139,MST_test,2024.2.0,59.99052149755911,2025-11-18 15h57.35.418839 +0530,
119,0,120,o,1.0755925000003117,None,120,0,119,356.23145420000037,,,,,,,,,,,,,,,,,,,,,,,,,,,,,,,,,,,,,,,,,,,,,,,,,,356.21768489999977,356.23145420000037,356.7341022999999,356.71556150000015,356.7314617000002,356.7341022999999,356.7341022999999,356.7341022999999,357.8170237000004,Objects\053a.jpg,post,o,1.0755925000003117,None,,,,,,,,00016,001,2025-11-18_15h57.27.139,MST_test,2024.2.0,59.99052149755911,2025-11-18 15h57.35.418839 +0530,
120,0,121,s,1.5562973999994938,None,121,0,120,357.83124580000003,,,,,,,,,,,,,,,,,,,,,,,,,,,,,,,,,,,,,,,,,,,,,,,,,,357.81735599999956,357.83124580000003,358.34133329999986,358.3156321999995,358.3384949000001,358.34133329999986,358.34133329999986,358.34133329999986,359.9004152999996,Scenes\075b.jpg,mid,s,1.5562973999994938,None,,,,,,,,00016,001,2025-11-18_15h57.27.139,MST_test,2024.2.0,59.99052149755911,2025-11-18 15h57.35.418839 +0530,
121,0,122,o,2.401414700000714,None,122,0,121,359.9147648999997,,,,,,,,,,,,,,,,,,,,,,,,,,,,,,,,,,,,,,,,,,,,,,,,,,359.9008426999999,359.9147648999997,360.4161955999998,360.3989295000001,360.41317590000017,360.4161955999998,360.4161955999998,360.4161955999998,362.8336498999997,Objects\138a.jpg,post,o,2.401414700000714,None,,,,,,,,00016,001,2025-11-18_15h57.27.139,MST_test,2024.2.0,59.99052149755911,2025-11-18 15h57.35.418839 +0530,
122,0,123,o,3.114484800000355,None,123,0,122,362.84798279999995,,,,,,,,,,,,,,,,,,,,,,,,,,,,,,,,,,,,,,,,,,,,,,,,,,362.8340548999995,362.84798279999995,363.3586266000002,363.3325864999997,363.35570800000005,363.3586266000002,363.3586266000002,363.3586266000002,366.48383449999983,Scenes\108b.jpg,mid,o,3.114484800000355,None,,,,,,,,00016,001,2025-11-18_15h57.27.139,MST_test,2024.2.0,59.99052149755911,2025-11-18 15h57.35.418839 +0530,
123,0,124,o,1.5186034999996991,None,124,0,123,366.4977348000002,,,,,,,,,,,,,,,,,,,,,,,,,,,,,,,,,,,,,,,,,,,,,,,,,,366.48418539999966,366.4977348000002,367.0030445000002,366.98213510000005,367.0001264000002,367.0030445000002,367.0030445000002,367.0030445000002,368.5338308999999,Objects\165b.jpg,pre,o,1.5186034999996991,None,,,,,,,,00016,001,2025-11-18_15h57.27.139,MST_test,2024.2.0,59.99052149755911,2025-11-18 15h57.35.418839 +0530,
124,0,125,s,2.197809500000403,None,125,0,124,368.54788720000033,,,,,,,,,,,,,,,,,,,,,,,,,,,,,,,,,,,,,,,,,,,,,,,,,,368.53424540000015,368.54788720000033,369.0519180000001,369.0323064000004,369.04957860000013,369.0519180000001,369.0519180000001,369.0519180000001,371.26656269999967,Foils\042a.jpg,none,s,2.197809500000403,None,,,,,,,,00016,001,2025-11-18_15h57.27.139,MST_test,2024.2.0,59.99052149755911,2025-11-18 15h57.35.418839 +0530,
125,0,126,o,1.7697854999996707,None,126,0,125,371.28125,,,,,,,,,,,,,,,,,,,,,,,,,,,,,,,,,,,,,,,,,,,,,,,,,,371.2668249999997,371.28125,371.78451609999956,371.7657687000001,371.7822931999999,371.78451609999956,371.78451609999956,371.78451609999956,373.5667720000001,Objects\148b.jpg,pre,o,1.7697854999996707,None,,,,,,,,00016,001,2025-11-18_15h57.27.139,MST_test,2024.2.0,59.99052149755911,2025-11-18 15h57.35.418839 +0530,
126,0,127,s,1.593036299999767,None,127,0,126,373.5814795999995,,,,,,,,,,,,,,,,,,,,,,,,,,,,,,,,,,,,,,,,,,,,,,,,,,373.5671747999995,373.5814795999995,374.08907629999976,374.0659220999996,374.0861195999996,374.08907629999976,374.08907629999976,374.08907629999976,375.6840737000002,Scenes\087b.jpg,post,s,1.593036299999767,None,,,,,,,,00016,001,2025-11-18_15h57.27.139,MST_test,2024.2.0,59.99052149755911,2025-11-18 15h57.35.418839 +0530,
127,0,128,s,4.400909500000125,None,128,0,127,375.69776399999955,,,,,,,,,,,,,,,,,,,,,,,,,,,,,,,,,,,,,,,,,,,,,,,,,,375.6844167999998,375.69776399999955,376.2001887999995,376.1827401999999,376.19733579999956,376.2001887999995,376.2001887999995,376.2001887999995,380.6171642999998,Objects\142a.jpg,mid,s,4.400909500000125,None,,,,,,,,00016,001,2025-11-18_15h57.27.139,MST_test,2024.2.0,59.99052149755911,2025-11-18 15h57.35.418839 +0530,
128,0,129,s,0.7086298000003808,None,129,0,128,380.6314762000002,,,,,,,,,,,,,,,,,,,,,,,,,,,,,,,,,,,,,,,,,,,,,,,,,,380.61757099999977,380.6314762000002,381.13336809999964,381.1159340000004,381.1308627999997,381.13336809999964,381.13336809999964,381.13336809999964,381.85034300000007,Objects\115a.jpg,mid,s,0.7086298000003808,None,,,,,,,,00016,001,2025-11-18_15h57.27.139,MST_test,2024.2.0,59.99052149755911,2025-11-18 15h57.35.418839 +0530,
129,0,130,o,1.2716215999998894,None,130,0,129,381.8647267999995,,,,,,,,,,,,,,,,,,,,,,,,,,,,,,,,,,,,,,,,,,,,,,,,,,381.85069440000007,381.8647267999995,382.3775163,382.34934520000024,382.3744784999999,382.3775163,382.3775163,382.3775163,383.6667189,Scenes\065b.jpg,mid,o,1.2716215999998894,None,,,,,,,,00016,001,2025-11-18_15h57.27.139,MST_test,2024.2.0,59.99052149755911,2025-11-18 15h57.35.418839 +0530,
130,0,131,s,1.1989386000004743,None,131,0,130,383.6815709000002,,,,,,,,,,,,,,,,,,,,,,,,,,,,,,,,,,,,,,,,,,,,,,,,,,383.66700579999997,383.6815709000002,384.19442809999964,384.16591530000005,384.19114770000033,384.19442809999964,384.19442809999964,384.19442809999964,385.40034060000016,Scenes\171b.jpg,mid,s,1.1989386000004743,None,,,,,,,,00016,001,2025-11-18_15h57.27.139,MST_test,2024.2.0,59.99052149755911,2025-11-18 15h57.35.418839 +0530,
131,0,132,o,2.0817175000001953,None,132,0,131,385.4148589999995,,,,,,,,,,,,,,,,,,,,,,,,,,,,,,,,,,,,,,,,,,,,,,,,,,385.4007230999996,385.4148589999995,385.91950629999974,385.89915459999975,385.91644859999997,385.91950629999974,385.91950629999974,385.91950629999974,388.01742230000036,Objects\171b.jpg,post,o,2.0817175000001953,None,,,,,,,,00016,001,2025-11-18_15h57.27.139,MST_test,2024.2.0,59.99052149755911,2025-11-18 15h57.35.418839 +0530,
132,0,133,s,3.4399278999999297,None,133,0,132,388.03138430000035,,,,,,,,,,,,,,,,,,,,,,,,,,,,,,,,,,,,,,,,,,,,,,,,,,388.01781260000007,388.03138430000035,388.5451272,388.51596580000023,388.5421102999999,388.5451272,388.5451272,388.5451272,392.00037090000023,Scenes\030b.jpg,pre,s,3.4399278999999297,None,,,,,,,,00016,001,2025-11-18_15h57.27.139,MST_test,2024.2.0,59.99052149755911,2025-11-18 15h57.35.418839 +0530,
133,0,134,o,1.0029817000004186,None,134,0,133,392.0147135999996,,,,,,,,,,,,,,,,,,,,,,,,,,,,,,,,,,,,,,,,,,,,,,,,,,392.0007794000003,392.0147135999996,392.5180885,392.4995267000004,392.5150789999998,392.5180885,392.5180885,392.5180885,393.5337649000003,Objects\118a.jpg,mid,o,1.0029817000004186,None,,,,,,,,00016,001,2025-11-18_15h57.27.139,MST_test,2024.2.0,59.99052149755911,2025-11-18 15h57.35.418839 +0530,
134,0,135,o,1.1108158999995794,None,135,0,134,393.5479918000001,,,,,,,,,,,,,,,,,,,,,,,,,,,,,,,,,,,,,,,,,,,,,,,,,,393.5341456999995,393.5479918000001,394.0503732999996,394.03269100000034,394.0477691999995,394.0503732999996,394.0503732999996,394.0503732999996,395.16662369999995,Objects\105a.jpg,mid,o,1.1108158999995794,None,,,,,,,,00016,001,2025-11-18_15h57.27.139,MST_test,2024.2.0,59.99052149755911,2025-11-18 15h57.35.418839 +0530,
135,0,136,o,1.444755499999701,None,136,0,135,395.18168760000026,,,,,,,,,,,,,,,,,,,,,,,,,,,,,,,,,,,,,,,,,,,,,,,,,,395.1669022999995,395.18168760000026,395.68435709999994,395.66501009999956,395.68150140000034,395.68435709999994,395.68435709999994,395.68435709999994,397.1338380999996,Scenes\192b.jpg,pre,o,1.444755499999701,None,,,,,,,,00016,001,2025-11-18_15h57.27.139,MST_test,2024.2.0,59.99052149755911,2025-11-18 15h57.35.418839 +0530,
136,0,137,o,1.6122437999993053,None,137,0,136,397.1479737999998,,,,,,,,,,,,,,,,,,,,,,,,,,,,,,,,,,,,,,,,,,,,,,,,,,397.13423069999953,397.1479737999998,397.65351180000016,397.63250640000024,397.65018450000025,397.65351180000016,397.65351180000016,397.65351180000016,399.26769049999984,Scenes\185a.jpg,mid,o,1.6122437999993053,None,,,,,,,,00016,001,2025-11-18_15h57.27.139,MST_test,2024.2.0,59.99052149755911,2025-11-18 15h57.35.418839 +0530,
137,0,138,o,1.7879512999998042,None,138,0,137,399.28143910000017,,,,,,,,,,,,,,,,,,,,,,,,,,,,,,,,,,,,,,,,,,,,,,,,,,399.2680889000003,399.28143910000017,399.78983080000035,399.76586510000016,399.7866264000004,399.78983080000035,399.78983080000035,399.78983080000035,401.58362380000017,Scenes\133a.jpg,post,o,1.7879512999998042,None,,,,,,,,00016,001,2025-11-18_15h57.27.139,MST_test,2024.2.0,59.99052149755911,2025-11-18 15h57.35.418839 +0530,
138,0,139,o,0.8446027999998478,None,139,0,138,401.59804389999954,,,,,,,,,,,,,,,,,,,,,,,,,,,,,,,,,,,,,,,,,,,,,,,,,,401.58402149999984,401.59804389999954,402.10839769999984,402.08250709999993,402.10526839999966,402.10839769999984,402.10839769999984,402.10839769999984,402.96703929999967,Scenes\001a.jpg,post,o,0.8446027999998478,None,,,,,,,,00016,001,2025-11-18_15h57.27.139,MST_test,2024.2.0,59.99052149755911,2025-11-18 15h57.35.418839 +0530,
139,0,140,o,0.6451680000000124,None,140,0,139,402.9815187000004,,,,,,,,,,,,,,,,,,,,,,,,,,,,,,,,,,,,,,,,,,,,,,,,,,402.9674358000002,402.9815187000004,403.4843291999996,403.4656857,403.48129470000003,403.4843291999996,403.4843291999996,403.4843291999996,404.13382420000016,Objects\100a.jpg,post,o,0.6451680000000124,None,,,,,,,,00016,001,2025-11-18_15h57.27.139,MST_test,2024.2.0,59.99052149755911,2025-11-18 15h57.35.418839 +0530,
140,0,141,n,2.7111672999999428,None,141,0,140,404.14799519999997,,,,,,,,,,,,,,,,,,,,,,,,,,,,,,,,,,,,,,,,,,,,,,,,,,404.1342232999996,404.14799519999997,404.6585460999995,404.63235449999956,404.6556069999997,404.6585460999995,404.6585460999995,404.6585460999995,407.3835239,Scenes\126b.jpg,mid,n,2.7111672999999428,None,,,,,,,,00016,001,2025-11-18_15h57.27.139,MST_test,2024.2.0,59.99052149755911,2025-11-18 15h57.35.418839 +0530,
141,0,142,s,1.8551753000001554,None,142,0,141,407.3978350999996,,,,,,,,,,,,,,,,,,,,,,,,,,,,,,,,,,,,,,,,,,,,,,,,,,407.38381180000033,407.3978350999996,407.8984198999997,407.88191929999994,407.8949867000001,407.8984198999997,407.8984198999997,407.8984198999997,409.76680430000033,Scenes\096a.jpg,pre,s,1.8551753000001554,None,,,,,,,,00016,001,2025-11-18_15h57.27.139,MST_test,2024.2.0,59.99052149755911,2025-11-18 15h57.35.418839 +0530,
142,0,143,o,1.0629507999992711,None,143,0,142,409.78120579999995,,,,,,,,,,,,,,,,,,,,,,,,,,,,,,,,,,,,,,,,,,,,,,,,,,409.76712419999967,409.78120579999995,410.2828915,410.2654442000003,410.28018259999953,410.2828915,410.2828915,410.2828915,411.3499278999998,Objects\043a.jpg,pre,o,1.0629507999992711,None,,,,,,,,00016,001,2025-11-18_15h57.27.139,MST_test,2024.2.0,59.99052149755911,2025-11-18 15h57.35.418839 +0530,
143,0,144,o,1.5154440000005707,None,144,0,143,411.3645826000002,,,,,,,,,,,,,,,,,,,,,,,,,,,,,,,,,,,,,,,,,,,,,,,,,,411.3502791000001,411.3645826000002,411.86996720000025,411.8487981999997,411.867698,411.86996720000025,411.86996720000025,411.86996720000025,413.40002339999955,Objects\086b.jpg,post,o,1.5154440000005707,None,,,,,,,,00016,001,2025-11-18_15h57.27.139,MST_test,2024.2.0,59.99052149755911,2025-11-18 15h57.35.418839 +0530,
144,0,145,o,1.0012499999993452,None,145,0,144,413.4146418,,,,,,,,,,,,,,,,,,,,,,,,,,,,,,,,,,,,,,,,,,,,,,,,,,413.40037610000036,413.4146418,413.92772849999983,413.8990256999996,413.92456630000015,413.92772849999983,413.92772849999983,413.92772849999983,414.93344400000024,Scenes\076a.jpg,mid,o,1.0012499999993452,None,,,,,,,,00016,001,2025-11-18_15h57.27.139,MST_test,2024.2.0,59.99052149755911,2025-11-18 15h57.35.418839 +0530,
145,0,146,n,1.023372799999379,None,146,0,145,414.94786289999956,,,,,,,,,,,,,,,,,,,,,,,,,,,,,,,,,,,,,,,,,,,,,,,,,,414.9338501000002,414.94786289999956,415.70662040000025,415.43249689999993,415.7002671,415.70662040000025,415.70662040000025,415.70662040000025,416.73338429999967,Foils\scenes26.jpg,none,n,1.023372799999379,None,,,,,,,,00016,001,2025-11-18_15h57.27.139,MST_test,2024.2.0,59.99052149755911,2025-11-18 15h57.35.418839 +0530,
146,0,147,o,0.9100404999999228,None,147,0,146,416.74795639999957,,,,,,,,,,,,,,,,,,,,,,,,,,,,,,,,,,,,,,,,,,,,,,,,,,416.7337372000002,416.74795639999957,417.29100110000036,417.23212280000007,417.2883187999996,417.29100110000036,417.29100110000036,417.29100110000036,418.2166976999997,Objects\133a.jpg,pre,o,0.9100404999999228,None,,,,,,,,00016,001,2025-11-18_15h57.27.139,MST_test,2024.2.0,59.99052149755911,2025-11-18 15h57.35.418839 +0530,
147,0,148,n,2.7721207999993567,None,148,0,147,418.2312529999999,,,,,,,,,,,,,,,,,,,,,,,,,,,,,,,,,,,,,,,,,,,,,,,,,,418.2170917000003,418.2312529999999,418.73318459999973,418.71576970000024,418.7308396999997,418.73318459999973,418.73318459999973,418.73318459999973,421.5163413,Foils\081a.jpg,none,n,2.7721207999993567,None,,,,,,,,00016,001,2025-11-18_15h57.27.139,MST_test,2024.2.0,59.99052149755911,2025-11-18 15h57.35.418839 +0530,
148,0,149,o,0.9548561000001428,None,149,0,148,421.53124240000034,,,,,,,,,,,,,,,,,,,,,,,,,,,,,,,,,,,,,,,,,,,,,,,,,,421.51664449999953,421.53124240000034,422.0386969000001,422.01572699999997,422.0358722000001,422.0386969000001,422.0386969000001,422.0386969000001,423.00064509999993,Scenes\107a.jpg,pre,o,0.9548561000001428,None,,,,,,,,00016,001,2025-11-18_15h57.27.139,MST_test,2024.2.0,59.99052149755911,2025-11-18 15h57.35.418839 +0530,
149,0,150,o,0.8555436999995436,None,150,0,149,423.01473499999975,,,,,,,,,,,,,,,,,,,,,,,,,,,,,,,,,,,,,,,,,,,,,,,,,,423.0010351000001,423.01473499999975,423.5218918999999,423.4988733,423.51892549999957,423.5218918999999,423.5218918999999,423.5218918999999,424.38408549999986,Scenes\187a.jpg,pre,o,0.8555436999995436,None,,,,,,,,00016,001,2025-11-18_15h57.27.139,MST_test,2024.2.0,59.99052149755911,2025-11-18 15h57.35.418839 +0530,
,,,,,,,,,,,,,,,,,,,,,,,,,,,,,,,,,,,,,,,,,,,,,,,,,,,,,,,,,,,,,,,,,,,,,,,,,424.38434489999963,424.39814709999973,424.39814709999973,425.9500787999996,space,1.5391786000000138,None,00016,001,2025-11-18_15h57.27.139,MST_test,2024.2.0,59.99052149755911,2025-11-18 15h57.35.418839 +0530,
