Sl_no,image_path,thisN,thisTrialN,thisRepN,key_resp_5.keys,key_resp_5.rt,key_resp_5.duration,key_resp_7.keys,key_resp_9.keys,key_resp_9.rt,key_resp_9.duration,key_resp_8.keys,key_resp_8.rt,key_resp_8.duration,practice.thisRepN,practice.thisTrialN,practice.thisN,trials.thisRepN,trials.thisTrialN,trials.thisN,thisRow.t,notes,welcome_page.started,text.started,key_resp.started,welcome_page.stopped,key_resp.keys,key_resp.rt,key_resp.duration,instructions.started,ins.started,key_resp_2.started,instructions.stopped,key_resp_2.keys,key_resp_2.rt,key_resp_2.duration,objects_only_instruction.started,text_3.started,key_resp_3.started,objects_only_instruction.stopped,key_resp_3.keys,key_resp_3.rt,key_resp_3.duration,ISI.started,text_4.started,ISI.stopped,practice_block.started,image.started,text_5.started,key_resp_5.started,practice_block.stopped,practice.key_resp_5.keys,practice.key_resp_5.rt,practice.key_resp_5.duration,indoor_outdoor.started,indoor_outdoor.stopped,practice.key_resp_7.keys,text_4.stopped,image.stopped,text_5.stopped,key_resp_5.stopped,practice_to_main.started,text_2.started,key_resp_4.started,practice_to_main.stopped,key_resp_4.keys,key_resp_4.rt,key_resp_4.duration,objects.started,image_2.started,text_9.started,key_resp_9.started,image_2.stopped,text_9.stopped,key_resp_9.stopped,objects.stopped,trials.key_resp_9.keys,trials.key_resp_9.rt,trials.key_resp_9.duration,encoding_task.started,encoding_task.stopped,trials.key_resp_8.keys,text_8.started,key_resp_8.started,trials.key_resp_8.rt,trials.key_resp_8.duration,end_experiment.started,text_6.started,key_resp_6.started,end_experiment.stopped,key_resp_6.keys,key_resp_6.rt,key_resp_6.duration,list_of_stimuli,encoding_task_accuracy,participant,session,date,expName,psychopyVersion,frameRate,expStart,
,,,,,,,,,,,,,,,,,,,,,,,0.0013099000207148492,0.00396340002771467,0.00396340002771467,8.088213299983181,space,8.064481700013857,None,,,,,,,,,,,,,,,,,,,,,,,,,,,,,,,,,,,,,,,,,,,,,,,,,,,,,,,,,,,,,,,,,,,00019,001,2026-01-20_15h19.21.867,MST_task,2024.2.0,60.099187685008125,2026-01-20 15h19.29.517999 +0530,
,,,,,,,,,,,,,,,,,,,,,,,,,,,,,,8.08825120003894,8.101642200024799,8.101642200024799,54.70110479998402,space,46.59077299997443,None,,,,,,,,,,,,,,,,,,,,,,,,,,,,,,,,,,,,,,,,,,,,,,,,,,,,,,,,,,,,00019,001,2026-01-20_15h19.21.867,MST_task,2024.2.0,60.099187685008125,2026-01-20 15h19.29.517999 +0530,
,,,,,,,,,,,,,,,,,,,,,,,,,,,,,,,,,,,,,54.701138100004755,54.71697439998388,54.71697439998388,71.91749490000075,space,17.191228400042746,None,,,,,,,,,,,,,,,,,,,,,,,,,,,,,,,,,,,,,,,,,,,,,,,,,,,,,00019,001,2026-01-20_15h19.21.867,MST_task,2024.2.0,60.099187685008125,2026-01-20 15h19.29.517999 +0530,
2,practice_images/031a.jpg,0,0,1,f,1.542309800046496,0.17452099994989112,None,,,,,,,1,0,0,,,,71.94284390000394,,,,,,,,,,,,,,,,,,,,,,,71.9408060000278,71.94284390000394,72.43373460002476,72.45063919998938,72.46308740001405,72.46308740001405,72.46308740001405,75.43394960003207,f,1.542309800046496,0.17452099994989112,75.43592830002308,75.43595389998518,None,,,,,,,,,,,,,,,,,,,,,,,,,,,,,,,,,,,,,,,00019,001,2026-01-20_15h19.21.867,MST_task,2024.2.0,60.099187685008125,2026-01-20 15h19.29.517999 +0530,
9,practice_images/180a.jpg,1,1,1,f,2.0139252000371926,0.19996119994902983,None,,,,,,,1,1,1,,,,75.45047510002041,,,,,,,,,,,,,,,,,,,,,,,75.43603430001531,75.45047510002041,75.9341389000183,75.9426184000331,75.95068310003262,75.95068310003262,75.95068310003262,78.93408849998377,f,2.0139252000371926,0.19996119994902983,78.93413930002134,78.93415109999478,None,75.95068310003262,78.95038440002827,78.95038440002827,78.95038440002827,,,,,,,,,,,,,,,,,,,,,,,,,,,,,,,,,,,00019,001,2026-01-20_15h19.21.867,MST_task,2024.2.0,60.099187685008125,2026-01-20 15h19.29.517999 +0530,
1,practice_images/013a.jpg,2,2,1,j,2.1935964000294916,0.1600265999441035,None,,,,,,,1,2,2,,,,78.95038440002827,,,,,,,,,,,,,,,,,,,,,,,78.9342120999936,78.95038440002827,79.43405009998241,79.44370720000006,79.45069640001748,79.45069640001748,79.45069640001748,82.43397310003638,j,2.1935964000294916,0.1600265999441035,82.43402179999975,82.4340336000314,None,79.45069640001748,82.45036349998554,82.45036349998554,82.45036349998554,,,,,,,,,,,,,,,,,,,,,,,,,,,,,,,,,,,00019,001,2026-01-20_15h19.21.867,MST_task,2024.2.0,60.099187685008125,2026-01-20 15h19.29.517999 +0530,
3,practice_images/037a.jpg,3,3,1,f,0.99008399999002,0.216000999964308,None,,,,,,,1,3,3,,,,82.45036349998554,,,,,,,,,,,,,,,,,,,,,,,82.43409450002946,82.45036349998554,82.9340147000039,82.9428709000349,82.95053860003827,82.95053860003827,82.95053860003827,85.9340618000133,f,0.99008399999002,0.216000999964308,85.9341112000402,85.93412350001745,None,82.95053860003827,85.95036389998859,85.95036389998859,85.95036389998859,,,,,,,,,,,,,,,,,,,,,,,,,,,,,,,,,,,00019,001,2026-01-20_15h19.21.867,MST_task,2024.2.0,60.099187685008125,2026-01-20 15h19.29.517999 +0530,
4,practice_images/002b.jpg,4,4,1,f,1.6811627999995835,0.17637770000146702,None,,,,,,,1,4,4,,,,85.95036389998859,,,,,,,,,,,,,,,,,,,,,,,85.93418620002922,85.95036389998859,86.43383370002266,86.44249869999476,86.45081479998771,86.45081479998771,86.45081479998771,89.43406549998326,f,1.6811627999995835,0.17637770000146702,89.4341164000216,89.43412920000264,None,86.45081479998771,89.45036270003766,89.45036270003766,89.45036270003766,,,,,,,,,,,,,,,,,,,,,,,,,,,,,,,,,,,00019,001,2026-01-20_15h19.21.867,MST_task,2024.2.0,60.099187685008125,2026-01-20 15h19.29.517999 +0530,
6,practice_images/158a.jpg,5,5,1,j,1.9813917999854311,0.20047360000899062,None,,,,,,,1,5,5,,,,89.45036270003766,,,,,,,,,,,,,,,,,,,,,,,89.4341914000106,89.45036270003766,89.93407870002557,89.94286360003753,89.95108060003258,89.95108060003258,89.95108060003258,92.93392770003993,j,1.9813917999854311,0.20047360000899062,92.93397730001016,92.93399019999197,None,89.95108060003258,92.95037650002632,92.95037650002632,92.95037650002632,,,,,,,,,,,,,,,,,,,,,,,,,,,,,,,,,,,00019,001,2026-01-20_15h19.21.867,MST_task,2024.2.0,60.099187685008125,2026-01-20 15h19.29.517999 +0530,
8,practice_images/178a.jpg,6,6,1,j,2.129627500020433,0.18384229997172952,None,,,,,,,1,6,6,,,,92.95037650002632,,,,,,,,,,,,,,,,,,,,,,,92.93405330000678,92.95037650002632,93.43386769999051,93.44207069999538,93.45062900002813,93.45062900002813,93.45062900002813,96.43406589998631,j,2.129627500020433,0.18384229997172952,96.43412069999613,96.43413290003082,None,93.45062900002813,96.45036250003614,96.45036250003614,96.45036250003614,,,,,,,,,,,,,,,,,,,,,,,,,,,,,,,,,,,00019,001,2026-01-20_15h19.21.867,MST_task,2024.2.0,60.099187685008125,2026-01-20 15h19.29.517999 +0530,
5,practice_images/139a.jpg,7,7,1,j,2.1814231000025757,0.22402890003286302,None,,,,,,,1,7,7,,,,96.45036250003614,,,,,,,,,,,,,,,,,,,,,,,96.43419729999732,96.45036250003614,96.93396110000322,96.94260820001364,96.9505142000271,96.9505142000271,96.9505142000271,99.93413340003463,j,2.1814231000025757,0.22402890003286302,99.9341901000007,99.93420359998709,None,96.9505142000271,99.95041630003834,99.95041630003834,99.95041630003834,,,,,,,,,,,,,,,,,,,,,,,,,,,,,,,,,,,00019,001,2026-01-20_15h19.21.867,MST_task,2024.2.0,60.099187685008125,2026-01-20 15h19.29.517999 +0530,
7,practice_images/166a.jpg,8,8,1,f,1.7693773999926634,0.20105939998757094,None,,,,,,,1,8,8,,,,99.95041630003834,,,,,,,,,,,,,,,,,,,,,,,99.93427050003083,99.95041630003834,100.43391610000981,100.44231940002646,100.45055599999614,100.45055599999614,100.45055599999614,103.43409250001423,f,1.7693773999926634,0.20105939998757094,103.4341521000024,103.43416649999563,None,100.45055599999614,103.45043409999926,103.45043409999926,103.45043409999926,,,,,,,,,,,,,,,,,,,,,,,,,,,,,,,,,,,00019,001,2026-01-20_15h19.21.867,MST_task,2024.2.0,60.099187685008125,2026-01-20 15h19.29.517999 +0530,
10,practice_images/182a.jpg,9,9,1,f,1.1259841000428423,0.2090454999706708,None,,,,,,,1,9,9,,,,103.45043409999926,,,,,,,,,,,,,,,,,,,,,,,103.43423429998802,103.45043409999926,103.93389009998646,103.94194829999469,103.95066010003211,103.95066010003211,103.95066010003211,106.93411580001703,f,1.1259841000428423,0.2090454999706708,106.9341657999903,106.93417860002955,None,103.95066010003211,106.95061589998659,106.95061589998659,106.95061589998659,,,,,,,,,,,,,,,,,,,,,,,,,,,,,,,,,,,00019,001,2026-01-20_15h19.21.867,MST_task,2024.2.0,60.099187685008125,2026-01-20 15h19.29.517999 +0530,
,,,,,,,,,,,,,,,,,,,,,,,,,,,,,,,,,,,,,,,,,,,,,,,,,,,,,,,,,,,,,,106.93421989999479,106.95061589998659,106.95061589998659,124.11783080000896,space,17.166524500004016,None,,,,,,,,,,,,,,,,,,,,,,,,,,,,00019,001,2026-01-20_15h19.21.867,MST_task,2024.2.0,60.099187685008125,2026-01-20 15h19.29.517999 +0530,
,Objects\061a.jpg,0,0,1,,,,,j,1.201819500012789,0.22398879996035248,None,,,,,,1,0,0,124.13364210003056,,,,,,,,,,,,,,,,,,,,,,,124.11850410001352,124.13364210003056,124.6173839000403,,,,,,,,,,,,124.63410969998222,,,,,,,,,,,124.63041530002374,124.63410969998222,124.63410969998222,124.63410969998222,127.6336544000078,127.6336544000078,127.6336544000078,127.61755700001959,j,1.201819500012789,0.22398879996035248,127.61924480000744,127.61926350003341,None,,,,,,,,,,,,,,00019,001,2026-01-20_15h19.21.867,MST_task,2024.2.0,60.099187685008125,2026-01-20 15h19.29.517999 +0530,
,Objects\116a.jpg,1,0,2,,,,,f,2.206291699956637,0.16799899999750778,None,,,,,,2,0,1,127.6336544000078,,,,,,,,,,,,,,,,,,,,,,,127.6193568999879,127.6336544000078,128.11731130001135,,,,,,,,,,,,128.1338825999992,,,,,,,,,,,128.12718100001803,128.1338825999992,128.1338825999992,128.1338825999992,131.13372250000248,131.13372250000248,131.13372250000248,131.11775480001234,f,2.206291699956637,0.16799899999750778,131.11782079999102,131.11783260002267,None,,,,,,,,,,,,,,00019,001,2026-01-20_15h19.21.867,MST_task,2024.2.0,60.099187685008125,2026-01-20 15h19.29.517999 +0530,
,Objects\111a.jpg,2,0,3,,,,,f,1.1789513999829069,0.19198589998995885,None,,,,,,3,0,2,131.13372250000248,,,,,,,,,,,,,,,,,,,,,,,131.117929,131.13372250000248,131.61735330004012,,,,,,,,,,,,131.63392490003025,,,,,,,,,,,131.6273014000035,131.63392490003025,131.63392490003025,131.63392490003025,134.63363100000424,134.63363100000424,134.63363100000424,134.61760599998524,f,1.1789513999829069,0.19198589998995885,134.6176633000141,134.61767449998297,None,,,,,,,,,,,,,,00019,001,2026-01-20_15h19.21.867,MST_task,2024.2.0,60.099187685008125,2026-01-20 15h19.29.517999 +0530,
,Objects\003a.jpg,3,0,4,,,,,f,1.8628533000010066,0.19998619996476918,None,,,,,,4,0,3,134.63363100000424,,,,,,,,,,,,,,,,,,,,,,,134.6177584999823,134.63363100000424,135.11734589998377,,,,,,,,,,,,135.13396449998254,,,,,,,,,,,135.1272597000352,135.13396449998254,135.13396449998254,135.13396449998254,138.1335618000012,138.1335618000012,138.1335618000012,138.11771419999423,f,1.8628533000010066,0.19998619996476918,138.1177722000284,138.11778349999804,None,,,,,,,,,,,,,,00019,001,2026-01-20_15h19.21.867,MST_task,2024.2.0,60.099187685008125,2026-01-20 15h19.29.517999 +0530,
,Objects\108a.jpg,4,0,5,,,,,f,1.8911254999693483,0.21575610002037138,None,,,,,,5,0,4,138.1335618000012,,,,,,,,,,,,,,,,,,,,,,,138.11784870002884,138.1335618000012,138.61726600001566,,,,,,,,,,,,138.6337395000155,,,,,,,,,,,138.62691970000742,138.6337395000155,138.6337395000155,138.6337395000155,141.6337974999915,141.6337974999915,141.6337974999915,141.6179321000236,f,1.8911254999693483,0.21575610002037138,141.61799960001372,141.61801199999172,None,,,,,,,,,,,,,,00019,001,2026-01-20_15h19.21.867,MST_task,2024.2.0,60.099187685008125,2026-01-20 15h19.29.517999 +0530,
,Objects\095a.jpg,5,0,6,,,,,f,1.5830414000083692,0.2313471999950707,None,,,,,,6,0,5,141.6337974999915,,,,,,,,,,,,,,,,,,,,,,,141.6181043999968,141.6337974999915,142.11724639998283,,,,,,,,,,,,142.1338212999981,,,,,,,,,,,142.12732919998234,142.1338212999981,142.1338212999981,142.1338212999981,145.13362680003047,145.13362680003047,145.13362680003047,145.11781690001953,f,1.5830414000083692,0.2313471999950707,145.11787310004001,145.1178848000127,None,,,,,,,,,,,,,,00019,001,2026-01-20_15h19.21.867,MST_task,2024.2.0,60.099187685008125,2026-01-20 15h19.29.517999 +0530,
,Objects\177a.jpg,6,0,7,,,,,j,1.94776459998684,0.2303542000008747,None,,,,,,7,0,6,145.13362680003047,,,,,,,,,,,,,,,,,,,,,,,145.11797060002573,145.13362680003047,145.61726339999586,,,,,,,,,,,,145.63390320003964,,,,,,,,,,,145.62681570003042,145.63390320003964,145.63390320003964,145.63390320003964,148.63357350003207,148.63357350003207,148.63357350003207,148.6176589000388,j,1.94776459998684,0.2303542000008747,148.6177112000296,148.61772239999846,None,,,,,,,,,,,,,,00019,001,2026-01-20_15h19.21.867,MST_task,2024.2.0,60.099187685008125,2026-01-20 15h19.29.517999 +0530,
,Scenes\186a.jpg,7,0,8,,,,,j,1.5135458000004292,0.2399979999754578,None,,,,,,8,0,7,148.63357350003207,,,,,,,,,,,,,,,,,,,,,,,148.61780750000617,148.63357350003207,149.11729860003106,,,,,,,,,,,,149.13875889999326,,,,,,,,,,,149.13644360000035,149.13875889999326,149.13875889999326,149.13875889999326,,,,152.1339755000081,j,1.5135458000004292,0.2399979999754578,152.13404540001648,152.13405809999676,None,,,,,,,,,,,,,,00019,001,2026-01-20_15h19.21.867,MST_task,2024.2.0,60.099187685008125,2026-01-20 15h19.29.517999 +0530,
,Scenes\045a.jpg,8,0,9,,,,,j,1.3928951999987476,0.23185959999682382,None,,,,,,9,0,8,152.15042650001124,,,,,,,,,,,,,,,,,,,,,,,152.13413610000862,152.15042650001124,152.6339144000085,,,,,,,,,,,,152.6596126999939,,,,,,,,,,,152.65710240002954,152.6596126999939,152.6596126999939,152.6596126999939,,,,155.65070270001888,j,1.3928951999987476,0.23185959999682382,155.65076699998463,155.65077920001931,None,,,,,,,,,,,,,,00019,001,2026-01-20_15h19.21.867,MST_task,2024.2.0,60.099187685008125,2026-01-20 15h19.29.517999 +0530,
,Scenes\083a.jpg,9,0,10,,,,,j,1.595744599995669,0.2560249000089243,None,,,,,,10,0,9,155.66699890000746,,,,,,,,,,,,,,,,,,,,,,,155.6508516999893,155.66699890000746,156.15076350001618,,,,,,,,,,,,156.16897540003993,,,,,,,,,,,156.1664428000222,156.16897540003993,156.16897540003993,156.16897540003993,,,,159.16725759999827,j,1.595744599995669,0.2560249000089243,159.16731530003017,159.1673271000036,None,,,,,,,,,,,,,,00019,001,2026-01-20_15h19.21.867,MST_task,2024.2.0,60.099187685008125,2026-01-20 15h19.29.517999 +0530,
,Scenes\061a.jpg,10,0,11,,,,,j,1.6488764999667183,0.2073709000251256,None,,,,,,11,0,10,159.18355409998912,,,,,,,,,,,,,,,,,,,,,,,159.16742190002697,159.18355409998912,159.66730880003888,,,,,,,,,,,,159.68388570001116,,,,,,,,,,,159.6809765000362,159.68388570001116,159.68388570001116,159.68388570001116,162.68357990001095,162.68357990001095,162.68357990001095,162.66754100000253,j,1.6488764999667183,0.2073709000251256,162.6675940999994,162.66760520002572,None,,,,,,,,,,,,,,00019,001,2026-01-20_15h19.21.867,MST_task,2024.2.0,60.099187685008125,2026-01-20 15h19.29.517999 +0530,
,Scenes\119a.jpg,11,0,12,,,,,j,2.475057800009381,0.20696969999698922,None,,,,,,12,0,11,162.68357990001095,,,,,,,,,,,,,,,,,,,,,,,162.6676921999897,162.68357990001095,163.16728280001553,,,,,,,,,,,,163.18591910001123,,,,,,,,,,,163.18359520001104,163.18591910001123,163.18591910001123,163.18591910001123,,,,166.1839117000345,j,2.475057800009381,0.20696969999698922,166.18396699998993,166.18397890002234,None,,,,,,,,,,,,,,00019,001,2026-01-20_15h19.21.867,MST_task,2024.2.0,60.099187685008125,2026-01-20 15h19.29.517999 +0530,
,Scenes\156a.jpg,12,0,13,,,,,j,1.8068066999549046,0.2314716000109911,None,,,,,,13,0,12,166.20038200001,,,,,,,,,,,,,,,,,,,,,,,166.18406639999012,166.20038200001,166.6839394000126,,,,,,,,,,,,166.70256400003564,,,,,,,,,,,166.70024440000998,166.70256400003564,166.70256400003564,166.70256400003564,,,,169.6840974999941,j,1.8068066999549046,0.2314716000109911,169.68415099999402,169.68416290002642,None,,,,,,,,,,,,,,00019,001,2026-01-20_15h19.21.867,MST_task,2024.2.0,60.099187685008125,2026-01-20 15h19.29.517999 +0530,
,Scenes\114a.jpg,13,0,14,,,,,None,,,j,0.10790659999474883,None,,,,14,0,13,169.7004922000342,,,,,,,,,,,,,,,,,,,,,,,169.68425630003912,169.7004922000342,170.18428520002635,,,,,,,,,,,,170.20628889999352,,,,,,,,,,,170.20374399999855,170.20628889999352,170.20628889999352,170.20628889999352,,,,173.200842500024,None,,,173.20090649998747,173.3358956000302,j,173.21721590001835,173.21721590001835,0.10790659999474883,None,,,,,,,,,,00019,001,2026-01-20_15h19.21.867,MST_task,2024.2.0,60.099187685008125,2026-01-20 15h19.29.517999 +0530,
,Objects\178a.jpg,14,0,15,,,,,j,1.6570745999924839,0.19222079997416586,None,,,,,,15,0,14,173.3505312000052,,,,,,,,,,,,,,,,,,,,,,,173.3360472000204,173.3505312000052,173.83411260001594,,,,,,,,,,,,173.85123580001527,,,,,,,,,,,173.84553580003558,173.85123580001527,173.85123580001527,173.85123580001527,176.85048190003727,176.85048190003727,176.85048190003727,176.83447110000998,j,1.6570745999924839,0.19222079997416586,176.834529499989,176.83454150002217,None,,,,,,,,,,,,,,00019,001,2026-01-20_15h19.21.867,MST_task,2024.2.0,60.099187685008125,2026-01-20 15h19.29.517999 +0530,
,Objects\105a.jpg,15,0,16,,,,,f,0.9825077999848872,0.19899860001169145,None,,,,,,16,0,15,176.85048190003727,,,,,,,,,,,,,,,,,,,,,,,176.83460780000314,176.85048190003727,177.33400410000468,,,,,,,,,,,,177.35068790003425,,,,,,,,,,,177.34445209999103,177.35068790003425,177.35068790003425,177.35068790003425,180.35049360000994,180.35049360000994,180.35049360000994,180.3343184000114,f,0.9825077999848872,0.19899860001169145,180.3343730000197,180.33438890002435,None,,,,,,,,,,,,,,00019,001,2026-01-20_15h19.21.867,MST_task,2024.2.0,60.099187685008125,2026-01-20 15h19.29.517999 +0530,
,Objects\154a.jpg,16,0,17,,,,,f,1.0251341999974102,0.19310849998146296,None,,,,,,17,0,16,180.35049360000994,,,,,,,,,,,,,,,,,,,,,,,180.33446109999204,180.35049360000994,180.8340682000271,,,,,,,,,,,,180.85076030000346,,,,,,,,,,,180.84373870003037,180.85076030000346,180.85076030000346,180.85076030000346,183.85051469999598,183.85051469999598,183.85051469999598,183.83430139999837,f,1.0251341999974102,0.19310849998146296,183.83435680001276,183.83436809998238,None,,,,,,,,,,,,,,00019,001,2026-01-20_15h19.21.867,MST_task,2024.2.0,60.099187685008125,2026-01-20 15h19.29.517999 +0530,
,Objects\092a.jpg,17,0,18,,,,,f,2.3342018999974243,0.18299689999548718,None,,,,,,18,0,17,183.85051469999598,,,,,,,,,,,,,,,,,,,,,,,183.83445670001674,183.85051469999598,184.3340227000299,,,,,,,,,,,,184.3508228000137,,,,,,,,,,,184.34418479999295,184.3508228000137,184.3508228000137,184.3508228000137,187.35048790002475,187.35048790002475,187.35048790002475,187.33442440000363,f,2.3342018999974243,0.18299689999548718,187.33447679999517,187.33448770001996,None,,,,,,,,,,,,,,00019,001,2026-01-20_15h19.21.867,MST_task,2024.2.0,60.099187685008125,2026-01-20 15h19.29.517999 +0530,
,Objects\104a.jpg,18,0,19,,,,,f,1.5145057000336237,0.18289489997550845,None,,,,,,19,0,18,187.35048790002475,,,,,,,,,,,,,,,,,,,,,,,187.3345722000231,187.35048790002475,187.83408780000173,,,,,,,,,,,,187.85069230000954,,,,,,,,,,,187.84410270000808,187.85069230000954,187.85069230000954,187.85069230000954,190.850414799992,190.850414799992,190.850414799992,190.8344068999868,f,1.5145057000336237,0.18289489997550845,190.8344594000373,190.83446990000084,None,,,,,,,,,,,,,,00019,001,2026-01-20_15h19.21.867,MST_task,2024.2.0,60.099187685008125,2026-01-20 15h19.29.517999 +0530,
,Objects\033a.jpg,19,0,20,,,,,j,1.4057211999897845,0.20022460003383458,None,,,,,,20,0,19,190.850414799992,,,,,,,,,,,,,,,,,,,,,,,190.83455660002073,190.850414799992,191.33408569998574,,,,,,,,,,,,191.35075330000836,,,,,,,,,,,191.34449779998977,191.35075330000836,191.35075330000836,191.35075330000836,194.3504830999882,194.3504830999882,194.3504830999882,194.3343417000142,j,1.4057211999897845,0.20022460003383458,194.33439530001488,194.33440629998222,None,,,,,,,,,,,,,,00019,001,2026-01-20_15h19.21.867,MST_task,2024.2.0,60.099187685008125,2026-01-20 15h19.29.517999 +0530,
,Objects\147a.jpg,20,0,21,,,,,f,1.8812552000163123,0.1919995000353083,None,,,,,,21,0,20,194.3504830999882,,,,,,,,,,,,,,,,,,,,,,,194.33447370002978,194.3504830999882,194.83408380002948,,,,,,,,,,,,194.8508721999824,,,,,,,,,,,194.84387799998512,194.8508721999824,194.8508721999824,194.8508721999824,197.85042110003997,197.85042110003997,197.85042110003997,197.83438349998323,f,1.8812552000163123,0.1919995000353083,197.83443660003832,197.83444720000261,None,,,,,,,,,,,,,,00019,001,2026-01-20_15h19.21.867,MST_task,2024.2.0,60.099187685008125,2026-01-20 15h19.29.517999 +0530,
,Scenes\046a.jpg,21,0,22,,,,,j,1.2484965000185184,0.20605520001845434,None,,,,,,22,0,21,197.85042110003997,,,,,,,,,,,,,,,,,,,,,,,197.83451110002352,197.85042110003997,198.3340690000332,,,,,,,,,,,,198.35743800003547,,,,,,,,,,,198.35485230002087,198.35743800003547,198.35743800003547,198.35743800003547,,,,201.35072540002875,j,1.2484965000185184,0.20605520001845434,201.35077800002182,201.35078949999297,None,,,,,,,,,,,,,,00019,001,2026-01-20_15h19.21.867,MST_task,2024.2.0,60.099187685008125,2026-01-20 15h19.29.517999 +0530,
,Scenes\179a.jpg,22,0,23,,,,,j,1.7445081999758258,0.21640890004346147,None,,,,,,23,0,22,201.36717310000677,,,,,,,,,,,,,,,,,,,,,,,201.35087630001362,201.36717310000677,201.8506541000097,,,,,,,,,,,,201.8676087000058,,,,,,,,,,,201.86428320000414,201.8676087000058,201.8676087000058,201.8676087000058,204.8671660000109,204.8671660000109,204.8671660000109,204.8510003000265,j,1.7445081999758258,0.21640890004346147,204.8510541000287,204.85106529999757,None,,,,,,,,,,,,,,00019,001,2026-01-20_15h19.21.867,MST_task,2024.2.0,60.099187685008125,2026-01-20 15h19.29.517999 +0530,
,Scenes\173a.jpg,23,0,24,,,,,j,1.8687937000067905,0.19199680001474917,None,,,,,,24,0,23,204.8671660000109,,,,,,,,,,,,,,,,,,,,,,,204.8511307000299,204.8671660000109,205.35078869998688,,,,,,,,,,,,205.36771880002925,,,,,,,,,,,205.36487410002155,205.36771880002925,205.36771880002925,205.36771880002925,208.36704869999085,208.36704869999085,208.36704869999085,208.3510828000144,j,1.8687937000067905,0.19199680001474917,208.35114400001476,208.351156299992,None,,,,,,,,,,,,,,00019,001,2026-01-20_15h19.21.867,MST_task,2024.2.0,60.099187685008125,2026-01-20 15h19.29.517999 +0530,
,Scenes\053a.jpg,24,0,25,,,,,j,1.161156199988909,0.207654400030151,None,,,,,,25,0,24,208.36704869999085,,,,,,,,,,,,,,,,,,,,,,,208.351225099992,208.36704869999085,208.85100770002464,,,,,,,,,,,,208.86768850003136,,,,,,,,,,,208.8612205000245,208.86768850003136,208.86768850003136,208.86768850003136,211.86718170001404,211.86718170001404,211.86718170001404,211.8511889000074,j,1.161156199988909,0.207654400030151,211.85125780000817,211.8512694000383,None,,,,,,,,,,,,,,00019,001,2026-01-20_15h19.21.867,MST_task,2024.2.0,60.099187685008125,2026-01-20 15h19.29.517999 +0530,
,Scenes\127a.jpg,25,0,26,,,,,j,1.427597199974116,0.19953360001090914,None,,,,,,26,0,25,211.86718170001404,,,,,,,,,,,,,,,,,,,,,,,211.85136359999888,211.86718170001404,212.35079810000025,,,,,,,,,,,,212.36947500001406,,,,,,,,,,,212.36717470001895,212.36947500001406,212.36947500001406,212.36947500001406,,,,215.36744320002617,j,1.427597199974116,0.19953360001090914,215.36749450000934,215.36750669998582,None,,,,,,,,,,,,,,00019,001,2026-01-20_15h19.21.867,MST_task,2024.2.0,60.099187685008125,2026-01-20 15h19.29.517999 +0530,
,Scenes\044a.jpg,26,0,27,,,,,j,1.2777883000089787,0.20798870001453906,None,,,,,,27,0,26,215.38381959998515,,,,,,,,,,,,,,,,,,,,,,,215.36759410001105,215.38381959998515,215.8673143000342,,,,,,,,,,,,215.8869102000026,,,,,,,,,,,215.88429640000686,215.8869102000026,215.8869102000026,215.8869102000026,,,,218.88386900001206,j,1.2777883000089787,0.20798870001453906,218.88392829999793,218.88394010002958,None,,,,,,,,,,,,,,00019,001,2026-01-20_15h19.21.867,MST_task,2024.2.0,60.099187685008125,2026-01-20 15h19.29.517999 +0530,
,Scenes\017a.jpg,27,0,28,,,,,f,1.2248208999517374,0.1839990000007674,None,,,,,,28,0,27,218.90040730003966,,,,,,,,,,,,,,,,,,,,,,,218.8840124999988,218.90040730003966,219.3839988000109,,,,,,,,,,,,219.40380420000292,,,,,,,,,,,219.40132970002014,219.40380420000292,219.40380420000292,219.40380420000292,,,,222.3839993000147,f,1.2248208999517374,0.1839990000007674,222.38405300001614,222.38406509999186,None,,,,,,,,,,,,,,00019,001,2026-01-20_15h19.21.867,MST_task,2024.2.0,60.099187685008125,2026-01-20 15h19.29.517999 +0530,
,Objects\042a.jpg,28,0,29,,,,,f,1.2869635000242852,0.19285930000478402,None,,,,,,29,0,28,222.40045780001674,,,,,,,,,,,,,,,,,,,,,,,222.3841527000186,222.40045780001674,222.88405340001918,,,,,,,,,,,,222.9009490000317,,,,,,,,,,,222.89432490000036,222.9009490000317,222.9009490000317,222.9009490000317,225.9004276000196,225.9004276000196,225.9004276000196,225.88419080001768,f,1.2869635000242852,0.19285930000478402,225.88424680003664,225.8842580000055,None,,,,,,,,,,,,,,00019,001,2026-01-20_15h19.21.867,MST_task,2024.2.0,60.099187685008125,2026-01-20 15h19.29.517999 +0530,
,Objects\029a.jpg,29,0,30,,,,,f,1.6041584000340663,0.15905399998882785,None,,,,,,30,0,29,225.9004276000196,,,,,,,,,,,,,,,,,,,,,,,225.88435880001634,225.9004276000196,226.38394750002772,,,,,,,,,,,,226.40071020001778,,,,,,,,,,,226.3937348999898,226.40071020001778,226.40071020001778,226.40071020001778,229.40038220002316,229.40038220002316,229.40038220002316,229.38430490001338,f,1.6041584000340663,0.15905399998882785,229.38436600001296,229.3843772999826,None,,,,,,,,,,,,,,00019,001,2026-01-20_15h19.21.867,MST_task,2024.2.0,60.099187685008125,2026-01-20 15h19.29.517999 +0530,
,Objects\046a.jpg,30,0,31,,,,,f,1.4475702000199817,0.19206349999876693,None,,,,,,31,0,30,229.40038220002316,,,,,,,,,,,,,,,,,,,,,,,229.38446480000857,229.40038220002316,229.88391720002983,,,,,,,,,,,,229.90063310001278,,,,,,,,,,,229.8943421000149,229.90063310001278,229.90063310001278,229.90063310001278,232.90044170001056,232.90044170001056,232.90044170001056,232.88415150000947,f,1.4475702000199817,0.19206349999876693,232.88420349999797,232.88421460002428,None,,,,,,,,,,,,,,00019,001,2026-01-20_15h19.21.867,MST_task,2024.2.0,60.099187685008125,2026-01-20 15h19.29.517999 +0530,
,Objects\118a.jpg,31,0,32,,,,,f,1.6846742000197992,0.15993949997937307,None,,,,,,32,0,31,232.90044170001056,,,,,,,,,,,,,,,,,,,,,,,232.88428019999992,232.90044170001056,233.3838495000382,,,,,,,,,,,,233.4005754000391,,,,,,,,,,,233.39400660002138,233.4005754000391,233.4005754000391,233.4005754000391,236.40045110002393,236.40045110002393,236.40045110002393,236.3844673000276,f,1.6846742000197992,0.15993949997937307,236.38453660003142,236.38454860000638,None,,,,,,,,,,,,,,00019,001,2026-01-20_15h19.21.867,MST_task,2024.2.0,60.099187685008125,2026-01-20 15h19.29.517999 +0530,
,Objects\186a.jpg,32,0,33,,,,,f,1.8395542000071146,0.1290076000150293,None,,,,,,33,0,32,236.40045110002393,,,,,,,,,,,,,,,,,,,,,,,236.38461800001096,236.40045110002393,236.88383870001417,,,,,,,,,,,,236.9006306999945,,,,,,,,,,,236.89372749999166,236.9006306999945,236.9006306999945,236.9006306999945,239.90039700001944,239.90039700001944,239.90039700001944,239.8842333999928,f,1.8395542000071146,0.1290076000150293,239.88429210003233,239.88430410000728,None,,,,,,,,,,,,,,00019,001,2026-01-20_15h19.21.867,MST_task,2024.2.0,60.099187685008125,2026-01-20 15h19.29.517999 +0530,
,Objects\065a.jpg,33,0,34,,,,,j,2.8917354999575764,None,None,,,,,,34,0,33,239.90039700001944,,,,,,,,,,,,,,,,,,,,,,,239.88437139999587,239.90039700001944,240.38391099998262,,,,,,,,,,,,240.4006364000379,,,,,,,,,,,240.39399300003424,240.4006364000379,240.4006364000379,240.4006364000379,243.40052460000152,243.40052460000152,243.40052460000152,243.38425990001997,j,2.8917354999575764,None,243.38432459998876,243.38433620001888,None,,,,,,,,,,,,,,00019,001,2026-01-20_15h19.21.867,MST_task,2024.2.0,60.099187685008125,2026-01-20 15h19.29.517999 +0530,
,Objects\165a.jpg,34,0,35,,,,,f,1.1039303000434302,0.17588659998727962,None,,,,,,35,0,34,243.40052460000152,,,,,,,,,,,,,,,,,,,,,,,243.38442760001635,243.40052460000152,243.8839245000272,,,,,,,,,,,,243.90066039998783,,,,,,,,,,,243.8936132999952,243.90066039998783,243.90066039998783,243.90066039998783,246.90034610003931,246.90034610003931,246.90034610003931,246.88423610001337,f,1.1039303000434302,0.17588659998727962,246.88428729999578,246.8842984000221,None,,,,,,,,,,,,,,00019,001,2026-01-20_15h19.21.867,MST_task,2024.2.0,60.099187685008125,2026-01-20 15h19.29.517999 +0530,
,Scenes\144a.jpg,35,0,36,,,,,j,1.1077929000020958,0.16731659998185933,None,,,,,,36,0,35,246.90034610003931,,,,,,,,,,,,,,,,,,,,,,,246.88438340002904,246.90034610003931,247.38383360003354,,,,,,,,,,,,247.40158820000943,,,,,,,,,,,247.39899940002942,247.40158820000943,247.40158820000943,247.40158820000943,,,,250.40070540003944,j,1.1077929000020958,0.16731659998185933,250.40076440002304,250.40077700000256,None,,,,,,,,,,,,,,00019,001,2026-01-20_15h19.21.867,MST_task,2024.2.0,60.099187685008125,2026-01-20 15h19.29.517999 +0530,
,Scenes\189a.jpg,36,0,37,,,,,j,1.8023533999803476,0.1199858000036329,None,,,,,,37,0,36,250.4170635000337,,,,,,,,,,,,,,,,,,,,,,,250.40087120002136,250.4170635000337,250.90070360002574,,,,,,,,,,,,250.921762700018,,,,,,,,,,,250.91931470000418,250.921762700018,250.921762700018,250.921762700018,,,,253.91727760003414,j,1.8023533999803476,0.1199858000036329,253.91733060003025,253.91734250000445,None,,,,,,,,,,,,,,00019,001,2026-01-20_15h19.21.867,MST_task,2024.2.0,60.099187685008125,2026-01-20 15h19.29.517999 +0530,
,Scenes\157a.jpg,37,0,38,,,,,j,1.7204727999633178,0.1770200000028126,None,,,,,,38,0,37,253.933594800008,,,,,,,,,,,,,,,,,,,,,,,253.91741210001055,253.933594800008,254.41732420003973,,,,,,,,,,,,254.43565639998997,,,,,,,,,,,254.43327089998638,254.43565639998997,254.43565639998997,254.43565639998997,,,,257.4339067999972,j,1.7204727999633178,0.1770200000028126,257.4339593999903,257.4339713000227,None,,,,,,,,,,,,,,00019,001,2026-01-20_15h19.21.867,MST_task,2024.2.0,60.099187685008125,2026-01-20 15h19.29.517999 +0530,
,Scenes\120a.jpg,38,0,39,,,,,j,1.2518754999618977,0.18393910001032054,None,,,,,,39,0,38,257.450401100039,,,,,,,,,,,,,,,,,,,,,,,257.43405989999883,257.450401100039,257.9340430999873,,,,,,,,,,,,257.9529410999967,,,,,,,,,,,257.9504423000035,257.9529410999967,257.9529410999967,257.9529410999967,,,,260.9507307999884,j,1.2518754999618977,0.18393910001032054,260.9507853999967,260.9507972000283,None,,,,,,,,,,,,,,00019,001,2026-01-20_15h19.21.867,MST_task,2024.2.0,60.099187685008125,2026-01-20 15h19.29.517999 +0530,
,Scenes\136a.jpg,39,0,40,,,,,j,2.4572815999854356,0.23930620000464842,None,,,,,,40,0,39,260.96716150001157,,,,,,,,,,,,,,,,,,,,,,,260.9508863000083,260.96716150001157,261.4506784999976,,,,,,,,,,,,261.46764919999987,,,,,,,,,,,261.46475769998506,261.46764919999987,261.46764919999987,261.46764919999987,264.46708500001114,264.46708500001114,264.46708500001114,264.45095440000296,j,2.4572815999854356,0.23930620000464842,264.4510079000029,264.4510187000269,None,,,,,,,,,,,,,,00019,001,2026-01-20_15h19.21.867,MST_task,2024.2.0,60.099187685008125,2026-01-20 15h19.29.517999 +0530,
,Scenes\070a.jpg,40,0,41,,,,,None,,,f,0.05352330004097894,None,,,,41,0,40,264.46708500001114,,,,,,,,,,,,,,,,,,,,,,,264.45110350003233,264.46708500001114,264.9506640000036,,,,,,,,,,,,264.97182869998505,,,,,,,,,,,264.96923390001757,264.97182869998505,264.97182869998505,264.97182869998505,,,,267.9673477000324,None,,,267.967396299995,268.05075270001544,f,267.98367420001887,267.98367420001887,0.05352330004097894,None,,,,,,,,,,00019,001,2026-01-20_15h19.21.867,MST_task,2024.2.0,60.099187685008125,2026-01-20 15h19.29.517999 +0530,
,Scenes\103a.jpg,41,0,42,,,,,j,1.8009589000139385,0.22405089996755123,None,,,,,,42,0,41,268.06708060001256,,,,,,,,,,,,,,,,,,,,,,,268.05086600000504,268.06708060001256,268.55108230002224,,,,,,,,,,,,268.57202720001806,,,,,,,,,,,268.5697311999975,268.57202720001806,268.57202720001806,268.57202720001806,,,,271.5509490999975,j,1.8009589000139385,0.22405089996755123,271.55102459999034,271.5510393999866,None,,,,,,,,,,,,,,00019,001,2026-01-20_15h19.21.867,MST_task,2024.2.0,60.099187685008125,2026-01-20 15h19.29.517999 +0530,
,Objects\005a.jpg,42,0,43,,,,,f,2.1120463000261225,0.16109199996571988,None,,,,,,43,0,42,271.56718080001883,,,,,,,,,,,,,,,,,,,,,,,271.5511473999941,271.56718080001883,272.0506069000112,,,,,,,,,,,,272.0679995000246,,,,,,,,,,,272.06177520001074,272.0679995000246,272.0679995000246,272.0679995000246,275.0670828000293,275.0670828000293,275.0670828000293,275.0509619000368,f,2.1120463000261225,0.16109199996571988,275.0510166999884,275.0510609000339,None,,,,,,,,,,,,,,00019,001,2026-01-20_15h19.21.867,MST_task,2024.2.0,60.099187685008125,2026-01-20 15h19.29.517999 +0530,
,Objects\190a.jpg,43,0,44,,,,,f,2.3653347000363283,0.17599869996774942,None,,,,,,44,0,43,275.0670828000293,,,,,,,,,,,,,,,,,,,,,,,275.051153300039,275.0670828000293,275.55067219998455,,,,,,,,,,,,275.5673094000085,,,,,,,,,,,275.5627923000138,275.5673094000085,275.5673094000085,275.5673094000085,278.5670816000202,278.5670816000202,278.5670816000202,278.55099100002553,f,2.3653347000363283,0.17599869996774942,278.55104300001403,278.55105380003806,None,,,,,,,,,,,,,,00019,001,2026-01-20_15h19.21.867,MST_task,2024.2.0,60.099187685008125,2026-01-20 15h19.29.517999 +0530,
,Objects\156a.jpg,44,0,45,,,,,f,1.8488138999673538,0.2245290000573732,None,,,,,,45,0,44,278.5670816000202,,,,,,,,,,,,,,,,,,,,,,,278.5511170999962,278.5670816000202,279.05071899999166,,,,,,,,,,,,279.06725369999185,,,,,,,,,,,279.0622476999997,279.06725369999185,279.06725369999185,279.06725369999185,282.0671367000323,282.0671367000323,282.0671367000323,282.0509686000296,f,1.8488138999673538,0.2245290000573732,282.05102120002266,282.05103289999533,None,,,,,,,,,,,,,,00019,001,2026-01-20_15h19.21.867,MST_task,2024.2.0,60.099187685008125,2026-01-20 15h19.29.517999 +0530,
,Objects\110a.jpg,45,0,46,,,,,f,2.0609400999965146,0.17625909997150302,None,,,,,,46,0,45,282.0671367000323,,,,,,,,,,,,,,,,,,,,,,,282.0510967000155,282.0671367000323,282.551003200002,,,,,,,,,,,,282.56732750002993,,,,,,,,,,,282.5606324999826,282.56732750002993,282.56732750002993,282.56732750002993,285.56702240003506,285.56702240003506,285.56702240003506,285.55105670000194,f,2.0609400999965146,0.17625909997150302,285.5511090999935,285.55112080002436,None,,,,,,,,,,,,,,00019,001,2026-01-20_15h19.21.867,MST_task,2024.2.0,60.099187685008125,2026-01-20 15h19.29.517999 +0530,
,Objects\097a.jpg,46,0,47,,,,,j,1.3052152999443933,0.2158530000015162,None,,,,,,47,0,46,285.56702240003506,,,,,,,,,,,,,,,,,,,,,,,285.55157000001054,285.56702240003506,286.05065490002744,,,,,,,,,,,,286.06733290001284,,,,,,,,,,,286.0603689000127,286.06733290001284,286.06733290001284,286.06733290001284,289.0672452999861,289.0672452999861,289.0672452999861,289.0511248999974,j,1.3052152999443933,0.2158530000015162,289.051188500016,289.0511997999856,None,,,,,,,,,,,,,,00019,001,2026-01-20_15h19.21.867,MST_task,2024.2.0,60.099187685008125,2026-01-20 15h19.29.517999 +0530,
,Objects\080a.jpg,47,0,48,,,,,f,0.9087653000024147,0.2166130999685265,None,,,,,,48,0,47,289.0672452999861,,,,,,,,,,,,,,,,,,,,,,,289.0512661000248,289.0672452999861,289.55066790001,,,,,,,,,,,,289.56729800003814,,,,,,,,,,,289.56114310002886,289.56729800003814,289.56729800003814,289.56729800003814,292.56723769998644,292.56723769998644,292.56723769998644,292.55101779999677,f,0.9087653000024147,0.2166130999685265,292.5510731000104,292.5510843000375,None,,,,,,,,,,,,,,00019,001,2026-01-20_15h19.21.867,MST_task,2024.2.0,60.099187685008125,2026-01-20 15h19.29.517999 +0530,
,Objects\014a.jpg,48,0,49,,,,,f,1.0737473999615759,0.2075314000248909,None,,,,,,49,0,48,292.56723769998644,,,,,,,,,,,,,,,,,,,,,,,292.5511592000257,292.56723769998644,293.0507389000268,,,,,,,,,,,,293.06749119999586,,,,,,,,,,,293.0605218000128,293.06749119999586,293.06749119999586,293.06749119999586,296.0673209000379,296.0673209000379,296.0673209000379,296.0513720000163,f,1.0737473999615759,0.2075314000248909,296.0514443999855,296.05145670002094,None,,,,,,,,,,,,,,00019,001,2026-01-20_15h19.21.867,MST_task,2024.2.0,60.099187685008125,2026-01-20 15h19.29.517999 +0530,
,Scenes\020a.jpg,49,0,50,,,,,f,1.1040765999932773,0.22320440004114062,None,,,,,,50,0,49,296.0673209000379,,,,,,,,,,,,,,,,,,,,,,,296.05155340000056,296.0673209000379,296.5510252999957,,,,,,,,,,,,296.57261630002176,,,,,,,,,,,296.5703181999852,296.57261630002176,296.57261630002176,296.57261630002176,,,,299.5673938000109,f,1.1040765999932773,0.22320440004114062,299.5674473000108,299.56745889998274,None,,,,,,,,,,,,,,00019,001,2026-01-20_15h19.21.867,MST_task,2024.2.0,60.099187685008125,2026-01-20 15h19.29.517999 +0530,
,Scenes\161a.jpg,50,0,51,,,,,j,0.739780800009612,0.23245459998724982,None,,,,,,51,0,50,299.58385769999586,,,,,,,,,,,,,,,,,,,,,,,299.56754940003157,299.58385769999586,300.06761570001254,,,,,,,,,,,,300.08863429998746,,,,,,,,,,,300.08604790002573,300.08863429998746,300.08863429998746,300.08863429998746,,,,303.0840634999913,j,0.739780800009612,0.23245459998724982,303.0841717000003,303.0841903000255,None,,,,,,,,,,,,,,00019,001,2026-01-20_15h19.21.867,MST_task,2024.2.0,60.099187685008125,2026-01-20 15h19.29.517999 +0530,
,Scenes\066a.jpg,51,0,52,,,,,j,0.8268911000341177,0.24001309997402132,None,,,,,,52,0,51,303.1004810000304,,,,,,,,,,,,,,,,,,,,,,,303.08431050000945,303.1004810000304,303.5841323999921,,,,,,,,,,,,303.6011224000249,,,,,,,,,,,303.5958410000312,303.6011224000249,303.6011224000249,303.6011224000249,306.60055100003956,306.60055100003956,306.60055100003956,306.5843482000055,j,0.8268911000341177,0.24001309997402132,306.5844014000031,306.58441240002867,None,,,,,,,,,,,,,,00019,001,2026-01-20_15h19.21.867,MST_task,2024.2.0,60.099187685008125,2026-01-20 15h19.29.517999 +0530,
,Scenes\084a.jpg,52,0,53,,,,,j,0.9082383999484591,0.2336665000184439,None,,,,,,53,0,52,306.60055100003956,,,,,,,,,,,,,,,,,,,,,,,306.5844974000356,306.60055100003956,307.0842265000101,,,,,,,,,,,,307.1040401000064,,,,,,,,,,,307.1016912999912,307.1040401000064,307.1040401000064,307.1040401000064,,,,310.1008215000038,j,0.9082383999484591,0.2336665000184439,310.1008799999836,310.1008921000175,None,,,,,,,,,,,,,,00019,001,2026-01-20_15h19.21.867,MST_task,2024.2.0,60.099187685008125,2026-01-20 15h19.29.517999 +0530,
,Scenes\145a.jpg,53,0,54,,,,,j,1.2152901000226848,0.20093900000210851,None,,,,,,54,0,53,310.11720809998224,,,,,,,,,,,,,,,,,,,,,,,310.10098149999976,310.11720809998224,310.60091480001574,,,,,,,,,,,,310.62152420001803,,,,,,,,,,,310.61897700000554,310.62152420001803,310.62152420001803,310.62152420001803,,,,313.6174630000023,j,1.2152901000226848,0.20093900000210851,313.6175184000167,313.6175302999909,None,,,,,,,,,,,,,,00019,001,2026-01-20_15h19.21.867,MST_task,2024.2.0,60.099187685008125,2026-01-20 15h19.29.517999 +0530,
,Scenes\107a.jpg,54,0,55,,,,,j,1.1341838000225835,0.23229299997910857,None,,,,,,55,0,54,313.63384160003625,,,,,,,,,,,,,,,,,,,,,,,313.6176228999975,313.63384160003625,314.11752140003955,,,,,,,,,,,,314.1351149000111,,,,,,,,,,,314.1326707000262,314.1351149000111,314.1351149000111,314.1351149000111,,,,317.117822900007,j,1.1341838000225835,0.23229299997910857,317.1178765000077,317.11788780003553,None,,,,,,,,,,,,,,00019,001,2026-01-20_15h19.21.867,MST_task,2024.2.0,60.099187685008125,2026-01-20 15h19.29.517999 +0530,
,Scenes\121a.jpg,55,0,56,,,,,j,1.1599696999765001,0.22390089998953044,None,,,,,,56,0,55,317.1339144000085,,,,,,,,,,,,,,,,,,,,,,,317.1179538000142,317.1339144000085,317.61778219998814,,,,,,,,,,,,317.63670100003947,,,,,,,,,,,317.63416529999813,317.63670100003947,317.63670100003947,317.63670100003947,,,,320.6341798999929,j,1.1599696999765001,0.22390089998953044,320.63423480000347,320.63424650003435,None,,,,,,,,,,,,,,00019,001,2026-01-20_15h19.21.867,MST_task,2024.2.0,60.099187685008125,2026-01-20 15h19.29.517999 +0530,
,Objects\027a.jpg,56,0,57,,,,,f,1.0529736999887973,0.22397859999909997,None,,,,,,57,0,56,320.65048030001344,,,,,,,,,,,,,,,,,,,,,,,320.6343356000143,320.65048030001344,321.13400980003644,,,,,,,,,,,,321.1509691000101,,,,,,,,,,,321.145042499993,321.1509691000101,321.1509691000101,321.1509691000101,324.1506093000062,324.1506093000062,324.1506093000062,324.1344776999904,f,1.0529736999887973,0.22397859999909997,324.13453159999335,324.1345424000174,None,,,,,,,,,,,,,,00019,001,2026-01-20_15h19.21.867,MST_task,2024.2.0,60.099187685008125,2026-01-20 15h19.29.517999 +0530,
,Objects\112a.jpg,57,0,58,,,,,f,0.9703674999764189,0.19156649999786168,None,,,,,,58,0,57,324.1506093000062,,,,,,,,,,,,,,,,,,,,,,,324.13461290003033,324.1506093000062,324.6339731999906,,,,,,,,,,,,324.65078770002583,,,,,,,,,,,324.6442749000271,324.65078770002583,324.65078770002583,324.65078770002583,327.65060809999704,327.65060809999704,327.65060809999704,327.63438290002523,f,0.9703674999764189,0.19156649999786168,327.634445600037,327.63445740001043,None,,,,,,,,,,,,,,00019,001,2026-01-20_15h19.21.867,MST_task,2024.2.0,60.099187685008125,2026-01-20 15h19.29.517999 +0530,
,Objects\047a.jpg,58,0,59,,,,,f,0.749573600012809,0.2090578000061214,None,,,,,,59,0,58,327.65060809999704,,,,,,,,,,,,,,,,,,,,,,,327.6345276000211,327.65060809999704,328.1339757000096,,,,,,,,,,,,328.15064120001625,,,,,,,,,,,328.1440494999988,328.15064120001625,328.15064120001625,328.15064120001625,331.15057080000406,331.15057080000406,331.15057080000406,331.1344075000379,f,0.749573600012809,0.2090578000061214,331.1344759000349,331.1344885000144,None,,,,,,,,,,,,,,00019,001,2026-01-20_15h19.21.867,MST_task,2024.2.0,60.099187685008125,2026-01-20 15h19.29.517999 +0530,
,Objects\056a.jpg,59,0,60,,,,,f,1.297472900012508,0.2082990999915637,None,,,,,,60,0,59,331.15057080000406,,,,,,,,,,,,,,,,,,,,,,,331.13458459998947,331.15057080000406,331.63398540002527,,,,,,,,,,,,331.6506960000261,,,,,,,,,,,331.643724500027,331.6506960000261,331.6506960000261,331.6506960000261,334.65054080000846,334.65054080000846,334.65054080000846,334.6343251999933,f,1.297472900012508,0.2082990999915637,334.63437819998944,334.63438980001956,None,,,,,,,,,,,,,,00019,001,2026-01-20_15h19.21.867,MST_task,2024.2.0,60.099187685008125,2026-01-20 15h19.29.517999 +0530,
,Objects\013a.jpg,60,0,61,,,,,f,1.8614223999902606,0.24032669997541234,None,,,,,,61,0,60,334.65054080000846,,,,,,,,,,,,,,,,,,,,,,,334.63445529999444,334.65054080000846,335.1340812999988,,,,,,,,,,,,335.15061579999747,,,,,,,,,,,335.1435841000057,335.15061579999747,335.15061579999747,335.15061579999747,338.1505401000031,338.1505401000031,338.1505401000031,338.13416940002935,f,1.8614223999902606,0.24032669997541234,338.13422579999315,338.13423670001794,None,,,,,,,,,,,,,,00019,001,2026-01-20_15h19.21.867,MST_task,2024.2.0,60.099187685008125,2026-01-20 15h19.29.517999 +0530,
,Objects\189a.jpg,61,0,62,,,,,f,2.009184600028675,0.23991149995708838,None,,,,,,62,0,61,338.1505401000031,,,,,,,,,,,,,,,,,,,,,,,338.1343024999951,338.1505401000031,338.6340954999905,,,,,,,,,,,,338.65081510000164,,,,,,,,,,,338.6442090999917,338.65081510000164,338.65081510000164,338.65081510000164,341.6504504000186,341.6504504000186,341.6504504000186,341.6343077000347,f,2.009184600028675,0.23991149995708838,341.6343610000331,341.6343718999997,None,,,,,,,,,,,,,,00019,001,2026-01-20_15h19.21.867,MST_task,2024.2.0,60.099187685008125,2026-01-20 15h19.29.517999 +0530,
,Objects\088a.jpg,62,0,63,,,,,f,1.7894640999729745,0.23314780002692714,None,,,,,,63,0,62,341.6504504000186,,,,,,,,,,,,,,,,,,,,,,,341.6344569000066,341.6504504000186,342.13404159998754,,,,,,,,,,,,342.1506794000161,,,,,,,,,,,342.1442005999852,342.1506794000161,342.1506794000161,342.1506794000161,345.1505541999941,345.1505541999941,345.1505541999941,345.1343423000071,f,1.7894640999729745,0.23314780002692714,345.1343962000101,345.13440720003564,None,,,,,,,,,,,,,,00019,001,2026-01-20_15h19.21.867,MST_task,2024.2.0,60.099187685008125,2026-01-20 15h19.29.517999 +0530,
,Scenes\076a.jpg,63,0,64,,,,,j,1.4758182000368834,0.1513349000015296,None,,,,,,64,0,63,345.1505541999941,,,,,,,,,,,,,,,,,,,,,,,345.13449229998514,345.1505541999941,345.6341168000363,,,,,,,,,,,,345.65701110003283,,,,,,,,,,,345.65461810003035,345.65701110003283,345.65701110003283,345.65701110003283,,,,348.6506859000074,j,1.4758182000368834,0.1513349000015296,348.65078820002964,348.65080420003505,None,,,,,,,,,,,,,,00019,001,2026-01-20_15h19.21.867,MST_task,2024.2.0,60.099187685008125,2026-01-20 15h19.29.517999 +0530,
,Scenes\124a.jpg,64,0,65,,,,,j,1.1399474000209011,0.23973219998879358,None,,,,,,65,0,64,348.6672103999881,,,,,,,,,,,,,,,,,,,,,,,348.6509132999927,348.6672103999881,349.15066470002057,,,,,,,,,,,,349.1690970000345,,,,,,,,,,,349.1664250000031,349.1690970000345,349.1690970000345,349.1690970000345,,,,352.16743490000954,j,1.1399474000209011,0.23973219998879358,352.16749459999846,352.1675062000286,None,,,,,,,,,,,,,,00019,001,2026-01-20_15h19.21.867,MST_task,2024.2.0,60.099187685008125,2026-01-20 15h19.29.517999 +0530,
,Scenes\177a.jpg,65,0,66,,,,,j,1.6490737000131048,0.25538519996916875,None,,,,,,66,0,65,352.1836219000397,,,,,,,,,,,,,,,,,,,,,,,352.1675994999823,352.1836219000397,352.66747680003755,,,,,,,,,,,,352.683961600007,,,,,,,,,,,352.68147599999793,352.683961600007,352.683961600007,352.683961600007,355.6847034000093,355.6847034000093,355.6847034000093,355.66771350003546,j,1.6490737000131048,0.25538519996916875,355.6677664000308,355.6677770999959,None,,,,,,,,,,,,,,00019,001,2026-01-20_15h19.21.867,MST_task,2024.2.0,60.099187685008125,2026-01-20 15h19.29.517999 +0530,
,Scenes\078a.jpg,66,0,67,,,,,j,2.1466481999959797,0.20794809999642894,None,,,,,,67,0,66,355.6847034000093,,,,,,,,,,,,,,,,,,,,,,,355.6678427000297,355.6847034000093,356.1673779999837,,,,,,,,,,,,356.1863305000006,,,,,,,,,,,356.1837605999899,356.1863305000006,356.1863305000006,356.1863305000006,,,,359.1839219999965,j,2.1466481999959797,0.20794809999642894,359.1840147000039,359.1840312000131,None,,,,,,,,,,,,,,00019,001,2026-01-20_15h19.21.867,MST_task,2024.2.0,60.099187685008125,2026-01-20 15h19.29.517999 +0530,
,Scenes\167a.jpg,67,0,68,,,,,f,2.20364459999837,0.18433709995588288,None,,,,,,68,0,67,359.2003706000396,,,,,,,,,,,,,,,,,,,,,,,359.18412140000146,359.2003706000396,359.684021699999,,,,,,,,,,,,359.7052635999862,,,,,,,,,,,359.7027450000169,359.7052635999862,359.7052635999862,359.7052635999862,,,,362.70071350003127,f,2.20364459999837,0.18433709995588288,362.7007745000301,362.7007872000104,None,,,,,,,,,,,,,,00019,001,2026-01-20_15h19.21.867,MST_task,2024.2.0,60.099187685008125,2026-01-20 15h19.29.517999 +0530,
,Scenes\188a.jpg,68,0,69,,,,,j,1.5956267999717966,0.20759910001652315,None,,,,,,69,0,68,362.7171684000059,,,,,,,,,,,,,,,,,,,,,,,362.70088610000676,362.7171684000059,363.2007144000381,,,,,,,,,,,,363.21774140000343,,,,,,,,,,,363.2147275999887,363.21774140000343,363.21774140000343,363.21774140000343,366.21711140003754,366.21711140003754,366.21711140003754,366.2010040000314,j,1.5956267999717966,0.20759910001652315,366.2010567000252,366.20106829999713,None,,,,,,,,,,,,,,00019,001,2026-01-20_15h19.21.867,MST_task,2024.2.0,60.099187685008125,2026-01-20 15h19.29.517999 +0530,
,Scenes\026a.jpg,69,0,70,,,,,j,1.1939771000179462,0.18511730001773685,None,,,,,,70,0,69,366.21711140003754,,,,,,,,,,,,,,,,,,,,,,,366.20113370002946,366.21711140003754,366.7006535999826,,,,,,,,,,,,366.7220868000295,,,,,,,,,,,366.7195847000112,366.7220868000295,366.7220868000295,366.7220868000295,,,,369.71735460002674,j,1.1939771000179462,0.18511730001773685,369.7174065000145,369.7174185999902,None,,,,,,,,,,,,,,00019,001,2026-01-20_15h19.21.867,MST_task,2024.2.0,60.099187685008125,2026-01-20 15h19.29.517999 +0530,
,Objects\113a.jpg,70,0,71,,,,,f,1.8419323000125587,0.19194210000569,None,,,,,,71,0,70,369.73361400002614,,,,,,,,,,,,,,,,,,,,,,,369.71748600003775,369.73361400002614,370.2172886999906,,,,,,,,,,,,370.2341302999994,,,,,,,,,,,370.22819360002177,370.2341302999994,370.2341302999994,370.2341302999994,373.23365409998223,373.23365409998223,373.23365409998223,373.2178951000096,f,1.8419323000125587,0.19194210000569,373.2179663000279,373.2179778999998,None,,,,,,,,,,,,,,00019,001,2026-01-20_15h19.21.867,MST_task,2024.2.0,60.099187685008125,2026-01-20 15h19.29.517999 +0530,
,Objects\010a.jpg,71,0,72,,,,,f,1.334837600006722,0.1759942999924533,None,,,,,,72,0,71,373.23365409998223,,,,,,,,,,,,,,,,,,,,,,,373.2180470000021,373.23365409998223,373.7175404999871,,,,,,,,,,,,373.73390009999275,,,,,,,,,,,373.72826190001797,373.73390009999275,373.73390009999275,373.73390009999275,376.73381400003564,376.73381400003564,376.73381400003564,376.7176584000117,f,1.334837600006722,0.1759942999924533,376.7177136000246,376.7177251999965,None,,,,,,,,,,,,,,00019,001,2026-01-20_15h19.21.867,MST_task,2024.2.0,60.099187685008125,2026-01-20 15h19.29.517999 +0530,
,Objects\168a.jpg,72,0,73,,,,,f,2.5626732999808155,0.14401060005184263,None,,,,,,73,0,72,376.73381400003564,,,,,,,,,,,,,,,,,,,,,,,376.7177914000349,376.73381400003564,377.2173575999914,,,,,,,,,,,,377.2339697999996,,,,,,,,,,,377.22703660000116,377.2339697999996,377.2339697999996,377.2339697999996,380.2337217000313,380.2337217000313,380.2337217000313,380.2176726000034,f,2.5626732999808155,0.14401060005184263,380.2177259000018,380.21773700002814,None,,,,,,,,,,,,,,00019,001,2026-01-20_15h19.21.867,MST_task,2024.2.0,60.099187685008125,2026-01-20 15h19.29.517999 +0530,
,Objects\109a.jpg,73,0,74,,,,,f,1.2303869999595918,0.2160031000385061,None,,,,,,74,0,73,380.2337217000313,,,,,,,,,,,,,,,,,,,,,,,380.2178269000142,380.2337217000313,380.7175786999869,,,,,,,,,,,,380.7338865000056,,,,,,,,,,,380.72883680002997,380.7338865000056,380.7338865000056,380.7338865000056,383.7336060000234,383.7336060000234,383.7336060000234,383.717604400008,f,1.2303869999595918,0.2160031000385061,383.7176665000152,383.71767799998634,None,,,,,,,,,,,,,,00019,001,2026-01-20_15h19.21.867,MST_task,2024.2.0,60.099187685008125,2026-01-20 15h19.29.517999 +0530,
,Objects\024a.jpg,74,0,75,,,,,f,0.7867890000343323,0.1999709999654442,None,,,,,,75,0,74,383.7336060000234,,,,,,,,,,,,,,,,,,,,,,,383.7177704999922,383.7336060000234,384.2173797999858,,,,,,,,,,,,384.23396839998895,,,,,,,,,,,384.2274724000017,384.23396839998895,384.23396839998895,384.23396839998895,387.2336631999933,387.2336631999933,387.2336631999933,387.21756780002033,f,0.7867890000343323,0.1999709999654442,387.2176196000073,387.21763040003134,None,,,,,,,,,,,,,,00019,001,2026-01-20_15h19.21.867,MST_task,2024.2.0,60.099187685008125,2026-01-20 15h19.29.517999 +0530,
,Objects\100a.jpg,75,0,76,,,,,f,2.5991617000545375,0.16712919995188713,None,,,,,,76,0,75,387.2336631999933,,,,,,,,,,,,,,,,,,,,,,,387.21771599998465,387.2336631999933,387.7177915000357,,,,,,,,,,,,,,,,,,,,,,,387.7275118000107,387.7338187000132,387.7338187000132,387.7338187000132,,,,390.7179482000065,f,2.5991617000545375,0.16712919995188713,390.71804930001963,390.7180652000243,None,,,,,,,,,,,,,,00019,001,2026-01-20_15h19.21.867,MST_task,2024.2.0,60.099187685008125,2026-01-20 15h19.29.517999 +0530,
,Objects\125a.jpg,76,0,77,,,,,j,1.338861700030975,0.20000199996866286,None,,,,,,77,0,76,390.7338305999874,,,,,,,,,,,,,,,,,,,,,,,390.7181415000232,390.7338305999874,391.2173783000326,,,,,,,,,,,,391.2339140000404,,,,,,,,,,,391.227360400022,391.2339140000404,391.2339140000404,391.2339140000404,394.23377360001905,394.23377360001905,394.23377360001905,394.2177474999917,j,1.338861700030975,0.20000199996866286,394.2178100000019,394.2178215000313,None,,,,,,,,,,,,,,00019,001,2026-01-20_15h19.21.867,MST_task,2024.2.0,60.099187685008125,2026-01-20 15h19.29.517999 +0530,
,Scenes\016a.jpg,77,0,78,,,,,j,1.2385059000225738,0.2561800999683328,None,,,,,,78,0,77,394.23377360001905,,,,,,,,,,,,,,,,,,,,,,,394.2179130000295,394.23377360001905,394.7174137000111,,,,,,,,,,,,394.7342759000021,,,,,,,,,,,394.7286421000026,394.7342759000021,394.7342759000021,394.7342759000021,397.7337285000249,397.7337285000249,397.7337285000249,397.71762469998794,j,1.2385059000225738,0.2561800999683328,397.71768000000156,397.71769120002864,None,,,,,,,,,,,,,,00019,001,2026-01-20_15h19.21.867,MST_task,2024.2.0,60.099187685008125,2026-01-20 15h19.29.517999 +0530,
,Scenes\191a.jpg,78,0,79,,,,,j,1.7535359000321478,0.20741129998350516,None,,,,,,79,0,78,397.7337285000249,,,,,,,,,,,,,,,,,,,,,,,397.7177736000158,397.7337285000249,398.2174479000387,,,,,,,,,,,,398.23509620002005,,,,,,,,,,,398.2327001999947,398.23509620002005,398.23509620002005,398.23509620002005,,,,401.2338156999904,j,1.7535359000321478,0.20741129998350516,401.2338686999865,401.23388040001737,None,,,,,,,,,,,,,,00019,001,2026-01-20_15h19.21.867,MST_task,2024.2.0,60.099187685008125,2026-01-20 15h19.29.517999 +0530,
,Scenes\113a.jpg,79,0,80,,,,,j,0.9895397999789566,0.2236220000195317,None,,,,,,80,0,79,401.25044309999794,,,,,,,,,,,,,,,,,,,,,,,401.23394880001433,401.25044309999794,401.73394489998464,,,,,,,,,,,,401.7508835000335,,,,,,,,,,,401.74609800003236,401.7508835000335,401.7508835000335,401.7508835000335,404.7504318000283,404.7504318000283,404.7504318000283,404.7342932000174,j,0.9895397999789566,0.2236220000195317,404.734354300017,404.73436559998663,None,,,,,,,,,,,,,,00019,001,2026-01-20_15h19.21.867,MST_task,2024.2.0,60.099187685008125,2026-01-20 15h19.29.517999 +0530,
,Scenes\034a.jpg,80,0,81,,,,,j,2.810922200034838,0.13710829999763519,None,,,,,,81,0,80,404.7504318000283,,,,,,,,,,,,,,,,,,,,,,,404.73445689998334,404.7504318000283,405.2340736000333,,,,,,,,,,,,405.25795110000763,,,,,,,,,,,405.2552332000341,405.25795110000763,405.25795110000763,405.25795110000763,,,,408.2506305000279,j,2.810922200034838,0.13710829999763519,408.2506818000111,408.25069379998604,None,,,,,,,,,,,,,,00019,001,2026-01-20_15h19.21.867,MST_task,2024.2.0,60.099187685008125,2026-01-20 15h19.29.517999 +0530,
,Scenes\009a.jpg,81,0,82,,,,,j,2.9785224000224844,None,None,,,,,,82,0,81,408.2671610999969,,,,,,,,,,,,,,,,,,,,,,,408.250780900009,408.2671610999969,408.750843900023,,,,,,,,,,,,408.77085169998463,,,,,,,,,,,408.76828610000666,408.77085169998463,408.77085169998463,408.77085169998463,,,,411.76747740001883,j,2.9785224000224844,None,411.76752940000733,411.76754130003974,None,,,,,,,,,,,,,,00019,001,2026-01-20_15h19.21.867,MST_task,2024.2.0,60.099187685008125,2026-01-20 15h19.29.517999 +0530,
,Scenes\094a.jpg,82,0,83,,,,,f,0.9476897999993525,0.21561970002949238,None,,,,,,83,0,82,411.78387700003805,,,,,,,,,,,,,,,,,,,,,,,411.76760750001995,411.78387700003805,412.26763910002774,,,,,,,,,,,,412.28959639999084,,,,,,,,,,,412.2870643000351,412.28959639999084,412.28959639999084,412.28959639999084,,,,415.28390029998263,f,0.9476897999993525,0.21561970002949238,415.28396030003205,415.28397220000625,None,,,,,,,,,,,,,,00019,001,2026-01-20_15h19.21.867,MST_task,2024.2.0,60.099187685008125,2026-01-20 15h19.29.517999 +0530,
,Scenes\069a.jpg,83,0,84,,,,,j,0.9719512999872677,0.19180569995660335,None,,,,,,84,0,83,415.3004358999897,,,,,,,,,,,,,,,,,,,,,,,415.28404410002986,415.3004358999897,415.7841380999889,,,,,,,,,,,,415.8011017999961,,,,,,,,,,,415.79824169998756,415.8011017999961,415.8011017999961,415.8011017999961,418.8004349999828,418.8004349999828,418.8004349999828,418.7843399000121,j,0.9719512999872677,0.19180569995660335,418.78440220002085,418.7844138999935,None,,,,,,,,,,,,,,00019,001,2026-01-20_15h19.21.867,MST_task,2024.2.0,60.099187685008125,2026-01-20 15h19.29.517999 +0530,
,Objects\034a.jpg,84,0,85,,,,,f,1.01529730000766,0.2003882999997586,None,,,,,,85,0,84,418.8004349999828,,,,,,,,,,,,,,,,,,,,,,,418.7845060999971,418.8004349999828,419.2840988000389,,,,,,,,,,,,419.3009266000008,,,,,,,,,,,419.2944287999999,419.3009266000008,419.3009266000008,419.3009266000008,422.30093480000505,422.30093480000505,422.30093480000505,422.2845224000048,f,1.01529730000766,0.2003882999997586,422.28457319998415,422.2845842000097,None,,,,,,,,,,,,,,00019,001,2026-01-20_15h19.21.867,MST_task,2024.2.0,60.099187685008125,2026-01-20 15h19.29.517999 +0530,
,Objects\007a.jpg,85,0,86,,,,,f,0.6124344999552704,0.22278810001444072,None,,,,,,86,0,85,422.30093480000505,,,,,,,,,,,,,,,,,,,,,,,422.28466870001284,422.30093480000505,422.78415379999205,,,,,,,,,,,,422.8007186999894,,,,,,,,,,,422.7950534999836,422.8007186999894,422.8007186999894,422.8007186999894,425.8004901999957,425.8004901999957,425.8004901999957,425.78419909998775,f,0.6124344999552704,0.22278810001444072,425.7842567000189,425.784267799987,None,,,,,,,,,,,,,,00019,001,2026-01-20_15h19.21.867,MST_task,2024.2.0,60.099187685008125,2026-01-20 15h19.29.517999 +0530,
,Objects\136a.jpg,86,0,87,,,,,f,1.1352485000388697,0.17606689996318892,None,,,,,,87,0,86,425.8004901999957,,,,,,,,,,,,,,,,,,,,,,,425.78433619998395,425.8004901999957,426.28403069998603,,,,,,,,,,,,426.3008094000397,,,,,,,,,,,426.2935576000018,426.3008094000397,426.3008094000397,426.3008094000397,429.30053020000923,429.30053020000923,429.30053020000923,429.284444799996,f,1.1352485000388697,0.17606689996318892,429.28449789999286,429.28450930002145,None,,,,,,,,,,,,,,00019,001,2026-01-20_15h19.21.867,MST_task,2024.2.0,60.099187685008125,2026-01-20 15h19.29.517999 +0530,
,Objects\151a.jpg,87,0,88,,,,,f,1.4753255000105128,0.20817260001786053,None,,,,,,88,0,87,429.30053020000923,,,,,,,,,,,,,,,,,,,,,,,429.2845984000014,429.30053020000923,429.78401440003654,,,,,,,,,,,,429.800830400025,,,,,,,,,,,429.79403460002504,429.800830400025,429.800830400025,429.800830400025,432.80057860002853,432.80057860002853,432.80057860002853,432.78445780003676,f,1.4753255000105128,0.20817260001786053,432.7845092000207,432.7845202999888,None,,,,,,,,,,,,,,00019,001,2026-01-20_15h19.21.867,MST_task,2024.2.0,60.099187685008125,2026-01-20 15h19.29.517999 +0530,
,Objects\169a.jpg,88,0,89,,,,,j,1.1205471000284888,0.1831483999849297,None,,,,,,89,0,88,432.80057860002853,,,,,,,,,,,,,,,,,,,,,,,432.78458490001503,432.80057860002853,433.28396229998907,,,,,,,,,,,,433.3006725999876,,,,,,,,,,,433.29395880002994,433.3006725999876,433.3006725999876,433.3006725999876,436.30045229999814,436.30045229999814,436.30045229999814,436.28439550002804,j,1.1205471000284888,0.1831483999849297,436.28445500001544,436.2844667999889,None,,,,,,,,,,,,,,00019,001,2026-01-20_15h19.21.867,MST_task,2024.2.0,60.099187685008125,2026-01-20 15h19.29.517999 +0530,
,Objects\018a.jpg,89,0,90,,,,,f,1.4999427000293508,0.21571670001139864,None,,,,,,90,0,89,436.30045229999814,,,,,,,,,,,,,,,,,,,,,,,436.2845333000296,436.30045229999814,436.78416570002446,,,,,,,,,,,,436.8006433999981,,,,,,,,,,,436.79479190002894,436.8006433999981,436.8006433999981,436.8006433999981,439.80041399999755,439.80041399999755,439.80041399999755,439.78440890001366,f,1.4999427000293508,0.21571670001139864,439.78446200001054,439.7844730000361,None,,,,,,,,,,,,,,00019,001,2026-01-20_15h19.21.867,MST_task,2024.2.0,60.099187685008125,2026-01-20 15h19.29.517999 +0530,
,Objects\143a.jpg,90,0,91,,,,,f,1.5913871999946423,0.21621139999479055,None,,,,,,91,0,90,439.80041399999755,,,,,,,,,,,,,,,,,,,,,,,439.7845390000148,439.80041399999755,440.2838041000068,,,,,,,,,,,,440.30063160002464,,,,,,,,,,,440.2936619000393,440.30063160002464,440.30063160002464,440.30063160002464,443.300495100033,443.300495100033,443.300495100033,443.2845019000233,f,1.5913871999946423,0.21621139999479055,443.28456850000657,443.28458000003593,None,,,,,,,,,,,,,,00019,001,2026-01-20_15h19.21.867,MST_task,2024.2.0,60.099187685008125,2026-01-20 15h19.29.517999 +0530,
,Scenes\142a.jpg,91,0,92,,,,,j,1.440749200002756,0.2160007999627851,None,,,,,,92,0,91,443.300495100033,,,,,,,,,,,,,,,,,,,,,,,443.28464880003594,443.300495100033,443.7839892000193,,,,,,,,,,,,443.80372339999303,,,,,,,,,,,443.8014676999883,443.80372339999303,443.80372339999303,443.80372339999303,,,,446.8006869000383,j,1.440749200002756,0.2160007999627851,446.8007476000348,446.80076020001434,None,,,,,,,,,,,,,,00019,001,2026-01-20_15h19.21.867,MST_task,2024.2.0,60.099187685008125,2026-01-20 15h19.29.517999 +0530,
,Scenes\171a.jpg,92,0,93,,,,,f,2.362181500007864,0.22504739998839796,None,,,,,,93,0,92,446.8171384999878,,,,,,,,,,,,,,,,,,,,,,,446.80086190003203,446.8171384999878,447.300703099987,,,,,,,,,,,,447.32198549999157,,,,,,,,,,,447.3196033000131,447.32198549999157,447.32198549999157,447.32198549999157,,,,450.3173231999972,f,2.362181500007864,0.22504739998839796,450.31737579999026,450.3173881000257,None,,,,,,,,,,,,,,00019,001,2026-01-20_15h19.21.867,MST_task,2024.2.0,60.099187685008125,2026-01-20 15h19.29.517999 +0530,
,Scenes\180a.jpg,93,0,94,,,,,j,1.3280759999761358,0.1920529999770224,None,,,,,,94,0,93,450.3337418999872,,,,,,,,,,,,,,,,,,,,,,,450.3174766000011,450.3337418999872,450.8176420000382,,,,,,,,,,,,450.83652210002765,,,,,,,,,,,450.83403860003455,450.83652210002765,450.83652210002765,450.83652210002765,,,,453.83401990000857,j,1.3280759999761358,0.1920529999770224,453.83408900001086,453.8341020999942,None,,,,,,,,,,,,,,00019,001,2026-01-20_15h19.21.867,MST_task,2024.2.0,60.099187685008125,2026-01-20 15h19.29.517999 +0530,
,Scenes\041a.jpg,94,0,95,,,,,j,1.5215770999784581,0.17531349998898804,None,,,,,,95,0,94,453.8505705000134,,,,,,,,,,,,,,,,,,,,,,,453.8341791999992,453.8505705000134,454.3339976000134,,,,,,,,,,,,454.355203300016,,,,,,,,,,,454.35283889999846,454.355203300016,454.355203300016,454.355203300016,,,,457.35083980002673,j,1.5215770999784581,0.17531349998898804,457.35090680001304,457.3509189999895,None,,,,,,,,,,,,,,00019,001,2026-01-20_15h19.21.867,MST_task,2024.2.0,60.099187685008125,2026-01-20 15h19.29.517999 +0530,
,Scenes\039a.jpg,95,0,96,,,,,j,1.0478662000386976,0.2239075999823399,None,,,,,,96,0,95,457.3672719000024,,,,,,,,,,,,,,,,,,,,,,,457.3509955999907,457.3672719000024,457.8507197999861,,,,,,,,,,,,457.8681573999929,,,,,,,,,,,457.8657254999853,457.8681573999929,457.8681573999929,457.8681573999929,460.86708779999753,460.86708779999753,460.86708779999753,460.85103530000197,j,1.0478662000386976,0.2239075999823399,460.85108920000494,460.8511002000305,None,,,,,,,,,,,,,,00019,001,2026-01-20_15h19.21.867,MST_task,2024.2.0,60.099187685008125,2026-01-20 15h19.29.517999 +0530,
,Scenes\074a.jpg,96,0,97,,,,,j,2.2511703000054695,0.21601009997539222,None,,,,,,97,0,96,460.86708779999753,,,,,,,,,,,,,,,,,,,,,,,460.8511857999838,460.86708779999753,461.35073340003146,,,,,,,,,,,,461.3694910000195,,,,,,,,,,,461.367043700011,461.3694910000195,461.3694910000195,461.3694910000195,,,,464.3674108000123,j,2.2511703000054695,0.21601009997539222,464.3674762999872,464.36748830002034,None,,,,,,,,,,,,,,00019,001,2026-01-20_15h19.21.867,MST_task,2024.2.0,60.099187685008125,2026-01-20 15h19.29.517999 +0530,
,Scenes\086a.jpg,97,0,98,,,,,f,2.292008700023871,0.2324019999941811,None,,,,,,98,0,97,464.38371920003556,,,,,,,,,,,,,,,,,,,,,,,464.36759430001257,464.38371920003556,464.8674314999953,,,,,,,,,,,,464.88854940002784,,,,,,,,,,,464.88626070000464,464.88854940002784,464.88854940002784,464.88854940002784,,,,467.8838342000381,f,2.292008700023871,0.2324019999941811,467.88388889998896,467.88390080002137,None,,,,,,,,,,,,,,00019,001,2026-01-20_15h19.21.867,MST_task,2024.2.0,60.099187685008125,2026-01-20 15h19.29.517999 +0530,
,Objects\067a.jpg,98,0,99,,,,,f,1.7717087999917567,0.168003199971281,None,,,,,,99,0,98,467.90057599998545,,,,,,,,,,,,,,,,,,,,,,,467.8839693000191,467.90057599998545,468.3839610000141,,,,,,,,,,,,468.40100990002975,,,,,,,,,,,468.3948134999955,468.40100990002975,468.40100990002975,468.40100990002975,,,,471.3839755000081,f,1.7717087999917567,0.168003199971281,471.38402840000344,471.38403980003204,None,,,,,,,,,,,,,,00019,001,2026-01-20_15h19.21.867,MST_task,2024.2.0,60.099187685008125,2026-01-20 15h19.29.517999 +0530,
,Objects\126a.jpg,99,0,100,,,,,f,1.655502300010994,0.19308250001631677,None,,,,,,100,0,99,471.40039700001944,,,,,,,,,,,,,,,,,,,,,,,471.3841159000294,471.40039700001944,471.88398650003364,,,,,,,,,,,,471.9007670999854,,,,,,,,,,,471.89418810000643,471.9007670999854,471.9007670999854,471.9007670999854,474.90044200001284,474.90044200001284,474.90044200001284,474.8843565999996,f,1.655502300010994,0.19308250001631677,474.884422800038,474.88443480001297,None,,,,,,,,,,,,,,00019,001,2026-01-20_15h19.21.867,MST_task,2024.2.0,60.099187685008125,2026-01-20 15h19.29.517999 +0530,
,Objects\069a.jpg,100,0,101,,,,,j,1.8677176999626681,0.19208200002321973,None,,,,,,101,0,100,474.90044200001284,,,,,,,,,,,,,,,,,,,,,,,474.88450159999775,474.90044200001284,475.3838884999859,,,,,,,,,,,,475.40070280001964,,,,,,,,,,,475.3940231000306,475.40070280001964,475.40070280001964,475.40070280001964,478.40044040000066,478.40044040000066,478.40044040000066,478.3842992000282,j,1.8677176999626681,0.19208200002321973,478.38436030002777,478.3843717999989,None,,,,,,,,,,,,,,00019,001,2026-01-20_15h19.21.867,MST_task,2024.2.0,60.099187685008125,2026-01-20 15h19.29.517999 +0530,
,Objects\070a.jpg,101,0,102,,,,,f,0.8961723999818787,0.2079974000225775,None,,,,,,102,0,101,478.40044040000066,,,,,,,,,,,,,,,,,,,,,,,478.38446020003175,478.40044040000066,478.8839235000196,,,,,,,,,,,,478.90067850000923,,,,,,,,,,,478.8936585999909,478.90067850000923,478.90067850000923,478.90067850000923,481.9004110000096,481.9004110000096,481.9004110000096,481.8843101999955,f,0.8961723999818787,0.2079974000225775,481.8843622999848,481.8843739000149,None,,,,,,,,,,,,,,00019,001,2026-01-20_15h19.21.867,MST_task,2024.2.0,60.099187685008125,2026-01-20 15h19.29.517999 +0530,
,Objects\148a.jpg,102,0,103,,,,,f,1.4352454000036232,0.16866329999174923,None,,,,,,103,0,102,481.9004110000096,,,,,,,,,,,,,,,,,,,,,,,481.8844384000404,481.9004110000096,482.38391350000165,,,,,,,,,,,,482.4007230999996,,,,,,,,,,,482.39362380001694,482.4007230999996,482.4007230999996,482.4007230999996,485.40051290002884,485.40051290002884,485.40051290002884,485.3842655000044,f,1.4352454000036232,0.16866329999174923,485.3843166999868,485.3843281000154,None,,,,,,,,,,,,,,00019,001,2026-01-20_15h19.21.867,MST_task,2024.2.0,60.099187685008125,2026-01-20 15h19.29.517999 +0530,
,Objects\039a.jpg,103,0,104,,,,,j,1.4799533999757841,0.2163439000141807,None,,,,,,104,0,103,485.40051290002884,,,,,,,,,,,,,,,,,,,,,,,485.38439140003175,485.40051290002884,485.88389410002856,,,,,,,,,,,,485.9006566000171,,,,,,,,,,,485.8939463000279,485.9006566000171,485.9006566000171,485.9006566000171,488.90044789999956,488.90044789999956,488.90044789999956,488.88438390003284,j,1.4799533999757841,0.2163439000141807,488.8844453000347,488.88445680000586,None,,,,,,,,,,,,,,00019,001,2026-01-20_15h19.21.867,MST_task,2024.2.0,60.099187685008125,2026-01-20 15h19.29.517999 +0530,
,Objects\072a.jpg,104,0,105,,,,,None,,,f,0.187994499981869,None,,,,105,0,104,488.90044789999956,,,,,,,,,,,,,,,,,,,,,,,488.8845486000064,488.90044789999956,489.3840637000394,,,,,,,,,,,,489.40068730001803,,,,,,,,,,,489.39453270001104,489.40068730001803,489.40068730001803,489.40068730001803,492.4005026000086,492.4005026000086,492.4005026000086,492.3842528000241,None,,,492.38431090000086,492.6009054000024,f,492.4005026000086,492.4005026000086,0.187994499981869,None,,,,,,,,,,00019,001,2026-01-20_15h19.21.867,MST_task,2024.2.0,60.099187685008125,2026-01-20 15h19.29.517999 +0530,
,Scenes\190a.jpg,105,0,106,,,,,j,2.5461099999956787,0.14397799997823313,None,,,,,,106,0,105,492.617135700013,,,,,,,,,,,,,,,,,,,,,,,492.60098930000095,492.617135700013,493.1008560000337,,,,,,,,,,,,493.1221386999823,,,,,,,,,,,493.1196926999837,493.1221386999823,493.1221386999823,493.1221386999823,,,,496.1173432000214,j,2.5461099999956787,0.14397799997823313,496.1174027000088,496.1174151999876,None,,,,,,,,,,,,,,00019,001,2026-01-20_15h19.21.867,MST_task,2024.2.0,60.099187685008125,2026-01-20 15h19.29.517999 +0530,
,Scenes\118a.jpg,106,0,107,,,,,j,1.4503523000166751,0.20826789998682216,None,,,,,,107,0,106,496.1336319000111,,,,,,,,,,,,,,,,,,,,,,,496.1174874000135,496.1336319000111,496.6174328000052,,,,,,,,,,,,496.63430239999434,,,,,,,,,,,496.63113890000386,496.63430239999434,496.63430239999434,496.63430239999434,,,,499.61747930001,j,1.4503523000166751,0.20826789998682216,499.6175334000145,499.617545599991,None,,,,,,,,,,,,,,00019,001,2026-01-20_15h19.21.867,MST_task,2024.2.0,60.099187685008125,2026-01-20 15h19.29.517999 +0530,
,Scenes\183a.jpg,107,0,108,,,,,f,0.7483704999904148,0.19195700000273064,None,,,,,,108,0,107,499.6336748999893,,,,,,,,,,,,,,,,,,,,,,,499.6176357000368,499.6336748999893,500.11731569998665,,,,,,,,,,,,500.1360179000185,,,,,,,,,,,500.1335997999995,500.1360179000185,500.1360179000185,500.1360179000185,,,,503.1339781000279,f,0.7483704999904148,0.19195700000273064,503.1340304000187,503.13404179998906,None,,,,,,,,,,,,,,00019,001,2026-01-20_15h19.21.867,MST_task,2024.2.0,60.099187685008125,2026-01-20 15h19.29.517999 +0530,
,Scenes\106a.jpg,108,0,109,,,,,j,1.3109879000112414,0.2163804000010714,None,,,,,,109,0,108,503.15050490002614,,,,,,,,,,,,,,,,,,,,,,,503.1341272999998,503.15050490002614,503.6339198999922,,,,,,,,,,,,503.6535077000153,,,,,,,,,,,503.65136120002717,503.6535077000153,503.6535077000153,503.6535077000153,,,,506.6507044000318,j,1.3109879000112414,0.2163804000010714,506.65076069999486,506.650772700028,None,,,,,,,,,,,,,,00019,001,2026-01-20_15h19.21.867,MST_task,2024.2.0,60.099187685008125,2026-01-20 15h19.29.517999 +0530,
,Scenes\095a.jpg,109,0,110,,,,,f,1.469213399977889,0.2170798999723047,None,,,,,,110,0,109,506.6671209000051,,,,,,,,,,,,,,,,,,,,,,,506.6508696000092,506.6671209000051,507.15079310000874,,,,,,,,,,,,507.16772650001803,,,,,,,,,,,507.1651328000007,507.16772650001803,507.16772650001803,507.16772650001803,510.16716920002364,510.16716920002364,510.16716920002364,510.1509753999999,f,1.469213399977889,0.2170798999723047,510.15102769999066,510.15103840001393,None,,,,,,,,,,,,,,00019,001,2026-01-20_15h19.21.867,MST_task,2024.2.0,60.099187685008125,2026-01-20 15h19.29.517999 +0530,
,Scenes\175a.jpg,110,0,111,,,,,j,1.144845200004056,0.2247976999497041,None,,,,,,111,0,110,510.16716920002364,,,,,,,,,,,,,,,,,,,,,,,510.15112320001936,510.16716920002364,510.65079620003235,,,,,,,,,,,,510.6676632000017,,,,,,,,,,,510.66454780002823,510.6676632000017,510.6676632000017,510.6676632000017,513.6671939000371,513.6671939000371,513.6671939000371,513.651013499999,j,1.144845200004056,0.2247976999497041,513.651064100035,513.6510746999993,None,,,,,,,,,,,,,,00019,001,2026-01-20_15h19.21.867,MST_task,2024.2.0,60.099187685008125,2026-01-20 15h19.29.517999 +0530,
,Scenes\100a.jpg,111,0,112,,,,,f,0.8826565999770537,0.20031149999704212,None,,,,,,112,0,111,513.6671939000371,,,,,,,,,,,,,,,,,,,,,,,513.6511560000363,513.6671939000371,514.15071419999,,,,,,,,,,,,514.1696016000351,,,,,,,,,,,514.1671793999849,514.1696016000351,514.1696016000351,514.1696016000351,,,,517.1673921000329,f,0.8826565999770537,0.20031149999704212,517.1674495000043,517.1674686000333,None,,,,,,,,,,,,,,00019,001,2026-01-20_15h19.21.867,MST_task,2024.2.0,60.099187685008125,2026-01-20 15h19.29.517999 +0530,
,Objects\048a.jpg,112,0,113,,,,,j,2.34383930003969,0.20059669995680451,None,,,,,,113,0,112,517.183649500017,,,,,,,,,,,,,,,,,,,,,,,517.1675654000137,517.183649500017,517.667426,,,,,,,,,,,,517.6842387000215,,,,,,,,,,,517.6787866000086,517.6842387000215,517.6842387000215,517.6842387000215,520.6837667000364,520.6837667000364,520.6837667000364,520.667780800024,j,2.34383930003969,0.20059669995680451,520.6678379999939,520.6678508000332,None,,,,,,,,,,,,,,00019,001,2026-01-20_15h19.21.867,MST_task,2024.2.0,60.099187685008125,2026-01-20 15h19.29.517999 +0530,
,Objects\073a.jpg,113,0,114,,,,,f,1.0763053999980912,0.20005939999828115,None,,,,,,114,0,113,520.6837667000364,,,,,,,,,,,,,,,,,,,,,,,520.6679168000119,520.6837667000364,521.1674849999836,,,,,,,,,,,,521.1839341000305,,,,,,,,,,,521.1776712000137,521.1839341000305,521.1839341000305,521.1839341000305,524.1836530999863,524.1836530999863,524.1836530999863,524.167680100014,f,1.0763053999980912,0.20005939999828115,524.1677322000032,524.1677434000303,None,,,,,,,,,,,,,,00019,001,2026-01-20_15h19.21.867,MST_task,2024.2.0,60.099187685008125,2026-01-20 15h19.29.517999 +0530,
,Objects\062a.jpg,114,0,115,,,,,f,1.208016199991107,0.2009764999966137,None,,,,,,115,0,114,524.1836530999863,,,,,,,,,,,,,,,,,,,,,,,524.167836699984,524.1836530999863,524.6680840000045,,,,,,,,,,,,,,,,,,,,,,,524.6777854000102,524.6840955000371,524.6840955000371,524.6840955000371,527.6837894000346,527.6837894000346,527.6837894000346,527.6678012000048,f,1.208016199991107,0.2009764999966137,527.6678599999868,527.6678710000124,None,,,,,,,,,,,,,,00019,001,2026-01-20_15h19.21.867,MST_task,2024.2.0,60.099187685008125,2026-01-20 15h19.29.517999 +0530,
,Objects\102a.jpg,115,0,116,,,,,f,1.1162200000253506,0.19260939996456727,None,,,,,,116,0,115,527.6837894000346,,,,,,,,,,,,,,,,,,,,,,,527.6679397000116,527.6837894000346,528.1675057000248,,,,,,,,,,,,528.1840070000035,,,,,,,,,,,528.1781924000243,528.1840070000035,528.1840070000035,528.1840070000035,531.1838408000185,531.1838408000185,531.1838408000185,531.1678408000153,f,1.1162200000253506,0.19260939996456727,531.1678919999977,531.1679027000209,None,,,,,,,,,,,,,,00019,001,2026-01-20_15h19.21.867,MST_task,2024.2.0,60.099187685008125,2026-01-20 15h19.29.517999 +0530,
,Objects\120a.jpg,116,0,117,,,,,f,1.8398923999629915,0.2079978000256233,None,,,,,,117,0,116,531.1838408000185,,,,,,,,,,,,,,,,,,,,,,,531.167965700035,531.1838408000185,531.6676088999957,,,,,,,,,,,,531.6841781000257,,,,,,,,,,,531.6776180000161,531.6841781000257,531.6841781000257,531.6841781000257,534.6839212999912,534.6839212999912,534.6839212999912,534.6677242000005,f,1.8398923999629915,0.2079978000256233,534.6677772999974,534.6677884000237,None,,,,,,,,,,,,,,00019,001,2026-01-20_15h19.21.867,MST_task,2024.2.0,60.099187685008125,2026-01-20 15h19.29.517999 +0530,
,Objects\117a.jpg,117,0,118,,,,,j,2.9401359999901615,None,None,,,,,,118,0,117,534.6839212999912,,,,,,,,,,,,,,,,,,,,,,,534.6678586000344,534.6839212999912,535.1675370000303,,,,,,,,,,,,535.1843203000026,,,,,,,,,,,535.178118699987,535.1843203000026,535.1843203000026,535.1843203000026,538.1838505000342,538.1838505000342,538.1838505000342,538.1678120000288,j,2.9401359999901615,None,538.1678701000055,538.1678816000349,None,,,,,,,,,,,,,,00019,001,2026-01-20_15h19.21.867,MST_task,2024.2.0,60.099187685008125,2026-01-20 15h19.29.517999 +0530,
,Objects\059a.jpg,118,0,119,,,,,None,,,j,0.46472029999131337,None,,,,119,0,118,538.1838505000342,,,,,,,,,,,,,,,,,,,,,,,538.1679460000014,538.1838505000342,538.6675798000069,,,,,,,,,,,,538.6841720000375,,,,,,,,,,,538.6775919999927,538.6841720000375,538.6841720000375,538.6841720000375,541.6838281000382,541.6838281000382,541.6838281000382,541.6678887000307,None,,,541.6679373999941,542.1509619000135,j,541.6838281000382,541.6838281000382,0.46472029999131337,None,,,,,,,,,,00019,001,2026-01-20_15h19.21.867,MST_task,2024.2.0,60.099187685008125,2026-01-20 15h19.29.517999 +0530,
,Scenes\007a.jpg,119,0,120,,,,,f,2.9123538000276312,None,None,,,,,,120,0,119,542.167255599983,,,,,,,,,,,,,,,,,,,,,,,542.1510766000138,542.167255599983,542.6508081000065,,,,,,,,,,,,542.6677469999995,,,,,,,,,,,542.6652257000096,542.6677469999995,542.6677469999995,542.6677469999995,545.667234499997,545.667234499997,545.667234499997,545.6511757000117,f,2.9123538000276312,None,545.651228200004,545.6512402000371,None,,,,,,,,,,,,,,00019,001,2026-01-20_15h19.21.867,MST_task,2024.2.0,60.099187685008125,2026-01-20 15h19.29.517999 +0530,
,Scenes\165a.jpg,120,0,121,,,,,f,2.4723233000258915,0.12042430002475157,None,,,,,,121,0,120,545.667234499997,,,,,,,,,,,,,,,,,,,,,,,545.6513079000288,545.667234499997,546.1508900999906,,,,,,,,,,,,546.1716596999904,,,,,,,,,,,546.1694053999963,546.1716596999904,546.1716596999904,546.1716596999904,,,,549.1676079999888,f,2.4723233000258915,0.12042430002475157,549.1676608999842,549.1676725000143,None,,,,,,,,,,,,,,00019,001,2026-01-20_15h19.21.867,MST_task,2024.2.0,60.099187685008125,2026-01-20 15h19.29.517999 +0530,
,Scenes\033a.jpg,121,0,122,,,,,j,1.2562271999777295,0.21611450001364574,None,,,,,,122,0,121,549.1838986999937,,,,,,,,,,,,,,,,,,,,,,,549.1677390999976,549.1838986999937,549.6675838000374,,,,,,,,,,,,549.6843596000108,,,,,,,,,,,549.6785010999884,549.6843596000108,549.6843596000108,549.6843596000108,552.6838170000119,552.6838170000119,552.6838170000119,552.6678416000213,j,1.2562271999777295,0.21611450001364574,552.6678944000159,552.6679053999833,None,,,,,,,,,,,,,,00019,001,2026-01-20_15h19.21.867,MST_task,2024.2.0,60.099187685008125,2026-01-20 15h19.29.517999 +0530,
,Scenes\003a.jpg,122,0,123,,,,,f,1.4557487999554724,0.19202550000045449,None,,,,,,123,0,122,552.6838170000119,,,,,,,,,,,,,,,,,,,,,,,552.6679697000072,552.6838170000119,553.1675514000235,,,,,,,,,,,,553.1884354000213,,,,,,,,,,,553.1860417000134,553.1884354000213,553.1884354000213,553.1884354000213,,,,556.1842553000315,f,1.4557487999554724,0.19202550000045449,556.1843084000284,556.1843207000056,None,,,,,,,,,,,,,,00019,001,2026-01-20_15h19.21.867,MST_task,2024.2.0,60.099187685008125,2026-01-20 15h19.29.517999 +0530,
,Scenes\122a.jpg,123,0,124,,,,,f,2.0595775000401773,0.191863399988506,None,,,,,,124,0,123,556.2005885000108,,,,,,,,,,,,,,,,,,,,,,,556.1844063000171,556.2005885000108,556.6841573999845,,,,,,,,,,,,556.7046367999865,,,,,,,,,,,556.7022852000082,556.7046367999865,556.7046367999865,556.7046367999865,,,,559.7008565000142,f,2.0595775000401773,0.191863399988506,559.7009093000088,559.7009206000366,None,,,,,,,,,,,,,,00019,001,2026-01-20_15h19.21.867,MST_task,2024.2.0,60.099187685008125,2026-01-20 15h19.29.517999 +0530,
,Scenes\075a.jpg,124,0,125,,,,,j,1.32303009997122,0.23989349999465048,None,,,,,,125,0,124,559.717238400015,,,,,,,,,,,,,,,,,,,,,,,559.7010184000246,559.717238400015,560.2007766999886,,,,,,,,,,,,560.2178085999913,,,,,,,,,,,560.2148736999952,560.2178085999913,560.2178085999913,560.2178085999913,563.2172533000121,563.2172533000121,563.2172533000121,563.2012108000345,j,1.32303009997122,0.23989349999465048,563.2012613000115,563.201271900034,None,,,,,,,,,,,,,,00019,001,2026-01-20_15h19.21.867,MST_task,2024.2.0,60.099187685008125,2026-01-20 15h19.29.517999 +0530,
,Scenes\163a.jpg,125,0,126,,,,,j,1.854894999996759,0.2645667999750003,None,,,,,,126,0,125,563.2172533000121,,,,,,,,,,,,,,,,,,,,,,,563.2013570999843,563.2172533000121,563.7008691999945,,,,,,,,,,,,563.7174333999865,,,,,,,,,,,563.7147765000118,563.7174333999865,563.7174333999865,563.7174333999865,566.7172709000297,566.7172709000297,566.7172709000297,566.7010799000273,j,1.854894999996759,0.2645667999750003,566.701131800015,566.7011427000398,None,,,,,,,,,,,,,,00019,001,2026-01-20_15h19.21.867,MST_task,2024.2.0,60.099187685008125,2026-01-20 15h19.29.517999 +0530,
,Objects\081a.jpg,126,0,127,,,,,f,2.4186839000321925,0.15195679996395484,None,,,,,,127,0,126,566.7172709000297,,,,,,,,,,,,,,,,,,,,,,,566.7012263000361,566.7172709000297,567.2008500000229,,,,,,,,,,,,567.2176437000162,,,,,,,,,,,567.2110918000108,567.2176437000162,567.2176437000162,567.2176437000162,570.217183300003,570.217183300003,570.217183300003,570.2012727000401,f,2.4186839000321925,0.15195679996395484,570.2013248000294,570.2013354999945,None,,,,,,,,,,,,,,00019,001,2026-01-20_15h19.21.867,MST_task,2024.2.0,60.099187685008125,2026-01-20 15h19.29.517999 +0530,
,Objects\036a.jpg,127,0,128,,,,,f,1.5443815999897197,0.20660999999381602,None,,,,,,128,0,127,570.217183300003,,,,,,,,,,,,,,,,,,,,,,,570.2014012000291,570.217183300003,570.7011172000202,,,,,,,,,,,,570.717570799985,,,,,,,,,,,570.7121568000293,570.717570799985,570.717570799985,570.717570799985,573.7173631000333,573.7173631000333,573.7173631000333,573.7012013000203,f,1.5443815999897197,0.20660999999381602,573.7012608000077,573.7012712000287,None,,,,,,,,,,,,,,00019,001,2026-01-20_15h19.21.867,MST_task,2024.2.0,60.099187685008125,2026-01-20 15h19.29.517999 +0530,
,Objects\016a.jpg,128,0,129,,,,,f,1.7951872000121512,0.24940670002251863,None,,,,,,129,0,128,573.7173631000333,,,,,,,,,,,,,,,,,,,,,,,573.7013364000013,573.7173631000333,574.2008626000024,,,,,,,,,,,,574.2174322000355,,,,,,,,,,,574.2106341000181,574.2174322000355,574.2174322000355,574.2174322000355,577.2172853000229,577.2172853000229,577.2172853000229,577.2014306000201,f,1.7951872000121512,0.24940670002251863,577.2014948999858,577.2015073000221,None,,,,,,,,,,,,,,00019,001,2026-01-20_15h19.21.867,MST_task,2024.2.0,60.099187685008125,2026-01-20 15h19.29.517999 +0530,
,Objects\076a.jpg,129,0,130,,,,,j,2.8225915000075474,None,None,,,,,,130,0,129,577.2172853000229,,,,,,,,,,,,,,,,,,,,,,,577.2016035999986,577.2172853000229,577.7008979000384,,,,,,,,,,,,577.7174645999912,,,,,,,,,,,577.7124224000145,577.7174645999912,577.7174645999912,577.7174645999912,580.717477600032,580.717477600032,580.717477600032,580.7012476000236,j,2.8225915000075474,None,580.7012987000053,580.7013105000369,None,,,,,,,,,,,,,,00019,001,2026-01-20_15h19.21.867,MST_task,2024.2.0,60.099187685008125,2026-01-20 15h19.29.517999 +0530,
,Objects\130a.jpg,130,0,131,,,,,f,1.6683294999529608,0.19871070003136992,None,,,,,,131,0,130,580.717477600032,,,,,,,,,,,,,,,,,,,,,,,580.7013950999826,580.717477600032,581.2008648000192,,,,,,,,,,,,581.2174500999972,,,,,,,,,,,581.2106208000332,581.2174500999972,581.2174500999972,581.2174500999972,584.2173253000365,584.2173253000365,584.2173253000365,584.2013846000191,f,1.6683294999529608,0.19871070003136992,584.2014536000206,584.2014651999925,None,,,,,,,,,,,,,,00019,001,2026-01-20_15h19.21.867,MST_task,2024.2.0,60.099187685008125,2026-01-20 15h19.29.517999 +0530,
,Objects\174a.jpg,131,0,132,,,,,f,1.3909427000326104,0.24003089999314398,None,,,,,,132,0,131,584.2173253000365,,,,,,,,,,,,,,,,,,,,,,,584.2015366000123,584.2173253000365,584.700868999993,,,,,,,,,,,,584.7174391000299,,,,,,,,,,,584.7105191000155,584.7174391000299,584.7174391000299,584.7174391000299,587.71714230004,587.71714230004,587.71714230004,587.7012079000124,f,1.3909427000326104,0.24003089999314398,587.7012758000055,587.7012880000402,None,,,,,,,,,,,,,,00019,001,2026-01-20_15h19.21.867,MST_task,2024.2.0,60.099187685008125,2026-01-20 15h19.29.517999 +0530,
,Objects\115a.jpg,132,0,133,,,,,f,1.7551733999862336,0.23200409999117255,None,,,,,,133,0,132,587.71714230004,,,,,,,,,,,,,,,,,,,,,,,587.7013810999924,587.71714230004,588.2007661000243,,,,,,,,,,,,588.2176853999845,,,,,,,,,,,588.2107396000065,588.2176853999845,588.2176853999845,588.2176853999845,591.2171697000158,591.2171697000158,591.2171697000158,591.2010672999895,f,1.7551733999862336,0.23200409999117255,591.2011224000016,591.2011338000302,None,,,,,,,,,,,,,,00019,001,2026-01-20_15h19.21.867,MST_task,2024.2.0,60.099187685008125,2026-01-20 15h19.29.517999 +0530,
,Scenes\092a.jpg,133,0,134,,,,,j,1.1886839999933727,0.22518939996371046,None,,,,,,134,0,133,591.2171697000158,,,,,,,,,,,,,,,,,,,,,,,591.2012201999896,591.2171697000158,591.7006992000388,,,,,,,,,,,,591.7201479999931,,,,,,,,,,,591.7176372000249,591.7201479999931,591.7201479999931,591.7201479999931,,,,594.7174467000295,j,1.1886839999933727,0.22518939996371046,594.717498700018,594.7175103999907,None,,,,,,,,,,,,,,00019,001,2026-01-20_15h19.21.867,MST_task,2024.2.0,60.099187685008125,2026-01-20 15h19.29.517999 +0530,
,Scenes\023a.jpg,134,0,135,,,,,f,1.4688589999568649,0.20791280001867563,None,,,,,,135,0,134,594.7336904000258,,,,,,,,,,,,,,,,,,,,,,,594.7175884000026,594.7336904000258,595.2175265999977,,,,,,,,,,,,595.2399306999869,,,,,,,,,,,595.2373547999887,595.2399306999869,595.2399306999869,595.2399306999869,,,,598.2340250000125,f,1.4688589999568649,0.20791280001867563,598.2340851000044,598.234097699984,None,,,,,,,,,,,,,,00019,001,2026-01-20_15h19.21.867,MST_task,2024.2.0,60.099187685008125,2026-01-20 15h19.29.517999 +0530,
,Scenes\155a.jpg,135,0,136,,,,,j,1.2511148999910802,0.2480566999875009,None,,,,,,136,0,135,598.2504886999959,,,,,,,,,,,,,,,,,,,,,,,598.2341899999883,598.2504886999959,598.7341335000237,,,,,,,,,,,,598.7531802000012,,,,,,,,,,,598.7506222000229,598.7531802000012,598.7531802000012,598.7531802000012,,,,601.7507535000332,j,1.2511148999910802,0.2480566999875009,601.7508378000348,601.7508511000196,None,,,,,,,,,,,,,,00019,001,2026-01-20_15h19.21.867,MST_task,2024.2.0,60.099187685008125,2026-01-20 15h19.29.517999 +0530,
,Scenes\008a.jpg,136,0,137,,,,,j,1.6964377000113018,0.24797999998554587,None,,,,,,137,0,136,601.7671118000289,,,,,,,,,,,,,,,,,,,,,,,601.7509394999943,601.7671118000289,602.2508603000315,,,,,,,,,,,,602.268522600003,,,,,,,,,,,602.2660418000305,602.268522600003,602.268522600003,602.268522600003,,,,605.2674457000103,j,1.6964377000113018,0.24797999998554587,605.2675193999894,605.2675337999826,None,,,,,,,,,,,,,,00019,001,2026-01-20_15h19.21.867,MST_task,2024.2.0,60.099187685008125,2026-01-20 15h19.29.517999 +0530,
,Scenes\060a.jpg,137,0,138,,,,,j,0.9719895999878645,0.3041005000122823,None,,,,,,138,0,137,605.2838323999895,,,,,,,,,,,,,,,,,,,,,,,605.2676040999941,605.2838323999895,605.7674260000349,,,,,,,,,,,,605.8081619000295,,,,,,,,,,,605.8053458000068,605.8081619000295,605.8081619000295,605.8081619000295,,,,608.7840640000068,j,0.9719895999878645,0.3041005000122823,608.7841238999972,608.7841363000334,None,,,,,,,,,,,,,,00019,001,2026-01-20_15h19.21.867,MST_task,2024.2.0,60.099187685008125,2026-01-20 15h19.29.517999 +0530,
,Scenes\138a.jpg,138,0,139,,,,,j,1.589783500006888,0.2714373000198975,None,,,,,,139,0,138,608.8004888999858,,,,,,,,,,,,,,,,,,,,,,,608.7842349000275,608.8004888999858,609.284145099984,,,,,,,,,,,,609.3030275999918,,,,,,,,,,,609.3004914000048,609.3030275999918,609.3030275999918,609.3030275999918,,,,612.3007596000098,j,1.589783500006888,0.2714373000198975,612.3008103999891,612.3008218000177,None,,,,,,,,,,,,,,00019,001,2026-01-20_15h19.21.867,MST_task,2024.2.0,60.099187685008125,2026-01-20 15h19.29.517999 +0530,
,Scenes\147a.jpg,139,0,140,,,,,j,2.0993797999690287,0.24008219997631386,None,,,,,,140,0,139,612.3171159999911,,,,,,,,,,,,,,,,,,,,,,,612.3009095999878,612.3171159999911,612.800865600002,,,,,,,,,,,,612.8174925000058,,,,,,,,,,,612.8135058000335,612.8174925000058,612.8174925000058,612.8174925000058,615.817146699992,615.817146699992,615.817146699992,615.8010599000263,j,2.0993797999690287,0.24008219997631386,615.8011116000125,615.8011230999837,None,,,,,,,,,,,,,,00019,001,2026-01-20_15h19.21.867,MST_task,2024.2.0,60.099187685008125,2026-01-20 15h19.29.517999 +0530,
,Objects\187a.jpg,140,0,141,,,,,f,2.2385711999959312,0.2001101999776438,None,,,,,,141,0,140,615.817146699992,,,,,,,,,,,,,,,,,,,,,,,615.8012089999975,615.817146699992,616.3009656000067,,,,,,,,,,,,616.3177328000311,,,,,,,,,,,616.3117966999998,616.3177328000311,616.3177328000311,616.3177328000311,619.317219300021,619.317219300021,619.317219300021,619.301220000023,f,2.2385711999959312,0.2001101999776438,619.3012912999839,619.3013048000284,None,,,,,,,,,,,,,,00019,001,2026-01-20_15h19.21.867,MST_task,2024.2.0,60.099187685008125,2026-01-20 15h19.29.517999 +0530,
,Objects\106a.jpg,141,0,142,,,,,f,1.0432680000085384,0.22552829998312518,None,,,,,,142,0,141,619.317219300021,,,,,,,,,,,,,,,,,,,,,,,619.3014022000134,619.317219300021,619.8008958999999,,,,,,,,,,,,619.8174043000326,,,,,,,,,,,619.8109403999988,619.8174043000326,619.8174043000326,619.8174043000326,622.817219700024,622.817219700024,622.817219700024,622.8010276000132,f,1.0432680000085384,0.22552829998312518,622.8010812000139,622.8010918000364,None,,,,,,,,,,,,,,00019,001,2026-01-20_15h19.21.867,MST_task,2024.2.0,60.099187685008125,2026-01-20 15h19.29.517999 +0530,
,Objects\038a.jpg,142,0,143,,,,,f,1.7509477999992669,0.19999979995191097,None,,,,,,143,0,142,622.817219700024,,,,,,,,,,,,,,,,,,,,,,,622.8011860999977,622.817219700024,623.3009669000166,,,,,,,,,,,,623.3173823000398,,,,,,,,,,,623.3112700000056,623.3173823000398,623.3173823000398,623.3173823000398,626.3171170999995,626.3171170999995,626.3171170999995,626.3010436000186,f,1.7509477999992669,0.19999979995191097,626.3010950000025,626.3011057000258,None,,,,,,,,,,,,,,00019,001,2026-01-20_15h19.21.867,MST_task,2024.2.0,60.099187685008125,2026-01-20 15h19.29.517999 +0530,
,Objects\035a.jpg,143,0,144,,,,,f,1.554677200037986,0.22400360001483932,None,,,,,,144,0,143,626.3171170999995,,,,,,,,,,,,,,,,,,,,,,,626.3011900000274,626.3171170999995,626.8008605000214,,,,,,,,,,,,626.8174750999897,,,,,,,,,,,626.8104345999891,626.8174750999897,626.8174750999897,626.8174750999897,629.8171792000066,629.8171792000066,629.8171792000066,629.8011196000152,f,1.554677200037986,0.22400360001483932,629.8011748000281,629.8011862999992,None,,,,,,,,,,,,,,00019,001,2026-01-20_15h19.21.867,MST_task,2024.2.0,60.099187685008125,2026-01-20 15h19.29.517999 +0530,
,Objects\119a.jpg,144,0,145,,,,,f,1.622561099997256,0.264931199955754,None,,,,,,145,0,144,629.8171792000066,,,,,,,,,,,,,,,,,,,,,,,629.8012527000392,629.8171792000066,630.3011162999901,,,,,,,,,,,,630.3175908999983,,,,,,,,,,,630.3111433000304,630.3175908999983,630.3175908999983,630.3175908999983,633.3171833000379,633.3171833000379,633.3171833000379,633.3010543999844,f,1.622561099997256,0.264931199955754,633.3011067000334,633.3011172999977,None,,,,,,,,,,,,,,00019,001,2026-01-20_15h19.21.867,MST_task,2024.2.0,60.099187685008125,2026-01-20 15h19.29.517999 +0530,
,Objects\157a.jpg,145,0,146,,,,,f,0.9319060000125319,0.21583479997934774,None,,,,,,146,0,145,633.3171833000379,,,,,,,,,,,,,,,,,,,,,,,633.3011991000385,633.3171833000379,633.8006812999956,,,,,,,,,,,,633.8173414000194,,,,,,,,,,,633.8104912000126,633.8173414000194,633.8173414000194,633.8173414000194,636.8172405000078,636.8172405000078,636.8172405000078,636.8009824000183,f,0.9319060000125319,0.21583479997934774,636.8010331999976,636.8010444000247,None,,,,,,,,,,,,,,00019,001,2026-01-20_15h19.21.867,MST_task,2024.2.0,60.099187685008125,2026-01-20 15h19.29.517999 +0530,
,Objects\170a.jpg,146,0,147,,,,,f,1.3036788000026718,0.19196190004004166,None,,,,,,147,0,146,636.8172405000078,,,,,,,,,,,,,,,,,,,,,,,636.8011274000164,636.8172405000078,637.3008715999895,,,,,,,,,,,,637.3173691999982,,,,,,,,,,,637.3129426999949,637.3173691999982,637.3173691999982,637.3173691999982,640.3172038000193,640.3172038000193,640.3172038000193,640.3010409999988,f,1.3036788000026718,0.19196190004004166,640.301105600025,640.3011168999947,None,,,,,,,,,,,,,,00019,001,2026-01-20_15h19.21.867,MST_task,2024.2.0,60.099187685008125,2026-01-20 15h19.29.517999 +0530,
,Scenes\128a.jpg,147,0,148,,,,,j,0.7899801000021398,0.24802430003182963,None,,,,,,148,0,147,640.3172038000193,,,,,,,,,,,,,,,,,,,,,,,640.3011853999924,640.3172038000193,640.8007768000243,,,,,,,,,,,,640.8229817000101,,,,,,,,,,,640.8204795999918,640.8229817000101,640.8229817000101,640.8229817000101,,,,643.8173432000331,j,0.7899801000021398,0.24802430003182963,643.8174045000342,643.8174171000137,None,,,,,,,,,,,,,,00019,001,2026-01-20_15h19.21.867,MST_task,2024.2.0,60.099187685008125,2026-01-20 15h19.29.517999 +0530,
,Scenes\137a.jpg,148,0,149,,,,,j,2.765928699984215,0.17605519999051467,None,,,,,,149,0,148,643.8337019000319,,,,,,,,,,,,,,,,,,,,,,,643.8175123000401,643.8337019000319,644.3174121000338,,,,,,,,,,,,644.3347531000036,,,,,,,,,,,644.3323435999919,644.3347531000036,644.3347531000036,644.3347531000036,647.3337230000179,647.3337230000179,647.3337230000179,647.3177514999988,j,2.765928699984215,0.17605519999051467,647.3178046999965,647.3178162000258,None,,,,,,,,,,,,,,00019,001,2026-01-20_15h19.21.867,MST_task,2024.2.0,60.099187685008125,2026-01-20 15h19.29.517999 +0530,
,Scenes\054a.jpg,149,0,150,,,,,j,1.8452021999983117,0.2556289000203833,None,,,,,,150,0,149,647.3337230000179,,,,,,,,,,,,,,,,,,,,,,,647.3178980000084,647.3337230000179,647.8175349000376,,,,,,,,,,,,647.8392396999989,,,,,,,,,,,647.8368077999912,647.8392396999989,647.8392396999989,647.8392396999989,,,,650.8341847999836,j,1.8452021999983117,0.2556289000203833,650.8342496000114,650.8343013999984,None,,,,,,,,,,,,,,00019,001,2026-01-20_15h19.21.867,MST_task,2024.2.0,60.099187685008125,2026-01-20 15h19.29.517999 +0530,
,Scenes\176a.jpg,150,0,151,,,,,j,2.810303499980364,0.14389100001426414,None,,,,,,151,0,150,650.8506125999847,,,,,,,,,,,,,,,,,,,,,,,650.8344209000352,650.8506125999847,651.3342207000242,,,,,,,,,,,,651.3539739000262,,,,,,,,,,,651.3517661000369,651.3539739000262,651.3539739000262,651.3539739000262,,,,654.3508931000251,j,2.810303499980364,0.14389100001426414,654.3509473000304,654.3509592000046,None,,,,,,,,,,,,,,00019,001,2026-01-20_15h19.21.867,MST_task,2024.2.0,60.099187685008125,2026-01-20 15h19.29.517999 +0530,
,Scenes\063a.jpg,151,0,152,,,,,j,2.164687699987553,0.17709809995722026,None,,,,,,152,0,151,654.3672787999967,,,,,,,,,,,,,,,,,,,,,,,654.3510250999825,654.3672787999967,654.8509249000344,,,,,,,,,,,,654.871442600037,,,,,,,,,,,654.8688186000218,654.871442600037,654.871442600037,654.871442600037,,,,657.8675496000214,j,2.164687699987553,0.17709809995722026,657.8676037000259,657.8676157000009,None,,,,,,,,,,,,,,00019,001,2026-01-20_15h19.21.867,MST_task,2024.2.0,60.099187685008125,2026-01-20 15h19.29.517999 +0530,
,Scenes\115a.jpg,152,0,153,,,,,j,1.52231380000012,0.160575499990955,None,,,,,,153,0,152,657.8838443999994,,,,,,,,,,,,,,,,,,,,,,,657.8677133999881,657.8838443999994,658.3677006000071,,,,,,,,,,,,658.3858976000338,,,,,,,,,,,658.3834470000002,658.3858976000338,658.3858976000338,658.3858976000338,,,,661.3841709999833,j,1.52231380000012,0.160575499990955,661.3842402999871,661.3842531000264,None,,,,,,,,,,,,,,00019,001,2026-01-20_15h19.21.867,MST_task,2024.2.0,60.099187685008125,2026-01-20 15h19.29.517999 +0530,
,Scenes\153a.jpg,153,0,154,,,,,j,1.607612199964933,0.1757476000348106,None,,,,,,154,0,153,661.4006954000215,,,,,,,,,,,,,,,,,,,,,,,661.3843301000306,661.4006954000215,661.8841647999943,,,,,,,,,,,,661.9011840000167,,,,,,,,,,,661.897266999993,661.9011840000167,661.9011840000167,661.9011840000167,664.9006168000051,664.9006168000051,664.9006168000051,664.8844226000365,j,1.607612199964933,0.1757476000348106,664.8844762000372,664.8844876000076,None,,,,,,,,,,,,,,00019,001,2026-01-20_15h19.21.867,MST_task,2024.2.0,60.099187685008125,2026-01-20 15h19.29.517999 +0530,
,Objects\009a.jpg,154,0,155,,,,,f,0.9630002999911085,0.23252199997659773,None,,,,,,155,0,154,664.9006168000051,,,,,,,,,,,,,,,,,,,,,,,664.8845759000396,664.9006168000051,665.3842368000187,,,,,,,,,,,,665.4010825000005,,,,,,,,,,,665.394705099985,665.4010825000005,665.4010825000005,665.4010825000005,,,,668.3871461999952,f,0.9630002999911085,0.23252199997659773,668.387215499999,668.3872286999831,None,,,,,,,,,,,,,,00019,001,2026-01-20_15h19.21.867,MST_task,2024.2.0,60.099187685008125,2026-01-20 15h19.29.517999 +0530,
,Objects\063a.jpg,155,0,156,,,,,f,1.9600479999789968,0.18386589997680858,None,,,,,,156,0,155,668.4006836999906,,,,,,,,,,,,,,,,,,,,,,,668.3873067999957,668.4006836999906,668.8842736000079,,,,,,,,,,,,668.9008391000098,,,,,,,,,,,668.894642600033,668.9008391000098,668.9008391000098,668.9008391000098,671.9006397000048,671.9006397000048,671.9006397000048,671.8848022000166,f,1.9600479999789968,0.18386589997680858,671.8848655000329,671.8848767000018,None,,,,,,,,,,,,,,00019,001,2026-01-20_15h19.21.867,MST_task,2024.2.0,60.099187685008125,2026-01-20 15h19.29.517999 +0530,
,Objects\094a.jpg,156,0,157,,,,,f,1.4848536999779753,0.21450790000380948,None,,,,,,157,0,156,671.9006397000048,,,,,,,,,,,,,,,,,,,,,,,671.884970300016,671.9006397000048,672.3842359000118,,,,,,,,,,,,672.4008109000279,,,,,,,,,,,672.3937476000283,672.4008109000279,672.4008109000279,672.4008109000279,675.4006436000345,675.4006436000345,675.4006436000345,675.3846774999984,f,1.4848536999779753,0.21450790000380948,675.3847379999934,675.3847492000205,None,,,,,,,,,,,,,,00019,001,2026-01-20_15h19.21.867,MST_task,2024.2.0,60.099187685008125,2026-01-20 15h19.29.517999 +0530,
,Objects\021a.jpg,157,0,158,,,,,f,1.6716397000127472,0.20812839997233823,None,,,,,,158,0,157,675.4006436000345,,,,,,,,,,,,,,,,,,,,,,,675.3848396000103,675.4006436000345,675.8840741000022,,,,,,,,,,,,675.9008485000231,,,,,,,,,,,675.8935657000402,675.9008485000231,675.9008485000231,675.9008485000231,678.9005955000175,678.9005955000175,678.9005955000175,678.8843735000119,f,1.6716397000127472,0.20812839997233823,678.884430999984,678.8844426000142,None,,,,,,,,,,,,,,00019,001,2026-01-20_15h19.21.867,MST_task,2024.2.0,60.099187685008125,2026-01-20 15h19.29.517999 +0530,
,Objects\121a.jpg,158,0,159,,,,,f,1.8614364000386558,0.1981351000140421,None,,,,,,159,0,158,678.9005955000175,,,,,,,,,,,,,,,,,,,,,,,678.8845100000035,678.9005955000175,679.3842562999926,,,,,,,,,,,,679.4009100000258,,,,,,,,,,,679.3945498000248,679.4009100000258,679.4009100000258,679.4009100000258,682.4006489000167,682.4006489000167,682.4006489000167,682.3844660000177,f,1.8614364000386558,0.1981351000140421,682.3845195000176,682.3845302999835,None,,,,,,,,,,,,,,00019,001,2026-01-20_15h19.21.867,MST_task,2024.2.0,60.099187685008125,2026-01-20 15h19.29.517999 +0530,
,Objects\083a.jpg,159,0,160,,,,,f,0.9592798000085168,0.21629489999031648,None,,,,,,160,0,159,682.4006489000167,,,,,,,,,,,,,,,,,,,,,,,682.3845959000173,682.4006489000167,682.8842589000124,,,,,,,,,,,,682.9008174000192,,,,,,,,,,,682.8937638000352,682.9008174000192,682.9008174000192,682.9008174000192,685.9006526999874,685.9006526999874,685.9006526999874,685.884316199983,f,0.9592798000085168,0.21629489999031648,685.8844937999966,685.8845091999974,None,,,,,,,,,,,,,,00019,001,2026-01-20_15h19.21.867,MST_task,2024.2.0,60.099187685008125,2026-01-20 15h19.29.517999 +0530,
,Objects\055a.jpg,160,0,161,,,,,f,0.8678293999982998,0.21599950001109391,None,,,,,,161,0,160,685.9006526999874,,,,,,,,,,,,,,,,,,,,,,,685.8845789000043,685.9006526999874,686.3842090000398,,,,,,,,,,,,686.4009008000139,,,,,,,,,,,686.3937514999998,686.4009008000139,686.4009008000139,686.4009008000139,689.4005019000033,689.4005019000033,689.4005019000033,689.3844105000026,f,0.8678293999982998,0.21599950001109391,689.3844832000323,689.3844976000255,None,,,,,,,,,,,,,,00019,001,2026-01-20_15h19.21.867,MST_task,2024.2.0,60.099187685008125,2026-01-20 15h19.29.517999 +0530,
,Scenes\012a.jpg,161,0,162,,,,,j,0.5961770999711007,0.23957189999055117,None,,,,,,162,0,161,689.4005019000033,,,,,,,,,,,,,,,,,,,,,,,689.3845751000335,689.4005019000033,689.8841011000331,,,,,,,,,,,,689.904690299998,,,,,,,,,,,689.9022669999977,689.904690299998,689.904690299998,689.904690299998,,,,692.9009187000338,j,0.5961770999711007,0.23957189999055117,692.900972900039,692.9009844000102,None,,,,,,,,,,,,,,00019,001,2026-01-20_15h19.21.867,MST_task,2024.2.0,60.099187685008125,2026-01-20 15h19.29.517999 +0530,
,Scenes\071a.jpg,162,0,163,,,,,j,1.4234903999604285,0.12800550000974908,None,,,,,,163,0,162,692.917316200037,,,,,,,,,,,,,,,,,,,,,,,692.9010735999909,692.917316200037,693.4007936000125,,,,,,,,,,,,693.4209946999908,,,,,,,,,,,693.4186411999981,693.4209946999908,693.4209946999908,693.4209946999908,,,,696.4176001999876,j,1.4234903999604285,0.12800550000974908,696.4176514000283,696.4176632000017,None,,,,,,,,,,,,,,00019,001,2026-01-20_15h19.21.867,MST_task,2024.2.0,60.099187685008125,2026-01-20 15h19.29.517999 +0530,
,Scenes\129a.jpg,163,0,164,,,,,None,,,f,0.18282469996483997,None,,,,164,0,163,696.4339527999982,,,,,,,,,,,,,,,,,,,,,,,696.417728600034,696.4339527999982,696.9174748000223,,,,,,,,,,,,696.9344502000022,,,,,,,,,,,696.9318997000228,696.9344502000022,696.9344502000022,696.9344502000022,699.9337191000232,699.9337191000232,699.9337191000232,699.9178003999987,None,,,699.9178590000374,700.1177011000109,f,699.9337191000232,699.9337191000232,0.18282469996483997,None,,,,,,,,,,00019,001,2026-01-20_15h19.21.867,MST_task,2024.2.0,60.099187685008125,2026-01-20 15h19.29.517999 +0530,
,Scenes\021a.jpg,164,0,165,,,,,None,,,f,6.6100724000134505,None,,,,165,0,164,700.133920399996,,,,,,,,,,,,,,,,,,,,,,,700.1177899999893,700.133920399996,700.6175369999837,,,,,,,,,,,,700.6379679000238,,,,,,,,,,,700.6354714999907,700.6379679000238,700.6379679000238,700.6379679000238,,,,703.6341730999993,None,,,703.6342236000346,710.2675821000012,f,703.6508106000256,703.6508106000256,6.6100724000134505,None,,,,,,,,,,00019,001,2026-01-20_15h19.21.867,MST_task,2024.2.0,60.099187685008125,2026-01-20 15h19.29.517999 +0530,
,Scenes\025a.jpg,165,0,166,,,,,j,1.374630399979651,0.2239893000223674,None,,,,,,166,0,165,710.2837014999823,,,,,,,,,,,,,,,,,,,,,,,710.2676677000127,710.2837014999823,710.7675796000403,,,,,,,,,,,,710.7895163000212,,,,,,,,,,,710.7869454000029,710.7895163000212,710.7895163000212,710.7895163000212,,,,713.7840305999853,j,1.374630399979651,0.2239893000223674,713.7841039000195,713.7841174000059,None,,,,,,,,,,,,,,00019,001,2026-01-20_15h19.21.867,MST_task,2024.2.0,60.099187685008125,2026-01-20 15h19.29.517999 +0530,
