Sl_no,image_path,thisN,thisTrialN,thisRepN,key_resp_5.keys,key_resp_5.rt,key_resp_5.duration,key_resp_7.keys,key_resp_9.keys,key_resp_9.rt,key_resp_9.duration,key_resp_8.keys,key_resp_8.rt,key_resp_8.duration,practice.thisRepN,practice.thisTrialN,practice.thisN,trials.thisRepN,trials.thisTrialN,trials.thisN,thisRow.t,notes,welcome_page.started,text.started,key_resp.started,welcome_page.stopped,key_resp.keys,key_resp.rt,key_resp.duration,instructions.started,ins.started,key_resp_2.started,instructions.stopped,key_resp_2.keys,key_resp_2.rt,key_resp_2.duration,objects_only_instruction.started,text_3.started,key_resp_3.started,objects_only_instruction.stopped,key_resp_3.keys,key_resp_3.rt,key_resp_3.duration,ISI.started,text_4.started,ISI.stopped,practice_block.started,image.started,text_5.started,key_resp_5.started,practice_block.stopped,practice.key_resp_5.keys,practice.key_resp_5.rt,practice.key_resp_5.duration,indoor_outdoor.started,indoor_outdoor.stopped,practice.key_resp_7.keys,text_4.stopped,image.stopped,text_5.stopped,key_resp_5.stopped,practice_to_main.started,text_2.started,key_resp_4.started,practice_to_main.stopped,key_resp_4.keys,key_resp_4.rt,key_resp_4.duration,objects.started,image_2.started,text_9.started,key_resp_9.started,objects.stopped,trials.key_resp_9.keys,trials.key_resp_9.rt,trials.key_resp_9.duration,encoding_task.started,encoding_task.stopped,trials.key_resp_8.keys,image_2.stopped,text_9.stopped,key_resp_9.stopped,text_8.started,key_resp_8.started,trials.key_resp_8.rt,trials.key_resp_8.duration,end_experiment.started,text_6.started,key_resp_6.started,end_experiment.stopped,key_resp_6.keys,key_resp_6.rt,key_resp_6.duration,list_of_stimuli,encoding_task_accuracy,participant,session,date,expName,psychopyVersion,frameRate,expStart,
,,,,,,,,,,,,,,,,,,,,,,,0.001766700000189303,0.0037867999999434687,0.0037867999999434687,690.5213354000002,space,690.5043191,None,,,,,,,,,,,,,,,,,,,,,,,,,,,,,,,,,,,,,,,,,,,,,,,,,,,,,,,,,,,,,,,,,,,00016,001,2025-11-18_15h18.28.519,MST_task,2024.2.0,59.8285791549456,2025-11-18 15h18.34.767461 +0530,
,,,,,,,,,,,,,,,,,,,,,,,,,,,,,,690.5214126999999,690.5369857000001,690.5369857000001,714.0663321000002,space,23.51596380000001,None,,,,,,,,,,,,,,,,,,,,,,,,,,,,,,,,,,,,,,,,,,,,,,,,,,,,,,,,,,,,00016,001,2025-11-18_15h18.28.519,MST_task,2024.2.0,59.8285791549456,2025-11-18 15h18.34.767461 +0530,
,,,,,,,,,,,,,,,,,,,,,,,,,,,,,,,,,,,,,714.0664590000001,714.0857500000002,714.0857500000002,730.1831937000002,space,16.094851899999867,None,,,,,,,,,,,,,,,,,,,,,,,,,,,,,,,,,,,,,,,,,,,,,,,,,,,,,00016,001,2025-11-18_15h18.28.519,MST_task,2024.2.0,59.8285791549456,2025-11-18 15h18.34.767461 +0530,
9,practice_images/180a.jpg,0,0,1,f,2.1139830999995866,0.2006192000003466,None,,,,,,,1,0,0,,,,730.2118848,,,,,,,,,,,,,,,,,,,,,,,730.2095322,730.2118848,730.6975972,730.7187663,730.7301605000002,730.7301605000002,730.7301605000002,733.6980713000003,f,2.1139830999995866,0.2006192000003466,733.7041899000001,733.7042212000001,None,,,,,,,,,,,,,,,,,,,,,,,,,,,,,,,,,,,,,,,00016,001,2025-11-18_15h18.28.519,MST_task,2024.2.0,59.8285791549456,2025-11-18 15h18.34.767461 +0530,
6,practice_images/158a.jpg,1,1,1,j,1.2307507000000442,0.18319890000020678,None,,,,,,,1,1,1,,,,733.7136948000002,,,,,,,,,,,,,,,,,,,,,,,733.7043934000003,733.7136948000002,734.1984549000003,734.2125977000001,734.2148663000003,734.2148663000003,734.2148663000003,737.1986457000003,j,1.2307507000000442,0.18319890000020678,737.1988362000002,737.1988961000002,None,734.2148663000003,737.2141808000001,737.2141808000001,737.2141808000001,,,,,,,,,,,,,,,,,,,,,,,,,,,,,,,,,,,00016,001,2025-11-18_15h18.28.519,MST_task,2024.2.0,59.8285791549456,2025-11-18 15h18.34.767461 +0530,
2,practice_images/031a.jpg,2,2,1,f,1.5012673000001087,0.20032540000011068,None,,,,,,,1,2,2,,,,737.2141808000001,,,,,,,,,,,,,,,,,,,,,,,737.1991766000001,737.2141808000001,737.6983416000003,737.7162622999999,737.7187945000001,737.7187945000001,737.7187945000001,740.7145419000003,f,1.5012673000001087,0.20032540000011068,740.7147534999999,740.7148196000003,None,737.7187945000001,,,,,,,,,,,,,,,,,,,,,,,,,,,,,,,,,,,,,,00016,001,2025-11-18_15h18.28.519,MST_task,2024.2.0,59.8285791549456,2025-11-18 15h18.34.767461 +0530,
8,practice_images/178a.jpg,3,3,1,j,2.2585988000000725,0.18322780000016792,None,,,,,,,1,3,3,,,,740.7305173,,,,,,,,,,,,,,,,,,,,,,,740.7151044000002,740.7305173,741.2153114000002,741.2318190999999,741.2341574000002,741.2341574000002,741.2341574000002,744.2312174000003,j,2.2585988000000725,0.18322780000016792,744.2314231,744.2314885000001,None,741.2341574000002,,,,,,,,,,,,,,,,,,,,,,,,,,,,,,,,,,,,,,00016,001,2025-11-18_15h18.28.519,MST_task,2024.2.0,59.8285791549456,2025-11-18 15h18.34.767461 +0530,
5,practice_images/139a.jpg,4,4,1,j,1.9077579999998306,0.1915816000000632,None,,,,,,,1,4,4,,,,744.2473972000003,,,,,,,,,,,,,,,,,,,,,,,744.2318069000003,744.2473972000003,744.7318220000002,744.7504337,744.7530029,744.7530029,744.7530029,747.7484316,j,1.9077579999998306,0.1915816000000632,747.7486954999999,747.7487684000002,None,744.7530029,,,,,,,,,,,,,,,,,,,,,,,,,,,,,,,,,,,,,,00016,001,2025-11-18_15h18.28.519,MST_task,2024.2.0,59.8285791549456,2025-11-18 15h18.34.767461 +0530,
10,practice_images/182a.jpg,5,5,1,f,2.5452666999999565,0.1765463000001546,None,,,,,,,1,5,5,,,,747.7640849,,,,,,,,,,,,,,,,,,,,,,,747.7490625,747.7640849,748.2483154000001,748.2647916000001,748.2677174,748.2677174,748.2677174,751.2646651,f,2.5452666999999565,0.1765463000001546,751.2648581000003,751.2649470000001,None,748.2677174,,,,,,,,,,,,,,,,,,,,,,,,,,,,,,,,,,,,,,00016,001,2025-11-18_15h18.28.519,MST_task,2024.2.0,59.8285791549456,2025-11-18 15h18.34.767461 +0530,
4,practice_images/002b.jpg,6,6,1,f,1.2995670999998765,0.17592190000004848,None,,,,,,,1,6,6,,,,751.2804865000003,,,,,,,,,,,,,,,,,,,,,,,751.2651885,751.2804865000003,751.7653125000002,751.7822194,751.7846304,751.7846304,751.7846304,754.7811988000003,f,1.2995670999998765,0.17592190000004848,754.7814223,754.7814910000002,None,751.7846304,,,,,,,,,,,,,,,,,,,,,,,,,,,,,,,,,,,,,,00016,001,2025-11-18_15h18.28.519,MST_task,2024.2.0,59.8285791549456,2025-11-18 15h18.34.767461 +0530,
7,practice_images/166a.jpg,7,7,1,f,1.3225173999999242,0.19936950000010256,None,,,,,,,1,7,7,,,,754.7973787000001,,,,,,,,,,,,,,,,,,,,,,,754.7817748000002,754.7973787000001,755.2821458000003,755.2956153,755.2981285999999,755.2981285999999,755.2981285999999,758.2821182000002,f,1.3225173999999242,0.19936950000010256,758.2823238999999,758.2823871,None,755.2981285999999,758.2972687000001,758.2972687000001,758.2972687000001,,,,,,,,,,,,,,,,,,,,,,,,,,,,,,,,,,,00016,001,2025-11-18_15h18.28.519,MST_task,2024.2.0,59.8285791549456,2025-11-18 15h18.34.767461 +0530,
3,practice_images/037a.jpg,8,8,1,f,1.140544399999726,0.17673259999992297,None,,,,,,,1,8,8,,,,758.2972687000001,,,,,,,,,,,,,,,,,,,,,,,758.282667,758.2972687000001,758.7819497,758.7972103000002,758.7995452,758.7995452,758.7995452,761.7981528,f,1.140544399999726,0.17673259999992297,761.7983803000002,761.7984474,None,758.7995452,,,,,,,,,,,,,,,,,,,,,,,,,,,,,,,,,,,,,,00016,001,2025-11-18_15h18.28.519,MST_task,2024.2.0,59.8285791549456,2025-11-18 15h18.34.767461 +0530,
1,practice_images/013a.jpg,9,9,1,j,1.3851636000003964,0.23996790000001056,None,,,,,,,1,9,9,,,,761.8140903000003,,,,,,,,,,,,,,,,,,,,,,,761.7987415000002,761.8140903000003,762.2982474,762.3120659000001,762.3148885,762.3148885,762.3148885,765.2989351000001,j,1.3851636000003964,0.23996790000001056,765.2991533,765.2992148000003,None,762.3148885,765.3138689000002,765.3138689000002,765.3138689000002,,,,,,,,,,,,,,,,,,,,,,,,,,,,,,,,,,,00016,001,2025-11-18_15h18.28.519,MST_task,2024.2.0,59.8285791549456,2025-11-18 15h18.34.767461 +0530,
,,,,,,,,,,,,,,,,,,,,,,,,,,,,,,,,,,,,,,,,,,,,,,,,,,,,,,,,,,,,,,765.2993873,765.3138689000002,765.3138689000002,788.8498355000002,space,23.530533099999957,None,,,,,,,,,,,,,,,,,,,,,,,,,,,,00016,001,2025-11-18_15h18.28.519,MST_task,2024.2.0,59.8285791549456,2025-11-18 15h18.34.767461 +0530,
,Scenes\124a.jpg,0,0,1,,,,,f,1.9093630999996094,0.16841199999998935,None,,,,,,1,0,0,788.8638632000002,,,,,,,,,,,,,,,,,,,,,,,788.8521012000001,788.8638632000002,789.3484428000002,,,,,,,,,,,,789.3829714000003,,,,,,,,,,,789.3790873000003,789.3829714000003,789.3829714000003,789.3829714000003,792.3647157,f,1.9093630999996094,0.16841199999998935,792.3707997000001,792.3708667999999,None,,,,,,,,,,,,,,,,,00016,001,2025-11-18_15h18.28.519,MST_task,2024.2.0,59.8285791549456,2025-11-18 15h18.34.767461 +0530,
,Scenes\041a.jpg,1,0,2,,,,,j,0.8974097999998776,0.207902500000273,None,,,,,,2,0,1,792.3803630000002,,,,,,,,,,,,,,,,,,,,,,,792.3710744,792.3803630000002,792.8649543000001,,,,,,,,,,,,792.8990689000002,,,,,,,,,,,792.8954946000003,792.8990689000002,792.8990689000002,792.8990689000002,795.8813792999999,j,0.8974097999998776,0.207902500000273,795.8816044,795.8816666000002,None,,,,,,,,,,,,,,,,,00016,001,2025-11-18_15h18.28.519,MST_task,2024.2.0,59.8285791549456,2025-11-18 15h18.34.767461 +0530,
,Scenes\111a.jpg,2,0,3,,,,,j,1.7762471999999434,0.16862200000014127,None,,,,,,3,0,2,795.8974268000002,,,,,,,,,,,,,,,,,,,,,,,795.8820695,795.8974268000002,796.3815287000002,,,,,,,,,,,,796.4039916000002,,,,,,,,,,,796.4005944,796.4039916000002,796.4039916000002,796.4039916000002,799.3981821000002,j,1.7762471999999434,0.16862200000014127,799.398416,799.3985173000001,None,,,,,,,,,,,,,,,,,00016,001,2025-11-18_15h18.28.519,MST_task,2024.2.0,59.8285791549456,2025-11-18 15h18.34.767461 +0530,
,Scenes\072a.jpg,3,0,4,,,,,j,1.1241543999999521,0.23201719999997295,None,,,,,,4,0,3,799.4140605000002,,,,,,,,,,,,,,,,,,,,,,,799.3988183000001,799.4140605000002,799.8985388000001,,,,,,,,,,,,799.9358628,,,,,,,,,,,799.9325597000002,799.9358628,799.9358628,799.9358628,802.9147696,j,1.1241543999999521,0.23201719999997295,802.9149934000002,802.9150543999999,None,,,,,,,,,,,,,,,,,00016,001,2025-11-18_15h18.28.519,MST_task,2024.2.0,59.8285791549456,2025-11-18 15h18.34.767461 +0530,
,Scenes\028a.jpg,4,0,5,,,,,j,1.130826199999774,0.1923906000001807,None,,,,,,5,0,4,802.9306747999999,,,,,,,,,,,,,,,,,,,,,,,802.9154332000003,802.9306747999999,803.4152977000003,,,,,,,,,,,,803.4413009,,,,,,,,,,,803.4378430000002,803.4413009,803.4413009,803.4413009,806.4312351000003,j,1.130826199999774,0.1923906000001807,806.4314379000002,806.4314981000002,None,,,,,,,,,,,,,,,,,00016,001,2025-11-18_15h18.28.519,MST_task,2024.2.0,59.8285791549456,2025-11-18 15h18.34.767461 +0530,
,Scenes\130a.jpg,5,0,6,,,,,j,0.8274609999998574,0.22442300000011528,None,,,,,,6,0,5,806.4475114000002,,,,,,,,,,,,,,,,,,,,,,,806.4318745999999,806.4475114000002,806.9318917,,,,,,,,,,,,806.9608871,,,,,,,,,,,806.9575346000001,806.9608871,806.9608871,806.9608871,809.9480530000001,j,0.8274609999998574,0.22442300000011528,809.948269,809.9483304,None,,,,,,,,,,,,,,,,,00016,001,2025-11-18_15h18.28.519,MST_task,2024.2.0,59.8285791549456,2025-11-18 15h18.34.767461 +0530,
,Scenes\184a.jpg,6,0,7,,,,,j,1.2049975999998424,0.19947799999999916,None,,,,,,7,0,6,809.9641736000003,,,,,,,,,,,,,,,,,,,,,,,809.9486303000003,809.9641736000003,810.4486508,,,,,,,,,,,,810.4715460000002,,,,,,,,,,,810.4681939000002,810.4715460000002,810.4715460000002,810.4715460000002,813.4646842000002,j,1.2049975999998424,0.19947799999999916,813.4649145000003,813.4649713000003,None,,,,,,,,,,,,,,,,,00016,001,2025-11-18_15h18.28.519,MST_task,2024.2.0,59.8285791549456,2025-11-18 15h18.34.767461 +0530,
,Objects\174a.jpg,7,0,8,,,,,f,1.0979993000000832,0.22383320000017193,None,,,,,,8,0,7,813.4806229000001,,,,,,,,,,,,,,,,,,,,,,,813.4652934000001,813.4806229000001,813.9654230000001,,,,,,,,,,,,813.9941406000003,,,,,,,,,,,813.9914732000002,813.9941406000003,813.9941406000003,813.9941406000003,816.9814230000002,f,1.0979993000000832,0.22383320000017193,816.9816585000003,816.9817191000002,None,,,,,,,,,,,,,,,,,00016,001,2025-11-18_15h18.28.519,MST_task,2024.2.0,59.8285791549456,2025-11-18 15h18.34.767461 +0530,
,Objects\154a.jpg,8,0,9,,,,,f,0.6892997999998443,0.18344109999998182,None,,,,,,9,0,8,816.9974264000002,,,,,,,,,,,,,,,,,,,,,,,816.9821023,816.9974264000002,817.4819315,,,,,,,,,,,,817.4993387,,,,,,,,,,,817.4967431,817.4993387,817.4993387,817.4993387,820.4984,f,0.6892997999998443,0.18344109999998182,820.4986280000003,820.4986837000001,None,,,,,,,,,,,,,,,,,00016,001,2025-11-18_15h18.28.519,MST_task,2024.2.0,59.8285791549456,2025-11-18 15h18.34.767461 +0530,
,Objects\057a.jpg,9,0,10,,,,,f,0.8838286000000153,0.19957409999960873,None,,,,,,10,0,9,820.5140801000002,,,,,,,,,,,,,,,,,,,,,,,820.4990411000003,820.5140801000002,820.9986758,,,,,,,,,,,,821.0167188,,,,,,,,,,,821.0141103000001,821.0167188,821.0167188,821.0167188,824.0149713999999,f,0.8838286000000153,0.19957409999960873,824.0152072999999,824.0152677000001,None,,,,,,,,,,,,,,,,,00016,001,2025-11-18_15h18.28.519,MST_task,2024.2.0,59.8285791549456,2025-11-18 15h18.34.767461 +0530,
,Objects\077a.jpg,10,0,11,,,,,j,1.782517000000098,0.1687323999999535,None,,,,,,11,0,10,824.0306994000002,,,,,,,,,,,,,,,,,,,,,,,824.0155451999999,824.0306994000002,824.5151573000003,,,,,,,,,,,,824.5334171,,,,,,,,,,,824.5309111000001,824.5334171,824.5334171,824.5334171,827.5309770000003,j,1.782517000000098,0.1687323999999535,827.5311988000003,827.5312603000002,None,,,,,,,,,,,,,,,,,00016,001,2025-11-18_15h18.28.519,MST_task,2024.2.0,59.8285791549456,2025-11-18 15h18.34.767461 +0530,
,Objects\158a.jpg,11,0,12,,,,,f,2.0413797999999588,0.17626970000037545,None,,,,,,12,0,11,827.5474337999999,,,,,,,,,,,,,,,,,,,,,,,827.5316832000003,827.5474337999999,828.0317345000003,,,,,,,,,,,,828.0507471999999,,,,,,,,,,,828.0481530000002,828.0507471999999,828.0507471999999,828.0507471999999,831.0477833,f,2.0413797999999588,0.17626970000037545,831.0480001999999,831.0480587000002,None,,,,,,,,,,,,,,,,,00016,001,2025-11-18_15h18.28.519,MST_task,2024.2.0,59.8285791549456,2025-11-18 15h18.34.767461 +0530,
,Objects\120a.jpg,12,0,13,,,,,f,1.4933045000002494,0.21540890000005675,None,,,,,,13,0,12,831.0640498000002,,,,,,,,,,,,,,,,,,,,,,,831.0484277,831.0640498000002,831.5484196000002,,,,,,,,,,,,831.5673901,,,,,,,,,,,831.5648708000003,831.5673901,831.5673901,831.5673901,834.5654191000003,f,1.4933045000002494,0.21540890000005675,834.565646,834.5657059,None,,,,,,,,,,,,,,,,,00016,001,2025-11-18_15h18.28.519,MST_task,2024.2.0,59.8285791549456,2025-11-18 15h18.34.767461 +0530,
,Objects\140a.jpg,13,0,14,,,,,f,2.223301900000024,0.18368839999993725,None,,,,,,14,0,13,834.5805077,,,,,,,,,,,,,,,,,,,,,,,834.5660050000001,834.5805077,835.0650882,,,,,,,,,,,,835.0853146,,,,,,,,,,,835.0827367000002,835.0853146,835.0853146,835.0853146,838.081322,f,2.223301900000024,0.18368839999993725,838.0815449000002,838.0816042000001,None,,,,,,,,,,,,,,,,,00016,001,2025-11-18_15h18.28.519,MST_task,2024.2.0,59.8285791549456,2025-11-18 15h18.34.767461 +0530,
,Scenes\074a.jpg,14,0,15,,,,,j,1.737469300000157,0.21623859999999695,None,,,,,,15,0,14,838.0973346000001,,,,,,,,,,,,,,,,,,,,,,,838.0819517,838.0973346000001,838.5815658000001,,,,,,,,,,,,838.6108598000001,,,,,,,,,,,838.6077150000001,838.6108598000001,838.6108598000001,838.6108598000001,841.5978657,j,1.737469300000157,0.21623859999999695,841.5980661000003,841.5981168000003,None,,,,,,,,,,,,,,,,,00016,001,2025-11-18_15h18.28.519,MST_task,2024.2.0,59.8285791549456,2025-11-18 15h18.34.767461 +0530,
,Scenes\128a.jpg,15,0,16,,,,,j,1.2474362999996629,0.1995604000003368,None,,,,,,16,0,15,841.6141654000003,,,,,,,,,,,,,,,,,,,,,,,841.5984493999999,841.6141654000003,842.0984170000002,,,,,,,,,,,,842.1251335000002,,,,,,,,,,,842.1218388000002,842.1251335000002,842.1251335000002,842.1251335000002,845.1147155000003,j,1.2474362999996629,0.1995604000003368,845.1149049999999,845.1149528999999,None,,,,,,,,,,,,,,,,,00016,001,2025-11-18_15h18.28.519,MST_task,2024.2.0,59.8285791549456,2025-11-18 15h18.34.767461 +0530,
,Scenes\082a.jpg,16,0,17,,,,,f,2.5583575999999084,0.17579960000011852,None,,,,,,17,0,16,845.1306663,,,,,,,,,,,,,,,,,,,,,,,845.1152689,845.1306663,845.6152004999999,,,,,,,,,,,,845.6460397000001,,,,,,,,,,,845.6425908000001,845.6460397000001,845.6460397000001,845.6460397000001,848.6310040000003,f,2.5583575999999084,0.17579960000011852,848.6312257,848.6312883,None,,,,,,,,,,,,,,,,,00016,001,2025-11-18_15h18.28.519,MST_task,2024.2.0,59.8285791549456,2025-11-18 15h18.34.767461 +0530,
,Scenes\020a.jpg,17,0,18,,,,,f,1.0015558999998575,0.21516180000025997,None,,,,,,18,0,17,848.6474826000003,,,,,,,,,,,,,,,,,,,,,,,848.6316655,848.6474826000003,849.1319269999999,,,,,,,,,,,,849.1632781000003,,,,,,,,,,,849.1597768000001,849.1632781000003,849.1632781000003,849.1632781000003,852.1480510000001,f,1.0015558999998575,0.21516180000025997,852.1482673,852.1483259000001,None,,,,,,,,,,,,,,,,,00016,001,2025-11-18_15h18.28.519,MST_task,2024.2.0,59.8285791549456,2025-11-18 15h18.34.767461 +0530,
,Scenes\077a.jpg,18,0,19,,,,,j,0.9103694999998879,0.20918859999983397,None,,,,,,19,0,18,852.1642411000003,,,,,,,,,,,,,,,,,,,,,,,852.1487118,852.1642411000003,852.6484952999999,,,,,,,,,,,,852.6781396000001,,,,,,,,,,,852.6747981000003,852.6781396000001,852.6781396000001,852.6781396000001,855.6655888,j,0.9103694999998879,0.20918859999983397,855.6657884000001,855.6658451000003,None,,,,,,,,,,,,,,,,,00016,001,2025-11-18_15h18.28.519,MST_task,2024.2.0,59.8285791549456,2025-11-18 15h18.34.767461 +0530,
,Scenes\023a.jpg,19,0,20,,,,,f,0.8107312000001912,0.20011010000007445,None,,,,,,20,0,19,855.6804228000001,,,,,,,,,,,,,,,,,,,,,,,855.6661259000002,855.6804228000001,856.1647412000002,,,,,,,,,,,,856.1937708,,,,,,,,,,,856.1904650000001,856.1937708,856.1937708,856.1937708,859.1811457000003,f,0.8107312000001912,0.20011010000007445,859.1813652000001,859.1814241000002,None,,,,,,,,,,,,,,,,,00016,001,2025-11-18_15h18.28.519,MST_task,2024.2.0,59.8285791549456,2025-11-18 15h18.34.767461 +0530,
,Scenes\098a.jpg,20,0,21,,,,,f,1.033644699999968,0.17630359999975553,None,,,,,,21,0,20,859.1973432,,,,,,,,,,,,,,,,,,,,,,,859.1818023999999,859.1973432,859.6809443000002,,,,,,,,,,,,859.6989498000003,,,,,,,,,,,859.6951914000001,859.6989498000003,859.6989498000003,859.6989498000003,862.698101,f,1.033644699999968,0.17630359999975553,862.6983341,862.6983941000003,None,,,,,,,,,,,,,,,,,00016,001,2025-11-18_15h18.28.519,MST_task,2024.2.0,59.8285791549456,2025-11-18 15h18.34.767461 +0530,
,Objects\098a.jpg,21,0,22,,,,,f,1.1936202000001686,0.2004519999995864,None,,,,,,22,0,21,862.7140520000003,,,,,,,,,,,,,,,,,,,,,,,862.6986955000002,862.7140520000003,863.1985169,,,,,,,,,,,,863.2189065000002,,,,,,,,,,,863.2157896000003,863.2189065000002,863.2189065000002,863.2189065000002,866.2144544000002,f,1.1936202000001686,0.2004519999995864,866.2146505000001,866.2147032000003,None,,,,,,,,,,,,,,,,,00016,001,2025-11-18_15h18.28.519,MST_task,2024.2.0,59.8285791549456,2025-11-18 15h18.34.767461 +0530,
,Objects\119a.jpg,22,0,23,,,,,f,1.214274800000112,0.17573559999982535,None,,,,,,23,0,22,866.2304205,,,,,,,,,,,,,,,,,,,,,,,866.2150822000003,866.2304205,866.7151682000003,,,,,,,,,,,,866.7343543000002,,,,,,,,,,,866.7317364,866.7343543000002,866.7343543000002,866.7343543000002,869.7310674,f,1.214274800000112,0.17573559999982535,869.7312966,869.7313573000001,None,,,,,,,,,,,,,,,,,00016,001,2025-11-18_15h18.28.519,MST_task,2024.2.0,59.8285791549456,2025-11-18 15h18.34.767461 +0530,
,Objects\070a.jpg,23,0,24,,,,,f,1.1212721000001693,0.16844529999980296,None,,,,,,24,0,23,869.7474052000002,,,,,,,,,,,,,,,,,,,,,,,869.7317281,869.7474052000002,870.2314599000001,,,,,,,,,,,,870.2511084000002,,,,,,,,,,,870.2484450000002,870.2511084000002,870.2511084000002,870.2511084000002,873.2480642,f,1.1212721000001693,0.16844529999980296,873.2482847000001,873.2483455000001,None,,,,,,,,,,,,,,,,,00016,001,2025-11-18_15h18.28.519,MST_task,2024.2.0,59.8285791549456,2025-11-18 15h18.34.767461 +0530,
,Objects\083a.jpg,24,0,25,,,,,f,1.251420500000222,0.17614589999993768,None,,,,,,25,0,24,873.2640885999999,,,,,,,,,,,,,,,,,,,,,,,873.2486779000001,873.2640885999999,873.7485876999999,,,,,,,,,,,,873.7686672,,,,,,,,,,,873.7659477000002,873.7686672,873.7686672,873.7686672,876.7647443000001,f,1.251420500000222,0.17614589999993768,876.7649924000002,876.7650524000001,None,,,,,,,,,,,,,,,,,00016,001,2025-11-18_15h18.28.519,MST_task,2024.2.0,59.8285791549456,2025-11-18 15h18.34.767461 +0530,
,Objects\048a.jpg,25,0,26,,,,,j,0.8813789999999244,0.23147490000019388,None,,,,,,26,0,25,876.7805814000003,,,,,,,,,,,,,,,,,,,,,,,876.7653485000001,876.7805814000003,877.2650619000001,,,,,,,,,,,,877.2833930000002,,,,,,,,,,,877.2809206000002,877.2833930000002,877.2833930000002,877.2833930000002,880.2813169000001,j,0.8813789999999244,0.23147490000019388,880.2815304999999,880.2815903999999,None,,,,,,,,,,,,,,,,,00016,001,2025-11-18_15h18.28.519,MST_task,2024.2.0,59.8285791549456,2025-11-18 15h18.34.767461 +0530,
,Objects\042a.jpg,26,0,27,,,,,f,0.8383185999996385,0.15174320000005537,None,,,,,,27,0,26,880.2974348000002,,,,,,,,,,,,,,,,,,,,,,,880.2818831,880.2974348000002,880.7814179000002,,,,,,,,,,,,880.7985667000003,,,,,,,,,,,880.7960505000001,880.7985667000003,880.7985667000003,880.7985667000003,883.7829926,f,0.8383185999996385,0.15174320000005537,883.7832299000002,883.7832806000001,None,883.7974825000001,883.7974825000001,883.7974825000001,,,,,,,,,,,,,,00016,001,2025-11-18_15h18.28.519,MST_task,2024.2.0,59.8285791549456,2025-11-18 15h18.34.767461 +0530,
,Objects\093a.jpg,27,0,28,,,,,j,1.1938979999999901,0.20763290000013512,None,,,,,,28,0,27,883.7974825000001,,,,,,,,,,,,,,,,,,,,,,,883.7835457000001,883.7974825000001,884.2816785,,,,,,,,,,,,884.2986844000002,,,,,,,,,,,884.2961434000003,884.2986844000002,884.2986844000002,884.2986844000002,887.2978692000002,j,1.1938979999999901,0.20763290000013512,887.2980898999999,887.2981514000003,None,,,,,,,,,,,,,,,,,00016,001,2025-11-18_15h18.28.519,MST_task,2024.2.0,59.8285791549456,2025-11-18 15h18.34.767461 +0530,
,Scenes\133a.jpg,28,0,29,,,,,j,0.6825873000002503,0.2083159999997406,None,,,,,,29,0,28,887.3139571000002,,,,,,,,,,,,,,,,,,,,,,,887.2984469000003,887.3139571000002,887.7984635000003,,,,,,,,,,,,887.8258784,,,,,,,,,,,887.8227605000002,887.8258784,887.8258784,887.8258784,890.8146000000002,j,0.6825873000002503,0.2083159999997406,890.8148284000004,890.8148880000003,None,,,,,,,,,,,,,,,,,00016,001,2025-11-18_15h18.28.519,MST_task,2024.2.0,59.8285791549456,2025-11-18 15h18.34.767461 +0530,
,Scenes\180a.jpg,29,0,30,,,,,j,0.5916419999998652,0.19230449999986376,None,,,,,,30,0,29,890.8305082000002,,,,,,,,,,,,,,,,,,,,,,,890.8152614999999,890.8305082000002,891.3153197000001,,,,,,,,,,,,891.3404715000001,,,,,,,,,,,891.3377307999999,891.3404715000001,891.3404715000001,891.3404715000001,894.3311557000002,j,0.5916419999998652,0.19230449999986376,894.3313634000001,894.3314221,None,,,,,,,,,,,,,,,,,00016,001,2025-11-18_15h18.28.519,MST_task,2024.2.0,59.8285791549456,2025-11-18 15h18.34.767461 +0530,
,Scenes\179a.jpg,30,0,31,,,,,j,0.7963323000003584,0.20005269999956,None,,,,,,31,0,30,894.3472929,,,,,,,,,,,,,,,,,,,,,,,894.3317161,894.3472929,894.8315612000001,,,,,,,,,,,,894.8560167999999,,,,,,,,,,,894.8529837000001,894.8560167999999,894.8560167999999,894.8560167999999,897.8479539,j,0.7963323000003584,0.20005269999956,897.8481759000001,897.8482325,None,,,,,,,,,,,,,,,,,00016,001,2025-11-18_15h18.28.519,MST_task,2024.2.0,59.8285791549456,2025-11-18 15h18.34.767461 +0530,
,Scenes\167a.jpg,31,0,32,,,,,f,2.4592815999999402,0.20777959999986706,None,,,,,,32,0,31,897.8639448000004,,,,,,,,,,,,,,,,,,,,,,,897.848528,897.8639448000004,898.3482179000002,,,,,,,,,,,,898.3773039000002,,,,,,,,,,,898.3740457000004,898.3773039000002,898.3773039000002,898.3773039000002,901.3645039000003,f,2.4592815999999402,0.20777959999986706,901.3646950000002,901.364744,None,,,,,,,,,,,,,,,,,00016,001,2025-11-18_15h18.28.519,MST_task,2024.2.0,59.8285791549456,2025-11-18 15h18.34.767461 +0530,
,Scenes\078a.jpg,32,0,33,,,,,j,1.5046339000000444,0.25531150000006164,None,,,,,,33,0,32,901.3805007000001,,,,,,,,,,,,,,,,,,,,,,,901.3650691000003,901.3805007000001,901.8651528,,,,,,,,,,,,901.8920010000002,,,,,,,,,,,901.8886551999999,901.8920010000002,901.8920010000002,901.8920010000002,904.8811926000003,j,1.5046339000000444,0.25531150000006164,904.8814095000002,904.8814691000002,None,,,,,,,,,,,,,,,,,00016,001,2025-11-18_15h18.28.519,MST_task,2024.2.0,59.8285791549456,2025-11-18 15h18.34.767461 +0530,
,Scenes\140a.jpg,33,0,34,,,,,j,0.7031001999998807,0.24834580000015194,None,,,,,,34,0,33,904.897312,,,,,,,,,,,,,,,,,,,,,,,904.8818163999999,904.897312,905.3818785000003,,,,,,,,,,,,905.4049912,,,,,,,,,,,905.4016661,905.4049912,905.4049912,905.4049912,908.3979265000003,j,0.7031001999998807,0.24834580000015194,908.3981478999999,908.398205,None,,,,,,,,,,,,,,,,,00016,001,2025-11-18_15h18.28.519,MST_task,2024.2.0,59.8285791549456,2025-11-18 15h18.34.767461 +0530,
,Scenes\030a.jpg,34,0,35,,,,,j,0.651877499999955,0.21568219999971916,None,,,,,,35,0,34,908.4141341,,,,,,,,,,,,,,,,,,,,,,,908.3985836000002,908.4141341,908.8986405,,,,,,,,,,,,908.9289612000002,,,,,,,,,,,908.9256517000003,908.9289612000002,908.9289612000002,908.9289612000002,911.9147732000001,j,0.651877499999955,0.21568219999971916,911.9149846,911.9150443000003,None,,,,,,,,,,,,,,,,,00016,001,2025-11-18_15h18.28.519,MST_task,2024.2.0,59.8285791549456,2025-11-18 15h18.34.767461 +0530,
,Objects\108a.jpg,35,0,36,,,,,f,1.686552600000141,0.17644900000004782,None,,,,,,36,0,35,911.9306752000002,,,,,,,,,,,,,,,,,,,,,,,911.9153403,911.9306752000002,912.4153283999999,,,,,,,,,,,,912.4376772,,,,,,,,,,,912.4345241000001,912.4376772,912.4376772,912.4376772,915.4312073000001,f,1.686552600000141,0.17644900000004782,915.4314450000002,915.4315051000003,None,,,,,,,,,,,,,,,,,00016,001,2025-11-18_15h18.28.519,MST_task,2024.2.0,59.8285791549456,2025-11-18 15h18.34.767461 +0530,
,Objects\033a.jpg,36,0,37,,,,,f,0.8112326999998913,0.1994409000003543,None,,,,,,37,0,36,915.4474869000001,,,,,,,,,,,,,,,,,,,,,,,915.4318725000003,915.4474869000001,915.9318311000002,,,,,,,,,,,,915.9534379000002,,,,,,,,,,,915.9506995000002,915.9534379000002,915.9534379000002,915.9534379000002,918.9479153000002,f,0.8112326999998913,0.1994409000003543,918.9481523,918.9482125,None,,,,,,,,,,,,,,,,,00016,001,2025-11-18_15h18.28.519,MST_task,2024.2.0,59.8285791549456,2025-11-18 15h18.34.767461 +0530,
,Objects\088a.jpg,37,0,38,,,,,f,1.1361282000002575,0.19126689999984592,None,,,,,,38,0,37,918.9641770000003,,,,,,,,,,,,,,,,,,,,,,,918.9485085000001,918.9641770000003,919.448445,,,,,,,,,,,,919.4687905000001,,,,,,,,,,,919.4660526000002,919.4687905000001,919.4687905000001,919.4687905000001,922.4646325000003,f,1.1361282000002575,0.19126689999984592,922.4648473000002,922.4649060000002,None,,,,,,,,,,,,,,,,,00016,001,2025-11-18_15h18.28.519,MST_task,2024.2.0,59.8285791549456,2025-11-18 15h18.34.767461 +0530,
,Objects\115a.jpg,38,0,39,,,,,f,0.6905115999998088,0.2080246000000443,None,,,,,,39,0,38,922.4808207000001,,,,,,,,,,,,,,,,,,,,,,,922.4652815,922.4808207000001,922.9655736,,,,,,,,,,,,922.9861639999999,,,,,,,,,,,922.9833086000003,922.9861639999999,922.9861639999999,922.9861639999999,925.9812155,f,0.6905115999998088,0.2080246000000443,925.9814594,925.9815216000002,None,,,,,,,,,,,,,,,,,00016,001,2025-11-18_15h18.28.519,MST_task,2024.2.0,59.8285791549456,2025-11-18 15h18.34.767461 +0530,
,Objects\032a.jpg,39,0,40,,,,,j,0.6567435000001751,0.23228680000011082,None,,,,,,40,0,39,925.9975412000003,,,,,,,,,,,,,,,,,,,,,,,925.9819434999999,925.9975412000003,926.4817998000003,,,,,,,,,,,,926.4994339,,,,,,,,,,,926.4968155000001,926.4994339,926.4994339,926.4994339,929.4979745,j,0.6567435000001751,0.23228680000011082,929.4981827000001,929.4982752000001,None,,,,,,,,,,,,,,,,,00016,001,2025-11-18_15h18.28.519,MST_task,2024.2.0,59.8285791549456,2025-11-18 15h18.34.767461 +0530,
,Objects\124a.jpg,40,0,41,,,,,f,1.1505475999997543,0.2164809000000787,None,,,,,,41,0,40,929.5140016,,,,,,,,,,,,,,,,,,,,,,,929.4986461000003,929.5140016,929.9988406000002,,,,,,,,,,,,930.0215961000004,,,,,,,,,,,930.0186562000004,930.0215961000004,930.0215961000004,930.0215961000004,933.0146001000003,f,1.1505475999997543,0.2164809000000787,933.0148363000003,933.0148982999999,None,,,,,,,,,,,,,,,,,00016,001,2025-11-18_15h18.28.519,MST_task,2024.2.0,59.8285791549456,2025-11-18 15h18.34.767461 +0530,
,Objects\130a.jpg,41,0,42,,,,,f,1.4772447000000284,0.22365190000027724,None,,,,,,42,0,41,933.0307659,,,,,,,,,,,,,,,,,,,,,,,933.0153214000002,933.0307659,933.5152876000002,,,,,,,,,,,,933.5357209000003,,,,,,,,,,,933.5326635000001,933.5357209000003,933.5357209000003,933.5357209000003,936.5313620000002,f,1.4772447000000284,0.22365190000027724,936.5316228000002,936.5316812000001,None,,,,,,,,,,,,,,,,,00016,001,2025-11-18_15h18.28.519,MST_task,2024.2.0,59.8285791549456,2025-11-18 15h18.34.767461 +0530,
,Scenes\054a.jpg,42,0,43,,,,,j,0.807073500000115,0.21571469999980764,None,,,,,,43,0,42,936.5474355000001,,,,,,,,,,,,,,,,,,,,,,,936.5319804999999,936.5474355000001,937.0318972,,,,,,,,,,,,937.0614175999999,,,,,,,,,,,937.0582562,937.0614175999999,937.0614175999999,937.0614175999999,940.0481142000003,j,0.807073500000115,0.21571469999980764,940.0483375000003,940.0483964,None,,,,,,,,,,,,,,,,,00016,001,2025-11-18_15h18.28.519,MST_task,2024.2.0,59.8285791549456,2025-11-18 15h18.34.767461 +0530,
,Scenes\158a.jpg,43,0,44,,,,,j,1.2210007000003316,0.18414349999966362,None,,,,,,44,0,43,940.0643110999999,,,,,,,,,,,,,,,,,,,,,,,940.0487745,940.0643110999999,940.5484648000001,,,,,,,,,,,,940.5752155,,,,,,,,,,,940.571809,940.5752155,940.5752155,940.5752155,943.5646856000003,j,1.2210007000003316,0.18414349999966362,943.5651350000003,943.56522,None,,,,,,,,,,,,,,,,,00016,001,2025-11-18_15h18.28.519,MST_task,2024.2.0,59.8285791549456,2025-11-18 15h18.34.767461 +0530,
,Scenes\116a.jpg,44,0,45,,,,,j,0.7059128999999302,0.1997271999998702,None,,,,,,45,0,44,943.5806905,,,,,,,,,,,,,,,,,,,,,,,943.5655426000003,943.5806905,944.0650811,,,,,,,,,,,,944.0907443000001,,,,,,,,,,,944.0874852000002,944.0907443000001,944.0907443000001,944.0907443000001,947.0811060999999,j,0.7059128999999302,0.1997271999998702,947.0813025000002,947.0813482000003,None,,,,,,,,,,,,,,,,,00016,001,2025-11-18_15h18.28.519,MST_task,2024.2.0,59.8285791549456,2025-11-18 15h18.34.767461 +0530,
,Scenes\149a.jpg,45,0,46,,,,,None,,,j,0.6943209999999453,None,,,,46,0,45,947.0973053000002,,,,,,,,,,,,,,,,,,,,,,,947.0816391000003,947.0973053000002,947.5818033,,,,,,,,,,,,947.6252741000003,,,,,,,,,,,947.6216812000002,947.6252741000003,947.6252741000003,947.6252741000003,950.5980352000001,None,,,950.5982223999999,951.3160478,j,,,,950.6141104000003,950.6141104000003,0.6943209999999453,None,,,,,,,,,,00016,001,2025-11-18_15h18.28.519,MST_task,2024.2.0,59.8285791549456,2025-11-18 15h18.34.767461 +0530,
,Scenes\115a.jpg,46,0,47,,,,,j,1.5653247000000192,0.20760919999975158,None,,,,,,47,0,46,951.3307223000002,,,,,,,,,,,,,,,,,,,,,,,951.3163953000003,951.3307223000002,951.8151990000001,,,,,,,,,,,,951.8392355000001,,,,,,,,,,,951.8365554000002,951.8392355000001,951.8392355000001,951.8392355000001,954.8312875000001,j,1.5653247000000192,0.20760919999975158,954.8314983,954.8315557999999,None,,,,,,,,,,,,,,,,,00016,001,2025-11-18_15h18.28.519,MST_task,2024.2.0,59.8285791549456,2025-11-18 15h18.34.767461 +0530,
,Scenes\061a.jpg,47,0,48,,,,,j,1.2183897999998408,0.21614670000008118,None,,,,,,48,0,47,954.847471,,,,,,,,,,,,,,,,,,,,,,,954.8318520000003,954.847471,955.3319455999999,,,,,,,,,,,,955.3539644000002,,,,,,,,,,,955.3508262,955.3539644000002,955.3539644000002,955.3539644000002,958.3480331999999,j,1.2183897999998408,0.21614670000008118,958.3482661000003,958.3483233000002,None,,,,,,,,,,,,,,,,,00016,001,2025-11-18_15h18.28.519,MST_task,2024.2.0,59.8285791549456,2025-11-18 15h18.34.767461 +0530,
,Scenes\160a.jpg,48,0,49,,,,,j,0.922814400000334,0.2398009999997157,None,,,,,,49,0,48,958.3641163000002,,,,,,,,,,,,,,,,,,,,,,,958.3487041000003,958.3641163000002,958.8487709999999,,,,,,,,,,,,958.8735226000003,,,,,,,,,,,958.8702979,958.8735226000003,958.8735226000003,958.8735226000003,961.8645772,j,0.922814400000334,0.2398009999997157,961.8647800000003,961.8648338000003,None,,,,,,,,,,,,,,,,,00016,001,2025-11-18_15h18.28.519,MST_task,2024.2.0,59.8285791549456,2025-11-18 15h18.34.767461 +0530,
,Objects\136a.jpg,49,0,50,,,,,f,1.1237215000001015,0.19162640000013198,None,,,,,,50,0,49,961.8805626000003,,,,,,,,,,,,,,,,,,,,,,,961.8652129000002,961.8805626000003,962.3653446000003,,,,,,,,,,,,962.3852846,,,,,,,,,,,962.3820356000001,962.3852846,962.3852846,962.3852846,965.3810425000001,f,1.1237215000001015,0.19162640000013198,965.3812694000003,965.3813293000003,None,,,,,,,,,,,,,,,,,00016,001,2025-11-18_15h18.28.519,MST_task,2024.2.0,59.8285791549456,2025-11-18 15h18.34.767461 +0530,
,Objects\157a.jpg,50,0,51,,,,,f,0.8022375000000466,0.215941599999951,None,,,,,,51,0,50,965.3973224000001,,,,,,,,,,,,,,,,,,,,,,,965.3816889,965.3973224000001,965.8817496000001,,,,,,,,,,,,965.8982479000001,,,,,,,,,,,965.8952644999999,965.8982479000001,965.8982479000001,965.8982479000001,968.8822201000003,f,0.8022375000000466,0.215941599999951,968.8823935,968.8824346000001,None,968.8974106000001,968.8974106000001,968.8974106000001,,,,,,,,,,,,,,00016,001,2025-11-18_15h18.28.519,MST_task,2024.2.0,59.8285791549456,2025-11-18 15h18.34.767461 +0530,
,Objects\155a.jpg,51,0,52,,,,,f,1.1244394999998804,0.16802039999993212,None,,,,,,52,0,51,968.8974106000001,,,,,,,,,,,,,,,,,,,,,,,968.8827039000003,968.8974106000001,969.3815859000001,,,,,,,,,,,,969.4003371000003,,,,,,,,,,,969.397825,969.4003371000003,969.4003371000003,969.4003371000003,972.3978479000002,f,1.1244394999998804,0.16802039999993212,972.3981220999999,972.3981813,None,,,,,,,,,,,,,,,,,00016,001,2025-11-18_15h18.28.519,MST_task,2024.2.0,59.8285791549456,2025-11-18 15h18.34.767461 +0530,
,Objects\002a.jpg,52,0,53,,,,,f,1.1722469999999703,0.19993960000010702,None,,,,,,53,0,52,972.4139681000001,,,,,,,,,,,,,,,,,,,,,,,972.3985312,972.4139681000001,972.8984141999999,,,,,,,,,,,,972.9204664000004,,,,,,,,,,,972.9175620000001,972.9204664000004,972.9204664000004,972.9204664000004,975.9146552000002,f,1.1722469999999703,0.19993960000010702,975.9148611,975.9149184000003,None,,,,,,,,,,,,,,,,,00016,001,2025-11-18_15h18.28.519,MST_task,2024.2.0,59.8285791549456,2025-11-18 15h18.34.767461 +0530,
,Objects\087a.jpg,53,0,54,,,,,f,2.619577500000105,0.15873430000010558,None,,,,,,54,0,53,975.9305251999999,,,,,,,,,,,,,,,,,,,,,,,975.9152813999999,975.9305251999999,976.4151148000001,,,,,,,,,,,,976.4342696000003,,,,,,,,,,,976.4318073,976.4342696000003,976.4342696000003,976.4342696000003,979.4310826000001,f,2.619577500000105,0.15873430000010558,979.4313027000003,979.4313603,None,,,,,,,,,,,,,,,,,00016,001,2025-11-18_15h18.28.519,MST_task,2024.2.0,59.8285791549456,2025-11-18 15h18.34.767461 +0530,
,Objects\085a.jpg,54,0,55,,,,,f,0.7548507999999856,0.2404513000001316,None,,,,,,55,0,54,979.4474893000001,,,,,,,,,,,,,,,,,,,,,,,979.4317393000001,979.4474893000001,979.9316719000003,,,,,,,,,,,,979.9535410000003,,,,,,,,,,,979.9508353000001,979.9535410000003,979.9535410000003,979.9535410000003,982.9481271,f,0.7548507999999856,0.2404513000001316,982.9483509000002,982.9484101000003,None,,,,,,,,,,,,,,,,,00016,001,2025-11-18_15h18.28.519,MST_task,2024.2.0,59.8285791549456,2025-11-18 15h18.34.767461 +0530,
,Objects\180a.jpg,55,0,56,,,,,f,0.856724000000213,0.23257590000002892,None,,,,,,56,0,55,982.9641494000002,,,,,,,,,,,,,,,,,,,,,,,982.9488263000003,982.9641494000002,983.4479279000002,,,,,,,,,,,,983.4675811000002,,,,,,,,,,,983.4649139000003,983.4675811000002,983.4675811000002,983.4675811000002,986.4645011000002,f,0.856724000000213,0.23257590000002892,986.4647233999999,986.4647792999999,None,,,,,,,,,,,,,,,,,00016,001,2025-11-18_15h18.28.519,MST_task,2024.2.0,59.8285791549456,2025-11-18 15h18.34.767461 +0530,
,Scenes\045a.jpg,56,0,57,,,,,j,1.6256376999999702,0.2798459000000548,None,,,,,,57,0,56,986.4806914999999,,,,,,,,,,,,,,,,,,,,,,,986.4650741,986.4806914999999,986.9652868000003,,,,,,,,,,,,986.9951374000002,,,,,,,,,,,986.9919440000003,986.9951374000002,986.9951374000002,986.9951374000002,989.9812089000002,j,1.6256376999999702,0.2798459000000548,989.9814169000001,989.9814731000001,None,,,,,,,,,,,,,,,,,00016,001,2025-11-18_15h18.28.519,MST_task,2024.2.0,59.8285791549456,2025-11-18 15h18.34.767461 +0530,
,Scenes\102a.jpg,57,0,58,,,,,j,0.9801754000000074,0.28903760000002876,None,,,,,,58,0,57,989.9973296000003,,,,,,,,,,,,,,,,,,,,,,,989.9817667000002,989.9973296000003,990.4818672000001,,,,,,,,,,,,990.5121704000003,,,,,,,,,,,990.5087630000003,990.5121704000003,990.5121704000003,990.5121704000003,993.4979767,j,0.9801754000000074,0.28903760000002876,993.4982051000002,993.4982641000001,None,,,,,,,,,,,,,,,,,00016,001,2025-11-18_15h18.28.519,MST_task,2024.2.0,59.8285791549456,2025-11-18 15h18.34.767461 +0530,
,Scenes\100a.jpg,58,0,59,,,,,j,1.7246678000001339,0.20055610000008528,None,,,,,,59,0,58,993.5140571000002,,,,,,,,,,,,,,,,,,,,,,,993.4986721,993.5140571000002,993.9985167,,,,,,,,,,,,994.0236067000001,,,,,,,,,,,994.0202992,994.0236067000001,994.0236067000001,994.0236067000001,997.0146313,j,1.7246678000001339,0.20055610000008528,997.0148208999999,997.0148681999999,None,,,,,,,,,,,,,,,,,00016,001,2025-11-18_15h18.28.519,MST_task,2024.2.0,59.8285791549456,2025-11-18 15h18.34.767461 +0530,
,Scenes\176a.jpg,59,0,60,,,,,j,0.9755251999999928,0.2325049000000945,None,,,,,,60,0,59,997.0305001000002,,,,,,,,,,,,,,,,,,,,,,,997.0151887000002,997.0305001000002,997.5152104000003,,,,,,,,,,,,997.5409585000002,,,,,,,,,,,997.5375793000003,997.5409585000002,997.5409585000002,997.5409585000002,1000.5313150000002,j,0.9755251999999928,0.2325049000000945,1000.5315341,1000.5315906999999,None,,,,,,,,,,,,,,,,,00016,001,2025-11-18_15h18.28.519,MST_task,2024.2.0,59.8285791549456,2025-11-18 15h18.34.767461 +0530,
,Scenes\014a.jpg,60,0,61,,,,,j,2.4154794999999467,0.23273580000022775,None,,,,,,61,0,60,1000.5473437999999,,,,,,,,,,,,,,,,,,,,,,,1000.5318799000001,1000.5473437999999,1001.0315682,,,,,,,,,,,,1001.0525871,,,,,,,,,,,1001.0495266000003,1001.0525871,1001.0525871,1001.0525871,1004.0478845000002,j,2.4154794999999467,0.23273580000022775,1004.0480935,1004.0481494999999,None,,,,,,,,,,,,,,,,,00016,001,2025-11-18_15h18.28.519,MST_task,2024.2.0,59.8285791549456,2025-11-18 15h18.34.767461 +0530,
,Scenes\032a.jpg,61,0,62,,,,,j,1.0248501999999462,0.3199359000000186,None,,,,,,62,0,61,1004.0640211,,,,,,,,,,,,,,,,,,,,,,,1004.0484437,1004.0640211,1004.5485117000003,,,,,,,,,,,,1004.5952336,,,,,,,,,,,1004.5919857000004,1004.5952336,1004.5952336,1004.5952336,1007.5646564000003,j,1.0248501999999462,0.3199359000000186,1007.5648798000002,1007.5649374,None,,,,,,,,,,,,,,,,,00016,001,2025-11-18_15h18.28.519,MST_task,2024.2.0,59.8285791549456,2025-11-18 15h18.34.767461 +0530,
,Scenes\096a.jpg,62,0,63,,,,,j,0.722415700000056,0.3030076999998528,None,,,,,,63,0,62,1007.5805408000001,,,,,,,,,,,,,,,,,,,,,,,1007.5652333000003,1007.5805408000001,1008.0652878000001,,,,,,,,,,,,1008.0906927000001,,,,,,,,,,,1008.0874897000003,1008.0906927000001,1008.0906927000001,1008.0906927000001,1011.0812148,j,0.722415700000056,0.3030076999998528,1011.0813929999999,1011.0814367000003,None,,,,,,,,,,,,,,,,,00016,001,2025-11-18_15h18.28.519,MST_task,2024.2.0,59.8285791549456,2025-11-18 15h18.34.767461 +0530,
,Objects\029a.jpg,63,0,64,,,,,f,0.7069903999999951,0.256395099999736,None,,,,,,64,0,63,1011.0972801000003,,,,,,,,,,,,,,,,,,,,,,,1011.0817260000003,1011.0972801000003,1011.5817445000002,,,,,,,,,,,,1011.6016146000002,,,,,,,,,,,1011.5986103,1011.6016146000002,1011.6016146000002,1011.6016146000002,1014.5979315,f,0.7069903999999951,0.256395099999736,1014.5981289000001,1014.5981844000003,None,,,,,,,,,,,,,,,,,00016,001,2025-11-18_15h18.28.519,MST_task,2024.2.0,59.8285791549456,2025-11-18 15h18.34.767461 +0530,
,Objects\102a.jpg,64,0,65,,,,,f,0.8346050000000105,0.24748409999983778,None,,,,,,65,0,64,1014.6141139000001,,,,,,,,,,,,,,,,,,,,,,,1014.5985716,1014.6141139000001,1015.0974117000001,,,,,,,,,,,,1015.1142261,,,,,,,,,,,1015.1089843,1015.1142261,1015.1142261,1015.1142261,1018.0995001000001,f,0.8346050000000105,0.24748409999983778,1018.0997087999999,1018.0997907000001,None,1018.1140052999999,1018.1140052999999,1018.1140052999999,,,,,,,,,,,,,,00016,001,2025-11-18_15h18.28.519,MST_task,2024.2.0,59.8285791549456,2025-11-18 15h18.34.767461 +0530,
,Objects\188a.jpg,65,0,66,,,,,f,0.8637672000004386,0.2877097999999023,None,,,,,,66,0,65,1018.1140052999999,,,,,,,,,,,,,,,,,,,,,,,1018.1000385000002,1018.1140052999999,1018.5982779999999,,,,,,,,,,,,1018.6364919000002,,,,,,,,,,,1018.6337760000001,1018.6364919000002,1018.6364919000002,1018.6364919000002,1021.6145607000003,f,0.8637672000004386,0.2877097999999023,1021.6147500000002,1021.6148013000002,None,,,,,,,,,,,,,,,,,00016,001,2025-11-18_15h18.28.519,MST_task,2024.2.0,59.8285791549456,2025-11-18 15h18.34.767461 +0530,
,Objects\192a.jpg,66,0,67,,,,,j,1.510259600000154,0.32867579999992813,None,,,,,,67,0,66,1021.6308331,,,,,,,,,,,,,,,,,,,,,,,1021.6151575000004,1021.6308331,1022.1152897000002,,,,,,,,,,,,1022.1339878000003,,,,,,,,,,,1022.1313399000001,1022.1339878000003,1022.1339878000003,1022.1339878000003,1025.1150342,j,1.510259600000154,0.32867579999992813,1025.1152657000002,1025.1153186000001,None,,,,,,,,,,,,,,,,,00016,001,2025-11-18_15h18.28.519,MST_task,2024.2.0,59.8285791549456,2025-11-18 15h18.34.767461 +0530,
,Objects\178a.jpg,67,0,68,,,,,f,2.3386365999999725,0.24015800000006493,None,,,,,,68,0,67,1025.1306484000002,,,,,,,,,,,,,,,,,,,,,,,1025.1155777,1025.1306484000002,1025.6151907000003,,,,,,,,,,,,1025.6340007000003,,,,,,,,,,,1025.6314540000003,1025.6340007000003,1025.6340007000003,1025.6340007000003,1028.6311727000002,f,2.3386365999999725,0.24015800000006493,1028.6317013000003,1028.6317812000002,None,,,,,,,,,,,,,,,,,00016,001,2025-11-18_15h18.28.519,MST_task,2024.2.0,59.8285791549456,2025-11-18 15h18.34.767461 +0530,
,Objects\011a.jpg,68,0,69,,,,,f,1.3673046999997496,0.22474600000032297,None,,,,,,69,0,68,1028.6473525000001,,,,,,,,,,,,,,,,,,,,,,,1028.6323204,1028.6473525000001,1029.1312027,,,,,,,,,,,,1029.1489542,,,,,,,,,,,1029.1464605,1029.1489542,1029.1489542,1029.1489542,1032.1478842000001,f,1.3673046999997496,0.22474600000032297,1032.1481043000003,1032.1481636000003,None,,,,,,,,,,,,,,,,,00016,001,2025-11-18_15h18.28.519,MST_task,2024.2.0,59.8285791549456,2025-11-18 15h18.34.767461 +0530,
,Objects\078a.jpg,69,0,70,,,,,j,0.7863450999998349,0.28750570000011066,None,,,,,,70,0,69,1032.1641243,,,,,,,,,,,,,,,,,,,,,,,1032.1485030000003,1032.1641243,1032.6486977,,,,,,,,,,,,1032.6662855,,,,,,,,,,,1032.6637627,1032.6662855,1032.6662855,1032.6662855,1035.6648092,j,0.7863450999998349,0.28750570000011066,1035.6650348000003,1035.6650943,None,,,,,,,,,,,,,,,,,00016,001,2025-11-18_15h18.28.519,MST_task,2024.2.0,59.8285791549456,2025-11-18 15h18.34.767461 +0530,
,Scenes\036a.jpg,70,0,71,,,,,j,0.8091996000002837,0.22371519999978773,None,,,,,,71,0,70,1035.6806013,,,,,,,,,,,,,,,,,,,,,,,1035.6654002,1035.6806013,1036.1652631000002,,,,,,,,,,,,1036.1873847000002,,,,,,,,,,,1036.1842796,1036.1873847000002,1036.1873847000002,1036.1873847000002,1039.1810983,j,0.8091996000002837,0.22371519999978773,1039.1813171000003,1039.1813761000003,None,,,,,,,,,,,,,,,,,00016,001,2025-11-18_15h18.28.519,MST_task,2024.2.0,59.8285791549456,2025-11-18 15h18.34.767461 +0530,
,Scenes\006a.jpg,71,0,72,,,,,j,2.0680908999997882,0.24044010000034177,None,,,,,,72,0,71,1039.1974064,,,,,,,,,,,,,,,,,,,,,,,1039.1816802000003,1039.1974064,1039.6813743000002,,,,,,,,,,,,1039.7282952,,,,,,,,,,,1039.7249584,1039.7282952,1039.7282952,1039.7282952,1042.6979101000002,j,2.0680908999997882,0.24044010000034177,1042.6981276000001,1042.6981866,None,,,,,,,,,,,,,,,,,00016,001,2025-11-18_15h18.28.519,MST_task,2024.2.0,59.8285791549456,2025-11-18 15h18.34.767461 +0530,
,Scenes\145a.jpg,72,0,73,,,,,j,0.7281125999998039,0.24023450000004232,None,,,,,,73,0,72,1042.7141856000003,,,,,,,,,,,,,,,,,,,,,,,1042.6984850000003,1042.7141856000003,1043.1991660000003,,,,,,,,,,,,1043.2284371,,,,,,,,,,,1043.2251849,1043.2284371,1043.2284371,1043.2284371,1046.2147299000003,j,0.7281125999998039,0.24023450000004232,1046.2151185000002,1046.2151971000003,None,,,,,,,,,,,,,,,,,00016,001,2025-11-18_15h18.28.519,MST_task,2024.2.0,59.8285791549456,2025-11-18 15h18.34.767461 +0530,
,Scenes\065a.jpg,73,0,74,,,,,j,0.8876365000000987,0.24047639999980674,None,,,,,,74,0,73,1046.2306176000002,,,,,,,,,,,,,,,,,,,,,,,1046.2156008000002,1046.2306176000002,1046.7151201000001,,,,,,,,,,,,1046.7565790000003,,,,,,,,,,,1046.7532615,1046.7565790000003,1046.7565790000003,1046.7565790000003,1049.73135,j,0.8876365000000987,0.24047639999980674,1049.7315779,1049.7316381,None,,,,,,,,,,,,,,,,,00016,001,2025-11-18_15h18.28.519,MST_task,2024.2.0,59.8285791549456,2025-11-18 15h18.34.767461 +0530,
,Scenes\085a.jpg,74,0,75,,,,,j,1.928734799999802,0.2005979999998999,None,,,,,,75,0,74,1049.7473634000003,,,,,,,,,,,,,,,,,,,,,,,1049.7320212,1049.7473634000003,1050.2321229,,,,,,,,,,,,1050.2597575,,,,,,,,,,,1050.2565275000002,1050.2597575,1050.2597575,1050.2597575,1053.2480349000002,j,1.928734799999802,0.2005979999998999,1053.2482395000002,1053.2482960000002,None,,,,,,,,,,,,,,,,,00016,001,2025-11-18_15h18.28.519,MST_task,2024.2.0,59.8285791549456,2025-11-18 15h18.34.767461 +0530,
,Scenes\058a.jpg,75,0,76,,,,,f,0.8373024999996233,0.287772700000005,None,,,,,,76,0,75,1053.2640292,,,,,,,,,,,,,,,,,,,,,,,1053.2486786,1053.2640292,1053.7483312,,,,,,,,,,,,1053.7753097,,,,,,,,,,,1053.7724813,1053.7753097,1053.7753097,1053.7753097,1056.7646581,f,0.8373024999996233,0.287772700000005,1056.7648712,1056.7649234,None,,,,,,,,,,,,,,,,,00016,001,2025-11-18_15h18.28.519,MST_task,2024.2.0,59.8285791549456,2025-11-18 15h18.34.767461 +0530,
,Scenes\182a.jpg,76,0,77,,,,,j,0.6284538999998404,0.22471489999998084,None,,,,,,77,0,76,1056.7805788,,,,,,,,,,,,,,,,,,,,,,,1056.7652778000001,1056.7805788,1057.2655069000002,,,,,,,,,,,,1057.2877218000003,,,,,,,,,,,1057.2844325,1057.2877218000003,1057.2877218000003,1057.2877218000003,1060.2812445,j,0.6284538999998404,0.22471489999998084,1060.281599,1060.2816582,None,,,,,,,,,,,,,,,,,00016,001,2025-11-18_15h18.28.519,MST_task,2024.2.0,59.8285791549456,2025-11-18 15h18.34.767461 +0530,
,Objects\138a.jpg,77,0,78,,,,,j,0.9298877000001085,0.239737100000184,None,,,,,,78,0,77,1060.2975686,,,,,,,,,,,,,,,,,,,,,,,1060.2819634000002,1060.2975686,1060.7818523,,,,,,,,,,,,1060.8023942,,,,,,,,,,,1060.7993571000002,1060.8023942,1060.8023942,1060.8023942,1063.7978951,j,0.9298877000001085,0.239737100000184,1063.7980701000001,1063.7981203,None,,,,,,,,,,,,,,,,,00016,001,2025-11-18_15h18.28.519,MST_task,2024.2.0,59.8285791549456,2025-11-18 15h18.34.767461 +0530,
,Objects\094a.jpg,78,0,79,,,,,f,1.085588099999768,0.2560135000003356,None,,,,,,79,0,78,1063.8141295,,,,,,,,,,,,,,,,,,,,,,,1063.7984822000003,1063.8141295,1064.2987939,,,,,,,,,,,,1064.3191033000003,,,,,,,,,,,1064.3165973,1064.3191033000003,1064.3191033000003,1064.3191033000003,1067.3146697000002,f,1.085588099999768,0.2560135000003356,1067.3148540000002,1067.3149028000003,None,,,,,,,,,,,,,,,,,00016,001,2025-11-18_15h18.28.519,MST_task,2024.2.0,59.8285791549456,2025-11-18 15h18.34.767461 +0530,
,Objects\052a.jpg,79,0,80,,,,,f,1.497248000000127,0.23946109999997134,None,,,,,,80,0,79,1067.3305304,,,,,,,,,,,,,,,,,,,,,,,1067.3152173000003,1067.3305304,1067.8155601000003,,,,,,,,,,,,1067.8354764,,,,,,,,,,,1067.8329865,1067.8354764,1067.8354764,1067.8354764,1070.8311229,f,1.497248000000127,0.23946109999997134,1070.8313328,1070.8313918000003,None,,,,,,,,,,,,,,,,,00016,001,2025-11-18_15h18.28.519,MST_task,2024.2.0,59.8285791549456,2025-11-18 15h18.34.767461 +0530,
,Objects\001a.jpg,80,0,81,,,,,f,1.0487694999997075,0.2863848000001781,None,,,,,,81,0,80,1070.8473452000003,,,,,,,,,,,,,,,,,,,,,,,1070.8316883000002,1070.8473452000003,1071.3316090000003,,,,,,,,,,,,1071.3488670000002,,,,,,,,,,,1071.3462654,1071.3488670000002,1071.3488670000002,1071.3488670000002,1074.3480583,f,1.0487694999997075,0.2863848000001781,1074.3482605,1074.3483169,None,,,,,,,,,,,,,,,,,00016,001,2025-11-18_15h18.28.519,MST_task,2024.2.0,59.8285791549456,2025-11-18 15h18.34.767461 +0530,
,Objects\151a.jpg,81,0,82,,,,,f,1.0965765000000829,0.2473242000000937,None,,,,,,82,0,81,1074.3640223000002,,,,,,,,,,,,,,,,,,,,,,,1074.3486138000003,1074.3640223000002,1074.8489236,,,,,,,,,,,,1074.8682753000003,,,,,,,,,,,1074.8657576,1074.8682753000003,1074.8682753000003,1074.8682753000003,1077.86474,f,1.0965765000000829,0.2473242000000937,1077.8649447000003,1077.8650002,None,,,,,,,,,,,,,,,,,00016,001,2025-11-18_15h18.28.519,MST_task,2024.2.0,59.8285791549456,2025-11-18 15h18.34.767461 +0530,
,Objects\156a.jpg,82,0,83,,,,,f,0.8292284000003747,0.27146429999993416,None,,,,,,83,0,82,1077.8805975,,,,,,,,,,,,,,,,,,,,,,,1077.8652968000001,1077.8805975,1078.3652777000002,,,,,,,,,,,,1078.3837333000001,,,,,,,,,,,1078.3811421,1078.3837333000001,1078.3837333000001,1078.3837333000001,1081.3810949000003,f,0.8292284000003747,0.27146429999993416,1081.3813121000003,1081.3814031000002,None,,,,,,,,,,,,,,,,,00016,001,2025-11-18_15h18.28.519,MST_task,2024.2.0,59.8285791549456,2025-11-18 15h18.34.767461 +0530,
,Objects\089a.jpg,83,0,84,,,,,f,1.2629703000002337,0.22322029999986626,None,,,,,,84,0,83,1081.3976118,,,,,,,,,,,,,,,,,,,,,,,1081.3816779000003,1081.3976118,1081.8815635,,,,,,,,,,,,1081.9018168000002,,,,,,,,,,,1081.899011,1081.9018168000002,1081.9018168000002,1081.9018168000002,1084.8981297,f,1.2629703000002337,0.22322029999986626,1084.8983364,1084.8983953000002,None,,,,,,,,,,,,,,,,,00016,001,2025-11-18_15h18.28.519,MST_task,2024.2.0,59.8285791549456,2025-11-18 15h18.34.767461 +0530,
,Scenes\189a.jpg,84,0,85,,,,,j,0.8081281999998282,0.24810440000010203,None,,,,,,85,0,84,1084.9141586,,,,,,,,,,,,,,,,,,,,,,,1084.8987756000001,1084.9141586,1085.3986048000002,,,,,,,,,,,,1085.4282893,,,,,,,,,,,1085.4250146,1085.4282893,1085.4282893,1085.4282893,1088.4146413000003,j,0.8081281999998282,0.24810440000010203,1088.4148576000002,1088.414914,None,,,,,,,,,,,,,,,,,00016,001,2025-11-18_15h18.28.519,MST_task,2024.2.0,59.8285791549456,2025-11-18 15h18.34.767461 +0530,
,Scenes\125a.jpg,85,0,86,,,,,j,0.7832660999997643,0.23116220000019894,None,,,,,,86,0,85,1088.4305781000003,,,,,,,,,,,,,,,,,,,,,,,1088.4152486000003,1088.4305781000003,1088.9153144000002,,,,,,,,,,,,1088.9417032000001,,,,,,,,,,,1088.9389793,1088.9417032000001,1088.9417032000001,1088.9417032000001,1091.9311473000002,j,0.7832660999997643,0.23116220000019894,1091.9313561,1091.9314083,None,,,,,,,,,,,,,,,,,00016,001,2025-11-18_15h18.28.519,MST_task,2024.2.0,59.8285791549456,2025-11-18 15h18.34.767461 +0530,
,Scenes\143a.jpg,86,0,87,,,,,j,1.1042738999999528,0.22368649999998524,None,,,,,,87,0,86,1091.947603,,,,,,,,,,,,,,,,,,,,,,,1091.9317495,1091.947603,1092.4319182,,,,,,,,,,,,1092.460642,,,,,,,,,,,1092.4578258000001,1092.460642,1092.460642,1092.460642,1095.4481420000002,j,1.1042738999999528,0.22368649999998524,1095.4483495,1095.4484069,None,,,,,,,,,,,,,,,,,00016,001,2025-11-18_15h18.28.519,MST_task,2024.2.0,59.8285791549456,2025-11-18 15h18.34.767461 +0530,
,Scenes\013a.jpg,87,0,88,,,,,j,2.148329999999987,0.18406469999990804,None,,,,,,88,0,87,1095.4643158000003,,,,,,,,,,,,,,,,,,,,,,,1095.4487856,1095.4643158000003,1095.9487353,,,,,,,,,,,,1095.9760898,,,,,,,,,,,1095.9727932,1095.9760898,1095.9760898,1095.9760898,1098.9646802000002,j,2.148329999999987,0.18406469999990804,1098.9648548,1098.9649012,None,,,,,,,,,,,,,,,,,00016,001,2025-11-18_15h18.28.519,MST_task,2024.2.0,59.8285791549456,2025-11-18 15h18.34.767461 +0530,
,Scenes\066a.jpg,88,0,89,,,,,j,0.6766456999998809,0.23264909999988959,None,,,,,,89,0,88,1098.9805684000003,,,,,,,,,,,,,,,,,,,,,,,1098.9652395000003,1098.9805684000003,1099.4650376,,,,,,,,,,,,1099.4875953,,,,,,,,,,,1099.4841594,1099.4875953,1099.4875953,1099.4875953,1102.4813821000002,j,0.6766456999998809,0.23264909999988959,1102.4817523000002,1102.4818326,None,,,,,,,,,,,,,,,,,00016,001,2025-11-18_15h18.28.519,MST_task,2024.2.0,59.8285791549456,2025-11-18 15h18.34.767461 +0530,
,Scenes\131a.jpg,89,0,90,,,,,j,0.7165518000001612,0.2399102999997922,None,,,,,,90,0,89,1102.4976575,,,,,,,,,,,,,,,,,,,,,,,1102.4822394000003,1102.4976575,1102.9819102000001,,,,,,,,,,,,1103.0080844,,,,,,,,,,,1103.0048777000002,1103.0080844,1103.0080844,1103.0080844,1105.9981037000002,j,0.7165518000001612,0.2399102999997922,1105.9983421000002,1105.9984027,None,,,,,,,,,,,,,,,,,00016,001,2025-11-18_15h18.28.519,MST_task,2024.2.0,59.8285791549456,2025-11-18 15h18.34.767461 +0530,
,Scenes\187a.jpg,90,0,91,,,,,j,0.8550522999998975,0.21519050000006246,None,,,,,,91,0,90,1106.0143012000003,,,,,,,,,,,,,,,,,,,,,,,1105.998705,1106.0143012000003,1106.4988686000002,,,,,,,,,,,,1106.5259984,,,,,,,,,,,1106.5227636,1106.5259984,1106.5259984,1106.5259984,1109.5147222,j,0.8550522999998975,0.21519050000006246,1109.5149746000002,1109.5150350000004,None,,,,,,,,,,,,,,,,,00016,001,2025-11-18_15h18.28.519,MST_task,2024.2.0,59.8285791549456,2025-11-18 15h18.34.767461 +0530,
,Objects\073a.jpg,91,0,92,,,,,f,0.8173295000001417,0.22327299999960815,None,,,,,,92,0,91,1109.5307935,,,,,,,,,,,,,,,,,,,,,,,1109.5153236,1109.5307935,1110.0153167000003,,,,,,,,,,,,1110.0356689,,,,,,,,,,,1110.0326036000001,1110.0356689,1110.0356689,1110.0356689,1113.0313341,f,0.8173295000001417,0.22327299999960815,1113.0315715000002,1113.0316322000003,None,,,,,,,,,,,,,,,,,00016,001,2025-11-18_15h18.28.519,MST_task,2024.2.0,59.8285791549456,2025-11-18 15h18.34.767461 +0530,
,Objects\061a.jpg,92,0,93,,,,,j,2.357195999999931,0.19220230000019,None,,,,,,93,0,92,1113.0475985000003,,,,,,,,,,,,,,,,,,,,,,,1113.0319988,1113.0475985000003,1113.5318761000003,,,,,,,,,,,,1113.5515988000002,,,,,,,,,,,1113.5490701000003,1113.5515988000002,1113.5515988000002,1113.5515988000002,1116.547842,j,2.357195999999931,0.19220230000019,1116.5480532000001,1116.5481112000002,None,,,,,,,,,,,,,,,,,00016,001,2025-11-18_15h18.28.519,MST_task,2024.2.0,59.8285791549456,2025-11-18 15h18.34.767461 +0530,
,Objects\126a.jpg,93,0,94,,,,,j,1.8566295000000537,0.19936179999967862,None,,,,,,94,0,93,1116.5640242,,,,,,,,,,,,,,,,,,,,,,,1116.5485318,1116.5640242,1117.0485357000002,,,,,,,,,,,,1117.0682658,,,,,,,,,,,1117.0656156,1117.0682658,1117.0682658,1117.0682658,1120.064684,j,1.8566295000000537,0.19936179999967862,1120.0648913,1120.0649482000003,None,,,,,,,,,,,,,,,,,00016,001,2025-11-18_15h18.28.519,MST_task,2024.2.0,59.8285791549456,2025-11-18 15h18.34.767461 +0530,
,Objects\168a.jpg,94,0,95,,,,,f,2.3887009999998554,0.21627480000006472,None,,,,,,95,0,94,1120.0807916000003,,,,,,,,,,,,,,,,,,,,,,,1120.0652453000002,1120.0807916000003,1120.5652569000003,,,,,,,,,,,,1120.5838010000002,,,,,,,,,,,1120.5810544,1120.5838010000002,1120.5838010000002,1120.5838010000002,1123.5814197,f,2.3887009999998554,0.21627480000006472,1123.5816852000003,1123.5817467000002,None,,,,,,,,,,,,,,,,,00016,001,2025-11-18_15h18.28.519,MST_task,2024.2.0,59.8285791549456,2025-11-18 15h18.34.767461 +0530,
,Objects\121a.jpg,95,0,96,,,,,f,1.685918899999706,0.2406306000002587,None,,,,,,96,0,95,1123.5976487000003,,,,,,,,,,,,,,,,,,,,,,,1123.5821591000004,1123.5976487000003,1124.0820058,,,,,,,,,,,,1124.1023159000001,,,,,,,,,,,1124.0996731,1124.1023159000001,1124.1023159000001,1124.1023159000001,1127.0983388,f,1.685918899999706,0.2406306000002587,1127.0985591000003,1127.0986146,None,,,,,,,,,,,,,,,,,00016,001,2025-11-18_15h18.28.519,MST_task,2024.2.0,59.8285791549456,2025-11-18 15h18.34.767461 +0530,
,Objects\023a.jpg,96,0,97,,,,,f,0.7685774999999921,0.27267699999993056,None,,,,,,97,0,96,1127.1141284,,,,,,,,,,,,,,,,,,,,,,,1127.0989154000004,1127.1141284,1127.5984961,,,,,,,,,,,,1127.6356797000003,,,,,,,,,,,1127.6331068,1127.6356797000003,1127.6356797000003,1127.6356797000003,1130.6145663000002,f,0.7685774999999921,0.27267699999993056,1130.6147496000003,1130.6147928,None,,,,,,,,,,,,,,,,,00016,001,2025-11-18_15h18.28.519,MST_task,2024.2.0,59.8285791549456,2025-11-18 15h18.34.767461 +0530,
,Objects\187a.jpg,97,0,98,,,,,f,0.6316469999997025,0.2235856000002059,None,,,,,,98,0,97,1130.63056,,,,,,,,,,,,,,,,,,,,,,,1130.6150149,1130.63056,1131.1153089,,,,,,,,,,,,1131.1332132000002,,,,,,,,,,,1131.1306805,1131.1332132000002,1131.1332132000002,1131.1332132000002,1134.1312155,f,0.6316469999997025,0.2235856000002059,1134.1314178000002,1134.1314719000002,None,,,,,,,,,,,,,,,,,00016,001,2025-11-18_15h18.28.519,MST_task,2024.2.0,59.8285791549456,2025-11-18 15h18.34.767461 +0530,
,Scenes\087a.jpg,98,0,99,,,,,j,0.6945632000001751,0.2157032000000072,None,,,,,,99,0,98,1134.1474146,,,,,,,,,,,,,,,,,,,,,,,1134.1318143000003,1134.1474146,1134.6319088,,,,,,,,,,,,1134.6541409000001,,,,,,,,,,,1134.6510676000003,1134.6541409000001,1134.6541409000001,1134.6541409000001,1137.6479598,j,0.6945632000001751,0.2157032000000072,1137.6481722000003,1137.6482308,None,,,,,,,,,,,,,,,,,00016,001,2025-11-18_15h18.28.519,MST_task,2024.2.0,59.8285791549456,2025-11-18 15h18.34.767461 +0530,
,Scenes\089a.jpg,99,0,100,,,,,j,1.4038093000003755,0.19160199999987526,None,,,,,,100,0,99,1137.6640548,,,,,,,,,,,,,,,,,,,,,,,1137.6485398,1137.6640548,1138.1485341000002,,,,,,,,,,,,1138.1768026,,,,,,,,,,,1138.1735251,1138.1768026,1138.1768026,1138.1768026,1141.1647406000002,j,1.4038093000003755,0.19160199999987526,1141.1649606,1141.1650175,None,,,,,,,,,,,,,,,,,00016,001,2025-11-18_15h18.28.519,MST_task,2024.2.0,59.8285791549456,2025-11-18 15h18.34.767461 +0530,
,Scenes\141a.jpg,100,0,101,,,,,j,1.4202158000002783,0.16814179999983025,None,,,,,,101,0,100,1141.1807262000002,,,,,,,,,,,,,,,,,,,,,,,1141.1653198,1141.1807262000002,1141.6653791000003,,,,,,,,,,,,1141.6885348,,,,,,,,,,,1141.6853078,1141.6885348,1141.6885348,1141.6885348,1144.6814251,j,1.4202158000002783,0.16814179999983025,1144.6816394000002,1144.6816980000003,None,,,,,,,,,,,,,,,,,00016,001,2025-11-18_15h18.28.519,MST_task,2024.2.0,59.8285791549456,2025-11-18 15h18.34.767461 +0530,
,Scenes\075a.jpg,101,0,102,,,,,j,0.9803451000002497,0.2158758000000489,None,,,,,,102,0,101,1144.6975628,,,,,,,,,,,,,,,,,,,,,,,1144.6820912000003,1144.6975628,1145.1817836,,,,,,,,,,,,1145.2078353000002,,,,,,,,,,,1145.2046990000003,1145.2078353000002,1145.2078353000002,1145.2078353000002,1148.1980491,j,0.9803451000002497,0.2158758000000489,1148.1982665,1148.1983226000002,None,,,,,,,,,,,,,,,,,00016,001,2025-11-18_15h18.28.519,MST_task,2024.2.0,59.8285791549456,2025-11-18 15h18.34.767461 +0530,
,Scenes\055a.jpg,102,0,103,,,,,j,1.3928809999997611,0.28842149999991307,None,,,,,,103,0,102,1148.214101,,,,,,,,,,,,,,,,,,,,,,,1148.1987097,1148.214101,1148.6985967,,,,,,,,,,,,1148.723473,,,,,,,,,,,1148.7202713000001,1148.723473,1148.723473,1148.723473,1151.714775,j,1.3928809999997611,0.28842149999991307,1151.7149954000001,1151.7150544,None,,,,,,,,,,,,,,,,,00016,001,2025-11-18_15h18.28.519,MST_task,2024.2.0,59.8285791549456,2025-11-18 15h18.34.767461 +0530,
,Scenes\012a.jpg,103,0,104,,,,,j,0.7548705999997765,0.20829570000023523,None,,,,,,104,0,103,1151.7305664,,,,,,,,,,,,,,,,,,,,,,,1151.715353,1151.7305664,1152.2152769,,,,,,,,,,,,1152.2416801,,,,,,,,,,,1152.2383779000002,1152.2416801,1152.2416801,1152.2416801,1155.2313849000002,j,0.7548705999997765,0.20829570000023523,1155.2316012000001,1155.2316574000001,None,,,,,,,,,,,,,,,,,00016,001,2025-11-18_15h18.28.519,MST_task,2024.2.0,59.8285791549456,2025-11-18 15h18.34.767461 +0530,
,Scenes\080a.jpg,104,0,105,,,,,j,0.6090570999999727,0.23270940000020346,None,,,,,,105,0,104,1155.2476789000002,,,,,,,,,,,,,,,,,,,,,,,1155.2320312000002,1155.2476789000002,1155.7320202,,,,,,,,,,,,1155.7551415000003,,,,,,,,,,,1155.7519638000003,1155.7551415000003,1155.7551415000003,1155.7551415000003,1158.7483215000002,j,0.6090570999999727,0.23270940000020346,1158.7485541,1158.7486152000001,None,,,,,,,,,,,,,,,,,00016,001,2025-11-18_15h18.28.519,MST_task,2024.2.0,59.8285791549456,2025-11-18 15h18.34.767461 +0530,
,Objects\170a.jpg,105,0,106,,,,,j,2.757924500000172,0.19948500000009517,None,,,,,,106,0,105,1158.7641746,,,,,,,,,,,,,,,,,,,,,,,1158.7490357000001,1158.7641746,1159.2487309000003,,,,,,,,,,,,1159.2714398000003,,,,,,,,,,,1159.2681822,1159.2714398000003,1159.2714398000003,1159.2714398000003,1162.2650275,j,2.757924500000172,0.19948500000009517,1162.265253,1162.2653123,None,,,,,,,,,,,,,,,,,00016,001,2025-11-18_15h18.28.519,MST_task,2024.2.0,59.8285791549456,2025-11-18 15h18.34.767461 +0530,
,Objects\137a.jpg,106,0,107,,,,,j,2.566032300000188,0.1754507000000558,None,,,,,,107,0,106,1162.2808304,,,,,,,,,,,,,,,,,,,,,,,1162.2656111000001,1162.2808304,1162.7655493000002,,,,,,,,,,,,1162.7829934000001,,,,,,,,,,,1162.7803938000002,1162.7829934000001,1162.7829934000001,1162.7829934000001,1165.7813291000002,j,2.566032300000188,0.1754507000000558,1165.7815108,1165.7815589000002,None,,,,,,,,,,,,,,,,,00016,001,2025-11-18_15h18.28.519,MST_task,2024.2.0,59.8285791549456,2025-11-18 15h18.34.767461 +0530,
,Objects\035a.jpg,107,0,108,,,,,f,0.949562700000115,0.24743919999991704,None,,,,,,108,0,107,1165.7975983000001,,,,,,,,,,,,,,,,,,,,,,,1165.7818044,1165.7975983000001,1166.28179,,,,,,,,,,,,1166.3031385,,,,,,,,,,,1166.3004674000003,1166.3031385,1166.3031385,1166.3031385,1169.2981521000002,f,0.949562700000115,0.24743919999991704,1169.2984736000003,1169.2985444,None,,,,,,,,,,,,,,,,,00016,001,2025-11-18_15h18.28.519,MST_task,2024.2.0,59.8285791549456,2025-11-18 15h18.34.767461 +0530,
,Objects\095a.jpg,108,0,109,,,,,f,0.837299300000268,0.2639517999996315,None,,,,,,109,0,108,1169.3142211,,,,,,,,,,,,,,,,,,,,,,,1169.2988469000002,1169.3142211,1169.7988118000003,,,,,,,,,,,,1169.8235195000002,,,,,,,,,,,1169.8207862,1169.8235195000002,1169.8235195000002,1169.8235195000002,1172.8148438000003,f,0.837299300000268,0.2639517999996315,1172.8150528,1172.8151107000003,None,,,,,,,,,,,,,,,,,00016,001,2025-11-18_15h18.28.519,MST_task,2024.2.0,59.8285791549456,2025-11-18 15h18.34.767461 +0530,
,Objects\036a.jpg,109,0,110,,,,,f,0.7178340000000389,0.2634994000000006,None,,,,,,110,0,109,1172.8308229,,,,,,,,,,,,,,,,,,,,,,,1172.8154911000001,1172.8308229,1173.3157597,,,,,,,,,,,,1173.3348331000002,,,,,,,,,,,1173.33212,1173.3348331000002,1173.3348331000002,1173.3348331000002,1176.3313089000003,f,0.7178340000000389,0.2634994000000006,1176.3315247,1176.3315819,None,,,,,,,,,,,,,,,,,00016,001,2025-11-18_15h18.28.519,MST_task,2024.2.0,59.8285791549456,2025-11-18 15h18.34.767461 +0530,
,Objects\149a.jpg,110,0,111,,,,,f,0.8960959999999432,0.23949839999977485,None,,,,,,111,0,110,1176.3477014,,,,,,,,,,,,,,,,,,,,,,,1176.3318823,1176.3477014,1176.8319921000002,,,,,,,,,,,,1176.8688251000003,,,,,,,,,,,1176.8661350000002,1176.8688251000003,1176.8688251000003,1176.8688251000003,1179.8480753000003,f,0.8960959999999432,0.23949839999977485,1179.8482634000002,1179.8483096,None,,,,,,,,,,,,,,,,,00016,001,2025-11-18_15h18.28.519,MST_task,2024.2.0,59.8285791549456,2025-11-18 15h18.34.767461 +0530,
,Objects\167a.jpg,111,0,112,,,,,f,0.995840699999917,0.327271600000131,None,,,,,,112,0,111,1179.8642233,,,,,,,,,,,,,,,,,,,,,,,1179.8486285,1179.8642233,1180.3486580000003,,,,,,,,,,,,1180.3690905000003,,,,,,,,,,,1180.3664089000004,1180.3690905000003,1180.3690905000003,1180.3690905000003,1183.36501,f,0.995840699999917,0.327271600000131,1183.3652380000003,1183.3652998000002,None,,,,,,,,,,,,,,,,,00016,001,2025-11-18_15h18.28.519,MST_task,2024.2.0,59.8285791549456,2025-11-18 15h18.34.767461 +0530,
,Scenes\170a.jpg,112,0,113,,,,,j,1.1347591000003376,0.26341229999979987,None,,,,,,113,0,112,1183.3808425000002,,,,,,,,,,,,,,,,,,,,,,,1183.3656537000002,1183.3808425000002,1183.8653298,,,,,,,,,,,,1183.8940943000002,,,,,,,,,,,1183.8908259,1183.8940943000002,1183.8940943000002,1183.8940943000002,1186.8811006,j,1.1347591000003376,0.26341229999979987,1186.8813151,1186.8813727000002,None,,,,,,,,,,,,,,,,,00016,001,2025-11-18_15h18.28.519,MST_task,2024.2.0,59.8285791549456,2025-11-18 15h18.34.767461 +0530,
,Scenes\004a.jpg,113,0,114,,,,,j,0.6986019999999371,0.2562630000002173,None,,,,,,114,0,113,1186.8973517,,,,,,,,,,,,,,,,,,,,,,,1186.8817010000002,1186.8973517,1187.3818801000002,,,,,,,,,,,,1187.4269831000001,,,,,,,,,,,1187.4233684,1187.4269831000001,1187.4269831000001,1187.4269831000001,1190.3977221,j,0.6986019999999371,0.2562630000002173,1190.3977822000002,1190.3977937,None,,,,,,,,,,,,,,,,,00016,001,2025-11-18_15h18.28.519,MST_task,2024.2.0,59.8285791549456,2025-11-18 15h18.34.767461 +0530,
,Scenes\136a.jpg,114,0,115,,,,,j,1.8534191000003375,0.21610639999971681,None,,,,,,115,0,114,1190.4138433000003,,,,,,,,,,,,,,,,,,,,,,,1190.397888,1190.4138433000003,1190.8982682,,,,,,,,,,,,1190.9187663000002,,,,,,,,,,,1190.9155212,1190.9187663000002,1190.9187663000002,1190.9187663000002,1193.8982410000003,j,1.8534191000003375,0.21610639999971681,1193.8984391,1193.8984895000003,None,,,,,,,,,,,,,,,,,00016,001,2025-11-18_15h18.28.519,MST_task,2024.2.0,59.8285791549456,2025-11-18 15h18.34.767461 +0530,
,Scenes\035a.jpg,115,0,116,,,,,j,1.5782272999999805,0.23969289999968169,None,,,,,,116,0,115,1193.9144007,,,,,,,,,,,,,,,,,,,,,,,1193.8988173000002,1193.9144007,1194.3985311000001,,,,,,,,,,,,1194.4263677000004,,,,,,,,,,,1194.4231214000001,1194.4263677000004,1194.4263677000004,1194.4263677000004,1197.4147588,j,1.5782272999999805,0.23969289999968169,1197.4149714,1197.4150281000002,None,,,,,,,,,,,,,,,,,00016,001,2025-11-18_15h18.28.519,MST_task,2024.2.0,59.8285791549456,2025-11-18 15h18.34.767461 +0530,
,Scenes\177a.jpg,116,0,117,,,,,j,0.6128054000000702,0.2632321999999476,None,,,,,,117,0,116,1197.4307824000002,,,,,,,,,,,,,,,,,,,,,,,1197.4153279000002,1197.4307824000002,1197.9155643,,,,,,,,,,,,1197.9440156,,,,,,,,,,,1197.9404847,1197.9440156,1197.9440156,1197.9440156,1200.9311162,j,0.6128054000000702,0.2632321999999476,1200.9313300000003,1200.9313888000001,None,,,,,,,,,,,,,,,,,00016,001,2025-11-18_15h18.28.519,MST_task,2024.2.0,59.8285791549456,2025-11-18 15h18.34.767461 +0530,
,Scenes\156a.jpg,117,0,118,,,,,j,0.9751297999996495,0.2245999000001575,None,,,,,,118,0,117,1200.9474438000002,,,,,,,,,,,,,,,,,,,,,,,1200.9316834,1200.9474438000002,1201.4315555000003,,,,,,,,,,,,1201.453089,,,,,,,,,,,1201.4497662000003,1201.453089,1201.453089,1201.453089,1204.4480753000003,j,0.9751297999996495,0.2245999000001575,1204.4482702,1204.4483178,None,,,,,,,,,,,,,,,,,00016,001,2025-11-18_15h18.28.519,MST_task,2024.2.0,59.8285791549456,2025-11-18 15h18.34.767461 +0530,
,Scenes\138a.jpg,118,0,119,,,,,j,0.855297199999768,0.25647939999998925,None,,,,,,119,0,118,1204.4640839000003,,,,,,,,,,,,,,,,,,,,,,,1204.4486591,1204.4640839000003,1204.9499296,,,,,,,,,,,,1204.9729636000002,,,,,,,,,,,1204.9694481000001,1204.9729636000002,1204.9729636000002,1204.9729636000002,1207.9645482,j,0.855297199999768,0.25647939999998925,1207.9647309000002,1207.9647783,None,,,,,,,,,,,,,,,,,00016,001,2025-11-18_15h18.28.519,MST_task,2024.2.0,59.8285791549456,2025-11-18 15h18.34.767461 +0530,
,Objects\143a.jpg,119,0,120,,,,,f,0.828267699999742,0.25649269999985336,None,,,,,,120,0,119,1207.9806151000003,,,,,,,,,,,,,,,,,,,,,,,1207.9651334,1207.9806151000003,1208.4650423000003,,,,,,,,,,,,1208.4878855000002,,,,,,,,,,,1208.4847588000002,1208.4878855000002,1208.4878855000002,1208.4878855000002,1211.4813357000003,f,0.828267699999742,0.25649269999985336,1211.4815454,1211.4816012000001,None,,,,,,,,,,,,,,,,,00016,001,2025-11-18_15h18.28.519,MST_task,2024.2.0,59.8285791549456,2025-11-18 15h18.34.767461 +0530,
,Objects\131a.jpg,120,0,121,,,,,f,0.6519405999997616,0.23154500000009648,None,,,,,,121,0,120,1211.4974993,,,,,,,,,,,,,,,,,,,,,,,1211.4818954000002,1211.4974993,1211.9814554,,,,,,,,,,,,1212.0007436,,,,,,,,,,,1211.9982840000002,1212.0007436,1212.0007436,1212.0007436,1214.9980947,f,0.6519405999997616,0.23154500000009648,1214.9983939000003,1214.9984512,None,,,,,,,,,,,,,,,,,00016,001,2025-11-18_15h18.28.519,MST_task,2024.2.0,59.8285791549456,2025-11-18 15h18.34.767461 +0530,
,Objects\144a.jpg,121,0,122,,,,,f,0.8679840999998305,0.21396099999992657,None,,,,,,122,0,121,1215.0140593,,,,,,,,,,,,,,,,,,,,,,,1214.9987505,1215.0140593,1215.4976064000002,,,,,,,,,,,,1215.5142604000002,,,,,,,,,,,1215.5114654,1215.5142604000002,1215.5142604000002,1215.5142604000002,1218.4993587,f,0.8679840999998305,0.21396099999992657,1218.4995532000003,1218.4995957,None,1218.5141008,1218.5141008,1218.5141008,,,,,,,,,,,,,,00016,001,2025-11-18_15h18.28.519,MST_task,2024.2.0,59.8285791549456,2025-11-18 15h18.34.767461 +0530,
,Objects\141a.jpg,122,0,123,,,,,f,1.1611621000001833,0.27246619999959876,None,,,,,,123,0,122,1218.5141008,,,,,,,,,,,,,,,,,,,,,,,1218.4998935000003,1218.5141008,1218.9989342000003,,,,,,,,,,,,1219.0192921000003,,,,,,,,,,,1219.0165735,1219.0192921000003,1219.0192921000003,1219.0192921000003,1222.0147523,f,1.1611621000001833,0.27246619999959876,1222.0149732,1222.0150336000002,None,,,,,,,,,,,,,,,,,00016,001,2025-11-18_15h18.28.519,MST_task,2024.2.0,59.8285791549456,2025-11-18 15h18.34.767461 +0530,
,Objects\173a.jpg,123,0,124,,,,,f,0.6730277999999998,0.255906700000196,None,,,,,,124,0,123,1222.0306223000002,,,,,,,,,,,,,,,,,,,,,,,1222.0153348000003,1222.0306223000002,1222.5149426000003,,,,,,,,,,,,1222.5317578,,,,,,,,,,,1222.5291054,1222.5317578,1222.5317578,1222.5317578,1225.5160190000001,f,0.6730277999999998,0.255906700000196,1225.5161948,1225.5162365,None,1225.5306042000002,1225.5306042000002,1225.5306042000002,,,,,,,,,,,,,,00016,001,2025-11-18_15h18.28.519,MST_task,2024.2.0,59.8285791549456,2025-11-18 15h18.34.767461 +0530,
,Objects\092a.jpg,124,0,125,,,,,f,0.754408699999658,0.2553007000001344,None,,,,,,125,0,124,1225.5306042000002,,,,,,,,,,,,,,,,,,,,,,,1225.5165298000002,1225.5306042000002,1226.0153433,,,,,,,,,,,,1226.0347034000001,,,,,,,,,,,1226.0320199000003,1226.0347034000001,1226.0347034000001,1226.0347034000001,1229.0312263,f,0.754408699999658,0.2553007000001344,1229.0314358,1229.0314934000003,None,,,,,,,,,,,,,,,,,00016,001,2025-11-18_15h18.28.519,MST_task,2024.2.0,59.8285791549456,2025-11-18 15h18.34.767461 +0530,
,Objects\027a.jpg,125,0,126,,,,,f,0.9400699999996505,0.24062159999994037,None,,,,,,126,0,125,1229.0475396000002,,,,,,,,,,,,,,,,,,,,,,,1229.0318666000003,1229.0475396000002,1229.5318212000002,,,,,,,,,,,,1229.5525041,,,,,,,,,,,1229.5498774000002,1229.5525041,1229.5525041,1229.5525041,1232.5478669,f,0.9400699999996505,0.24062159999994037,1232.5479839,1232.5480129000002,None,,,,,,,,,,,,,,,,,00016,001,2025-11-18_15h18.28.519,MST_task,2024.2.0,59.8285791549456,2025-11-18 15h18.34.767461 +0530,
,Scenes\178a.jpg,126,0,127,,,,,j,0.7549655000002531,0.23248860000012428,None,,,,,,127,0,126,1232.5642166000002,,,,,,,,,,,,,,,,,,,,,,,1232.5481611,1232.5642166000002,1233.0485549,,,,,,,,,,,,1233.0733249,,,,,,,,,,,1233.0701343,1233.0733249,1233.0733249,1233.0733249,1236.0647400000003,j,0.7549655000002531,0.23248860000012428,1236.0649557000002,1236.0650139,None,,,,,,,,,,,,,,,,,00016,001,2025-11-18_15h18.28.519,MST_task,2024.2.0,59.8285791549456,2025-11-18 15h18.34.767461 +0530,
,Scenes\175a.jpg,127,0,128,,,,,j,0.6319633999996768,0.24033550000012838,None,,,,,,128,0,127,1236.0805681000002,,,,,,,,,,,,,,,,,,,,,,,1236.0653417000003,1236.0805681000002,1236.5653842000002,,,,,,,,,,,,1236.5887121,,,,,,,,,,,1236.585662,1236.5887121,1236.5887121,1236.5887121,1239.5811595,j,0.6319633999996768,0.24033550000012838,1239.5813339000001,1239.5813798,None,,,,,,,,,,,,,,,,,00016,001,2025-11-18_15h18.28.519,MST_task,2024.2.0,59.8285791549456,2025-11-18 15h18.34.767461 +0530,
,Scenes\144a.jpg,128,0,129,,,,,j,0.8802259999997659,0.22464080000008835,None,,,,,,129,0,128,1239.5976656000003,,,,,,,,,,,,,,,,,,,,,,,1239.5816084000003,1239.5976656000003,1240.0818492000003,,,,,,,,,,,,1240.1080438,,,,,,,,,,,1240.1048333000003,1240.1080438,1240.1080438,1240.1080438,1243.0979255000002,j,0.8802259999997659,0.22464080000008835,1243.0980848,1243.0981242000003,None,,,,,,,,,,,,,,,,,00016,001,2025-11-18_15h18.28.519,MST_task,2024.2.0,59.8285791549456,2025-11-18 15h18.34.767461 +0530,
,Scenes\108a.jpg,129,0,130,,,,,j,0.6491789000001518,0.2481192000000192,None,,,,,,130,0,129,1243.1140789,,,,,,,,,,,,,,,,,,,,,,,1243.0983909000001,1243.1140789,1243.5985626000002,,,,,,,,,,,,1243.6271377000003,,,,,,,,,,,1243.6237882,1243.6271377000003,1243.6271377000003,1243.6271377000003,1246.6149464,j,0.6491789000001518,0.2481192000000192,1246.6152187000002,1246.6152834,None,,,,,,,,,,,,,,,,,00016,001,2025-11-18_15h18.28.519,MST_task,2024.2.0,59.8285791549456,2025-11-18 15h18.34.767461 +0530,
,Scenes\003a.jpg,130,0,131,,,,,f,1.3957783999999265,0.2715029000000868,None,,,,,,131,0,130,1246.6306083,,,,,,,,,,,,,,,,,,,,,,,1246.6155834,1246.6306083,1247.1153319,,,,,,,,,,,,1247.1456119,,,,,,,,,,,1247.1421954000002,1247.1456119,1247.1456119,1247.1456119,1250.1315755,f,1.3957783999999265,0.2715029000000868,1250.131855,1250.1319172000003,None,,,,,,,,,,,,,,,,,00016,001,2025-11-18_15h18.28.519,MST_task,2024.2.0,59.8285791549456,2025-11-18 15h18.34.767461 +0530,
,Scenes\181a.jpg,131,0,132,,,,,f,0.9128256999997575,0.2639499000001706,None,,,,,,132,0,131,1250.1474413,,,,,,,,,,,,,,,,,,,,,,,1250.1323024000003,1250.1474413,1250.63173,,,,,,,,,,,,1250.6681388000002,,,,,,,,,,,1250.6648586000001,1250.6681388000002,1250.6681388000002,1250.6681388000002,1253.6481601,f,0.9128256999997575,0.2639499000001706,1253.6483750000002,1253.6484306000002,None,,,,,,,,,,,,,,,,,00016,001,2025-11-18_15h18.28.519,MST_task,2024.2.0,59.8285791549456,2025-11-18 15h18.34.767461 +0530,
,Scenes\155a.jpg,132,0,133,,,,,j,0.6961215999999695,0.23971560000018144,None,,,,,,133,0,132,1253.6642828,,,,,,,,,,,,,,,,,,,,,,,1253.6487255000002,1253.6642828,1254.1487644000003,,,,,,,,,,,,1254.1728114000002,,,,,,,,,,,1254.1695246,1254.1728114000002,1254.1728114000002,1254.1728114000002,1257.1649952000002,j,0.6961215999999695,0.23971560000018144,1257.1652036,1257.1652622000001,None,,,,,,,,,,,,,,,,,00016,001,2025-11-18_15h18.28.519,MST_task,2024.2.0,59.8285791549456,2025-11-18 15h18.34.767461 +0530,
,Objects\067a.jpg,133,0,134,,,,,f,1.7047792999997,0.19916580000017348,None,,,,,,134,0,133,1257.1808162000002,,,,,,,,,,,,,,,,,,,,,,,1257.1656439000003,1257.1808162000002,1257.6652117000003,,,,,,,,,,,,1257.6841528,,,,,,,,,,,1257.6809667000002,1257.6841528,1257.6841528,1257.6841528,1260.6811854000002,f,1.7047792999997,0.19916580000017348,1260.6813852,1260.6814441000001,None,,,,,,,,,,,,,,,,,00016,001,2025-11-18_15h18.28.519,MST_task,2024.2.0,59.8285791549456,2025-11-18 15h18.34.767461 +0530,
,Objects\153a.jpg,134,0,135,,,,,f,0.7319213999999192,0.27942520000033255,None,,,,,,135,0,134,1260.6976194000003,,,,,,,,,,,,,,,,,,,,,,,1260.6817592000002,1260.6976194000003,1261.1817124,,,,,,,,,,,,1261.2007317000002,,,,,,,,,,,1261.1981616000003,1261.2007317000002,1261.2007317000002,1261.2007317000002,1264.1980355,f,0.7319213999999192,0.27942520000033255,1264.1982571000003,1264.1983142,None,,,,,,,,,,,,,,,,,00016,001,2025-11-18_15h18.28.519,MST_task,2024.2.0,59.8285791549456,2025-11-18 15h18.34.767461 +0530,
,Objects\164a.jpg,135,0,136,,,,,j,1.7660126000000673,0.21600919999991675,None,,,,,,136,0,135,1264.2142990000002,,,,,,,,,,,,,,,,,,,,,,,1264.1986372000001,1264.2142990000002,1264.6990274,,,,,,,,,,,,1264.7183955,,,,,,,,,,,1264.7156765,1264.7183955,1264.7183955,1264.7183955,1267.7149891,j,1.7660126000000673,0.21600919999991675,1267.7152212,1267.7152802,None,,,,,,,,,,,,,,,,,00016,001,2025-11-18_15h18.28.519,MST_task,2024.2.0,59.8285791549456,2025-11-18 15h18.34.767461 +0530,
,Objects\060a.jpg,136,0,137,,,,,f,0.8851113000000623,0.20003189999988535,None,,,,,,137,0,136,1267.7307678000002,,,,,,,,,,,,,,,,,,,,,,,1267.7156676,1267.7307678000002,1268.2150061000002,,,,,,,,,,,,1268.2311577,,,,,,,,,,,1268.2284994000001,1268.2311577,1268.2311577,1268.2311577,1271.2160000000003,f,0.8851113000000623,0.20003189999988535,1271.2161612,1271.2161983,None,1271.2307281000003,1271.2307281000003,1271.2307281000003,,,,,,,,,,,,,,00016,001,2025-11-18_15h18.28.519,MST_task,2024.2.0,59.8285791549456,2025-11-18 15h18.34.767461 +0530,
,Objects\116a.jpg,137,0,138,,,,,f,0.9990974000002097,0.1926999999996042,None,,,,,,138,0,137,1271.2307281000003,,,,,,,,,,,,,,,,,,,,,,,1271.2164035,1271.2307281000003,1271.7153837,,,,,,,,,,,,1271.7330630000001,,,,,,,,,,,1271.7303201,1271.7330630000001,1271.7330630000001,1271.7330630000001,1274.7309037,f,0.9990974000002097,0.1926999999996042,1274.7309950000003,1274.7310165000004,None,,,,,,,,,,,,,,,,,00016,001,2025-11-18_15h18.28.519,MST_task,2024.2.0,59.8285791549456,2025-11-18 15h18.34.767461 +0530,
,Objects\109a.jpg,138,0,139,,,,,f,0.9937386000001425,0.18410369999992326,None,,,,,,139,0,138,1274.7473561000002,,,,,,,,,,,,,,,,,,,,,,,1274.7311690000001,1274.7473561000002,1275.2319355,,,,,,,,,,,,1275.2505559,,,,,,,,,,,1275.2478197,1275.2505559,1275.2505559,1275.2505559,1278.2315183,f,0.9937386000001425,0.18410369999992326,1278.2317348000001,1278.2317912000003,None,,,,,,,,,,,,,,,,,00016,001,2025-11-18_15h18.28.519,MST_task,2024.2.0,59.8285791549456,2025-11-18 15h18.34.767461 +0530,
,Objects\103a.jpg,139,0,140,,,,,f,2.4837710000001607,0.2475267999998323,None,,,,,,140,0,139,1278.2475959000003,,,,,,,,,,,,,,,,,,,,,,,1278.2321740000002,1278.2475959000003,1278.7319345,,,,,,,,,,,,1278.7530546000003,,,,,,,,,,,1278.7501791,1278.7530546000003,1278.7530546000003,1278.7530546000003,1281.7480821,f,2.4837710000001607,0.2475267999998323,1281.7482929000003,1281.7483499,None,,,,,,,,,,,,,,,,,00016,001,2025-11-18_15h18.28.519,MST_task,2024.2.0,59.8285791549456,2025-11-18 15h18.34.767461 +0530,
,Scenes\069a.jpg,140,0,141,,,,,j,1.2611025000001064,0.22413559999995414,None,,,,,,141,0,140,1281.7642664,,,,,,,,,,,,,,,,,,,,,,,1281.7487331000002,1281.7642664,1282.2487742000003,,,,,,,,,,,,1282.2714111,,,,,,,,,,,1282.2681482000003,1282.2714111,1282.2714111,1282.2714111,1285.2644803000003,j,1.2611025000001064,0.22413559999995414,1285.2646382000003,1285.2646797000002,None,,,,,,,,,,,,,,,,,00016,001,2025-11-18_15h18.28.519,MST_task,2024.2.0,59.8285791549456,2025-11-18 15h18.34.767461 +0530,
,Scenes\031a.jpg,141,0,142,,,,,j,2.8981297999998787,None,None,,,,,,142,0,141,1285.2806169,,,,,,,,,,,,,,,,,,,,,,,1285.2649906000001,1285.2806169,1285.7654172000002,,,,,,,,,,,,1285.7943338,,,,,,,,,,,1285.7909211,1285.7943338,1285.7943338,1285.7943338,1288.7816244,j,2.8981297999998787,None,1288.7818615,1288.7819196,None,,,,,,,,,,,,,,,,,00016,001,2025-11-18_15h18.28.519,MST_task,2024.2.0,59.8285791549456,2025-11-18 15h18.34.767461 +0530,
,Scenes\159a.jpg,142,0,143,,,,,j,0.8533997999998064,0.24745200000006662,None,,,,,,143,0,142,1288.7975757,,,,,,,,,,,,,,,,,,,,,,,1288.7823044000002,1288.7975757,1289.2820215000002,,,,,,,,,,,,1289.3112441000003,,,,,,,,,,,1289.3078285000001,1289.3112441000003,1289.3112441000003,1289.3112441000003,1292.2981687000001,j,0.8533997999998064,0.24745200000006662,1292.2983758,1292.2984355000003,None,,,,,,,,,,,,,,,,,00016,001,2025-11-18_15h18.28.519,MST_task,2024.2.0,59.8285791549456,2025-11-18 15h18.34.767461 +0530,
,Scenes\076a.jpg,143,0,144,,,,,j,0.6524488999998539,0.24059929999975793,None,,,,,,144,0,143,1292.3143332,,,,,,,,,,,,,,,,,,,,,,,1292.2988276,1292.3143332,1292.7987195,,,,,,,,,,,,1292.8318316,,,,,,,,,,,1292.828258,1292.8318316,1292.8318316,1292.8318316,1295.8145392000001,j,0.6524488999998539,0.24059929999975793,1295.8146781,1295.8147163000003,None,,,,,,,,,,,,,,,,,00016,001,2025-11-18_15h18.28.519,MST_task,2024.2.0,59.8285791549456,2025-11-18 15h18.34.767461 +0530,
,Scenes\042a.jpg,144,0,145,,,,,j,1.0243424000000232,0.22359299999970972,None,,,,,,145,0,144,1295.8308319000002,,,,,,,,,,,,,,,,,,,,,,,1295.8149776,1295.8308319000002,1296.3153817000002,,,,,,,,,,,,1296.3408587000004,,,,,,,,,,,1296.3372282,1296.3408587000004,1296.3408587000004,1296.3408587000004,1299.3311612000002,j,1.0243424000000232,0.22359299999970972,1299.3313693,1299.3314279,None,,,,,,,,,,,,,,,,,00016,001,2025-11-18_15h18.28.519,MST_task,2024.2.0,59.8285791549456,2025-11-18 15h18.34.767461 +0530,
,Scenes\168a.jpg,145,0,146,,,,,j,1.3788832000000184,0.239929100000154,None,,,,,,146,0,145,1299.3475573,,,,,,,,,,,,,,,,,,,,,,,1299.3317659,1299.3475573,1299.8321447000003,,,,,,,,,,,,1299.8577761000001,,,,,,,,,,,1299.8543412,1299.8577761000001,1299.8577761000001,1299.8577761000001,1302.8481403,j,1.3788832000000184,0.239929100000154,1302.8483359000002,1302.8483974,None,,,,,,,,,,,,,,,,,00016,001,2025-11-18_15h18.28.519,MST_task,2024.2.0,59.8285791549456,2025-11-18 15h18.34.767461 +0530,
,Scenes\142a.jpg,146,0,147,,,,,j,1.0417809000000489,0.1926338000002943,None,,,,,,147,0,146,1302.8642330000002,,,,,,,,,,,,,,,,,,,,,,,1302.8487371,1302.8642330000002,1303.3485801000002,,,,,,,,,,,,1303.3782722,,,,,,,,,,,1303.3749613,1303.3782722,1303.3782722,1303.3782722,1306.3644453000002,j,1.0417809000000489,0.1926338000002943,1306.364528,1306.3645454000002,None,,,,,,,,,,,,,,,,,00016,001,2025-11-18_15h18.28.519,MST_task,2024.2.0,59.8285791549456,2025-11-18 15h18.34.767461 +0530,
,Objects\169a.jpg,147,0,148,,,,,j,1.8164772999998604,0.23261450000018158,None,,,,,,148,0,147,1306.3806322,,,,,,,,,,,,,,,,,,,,,,,1306.3646801,1306.3806322,1306.8654085000003,,,,,,,,,,,,1306.883863,,,,,,,,,,,1306.8807474,1306.883863,1306.883863,1306.883863,1309.8647519,j,1.8164772999998604,0.23261450000018158,1309.8649639,1309.8650225000001,None,,,,,,,,,,,,,,,,,00016,001,2025-11-18_15h18.28.519,MST_task,2024.2.0,59.8285791549456,2025-11-18 15h18.34.767461 +0530,
,Objects\018a.jpg,148,0,149,,,,,f,0.9717636999998831,0.2564093999999386,None,,,,,,149,0,148,1309.8807160000001,,,,,,,,,,,,,,,,,,,,,,,1309.8653239,1309.8807160000001,1310.365159,,,,,,,,,,,,1310.3847969000003,,,,,,,,,,,1310.3822549000001,1310.3847969000003,1310.3847969000003,1310.3847969000003,1313.3811966000003,f,0.9717636999998831,0.2564093999999386,1313.3813934,1313.3814465,None,,,,,,,,,,,,,,,,,00016,001,2025-11-18_15h18.28.519,MST_task,2024.2.0,59.8285791549456,2025-11-18 15h18.34.767461 +0530,
,Objects\026a.jpg,149,0,150,,,,,f,0.7923961000001327,0.27989409999963755,None,,,,,,150,0,149,1313.3974892,,,,,,,,,,,,,,,,,,,,,,,1313.3817367000001,1313.3974892,1313.8816441,,,,,,,,,,,,1313.8999632,,,,,,,,,,,1313.8973898,1313.8999632,1313.8999632,1313.8999632,1316.8979566000003,f,0.7923961000001327,0.27989409999963755,1316.8981504000003,1316.8982033000002,None,,,,,,,,,,,,,,,,,00016,001,2025-11-18_15h18.28.519,MST_task,2024.2.0,59.8285791549456,2025-11-18 15h18.34.767461 +0530,
,Objects\016a.jpg,150,0,151,,,,,f,0.5864026999997805,0.24834800000007817,None,,,,,,151,0,150,1316.9140651000002,,,,,,,,,,,,,,,,,,,,,,,1316.8985837,1316.9140651000002,1317.398599,,,,,,,,,,,,1317.418189,,,,,,,,,,,1317.4156605000003,1317.418189,1317.418189,1317.418189,1320.4146448000001,f,0.5864026999997805,0.24834800000007817,1320.4148645,1320.4149190000003,None,,,,,,,,,,,,,,,,,00016,001,2025-11-18_15h18.28.519,MST_task,2024.2.0,59.8285791549456,2025-11-18 15h18.34.767461 +0530,
,Objects\054a.jpg,151,0,152,,,,,f,0.9263974999998936,0.2554279000000861,None,,,,,,152,0,151,1320.430676,,,,,,,,,,,,,,,,,,,,,,,1320.4152602,1320.430676,1320.9153650000003,,,,,,,,,,,,1320.9343014,,,,,,,,,,,1320.9318869000003,1320.9343014,1320.9343014,1320.9343014,1323.9312318000002,f,0.9263974999998936,0.2554279000000861,1323.9313858,1323.9314249,None,,,,,,,,,,,,,,,,,00016,001,2025-11-18_15h18.28.519,MST_task,2024.2.0,59.8285791549456,2025-11-18 15h18.34.767461 +0530,
,Objects\009a.jpg,152,0,153,,,,,f,0.665932100000191,0.23170759999993606,None,,,,,,153,0,152,1323.9473011,,,,,,,,,,,,,,,,,,,,,,,1323.9317136,1323.9473011,1324.4316671000001,,,,,,,,,,,,1324.450859,,,,,,,,,,,1324.4482429,1324.450859,1324.450859,1324.450859,1327.4481739000003,f,0.665932100000191,0.23170759999993606,1327.4483739000002,1327.4484305,None,,,,,,,,,,,,,,,,,00016,001,2025-11-18_15h18.28.519,MST_task,2024.2.0,59.8285791549456,2025-11-18 15h18.34.767461 +0530,
,Objects\133a.jpg,153,0,154,,,,,j,1.1070638000001054,0.2724137999998675,None,,,,,,154,0,153,1327.4641719,,,,,,,,,,,,,,,,,,,,,,,1327.4487236,1327.4641719,1327.9485735000003,,,,,,,,,,,,1327.9691521,,,,,,,,,,,1327.9664411000003,1327.9691521,1327.9691521,1327.9691521,1330.9647399,j,1.1070638000001054,0.2724137999998675,1330.9649645,1330.9650246,None,,,,,,,,,,,,,,,,,00016,001,2025-11-18_15h18.28.519,MST_task,2024.2.0,59.8285791549456,2025-11-18 15h18.34.767461 +0530,
,Scenes\016a.jpg,154,0,155,,,,,j,0.8800163000000794,0.2558165000000372,None,,,,,,155,0,154,1330.9808182000002,,,,,,,,,,,,,,,,,,,,,,,1330.9653275,1330.9808182000002,1331.4652530000003,,,,,,,,,,,,1331.4844284,,,,,,,,,,,1331.4815185000002,1331.4844284,1331.4844284,1331.4844284,1334.4814000000001,j,0.8800163000000794,0.2558165000000372,1334.4816022,1334.4816579000003,None,,,,,,,,,,,,,,,,,00016,001,2025-11-18_15h18.28.519,MST_task,2024.2.0,59.8285791549456,2025-11-18 15h18.34.767461 +0530,
,Scenes\134a.jpg,155,0,156,,,,,j,1.1398598999999194,0.21531020000020362,None,,,,,,156,0,155,1334.4976116000003,,,,,,,,,,,,,,,,,,,,,,,1334.4820314000003,1334.4976116000003,1334.9819313000003,,,,,,,,,,,,1335.0093973000003,,,,,,,,,,,1335.0063348000003,1335.0093973000003,1335.0093973000003,1335.0093973000003,1337.9990775,j,1.1398598999999194,0.21531020000020362,1337.9992686,1337.9993173000003,None,,,,,,,,,,,,,,,,,00016,001,2025-11-18_15h18.28.519,MST_task,2024.2.0,59.8285791549456,2025-11-18 15h18.34.767461 +0530,
,Scenes\027a.jpg,156,0,157,,,,,f,0.8344351000000643,0.1989346000000296,None,,,,,,157,0,156,1338.0141511000002,,,,,,,,,,,,,,,,,,,,,,,1337.9996420000002,1338.0141511000002,1338.4985955000002,,,,,,,,,,,,1338.5230054000003,,,,,,,,,,,1338.5198754000003,1338.5230054000003,1338.5230054000003,1338.5230054000003,1341.5148145000003,f,0.8344351000000643,0.1989346000000296,1341.5150718,1341.5151352000003,None,,,,,,,,,,,,,,,,,00016,001,2025-11-18_15h18.28.519,MST_task,2024.2.0,59.8285791549456,2025-11-18 15h18.34.767461 +0530,
,Scenes\067a.jpg,157,0,158,,,,,j,0.7483636999995724,0.21564170000010563,None,,,,,,158,0,157,1341.5305936,,,,,,,,,,,,,,,,,,,,,,,1341.5154427000002,1341.5305936,1342.0155533000002,,,,,,,,,,,,1342.0402487000001,,,,,,,,,,,1342.0371607000002,1342.0402487000001,1342.0402487000001,1342.0402487000001,1345.0311631,j,0.7483636999995724,0.21564170000010563,1345.0313657000002,1345.0314213000001,None,,,,,,,,,,,,,,,,,00016,001,2025-11-18_15h18.28.519,MST_task,2024.2.0,59.8285791549456,2025-11-18 15h18.34.767461 +0530,
,Scenes\127a.jpg,158,0,159,,,,,j,0.8451673999998093,0.2158625000001848,None,,,,,,159,0,158,1345.0475390000001,,,,,,,,,,,,,,,,,,,,,,,1345.0317902000002,1345.0475390000001,1345.5318507000002,,,,,,,,,,,,1345.5596749000001,,,,,,,,,,,1345.5564007000003,1345.5596749000001,1345.5596749000001,1345.5596749000001,1348.5479992,j,0.8451673999998093,0.2158625000001848,1348.5481905000001,1348.5482425,None,,,,,,,,,,,,,,,,,00016,001,2025-11-18_15h18.28.519,MST_task,2024.2.0,59.8285791549456,2025-11-18 15h18.34.767461 +0530,
,Scenes\147a.jpg,159,0,160,,,,,j,1.0431069999999636,0.24795979999998963,None,,,,,,160,0,159,1348.5641019,,,,,,,,,,,,,,,,,,,,,,,1348.548578,1348.5641019,1349.0486970000002,,,,,,,,,,,,1349.0733526,,,,,,,,,,,1349.0701539000002,1349.0733526,1349.0733526,1349.0733526,1352.0649239,j,1.0431069999999636,0.24795979999998963,1352.0651407,1352.0651977000002,None,,,,,,,,,,,,,,,,,00016,001,2025-11-18_15h18.28.519,MST_task,2024.2.0,59.8285791549456,2025-11-18 15h18.34.767461 +0530,
,Scenes\191a.jpg,160,0,161,,,,,j,1.0310724000000846,0.24053349999985585,None,,,,,,161,0,160,1352.0808331000003,,,,,,,,,,,,,,,,,,,,,,,1352.0655724000003,1352.0808331000003,1352.5653456,,,,,,,,,,,,1352.5893075,,,,,,,,,,,1352.586088,1352.5893075,1352.5893075,1352.5893075,1355.5813752,j,1.0310724000000846,0.24053349999985585,1355.5815748,1355.5816307,None,,,,,,,,,,,,,,,,,00016,001,2025-11-18_15h18.28.519,MST_task,2024.2.0,59.8285791549456,2025-11-18 15h18.34.767461 +0530,
,Objects\008a.jpg,161,0,162,,,,,f,1.3107780000000275,0.20056789999989633,None,,,,,,162,0,161,1355.5975905,,,,,,,,,,,,,,,,,,,,,,,1355.5819310000002,1355.5975905,1356.0820108000003,,,,,,,,,,,,1356.1017012000002,,,,,,,,,,,1356.0985108,1356.1017012000002,1356.1017012000002,1356.1017012000002,1359.0819227000002,f,1.3107780000000275,0.20056789999989633,1359.0821272000003,1359.0821745000003,None,,,,,,,,,,,,,,,,,00016,001,2025-11-18_15h18.28.519,MST_task,2024.2.0,59.8285791549456,2025-11-18 15h18.34.767461 +0530,
,Objects\007a.jpg,162,0,163,,,,,f,0.7015989999999874,0.19201330000032613,None,,,,,,163,0,162,1359.0974683,,,,,,,,,,,,,,,,,,,,,,,1359.0824827000001,1359.0974683,1359.5822059000002,,,,,,,,,,,,1359.6228822000003,,,,,,,,,,,1359.6202082,1359.6228822000003,1359.6228822000003,1359.6228822000003,1362.5982665000001,f,0.7015989999999874,0.19201330000032613,1362.5984822,1362.5985434,None,,,,,,,,,,,,,,,,,00016,001,2025-11-18_15h18.28.519,MST_task,2024.2.0,59.8285791549456,2025-11-18 15h18.34.767461 +0530,
,Objects\019a.jpg,163,0,164,,,,,f,1.4705337000000327,0.2320225999997092,None,,,,,,164,0,163,1362.6141005,,,,,,,,,,,,,,,,,,,,,,,1362.5988811000002,1362.6141005,1363.0986737000003,,,,,,,,,,,,1363.1184461000003,,,,,,,,,,,1363.1156936000002,1363.1184461000003,1363.1184461000003,1363.1184461000003,1366.114837,f,1.4705337000000327,0.2320225999997092,1366.1150537000003,1366.1151123,None,,,,,,,,,,,,,,,,,00016,001,2025-11-18_15h18.28.519,MST_task,2024.2.0,59.8285791549456,2025-11-18 15h18.34.767461 +0530,
,Objects\142a.jpg,164,0,165,,,,,f,0.9222794000002068,0.24066809999976613,None,,,,,,165,0,164,1366.1307337000003,,,,,,,,,,,,,,,,,,,,,,,1366.1154089000001,1366.1307337000003,1366.6155732000002,,,,,,,,,,,,1366.6338397,,,,,,,,,,,1366.6310901000002,1366.6338397,1366.6338397,1366.6338397,1369.6312031000002,f,0.9222794000002068,0.24066809999976613,1369.6314110000003,1369.6314687,None,,,,,,,,,,,,,,,,,00016,001,2025-11-18_15h18.28.519,MST_task,2024.2.0,59.8285791549456,2025-11-18 15h18.34.767461 +0530,
,Objects\175a.jpg,165,0,166,,,,,f,1.0950612000001456,0.19197350000013103,None,,,,,,166,0,165,1369.6475657,,,,,,,,,,,,,,,,,,,,,,,1369.6319569000002,1369.6475657,1370.1319371,,,,,,,,,,,,1370.1492881,,,,,,,,,,,1370.1465324,1370.1492881,1370.1492881,1370.1492881,1373.1480933000003,f,1.0950612000001456,0.19197350000013103,1373.1483233,1373.1483820000003,None,,,,,,,,,,,,,,,,,00016,001,2025-11-18_15h18.28.519,MST_task,2024.2.0,59.8285791549456,2025-11-18 15h18.34.767461 +0530,
,Objects\127a.jpg,166,0,167,,,,,f,1.0547323000000688,0.25469199999997727,None,,,,,,167,0,166,1373.1641718,,,,,,,,,,,,,,,,,,,,,,,1373.1486795,1373.1641718,1373.6489121,,,,,,,,,,,,1373.6707866000002,,,,,,,,,,,1373.6677099000003,1373.6707866000002,1373.6707866000002,1373.6707866000002,1376.6646784,f,1.0547323000000688,0.25469199999997727,1376.6648769000003,1376.6649293,None,,,,,,,,,,,,,,,,,00016,001,2025-11-18_15h18.28.519,MST_task,2024.2.0,59.8285791549456,2025-11-18 15h18.34.767461 +0530,
,Objects\063a.jpg,167,0,168,,,,,f,1.7316144999999779,0.24892580000005182,None,,,,,,168,0,167,1376.6807292000003,,,,,,,,,,,,,,,,,,,,,,,1376.6651943000002,1376.6807292000003,1377.1653858,,,,,,,,,,,,1377.1846148,,,,,,,,,,,1377.1820967000003,1377.1846148,1377.1846148,1377.1846148,1380.1815414000002,f,1.7316144999999779,0.24892580000005182,1380.1817647000003,1380.1818646000002,None,,,,,,,,,,,,,,,,,00016,001,2025-11-18_15h18.28.519,MST_task,2024.2.0,59.8285791549456,2025-11-18 15h18.34.767461 +0530,
,Scenes\001a.jpg,168,0,169,,,,,f,0.7975768999999673,0.17664009999998598,None,,,,,,169,0,168,1380.1975005,,,,,,,,,,,,,,,,,,,,,,,1380.1822456,1380.1975005,1380.6820198,,,,,,,,,,,,1380.7105435000003,,,,,,,,,,,1380.7073005000002,1380.7105435000003,1380.7105435000003,1380.7105435000003,1383.6981336000003,f,0.7975768999999673,0.17664009999998598,1383.6983352000002,1383.698391,None,,,,,,,,,,,,,,,,,00016,001,2025-11-18_15h18.28.519,MST_task,2024.2.0,59.8285791549456,2025-11-18 15h18.34.767461 +0530,
,Scenes\150a.jpg,169,0,170,,,,,j,1.098743999999897,0.2721593000001121,None,,,,,,170,0,169,1383.7143118,,,,,,,,,,,,,,,,,,,,,,,1383.6987545000002,1383.7143118,1384.1987680000002,,,,,,,,,,,,1384.2419886000002,,,,,,,,,,,1384.2385202,1384.2419886000002,1384.2419886000002,1384.2419886000002,1387.2141876,j,1.098743999999897,0.2721593000001121,1387.2142465000002,1387.2142585000001,None,,,,,,,,,,,,,,,,,00016,001,2025-11-18_15h18.28.519,MST_task,2024.2.0,59.8285791549456,2025-11-18 15h18.34.767461 +0530,
,Scenes\021a.jpg,170,0,171,,,,,j,1.561788500000148,0.19952490000014222,None,,,,,,171,0,170,1387.2303959,,,,,,,,,,,,,,,,,,,,,,,1387.2143506000002,1387.2303959,1387.7150065,,,,,,,,,,,,,,,,,,,,,,,1387.7354783,1387.7387228000002,1387.7387228000002,1387.7387228000002,1390.7148438,j,1.561788500000148,0.19952490000014222,1390.7150478000003,1390.7151028000003,None,,,,,,,,,,,,,,,,,00016,001,2025-11-18_15h18.28.519,MST_task,2024.2.0,59.8285791549456,2025-11-18 15h18.34.767461 +0530,
,Scenes\105a.jpg,171,0,172,,,,,j,0.794464600000083,0.2559302999998181,None,,,,,,172,0,171,1390.7308202,,,,,,,,,,,,,,,,,,,,,,,1390.7153774000003,1390.7308202,1391.2153790000002,,,,,,,,,,,,1391.2423485,,,,,,,,,,,1391.2390788000002,1391.2423485,1391.2423485,1391.2423485,1394.23146,j,0.794464600000083,0.2559302999998181,1394.2316755000002,1394.2317325,None,,,,,,,,,,,,,,,,,00016,001,2025-11-18_15h18.28.519,MST_task,2024.2.0,59.8285791549456,2025-11-18 15h18.34.767461 +0530,
,Scenes\052a.jpg,172,0,173,,,,,j,2.2465775000000576,0.18450540000003457,None,,,,,,173,0,172,1394.2474625,,,,,,,,,,,,,,,,,,,,,,,1394.2321161,1394.2474625,1394.7319746000003,,,,,,,,,,,,1394.7577235000003,,,,,,,,,,,1394.7545368,1394.7577235000003,1394.7577235000003,1394.7577235000003,1397.7481432,j,2.2465775000000576,0.18450540000003457,1397.7483667000001,1397.7484269000001,None,,,,,,,,,,,,,,,,,00016,001,2025-11-18_15h18.28.519,MST_task,2024.2.0,59.8285791549456,2025-11-18 15h18.34.767461 +0530,
,Scenes\083a.jpg,173,0,174,,,,,j,0.9794157999999697,0.26412610000033965,None,,,,,,174,0,173,1397.7641256000002,,,,,,,,,,,,,,,,,,,,,,,1397.7487823000001,1397.7641256000002,1398.248631,,,,,,,,,,,,1398.2734524000002,,,,,,,,,,,1398.2707388000003,1398.2734524000002,1398.2734524000002,1398.2734524000002,1401.2647820000002,j,0.9794157999999697,0.26412610000033965,1401.2649838000002,1401.2650388000002,None,,,,,,,,,,,,,,,,,00016,001,2025-11-18_15h18.28.519,MST_task,2024.2.0,59.8285791549456,2025-11-18 15h18.34.767461 +0530,
,Scenes\129a.jpg,174,0,175,,,,,f,2.5193653999999697,0.21636559999979,None,,,,,,175,0,174,1401.2806742000002,,,,,,,,,,,,,,,,,,,,,,,1401.265448,1401.2806742000002,1401.7657815000002,,,,,,,,,,,,1401.789084,,,,,,,,,,,1401.7856278,1401.789084,1401.789084,1401.789084,1404.7814633000003,f,2.5193653999999697,0.21636559999979,1404.7816587000002,1404.7817131000002,None,,,,,,,,,,,,,,,,,00016,001,2025-11-18_15h18.28.519,MST_task,2024.2.0,59.8285791549456,2025-11-18 15h18.34.767461 +0530,
,Objects\166a.jpg,175,0,176,,,,,f,0.8297803999998905,0.24815970000008747,None,,,,,,176,0,175,1404.7977620000001,,,,,,,,,,,,,,,,,,,,,,,1404.7820126000001,1404.7977620000001,1405.2821293000002,,,,,,,,,,,,1405.3025155,,,,,,,,,,,1405.2989577000003,1405.3025155,1405.3025155,1405.3025155,1408.2980312,f,0.8297803999998905,0.24815970000008747,1408.2982764000003,1408.2983375000003,None,,,,,,,,,,,,,,,,,00016,001,2025-11-18_15h18.28.519,MST_task,2024.2.0,59.8285791549456,2025-11-18 15h18.34.767461 +0530,
,Objects\191a.jpg,176,0,177,,,,,f,0.6331725000000006,0.2248637000002418,None,,,,,,177,0,176,1408.3141952,,,,,,,,,,,,,,,,,,,,,,,1408.2986989,1408.3141952,1408.7988263000002,,,,,,,,,,,,1408.8190532000003,,,,,,,,,,,1408.8163258,1408.8190532000003,1408.8190532000003,1408.8190532000003,1411.8146689,f,0.6331725000000006,0.2248637000002418,1411.8148956,1411.8149564,None,,,,,,,,,,,,,,,,,00016,001,2025-11-18_15h18.28.519,MST_task,2024.2.0,59.8285791549456,2025-11-18 15h18.34.767461 +0530,
,Objects\030a.jpg,177,0,178,,,,,f,0.7433034000000589,0.24793599999975413,None,,,,,,178,0,177,1411.8306578000002,,,,,,,,,,,,,,,,,,,,,,,1411.8153357,1411.8306578000002,1412.3156020000001,,,,,,,,,,,,1412.3569861,,,,,,,,,,,1412.3535708,1412.3569861,1412.3569861,1412.3569861,1415.3315144000003,f,0.7433034000000589,0.24793599999975413,1415.3320066,1415.3320820000004,None,,,,,,,,,,,,,,,,,00016,001,2025-11-18_15h18.28.519,MST_task,2024.2.0,59.8285791549456,2025-11-18 15h18.34.767461 +0530,
,Objects\055a.jpg,178,0,179,,,,,f,0.9798384999999143,0.2081806000001052,None,,,,,,179,0,178,1415.3475993000002,,,,,,,,,,,,,,,,,,,,,,,1415.3324796000002,1415.3475993000002,1415.8316755,,,,,,,,,,,,1415.8485069000003,,,,,,,,,,,1415.8454709000002,1415.8485069000003,1415.8485069000003,1415.8485069000003,1418.8331795,f,0.9798384999999143,0.2081806000001052,1418.8334332,1418.8334899000001,None,1418.8476148,1418.8476148,1418.8476148,,,,,,,,,,,,,,00016,001,2025-11-18_15h18.28.519,MST_task,2024.2.0,59.8285791549456,2025-11-18 15h18.34.767461 +0530,
,Objects\122a.jpg,179,0,180,,,,,f,1.4349898999998913,0.24822240000003148,None,,,,,,180,0,179,1418.8476148,,,,,,,,,,,,,,,,,,,,,,,1418.8337835000002,1418.8476148,1419.3320702,,,,,,,,,,,,1419.3536278000001,,,,,,,,,,,1419.3508547000001,1419.3536278000001,1419.3536278000001,1419.3536278000001,1422.3480296000002,f,1.4349898999998913,0.24822240000003148,1422.3482778000002,1422.3483349000003,None,,,,,,,,,,,,,,,,,00016,001,2025-11-18_15h18.28.519,MST_task,2024.2.0,59.8285791549456,2025-11-18 15h18.34.767461 +0530,
,Objects\150a.jpg,180,0,181,,,,,j,2.3255004000002373,0.20813229999976102,None,,,,,,181,0,180,1422.3642382000003,,,,,,,,,,,,,,,,,,,,,,,1422.3486274000002,1422.3642382000003,1422.8487760000003,,,,,,,,,,,,1422.8708624,,,,,,,,,,,1422.8682161000002,1422.8708624,1422.8708624,1422.8708624,1425.8648121,j,2.3255004000002373,0.20813229999976102,1425.8650422,1425.8650995000003,None,,,,,,,,,,,,,,,,,00016,001,2025-11-18_15h18.28.519,MST_task,2024.2.0,59.8285791549456,2025-11-18 15h18.34.767461 +0530,
,Objects\075a.jpg,181,0,182,,,,,f,2.3576223999998547,0.17557329999999638,None,,,,,,182,0,181,1425.8806825000001,,,,,,,,,,,,,,,,,,,,,,,1425.8653909,1425.8806825000001,1426.3654112,,,,,,,,,,,,1426.3829839,,,,,,,,,,,1426.3803589,1426.3829839,1426.3829839,1426.3829839,1429.3814889,f,2.3576223999998547,0.17557329999999638,1429.3817181,1429.3817758,None,,,,,,,,,,,,,,,,,00016,001,2025-11-18_15h18.28.519,MST_task,2024.2.0,59.8285791549456,2025-11-18 15h18.34.767461 +0530,
,Scenes\106a.jpg,182,0,183,,,,,j,0.7205865999999332,0.2715493000000606,None,,,,,,183,0,182,1429.3974820000003,,,,,,,,,,,,,,,,,,,,,,,1429.3821544000002,1429.3974820000003,1429.8817121000002,,,,,,,,,,,,1429.9088899000003,,,,,,,,,,,1429.9056321000003,1429.9088899000003,1429.9088899000003,1429.9088899000003,1432.8977933,j,0.7205865999999332,0.2715493000000606,1432.8979062000003,1432.8979349,None,,,,,,,,,,,,,,,,,00016,001,2025-11-18_15h18.28.519,MST_task,2024.2.0,59.8285791549456,2025-11-18 15h18.34.767461 +0530,
,Scenes\029a.jpg,183,0,184,,,,,j,0.6321452000001955,0.2877251999998407,None,,,,,,184,0,183,1432.9140779,,,,,,,,,,,,,,,,,,,,,,,1432.8981333000002,1432.9140779,1433.3988600000002,,,,,,,,,,,,1433.4283528,,,,,,,,,,,1433.4255795,1433.4283528,1433.4283528,1433.4283528,1436.4154008,j,0.6321452000001955,0.2877251999998407,1436.4154805000003,1436.4154955,None,,,,,,,,,,,,,,,,,00016,001,2025-11-18_15h18.28.519,MST_task,2024.2.0,59.8285791549456,2025-11-18 15h18.34.767461 +0530,
,Scenes\059a.jpg,184,0,185,,,,,j,1.5296935999999732,0.2567949000003864,None,,,,,,185,0,184,1436.4307428000002,,,,,,,,,,,,,,,,,,,,,,,1436.4156129000003,1436.4307428000002,1436.9144962,,,,,,,,,,,,1436.9384088000002,,,,,,,,,,,1436.9351595000003,1436.9384088000002,1436.9384088000002,1436.9384088000002,1439.9313439000002,j,1.5296935999999732,0.2567949000003864,1439.9315487000003,1439.9316065000003,None,,,,,,,,,,,,,,,,,00016,001,2025-11-18_15h18.28.519,MST_task,2024.2.0,59.8285791549456,2025-11-18 15h18.34.767461 +0530,
,Scenes\114a.jpg,185,0,186,,,,,f,1.6750764000003073,0.24853609999991022,None,,,,,,186,0,185,1439.9474977,,,,,,,,,,,,,,,,,,,,,,,1439.931962,1439.9474977,1440.4316384000003,,,,,,,,,,,,1440.4651617,,,,,,,,,,,1440.4618989,1440.4651617,1440.4651617,1440.4651617,1443.4483118000003,f,1.6750764000003073,0.24853609999991022,1443.4485538000004,1443.4486153000003,None,,,,,,,,,,,,,,,,,00016,001,2025-11-18_15h18.28.519,MST_task,2024.2.0,59.8285791549456,2025-11-18 15h18.34.767461 +0530,
