Sl_no,image_path,thisN,thisTrialN,thisRepN,key_resp_5.keys,key_resp_7.keys,key_resp_7.rt,key_resp_7.duration,key_resp_5.rt,key_resp_5.duration,key_resp_9.keys,key_resp_9.rt,key_resp_9.duration,key_resp_8.keys,key_resp_8.rt,key_resp_8.duration,practice.thisRepN,practice.thisTrialN,practice.thisN,trials.thisRepN,trials.thisTrialN,trials.thisN,thisRow.t,notes,welcome_page.started,text.started,key_resp.started,welcome_page.stopped,key_resp.keys,key_resp.rt,key_resp.duration,instructions.started,ins.started,key_resp_2.started,instructions.stopped,key_resp_2.keys,key_resp_2.rt,key_resp_2.duration,objects_only_instruction.started,text_3.started,key_resp_3.started,objects_only_instruction.stopped,key_resp_3.keys,key_resp_3.rt,key_resp_3.duration,ISI.started,text_4.started,ISI.stopped,practice_block.started,image.started,text_5.started,key_resp_5.started,practice_block.stopped,practice.key_resp_5.keys,indoor_outdoor.started,text_7.started,key_resp_7.started,indoor_outdoor.stopped,practice.key_resp_7.keys,practice.key_resp_7.rt,practice.key_resp_7.duration,practice.key_resp_5.rt,practice.key_resp_5.duration,practice_to_main.started,text_2.started,key_resp_4.started,practice_to_main.stopped,key_resp_4.keys,key_resp_4.rt,key_resp_4.duration,objects.started,image_2.started,text_9.started,key_resp_9.started,objects.stopped,trials.key_resp_9.keys,trials.key_resp_9.rt,trials.key_resp_9.duration,encoding_task.started,encoding_task.stopped,trials.key_resp_8.keys,text_8.started,key_resp_8.started,trials.key_resp_8.rt,trials.key_resp_8.duration,end_experiment.started,text_6.started,key_resp_6.started,end_experiment.stopped,key_resp_6.keys,key_resp_6.rt,key_resp_6.duration,list_of_stimuli,encoding_task_accuracy,participant,session,date,expName,psychopyVersion,frameRate,expStart,
,,,,,,,,,,,,,,,,,,,,,,,,,0.017976799979805946,0.034584199893288314,0.034584199893288314,799.638870399911,space,799.5955748999259,None,,,,,,,,,,,,,,,,,,,,,,,,,,,,,,,,,,,,,,,,,,,,,,,,,,,,,,,,,,,,,,,,00017,001,2026-01-20_12h09.25.940,MST_task,2024.2.0,60.065543544703324,2026-01-20 12h09.45.704892 +0530,
,,,,,,,,,,,,,,,,,,,,,,,,,,,,,,,,799.6389123999979,799.6523945999797,799.6523945999797,822.7849430999486,space,23.122177500044927,None,,,,,,,,,,,,,,,,,,,,,,,,,,,,,,,,,,,,,,,,,,,,,,,,,,,,,,,,,00017,001,2026-01-20_12h09.25.940,MST_task,2024.2.0,60.065543544703324,2026-01-20 12h09.45.704892 +0530,
,,,,,,,,,,,,,,,,,,,,,,,,,,,,,,,,,,,,,,,822.7849755999632,822.8002138999291,822.8002138999291,853.8937949999236,space,31.084885800024495,None,,,,,,,,,,,,,,,,,,,,,,,,,,,,,,,,,,,,,,,,,,,,,,,,,,00017,001,2026-01-20_12h09.25.940,MST_task,2024.2.0,60.065543544703324,2026-01-20 12h09.45.704892 +0530,
6,practice_images/158a.jpg,0,0,1,None,j,0.551430799998343,None,,,,,,,,,1,0,0,,,,853.9265002999455,,,,,,,,,,,,,,,,,,,,,,,853.9102658999618,853.9265002999455,854.3948800999206,854.4154154999414,854.4284350998932,854.4284350998932,854.4284350998932,857.4054245000007,None,857.406786999898,857.4223275999539,857.4223275999539,857.9746245999122,j,0.551430799998343,None,,,,,,,,,,,,,,,,,,,,,,,,,,,,,,,,,,00017,001,2026-01-20_12h09.25.940,MST_task,2024.2.0,60.065543544703324,2026-01-20 12h09.45.704892 +0530,
5,practice_images/139a.jpg,1,1,1,None,j,0.21412069990765303,None,,,,,,,,,1,1,1,,,,857.9908616999164,,,,,,,,,,,,,,,,,,,,,,,857.9747150999028,857.9908616999164,858.4758840999566,858.4849160999293,858.5093483999372,858.5093483999372,858.5093483999372,861.4866015999578,None,861.4866539000068,861.503030099906,861.503030099906,861.7214285999071,j,0.21412069990765303,None,,,,,,,,,,,,,,,,,,,,,,,,,,,,,,,,,,00017,001,2026-01-20_12h09.25.940,MST_task,2024.2.0,60.065543544703324,2026-01-20 12h09.45.704892 +0530,
2,practice_images/031a.jpg,2,2,1,f,None,,,1.7417867999756709,0.12778239999897778,,,,,,,1,2,2,,,,861.7371802999405,,,,,,,,,,,,,,,,,,,,,,,861.72151329997,861.7371802999405,862.2225094999885,862.2322028999915,862.2556813999545,862.2556813999545,862.2556813999545,865.2328646999085,f,865.232933799969,,,865.23294789996,None,,,1.7417867999756709,0.12778239999897778,,,,,,,,,,,,,,,,,,,,,,,,,,,,,,,,00017,001,2026-01-20_12h09.25.940,MST_task,2024.2.0,60.065543544703324,2026-01-20 12h09.45.704892 +0530,
4,practice_images/002b.jpg,3,3,1,None,f,0.10042809997685254,None,,,,,,,,,1,3,3,,,,865.2496051999042,,,,,,,,,,,,,,,,,,,,,,,865.233170799911,865.2496051999042,865.7345670999493,865.7445564999944,865.7680966999615,865.7680966999615,865.7680966999615,868.7452641999116,None,868.7453235998983,868.7619079999859,868.7619079999859,868.8630145000061,f,0.10042809997685254,None,,,,,,,,,,,,,,,,,,,,,,,,,,,,,,,,,,00017,001,2026-01-20_12h09.25.940,MST_task,2024.2.0,60.065543544703324,2026-01-20 12h09.45.704892 +0530,
10,practice_images/182a.jpg,4,4,1,f,None,,,1.2238265000050887,0.12170180003158748,,,,,,,1,4,4,,,,868.8789953999221,,,,,,,,,,,,,,,,,,,,,,,868.8631001999602,868.8789953999221,869.3647267000051,869.3744082999183,869.3973583999323,869.3973583999323,869.3973583999323,872.3744915999705,f,872.3745590999024,,,872.3745809999527,None,,,1.2238265000050887,0.12170180003158748,,,,,,,,,,,,,,,,,,,,,,,,,,,,,,,,00017,001,2026-01-20_12h09.25.940,MST_task,2024.2.0,60.065543544703324,2026-01-20 12h09.45.704892 +0530,
7,practice_images/166a.jpg,5,5,1,f,None,,,1.9199503000127152,0.1356297000311315,,,,,,,1,5,5,,,,872.391280699987,,,,,,,,,,,,,,,,,,,,,,,872.3749372999882,872.391280699987,872.8763616000069,872.8851685998961,872.9097894999431,872.9097894999431,872.9097894999431,875.8869119998999,f,875.88711469993,,,875.8871298999293,None,,,1.9199503000127152,0.1356297000311315,,,,,,,,,,,,,,,,,,,,,,,,,,,,,,,,00017,001,2026-01-20_12h09.25.940,MST_task,2024.2.0,60.065543544703324,2026-01-20 12h09.45.704892 +0530,
8,practice_images/178a.jpg,6,6,1,j,None,,,1.847103700041771,0.20821349998004735,,,,,,,1,6,6,,,,875.9034530000063,,,,,,,,,,,,,,,,,,,,,,,875.8872007000027,875.9034530000063,876.3889727999922,876.3988621999742,876.4219599999487,876.4219599999487,876.4219599999487,879.3990912999725,j,879.3991485999431,,,879.3991623999318,None,,,1.847103700041771,0.20821349998004735,,,,,,,,,,,,,,,,,,,,,,,,,,,,,,,,00017,001,2026-01-20_12h09.25.940,MST_task,2024.2.0,60.065543544703324,2026-01-20 12h09.45.704892 +0530,
1,practice_images/013a.jpg,7,7,1,j,None,,,2.3992570999544114,0.21675919997505844,,,,,,,1,7,7,,,,879.4158567999257,,,,,,,,,,,,,,,,,,,,,,,879.3992339998949,879.4158567999257,879.9015963999555,879.9131740999874,879.9336513999151,879.9336513999151,879.9336513999151,882.9117474999512,j,882.9118118999759,,,882.9118264999706,None,,,2.3992570999544114,0.21675919997505844,,,,,,,,,,,,,,,,,,,,,,,,,,,,,,,,00017,001,2026-01-20_12h09.25.940,MST_task,2024.2.0,60.065543544703324,2026-01-20 12h09.45.704892 +0530,
3,practice_images/037a.jpg,8,8,1,f,None,,,2.734983899979852,0.18409910006448627,,,,,,,1,8,8,,,,882.9280610999558,,,,,,,,,,,,,,,,,,,,,,,882.9118951999117,882.9280610999558,883.4132614999544,883.423013899941,883.4465439999476,883.4465439999476,883.4465439999476,886.4238254999509,f,886.4241526999976,,,886.4241700998973,None,,,2.734983899979852,0.18409910006448627,,,,,,,,,,,,,,,,,,,,,,,,,,,,,,,,00017,001,2026-01-20_12h09.25.940,MST_task,2024.2.0,60.065543544703324,2026-01-20 12h09.45.704892 +0530,
9,practice_images/180a.jpg,9,9,1,f,None,,,1.6702846999978647,0.19259069999679923,,,,,,,1,9,9,,,,886.4404827998951,,,,,,,,,,,,,,,,,,,,,,,886.4242420999799,886.4404827998951,886.9258066999028,886.9356087999186,886.9588471999159,886.9588471999159,886.9588471999159,889.93599119992,f,889.9360586999683,,,889.9360713999486,None,,,1.6702846999978647,0.19259069999679923,,,,,,,,,,,,,,,,,,,,,,,,,,,,,,,,00017,001,2026-01-20_12h09.25.940,MST_task,2024.2.0,60.065543544703324,2026-01-20 12h09.45.704892 +0530,
,,,,,,,,,,,,,,,,,,,,,,,,,,,,,,,,,,,,,,,,,,,,,,,,,,,,,,,,,,,,,,,,889.9364307000069,889.952925199992,889.952925199992,916.3957342999056,space,26.42826850002166,None,,,,,,,,,,,,,,,,,,,,,,,,,00017,001,2026-01-20_12h09.25.940,MST_task,2024.2.0,60.065543544703324,2026-01-20 12h09.45.704892 +0530,
,Objects\095a.jpg,0,0,1,,,,,,,f,1.0200753000099212,0.1431549999397248,None,,,,,,1,0,0,916.4116866999539,,,,,,,,,,,,,,,,,,,,,,,916.3963824999519,916.4116866999539,916.8974338999251,,,,,,,,,,,,,,,,,,,,,,,916.9185202999506,916.930890699965,916.930890699965,916.930890699965,919.907657600008,f,1.0200753000099212,0.1431549999397248,919.9091568998992,919.9091761999298,None,,,,,,,,,,,,,,00017,001,2026-01-20_12h09.25.940,MST_task,2024.2.0,60.065543544703324,2026-01-20 12h09.45.704892 +0530,
,Objects\010a.jpg,1,0,2,,,,,,,j,1.8984017999609932,0.31157900008838624,None,,,,,,2,0,1,919.9243942999747,,,,,,,,,,,,,,,,,,,,,,,919.9092732999707,919.9243942999747,920.4095123999286,,,,,,,,,,,,,,,,,,,,,,,920.4208050000016,920.4428718999261,920.4428718999261,920.4428718999261,923.4200195999583,j,1.8984017999609932,0.31157900008838624,923.4200769999297,923.4200894999085,None,,,,,,,,,,,,,,00017,001,2026-01-20_12h09.25.940,MST_task,2024.2.0,60.065543544703324,2026-01-20 12h09.45.704892 +0530,
,Objects\068a.jpg,2,0,3,,,,,,,j,1.682066399953328,0.26435319997835904,None,,,,,,3,0,2,923.4365841998952,,,,,,,,,,,,,,,,,,,,,,,923.4201891999692,923.4365841998952,923.921872499981,,,,,,,,,,,,,,,,,,,,,,,923.9323311999906,923.9551994999638,923.9551994999638,923.9551994999638,926.9322369999718,j,1.682066399953328,0.26435319997835904,926.9323029998923,926.9323157999897,None,,,,,,,,,,,,,,00017,001,2026-01-20_12h09.25.940,MST_task,2024.2.0,60.065543544703324,2026-01-20 12h09.45.704892 +0530,
,Objects\079a.jpg,3,0,4,,,,,,,f,1.1625266999471933,0.19292200007475913,None,,,,,,4,0,3,926.9490015999181,,,,,,,,,,,,,,,,,,,,,,,926.9323854999384,926.9490015999181,927.4340916998917,,,,,,,,,,,,,,,,,,,,,,,927.4453095999779,927.467473299941,927.467473299941,927.467473299941,930.4446226999862,f,1.1625266999471933,0.19292200007475913,930.444688999909,930.4447014000034,None,,,,,,,,,,,,,,00017,001,2026-01-20_12h09.25.940,MST_task,2024.2.0,60.065543544703324,2026-01-20 12h09.45.704892 +0530,
,Objects\161a.jpg,4,0,5,,,,,,,j,1.689292100025341,0.25643930002115667,None,,,,,,5,0,4,930.4611742999405,,,,,,,,,,,,,,,,,,,,,,,930.4447900999803,930.4611742999405,930.9463833000045,,,,,,,,,,,,,,,,,,,,,,,930.9574141999474,930.9796523998957,930.9796523998957,930.9796523998957,933.956965399906,j,1.689292100025341,0.25643930002115667,933.957031799946,933.9570456999354,None,,,,,,,,,,,,,,00017,001,2026-01-20_12h09.25.940,MST_task,2024.2.0,60.065543544703324,2026-01-20 12h09.45.704892 +0530,
,Objects\189a.jpg,5,0,6,,,,,,,f,2.209520500036888,0.20041949988808483,None,,,,,,6,0,5,933.9738683999749,,,,,,,,,,,,,,,,,,,,,,,933.9571217999328,933.9738683999749,934.4586055999389,,,,,,,,,,,,,,,,,,,,,,,934.4699541999726,934.4920724999392,934.4920724999392,934.4920724999392,937.4692257998977,f,2.209520500036888,0.20041949988808483,937.4695611000061,937.4695748999948,None,,,,,,,,,,,,,,00017,001,2026-01-20_12h09.25.940,MST_task,2024.2.0,60.065543544703324,2026-01-20 12h09.45.704892 +0530,
,Objects\144a.jpg,6,0,7,,,,,,,f,1.9057065000524744,0.21515439997892827,None,,,,,,7,0,6,937.4858978999546,,,,,,,,,,,,,,,,,,,,,,,937.4696652999846,937.4858978999546,937.9709669000003,,,,,,,,,,,,,,,,,,,,,,,937.9830145000014,938.0043919999152,938.0043919999152,938.0043919999152,940.9812370999716,f,1.9057065000524744,0.21515439997892827,940.9813104999484,940.9813239999348,None,,,,,,,,,,,,,,00017,001,2026-01-20_12h09.25.940,MST_task,2024.2.0,60.065543544703324,2026-01-20 12h09.45.704892 +0530,
,Scenes\085a.jpg,7,0,8,,,,,,,j,1.2234474000288174,0.2722861999645829,None,,,,,,8,0,7,940.9978985999478,,,,,,,,,,,,,,,,,,,,,,,940.981694499962,940.9978985999478,941.4828917999985,,,,,,,,,,,,,,,,,,,,,,,941.5092152999714,941.5340058999136,941.5340058999136,941.5340058999136,944.4941261999775,j,1.2234474000288174,0.2722861999645829,944.4942021999741,944.4942161999643,None,,,,,,,,,,,,,,00017,001,2026-01-20_12h09.25.940,MST_task,2024.2.0,60.065543544703324,2026-01-20 12h09.45.704892 +0530,
,Scenes\082a.jpg,8,0,9,,,,,,,f,1.2487178000155836,0.2563914000056684,None,,,,,,9,0,8,944.5102382999612,,,,,,,,,,,,,,,,,,,,,,,944.4943154999055,944.5102382999612,944.9956763999071,,,,,,,,,,,,,,,,,,,,,,,945.0159559999593,945.0286401999183,945.0286401999183,945.0286401999183,948.0057674999116,f,1.2487178000155836,0.2563914000056684,948.0059839999303,948.0060027999571,None,,,,,,,,,,,,,,00017,001,2026-01-20_12h09.25.940,MST_task,2024.2.0,60.065543544703324,2026-01-20 12h09.45.704892 +0530,
,Scenes\087a.jpg,9,0,10,,,,,,,j,1.02401239995379,0.20686659996863455,None,,,,,,10,0,9,948.0223701999057,,,,,,,,,,,,,,,,,,,,,,,948.006110999966,948.0223701999057,948.5075775999576,,,,,,,,,,,,,,,,,,,,,,,948.532531099976,948.5584632999962,948.5584632999962,948.5584632999962,951.5180542999879,j,1.02401239995379,0.20686659996863455,951.5184057999868,951.5184250999009,None,,,,,,,,,,,,,,00017,001,2026-01-20_12h09.25.940,MST_task,2024.2.0,60.065543544703324,2026-01-20 12h09.45.704892 +0530,
,Scenes\151a.jpg,10,0,11,,,,,,,j,1.401046899962239,0.17666260001715273,None,,,,,,11,0,10,951.5348960999399,,,,,,,,,,,,,,,,,,,,,,,951.5185062999371,951.5348960999399,952.0200289000059,,,,,,,,,,,,,,,,,,,,,,,952.0424471999286,952.0525619999971,952.0525619999971,952.0525619999971,955.0305550999474,j,1.401046899962239,0.17666260001715273,955.0307712999638,955.0307854999555,None,,,,,,,,,,,,,,00017,001,2026-01-20_12h09.25.940,MST_task,2024.2.0,60.065543544703324,2026-01-20 12h09.45.704892 +0530,
,Scenes\158a.jpg,11,0,12,,,,,,,j,2.367323899990879,0.17610339995007962,None,,,,,,12,0,11,955.046964899986,,,,,,,,,,,,,,,,,,,,,,,955.0308574999217,955.046964899986,955.5321650999831,,,,,,,,,,,,,,,,,,,,,,,955.5581037999364,955.5822603999404,955.5822603999404,955.5822603999404,958.5425555999391,j,2.367323899990879,0.17610339995007962,958.5426324999426,958.5426461999305,None,,,,,,,,,,,,,,00017,001,2026-01-20_12h09.25.940,MST_task,2024.2.0,60.065543544703324,2026-01-20 12h09.45.704892 +0530,
,Scenes\039a.jpg,12,0,13,,,,,,,j,0.9044973999261856,0.1834245000500232,None,,,,,,13,0,12,958.5593803999946,,,,,,,,,,,,,,,,,,,,,,,958.542719299905,958.5593803999946,959.04449999996,,,,,,,,,,,,,,,,,,,,,,,959.0675659999251,959.0774003999541,959.0774003999541,959.0774003999541,962.0549363999162,j,0.9044973999261856,0.1834245000500232,962.0550038999645,962.0550163999433,None,,,,,,,,,,,,,,00017,001,2026-01-20_12h09.25.940,MST_task,2024.2.0,60.065543544703324,2026-01-20 12h09.45.704892 +0530,
,Scenes\124a.jpg,13,0,14,,,,,,,j,2.0398984999628738,0.1517153000459075,None,,,,,,14,0,13,962.0716811999446,,,,,,,,,,,,,,,,,,,,,,,962.0551140999887,962.0716811999446,962.5566871999763,,,,,,,,,,,,,,,,,,,,,,,962.5734487998998,962.5901322999271,962.5901322999271,962.5901322999271,965.5673324998934,j,2.0398984999628738,0.1517153000459075,965.5674425999168,965.5674640999641,None,,,,,,,,,,,,,,00017,001,2026-01-20_12h09.25.940,MST_task,2024.2.0,60.065543544703324,2026-01-20 12h09.45.704892 +0530,
,Objects\009a.jpg,14,0,15,,,,,,,f,1.2860637999838218,0.18519230000674725,None,,,,,,15,0,14,965.5841671999078,,,,,,,,,,,,,,,,,,,,,,,965.5676355999894,965.5841671999078,966.0697778000031,,,,,,,,,,,,,,,,,,,,,,,966.0943910999922,966.1032741999952,966.1032741999952,966.1032741999952,969.0795488998992,f,1.2860637999838218,0.18519230000674725,969.0798849998973,969.0799005998997,None,,,,,,,,,,,,,,00017,001,2026-01-20_12h09.25.940,MST_task,2024.2.0,60.065543544703324,2026-01-20 12h09.45.704892 +0530,
,Objects\188a.jpg,15,0,16,,,,,,,f,1.9348408000078052,0.16743600007612258,None,,,,,,16,0,15,969.0961629999802,,,,,,,,,,,,,,,,,,,,,,,969.0799750000006,969.0961629999802,969.5815170999849,,,,,,,,,,,,,,,,,,,,,,,969.6037969999015,969.6147285999032,969.6147285999032,969.6147285999032,972.5924004999688,f,1.9348408000078052,0.16743600007612258,972.5924615999684,972.5924744999502,None,,,,,,,,,,,,,,00017,001,2026-01-20_12h09.25.940,MST_task,2024.2.0,60.065543544703324,2026-01-20 12h09.45.704892 +0530,
,Objects\128a.jpg,16,0,17,,,,,,,f,2.5748817999847233,0.18338670011144131,None,,,,,,17,0,16,972.608764500008,,,,,,,,,,,,,,,,,,,,,,,972.5925701999804,972.608764500008,973.0939767999807,,,,,,,,,,,,,,,,,,,,,,,973.1187695999397,973.1272803999018,973.1272803999018,973.1272803999018,976.1051057999721,f,2.5748817999847233,0.18338670011144131,976.1051695999922,976.1051840999862,None,,,,,,,,,,,,,,00017,001,2026-01-20_12h09.25.940,MST_task,2024.2.0,60.065543544703324,2026-01-20 12h09.45.704892 +0530,
,Objects\069a.jpg,17,0,18,,,,,,,j,1.869869799935259,0.18324610008858144,None,,,,,,18,0,17,976.1211779000005,,,,,,,,,,,,,,,,,,,,,,,976.1052604999859,976.1211779000005,976.606185499928,,,,,,,,,,,,,,,,,,,,,,,976.6313636999112,976.6397943999618,976.6397943999618,976.6397943999618,979.6169254999841,j,1.869869799935259,0.18324610008858144,979.6169918999076,979.6170046000043,None,,,,,,,,,,,,,,00017,001,2026-01-20_12h09.25.940,MST_task,2024.2.0,60.065543544703324,2026-01-20 12h09.45.704892 +0530,
,Objects\185a.jpg,18,0,19,,,,,,,f,2.6856489999918267,0.15168999996967614,None,,,,,,19,0,18,979.6334754999261,,,,,,,,,,,,,,,,,,,,,,,979.6170989999082,979.6334754999261,980.1185698999325,,,,,,,,,,,,,,,,,,,,,,,980.1426569999894,980.151963799959,980.151963799959,980.151963799959,983.1291146998992,f,2.6856489999918267,0.15168999996967614,983.1291978999507,983.1292191999964,None,,,,,,,,,,,,,,00017,001,2026-01-20_12h09.25.940,MST_task,2024.2.0,60.065543544703324,2026-01-20 12h09.45.704892 +0530,
,Objects\125a.jpg,19,0,20,,,,,,,None,,,f,0.13926769990939647,None,,,,20,0,19,983.1456513999728,,,,,,,,,,,,,,,,,,,,,,,983.1293434998952,983.1456513999728,983.6311749999877,,,,,,,,,,,,,,,,,,,,,,,983.6551180999959,983.6642968999222,983.6642968999222,983.6642968999222,986.6412987000076,None,,,986.641389700002,986.8090705999639,f,986.6580565999029,986.6580565999029,0.13926769990939647,None,,,,,,,,,,00017,001,2026-01-20_12h09.25.940,MST_task,2024.2.0,60.065543544703324,2026-01-20 12h09.45.704892 +0530,
,Objects\116a.jpg,20,0,21,,,,,,,j,2.3494498999789357,0.112360900035128,None,,,,,,21,0,20,986.8253293999005,,,,,,,,,,,,,,,,,,,,,,,986.8091915999539,986.8253293999005,987.310443699942,,,,,,,,,,,,,,,,,,,,,,,987.3339240999194,987.3439254999394,987.3439254999394,987.3439254999394,990.3211183999665,j,2.3494498999789357,0.112360900035128,990.321191099938,990.3212048999267,None,,,,,,,,,,,,,,00017,001,2026-01-20_12h09.25.940,MST_task,2024.2.0,60.065543544703324,2026-01-20 12h09.45.704892 +0530,
,Scenes\143a.jpg,21,0,22,,,,,,,j,2.6924952999688685,0.1519761000527069,None,,,,,,22,0,21,990.3375127000036,,,,,,,,,,,,,,,,,,,,,,,990.321296799928,990.3375127000036,990.822856899933,,,,,,,,,,,,,,,,,,,,,,,990.849716299912,990.8728510999354,990.8728510999354,990.8728510999354,993.8334155000048,j,2.6924952999688685,0.1519761000527069,993.8334715999663,993.8334839999443,None,,,,,,,,,,,,,,00017,001,2026-01-20_12h09.25.940,MST_task,2024.2.0,60.065543544703324,2026-01-20 12h09.45.704892 +0530,
,Scenes\115a.jpg,22,0,23,,,,,,,j,1.2615438000066206,0.10326300002634525,None,,,,,,23,0,22,993.8500038000057,,,,,,,,,,,,,,,,,,,,,,,993.8335797999753,993.8500038000057,994.3352037000004,,,,,,,,,,,,,,,,,,,,,,,994.3512284999015,994.3684449999128,994.3684449999128,994.3684449999128,997.3455639999593,j,1.2615438000066206,0.10326300002634525,997.3456189999124,997.3456314000068,None,,,,,,,,,,,,,,00017,001,2026-01-20_12h09.25.940,MST_task,2024.2.0,60.065543544703324,2026-01-20 12h09.45.704892 +0530,
,Scenes\018a.jpg,23,0,24,,,,,,,j,2.718018600018695,0.1595392000162974,None,,,,,,24,0,23,997.3621093999827,,,,,,,,,,,,,,,,,,,,,,,997.3457017999608,997.3621093999827,997.8474814000074,,,,,,,,,,,,,,,,,,,,,,,997.8698734999634,997.8801198999863,997.8801198999863,997.8801198999863,1000.8581460999558,j,2.718018600018695,0.1595392000162974,1000.8582046999363,1000.8582173999166,None,,,,,,,,,,,,,,00017,001,2026-01-20_12h09.25.940,MST_task,2024.2.0,60.065543544703324,2026-01-20 12h09.45.704892 +0530,
,Scenes\027a.jpg,24,0,25,,,,,,,f,2.211062700022012,0.15960050001740456,None,,,,,,25,0,24,1000.8743984999601,,,,,,,,,,,,,,,,,,,,,,,1000.8582879999885,1000.8743984999601,1001.3595989999594,,,,,,,,,,,,,,,,,,,,,,,1001.3834637999535,1001.4105871999636,1001.4105871999636,1001.4105871999636,1004.3700559999561,f,2.211062700022012,0.15960050001740456,1004.3701248998987,1004.370139000006,None,,,,,,,,,,,,,,00017,001,2026-01-20_12h09.25.940,MST_task,2024.2.0,60.065543544703324,2026-01-20 12h09.45.704892 +0530,
,Scenes\157a.jpg,25,0,26,,,,,,,j,0.9488158000167459,0.1767835000064224,None,,,,,,26,0,25,1004.3868190000067,,,,,,,,,,,,,,,,,,,,,,,1004.3702087999554,1004.3868190000067,1004.871802699985,,,,,,,,,,,,,,,,,,,,,,,1004.8939737000037,1004.9045108999126,1004.9045108999126,1004.9045108999126,1007.8830749999033,j,0.9488158000167459,0.1767835000064224,1007.8831353998976,1007.8831480999943,None,,,,,,,,,,,,,,00017,001,2026-01-20_12h09.25.940,MST_task,2024.2.0,60.065543544703324,2026-01-20 12h09.45.704892 +0530,
,Scenes\012a.jpg,26,0,27,,,,,,,j,1.2187141000758857,0.16039499989710748,None,,,,,,27,0,26,1007.8997681000037,,,,,,,,,,,,,,,,,,,,,,,1007.8832441999111,1007.8997681000037,1008.3840994999046,,,,,,,,,,,,,,,,,,,,,,,1008.4137252999935,1008.434383799904,1008.434383799904,1008.434383799904,1011.3947794999694,j,1.2187141000758857,0.16039499989710748,1011.3948375999462,1011.3948507999303,None,,,,,,,,,,,,,,00017,001,2026-01-20_12h09.25.940,MST_task,2024.2.0,60.065543544703324,2026-01-20 12h09.45.704892 +0530,
,Scenes\003a.jpg,27,0,28,,,,,,,f,2.234726200113073,0.17552289995364845,None,,,,,,28,0,27,1011.4112967998954,,,,,,,,,,,,,,,,,,,,,,,1011.3949450999498,1011.4112967998954,1011.8965015999274,,,,,,,,,,,,,,,,,,,,,,,1011.9259543999797,1011.947514200001,1011.947514200001,1011.947514200001,1014.9069708999014,f,2.234726200113073,0.17552289995364845,1014.9070292999968,1014.9070424999809,None,,,,,,,,,,,,,,00017,001,2026-01-20_12h09.25.940,MST_task,2024.2.0,60.065543544703324,2026-01-20 12h09.45.704892 +0530,
,Objects\171a.jpg,28,0,29,,,,,,,None,,,f,0.42533079988788813,None,,,,29,0,28,1014.9237206999678,,,,,,,,,,,,,,,,,,,,,,,1014.907399199903,1014.9237206999678,1015.4088946999982,,,,,,,,,,,,,,,,,,,,,,,1015.4370980999665,1015.4597577999812,1015.4597577999812,1015.4597577999812,1018.4196567999898,None,,,1018.4197264999384,1018.8712735999143,f,1018.4360510999104,1018.4360510999104,0.42533079988788813,None,,,,,,,,,,00017,001,2026-01-20_12h09.25.940,MST_task,2024.2.0,60.065543544703324,2026-01-20 12h09.45.704892 +0530,
,Objects\073a.jpg,29,0,30,,,,,,,f,1.663045300054364,0.12756569997873157,None,,,,,,30,0,29,1018.8878411999904,,,,,,,,,,,,,,,,,,,,,,,1018.8714184999699,1018.8878411999904,1019.3728280999931,,,,,,,,,,,,,,,,,,,,,,,1019.397055999958,1019.4061902998947,1019.4061902998947,1019.4061902998947,1022.3832255000016,f,1.663045300054364,0.12756569997873157,1022.3834453999298,1022.3834602999268,None,,,,,,,,,,,,,,00017,001,2026-01-20_12h09.25.940,MST_task,2024.2.0,60.065543544703324,2026-01-20 12h09.45.704892 +0530,
,Objects\022a.jpg,30,0,31,,,,,,,f,1.8955923999892548,0.15953890001401305,None,,,,,,31,0,30,1022.3997851999011,,,,,,,,,,,,,,,,,,,,,,,1022.3835530999349,1022.3997851999011,1022.8849859999027,,,,,,,,,,,,,,,,,,,,,,,1022.9092614999972,1022.9182503999909,1022.9182503999909,1022.9182503999909,1025.8954591999063,f,1.8955923999892548,0.15953890001401305,1025.8955219999189,1025.8955352999037,None,,,,,,,,,,,,,,00017,001,2026-01-20_12h09.25.940,MST_task,2024.2.0,60.065543544703324,2026-01-20 12h09.45.704892 +0530,
,Objects\032a.jpg,31,0,32,,,,,,,j,0.9979710000334308,0.16889390000142157,None,,,,,,32,0,31,1025.9121967999963,,,,,,,,,,,,,,,,,,,,,,,1025.8957708999515,1025.9121967999963,1026.397166299983,,,,,,,,,,,,,,,,,,,,,,,1026.4210423999466,1026.430958999903,1026.430958999903,1026.430958999903,1029.4079837999307,j,0.9979710000334308,0.16889390000142157,1029.4080568999052,1029.4080716999015,None,,,,,,,,,,,,,,00017,001,2026-01-20_12h09.25.940,MST_task,2024.2.0,60.065543544703324,2026-01-20 12h09.45.704892 +0530,
,Objects\014a.jpg,32,0,33,,,,,,,f,1.1504579000175,0.12053860002197325,None,,,,,,33,0,32,1029.4244029999245,,,,,,,,,,,,,,,,,,,,,,,1029.4081856999546,1029.4244029999245,1029.9096482999157,,,,,,,,,,,,,,,,,,,,,,,1029.9333311999217,1029.9428674998926,1029.9428674998926,1029.9428674998926,1032.9200717000058,f,1.1504579000175,0.12053860002197325,1032.9201397999423,1032.9201541999355,None,,,,,,,,,,,,,,00017,001,2026-01-20_12h09.25.940,MST_task,2024.2.0,60.065543544703324,2026-01-20 12h09.45.704892 +0530,
,Objects\044a.jpg,33,0,34,,,,,,,None,,,f,0.133955099969171,None,,,,34,0,33,1032.9369372999063,,,,,,,,,,,,,,,,,,,,,,,1032.9202601999277,1032.9369372999063,1033.4218455998925,,,,,,,,,,,,,,,,,,,,,,,1033.4465834998991,1033.4551357999444,1033.4551357999444,1033.4551357999444,1036.432114599971,None,,,1036.4323260999518,1036.5997277999995,f,1036.4486865999643,1036.4486865999643,0.133955099969171,None,,,,,,,,,,00017,001,2026-01-20_12h09.25.940,MST_task,2024.2.0,60.065543544703324,2026-01-20 12h09.45.704892 +0530,
,Objects\071a.jpg,34,0,35,,,,,,,j,1.7191781000001356,0.11206279997713864,None,,,,,,35,0,34,1036.6158708999865,,,,,,,,,,,,,,,,,,,,,,,1036.5998247999232,1036.6158708999865,1037.1014182999497,,,,,,,,,,,,,,,,,,,,,,,1037.124996599974,1037.1343800999457,1037.1343800999457,1037.1343800999457,1040.1116706999019,j,1.7191781000001356,0.11206279997713864,1040.1117546999594,1040.1117679999443,None,,,,,,,,,,,,,,00017,001,2026-01-20_12h09.25.940,MST_task,2024.2.0,60.065543544703324,2026-01-20 12h09.45.704892 +0530,
,Scenes\054a.jpg,35,0,36,,,,,,,j,1.5419678000034764,0.1523332999786362,None,,,,,,36,0,35,1040.1283557999413,,,,,,,,,,,,,,,,,,,,,,,1040.1118685998954,1040.1283557999413,1040.6133098999271,,,,,,,,,,,,,,,,,,,,,,,1040.6408582999138,1040.6635841999669,1040.6635841999669,1040.6635841999669,1043.6238551998977,j,1.5419678000034764,0.1523332999786362,1043.6239304000046,1043.6239437999902,None,,,,,,,,,,,,,,00017,001,2026-01-20_12h09.25.940,MST_task,2024.2.0,60.065543544703324,2026-01-20 12h09.45.704892 +0530,
,Scenes\036a.jpg,36,0,37,,,,,,,j,2.181125900009647,0.15236840001307428,None,,,,,,37,0,36,1043.640656500007,,,,,,,,,,,,,,,,,,,,,,,1043.624205,1043.640656500007,1044.1256591998972,,,,,,,,,,,,,,,,,,,,,,,1044.1471177999629,1044.1597363000037,1044.1597363000037,1044.1597363000037,1047.1362497999799,j,2.181125900009647,0.15236840001307428,1047.1363111999817,1047.1363236999605,None,,,,,,,,,,,,,,00017,001,2026-01-20_12h09.25.940,MST_task,2024.2.0,60.065543544703324,2026-01-20 12h09.45.704892 +0530,
,Scenes\094a.jpg,37,0,38,,,,,,,f,2.1826453000539914,0.16659719997551292,None,,,,,,38,0,37,1047.1528336999472,,,,,,,,,,,,,,,,,,,,,,,1047.1363943999168,1047.1528336999472,1047.638048499939,,,,,,,,,,,,,,,,,,,,,,,1047.6654361999827,1047.6881152999122,1047.6881152999122,1047.6881152999122,1050.6484300999437,f,2.1826453000539914,0.16659719997551292,1050.6484877999173,1050.6484994000057,None,,,,,,,,,,,,,,00017,001,2026-01-20_12h09.25.940,MST_task,2024.2.0,60.065543544703324,2026-01-20 12h09.45.704892 +0530,
,Scenes\171a.jpg,38,0,39,,,,,,,f,1.6125380999874324,0.17529439995996654,None,,,,,,39,0,38,1050.6652416998986,,,,,,,,,,,,,,,,,,,,,,,1050.648570499965,1050.6652416998986,1051.1502195999492,,,,,,,,,,,,,,,,,,,,,,,1051.180255999905,1051.201312399935,1051.201312399935,1051.201312399935,1054.16084399994,f,1.6125380999874324,0.17529439995996654,1054.1608982000034,1054.1609106999822,None,,,,,,,,,,,,,,00017,001,2026-01-20_12h09.25.940,MST_task,2024.2.0,60.065543544703324,2026-01-20 12h09.45.704892 +0530,
,Scenes\116a.jpg,39,0,40,,,,,,,j,2.8771263998933136,None,None,,,,,,40,0,39,1054.1774408000056,,,,,,,,,,,,,,,,,,,,,,,1054.1610093999188,1054.1774408000056,1054.6626363999676,,,,,,,,,,,,,,,,,,,,,,,1054.6849816999165,1054.6960880999686,1054.6960880999686,1054.6960880999686,1057.6731435999973,j,2.8771263998933136,None,1057.6732039999915,1057.6732171999756,None,,,,,,,,,,,,,,00017,001,2026-01-20_12h09.25.940,MST_task,2024.2.0,60.065543544703324,2026-01-20 12h09.45.704892 +0530,
,Scenes\163a.jpg,40,0,41,,,,,,,j,1.700977599946782,0.15963740006554872,None,,,,,,41,0,40,1057.6897296999814,,,,,,,,,,,,,,,,,,,,,,,1057.6733139998978,1057.6897296999814,1058.1749225999229,,,,,,,,,,,,,,,,,,,,,,,1058.1890648999251,1058.2083946999628,1058.2083946999628,1058.2083946999628,1061.18531239999,j,1.700977599946782,0.15963740006554872,1061.1853685999522,1061.1853943999158,None,,,,,,,,,,,,,,00017,001,2026-01-20_12h09.25.940,MST_task,2024.2.0,60.065543544703324,2026-01-20 12h09.45.704892 +0530,
,Scenes\111a.jpg,41,0,42,,,,,,,j,1.0691555000375956,0.12778540002182126,None,,,,,,42,0,41,1061.202154999948,,,,,,,,,,,,,,,,,,,,,,,1061.1854915999575,1061.202154999948,1061.687154199928,,,,,,,,,,,,,,,,,,,,,,,1061.7029578000074,1061.7205906999297,1061.7205906999297,1061.7205906999297,1064.6975928999018,j,1.0691555000375956,0.12778540002182126,1064.697662499966,1064.6976777999662,None,,,,,,,,,,,,,,00017,001,2026-01-20_12h09.25.940,MST_task,2024.2.0,60.065543544703324,2026-01-20 12h09.45.704892 +0530,
,Objects\015a.jpg,42,0,43,,,,,,,j,2.7561461000004783,0.11182009999174625,None,,,,,,43,0,42,1064.714449699968,,,,,,,,,,,,,,,,,,,,,,,1064.6981389999855,1064.714449699968,1065.1994162999326,,,,,,,,,,,,,,,,,,,,,,,1065.224538499955,1065.2336506999563,1065.2336506999563,1065.2336506999563,1068.2100881999359,j,2.7561461000004783,0.11182009999174625,1068.2101461999118,1068.2101588000078,None,,,,,,,,,,,,,,00017,001,2026-01-20_12h09.25.940,MST_task,2024.2.0,60.065543544703324,2026-01-20 12h09.45.704892 +0530,
,Objects\001a.jpg,43,0,44,,,,,,,f,2.6365377999609336,0.1371148000471294,None,,,,,,44,0,43,1068.226747599896,,,,,,,,,,,,,,,,,,,,,,,1068.2105363999726,1068.226747599896,1068.711858799914,,,,,,,,,,,,,,,,,,,,,,,1068.7359238999197,1068.7447191999527,1068.7447191999527,1068.7447191999527,1071.7225080999779,f,2.6365377999609336,0.1371148000471294,1071.7225752999075,1071.7225897999015,None,,,,,,,,,,,,,,00017,001,2026-01-20_12h09.25.940,MST_task,2024.2.0,60.065543544703324,2026-01-20 12h09.45.704892 +0530,
,Objects\138a.jpg,44,0,45,,,,,,,j,2.7564370000036433,0.15145120001398027,None,,,,,,45,0,44,1071.7395291998982,,,,,,,,,,,,,,,,,,,,,,,1071.7226718999445,1071.7395291998982,1072.2247234999668,,,,,,,,,,,,,,,,,,,,,,,1072.2484098999994,1072.2574941999046,1072.2574941999046,1072.2574941999046,1075.2345152999042,j,2.7564370000036433,0.15145120001398027,1075.2345918999054,1075.234608599916,None,,,,,,,,,,,,,,00017,001,2026-01-20_12h09.25.940,MST_task,2024.2.0,60.065543544703324,2026-01-20 12h09.45.704892 +0530,
,Objects\093a.jpg,45,0,46,,,,,,,j,2.179367100005038,0.16888020001351833,None,,,,,,46,0,45,1075.2515526999487,,,,,,,,,,,,,,,,,,,,,,,1075.2347041999456,1075.2515526999487,1075.7363152999897,,,,,,,,,,,,,,,,,,,,,,,1075.757680199924,1075.769800699898,1075.769800699898,1075.769800699898,1078.7469638999319,j,2.179367100005038,0.16888020001351833,1078.7470221999101,1078.7470353998942,None,,,,,,,,,,,,,,00017,001,2026-01-20_12h09.25.940,MST_task,2024.2.0,60.065543544703324,2026-01-20 12h09.45.704892 +0530,
,Objects\152a.jpg,46,0,47,,,,,,,None,,,j,0.00971360004041344,None,,,,47,0,46,1078.7635278999805,,,,,,,,,,,,,,,,,,,,,,,1078.7471256999997,1078.7635278999805,1079.248718299903,,,,,,,,,,,,,,,,,,,,,,,1079.2716942999978,1079.2819779999554,1079.2819779999554,1079.2819779999554,1082.2592247999273,None,,,1082.259278499987,1082.2933097999776,j,1082.275937999948,1082.275937999948,0.00971360004041344,None,,,,,,,,,,00017,001,2026-01-20_12h09.25.940,MST_task,2024.2.0,60.065543544703324,2026-01-20 12h09.45.704892 +0530,
,Objects\040a.jpg,47,0,48,,,,,,,f,1.1131806999910623,0.15207690000534058,None,,,,,,48,0,47,1082.3092666999437,,,,,,,,,,,,,,,,,,,,,,,1082.2934227999067,1082.3092666999437,1082.7944904000033,,,,,,,,,,,,,,,,,,,,,,,1082.8172399000032,1082.8277120999992,1082.8277120999992,1082.8277120999992,1085.8049804999027,f,1.1131806999910623,0.15207690000534058,1085.8050373999868,1085.8050497999648,None,,,,,,,,,,,,,,00017,001,2026-01-20_12h09.25.940,MST_task,2024.2.0,60.065543544703324,2026-01-20 12h09.45.704892 +0530,
,Objects\162a.jpg,48,0,49,,,,,,,f,2.649378199945204,0.11216600006446242,None,,,,,,49,0,48,1085.8215800999897,,,,,,,,,,,,,,,,,,,,,,,1085.805119699915,1085.8215800999897,1086.3067795999814,,,,,,,,,,,,,,,,,,,,,,,1086.3299526999472,1086.3400156999705,1086.3400156999705,1086.3400156999705,1089.3171572999563,f,2.649378199945204,0.11216600006446242,1089.3172287999187,1089.317241499899,None,,,,,,,,,,,,,,00017,001,2026-01-20_12h09.25.940,MST_task,2024.2.0,60.065543544703324,2026-01-20 12h09.45.704892 +0530,
,Scenes\178a.jpg,49,0,50,,,,,,,j,1.0252590000163764,0.1431452000979334,None,,,,,,50,0,49,1089.3339871999342,,,,,,,,,,,,,,,,,,,,,,,1089.3173118999694,1089.3339871999342,1089.8189913999522,,,,,,,,,,,,,,,,,,,,,,,1089.841084399959,1089.8526014999952,1089.8526014999952,1089.8526014999952,1092.8295549999457,j,1.0252590000163764,0.1431452000979334,1092.8296246998943,1092.8296370999888,None,,,,,,,,,,,,,,00017,001,2026-01-20_12h09.25.940,MST_task,2024.2.0,60.065543544703324,2026-01-20 12h09.45.704892 +0530,
,Scenes\096a.jpg,50,0,51,,,,,,,j,1.071271900087595,0.15995749994181097,None,,,,,,51,0,50,1092.846166000003,,,,,,,,,,,,,,,,,,,,,,,1092.8297053999268,1092.846166000003,1093.3314875999931,,,,,,,,,,,,,,,,,,,,,,,1093.362175899907,1093.3824003000045,1093.3824003000045,1093.3824003000045,1096.3418122999137,j,1.071271900087595,0.15995749994181097,1096.341872299905,1096.341885300004,None,,,,,,,,,,,,,,00017,001,2026-01-20_12h09.25.940,MST_task,2024.2.0,60.065543544703324,2026-01-20 12h09.45.704892 +0530,
,Scenes\112a.jpg,51,0,52,,,,,,,j,1.6950898000504822,0.12063659995328635,None,,,,,,52,0,51,1096.3585847999202,,,,,,,,,,,,,,,,,,,,,,,1096.34199049999,1096.3585847999202,1096.8436599998968,,,,,,,,,,,,,,,,,,,,,,,1096.8703993998934,1096.89492589992,1096.89492589992,1096.89492589992,1099.8543072999455,j,1.6950898000504822,0.12063659995328635,1099.8543645999162,1099.8543773998972,None,,,,,,,,,,,,,,00017,001,2026-01-20_12h09.25.940,MST_task,2024.2.0,60.065543544703324,2026-01-20 12h09.45.704892 +0530,
,Scenes\114a.jpg,52,0,53,,,,,,,j,1.8858991999877617,0.1294497000053525,None,,,,,,53,0,52,1099.8707701999228,,,,,,,,,,,,,,,,,,,,,,,1099.8544491999783,1099.8707701999228,1100.3560859999852,,,,,,,,,,,,,,,,,,,,,,,1100.3845359999686,1100.4071784999687,1100.4071784999687,1100.4071784999687,1103.3663540999405,j,1.8858991999877617,0.1294497000053525,1103.3664129999233,1103.366425499902,None,,,,,,,,,,,,,,00017,001,2026-01-20_12h09.25.940,MST_task,2024.2.0,60.065543544703324,2026-01-20 12h09.45.704892 +0530,
,Scenes\097a.jpg,53,0,54,,,,,,,j,0.79877829994075,0.14410839998163283,None,,,,,,54,0,53,1103.3831813998986,,,,,,,,,,,,,,,,,,,,,,,1103.3666924999561,1103.3831813998986,1103.868250999949,,,,,,,,,,,,,,,,,,,,,,,1103.8906722998945,1103.9024837999605,1103.9024837999605,1103.9024837999605,1106.878688699915,j,0.79877829994075,0.14410839998163283,1106.8787477998994,1106.8787616000045,None,,,,,,,,,,,,,,00017,001,2026-01-20_12h09.25.940,MST_task,2024.2.0,60.065543544703324,2026-01-20 12h09.45.704892 +0530,
,Scenes\104a.jpg,54,0,55,,,,,,,j,1.2300734999589622,0.10407080000732094,None,,,,,,55,0,54,1106.8954847999848,,,,,,,,,,,,,,,,,,,,,,,1106.8791453999002,1106.8954847999848,1107.3804394999752,,,,,,,,,,,,,,,,,,,,,,,1107.409473799984,1107.4316645999206,1107.4316645999206,1107.4316645999206,1110.3909679999342,j,1.2300734999589622,0.10407080000732094,1110.391026099911,1110.3910389998928,None,,,,,,,,,,,,,,00017,001,2026-01-20_12h09.25.940,MST_task,2024.2.0,60.065543544703324,2026-01-20 12h09.45.704892 +0530,
,Scenes\001a.jpg,55,0,56,,,,,,,f,2.0302036999491975,0.16688340005930513,None,,,,,,56,0,55,1110.4077988999197,,,,,,,,,,,,,,,,,,,,,,,1110.3911154998932,1110.4077988999197,1110.8928184999386,,,,,,,,,,,,,,,,,,,,,,,1110.9246914999094,1110.943685599952,1110.943685599952,1110.943685599952,1113.9033898999915,f,2.0302036999491975,0.16688340005930513,1113.9036111999303,1113.903625399922,None,,,,,,,,,,,,,,00017,001,2026-01-20_12h09.25.940,MST_task,2024.2.0,60.065543544703324,2026-01-20 12h09.45.704892 +0530,
,Objects\192a.jpg,56,0,57,,,,,,,f,1.061547699966468,0.144610800081864,None,,,,,,57,0,56,1113.9199597999686,,,,,,,,,,,,,,,,,,,,,,,1113.9037187999347,1113.9199597999686,1114.405180700007,,,,,,,,,,,,,,,,,,,,,,,1114.4296286999015,1114.4393574999413,1114.4393574999413,1114.4393574999413,1117.4155438999878,f,1.061547699966468,0.144610800081864,1117.4156159999548,1117.4156292999396,None,,,,,,,,,,,,,,00017,001,2026-01-20_12h09.25.940,MST_task,2024.2.0,60.065543544703324,2026-01-20 12h09.45.704892 +0530,
,Objects\031a.jpg,57,0,58,,,,,,,f,1.6541303000412881,0.16867399995680898,None,,,,,,58,0,57,1117.432372799958,,,,,,,,,,,,,,,,,,,,,,,1117.4158465999644,1117.432372799958,1117.9174460999202,,,,,,,,,,,,,,,,,,,,,,,1117.940319599933,1117.95083779993,1117.95083779993,1117.95083779993,1120.9279743999941,f,1.6541303000412881,0.16867399995680898,1120.9280570999254,1120.9280697999056,None,,,,,,,,,,,,,,00017,001,2026-01-20_12h09.25.940,MST_task,2024.2.0,60.065543544703324,2026-01-20 12h09.45.704892 +0530,
,Objects\134a.jpg,58,0,59,,,,,,,f,2.1022403000388294,0.12144259992055595,None,,,,,,59,0,58,1120.944555599941,,,,,,,,,,,,,,,,,,,,,,,1120.9281749998918,1120.944555599941,1121.4297701999312,,,,,,,,,,,,,,,,,,,,,,,1121.453725899919,1121.463006499922,1121.463006499922,1121.463006499922,1124.440159299993,f,2.1022403000388294,0.12144259992055595,1124.4402305999538,1124.440243299934,None,,,,,,,,,,,,,,00017,001,2026-01-20_12h09.25.940,MST_task,2024.2.0,60.065543544703324,2026-01-20 12h09.45.704892 +0530,
,Objects\023a.jpg,59,0,60,,,,,,,f,0.8786428000312299,0.159313999931328,None,,,,,,60,0,59,1124.4569734999677,,,,,,,,,,,,,,,,,,,,,,,1124.440342499991,1124.4569734999677,1124.941943099955,,,,,,,,,,,,,,,,,,,,,,,1124.965701899957,1124.9754117999692,1124.9754117999692,1124.9754117999692,1127.9525726999855,f,0.8786428000312299,0.159313999931328,1127.952649999992,1127.9526667000027,None,,,,,,,,,,,,,,00017,001,2026-01-20_12h09.25.940,MST_task,2024.2.0,60.065543544703324,2026-01-20 12h09.45.704892 +0530,
,Objects\065a.jpg,60,0,61,,,,,,,f,2.6698645000578836,0.11370190000161529,None,,,,,,61,0,60,1127.9691638000077,,,,,,,,,,,,,,,,,,,,,,,1127.9527418999933,1127.9691638000077,1128.4543799998937,,,,,,,,,,,,,,,,,,,,,,,1128.4765750999795,1128.4876043999102,1128.4876043999102,1128.4876043999102,1131.4647634999128,f,2.6698645000578836,0.11370190000161529,1131.464820699999,1131.4648342999863,None,,,,,,,,,,,,,,00017,001,2026-01-20_12h09.25.940,MST_task,2024.2.0,60.065543544703324,2026-01-20 12h09.45.704892 +0530,
,Objects\019a.jpg,61,0,62,,,,,,,f,1.1901564999716356,0.13518680003471673,None,,,,,,62,0,61,1131.4815778000047,,,,,,,,,,,,,,,,,,,,,,,1131.4649734999985,1131.4815778000047,1131.966557799955,,,,,,,,,,,,,,,,,,,,,,,1131.989752399968,1132.0000269999728,1132.0000269999728,1132.0000269999728,1134.9771863999777,f,1.1901564999716356,0.13518680003471673,1134.9772418999346,1134.9772546999156,None,,,,,,,,,,,,,,00017,001,2026-01-20_12h09.25.940,MST_task,2024.2.0,60.065543544703324,2026-01-20 12h09.45.704892 +0530,
,Objects\017a.jpg,62,0,63,,,,,,,f,2.2143967000301927,0.1269752000225708,None,,,,,,63,0,62,1134.9938671999844,,,,,,,,,,,,,,,,,,,,,,,1134.9775087999878,1134.9938671999844,1135.4788402999984,,,,,,,,,,,,,,,,,,,,,,,1135.502601999906,1135.5123136999318,1135.5123136999318,1135.5123136999318,1138.489696699893,f,2.2143967000301927,0.1269752000225708,1138.489923999994,1138.489937699982,None,,,,,,,,,,,,,,00017,001,2026-01-20_12h09.25.940,MST_task,2024.2.0,60.065543544703324,2026-01-20 12h09.45.704892 +0530,
,Scenes\133a.jpg,63,0,64,,,,,,,j,0.8269755999790505,0.11218019993975759,None,,,,,,64,0,63,1138.5060589999193,,,,,,,,,,,,,,,,,,,,,,,1138.4900114999618,1138.5060589999193,1138.9912648999598,,,,,,,,,,,,,,,,,,,,,,,1139.017780299997,1139.0420670999447,1139.0420670999447,1139.0420670999447,1142.0017562999856,j,0.8269755999790505,0.11218019993975759,1142.0020933999913,1142.0021074999822,None,,,,,,,,,,,,,,00017,001,2026-01-20_12h09.25.940,MST_task,2024.2.0,60.065543544703324,2026-01-20 12h09.45.704892 +0530,
,Scenes\040a.jpg,64,0,65,,,,,,,f,1.3551896999124438,0.1450505000539124,None,,,,,,65,0,64,1142.0183614999987,,,,,,,,,,,,,,,,,,,,,,,1142.0022013999987,1142.0183614999987,1142.503577399999,,,,,,,,,,,,,,,,,,,,,,,1142.52983949997,1142.5537652999628,1142.5537652999628,1142.5537652999628,1145.5140832999023,f,1.3551896999124438,0.1450505000539124,1145.5141397999832,1145.5141523999628,None,,,,,,,,,,,,,,00017,001,2026-01-20_12h09.25.940,MST_task,2024.2.0,60.065543544703324,2026-01-20 12h09.45.704892 +0530,
,Scenes\081a.jpg,65,0,66,,,,,,,j,0.9157666999381036,0.11211159999947995,None,,,,,,66,0,65,1145.5307696999516,,,,,,,,,,,,,,,,,,,,,,,1145.5142478999915,1145.5307696999516,1146.015775399981,,,,,,,,,,,,,,,,,,,,,,,1146.0374215999618,1146.0490975999273,1146.0490975999273,1146.0490975999273,1149.02624009992,j,0.9157666999381036,0.11211159999947995,1149.0262943999842,1149.0263071999652,None,,,,,,,,,,,,,,00017,001,2026-01-20_12h09.25.940,MST_task,2024.2.0,60.065543544703324,2026-01-20 12h09.45.704892 +0530,
,Scenes\106a.jpg,66,0,67,,,,,,,j,2.6031229000072926,0.11201020004227757,None,,,,,,67,0,66,1149.0430771999527,,,,,,,,,,,,,,,,,,,,,,,1149.0265631999355,1149.0430771999527,1149.5280408998951,,,,,,,,,,,,,,,,,,,,,,,1149.5467687000055,1149.5616447000066,1149.5616447000066,1149.5616447000066,1152.5385692999698,j,2.6031229000072926,0.11201020004227757,1152.538637099904,1152.5386495999992,None,,,,,,,,,,,,,,00017,001,2026-01-20_12h09.25.940,MST_task,2024.2.0,60.065543544703324,2026-01-20 12h09.45.704892 +0530,
,Scenes\058a.jpg,67,0,68,,,,,,,f,1.6518508000299335,0.12750219996087253,None,,,,,,68,0,67,1152.5553722999757,,,,,,,,,,,,,,,,,,,,,,,1152.5390236999374,1152.5553722999757,1153.040347800008,,,,,,,,,,,,,,,,,,,,,,,1153.0580132999457,1153.0738075999543,1153.0738075999543,1153.0738075999543,1156.0509925999213,f,1.6518508000299335,0.12750219996087253,1156.0510627999902,1156.051079900004,None,,,,,,,,,,,,,,00017,001,2026-01-20_12h09.25.940,MST_task,2024.2.0,60.065543544703324,2026-01-20 12h09.45.704892 +0530,
,Scenes\147a.jpg,68,0,69,,,,,,,j,0.947044700034894,0.2241587999742478,None,,,,,,69,0,68,1156.0675411999691,,,,,,,,,,,,,,,,,,,,,,,1156.0511712000007,1156.0675411999691,1156.5527709999587,,,,,,,,,,,,,,,,,,,,,,,1156.5758964999113,1156.5859408999095,1156.5859408999095,1156.5859408999095,1159.5633894999046,j,0.947044700034894,0.2241587999742478,1159.5634416999528,1159.5634538999293,None,,,,,,,,,,,,,,00017,001,2026-01-20_12h09.25.940,MST_task,2024.2.0,60.065543544703324,2026-01-20 12h09.45.704892 +0530,
,Scenes\021a.jpg,69,0,70,,,,,,,j,1.7228576000779867,0.11913759994786233,None,,,,,,70,0,69,1159.5799755000044,,,,,,,,,,,,,,,,,,,,,,,1159.5635436999146,1159.5799755000044,1160.06507459993,,,,,,,,,,,,,,,,,,,,,,,1160.0927328999387,1160.1151398000075,1160.1151398000075,1160.1151398000075,1163.0754912999691,j,1.7228576000779867,0.11913759994786233,1163.075838599936,1163.0758529999293,None,,,,,,,,,,,,,,00017,001,2026-01-20_12h09.25.940,MST_task,2024.2.0,60.065543544703324,2026-01-20 12h09.45.704892 +0530,
,Objects\173a.jpg,70,0,71,,,,,,,None,,,j,0.32030809996649623,None,,,,71,0,70,1163.092171599972,,,,,,,,,,,,,,,,,,,,,,,1163.0759250998963,1163.092171599972,1163.5772252999013,,,,,,,,,,,,,,,,,,,,,,,1163.6025374999736,1163.610768699902,1163.610768699902,1163.610768699902,1166.5877428998938,None,,,1166.587805799907,1166.9401509999298,j,1166.6045605998952,1166.6045605998952,0.32030809996649623,None,,,,,,,,,,00017,001,2026-01-20_12h09.25.940,MST_task,2024.2.0,60.065543544703324,2026-01-20 12h09.45.704892 +0530,
,Objects\129a.jpg,71,0,72,,,,,,,f,1.5947355999378487,0.08832610002718866,None,,,,,,72,0,71,1166.9558238999452,,,,,,,,,,,,,,,,,,,,,,,1166.940298600006,1166.9558238999452,1167.4410748999799,,,,,,,,,,,,,,,,,,,,,,,1167.4641718999483,1167.4741255999543,1167.4741255999543,1167.4741255999543,1170.4512958999258,f,1.5947355999378487,0.08832610002718866,1170.4513580999337,1170.451372499927,None,,,,,,,,,,,,,,00017,001,2026-01-20_12h09.25.940,MST_task,2024.2.0,60.065543544703324,2026-01-20 12h09.45.704892 +0530,
,Objects\147a.jpg,72,0,73,,,,,,,f,1.8744870000518858,0.1764279999770224,None,,,,,,73,0,72,1170.468609499978,,,,,,,,,,,,,,,,,,,,,,,1170.451469499967,1170.468609499978,1170.9531777999364,,,,,,,,,,,,,,,,,,,,,,,1170.9775468999287,1170.986557599972,1170.986557599972,1170.986557599972,1173.9637252999237,f,1.8744870000518858,0.1764279999770224,1173.9638028999325,1173.963815099909,None,,,,,,,,,,,,,,00017,001,2026-01-20_12h09.25.940,MST_task,2024.2.0,60.065543544703324,2026-01-20 12h09.45.704892 +0530,
,Objects\127a.jpg,73,0,74,,,,,,,j,1.2670813000295311,0.11930879997089505,None,,,,,,74,0,73,1173.9802764999913,,,,,,,,,,,,,,,,,,,,,,,1173.9638852999778,1173.9802764999913,1174.4654899999732,,,,,,,,,,,,,,,,,,,,,,,1174.4879723999184,1174.4988561999053,1174.4988561999053,1174.4988561999053,1177.476053899969,j,1.2670813000295311,0.11930879997089505,1177.4761116999434,1177.4761243999237,None,,,,,,,,,,,,,,00017,001,2026-01-20_12h09.25.940,MST_task,2024.2.0,60.065543544703324,2026-01-20 12h09.45.704892 +0530,
,Objects\105a.jpg,74,0,75,,,,,,,f,1.1942815999500453,0.12885049998294562,None,,,,,,75,0,74,1177.4927043999778,,,,,,,,,,,,,,,,,,,,,,,1177.476457899902,1177.4927043999778,1177.9776663999073,,,,,,,,,,,,,,,,,,,,,,,1177.9986493999604,1178.0111549999565,1178.0111549999565,1178.0111549999565,1180.988285599975,f,1.1942815999500453,0.12885049998294562,1180.9885020999936,1180.9885148999747,None,,,,,,,,,,,,,,00017,001,2026-01-20_12h09.25.940,MST_task,2024.2.0,60.065543544703324,2026-01-20 12h09.45.704892 +0530,
,Objects\115a.jpg,75,0,76,,,,,,,f,1.2743139000376686,0.12005469994619489,None,,,,,,76,0,75,1181.0049909999361,,,,,,,,,,,,,,,,,,,,,,,1180.9885900999652,1181.0049909999361,1181.490071899956,,,,,,,,,,,,,,,,,,,,,,,1181.5134393000044,1181.5233363999287,1181.5233363999287,1181.5233363999287,1184.5004832999548,f,1.2743139000376686,0.12005469994619489,1184.50053989992,1184.5005529999034,None,,,,,,,,,,,,,,00017,001,2026-01-20_12h09.25.940,MST_task,2024.2.0,60.065543544703324,2026-01-20 12h09.45.704892 +0530,
,Objects\003a.jpg,76,0,77,,,,,,,j,1.665749799925834,0.10439220000989735,None,,,,,,77,0,76,1184.5172996999463,,,,,,,,,,,,,,,,,,,,,,,1184.5006478999276,1184.5172996999463,1185.0024169998942,,,,,,,,,,,,,,,,,,,,,,,1185.0253325999947,1185.035875099944,1185.035875099944,1185.035875099944,1188.0127596999519,j,1.665749799925834,0.10439220000989735,1188.012815499911,1188.0128279000055,None,,,,,,,,,,,,,,00017,001,2026-01-20_12h09.25.940,MST_task,2024.2.0,60.065543544703324,2026-01-20 12h09.45.704892 +0530,
,Scenes\146a.jpg,77,0,78,,,,,,,j,1.3922460000030696,0.15260799997486174,None,,,,,,78,0,77,1188.0295983999968,,,,,,,,,,,,,,,,,,,,,,,1188.0128994999686,1188.0295983999968,1188.5145559998928,,,,,,,,,,,,,,,,,,,,,,,1188.5417002999457,1188.5648729999084,1188.5648729999084,1188.5648729999084,1191.5250647999346,j,1.3922460000030696,0.15260799997486174,1191.5251224999083,1191.5251355000073,None,,,,,,,,,,,,,,00017,001,2026-01-20_12h09.25.940,MST_task,2024.2.0,60.065543544703324,2026-01-20 12h09.45.704892 +0530,
,Scenes\109a.jpg,78,0,79,,,,,,,j,1.7685157000087202,0.11988829995971173,None,,,,,,79,0,78,1191.5418894999893,,,,,,,,,,,,,,,,,,,,,,,1191.525231199921,1191.5418894999893,1192.0268642999,,,,,,,,,,,,,,,,,,,,,,,1192.050133099896,1192.0608731999528,1192.0608731999528,1192.0608731999528,1195.0373713999288,j,1.7685157000087202,0.11988829995971173,1195.0374480999308,1195.0374615999172,None,,,,,,,,,,,,,,00017,001,2026-01-20_12h09.25.940,MST_task,2024.2.0,60.065543544703324,2026-01-20 12h09.45.704892 +0530,
,Scenes\136a.jpg,79,0,80,,,,,,,f,1.2004584999522194,0.1359966000309214,None,,,,,,80,0,79,1195.0541890999302,,,,,,,,,,,,,,,,,,,,,,,1195.0375342000043,1195.0541890999302,1195.539177599945,,,,,,,,,,,,,,,,,,,,,,,1195.5625888999784,1195.5892331999494,1195.5892331999494,1195.5892331999494,1198.5498266000068,f,1.2004584999522194,0.1359966000309214,1198.5498878000071,1198.5499005999882,None,,,,,,,,,,,,,,00017,001,2026-01-20_12h09.25.940,MST_task,2024.2.0,60.065543544703324,2026-01-20 12h09.45.704892 +0530,
,Scenes\191a.jpg,80,0,81,,,,,,,j,1.4484918999951333,0.12006149999797344,None,,,,,,81,0,80,1198.5663776999572,,,,,,,,,,,,,,,,,,,,,,,1198.5499978999142,1198.5663776999572,1199.0517195999855,,,,,,,,,,,,,,,,,,,,,,,1199.073971799924,1199.0848139999434,1199.0848139999434,1199.0848139999434,1202.0621903999709,j,1.4484918999951333,0.12006149999797344,1202.0622446999187,1202.0622568998951,None,,,,,,,,,,,,,,00017,001,2026-01-20_12h09.25.940,MST_task,2024.2.0,60.065543544703324,2026-01-20 12h09.45.704892 +0530,
,Scenes\023a.jpg,81,0,82,,,,,,,f,2.3581091000232846,0.11180879990570247,None,,,,,,82,0,81,1202.0786564999726,,,,,,,,,,,,,,,,,,,,,,,1202.0623310999945,1202.0786564999726,1202.5638658999233,,,,,,,,,,,,,,,,,,,,,,,1202.5962559999898,1202.614841899951,1202.614841899951,1202.614841899951,1205.5747380999383,f,2.3581091000232846,0.11180879990570247,1205.5748143999372,1205.5748283999274,None,,,,,,,,,,,,,,00017,001,2026-01-20_12h09.25.940,MST_task,2024.2.0,60.065543544703324,2026-01-20 12h09.45.704892 +0530,
,Scenes\007a.jpg,82,0,83,,,,,,,f,1.7904019999550655,0.11192510009277612,None,,,,,,83,0,82,1205.5912570999935,,,,,,,,,,,,,,,,,,,,,,,1205.5749215999385,1205.5912570999935,1206.0760945999064,,,,,,,,,,,,,,,,,,,,,,,1206.100480999914,1206.1272016000003,1206.1272016000003,1206.1272016000003,1209.0868456999306,f,1.7904019999550655,0.11192510009277612,1209.0869011000032,1209.0869137999834,None,,,,,,,,,,,,,,00017,001,2026-01-20_12h09.25.940,MST_task,2024.2.0,60.065543544703324,2026-01-20 12h09.45.704892 +0530,
,Scenes\077a.jpg,83,0,84,,,,,,,j,1.1644175000255927,0.12157009996008128,None,,,,,,84,0,83,1209.1034318999154,,,,,,,,,,,,,,,,,,,,,,,1209.086999699939,1209.1034318999154,1209.5886715999804,,,,,,,,,,,,,,,,,,,,,,,1209.6125869998941,1209.6408152999356,1209.6408152999356,1209.6408152999356,1212.5990444999188,j,1.1644175000255927,0.12157009996008128,1212.5991159999976,1212.5991289999802,None,,,,,,,,,,,,,,00017,001,2026-01-20_12h09.25.940,MST_task,2024.2.0,60.065543544703324,2026-01-20 12h09.45.704892 +0530,
,Objects\142a.jpg,84,0,85,,,,,,,f,1.4709178999764845,0.13659230002667755,None,,,,,,85,0,84,1212.6156805999344,,,,,,,,,,,,,,,,,,,,,,,1212.599204899976,1212.6156805999344,1213.100652199937,,,,,,,,,,,,,,,,,,,,,,,1213.1254005999072,1213.1348638999043,1213.1348638999043,1213.1348638999043,1216.1114513999783,f,1.4709178999764845,0.13659230002667755,1216.1115181999048,1216.1115303999977,None,,,,,,,,,,,,,,00017,001,2026-01-20_12h09.25.940,MST_task,2024.2.0,60.065543544703324,2026-01-20 12h09.45.704892 +0530,
,Objects\006a.jpg,85,0,86,,,,,,,f,2.2147997999563813,0.16122970008291304,None,,,,,,86,0,85,1216.1278587999986,,,,,,,,,,,,,,,,,,,,,,,1216.1116251999047,1216.1278587999986,1216.613321899902,,,,,,,,,,,,,,,,,,,,,,,1216.6379296999658,1216.6463042999385,1216.6463042999385,1216.6463042999385,1219.6236004999373,f,2.2147997999563813,0.16122970008291304,1219.623655400006,1219.6236691999948,None,,,,,,,,,,,,,,00017,001,2026-01-20_12h09.25.940,MST_task,2024.2.0,60.065543544703324,2026-01-20 12h09.45.704892 +0530,
,Objects\047a.jpg,86,0,87,,,,,,,f,0.655084399972111,0.1110522000817582,None,,,,,,87,0,86,1219.6402987999609,,,,,,,,,,,,,,,,,,,,,,,1219.623741999967,1219.6402987999609,1220.1252520999406,,,,,,,,,,,,,,,,,,,,,,,1220.1483032999095,1220.1587291999022,1220.1587291999022,1220.1587291999022,1223.135787599953,f,0.655084399972111,0.1110522000817582,1223.1358560998924,1223.1358711000066,None,,,,,,,,,,,,,,00017,001,2026-01-20_12h09.25.940,MST_task,2024.2.0,60.065543544703324,2026-01-20 12h09.45.704892 +0530,
,Objects\085a.jpg,87,0,88,,,,,,,f,2.12654950004071,0.13585510000120848,None,,,,,,88,0,87,1223.1525779999793,,,,,,,,,,,,,,,,,,,,,,,1223.1359666999197,1223.1525779999793,1223.637553999899,,,,,,,,,,,,,,,,,,,,,,,1223.6624950999394,1223.6710630999878,1223.6710630999878,1223.6710630999878,1226.6481665999163,f,2.12654950004071,0.13585510000120848,1226.6482207999798,1226.6482331999578,None,,,,,,,,,,,,,,00017,001,2026-01-20_12h09.25.940,MST_task,2024.2.0,60.065543544703324,2026-01-20 12h09.45.704892 +0530,
,Objects\024a.jpg,88,0,89,,,,,,,f,2.1743371000047773,0.14430280006490648,None,,,,,,89,0,88,1226.664768599905,,,,,,,,,,,,,,,,,,,,,,,1226.6483257999644,1226.664768599905,1227.1500635999255,,,,,,,,,,,,,,,,,,,,,,,1227.173495199997,1227.1832229999127,1227.1832229999127,1227.1832229999127,1230.1603564999532,f,2.1743371000047773,0.14430280006490648,1230.1604104998987,1230.1604222999886,None,,,,,,,,,,,,,,00017,001,2026-01-20_12h09.25.940,MST_task,2024.2.0,60.065543544703324,2026-01-20 12h09.45.704892 +0530,
,Objects\037a.jpg,89,0,90,,,,,,,j,1.3581259000347927,0.11144219990819693,None,,,,,,90,0,89,1230.1771878999425,,,,,,,,,,,,,,,,,,,,,,,1230.1605180999031,1230.1771878999425,1230.6621687998995,,,,,,,,,,,,,,,,,,,,,,,1230.6865761999507,1230.695624899934,1230.695624899934,1230.695624899934,1233.6729768000077,j,1.3581259000347927,0.11144219990819693,1233.6730388998985,1233.6730526000028,None,,,,,,,,,,,,,,00017,001,2026-01-20_12h09.25.940,MST_task,2024.2.0,60.065543544703324,2026-01-20 12h09.45.704892 +0530,
,Objects\165a.jpg,90,0,91,,,,,,,f,0.7658140000421554,0.1599537000292912,None,,,,,,91,0,90,1233.689373799949,,,,,,,,,,,,,,,,,,,,,,,1233.673154899967,1233.689373799949,1234.1745712999254,,,,,,,,,,,,,,,,,,,,,,,1234.1969438999658,1234.2078077999176,1234.2078077999176,1234.2078077999176,1237.1849539999384,f,0.7658140000421554,0.1599537000292912,1237.1850349999731,1237.1850688999984,None,,,,,,,,,,,,,,00017,001,2026-01-20_12h09.25.940,MST_task,2024.2.0,60.065543544703324,2026-01-20 12h09.45.704892 +0530,
,Scenes\032a.jpg,91,0,92,,,,,,,j,0.8829815000062808,0.17636569996830076,None,,,,,,92,0,91,1237.2017871999415,,,,,,,,,,,,,,,,,,,,,,,1237.1854528998956,1237.2017871999415,1237.6867568999296,,,,,,,,,,,,,,,,,,,,,,,1237.7173864999786,1237.7380859999685,1237.7380859999685,1237.7380859999685,1240.6973124999786,j,0.8829815000062808,0.17636569996830076,1240.6973717999645,1240.69738519995,None,,,,,,,,,,,,,,00017,001,2026-01-20_12h09.25.940,MST_task,2024.2.0,60.065543544703324,2026-01-20 12h09.45.704892 +0530,
,Scenes\127a.jpg,92,0,93,,,,,,,j,1.3549097999930382,0.12001209997106344,None,,,,,,93,0,92,1240.7140886998968,,,,,,,,,,,,,,,,,,,,,,,1240.6974598999368,1240.7140886998968,1241.1990408999845,,,,,,,,,,,,,,,,,,,,,,,1241.2264256000053,1241.2499015999492,1241.2499015999492,1241.2499015999492,1244.209831199958,j,1.3549097999930382,0.12001209997106344,1244.2098956999835,1244.2099079999607,None,,,,,,,,,,,,,,00017,001,2026-01-20_12h09.25.940,MST_task,2024.2.0,60.065543544703324,2026-01-20 12h09.45.704892 +0530,
,Scenes\187a.jpg,93,0,94,,,,,,,j,1.426227799966,0.12007449998054653,None,,,,,,94,0,93,1244.226428099908,,,,,,,,,,,,,,,,,,,,,,,1244.210004099994,1244.226428099908,1244.7116168999346,,,,,,,,,,,,,,,,,,,,,,,1244.7363459999906,1244.7629242999246,1244.7629242999246,1244.7629242999246,1247.7219607000006,j,1.426227799966,0.12007449998054653,1247.7220199999865,1247.7220323999645,None,,,,,,,,,,,,,,00017,001,2026-01-20_12h09.25.940,MST_task,2024.2.0,60.065543544703324,2026-01-20 12h09.45.704892 +0530,
,Scenes\050a.jpg,94,0,95,,,,,,,j,0.8124425000278279,0.11195269995369017,None,,,,,,95,0,94,1247.7392654999858,,,,,,,,,,,,,,,,,,,,,,,1247.7221040999284,1247.7392654999858,1248.2236770999152,,,,,,,,,,,,,,,,,,,,,,,1248.247383399983,1248.2570804998977,1248.2570804998977,1248.2570804998977,1251.234313699999,j,0.8124425000278279,0.11195269995369017,1251.234370399965,1251.2343832999468,None,,,,,,,,,,,,,,00017,001,2026-01-20_12h09.25.940,MST_task,2024.2.0,60.065543544703324,2026-01-20 12h09.45.704892 +0530,
,Scenes\141a.jpg,95,0,96,,,,,,,j,1.3731052000075579,0.15069299994502217,None,,,,,,96,0,95,1251.2511464999989,,,,,,,,,,,,,,,,,,,,,,,1251.2344811999938,1251.2511464999989,1251.735948299989,,,,,,,,,,,,,,,,,,,,,,,1251.7580244999845,1251.7695311999414,1251.7695311999414,1251.7695311999414,1254.7464852998964,j,1.3731052000075579,0.15069299994502217,1254.746541999979,1254.746555599966,None,,,,,,,,,,,,,,00017,001,2026-01-20_12h09.25.940,MST_task,2024.2.0,60.065543544703324,2026-01-20 12h09.45.704892 +0530,
,Scenes\024a.jpg,96,0,97,,,,,,,j,0.8590000999392942,0.12871169997379184,None,,,,,,97,0,96,1254.7634180999594,,,,,,,,,,,,,,,,,,,,,,,1254.7469328999287,1254.7634180999594,1255.2483037000056,,,,,,,,,,,,,,,,,,,,,,,1255.2751240999205,1255.2983224999625,1255.2983224999625,1255.2983224999625,1258.2594312999863,j,0.8590000999392942,0.12871169997379184,1258.2594873999478,1258.2595002999296,None,,,,,,,,,,,,,,00017,001,2026-01-20_12h09.25.940,MST_task,2024.2.0,60.065543544703324,2026-01-20 12h09.45.704892 +0530,
,Scenes\182a.jpg,97,0,98,,,,,,,j,1.043267700006254,0.1593388000037521,None,,,,,,98,0,97,1258.2760894999374,,,,,,,,,,,,,,,,,,,,,,,1258.2596002999926,1258.2760894999374,1258.7607098999433,,,,,,,,,,,,,,,,,,,,,,,1258.7852244999958,1258.8113179999636,1258.8113179999636,1258.8113179999636,1261.7712164999684,j,1.043267700006254,0.1593388000037521,1261.7712710999185,1261.7712842999026,None,,,,,,,,,,,,,,00017,001,2026-01-20_12h09.25.940,MST_task,2024.2.0,60.065543544703324,2026-01-20 12h09.45.704892 +0530,
,Objects\053a.jpg,98,0,99,,,,,,,f,1.098735100007616,0.15273259999230504,None,,,,,,99,0,98,1261.7877544999355,,,,,,,,,,,,,,,,,,,,,,,1261.7713658999419,1261.7877544999355,1262.2731371999253,,,,,,,,,,,,,,,,,,,,,,,1262.2994071999565,1262.3063281999202,1262.3063281999202,1262.3063281999202,1265.2845648999792,f,1.098735100007616,0.15273259999230504,1265.2846404999727,1265.2846546999644,None,,,,,,,,,,,,,,00017,001,2026-01-20_12h09.25.940,MST_task,2024.2.0,60.065543544703324,2026-01-20 12h09.45.704892 +0530,
,Objects\121a.jpg,99,0,100,,,,,,,f,1.4423867999576032,0.12792060000356287,None,,,,,,100,0,99,1265.3004549999023,,,,,,,,,,,,,,,,,,,,,,,1265.2847604999552,1265.3004549999023,1265.7852655999595,,,,,,,,,,,,,,,,,,,,,,,1265.8092183999252,1265.818500299938,1265.818500299938,1265.818500299938,1268.7956431999337,f,1.4423867999576032,0.12792060000356287,1268.7956966999918,1268.7957091999706,None,,,,,,,,,,,,,,00017,001,2026-01-20_12h09.25.940,MST_task,2024.2.0,60.065543544703324,2026-01-20 12h09.45.704892 +0530,
,Objects\049a.jpg,100,0,101,,,,,,,f,1.8185587999178097,0.11148550000507385,None,,,,,,101,0,100,1268.812479599961,,,,,,,,,,,,,,,,,,,,,,,1268.7957941999193,1268.812479599961,1269.297455299995,,,,,,,,,,,,,,,,,,,,,,,1269.3191957999952,1269.3309194999747,1269.3309194999747,1269.3309194999747,1272.3081061999546,f,1.8185587999178097,0.11148550000507385,1272.308163199923,1272.3081757999025,None,,,,,,,,,,,,,,00017,001,2026-01-20_12h09.25.940,MST_task,2024.2.0,60.065543544703324,2026-01-20 12h09.45.704892 +0530,
,Objects\157a.jpg,101,0,102,,,,,,,f,1.274331699940376,0.1278188000433147,None,,,,,,102,0,101,1272.3247392999474,,,,,,,,,,,,,,,,,,,,,,,1272.3082471999805,1272.3247392999474,1272.809855600004,,,,,,,,,,,,,,,,,,,,,,,1272.832526299986,1272.8431029999629,1272.8431029999629,1272.8431029999629,1275.8204018999822,f,1.274331699940376,0.1278188000433147,1275.8204700999195,1275.8204823998967,None,,,,,,,,,,,,,,00017,001,2026-01-20_12h09.25.940,MST_task,2024.2.0,60.065543544703324,2026-01-20 12h09.45.704892 +0530,
,Objects\066a.jpg,102,0,103,,,,,,,f,2.2982582000549883,0.14307240000925958,None,,,,,,103,0,102,1275.8373073999537,,,,,,,,,,,,,,,,,,,,,,,1275.8207350999583,1275.8373073999537,1276.3220227999846,,,,,,,,,,,,,,,,,,,,,,,1276.3479541999986,1276.3554655999178,1276.3554655999178,1276.3554655999178,1279.3326838999055,f,2.2982582000549883,0.14307240000925958,1279.3327381999698,1279.3327772999182,None,,,,,,,,,,,,,,00017,001,2026-01-20_12h09.25.940,MST_task,2024.2.0,60.065543544703324,2026-01-20 12h09.45.704892 +0530,
,Objects\004a.jpg,103,0,104,,,,,,,f,1.8819108000025153,0.1760453999741003,None,,,,,,104,0,103,1279.3492581999162,,,,,,,,,,,,,,,,,,,,,,,1279.332848799997,1279.3492581999162,1279.8344543999992,,,,,,,,,,,,,,,,,,,,,,,1279.8592784999637,1279.867708100006,1279.867708100006,1279.867708100006,1282.8448460999643,f,1.8819108000025153,0.1760453999741003,1282.8449032999342,1282.844916199916,None,,,,,,,,,,,,,,00017,001,2026-01-20_12h09.25.940,MST_task,2024.2.0,60.065543544703324,2026-01-20 12h09.45.704892 +0530,
,Objects\187a.jpg,104,0,105,,,,,,,f,0.7933396999724209,0.1435424000956118,None,,,,,,105,0,104,1282.861667899997,,,,,,,,,,,,,,,,,,,,,,,1282.8449870999902,1282.861667899997,1283.346820799983,,,,,,,,,,,,,,,,,,,,,,,1283.3699428999098,1283.3802316999063,1283.3802316999063,1283.3802316999063,1286.3572492999956,f,0.7933396999724209,0.1435424000956118,1286.3573054999579,1286.357318699942,None,,,,,,,,,,,,,,00017,001,2026-01-20_12h09.25.940,MST_task,2024.2.0,60.065543544703324,2026-01-20 12h09.45.704892 +0530,
,Scenes\093a.jpg,105,0,106,,,,,,,f,1.0724960999796167,0.14321110001765192,None,,,,,,106,0,105,1286.3738372999942,,,,,,,,,,,,,,,,,,,,,,,1286.3574103999417,1286.3738372999942,1286.8592300999444,,,,,,,,,,,,,,,,,,,,,,,1286.8846207999159,1286.909033899894,1286.909033899894,1286.909033899894,1289.8697373999748,f,1.0724960999796167,0.14321110001765192,1289.8698029998923,1289.8698155999882,None,,,,,,,,,,,,,,00017,001,2026-01-20_12h09.25.940,MST_task,2024.2.0,60.065543544703324,2026-01-20 12h09.45.704892 +0530,
,Scenes\126a.jpg,106,0,107,,,,,,,j,1.1202551999595016,0.15960779995657504,None,,,,,,107,0,106,1289.886139899958,,,,,,,,,,,,,,,,,,,,,,,1289.8699089000002,1289.886139899958,1290.3713628998958,,,,,,,,,,,,,,,,,,,,,,,1290.398384399945,1290.4214275999693,1290.4214275999693,1290.4214275999693,1293.3818766999757,j,1.1202551999595016,0.15960779995657504,1293.3819318999304,1293.3819454999175,None,,,,,,,,,,,,,,00017,001,2026-01-20_12h09.25.940,MST_task,2024.2.0,60.065543544703324,2026-01-20 12h09.45.704892 +0530,
,Scenes\009a.jpg,107,0,108,,,,,,,j,1.279155099997297,0.13521670002955943,None,,,,,,108,0,107,1293.3992702999385,,,,,,,,,,,,,,,,,,,,,,,1293.3820554999402,1293.3992702999385,1293.8836465999484,,,,,,,,,,,,,,,,,,,,,,,1293.9141854000045,1293.9347823999124,1293.9347823999124,1293.9347823999124,1296.8940324999858,j,1.279155099997297,0.13521670002955943,1296.894123599981,1296.894139799988,None,,,,,,,,,,,,,,00017,001,2026-01-20_12h09.25.940,MST_task,2024.2.0,60.065543544703324,2026-01-20 12h09.45.704892 +0530,
,Scenes\183a.jpg,108,0,109,,,,,,,f,1.1039663000265136,0.13653210003394634,None,,,,,,109,0,108,1296.9109719999833,,,,,,,,,,,,,,,,,,,,,,,1296.8944967999123,1296.9109719999833,1297.395836599986,,,,,,,,,,,,,,,,,,,,,,,1297.423722699983,1297.4459064999828,1297.4459064999828,1297.4459064999828,1300.4066166999983,f,1.1039663000265136,0.13653210003394634,1300.4068138999864,1300.4068277999759,None,,,,,,,,,,,,,,00017,001,2026-01-20_12h09.25.940,MST_task,2024.2.0,60.065543544703324,2026-01-20 12h09.45.704892 +0530,
,Scenes\108a.jpg,109,0,110,,,,,,,j,2.8777623999631032,None,None,,,,,,110,0,109,1300.423043299932,,,,,,,,,,,,,,,,,,,,,,,1300.4069494999712,1300.423043299932,1300.9082353999838,,,,,,,,,,,,,,,,,,,,,,,1300.9366818999406,1300.9593691999326,1300.9593691999326,1300.9593691999326,1303.9186499000061,j,2.8777623999631032,None,1303.9187039999524,1303.918739899993,None,,,,,,,,,,,,,,00017,001,2026-01-20_12h09.25.940,MST_task,2024.2.0,60.065543544703324,2026-01-20 12h09.45.704892 +0530,
,Scenes\080a.jpg,110,0,111,,,,,,,j,1.3346569000277668,0.1514912999700755,None,,,,,,111,0,110,1303.9354634999763,,,,,,,,,,,,,,,,,,,,,,,1303.918958999915,1303.9354634999763,1304.4205649999203,,,,,,,,,,,,,,,,,,,,,,,1304.4449703999562,1304.4707345999777,1304.4707345999777,1304.4707345999777,1307.4319552999223,j,1.3346569000277668,0.1514912999700755,1307.4320251999889,1307.4320407999912,None,,,,,,,,,,,,,,00017,001,2026-01-20_12h09.25.940,MST_task,2024.2.0,60.065543544703324,2026-01-20 12h09.45.704892 +0530,
,Scenes\065a.jpg,111,0,112,,,,,,,j,1.542629799921997,0.13453620008658618,None,,,,,,112,0,111,1307.4482955998974,,,,,,,,,,,,,,,,,,,,,,,1307.432153899921,1307.4482955998974,1307.9330742999446,,,,,,,,,,,,,,,,,,,,,,,1307.9584858999588,1307.9839079999365,1307.9839079999365,1307.9839079999365,1310.943373399903,j,1.542629799921997,0.13453620008658618,1310.9434373999247,1310.943450899911,None,,,,,,,,,,,,,,00017,001,2026-01-20_12h09.25.940,MST_task,2024.2.0,60.065543544703324,2026-01-20 12h09.45.704892 +0530,
,Objects\119a.jpg,112,0,113,,,,,,,f,2.0465563000179827,0.1357069999212399,None,,,,,,113,0,112,1310.960183899966,,,,,,,,,,,,,,,,,,,,,,,1310.9435423999093,1310.960183899966,1311.4450290999375,,,,,,,,,,,,,,,,,,,,,,,1311.4700526999077,1311.4794649999822,1311.4794649999822,1311.4794649999822,1314.4556874999544,f,2.0465563000179827,0.1357069999212399,1314.4557526999852,1314.4557656999677,None,,,,,,,,,,,,,,00017,001,2026-01-20_12h09.25.940,MST_task,2024.2.0,60.065543544703324,2026-01-20 12h09.45.704892 +0530,
,Objects\175a.jpg,113,0,114,,,,,,,f,0.7908745999448001,0.1602285000262782,None,,,,,,114,0,113,1314.4723456999054,,,,,,,,,,,,,,,,,,,,,,,1314.4559387000045,1314.4723456999054,1314.9573457000079,,,,,,,,,,,,,,,,,,,,,,,1314.9802878999617,1314.9907942999853,1314.9907942999853,1314.9907942999853,1317.9679670999758,f,0.7908745999448001,0.1602285000262782,1317.9683075000066,1317.9683261999162,None,,,,,,,,,,,,,,00017,001,2026-01-20_12h09.25.940,MST_task,2024.2.0,60.065543544703324,2026-01-20 12h09.45.704892 +0530,
,Objects\033a.jpg,114,0,115,,,,,,,j,1.8623740000184625,0.15226879995316267,None,,,,,,115,0,114,1317.9845305999042,,,,,,,,,,,,,,,,,,,,,,,1317.9684006999014,1317.9845305999042,1318.4697689999593,,,,,,,,,,,,,,,,,,,,,,,1318.4922913999762,1318.5029772999696,1318.5029772999696,1318.5029772999696,1321.4801279999083,j,1.8623740000184625,0.15226879995316267,1321.4801834999816,1321.4801959999604,None,,,,,,,,,,,,,,00017,001,2026-01-20_12h09.25.940,MST_task,2024.2.0,60.065543544703324,2026-01-20 12h09.45.704892 +0530,
,Objects\169a.jpg,115,0,116,,,,,,,f,2.261408600024879,0.12110559991560876,None,,,,,,116,0,115,1321.4970784999896,,,,,,,,,,,,,,,,,,,,,,,1321.480267799925,1321.4970784999896,1321.9819321999094,,,,,,,,,,,,,,,,,,,,,,,1322.0040303999558,1322.015403199941,1322.015403199941,1322.015403199941,1324.9931710999226,f,2.261408600024879,0.12110559991560876,1324.9932366999565,1324.993250099942,None,,,,,,,,,,,,,,00017,001,2026-01-20_12h09.25.940,MST_task,2024.2.0,60.065543544703324,2026-01-20 12h09.45.704892 +0530,
,Objects\045a.jpg,116,0,117,,,,,,,j,2.509625800070353,0.17558449995703995,None,,,,,,117,0,116,1325.0091364999535,,,,,,,,,,,,,,,,,,,,,,,1324.9933228999143,1325.0091364999535,1325.4954396999674,,,,,,,,,,,,,,,,,,,,,,,1325.5186790999724,1325.5278907999163,1325.5278907999163,1325.5278907999163,1328.5049688,j,2.509625800070353,0.17558449995703995,1328.5050282999873,1328.5050414999714,None,,,,,,,,,,,,,,00017,001,2026-01-20_12h09.25.940,MST_task,2024.2.0,60.065543544703324,2026-01-20 12h09.45.704892 +0530,
,Objects\087a.jpg,117,0,118,,,,,,,j,2.061883799964562,0.1916009000269696,None,,,,,,118,0,117,1328.521427199943,,,,,,,,,,,,,,,,,,,,,,,1328.505134499981,1328.521427199943,1329.0067990999669,,,,,,,,,,,,,,,,,,,,,,,1329.0301630999893,1329.039875099901,1329.039875099901,1329.039875099901,1332.017023399938,j,2.061883799964562,0.1916009000269696,1332.0171333999606,1332.0171509999782,None,,,,,,,,,,,,,,00017,001,2026-01-20_12h09.25.940,MST_task,2024.2.0,60.065543544703324,2026-01-20 12h09.45.704892 +0530,
,Objects\008a.jpg,118,0,119,,,,,,,f,2.700787900015712,0.1597071000142023,None,,,,,,119,0,118,1332.0338512999006,,,,,,,,,,,,,,,,,,,,,,,1332.0172588999849,1332.0338512999006,1332.5188422999345,,,,,,,,,,,,,,,,,,,,,,,1332.5414017000003,1332.552373799961,1332.552373799961,1332.552373799961,1335.5298934999155,f,2.700787900015712,0.1597071000142023,1335.5299661000026,1335.529981700005,None,,,,,,,,,,,,,,00017,001,2026-01-20_12h09.25.940,MST_task,2024.2.0,60.065543544703324,2026-01-20 12h09.45.704892 +0530,
,Scenes\110a.jpg,119,0,120,,,,,,,j,1.1641248000087216,0.19184750004205853,None,,,,,,120,0,119,1335.5460470999824,,,,,,,,,,,,,,,,,,,,,,,1335.5300920999143,1335.5460470999824,1336.0312404999277,,,,,,,,,,,,,,,,,,,,,,,1336.0554837998934,1336.0811997998971,1336.0811997998971,1336.0811997998971,1339.0417417999124,j,1.1641248000087216,0.19184750004205853,1339.0420792999212,1339.0420932999114,None,,,,,,,,,,,,,,00017,001,2026-01-20_12h09.25.940,MST_task,2024.2.0,60.065543544703324,2026-01-20 12h09.45.704892 +0530,
,Scenes\004a.jpg,120,0,121,,,,,,,j,2.899249800015241,None,None,,,,,,121,0,120,1339.0583346999483,,,,,,,,,,,,,,,,,,,,,,,1339.0421983998967,1339.0583346999483,1339.543626699946,,,,,,,,,,,,,,,,,,,,,,,1339.5776749999495,1339.5943909999914,1339.5943909999914,1339.5943909999914,1342.553939400008,j,2.899249800015241,None,1342.5539958999725,1342.5540305000031,None,,,,,,,,,,,,,,00017,001,2026-01-20_12h09.25.940,MST_task,2024.2.0,60.065543544703324,2026-01-20 12h09.45.704892 +0530,
,Scenes\061a.jpg,121,0,122,,,,,,,j,1.9545719000743702,0.10507849999703467,None,,,,,,122,0,121,1342.5708817999111,,,,,,,,,,,,,,,,,,,,,,,1342.5541251999093,1342.5708817999111,1343.0557357999496,,,,,,,,,,,,,,,,,,,,,,,1343.083231800003,1343.1065620000008,1343.1065620000008,1343.1065620000008,1346.0667103999294,j,1.9545719000743702,0.10507849999703467,1346.066765399999,1346.0667779999785,None,,,,,,,,,,,,,,00017,001,2026-01-20_12h09.25.940,MST_task,2024.2.0,60.065543544703324,2026-01-20 12h09.45.704892 +0530,
,Scenes\047a.jpg,122,0,123,,,,,,,j,2.921699099941179,None,None,,,,,,123,0,122,1346.0831200999673,,,,,,,,,,,,,,,,,,,,,,,1346.066872700001,1346.0831200999673,1346.5681420000037,,,,,,,,,,,,,,,,,,,,,,,1346.5953859,1346.6191223999485,1346.6191223999485,1346.6191223999485,1349.5786754,j,2.921699099941179,None,1349.5787352999905,1349.5787483999738,None,,,,,,,,,,,,,,00017,001,2026-01-20_12h09.25.940,MST_task,2024.2.0,60.065543544703324,2026-01-20 12h09.45.704892 +0530,
,Scenes\152a.jpg,123,0,124,,,,,,,j,2.9078052999684587,None,None,,,,,,124,0,123,1349.5954994999338,,,,,,,,,,,,,,,,,,,,,,,1349.578849799931,1349.5954994999338,1350.0803276998922,,,,,,,,,,,,,,,,,,,,,,,1350.1031231998932,1350.113299599965,1350.113299599965,1350.113299599965,1353.090820399928,j,2.9078052999684587,None,1353.0909031999763,1353.090923099895,None,,,,,,,,,,,,,,00017,001,2026-01-20_12h09.25.940,MST_task,2024.2.0,60.065543544703324,2026-01-20 12h09.45.704892 +0530,
,Scenes\173a.jpg,124,0,125,,,,,,,j,2.7631830000318587,0.1361238999525085,None,,,,,,125,0,124,1353.1077329999534,,,,,,,,,,,,,,,,,,,,,,,1353.0913006999763,1353.1077329999534,1353.5926682999125,,,,,,,,,,,,,,,,,,,,,,,1353.6151500999695,1353.6259410999482,1353.6259410999482,1353.6259410999482,1356.6031380000059,j,2.7631830000318587,0.1361238999525085,1356.6031913999468,1356.6032038999256,None,,,,,,,,,,,,,,00017,001,2026-01-20_12h09.25.940,MST_task,2024.2.0,60.065543544703324,2026-01-20 12h09.45.704892 +0530,
,Scenes\074a.jpg,125,0,126,,,,,,,j,2.6436508999904618,0.11856400000397116,None,,,,,,126,0,125,1356.6199530999875,,,,,,,,,,,,,,,,,,,,,,,1356.6033098999178,1356.6199530999875,1357.1049086999847,,,,,,,,,,,,,,,,,,,,,,,1357.1303860999178,1357.1550002999138,1357.1550002999138,1357.1550002999138,1360.1155669,j,2.6436508999904618,0.11856400000397116,1360.1156524999533,1360.1156772999093,None,,,,,,,,,,,,,,00017,001,2026-01-20_12h09.25.940,MST_task,2024.2.0,60.065543544703324,2026-01-20 12h09.45.704892 +0530,
,Objects\191a.jpg,126,0,127,,,,,,,f,1.9626945999916643,0.18416800000704825,None,,,,,,127,0,126,1360.132122799987,,,,,,,,,,,,,,,,,,,,,,,1360.1158177999314,1360.132122799987,1360.6173611999257,,,,,,,,,,,,,,,,,,,,,,,1360.6403743999545,1360.6506864998955,1360.6506864998955,1360.6506864998955,1363.6278423999902,f,1.9626945999916643,0.18416800000704825,1363.6278996999608,1363.6279121999396,None,,,,,,,,,,,,,,00017,001,2026-01-20_12h09.25.940,MST_task,2024.2.0,60.065543544703324,2026-01-20 12h09.45.704892 +0530,
,Objects\002a.jpg,127,0,128,,,,,,,f,1.730100000044331,0.10433410003315657,None,,,,,,128,0,127,1363.6451377999038,,,,,,,,,,,,,,,,,,,,,,,1363.6280072999652,1363.6451377999038,1364.1296596999746,,,,,,,,,,,,,,,,,,,,,,,1364.1521936999634,1364.1631275999825,1364.1631275999825,1364.1631275999825,1367.1407380999299,f,1.730100000044331,0.10433410003315657,1367.140790299978,1367.1408027999569,None,,,,,,,,,,,,,,00017,001,2026-01-20_12h09.25.940,MST_task,2024.2.0,60.065543544703324,2026-01-20 12h09.45.704892 +0530,
,Objects\097a.jpg,128,0,129,,,,,,,j,1.3137641000794247,0.13614409998990595,None,,,,,,129,0,128,1367.1567179999547,,,,,,,,,,,,,,,,,,,,,,,1367.1411190999206,1367.1567179999547,1367.6420889999717,,,,,,,,,,,,,,,,,,,,,,,1367.6650178999407,1367.6753030999098,1367.6753030999098,1367.6753030999098,1370.652753299917,j,1.3137641000794247,0.13614409998990595,1370.652824699995,1370.6528408000013,None,,,,,,,,,,,,,,00017,001,2026-01-20_12h09.25.940,MST_task,2024.2.0,60.065543544703324,2026-01-20 12h09.45.704892 +0530,
,Objects\020a.jpg,129,0,130,,,,,,,f,2.4735597000690177,0.14362220000475645,None,,,,,,130,0,129,1370.669654599973,,,,,,,,,,,,,,,,,,,,,,,1370.6532757999375,1370.669654599973,1371.15410039993,,,,,,,,,,,,,,,,,,,,,,,1371.1773462999845,1371.187580299913,1371.187580299913,1371.187580299913,1374.1647136999527,f,2.4735597000690177,0.14362220000475645,1374.1649333999958,1374.1649471999845,None,,,,,,,,,,,,,,00017,001,2026-01-20_12h09.25.940,MST_task,2024.2.0,60.065543544703324,2026-01-20 12h09.45.704892 +0530,
,Objects\101a.jpg,130,0,131,,,,,,,None,,,j,0.4799566000001505,None,,,,131,0,130,1374.1813155999407,,,,,,,,,,,,,,,,,,,,,,,1374.1650449999142,1374.1813155999407,1374.6666441999841,,,,,,,,,,,,,,,,,,,,,,,1374.6917683999054,1374.6997914999956,1374.6997914999956,1374.6997914999956,1377.6769139999524,None,,,1377.6769846999086,1378.1794522999553,j,1377.6937306999462,1377.6937306999462,0.4799566000001505,None,,,,,,,,,,00017,001,2026-01-20_12h09.25.940,MST_task,2024.2.0,60.065543544703324,2026-01-20 12h09.45.704892 +0530,
,Objects\153a.jpg,131,0,132,,,,,,,f,2.1632248000241816,0.1601340000052005,None,,,,,,132,0,131,1378.195483499905,,,,,,,,,,,,,,,,,,,,,,,1378.1795413999353,1378.195483499905,1378.6804642999778,,,,,,,,,,,,,,,,,,,,,,,1378.704233599943,1378.713937399909,1378.713937399909,1378.713937399909,1381.6909690999892,f,2.1632248000241816,0.1601340000052005,1381.6910505999113,1381.6910688999342,None,,,,,,,,,,,,,,00017,001,2026-01-20_12h09.25.940,MST_task,2024.2.0,60.065543544703324,2026-01-20 12h09.45.704892 +0530,
,Objects\054a.jpg,132,0,133,,,,,,,f,1.4836843000957742,0.17493659991305321,None,,,,,,133,0,132,1381.7077971999533,,,,,,,,,,,,,,,,,,,,,,,1381.691407599952,1381.7077971999533,1382.1927703999681,,,,,,,,,,,,,,,,,,,,,,,1382.2169116999721,1382.2262406999944,1382.2262406999944,1382.2262406999944,1385.203390599927,f,1.4836843000957742,0.17493659991305321,1385.2034469000064,1385.2034587999806,None,,,,,,,,,,,,,,00017,001,2026-01-20_12h09.25.940,MST_task,2024.2.0,60.065543544703324,2026-01-20 12h09.45.704892 +0530,
,Scenes\055a.jpg,133,0,134,,,,,,,j,1.6175488999579102,0.16094359999988228,None,,,,,,134,0,133,1385.219976699911,,,,,,,,,,,,,,,,,,,,,,,1385.2035529999994,1385.219976699911,1385.7059261999093,,,,,,,,,,,,,,,,,,,,,,,1385.7304063999327,1385.7551434999332,1385.7551434999332,1385.7551434999332,1388.7158452000003,j,1.6175488999579102,0.16094359999988228,1388.7161822000053,1388.7161964999977,None,,,,,,,,,,,,,,00017,001,2026-01-20_12h09.25.940,MST_task,2024.2.0,60.065543544703324,2026-01-20 12h09.45.704892 +0530,
,Scenes\095a.jpg,134,0,135,,,,,,,j,1.1290474999696016,0.11270870000589639,None,,,,,,135,0,134,1388.7322742999531,,,,,,,,,,,,,,,,,,,,,,,1388.7162699999753,1388.7322742999531,1389.2176710999338,,,,,,,,,,,,,,,,,,,,,,,1389.2453786999686,1389.2685721999733,1389.2685721999733,1389.2685721999733,1392.227989399922,j,1.1290474999696016,0.11270870000589639,1392.2280445999932,1392.2280575999757,None,,,,,,,,,,,,,,00017,001,2026-01-20_12h09.25.940,MST_task,2024.2.0,60.065543544703324,2026-01-20 12h09.45.704892 +0530,
,Scenes\049a.jpg,135,0,136,,,,,,,j,1.0506120000500232,0.1039009999949485,None,,,,,,136,0,135,1392.2447019999381,,,,,,,,,,,,,,,,,,,,,,,1392.2284589000046,1392.2447019999381,1392.729693399975,,,,,,,,,,,,,,,,,,,,,,,1392.7527729999274,1392.7630553999916,1392.7630553999916,1392.7630553999916,1395.7401550000068,j,1.0506120000500232,0.1039009999949485,1395.7402222999372,1395.740235599922,None,,,,,,,,,,,,,,00017,001,2026-01-20_12h09.25.940,MST_task,2024.2.0,60.065543544703324,2026-01-20 12h09.45.704892 +0530,
,Scenes\134a.jpg,136,0,137,,,,,,,j,1.4487689000088722,0.16145989997312427,None,,,,,,137,0,136,1395.756997999968,,,,,,,,,,,,,,,,,,,,,,,1395.7405117999297,1395.756997999968,1396.2420653000008,,,,,,,,,,,,,,,,,,,,,,,1396.2694005999947,1396.2925226999214,1396.2925226999214,1396.2925226999214,1399.2528457998997,j,1.4487689000088722,0.16145989997312427,1399.252904699999,1399.2529202000005,None,,,,,,,,,,,,,,00017,001,2026-01-20_12h09.25.940,MST_task,2024.2.0,60.065543544703324,2026-01-20 12h09.45.704892 +0530,
,Scenes\053a.jpg,137,0,138,,,,,,,j,1.0484157999744639,0.11360369995236397,None,,,,,,138,0,137,1399.2691697999835,,,,,,,,,,,,,,,,,,,,,,,1399.2530186999356,1399.2691697999835,1399.7543865999905,,,,,,,,,,,,,,,,,,,,,,,1399.7744133999804,1399.7888023999985,1399.7888023999985,1399.7888023999985,1402.7648908999981,j,1.0484157999744639,0.11360369995236397,1402.7649486999726,1402.7649620999582,None,,,,,,,,,,,,,,00017,001,2026-01-20_12h09.25.940,MST_task,2024.2.0,60.065543544703324,2026-01-20 12h09.45.704892 +0530,
,Scenes\051a.jpg,138,0,139,,,,,,,j,2.2810364000033587,0.15977769996970892,None,,,,,,139,0,138,1402.7815878998954,,,,,,,,,,,,,,,,,,,,,,,1402.7650766998995,1402.7815878998954,1403.266705099959,,,,,,,,,,,,,,,,,,,,,,,1403.2892046999186,1403.300263299956,1403.300263299956,1403.300263299956,1406.2770585999824,j,2.2810364000033587,0.15977769996970892,1406.2771139999386,1406.2771266999189,None,,,,,,,,,,,,,,00017,001,2026-01-20_12h09.25.940,MST_task,2024.2.0,60.065543544703324,2026-01-20 12h09.45.704892 +0530,
,Scenes\184a.jpg,139,0,140,,,,,,,j,1.2241908999858424,0.13713520008604974,None,,,,,,140,0,139,1406.294107900001,,,,,,,,,,,,,,,,,,,,,,,1406.2772221999476,1406.294107900001,1406.7788448999636,,,,,,,,,,,,,,,,,,,,,,,1406.803251999896,1406.828936399892,1406.828936399892,1406.828936399892,1409.7895088999067,j,1.2241908999858424,0.13713520008604974,1409.7895816999953,1409.789595099981,None,,,,,,,,,,,,,,00017,001,2026-01-20_12h09.25.940,MST_task,2024.2.0,60.065543544703324,2026-01-20 12h09.45.704892 +0530,
,Objects\018a.jpg,140,0,141,,,,,,,f,2.423314100014977,0.11197560001164675,None,,,,,,141,0,140,1409.8062024998944,,,,,,,,,,,,,,,,,,,,,,,1409.7896656999364,1409.8062024998944,1410.2913964999607,,,,,,,,,,,,,,,,,,,,,,,1410.3156038000016,1410.3255887998967,1410.3255887998967,1410.3255887998967,1413.3024017999414,f,2.423314100014977,0.11197560001164675,1413.3024574999,1413.3024700999958,None,,,,,,,,,,,,,,00017,001,2026-01-20_12h09.25.940,MST_task,2024.2.0,60.065543544703324,2026-01-20 12h09.45.704892 +0530,
,Objects\062a.jpg,141,0,142,,,,,,,f,1.344794600037858,0.11197660001926124,None,,,,,,142,0,141,1413.3183578999015,,,,,,,,,,,,,,,,,,,,,,,1413.3025398999453,1413.3183578999015,1413.8039754999336,,,,,,,,,,,,,,,,,,,,,,,1413.8272007999476,1413.8368897999171,1413.8368897999171,1413.8368897999171,1416.8140783999115,f,1.344794600037858,0.11197660001926124,1416.8143039999995,1416.8143197000027,None,,,,,,,,,,,,,,00017,001,2026-01-20_12h09.25.940,MST_task,2024.2.0,60.065543544703324,2026-01-20 12h09.45.704892 +0530,
,Objects\166a.jpg,142,0,143,,,,,,,f,1.3927886999445036,0.16736820002552122,None,,,,,,143,0,142,1416.8307930999435,,,,,,,,,,,,,,,,,,,,,,,1416.8143914999673,1416.8307930999435,1417.315875099972,,,,,,,,,,,,,,,,,,,,,,,1417.3392315999372,1417.3491122999694,1417.3491122999694,1417.3491122999694,1420.3262598000001,f,1.3927886999445036,0.16736820002552122,1420.3263628999703,1420.3263771999627,None,,,,,,,,,,,,,,00017,001,2026-01-20_12h09.25.940,MST_task,2024.2.0,60.065543544703324,2026-01-20 12h09.45.704892 +0530,
,Objects\177a.jpg,143,0,144,,,,,,,j,1.399314200039953,0.11998890002723783,None,,,,,,144,0,143,1420.3432928998955,,,,,,,,,,,,,,,,,,,,,,,1420.3264747000067,1420.3432928998955,1420.828079400002,,,,,,,,,,,,,,,,,,,,,,,1420.8501778999344,1420.8615945999045,1420.8615945999045,1420.8615945999045,1423.8387070999015,j,1.399314200039953,0.11998890002723783,1423.8387630999787,1423.8387760999613,None,,,,,,,,,,,,,,00017,001,2026-01-20_12h09.25.940,MST_task,2024.2.0,60.065543544703324,2026-01-20 12h09.45.704892 +0530,
,Objects\150a.jpg,144,0,145,,,,,,,f,2.543426400050521,0.16834299999754876,None,,,,,,145,0,144,1423.8553492999636,,,,,,,,,,,,,,,,,,,,,,,1423.8388888000045,1423.8553492999636,1424.340482099913,,,,,,,,,,,,,,,,,,,,,,,1424.3634084999794,1424.3737192999106,1424.3737192999106,1424.3737192999106,1427.3509531999007,f,2.543426400050521,0.16834299999754876,1427.3510094999801,1427.351021999959,None,,,,,,,,,,,,,,00017,001,2026-01-20_12h09.25.940,MST_task,2024.2.0,60.065543544703324,2026-01-20 12h09.45.704892 +0530,
,Objects\099a.jpg,145,0,146,,,,,,,f,2.3590960999717936,0.136332800029777,None,,,,,,146,0,145,1427.3677028999664,,,,,,,,,,,,,,,,,,,,,,,1427.3510921999114,1427.3677028999664,1427.8527637999505,,,,,,,,,,,,,,,,,,,,,,,1427.8767517999513,1427.8861243999563,1427.8861243999563,1427.8861243999563,1430.8633402999258,f,2.3590960999717936,0.136332800029777,1430.8635626999894,1430.863576499978,None,,,,,,,,,,,,,,00017,001,2026-01-20_12h09.25.940,MST_task,2024.2.0,60.065543544703324,2026-01-20 12h09.45.704892 +0530,
,Objects\057a.jpg,146,0,147,,,,,,,j,2.334615799947642,0.15285790001507849,None,,,,,,147,0,146,1430.8798520999262,,,,,,,,,,,,,,,,,,,,,,,1430.8636505999602,1430.8798520999262,1431.3650772999972,,,,,,,,,,,,,,,,,,,,,,,1431.3879279999528,1431.3982966999756,1431.3982966999756,1431.3982966999756,1434.3754468999105,j,2.334615799947642,0.15285790001507849,1434.3755090999184,1434.375535900006,None,,,,,,,,,,,,,,00017,001,2026-01-20_12h09.25.940,MST_task,2024.2.0,60.065543544703324,2026-01-20 12h09.45.704892 +0530,
,Scenes\145a.jpg,147,0,148,,,,,,,j,0.9734237999655306,0.08801040006801486,None,,,,,,148,0,147,1434.3922868999653,,,,,,,,,,,,,,,,,,,,,,,1434.375608799979,1434.3922868999653,1434.8772395999404,,,,,,,,,,,,,,,,,,,,,,,1434.902970599942,1434.927443399909,1434.927443399909,1434.927443399909,1437.8877406999236,j,0.9734237999655306,0.08801040006801486,1437.8878096999833,1437.887823099969,None,,,,,,,,,,,,,,00017,001,2026-01-20_12h09.25.940,MST_task,2024.2.0,60.065543544703324,2026-01-20 12h09.45.704892 +0530,
,Scenes\155a.jpg,148,0,149,,,,,,,j,1.11751779995393,0.10386130004189909,None,,,,,,149,0,148,1437.9048069999553,,,,,,,,,,,,,,,,,,,,,,,1437.8883016000036,1437.9048069999553,1438.3895657999674,,,,,,,,,,,,,,,,,,,,,,,1438.4158874999266,1438.4396309999283,1438.4396309999283,1438.4396309999283,1441.4002516999608,j,1.11751779995393,0.10386130004189909,1441.400303500006,1441.4003156999825,None,,,,,,,,,,,,,,00017,001,2026-01-20_12h09.25.940,MST_task,2024.2.0,60.065543544703324,2026-01-20 12h09.45.704892 +0530,
,Scenes\185a.jpg,149,0,150,,,,,,,j,2.491712799994275,0.13001000008080155,None,,,,,,150,0,149,1441.4167493999703,,,,,,,,,,,,,,,,,,,,,,,1441.4004130999092,1441.4167493999703,1441.9021521999966,,,,,,,,,,,,,,,,,,,,,,,1441.9258521999,1441.952930499916,1441.952930499916,1441.952930499916,1444.9123728999402,j,2.491712799994275,0.13001000008080155,1444.9124432998942,1444.9124564999947,None,,,,,,,,,,,,,,00017,001,2026-01-20_12h09.25.940,MST_task,2024.2.0,60.065543544703324,2026-01-20 12h09.45.704892 +0530,
,Scenes\089a.jpg,150,0,151,,,,,,,j,2.0457870999816805,0.07061870000325143,None,,,,,,151,0,150,1444.9291719999164,,,,,,,,,,,,,,,,,,,,,,,1444.9128035999602,1444.9291719999164,1445.4142907999922,,,,,,,,,,,,,,,,,,,,,,,1445.4454838999081,1445.4648585999385,1445.4648585999385,1445.4648585999385,1448.424791599973,j,2.0457870999816805,0.07061870000325143,1448.4251194999088,1448.4251353999134,None,,,,,,,,,,,,,,00017,001,2026-01-20_12h09.25.940,MST_task,2024.2.0,60.065543544703324,2026-01-20 12h09.45.704892 +0530,
,Scenes\154a.jpg,151,0,152,,,,,,,j,2.940768799977377,None,None,,,,,,152,0,151,1448.4416267999914,,,,,,,,,,,,,,,,,,,,,,,1448.4252157999435,1448.4416267999914,1448.9264861999545,,,,,,,,,,,,,,,,,,,,,,,1448.9505269000074,1448.9765276999678,1448.9765276999678,1448.9765276999678,1451.937071799999,j,2.940768799977377,None,1451.937128599966,1451.937141399947,None,,,,,,,,,,,,,,00017,001,2026-01-20_12h09.25.940,MST_task,2024.2.0,60.065543544703324,2026-01-20 12h09.45.704892 +0530,
,Scenes\052a.jpg,152,0,153,,,,,,,j,2.332274900050834,0.1449423999292776,None,,,,,,153,0,152,1451.9536500999238,,,,,,,,,,,,,,,,,,,,,,,1451.9372918999288,1451.9536500999238,1452.4390627999092,,,,,,,,,,,,,,,,,,,,,,,1452.463735600002,1452.488946700003,1452.488946700003,1452.488946700003,1455.4492679999676,j,2.332274900050834,0.1449423999292776,1455.4493237999268,1455.449336499907,None,,,,,,,,,,,,,,00017,001,2026-01-20_12h09.25.940,MST_task,2024.2.0,60.065543544703324,2026-01-20 12h09.45.704892 +0530,
,Scenes\006a.jpg,153,0,154,,,,,,,f,2.6048631001031026,0.13633499993011355,None,,,,,,154,0,153,1455.4662206999492,,,,,,,,,,,,,,,,,,,,,,,1455.449710899964,1455.4662206999492,1455.9510727999732,,,,,,,,,,,,,,,,,,,,,,,1455.9753950999584,1455.9840674999868,1455.9840674999868,1455.9840674999868,1458.9615546999266,f,2.6048631001031026,0.13633499993011355,1458.9617268999573,1458.9617444999749,None,,,,,,,,,,,,,,00017,001,2026-01-20_12h09.25.940,MST_task,2024.2.0,60.065543544703324,2026-01-20 12h09.45.704892 +0530,
,Objects\042a.jpg,154,0,155,,,,,,,f,1.4352926999563351,0.15163390000816435,None,,,,,,155,0,154,1458.9783743999433,,,,,,,,,,,,,,,,,,,,,,,1458.961824500002,1458.9783743999433,1459.4633387000067,,,,,,,,,,,,,,,,,,,,,,,1459.4886452999199,1459.4980408999836,1459.4980408999836,1459.4980408999836,1462.4738340999465,f,1.4352926999563351,0.15163390000816435,1462.4739040998975,1462.4739169999957,None,,,,,,,,,,,,,,00017,001,2026-01-20_12h09.25.940,MST_task,2024.2.0,60.065543544703324,2026-01-20 12h09.45.704892 +0530,
,Objects\109a.jpg,155,0,156,,,,,,,f,1.163637499907054,0.10495410009752959,None,,,,,,156,0,155,1462.490671699983,,,,,,,,,,,,,,,,,,,,,,,1462.474250099971,1462.490671699983,1462.9757382998941,,,,,,,,,,,,,,,,,,,,,,,1462.9995208999608,1463.009355199989,1463.009355199989,1463.009355199989,1465.9862676999765,f,1.163637499907054,0.10495410009752959,1465.986322499928,1465.9863353999099,None,,,,,,,,,,,,,,00017,001,2026-01-20_12h09.25.940,MST_task,2024.2.0,60.065543544703324,2026-01-20 12h09.45.704892 +0530,
,Objects\041a.jpg,156,0,157,,,,,,,j,1.6766313000116497,0.1275982999941334,None,,,,,,157,0,156,1466.0028396999696,,,,,,,,,,,,,,,,,,,,,,,1465.9864299999317,1466.0028396999696,1466.4881414999254,,,,,,,,,,,,,,,,,,,,,,,1466.5113459998975,1466.521221300005,1466.521221300005,1466.521221300005,1469.4984461999265,j,1.6766313000116497,0.1275982999941334,1469.4985008999938,1469.498512799968,None,,,,,,,,,,,,,,00017,001,2026-01-20_12h09.25.940,MST_task,2024.2.0,60.065543544703324,2026-01-20 12h09.45.704892 +0530,
,Objects\026a.jpg,157,0,158,,,,,,,j,2.275859000044875,0.16744220000691712,None,,,,,,158,0,157,1469.515389899956,,,,,,,,,,,,,,,,,,,,,,,1469.4987708999543,1469.515389899956,1470.000244499999,,,,,,,,,,,,,,,,,,,,,,,1470.0239001999144,1470.0338363999035,1470.0338363999035,1470.0338363999035,1473.0108707000036,j,2.275859000044875,0.16744220000691712,1473.0109257999575,1473.0109382999362,None,,,,,,,,,,,,,,00017,001,2026-01-20_12h09.25.940,MST_task,2024.2.0,60.065543544703324,2026-01-20 12h09.45.704892 +0530,
,Objects\123a.jpg,158,0,159,,,,,,,f,2.49944410007447,0.12790750002022833,None,,,,,,159,0,158,1473.027445399901,,,,,,,,,,,,,,,,,,,,,,,1473.0110910999356,1473.027445399901,1473.512672699988,,,,,,,,,,,,,,,,,,,,,,,1473.5365671999753,1473.54589519999,1473.54589519999,1473.54589519999,1476.5230732999044,f,2.49944410007447,0.12790750002022833,1476.5231323000044,1476.523145299987,None,,,,,,,,,,,,,,00017,001,2026-01-20_12h09.25.940,MST_task,2024.2.0,60.065543544703324,2026-01-20 12h09.45.704892 +0530,
,Objects\151a.jpg,159,0,160,,,,,,,j,1.6596869999775663,0.11142630001995713,None,,,,,,160,0,159,1476.539867399959,,,,,,,,,,,,,,,,,,,,,,,1476.5232208999805,1476.539867399959,1477.024967999896,,,,,,,,,,,,,,,,,,,,,,,1477.0495087999152,1477.0585194999585,1477.0585194999585,1477.0585194999585,1480.0353278999683,j,1.6596869999775663,0.11142630001995713,1480.0353881999617,1480.0354005999397,None,,,,,,,,,,,,,,00017,001,2026-01-20_12h09.25.940,MST_task,2024.2.0,60.065543544703324,2026-01-20 12h09.45.704892 +0530,
,Objects\039a.jpg,160,0,161,,,,,,,j,1.2826192999491468,0.1435660000424832,None,,,,,,161,0,160,1480.0521592999576,,,,,,,,,,,,,,,,,,,,,,,1480.03563259996,1480.0521592999576,1480.537461699918,,,,,,,,,,,,,,,,,,,,,,,1480.5617374998983,1480.570609999937,1480.570609999937,1480.570609999937,1483.5477392999455,j,1.2826192999491468,0.1435660000424832,1483.5479492999148,1483.5479626999004,None,,,,,,,,,,,,,,00017,001,2026-01-20_12h09.25.940,MST_task,2024.2.0,60.065543544703324,2026-01-20 12h09.45.704892 +0530,
,Scenes\029a.jpg,161,0,162,,,,,,,j,1.4255178000312299,0.128381900023669,None,,,,,,162,0,161,1483.5643565999344,,,,,,,,,,,,,,,,,,,,,,,1483.548054899904,1483.5643565999344,1484.0495712999254,,,,,,,,,,,,,,,,,,,,,,,1484.0771450999891,1484.0995430999901,1484.0995430999901,1484.0995430999901,1487.0600370999891,j,1.4255178000312299,0.128381900023669,1487.0602472999599,1487.0602684000041,None,,,,,,,,,,,,,,00017,001,2026-01-20_12h09.25.940,MST_task,2024.2.0,60.065543544703324,2026-01-20 12h09.45.704892 +0530,
,Scenes\059a.jpg,162,0,163,,,,,,,j,1.6331999000394717,0.13564229989424348,None,,,,,,163,0,162,1487.0766537999734,,,,,,,,,,,,,,,,,,,,,,,1487.0603649999248,1487.0766537999734,1487.5621535999235,,,,,,,,,,,,,,,,,,,,,,,1487.589187799953,1487.6119372999528,1487.6119372999528,1487.6119372999528,1490.5722762999358,j,1.6331999000394717,0.13564229989424348,1490.5723315000068,1490.5723440999864,None,,,,,,,,,,,,,,00017,001,2026-01-20_12h09.25.940,MST_task,2024.2.0,60.065543544703324,2026-01-20 12h09.45.704892 +0530,
,Scenes\153a.jpg,163,0,164,,,,,,,j,1.0259381999494508,0.11954230000264943,None,,,,,,164,0,163,1490.589103499893,,,,,,,,,,,,,,,,,,,,,,,1490.572435399983,1490.589103499893,1491.0740684999619,,,,,,,,,,,,,,,,,,,,,,,1491.097525499994,1491.1074097999372,1491.1074097999372,1491.1074097999372,1494.0845520999283,j,1.0259381999494508,0.11954230000264943,1494.084607900004,1494.0846205999842,None,,,,,,,,,,,,,,00017,001,2026-01-20_12h09.25.940,MST_task,2024.2.0,60.065543544703324,2026-01-20 12h09.45.704892 +0530,
,Scenes\076a.jpg,164,0,165,,,,,,,j,1.063679700018838,0.11221980000846088,None,,,,,,165,0,164,1494.1013505999,,,,,,,,,,,,,,,,,,,,,,,1494.0848749999423,1494.1013505999,1494.5863178999862,,,,,,,,,,,,,,,,,,,,,,,1494.6196617999813,1494.6376319999108,1494.6376319999108,1494.6376319999108,1497.5969599999953,j,1.063679700018838,0.11221980000846088,1497.5970150999492,1497.5970277999295,None,,,,,,,,,,,,,,00017,001,2026-01-20_12h09.25.940,MST_task,2024.2.0,60.065543544703324,2026-01-20 12h09.45.704892 +0530,
,Scenes\033a.jpg,165,0,166,,,,,,,j,1.6083720999304205,0.08005280001088977,None,,,,,,166,0,165,1497.6135434999596,,,,,,,,,,,,,,,,,,,,,,,1497.5971230999567,1497.6135434999596,1498.0989784999983,,,,,,,,,,,,,,,,,,,,,,,1498.121088399901,1498.1328833999578,1498.1328833999578,1498.1328833999578,1501.1092372999992,j,1.6083720999304205,0.08005280001088977,1501.1094520000042,1501.1094658999937,None,,,,,,,,,,,,,,00017,001,2026-01-20_12h09.25.940,MST_task,2024.2.0,60.065543544703324,2026-01-20 12h09.45.704892 +0530,
,Scenes\140a.jpg,166,0,167,,,,,,,j,1.5206137999193743,0.09588380006607622,None,,,,,,167,0,166,1501.1259565999499,,,,,,,,,,,,,,,,,,,,,,,1501.109538699966,1501.1259565999499,1501.6110453999136,,,,,,,,,,,,,,,,,,,,,,,1501.634117999929,1501.644780099974,1501.644780099974,1501.644780099974,1504.6215762000065,j,1.5206137999193743,0.09588380006607622,1504.62164389994,1504.621657099924,None,,,,,,,,,,,,,,00017,001,2026-01-20_12h09.25.940,MST_task,2024.2.0,60.065543544703324,2026-01-20 12h09.45.704892 +0530,
,Scenes\037a.jpg,167,0,168,,,,,,,f,2.4957454999675974,0.11961479997262359,None,,,,,,168,0,167,1504.6382684999844,,,,,,,,,,,,,,,,,,,,,,,1504.6220341000007,1504.6382684999844,1505.1232199999504,,,,,,,,,,,,,,,,,,,,,,,1505.1519623999484,1505.174060099991,1505.174060099991,1505.174060099991,1508.133885899908,f,2.4957454999675974,0.11961479997262359,1508.1339553999715,1508.1339682999533,None,,,,,,,,,,,,,,00017,001,2026-01-20_12h09.25.940,MST_task,2024.2.0,60.065543544703324,2026-01-20 12h09.45.704892 +0530,
,Objects\117a.jpg,168,0,169,,,,,,,f,2.7921846999088302,0.10475950001273304,None,,,,,,169,0,168,1508.1506355999736,,,,,,,,,,,,,,,,,,,,,,,1508.1340385999065,1508.1506355999736,1508.6356504999567,,,,,,,,,,,,,,,,,,,,,,,1508.6597806999926,1508.6690135999816,1508.6690135999816,1508.6690135999816,1511.6460448999424,f,2.7921846999088302,0.10475950001273304,1511.6461011999054,1511.6461140000029,None,,,,,,,,,,,,,,00017,001,2026-01-20_12h09.25.940,MST_task,2024.2.0,60.065543544703324,2026-01-20 12h09.45.704892 +0530,
,Objects\164a.jpg,169,0,170,,,,,,,f,2.0324396999785677,0.1349637999664992,None,,,,,,170,0,169,1511.6628640999552,,,,,,,,,,,,,,,,,,,,,,,1511.6461977999425,1511.6628640999552,1512.147831799928,,,,,,,,,,,,,,,,,,,,,,,1512.1713104998926,1512.1813181999605,1512.1813181999605,1512.1813181999605,1515.1586110999342,f,2.0324396999785677,0.1349637999664992,1515.1586666000076,1515.1586819000077,None,,,,,,,,,,,,,,00017,001,2026-01-20_12h09.25.940,MST_task,2024.2.0,60.065543544703324,2026-01-20 12h09.45.704892 +0530,
,Objects\183a.jpg,170,0,171,,,,,,,f,2.2480398999759927,0.11190439993515611,None,,,,,,171,0,170,1515.17503579997,,,,,,,,,,,,,,,,,,,,,,,1515.1587915999116,1515.17503579997,1515.6602651999565,,,,,,,,,,,,,,,,,,,,,,,1515.684147199965,1515.6934745999752,1515.6934745999752,1515.6934745999752,1518.6706171999685,f,2.2480398999759927,0.11190439993515611,1518.6706955999834,1518.670708999969,None,,,,,,,,,,,,,,00017,001,2026-01-20_12h09.25.940,MST_task,2024.2.0,60.065543544703324,2026-01-20 12h09.45.704892 +0530,
,Objects\163a.jpg,171,0,172,,,,,,,j,1.5908789000241086,0.1213959000306204,None,,,,,,172,0,171,1518.6874595999252,,,,,,,,,,,,,,,,,,,,,,,1518.6708105999278,1518.6874595999252,1519.1724734999007,,,,,,,,,,,,,,,,,,,,,,,1519.1954268999398,1519.2059057999868,1519.2059057999868,1519.2059057999868,1522.1832018999849,j,1.5908789000241086,0.1213959000306204,1522.183260699967,1522.1832735999487,None,,,,,,,,,,,,,,00017,001,2026-01-20_12h09.25.940,MST_task,2024.2.0,60.065543544703324,2026-01-20 12h09.45.704892 +0530,
,Objects\007a.jpg,172,0,173,,,,,,,f,1.7909891000017524,0.11991420004051179,None,,,,,,173,0,172,1522.1996410998981,,,,,,,,,,,,,,,,,,,,,,,1522.183346799924,1522.1996410998981,1522.6848616999341,,,,,,,,,,,,,,,,,,,,,,,1522.7108302999986,1522.717794099939,1522.717794099939,1522.717794099939,1525.695252699894,f,1.7909891000017524,0.11991420004051179,1525.6953221999574,1525.6953349999385,None,,,,,,,,,,,,,,00017,001,2026-01-20_12h09.25.940,MST_task,2024.2.0,60.065543544703324,2026-01-20 12h09.45.704892 +0530,
,Objects\122a.jpg,173,0,174,,,,,,,f,2.566834200057201,0.19247889996040612,None,,,,,,174,0,173,1525.7120440999279,,,,,,,,,,,,,,,,,,,,,,,1525.6956682999153,1525.7120440999279,1526.1970105998917,,,,,,,,,,,,,,,,,,,,,,,1526.2207539998926,1526.2304954999126,1526.2304954999126,1526.2304954999126,1529.2078297999687,f,2.566834200057201,0.19247889996040612,1529.2078994999174,1529.2079123998992,None,,,,,,,,,,,,,,00017,001,2026-01-20_12h09.25.940,MST_task,2024.2.0,60.065543544703324,2026-01-20 12h09.45.704892 +0530,
,Objects\096a.jpg,174,0,175,,,,,,,None,,,j,0.012544999946840107,None,,,,175,0,174,1529.2242286999244,,,,,,,,,,,,,,,,,,,,,,,1529.207983899978,1529.2242286999244,1529.7094409998972,,,,,,,,,,,,,,,,,,,,,,,1529.7347286998993,1529.742903299979,1529.742903299979,1529.742903299979,1532.719922499964,None,,,1532.7202595999697,1532.7539831999457,j,1532.7368055999978,1532.7368055999978,0.012544999946840107,None,,,,,,,,,,00017,001,2026-01-20_12h09.25.940,MST_task,2024.2.0,60.065543544703324,2026-01-20 12h09.45.704892 +0530,
,Scenes\014a.jpg,175,0,176,,,,,,,None,,,j,0.4519486000062898,None,,,,176,0,175,1532.7701009999728,,,,,,,,,,,,,,,,,,,,,,,1532.7540681998944,1532.7701009999728,1533.2555377999088,,,,,,,,,,,,,,,,,,,,,,,1533.2836937999818,1533.307161099976,1533.307161099976,1533.307161099976,1536.2657304999884,None,,,1536.2657838999294,1536.7513763000024,j,1536.2824169999221,1536.2824169999221,0.4519486000062898,None,,,,,,,,,,00017,001,2026-01-20_12h09.25.940,MST_task,2024.2.0,60.065543544703324,2026-01-20 12h09.45.704892 +0530,
,Scenes\075a.jpg,176,0,177,,,,,,,j,1.6219296000199392,None,None,,,,,,177,0,176,1536.7673200999852,,,,,,,,,,,,,,,,,,,,,,,1536.7514665999915,1536.7673200999852,1537.252513299929,,,,,,,,,,,,,,,,,,,,,,,1537.2841738999123,1537.3033799999394,1537.3033799999394,1537.3033799999394,1540.2630500999512,j,1.6219296000199392,None,1540.2633481998928,1540.2633685999317,None,,,,,,,,,,,,,,00017,001,2026-01-20_12h09.25.940,MST_task,2024.2.0,60.065543544703324,2026-01-20 12h09.45.704892 +0530,
,Scenes\034a.jpg,177,0,178,,,,,,,f,2.2456498000537977,0.18286299996543676,None,,,,,,178,0,177,1540.2797380998963,,,,,,,,,,,,,,,,,,,,,,,1540.2634832999902,1540.2797380998963,1540.7648040999193,,,,,,,,,,,,,,,,,,,,,,,1540.80359279993,1540.8328196998918,1540.8328196998918,1540.8328196998918,1543.7753146999748,f,2.2456498000537977,0.18286299996543676,1543.7753707999364,1543.775404599961,None,,,,,,,,,,,,,,00017,001,2026-01-20_12h09.25.940,MST_task,2024.2.0,60.065543544703324,2026-01-20 12h09.45.704892 +0530,
,Scenes\164a.jpg,178,0,179,,,,,,,f,2.0544642000459135,0.16809799999464303,None,,,,,,179,0,178,1543.791918199975,,,,,,,,,,,,,,,,,,,,,,,1543.7755010999972,1543.791918199975,1544.2771166999592,,,,,,,,,,,,,,,,,,,,,,,1544.3011976999696,1544.327206899994,1544.327206899994,1544.327206899994,1547.287733499892,f,2.0544642000459135,0.16809799999464303,1547.2878009999404,1547.287814399926,None,,,,,,,,,,,,,,00017,001,2026-01-20_12h09.25.940,MST_task,2024.2.0,60.065543544703324,2026-01-20 12h09.45.704892 +0530,
,Scenes\128a.jpg,179,0,180,,,,,,,j,1.0135454999981448,None,None,,,,,,180,0,179,1547.30433059996,,,,,,,,,,,,,,,,,,,,,,,1547.2878967999713,1547.30433059996,1547.789299899945,,,,,,,,,,,,,,,,,,,,,,,1547.8167961,1547.8396109999157,1547.8396109999157,1547.8396109999157,1550.7999336000066,j,1.0135454999981448,None,1550.800012499909,1550.8000292999204,None,,,,,,,,,,,,,,00017,001,2026-01-20_12h09.25.940,MST_task,2024.2.0,60.065543544703324,2026-01-20 12h09.45.704892 +0530,
,Scenes\041a.jpg,180,0,181,,,,,,,None,,,j,0.3966039000079036,None,,,,181,0,180,1550.816505499999,,,,,,,,,,,,,,,,,,,,,,,1550.8004233998945,1550.816505499999,1551.3016995999496,,,,,,,,,,,,,,,,,,,,,,,1551.3309938999591,1551.3518045999808,1551.3518045999808,1551.3518045999808,1554.312519399915,None,,,1554.312587399967,1554.730937599903,j,1554.3288013999118,1554.3288013999118,0.3966039000079036,None,,,,,,,,,,00017,001,2026-01-20_12h09.25.940,MST_task,2024.2.0,60.065543544703324,2026-01-20 12h09.45.704892 +0530,
,Scenes\069a.jpg,181,0,182,,,,,,,j,1.5319690000033006,None,None,,,,,,182,0,181,1554.747249799897,,,,,,,,,,,,,,,,,,,,,,,1554.7310270000016,1554.747249799897,1555.2320563999237,,,,,,,,,,,,,,,,,,,,,,,1555.255559299956,1555.2649553999072,1555.2649553999072,1555.2649553999072,1558.2426443999866,j,1.5319690000033006,None,1558.2427130999276,1558.2427260999102,None,,,,,,,,,,,,,,00017,001,2026-01-20_12h09.25.940,MST_task,2024.2.0,60.065543544703324,2026-01-20 12h09.45.704892 +0530,
,Objects\080a.jpg,182,0,183,,,,,,,j,2.436050800024532,None,None,,,,,,183,0,182,1558.2594607999781,,,,,,,,,,,,,,,,,,,,,,,1558.2433289999608,1558.2594607999781,1558.7443684999598,,,,,,,,,,,,,,,,,,,,,,,1558.7706049999688,1558.7778591999086,1558.7778591999086,1558.7778591999086,1561.7548297999892,j,2.436050800024532,None,1561.7549071999965,1561.7549202999799,None,,,,,,,,,,,,,,00017,001,2026-01-20_12h09.25.940,MST_task,2024.2.0,60.065543544703324,2026-01-20 12h09.45.704892 +0530,
