thisN,thisTrialN,thisRepN,key_resp_3.keys,key_resp_3.rt,key_resp_3.duration,trials.thisRepN,trials.thisTrialN,trials.thisN,thisRow.t,notes,intro_page.started,text.started,key_resp.started,intro_page.stopped,key_resp.keys,key_resp.rt,key_resp.duration,instructions.started,text_2.started,key_resp_2.started,instructions.stopped,key_resp_2.keys,key_resp_2.rt,key_resp_2.duration,demo1.started,image_1.started,image_2.started,text_7.started,key_resp_6.started,text_9.started,demo1.stopped,key_resp_6.keys,key_resp_6.rt,key_resp_6.duration,demo2.started,image_5.started,image_6.started,text_11.started,text_12.started,key_resp_8.started,demo2.stopped,key_resp_8.keys,key_resp_8.rt,key_resp_8.duration,demo_conclusion.started,text_13.started,key_resp_9.started,demo_conclusion.stopped,key_resp_9.keys,key_resp_9.rt,key_resp_9.duration,start_test.started,text_6.started,key_resp_5.started,start_test.stopped,key_resp_5.keys,key_resp_5.rt,key_resp_5.duration,ISI.started,text_4.started,text_4.stopped,ISI.stopped,routine_1.started,image.started,text_3.started,key_resp_3.started,routine_1.stopped,image_path,position_of_stimuli,trials.key_resp_3.keys,trials.key_resp_3.rt,trials.key_resp_3.duration,End_page.started,text_5.started,key_resp_4.started,End_page.stopped,key_resp_4.keys,key_resp_4.rt,key_resp_4.duration,participant,session,date,expName,psychopyVersion,frameRate,expStart,
,,,,,,,,,,,0.0020554000002448447,0.00414699999964796,0.00414699999964796,9.12785950000034,space,9.115403300000253,None,,,,,,,,,,,,,,,,,,,,,,,,,,,,,,,,,,,,,,,,,,,,,,,,,,,,,,,,,,,,,,,00015,001,2025-11-17_18h33.40.554,MST_test,2024.2.0,59.911522662890064,2025-11-17 18h33.46.800266 +0530,
,,,,,,,,,,,,,,,,,,9.127972300000692,9.142106500001319,9.142106500001319,22.82238789999974,space,13.67263020000064,None,,,,,,,,,,,,,,,,,,,,,,,,,,,,,,,,,,,,,,,,,,,,,,,,,,,,,,,,00015,001,2025-11-17_18h33.40.554,MST_test,2024.2.0,59.911522662890064,2025-11-17 18h33.46.800266 +0530,
,,,,,,,,,,,,,,,,,,,,,,,,,22.822489199999836,22.839248500000394,22.839248500000394,22.839248500000394,22.839248500000394,22.839248500000394,33.40591409999979,space,10.55177360000016,None,,,,,,,,,,,,,,,,,,,,,,,,,,,,,,,,,,,,,,,,,,,,,,00015,001,2025-11-17_18h33.40.554,MST_test,2024.2.0,59.911522662890064,2025-11-17 18h33.46.800266 +0530,
,,,,,,,,,,,,,,,,,,,,,,,,,,,,,,,,,,,33.40602800000124,33.420551799999885,33.420551799999885,33.420551799999885,33.420551799999885,33.420551799999885,37.48910750000141,space,4.059564700000919,None,,,,,,,,,,,,,,,,,,,,,,,,,,,,,,,,,,,,00015,001,2025-11-17_18h33.40.554,MST_test,2024.2.0,59.911522662890064,2025-11-17 18h33.46.800266 +0530,
,,,,,,,,,,,,,,,,,,,,,,,,,,,,,,,,,,,,,,,,,,,,,37.489230600000155,37.503367200000866,37.503367200000866,71.77235850000034,space,34.26380959999915,None,,,,,,,,,,,,,,,,,,,,,,,,,,,,,00015,001,2025-11-17_18h33.40.554,MST_test,2024.2.0,59.911522662890064,2025-11-17 18h33.46.800266 +0530,
,,,,,,,,,,,,,,,,,,,,,,,,,,,,,,,,,,,,,,,,,,,,,,,,,,,,71.77249490000031,71.7865649000014,71.7865649000014,83.7552539999997,space,11.964862199998606,None,,,,,,,,,,,,,,,,,,,,,,00015,001,2025-11-17_18h33.40.554,MST_test,2024.2.0,59.911522662890064,2025-11-17 18h33.46.800266 +0530,
0,0,1,s,12.724232599999596,None,1,0,0,83.7695961999998,,,,,,,,,,,,,,,,,,,,,,,,,,,,,,,,,,,,,,,,,,,,,,,,,,83.76207690000047,83.7695961999998,84.28275460000077,84.25430150000102,84.27977400000054,84.28275460000077,84.28275460000077,84.28275460000077,97.02240370000072,Scenes\037b.jpg,pre,s,12.724232599999596,None,,,,,,,,00015,001,2025-11-17_18h33.40.554,MST_test,2024.2.0,59.911522662890064,2025-11-17 18h33.46.800266 +0530,
1,0,2,n,15.339071899999908,None,2,0,1,97.03653120000126,,,,,,,,,,,,,,,,,,,,,,,,,,,,,,,,,,,,,,,,,,,,,,,,,,97.02281030000086,97.03653120000126,97.54813250000007,97.52125470000101,97.54507460000059,97.54813250000007,97.54813250000007,97.54813250000007,112.88945469999999,Scenes\144b.jpg,mid,n,15.339071899999908,None,,,,,,,,00015,001,2025-11-17_18h33.40.554,MST_test,2024.2.0,59.911522662890064,2025-11-17 18h33.46.800266 +0530,
2,0,3,o,5.107695599999715,None,3,0,2,112.90327350000007,,,,,,,,,,,,,,,,,,,,,,,,,,,,,,,,,,,,,,,,,,,,,,,,,,112.88982039999973,112.90327350000007,113.40329279999969,113.3873378999997,113.39645900000141,113.40329279999969,113.40329279999969,113.40329279999969,118.52194830000008,Objects\043a.jpg,mid,o,5.107695599999715,None,,,,,,,,00015,001,2025-11-17_18h33.40.554,MST_test,2024.2.0,59.911522662890064,2025-11-17 18h33.46.800266 +0530,
3,0,4,o,13.390918500001135,None,4,0,3,118.53637180000078,,,,,,,,,,,,,,,,,,,,,,,,,,,,,,,,,,,,,,,,,,,,,,,,,,118.52230000000054,118.53637180000078,119.04018200000064,119.02079960000083,119.03726800000004,119.04018200000064,119.04018200000064,119.04018200000064,132.43919720000122,Scenes\046a.jpg,pre,o,13.390918500001135,None,,,,,,,,00015,001,2025-11-17_18h33.40.554,MST_test,2024.2.0,59.911522662890064,2025-11-17 18h33.46.800266 +0530,
4,0,5,s,4.653799300000173,None,5,0,4,132.45327270000053,,,,,,,,,,,,,,,,,,,,,,,,,,,,,,,,,,,,,,,,,,,,,,,,,,132.43958910000038,132.45327270000053,132.96128230000068,132.93751690000136,132.95823689999997,132.96128230000068,132.96128230000068,132.96128230000068,137.6225384999998,Objects\002b.jpg,post,s,4.653799300000173,None,,,,,,,,00015,001,2025-11-17_18h33.40.554,MST_test,2024.2.0,59.911522662890064,2025-11-17 18h33.46.800266 +0530,
5,0,6,s,13.589263099998789,None,6,0,5,137.63660379999965,,,,,,,,,,,,,,,,,,,,,,,,,,,,,,,,,,,,,,,,,,,,,,,,,,137.62287500000093,137.63660379999965,138.13783090000106,138.1210828000003,138.1349054000002,138.13783090000106,138.13783090000106,138.13783090000106,151.73894029999974,Scenes\170a.jpg,mid,s,13.589263099998789,None,,,,,,,,00015,001,2025-11-17_18h33.40.554,MST_test,2024.2.0,59.911522662890064,2025-11-17 18h33.46.800266 +0530,
6,0,7,s,22.3014776,None,7,0,6,151.75317440000072,,,,,,,,,,,,,,,,,,,,,,,,,,,,,,,,,,,,,,,,,,,,,,,,,,151.7393370000009,151.75317440000072,152.26553419999982,152.23751450000054,152.26303370000096,152.26553419999982,152.26553419999982,152.26553419999982,174.57211180000013,Scenes\149b.jpg,mid,s,22.3014776,None,,,,,,,,00015,001,2025-11-17_18h33.40.554,MST_test,2024.2.0,59.911522662890064,2025-11-17 18h33.46.800266 +0530,
7,0,8,s,12.297914000000674,None,8,0,7,174.5863528000009,,,,,,,,,,,,,,,,,,,,,,,,,,,,,,,,,,,,,,,,,,,,,,,,,,174.57241280000017,174.5863528000009,175.10877059999984,175.0711108000014,175.1057596999999,175.10877059999984,175.10877059999984,175.10877059999984,187.42247320000024,Foils\scenes1.jpg,none,s,12.297914000000674,None,,,,,,,,00015,001,2025-11-17_18h33.40.554,MST_test,2024.2.0,59.911522662890064,2025-11-17 18h33.46.800266 +0530,
8,0,9,s,6.581092099999296,None,9,0,8,187.4366289999998,,,,,,,,,,,,,,,,,,,,,,,,,,,,,,,,,,,,,,,,,,,,,,,,,,187.42282230000092,187.4366289999998,187.9466666999997,187.9211950000008,187.9438370000007,187.9466666999997,187.9466666999997,187.9466666999997,194.5385251000007,Scenes\005b.jpg,pre,s,6.581092099999296,None,,,,,,,,00015,001,2025-11-17_18h33.40.554,MST_test,2024.2.0,59.911522662890064,2025-11-17 18h33.46.800266 +0530,
9,0,10,o,6.712987599999906,None,10,0,9,194.55319469999995,,,,,,,,,,,,,,,,,,,,,,,,,,,,,,,,,,,,,,,,,,,,,,,,,,194.53888329999972,194.55319469999995,195.05401789999996,195.0375922000003,195.04997060000096,195.05401789999996,195.05401789999996,195.05401789999996,201.77211510000052,Scenes\058a.jpg,post,o,6.712987599999906,None,,,,,,,,00015,001,2025-11-17_18h33.40.554,MST_test,2024.2.0,59.911522662890064,2025-11-17 18h33.46.800266 +0530,
10,0,11,n,13.344309899999644,None,11,0,10,201.78645549999965,,,,,,,,,,,,,,,,,,,,,,,,,,,,,,,,,,,,,,,,,,,,,,,,,,201.77244419999988,201.78645549999965,202.29529019999973,202.2714586000002,202.29219710000143,202.29529019999973,202.29529019999973,202.29529019999973,215.65553910000017,Scenes\118b.jpg,post,n,13.344309899999644,None,,,,,,,,00015,001,2025-11-17_18h33.40.554,MST_test,2024.2.0,59.911522662890064,2025-11-17 18h33.46.800266 +0530,
11,0,12,n,3.1716750000014144,None,12,0,11,215.66999840000062,,,,,,,,,,,,,,,,,,,,,,,,,,,,,,,,,,,,,,,,,,,,,,,,,,215.6558616000002,215.66999840000062,216.1794359000014,216.15455699999984,216.1765680999997,216.1794359000014,216.1794359000014,216.1794359000014,219.3557234,Foils\scenes27.jpg,none,n,3.1716750000014144,None,,,,,,,,00015,001,2025-11-17_18h33.40.554,MST_test,2024.2.0,59.911522662890064,2025-11-17 18h33.46.800266 +0530,
12,0,13,s,3.4022353000000294,None,13,0,12,219.36999130000004,,,,,,,,,,,,,,,,,,,,,,,,,,,,,,,,,,,,,,,,,,,,,,,,,,219.35613680000097,219.36999130000004,219.87703820000024,219.8544608000011,219.87410770000133,219.87703820000024,219.87703820000024,219.87703820000024,223.28950710000026,Scenes\141b.jpg,pre,s,3.4022353000000294,None,,,,,,,,00015,001,2025-11-17_18h33.40.554,MST_test,2024.2.0,59.911522662890064,2025-11-17 18h33.46.800266 +0530,
13,0,14,o,21.283849199999167,None,14,0,13,223.30349340000066,,,,,,,,,,,,,,,,,,,,,,,,,,,,,,,,,,,,,,,,,,,,,,,,,,223.28983739999967,223.30349340000066,223.80386180000096,223.78769009999996,223.79450420000103,223.80386180000096,223.80386180000096,223.80386180000096,245.1052639999998,Objects\050a.jpg,pre,o,21.283849199999167,None,,,,,,,,00015,001,2025-11-17_18h33.40.554,MST_test,2024.2.0,59.911522662890064,2025-11-17 18h33.46.800266 +0530,
14,0,15,s,1.8061276999997062,None,15,0,14,245.11987530000079,,,,,,,,,,,,,,,,,,,,,,,,,,,,,,,,,,,,,,,,,,,,,,,,,,245.10559900000044,245.11987530000079,245.62508080000043,245.6043411999999,245.62274550000075,245.62508080000043,245.62508080000043,245.62508080000043,247.43919620000088,Objects\090b.jpg,mid,s,1.8061276999997062,None,,,,,,,,00015,001,2025-11-17_18h33.40.554,MST_test,2024.2.0,59.911522662890064,2025-11-17 18h33.46.800266 +0530,
15,0,16,o,1.517583700000614,None,16,0,15,247.45320150000043,,,,,,,,,,,,,,,,,,,,,,,,,,,,,,,,,,,,,,,,,,,,,,,,,,247.43950849999965,247.45320150000043,247.95352269999967,247.93743030000041,247.94495240000106,247.95352269999967,247.95352269999967,247.95352269999967,249.4887359000004,Objects\123a.jpg,pre,o,1.517583700000614,None,,,,,,,,00015,001,2025-11-17_18h33.40.554,MST_test,2024.2.0,59.911522662890064,2025-11-17 18h33.46.800266 +0530,
16,0,17,o,15.419116099999883,None,17,0,16,249.50325970000085,,,,,,,,,,,,,,,,,,,,,,,,,,,,,,,,,,,,,,,,,,,,,,,,,,249.48915660000057,249.50325970000085,250.0038405000014,249.98766550000073,249.99870100000044,250.0038405000014,250.0038405000014,250.0038405000014,265.4380407999997,Scenes\156a.jpg,pre,o,15.419116099999883,None,,,,,,,,00015,001,2025-11-17_18h33.40.554,MST_test,2024.2.0,59.911522662890064,2025-11-17 18h33.46.800266 +0530,
17,0,18,o,12.490604699998585,None,18,0,17,265.45335630000045,,,,,,,,,,,,,,,,,,,,,,,,,,,,,,,,,,,,,,,,,,,,,,,,,,265.43826869999975,265.45335630000045,265.9560354000005,265.9377009,265.9531162000003,265.9560354000005,265.9560354000005,265.9560354000005,278.45591250000143,Scenes\001a.jpg,pre,o,12.490604699998585,None,,,,,,,,00015,001,2025-11-17_18h33.40.554,MST_test,2024.2.0,59.911522662890064,2025-11-17 18h33.46.800266 +0530,
18,0,19,s,13.749258000001646,None,19,0,18,278.4698865999999,,,,,,,,,,,,,,,,,,,,,,,,,,,,,,,,,,,,,,,,,,,,,,,,,,278.45630660000097,278.4698865999999,278.9775769000007,278.95462530000077,278.97444069999983,278.9775769000007,278.9775769000007,278.9775769000007,292.7387595,Objects\105b.jpg,mid,s,13.749258000001646,None,,,,,,,,00015,001,2025-11-17_18h33.40.554,MST_test,2024.2.0,59.911522662890064,2025-11-17 18h33.46.800266 +0530,
19,0,20,s,1.9818354999988514,None,20,0,19,292.75319930000114,,,,,,,,,,,,,,,,,,,,,,,,,,,,,,,,,,,,,,,,,,,,,,,,,,292.73929150000004,292.75319930000114,293.2569217,293.23777710000104,293.2545476000014,293.2569217,293.2569217,293.2569217,295.2556026000002,Objects\034b.jpg,pre,s,1.9818354999988514,None,,,,,,,,00015,001,2025-11-17_18h33.40.554,MST_test,2024.2.0,59.911522662890064,2025-11-17 18h33.46.800266 +0530,
20,0,21,o,4.036793899998884,None,21,0,20,295.27001650000057,,,,,,,,,,,,,,,,,,,,,,,,,,,,,,,,,,,,,,,,,,,,,,,,,,295.2559602000001,295.27001650000057,295.7700556,295.7542804000004,295.75999500000034,295.7700556,295.7700556,295.7700556,299.8222361999997,Objects\054a.jpg,mid,o,4.036793899998884,None,,,,,,,,00015,001,2025-11-17_18h33.40.554,MST_test,2024.2.0,59.911522662890064,2025-11-17 18h33.46.800266 +0530,
21,0,22,s,15.46217869999964,None,22,0,21,299.83634880000136,,,,,,,,,,,,,,,,,,,,,,,,,,,,,,,,,,,,,,,,,,,,,,,,,,299.82252320000043,299.83634880000136,300.33715740000116,300.3209072999998,300.33183140000074,300.33715740000116,300.33715740000116,300.33715740000116,315.80594999999994,Scenes\077a.jpg,mid,s,15.46217869999964,None,,,,,,,,00015,001,2025-11-17_18h33.40.554,MST_test,2024.2.0,59.911522662890064,2025-11-17 18h33.46.800266 +0530,
22,0,23,n,2.478588600000876,None,23,0,22,315.81988269999965,,,,,,,,,,,,,,,,,,,,,,,,,,,,,,,,,,,,,,,,,,,,,,,,,,315.80631170000015,315.81988269999965,316.3205175000003,316.3044432000006,316.3178248000004,316.3205175000003,316.3205175000003,316.3205175000003,318.8059138000008,Foils\scenes20.jpg,none,n,2.478588600000876,None,,,,,,,,00015,001,2025-11-17_18h33.40.554,MST_test,2024.2.0,59.911522662890064,2025-11-17 18h33.46.800266 +0530,
23,0,24,o,3.386056200000894,None,24,0,23,318.81984290000037,,,,,,,,,,,,,,,,,,,,,,,,,,,,,,,,,,,,,,,,,,,,,,,,,,318.8063348000014,318.81984290000037,319.3252966,319.30455260000053,319.3226786000014,319.3252966,319.3252966,319.3252966,322.722596900001,Objects\093b.jpg,mid,o,3.386056200000894,None,,,,,,,,00015,001,2025-11-17_18h33.40.554,MST_test,2024.2.0,59.911522662890064,2025-11-17 18h33.46.800266 +0530,
24,0,25,o,3.8978903999995964,None,25,0,24,322.7366006000011,,,,,,,,,,,,,,,,,,,,,,,,,,,,,,,,,,,,,,,,,,,,,,,,,,322.723024500001,322.7366006000011,323.2367707000012,323.2212424999998,323.22854350000125,323.2367707000012,323.2367707000012,323.2367707000012,327.1391046000008,Objects\129a.jpg,post,o,3.8978903999995964,None,,,,,,,,00015,001,2025-11-17_18h33.40.554,MST_test,2024.2.0,59.911522662890064,2025-11-17 18h33.46.800266 +0530,
25,0,26,o,5.697099099999832,None,26,0,25,327.1533810000001,,,,,,,,,,,,,,,,,,,,,,,,,,,,,,,,,,,,,,,,,,,,,,,,,,327.1394584999998,327.1533810000001,327.65387180000107,327.6377732000001,327.64489219999996,327.65387180000107,327.65387180000107,327.65387180000107,333.3559060000007,Scenes\016a.jpg,mid,o,5.697099099999832,None,,,,,,,,00015,001,2025-11-17_18h33.40.554,MST_test,2024.2.0,59.911522662890064,2025-11-17 18h33.46.800266 +0530,
26,0,27,s,3.5155727000001207,None,27,0,26,333.37002910000047,,,,,,,,,,,,,,,,,,,,,,,,,,,,,,,,,,,,,,,,,,,,,,,,,,333.35629230000086,333.37002910000047,333.8750833000013,333.8544985000008,333.87213789999987,333.8750833000013,333.8750833000013,333.8750833000013,337.4057485000012,Objects\062b.jpg,pre,s,3.5155727000001207,None,,,,,,,,00015,001,2025-11-17_18h33.40.554,MST_test,2024.2.0,59.911522662890064,2025-11-17 18h33.46.800266 +0530,
27,0,28,o,3.142553899999257,None,28,0,27,337.42000850000113,,,,,,,,,,,,,,,,,,,,,,,,,,,,,,,,,,,,,,,,,,,,,,,,,,337.4061085000012,337.42000850000113,337.92061620000095,337.90456860000086,337.9176067999997,337.92061620000095,337.92061620000095,337.92061620000095,341.0720990000009,Scenes\004a.jpg,post,o,3.142553899999257,None,,,,,,,,00015,001,2025-11-17_18h33.40.554,MST_test,2024.2.0,59.911522662890064,2025-11-17 18h33.46.800266 +0530,
28,0,29,n,3.3828403999996226,None,29,0,28,341.08663909999996,,,,,,,,,,,,,,,,,,,,,,,,,,,,,,,,,,,,,,,,,,,,,,,,,,341.0724788999996,341.08663909999996,341.61642089999987,341.5715488000005,341.6131980000009,341.61642089999987,341.61642089999987,341.61642089999987,345.0058439000004,Scenes\140b.jpg,mid,n,3.3828403999996226,None,,,,,,,,00015,001,2025-11-17_18h33.40.554,MST_test,2024.2.0,59.911522662890064,2025-11-17 18h33.46.800266 +0530,
29,0,30,n,2.3831515000001673,None,30,0,29,345.0200697,,,,,,,,,,,,,,,,,,,,,,,,,,,,,,,,,,,,,,,,,,,,,,,,,,345.0062398000009,345.0200697,345.5274500000014,345.50449409999965,345.52446659999987,345.5274500000014,345.5274500000014,345.5274500000014,347.9224095999998,Foils\098a.jpg,none,n,2.3831515000001673,None,,,,,,,,00015,001,2025-11-17_18h33.40.554,MST_test,2024.2.0,59.911522662890064,2025-11-17 18h33.46.800266 +0530,
30,0,31,n,2.5226529000010487,None,31,0,30,347.93658250000044,,,,,,,,,,,,,,,,,,,,,,,,,,,,,,,,,,,,,,,,,,,,,,,,,,347.9228321999999,347.93658250000044,348.4372323000007,348.4210834000005,348.43079730000136,348.4372323000007,348.4372323000007,348.4372323000007,350.9719787000013,Foils\scenes14.jpg,none,n,2.5226529000010487,None,,,,,,,,00015,001,2025-11-17_18h33.40.554,MST_test,2024.2.0,59.911522662890064,2025-11-17 18h33.46.800266 +0530,
31,0,32,o,13.966196700001092,None,32,0,31,350.9863658000013,,,,,,,,,,,,,,,,,,,,,,,,,,,,,,,,,,,,,,,,,,,,,,,,,,350.97229620000144,350.9863658000013,351.4897856000007,351.47117640000033,351.487098900001,351.4897856000007,351.4897856000007,351.4897856000007,365.4720433000002,Scenes\008b.jpg,post,o,13.966196700001092,None,,,,,,,,00015,001,2025-11-17_18h33.40.554,MST_test,2024.2.0,59.911522662890064,2025-11-17 18h33.46.800266 +0530,
32,0,33,s,5.693393899999137,None,33,0,32,365.486456300001,,,,,,,,,,,,,,,,,,,,,,,,,,,,,,,,,,,,,,,,,,,,,,,,,,365.4723647999999,365.486456300001,365.99338480000006,365.97119720000046,365.9900807000013,365.99338480000006,365.99338480000006,365.99338480000006,371.6890136000002,Objects\191b.jpg,mid,s,5.693393899999137,None,,,,,,,,00015,001,2025-11-17_18h33.40.554,MST_test,2024.2.0,59.911522662890064,2025-11-17 18h33.46.800266 +0530,
33,0,34,s,9.435326700000587,None,34,0,33,371.7033790000005,,,,,,,,,,,,,,,,,,,,,,,,,,,,,,,,,,,,,,,,,,,,,,,,,,371.6893977,371.7033790000005,372.2034921000013,372.1876897000002,372.1951000000008,372.2034921000013,372.2034921000013,372.2034921000013,381.65570910000133,Objects\154a.jpg,mid,s,9.435326700000587,None,,,,,,,,00015,001,2025-11-17_18h33.40.554,MST_test,2024.2.0,59.911522662890064,2025-11-17 18h33.46.800266 +0530,
34,0,35,s,8.091850099999647,None,35,0,34,381.66996819999986,,,,,,,,,,,,,,,,,,,,,,,,,,,,,,,,,,,,,,,,,,,,,,,,,,381.65611100000024,381.66996819999986,382.17141319999973,382.15454359999967,382.1685341000011,382.17141319999973,382.17141319999973,382.17141319999973,390.2720035000002,Scenes\165a.jpg,pre,s,8.091850099999647,None,,,,,,,,00015,001,2025-11-17_18h33.40.554,MST_test,2024.2.0,59.911522662890064,2025-11-17 18h33.46.800266 +0530,
35,0,36,o,4.707315300000118,None,36,0,35,390.2863890000008,,,,,,,,,,,,,,,,,,,,,,,,,,,,,,,,,,,,,,,,,,,,,,,,,,390.27227590000075,390.2863890000008,390.79531920000045,390.7711089000004,390.79284840000037,390.79531920000045,390.79531920000045,390.79531920000045,395.5060272999999,Scenes\159b.jpg,mid,o,4.707315300000118,None,,,,,,,,00015,001,2025-11-17_18h33.40.554,MST_test,2024.2.0,59.911522662890064,2025-11-17 18h33.46.800266 +0530,
36,0,37,o,1.9798403999993752,None,37,0,36,395.5201348999999,,,,,,,,,,,,,,,,,,,,,,,,,,,,,,,,,,,,,,,,,,,,,,,,,,395.5063854,395.5201348999999,396.0206575000011,396.00372980000066,396.01332639999964,396.0206575000011,396.0206575000011,396.0206575000011,398.0049962000012,Scenes\049a.jpg,post,o,1.9798403999993752,None,,,,,,,,00015,001,2025-11-17_18h33.40.554,MST_test,2024.2.0,59.911522662890064,2025-11-17 18h33.46.800266 +0530,
37,0,38,s,2.0072935999996844,None,38,0,37,398.0200007000003,,,,,,,,,,,,,,,,,,,,,,,,,,,,,,,,,,,,,,,,,,,,,,,,,,398.0052802000009,398.0200007000003,398.5206214000009,398.5045976000001,398.51314509999975,398.5206214000009,398.5206214000009,398.5206214000009,400.5388786000003,Objects\181a.jpg,pre,s,2.0072935999996844,None,,,,,,,,00015,001,2025-11-17_18h33.40.554,MST_test,2024.2.0,59.911522662890064,2025-11-17 18h33.46.800266 +0530,
38,0,39,n,1.7832105999987107,None,39,0,38,400.5531804000002,,,,,,,,,,,,,,,,,,,,,,,,,,,,,,,,,,,,,,,,,,,,,,,,,,400.53925770000023,400.5531804000002,401.05591079999977,401.0374565000002,401.05369600000085,401.05591079999977,401.05591079999977,401.05591079999977,402.85522090000086,Foils\082a.jpg,none,n,1.7832105999987107,None,,,,,,,,00015,001,2025-11-17_18h33.40.554,MST_test,2024.2.0,59.911522662890064,2025-11-17 18h33.46.800266 +0530,
39,0,40,s,2.0971728000004077,None,40,0,39,402.86985410000125,,,,,,,,,,,,,,,,,,,,,,,,,,,,,,,,,,,,,,,,,,,,,,,,,,402.8556067999998,402.86985410000125,403.3738962000007,403.3544073000012,403.37142400000084,403.3738962000007,403.3738962000007,403.3738962000007,405.4881193000001,Objects\097b.jpg,pre,s,2.0971728000004077,None,,,,,,,,00015,001,2025-11-17_18h33.40.554,MST_test,2024.2.0,59.911522662890064,2025-11-17 18h33.46.800266 +0530,
40,0,41,s,1.851977899999838,None,41,0,40,405.50316660000135,,,,,,,,,,,,,,,,,,,,,,,,,,,,,,,,,,,,,,,,,,,,,,,,,,405.48854500000016,405.50316660000135,406.01134770000135,405.9874122000001,406.0085142000007,406.01134770000135,406.01134770000135,406.01134770000135,407.87204870000096,Scenes\091b.jpg,post,s,1.851977899999838,None,,,,,,,,00015,001,2025-11-17_18h33.40.554,MST_test,2024.2.0,59.911522662890064,2025-11-17 18h33.46.800266 +0530,
41,0,42,o,4.643675799999983,None,42,0,41,407.88659820000066,,,,,,,,,,,,,,,,,,,,,,,,,,,,,,,,,,,,,,,,,,,,,,,,,,407.8724086000002,407.88659820000066,408.38729280000007,408.37126100000023,408.37956490000033,408.38729280000007,408.38729280000007,408.38729280000007,413.03920990000006,Objects\098a.jpg,pre,o,4.643675799999983,None,,,,,,,,00015,001,2025-11-17_18h33.40.554,MST_test,2024.2.0,59.911522662890064,2025-11-17 18h33.46.800266 +0530,
42,0,43,o,4.485229399999298,None,43,0,42,413.05347470000015,,,,,,,,,,,,,,,,,,,,,,,,,,,,,,,,,,,,,,,,,,,,,,,,,,413.0395457000013,413.05347470000015,413.5534740000003,413.53768070000115,413.54476280000017,413.5534740000003,413.5534740000003,413.5534740000003,418.05576420000034,Objects\021a.jpg,mid,o,4.485229399999298,None,,,,,,,,00015,001,2025-11-17_18h33.40.554,MST_test,2024.2.0,59.911522662890064,2025-11-17 18h33.46.800266 +0530,
43,0,44,s,1.778630199998588,None,44,0,43,418.0701543000014,,,,,,,,,,,,,,,,,,,,,,,,,,,,,,,,,,,,,,,,,,,,,,,,,,418.05615580000085,418.0701543000014,418.5726364000002,418.55458759999965,418.5703355000005,418.5726364000002,418.5726364000002,418.5726364000002,420.35558090000086,Objects\135b.jpg,post,s,1.778630199998588,None,,,,,,,,00015,001,2025-11-17_18h33.40.554,MST_test,2024.2.0,59.911522662890064,2025-11-17 18h33.46.800266 +0530,
44,0,45,o,7.287340699998822,None,45,0,44,420.36983169999985,,,,,,,,,,,,,,,,,,,,,,,,,,,,,,,,,,,,,,,,,,,,,,,,,,420.35590179999963,420.36983169999985,420.8721036000006,420.85438910000084,420.8692607000012,420.8721036000006,420.8721036000006,420.8721036000006,428.17220629999974,Scenes\085a.jpg,post,o,7.287340699998822,None,,,,,,,,00015,001,2025-11-17_18h33.40.554,MST_test,2024.2.0,59.911522662890064,2025-11-17 18h33.46.800266 +0530,
45,0,46,s,4.9182387000000745,None,46,0,45,428.1865112000014,,,,,,,,,,,,,,,,,,,,,,,,,,,,,,,,,,,,,,,,,,,,,,,,,,428.1725686000009,428.1865112000014,428.6890060000005,428.6711152000007,428.68609470000047,428.6890060000005,428.6890060000005,428.6890060000005,433.62182910000047,Objects\131b.jpg,mid,s,4.9182387000000745,None,,,,,,,,00015,001,2025-11-17_18h33.40.554,MST_test,2024.2.0,59.911522662890064,2025-11-17 18h33.46.800266 +0530,
46,0,47,o,2.605860499999835,None,47,0,46,433.6364193999998,,,,,,,,,,,,,,,,,,,,,,,,,,,,,,,,,,,,,,,,,,,,,,,,,,433.6221830000013,433.6364193999998,434.13665480000054,434.12130679999973,434.12874870000087,434.13665480000054,434.13665480000054,434.13665480000054,436.75517410000066,Objects\108a.jpg,post,o,2.605860499999835,None,,,,,,,,00015,001,2025-11-17_18h33.40.554,MST_test,2024.2.0,59.911522662890064,2025-11-17 18h33.46.800266 +0530,
47,0,48,s,8.350473700000293,None,48,0,47,436.76996549999967,,,,,,,,,,,,,,,,,,,,,,,,,,,,,,,,,,,,,,,,,,,,,,,,,,436.75546659999964,436.76996549999967,437.27260190000015,437.254335900001,437.27016790000016,437.27260190000015,437.27260190000015,437.27260190000015,445.6391495000007,Objects\087b.jpg,mid,s,8.350473700000293,None,,,,,,,,00015,001,2025-11-17_18h33.40.554,MST_test,2024.2.0,59.911522662890064,2025-11-17 18h33.46.800266 +0530,
48,0,49,s,6.765581400000883,None,49,0,48,445.65336150000076,,,,,,,,,,,,,,,,,,,,,,,,,,,,,,,,,,,,,,,,,,,,,,,,,,445.6395099000001,445.65336150000076,446.1615890000012,446.13770020000084,446.15845679999984,446.1615890000012,446.1615890000012,446.1615890000012,452.93888920000063,Scenes\095b.jpg,mid,s,6.765581400000883,None,,,,,,,,00015,001,2025-11-17_18h33.40.554,MST_test,2024.2.0,59.911522662890064,2025-11-17 18h33.46.800266 +0530,
49,0,50,s,1.6881850000008853,None,50,0,49,452.95332489999964,,,,,,,,,,,,,,,,,,,,,,,,,,,,,,,,,,,,,,,,,,,,,,,,,,452.93924049999987,452.95332489999964,453.4547867000001,453.4376634,453.45171050000135,453.4547867000001,453.4547867000001,453.4547867000001,455.15575890000036,Objects\013b.jpg,pre,s,1.6881850000008853,None,,,,,,,,00015,001,2025-11-17_18h33.40.554,MST_test,2024.2.0,59.911522662890064,2025-11-17 18h33.46.800266 +0530,
50,0,51,o,8.289809500000047,None,51,0,50,455.16982970000026,,,,,,,,,,,,,,,,,,,,,,,,,,,,,,,,,,,,,,,,,,,,,,,,,,455.1561734000006,455.16982970000026,455.67019880000043,455.65472090000003,455.66302259999975,455.67019880000043,455.67019880000043,455.67019880000043,463.9721988000001,Objects\171a.jpg,mid,o,8.289809500000047,None,,,,,,,,00015,001,2025-11-17_18h33.40.554,MST_test,2024.2.0,59.911522662890064,2025-11-17 18h33.46.800266 +0530,
51,0,52,s,2.0799458999990748,None,52,0,51,463.98665390000133,,,,,,,,,,,,,,,,,,,,,,,,,,,,,,,,,,,,,,,,,,,,,,,,,,463.97256930000003,463.98665390000133,464.48675809999986,464.47102410000116,464.4780999000013,464.48675809999986,464.48675809999986,464.48675809999986,466.5725160000002,Objects\141a.jpg,pre,s,2.0799458999990748,None,,,,,,,,00015,001,2025-11-17_18h33.40.554,MST_test,2024.2.0,59.911522662890064,2025-11-17 18h33.46.800266 +0530,
52,0,53,s,6.04759120000017,None,53,0,52,466.5866225000009,,,,,,,,,,,,,,,,,,,,,,,,,,,,,,,,,,,,,,,,,,,,,,,,,,466.5729389999997,466.5866225000009,467.0870121000007,467.0711592000007,467.07956970000123,467.0870121000007,467.0870121000007,467.0870121000007,473.1389300999999,Objects\095a.jpg,mid,s,6.04759120000017,None,,,,,,,,00015,001,2025-11-17_18h33.40.554,MST_test,2024.2.0,59.911522662890064,2025-11-17 18h33.46.800266 +0530,
53,0,54,n,3.4688554999993357,None,54,0,53,473.1533577000009,,,,,,,,,,,,,,,,,,,,,,,,,,,,,,,,,,,,,,,,,,,,,,,,,,473.1393454000008,473.1533577000009,473.66644740000083,473.63785180000013,473.6634640000011,473.66644740000083,473.66644740000083,473.66644740000083,477.1390962000005,Foils\scenes22.jpg,none,n,3.4688554999993357,None,,,,,,,,00015,001,2025-11-17_18h33.40.554,MST_test,2024.2.0,59.911522662890064,2025-11-17 18h33.46.800266 +0530,
54,0,55,o,20.920589600000312,None,55,0,54,477.1533565999998,,,,,,,,,,,,,,,,,,,,,,,,,,,,,,,,,,,,,,,,,,,,,,,,,,477.1394517000008,477.1533565999998,477.65419269999984,477.6379386000008,477.6469560000005,477.65419269999984,477.65419269999984,477.65419269999984,498.5885838000013,Objects\024a.jpg,pre,o,20.920589600000312,None,,,,,,,,00015,001,2025-11-17_18h33.40.554,MST_test,2024.2.0,59.911522662890064,2025-11-17 18h33.46.800266 +0530,
55,0,56,n,3.297801200000322,None,56,0,55,498.60315470000023,,,,,,,,,,,,,,,,,,,,,,,,,,,,,,,,,,,,,,,,,,,,,,,,,,498.5889621000006,498.60315470000023,499.1255263000003,499.08705890000056,499.1227744000007,499.1255263000003,499.1255263000003,499.1255263000003,502.43890550000106,Foils\scenes30.jpg,none,n,3.297801200000322,None,,,,,,,,00015,001,2025-11-17_18h33.40.554,MST_test,2024.2.0,59.911522662890064,2025-11-17 18h33.46.800266 +0530,
56,0,57,n,2.5947563000008813,None,57,0,56,502.4533463000007,,,,,,,,,,,,,,,,,,,,,,,,,,,,,,,,,,,,,,,,,,,,,,,,,,502.43925800000034,502.4533463000007,502.9562179000004,502.9376987000014,502.95341010000084,502.9562179000004,502.9562179000004,502.9562179000004,505.5556718000007,Foils\057a.jpg,none,n,2.5947563000008813,None,,,,,,,,00015,001,2025-11-17_18h33.40.554,MST_test,2024.2.0,59.911522662890064,2025-11-17 18h33.46.800266 +0530,
57,0,58,s,3.1556628000016644,None,58,0,57,505.5698838999997,,,,,,,,,,,,,,,,,,,,,,,,,,,,,,,,,,,,,,,,,,,,,,,,,,505.5560664000004,505.5698838999997,506.0753242999999,506.05425840000134,506.0728678000014,506.0753242999999,506.0753242999999,506.0753242999999,509.23903020000034,Objects\096b.jpg,post,s,3.1556628000016644,None,,,,,,,,00015,001,2025-11-17_18h33.40.554,MST_test,2024.2.0,59.911522662890064,2025-11-17 18h33.46.800266 +0530,
58,0,59,s,4.477421000001414,None,59,0,58,509.25319670000135,,,,,,,,,,,,,,,,,,,,,,,,,,,,,,,,,,,,,,,,,,,,,,,,,,509.23940949999997,509.25319670000135,509.75386620000063,509.73746740000024,509.74919539999973,509.75386620000063,509.75386620000063,509.75386620000063,514.2389695000002,Scenes\150a.jpg,post,s,4.477421000001414,None,,,,,,,,00015,001,2025-11-17_18h33.40.554,MST_test,2024.2.0,59.911522662890064,2025-11-17 18h33.46.800266 +0530,
59,0,60,s,3.589358599998377,None,60,0,59,514.2532011000003,,,,,,,,,,,,,,,,,,,,,,,,,,,,,,,,,,,,,,,,,,,,,,,,,,514.2393418000011,514.2532011000003,514.7538701000012,514.7377991000012,514.7456504000002,514.7538701000012,514.7538701000012,514.7538701000012,518.3555933999996,Objects\055a.jpg,post,s,3.589358599998377,None,,,,,,,,00015,001,2025-11-17_18h33.40.554,MST_test,2024.2.0,59.911522662890064,2025-11-17 18h33.46.800266 +0530,
60,0,61,s,8.965901400000803,None,61,0,60,518.3698718000014,,,,,,,,,,,,,,,,,,,,,,,,,,,,,,,,,,,,,,,,,,,,,,,,,,518.3560361,518.3698718000014,518.8886985999998,518.8543504000008,518.8854221000001,518.8886985999998,518.8886985999998,518.8886985999998,527.8720470000007,Foils\scenes23.jpg,none,s,8.965901400000803,None,,,,,,,,00015,001,2025-11-17_18h33.40.554,MST_test,2024.2.0,59.911522662890064,2025-11-17 18h33.46.800266 +0530,
61,0,62,s,11.380792299998575,None,62,0,61,527.8865455000014,,,,,,,,,,,,,,,,,,,,,,,,,,,,,,,,,,,,,,,,,,,,,,,,,,527.872388400001,527.8865455000014,528.4018109999997,528.3711214000014,528.3992362000008,528.4018109999997,528.4018109999997,528.4018109999997,539.7887891999999,Scenes\011b.jpg,mid,s,11.380792299998575,None,,,,,,,,00015,001,2025-11-17_18h33.40.554,MST_test,2024.2.0,59.911522662890064,2025-11-17 18h33.46.800266 +0530,
62,0,63,n,2.4689290999995137,None,63,0,62,539.8031680000004,,,,,,,,,,,,,,,,,,,,,,,,,,,,,,,,,,,,,,,,,,,,,,,,,,539.7891693000001,539.8031680000004,540.3059939000013,540.2878419999997,540.303187200001,540.3059939000013,540.3059939000013,540.3059939000013,542.7890238,Foils\scenes16.jpg,none,n,2.4689290999995137,None,,,,,,,,00015,001,2025-11-17_18h33.40.554,MST_test,2024.2.0,59.911522662890064,2025-11-17 18h33.46.800266 +0530,
63,0,64,n,0.9806810999998561,None,64,0,63,542.8032433000008,,,,,,,,,,,,,,,,,,,,,,,,,,,,,,,,,,,,,,,,,,,,,,,,,,542.7894213,542.8032433000008,543.3705448000001,543.2877633000007,543.3665070000006,543.3705448000001,543.3705448000001,543.3705448000001,544.3555863000001,Foils\scenes25.jpg,none,n,0.9806810999998561,None,,,,,,,,00015,001,2025-11-17_18h33.40.554,MST_test,2024.2.0,59.911522662890064,2025-11-17 18h33.46.800266 +0530,
64,0,65,s,2.342800000000352,None,65,0,64,544.3698676000004,,,,,,,,,,,,,,,,,,,,,,,,,,,,,,,,,,,,,,,,,,,,,,,,,,544.3558938000006,544.3698676000004,544.9036561000012,544.8542266000004,544.8982274000009,544.9036561000012,544.9036561000012,544.9036561000012,547.2548690000003,Scenes\161b.jpg,mid,s,2.342800000000352,None,,,,,,,,00015,001,2025-11-17_18h33.40.554,MST_test,2024.2.0,59.911522662890064,2025-11-17 18h33.46.800266 +0530,
65,0,66,n,4.912643600000592,None,66,0,65,547.2699028000006,,,,,,,,,,,,,,,,,,,,,,,,,,,,,,,,,,,,,,,,,,,,,,,,,,547.2551699000014,547.2699028000006,547.7742470000012,547.7538645000004,547.7713222000002,547.7742470000012,547.7742470000012,547.7742470000012,552.6893713000009,Foils\050a.jpg,none,n,4.912643600000592,None,,,,,,,,00015,001,2025-11-17_18h33.40.554,MST_test,2024.2.0,59.911522662890064,2025-11-17 18h33.46.800266 +0530,
66,0,67,s,2.2101126999987173,None,67,0,66,552.7031836000006,,,,,,,,,,,,,,,,,,,,,,,,,,,,,,,,,,,,,,,,,,,,,,,,,,552.6897277000007,552.7031836000006,553.2051437000009,553.1877080000013,553.2024668000013,553.2051437000009,553.2051437000009,553.2051437000009,555.4223307000011,Objects\190b.jpg,mid,s,2.2101126999987173,None,,,,,,,,00015,001,2025-11-17_18h33.40.554,MST_test,2024.2.0,59.911522662890064,2025-11-17 18h33.46.800266 +0530,
67,0,68,s,1.2927892000006977,None,68,0,67,555.4365412000006,,,,,,,,,,,,,,,,,,,,,,,,,,,,,,,,,,,,,,,,,,,,,,,,,,555.4226501000012,555.4365412000006,555.9382511000003,555.9212213999999,555.9359077000008,555.9382511000003,555.9382511000003,555.9382511000003,557.2388275000012,Objects\146b.jpg,pre,s,1.2927892000006977,None,,,,,,,,00015,001,2025-11-17_18h33.40.554,MST_test,2024.2.0,59.911522662890064,2025-11-17 18h33.46.800266 +0530,
68,0,69,s,1.3323700999990251,None,69,0,68,557.2530404000008,,,,,,,,,,,,,,,,,,,,,,,,,,,,,,,,,,,,,,,,,,,,,,,,,,557.2391282999997,557.2530404000008,557.7541008999997,557.7377066000008,557.7518044999997,557.7541008999997,557.7541008999997,557.7541008999997,559.0885173000006,Objects\170b.jpg,post,s,1.3323700999990251,None,,,,,,,,00015,001,2025-11-17_18h33.40.554,MST_test,2024.2.0,59.911522662890064,2025-11-17 18h33.46.800266 +0530,
69,0,70,s,1.6344406999996863,None,70,0,69,559.1030234000009,,,,,,,,,,,,,,,,,,,,,,,,,,,,,,,,,,,,,,,,,,,,,,,,,,559.088793500001,559.1030234000009,559.6126227000004,559.5880979000012,559.6096549000013,559.6126227000004,559.6126227000004,559.6126227000004,561.2555895000005,Scenes\130b.jpg,pre,s,1.6344406999996863,None,,,,,,,,00015,001,2025-11-17_18h33.40.554,MST_test,2024.2.0,59.911522662890064,2025-11-17 18h33.46.800266 +0530,
70,0,71,n,5.825707699999839,None,71,0,70,561.2699047000006,,,,,,,,,,,,,,,,,,,,,,,,,,,,,,,,,,,,,,,,,,,,,,,,,,561.2559086000001,561.2699047000006,561.7812732000002,561.7542278000001,561.7779463000006,561.7812732000002,561.7812732000002,561.7812732000002,567.6222771000012,Foils\scenes28.jpg,none,n,5.825707699999839,None,,,,,,,,00015,001,2025-11-17_18h33.40.554,MST_test,2024.2.0,59.911522662890064,2025-11-17 18h33.46.800266 +0530,
71,0,72,o,8.964941100000942,None,72,0,71,567.6365217000002,,,,,,,,,,,,,,,,,,,,,,,,,,,,,,,,,,,,,,,,,,,,,,,,,,567.6226490000008,567.6365217000002,568.1379128999997,568.1209543000004,568.1330748,568.1379128999997,568.1379128999997,568.1379128999997,577.1052356,Scenes\021a.jpg,pre,o,8.964941100000942,None,,,,,,,,00015,001,2025-11-17_18h33.40.554,MST_test,2024.2.0,59.911522662890064,2025-11-17 18h33.46.800266 +0530,
72,0,73,o,3.682007600000361,None,73,0,72,577.1198636000008,,,,,,,,,,,,,,,,,,,,,,,,,,,,,,,,,,,,,,,,,,,,,,,,,,577.1055422000009,577.1198636000008,577.6205427000004,577.6044634000009,577.6130551000006,577.6205427000004,577.6205427000004,577.6205427000004,581.3056643,Objects\040a.jpg,mid,o,3.682007600000361,None,,,,,,,,00015,001,2025-11-17_18h33.40.554,MST_test,2024.2.0,59.911522662890064,2025-11-17 18h33.46.800266 +0530,
73,0,74,s,5.144008999999642,None,74,0,73,581.319902700001,,,,,,,,,,,,,,,,,,,,,,,,,,,,,,,,,,,,,,,,,,,,,,,,,,581.3060581000009,581.319902700001,581.8551582,581.8050813999998,581.8521084000004,581.8551582,581.8551582,581.8551582,587.0055484000004,Scenes\158b.jpg,pre,s,5.144008999999642,None,,,,,,,,00015,001,2025-11-17_18h33.40.554,MST_test,2024.2.0,59.911522662890064,2025-11-17 18h33.46.800266 +0530,
74,0,75,s,1.1068467999994027,None,75,0,74,587.0198829000001,,,,,,,,,,,,,,,,,,,,,,,,,,,,,,,,,,,,,,,,,,,,,,,,,,587.0059206000005,587.0198829000001,587.5237549000012,587.5043118000012,587.520773100001,587.5237549000012,587.5237549000012,587.5237549000012,588.6388139999999,Objects\166b.jpg,mid,s,1.1068467999994027,None,,,,,,,,00015,001,2025-11-17_18h33.40.554,MST_test,2024.2.0,59.911522662890064,2025-11-17 18h33.46.800266 +0530,
75,0,76,s,1.6772183000011864,None,76,0,75,588.6532652000005,,,,,,,,,,,,,,,,,,,,,,,,,,,,,,,,,,,,,,,,,,,,,,,,,,588.6391718000013,588.6532652000005,589.1618584999997,589.1376794000007,589.1590284000013,589.1618584999997,589.1618584999997,589.1618584999997,590.8558465000006,Scenes\178b.jpg,pre,s,1.6772183000011864,None,,,,,,,,00015,001,2025-11-17_18h33.40.554,MST_test,2024.2.0,59.911522662890064,2025-11-17 18h33.46.800266 +0530,
76,0,77,s,3.961586299999908,None,77,0,76,590.8697830000001,,,,,,,,,,,,,,,,,,,,,,,,,,,,,,,,,,,,,,,,,,,,,,,,,,590.8562567000008,590.8697830000001,591.3809019,591.3544672000007,591.3778570000013,591.3809019,591.3809019,591.3809019,595.3551717000009,Scenes\044b.jpg,post,s,3.961586299999908,None,,,,,,,,00015,001,2025-11-17_18h33.40.554,MST_test,2024.2.0,59.911522662890064,2025-11-17 18h33.46.800266 +0530,
77,0,78,o,9.064485299999433,None,78,0,77,595.369727700001,,,,,,,,,,,,,,,,,,,,,,,,,,,,,,,,,,,,,,,,,,,,,,,,,,595.3555226000008,595.369727700001,595.8703886000003,595.8544669000003,595.8615313999999,595.8703886000003,595.8703886000003,595.8703886000003,604.9385132000007,Objects\084a.jpg,mid,o,9.064485299999433,None,,,,,,,,00015,001,2025-11-17_18h33.40.554,MST_test,2024.2.0,59.911522662890064,2025-11-17 18h33.46.800266 +0530,
78,0,79,o,5.577801800000088,None,79,0,78,604.9532999000003,,,,,,,,,,,,,,,,,,,,,,,,,,,,,,,,,,,,,,,,,,,,,,,,,,604.9387788000004,604.9532999000003,605.4533757000008,605.4377655999997,605.4443630000005,605.4533757000008,605.4533757000008,605.4533757000008,611.0391821000012,Objects\028a.jpg,post,o,5.577801800000088,None,,,,,,,,00015,001,2025-11-17_18h33.40.554,MST_test,2024.2.0,59.911522662890064,2025-11-17 18h33.46.800266 +0530,
79,0,80,s,5.453404300000329,None,80,0,79,611.0531967000006,,,,,,,,,,,,,,,,,,,,,,,,,,,,,,,,,,,,,,,,,,,,,,,,,,611.0395004000002,611.0531967000006,611.5535168000006,611.5377917000005,611.5454386000001,611.5535168000006,611.5535168000006,611.5535168000006,617.0223559000005,Objects\130a.jpg,pre,s,5.453404300000329,None,,,,,,,,00015,001,2025-11-17_18h33.40.554,MST_test,2024.2.0,59.911522662890064,2025-11-17 18h33.46.800266 +0530,
80,0,81,o,3.7015000999999756,None,81,0,80,617.036462,,,,,,,,,,,,,,,,,,,,,,,,,,,,,,,,,,,,,,,,,,,,,,,,,,617.0227211000001,617.036462,617.5370757000001,617.5210196000007,617.5324496000012,617.5370757000001,617.5370757000001,617.5370757000001,621.2552586000002,Scenes\123a.jpg,post,o,3.7015000999999756,None,,,,,,,,00015,001,2025-11-17_18h33.40.554,MST_test,2024.2.0,59.911522662890064,2025-11-17 18h33.46.800266 +0530,
81,0,82,n,1.9238084999997227,None,82,0,81,621.2697224000003,,,,,,,,,,,,,,,,,,,,,,,,,,,,,,,,,,,,,,,,,,,,,,,,,,621.2555988000004,621.2697224000003,621.7712449999999,621.7542681000014,621.7681716000006,621.7712449999999,621.7712449999999,621.7712449999999,623.7051191999999,Foils\074a.jpg,none,n,1.9238084999997227,None,,,,,,,,00015,001,2025-11-17_18h33.40.554,MST_test,2024.2.0,59.911522662890064,2025-11-17 18h33.46.800266 +0530,
82,0,83,o,4.048811900000146,None,83,0,82,623.7197035999998,,,,,,,,,,,,,,,,,,,,,,,,,,,,,,,,,,,,,,,,,,,,,,,,,,623.7054672000013,623.7197035999998,624.2217868999996,624.2045509,624.2190429000002,624.2217868999996,624.2217868999996,624.2217868999996,628.2723423000007,Scenes\059a.jpg,post,o,4.048811900000146,None,,,,,,,,00015,001,2025-11-17_18h33.40.554,MST_test,2024.2.0,59.911522662890064,2025-11-17 18h33.46.800266 +0530,
83,0,84,o,4.402731899999708,None,84,0,83,628.2865035000013,,,,,,,,,,,,,,,,,,,,,,,,,,,,,,,,,,,,,,,,,,,,,,,,,,628.2727293999997,628.2865035000013,628.789018200001,628.7708626000003,628.7859299000011,628.789018200001,628.789018200001,628.789018200001,633.2045048,Objects\126b.jpg,mid,o,4.402731899999708,None,,,,,,,,00015,001,2025-11-17_18h33.40.554,MST_test,2024.2.0,59.911522662890064,2025-11-17 18h33.46.800266 +0530,
84,0,85,s,8.566501999999673,None,85,0,84,633.2196590000003,,,,,,,,,,,,,,,,,,,,,,,,,,,,,,,,,,,,,,,,,,,,,,,,,,633.2047261999996,633.2196590000003,633.7282818000003,633.7042191,633.725475700001,633.7282818000003,633.7282818000003,633.7282818000003,642.3055597000002,Scenes\124b.jpg,post,s,8.566501999999673,None,,,,,,,,00015,001,2025-11-17_18h33.40.554,MST_test,2024.2.0,59.911522662890064,2025-11-17 18h33.46.800266 +0530,
85,0,86,o,4.0190882999995665,None,86,0,85,642.3197450000007,,,,,,,,,,,,,,,,,,,,,,,,,,,,,,,,,,,,,,,,,,,,,,,,,,642.3059333000001,642.3197450000007,642.8204041000008,642.8043684000004,642.8140288000013,642.8204041000008,642.8204041000008,642.8204041000008,646.8553807999997,Scenes\175a.jpg,pre,o,4.0190882999995665,None,,,,,,,,00015,001,2025-11-17_18h33.40.554,MST_test,2024.2.0,59.911522662890064,2025-11-17 18h33.46.800266 +0530,
86,0,87,o,5.281549299999824,None,87,0,86,646.8697484000004,,,,,,,,,,,,,,,,,,,,,,,,,,,,,,,,,,,,,,,,,,,,,,,,,,646.8557701999998,646.8697484000004,647.3739505000012,647.3542625999999,647.3711352000009,647.3739505000012,647.3739505000012,647.3739505000012,652.6720256000008,Scenes\022b.jpg,pre,o,5.281549299999824,None,,,,,,,,00015,001,2025-11-17_18h33.40.554,MST_test,2024.2.0,59.911522662890064,2025-11-17 18h33.46.800266 +0530,
87,0,88,o,2.700181199999861,None,88,0,87,652.6865369000006,,,,,,,,,,,,,,,,,,,,,,,,,,,,,,,,,,,,,,,,,,,,,,,,,,652.6723500000007,652.6865369000006,653.1871571000011,653.170961400001,653.180661800001,653.1871571000011,653.1871571000011,653.1871571000011,655.8894583000001,Objects\039a.jpg,post,o,2.700181199999861,None,,,,,,,,00015,001,2025-11-17_18h33.40.554,MST_test,2024.2.0,59.911522662890064,2025-11-17 18h33.46.800266 +0530,
88,0,89,o,3.7477712999989308,None,89,0,88,655.9031759999998,,,,,,,,,,,,,,,,,,,,,,,,,,,,,,,,,,,,,,,,,,,,,,,,,,655.8898812000007,655.9031759999998,656.4033930000005,656.3876755000001,656.393822,656.4033930000005,656.4033930000005,656.4033930000005,660.1557312000004,Objects\007a.jpg,mid,o,3.7477712999989308,None,,,,,,,,00015,001,2025-11-17_18h33.40.554,MST_test,2024.2.0,59.911522662890064,2025-11-17 18h33.46.800266 +0530,
89,0,90,s,12.792391000000862,None,90,0,89,660.1697261999998,,,,,,,,,,,,,,,,,,,,,,,,,,,,,,,,,,,,,,,,,,,,,,,,,,660.1560743999999,660.1697261999998,660.670399300001,660.6543117000001,660.6656309000009,660.670399300001,660.670399300001,660.670399300001,673.4718623999997,Scenes\168a.jpg,mid,s,12.792391000000862,None,,,,,,,,00015,001,2025-11-17_18h33.40.554,MST_test,2024.2.0,59.911522662890064,2025-11-17 18h33.46.800266 +0530,
90,0,91,s,1.4675872000007075,None,91,0,90,673.4862494999998,,,,,,,,,,,,,,,,,,,,,,,,,,,,,,,,,,,,,,,,,,,,,,,,,,673.4722512000008,673.4862494999998,673.9873404999998,673.9709510000012,673.9836090999997,673.9873404999998,673.9873404999998,673.9873404999998,675.4722364999998,Scenes\050a.jpg,mid,s,1.4675872000007075,None,,,,,,,,00015,001,2025-11-17_18h33.40.554,MST_test,2024.2.0,59.911522662890064,2025-11-17 18h33.46.800266 +0530,
91,0,92,o,2.0357650999994803,None,92,0,91,675.4865831000006,,,,,,,,,,,,,,,,,,,,,,,,,,,,,,,,,,,,,,,,,,,,,,,,,,675.4726076000006,675.4865831000006,675.9871671000001,675.9697735000009,675.9767466000012,675.9871671000001,675.9871671000001,675.9871671000001,678.0385157000001,Scenes\188a.jpg,post,o,2.0357650999994803,None,,,,,,,,00015,001,2025-11-17_18h33.40.554,MST_test,2024.2.0,59.911522662890064,2025-11-17 18h33.46.800266 +0530,
92,0,93,s,5.50107349999962,None,93,0,92,678.0530629000004,,,,,,,,,,,,,,,,,,,,,,,,,,,,,,,,,,,,,,,,,,,,,,,,,,678.0388670000011,678.0530629000004,678.5539024999998,678.537618100001,678.5447301000004,678.5539024999998,678.5539024999998,678.5539024999998,684.0716988000004,Objects\075a.jpg,mid,s,5.50107349999962,None,,,,,,,,00015,001,2025-11-17_18h33.40.554,MST_test,2024.2.0,59.911522662890064,2025-11-17 18h33.46.800266 +0530,
93,0,94,n,3.9831983000003675,None,94,0,93,684.0865867000011,,,,,,,,,,,,,,,,,,,,,,,,,,,,,,,,,,,,,,,,,,,,,,,,,,684.0720314000009,684.0865867000011,684.5914479000003,684.5726402,684.5887316999997,684.5914479000003,684.5914479000003,684.5914479000003,688.5892500000009,Foils\scenes6.jpg,none,n,3.9831983000003675,None,,,,,,,,00015,001,2025-11-17_18h33.40.554,MST_test,2024.2.0,59.911522662890064,2025-11-17 18h33.46.800266 +0530,
94,0,95,s,1.9732038000001921,None,95,0,94,688.6033855000005,,,,,,,,,,,,,,,,,,,,,,,,,,,,,,,,,,,,,,,,,,,,,,,,,,688.589624100001,688.6033855000005,689.1133784000012,689.0878957000004,689.1105900000002,689.1133784000012,689.1133784000012,689.1133784000012,691.0891346000008,Scenes\041b.jpg,pre,s,1.9732038000001921,None,,,,,,,,00015,001,2025-11-17_18h33.40.554,MST_test,2024.2.0,59.911522662890064,2025-11-17 18h33.46.800266 +0530,
95,0,96,s,6.806770099999994,None,96,0,95,691.1030650000012,,,,,,,,,,,,,,,,,,,,,,,,,,,,,,,,,,,,,,,,,,,,,,,,,,691.0894518000005,691.1030650000012,691.6157837999999,691.5879307000014,691.6126745000001,691.6157837999999,691.6157837999999,691.6157837999999,698.4374334000004,Scenes\026b.jpg,mid,s,6.806770099999994,None,,,,,,,,00015,001,2025-11-17_18h33.40.554,MST_test,2024.2.0,59.911522662890064,2025-11-17 18h33.46.800266 +0530,
96,0,97,s,3.464769600001091,None,97,0,96,698.4532236000014,,,,,,,,,,,,,,,,,,,,,,,,,,,,,,,,,,,,,,,,,,,,,,,,,,698.4375891,698.4532236000014,698.9580057000003,698.9377170999996,698.9548019000013,698.9580057000003,698.9580057000003,698.9580057000003,702.4400489,Objects\113b.jpg,pre,s,3.464769600001091,None,,,,,,,,00015,001,2025-11-17_18h33.40.554,MST_test,2024.2.0,59.911522662890064,2025-11-17 18h33.46.800266 +0530,
97,0,98,n,5.0611232000010205,None,98,0,97,702.4532974000012,,,,,,,,,,,,,,,,,,,,,,,,,,,,,,,,,,,,,,,,,,,,,,,,,,702.4403113000008,702.4532974000012,702.9539696000011,702.9379912000004,702.9512448000005,702.9539696000011,702.9539696000011,702.9539696000011,708.0223951999997,Foils\scenes2.jpg,none,n,5.0611232000010205,None,,,,,,,,00015,001,2025-11-17_18h33.40.554,MST_test,2024.2.0,59.911522662890064,2025-11-17 18h33.46.800266 +0530,
98,0,99,n,3.6184635999998136,None,99,0,98,708.0366672,,,,,,,,,,,,,,,,,,,,,,,,,,,,,,,,,,,,,,,,,,,,,,,,,,708.0227783999999,708.0366672,708.5402959000003,708.5212569000014,708.5377550000012,708.5402959000003,708.5402959000003,708.5402959000003,712.1721665000005,Foils\scenes7.jpg,none,n,3.6184635999998136,None,,,,,,,,00015,001,2025-11-17_18h33.40.554,MST_test,2024.2.0,59.911522662890064,2025-11-17 18h33.46.800266 +0530,
99,0,100,n,1.685322699999233,None,100,0,99,712.1867822000004,,,,,,,,,,,,,,,,,,,,,,,,,,,,,,,,,,,,,,,,,,,,,,,,,,712.1725431000013,712.1867822000004,712.6898545000004,712.6710975000005,712.6871393000001,712.6898545000004,712.6898545000004,712.6898545000004,714.3892090999998,Foils\106a.jpg,none,n,1.685322699999233,None,,,,,,,,00015,001,2025-11-17_18h33.40.554,MST_test,2024.2.0,59.911522662890064,2025-11-17 18h33.46.800266 +0530,
100,0,101,o,3.4870006999990437,None,101,0,100,714.4033556000013,,,,,,,,,,,,,,,,,,,,,,,,,,,,,,,,,,,,,,,,,,,,,,,,,,714.3895983000002,714.4033556000013,714.9034387000011,714.8878815999997,714.8951358000013,714.9034387000011,714.9034387000011,714.9034387000011,718.405321100001,Objects\125a.jpg,post,o,3.4870006999990437,None,,,,,,,,00015,001,2025-11-17_18h33.40.554,MST_test,2024.2.0,59.911522662890064,2025-11-17 18h33.46.800266 +0530,
101,0,102,s,5.379822400000194,None,102,0,101,718.4196744000001,,,,,,,,,,,,,,,,,,,,,,,,,,,,,,,,,,,,,,,,,,,,,,,,,,718.4057155999999,718.4196744000001,718.9231966000007,718.9046116000009,718.9208240000007,718.9231966000007,718.9231966000007,718.9231966000007,724.3061600000001,Objects\058b.jpg,post,s,5.379822400000194,None,,,,,,,,00015,001,2025-11-17_18h33.40.554,MST_test,2024.2.0,59.911522662890064,2025-11-17 18h33.46.800266 +0530,
102,0,103,s,2.210408599999937,None,103,0,102,724.3199044000012,,,,,,,,,,,,,,,,,,,,,,,,,,,,,,,,,,,,,,,,,,,,,,,,,,724.3065736000008,724.3199044000012,724.8203224999997,724.8044403000004,724.8147867000007,724.8203224999997,724.8203224999997,724.8203224999997,727.0387327999997,Scenes\152a.jpg,mid,s,2.210408599999937,None,,,,,,,,00015,001,2025-11-17_18h33.40.554,MST_test,2024.2.0,59.911522662890064,2025-11-17 18h33.46.800266 +0530,
103,0,104,o,2.69311320000088,None,104,0,103,727.0532879000002,,,,,,,,,,,,,,,,,,,,,,,,,,,,,,,,,,,,,,,,,,,,,,,,,,727.0390888000002,727.0532879000002,727.5539079000009,727.5377033000004,727.5470230999999,727.5539079000009,727.5539079000009,727.5539079000009,730.2553504000007,Objects\106a.jpg,post,o,2.69311320000088,None,,,,,,,,00015,001,2025-11-17_18h33.40.554,MST_test,2024.2.0,59.911522662890064,2025-11-17 18h33.46.800266 +0530,
104,0,105,n,2.6658236000002944,None,105,0,104,730.2697315000005,,,,,,,,,,,,,,,,,,,,,,,,,,,,,,,,,,,,,,,,,,,,,,,,,,730.2557350000006,730.2697315000005,730.7727817000014,730.7543734999999,730.7704124000011,730.7727817000014,730.7727817000014,730.7727817000014,733.4556474000001,Foils\086a.jpg,none,n,2.6658236000002944,None,,,,,,,,00015,001,2025-11-17_18h33.40.554,MST_test,2024.2.0,59.911522662890064,2025-11-17 18h33.46.800266 +0530,
105,0,106,s,2.874712200000431,None,106,0,105,733.4697875000002,,,,,,,,,,,,,,,,,,,,,,,,,,,,,,,,,,,,,,,,,,,,,,,,,,733.4559616000006,733.4697875000002,733.9720440000001,733.9544588000008,733.9693426000013,733.9720440000001,733.9720440000001,733.9720440000001,736.8545075000002,Scenes\142a.jpg,pre,s,2.874712200000431,None,,,,,,,,00015,001,2025-11-17_18h33.40.554,MST_test,2024.2.0,59.911522662890064,2025-11-17 18h33.46.800266 +0530,
106,0,107,s,5.0179676999996445,None,107,0,106,736.8696184,,,,,,,,,,,,,,,,,,,,,,,,,,,,,,,,,,,,,,,,,,,,,,,,,,736.8546911000012,736.8696184,737.3728912000006,737.3544656000013,737.3701591000008,737.3728912000006,737.3728912000006,737.3728912000006,742.4056407000007,Objects\052b.jpg,post,s,5.0179676999996445,None,,,,,,,,00015,001,2025-11-17_18h33.40.554,MST_test,2024.2.0,59.911522662890064,2025-11-17 18h33.46.800266 +0530,
107,0,108,s,2.907131900001332,None,108,0,107,742.4198806000004,,,,,,,,,,,,,,,,,,,,,,,,,,,,,,,,,,,,,,,,,,,,,,,,,,742.4060501000004,742.4198806000004,742.9241117000001,742.9046834000001,742.9218087000008,742.9241117000001,742.9241117000001,742.9241117000001,745.8390231000012,Objects\124b.jpg,mid,s,2.907131900001332,None,,,,,,,,00015,001,2025-11-17_18h33.40.554,MST_test,2024.2.0,59.911522662890064,2025-11-17 18h33.46.800266 +0530,
108,0,109,o,3.757901800001491,None,109,0,108,745.8532069000012,,,,,,,,,,,,,,,,,,,,,,,,,,,,,,,,,,,,,,,,,,,,,,,,,,745.8394261000012,745.8532069000012,746.3534529000008,746.3380678000012,746.3447902999997,746.3534529000008,746.3534529000008,746.3534529000008,750.1219183000012,Objects\107a.jpg,pre,o,3.757901800001491,None,,,,,,,,00015,001,2025-11-17_18h33.40.554,MST_test,2024.2.0,59.911522662890064,2025-11-17 18h33.46.800266 +0530,
109,0,110,o,2.026403500000015,None,110,0,109,750.1364903000012,,,,,,,,,,,,,,,,,,,,,,,,,,,,,,,,,,,,,,,,,,,,,,,,,,750.1223306000011,750.1364903000012,750.6367177000011,750.621004300001,750.6300557000013,750.6367177000011,750.6367177000011,750.6367177000011,752.6718540000002,Objects\011a.jpg,pre,o,2.026403500000015,None,,,,,,,,00015,001,2025-11-17_18h33.40.554,MST_test,2024.2.0,59.911522662890064,2025-11-17 18h33.46.800266 +0530,
110,0,111,n,3.754250100000718,None,111,0,110,752.6865684000004,,,,,,,,,,,,,,,,,,,,,,,,,,,,,,,,,,,,,,,,,,,,,,,,,,752.6721410000009,752.6865684000004,753.1886044000003,753.1707121,753.1861984000006,753.1886044000003,753.1886044000003,753.1886044000003,756.9557093000003,Objects\114b.jpg,post,n,3.754250100000718,None,,,,,,,,00015,001,2025-11-17_18h33.40.554,MST_test,2024.2.0,59.911522662890064,2025-11-17 18h33.46.800266 +0530,
111,0,112,n,2.5522317000013572,None,112,0,111,756.9697022,,,,,,,,,,,,,,,,,,,,,,,,,,,,,,,,,,,,,,,,,,,,,,,,,,756.9560065000005,756.9697022,757.4708821000004,757.4546726999997,757.4685077000013,757.4708821000004,757.4708821000004,757.4708821000004,760.0391251000001,Foils\009a.jpg,none,n,2.5522317000013572,None,,,,,,,,00015,001,2025-11-17_18h33.40.554,MST_test,2024.2.0,59.911522662890064,2025-11-17 18h33.46.800266 +0530,
112,0,113,n,1.4611227000004874,None,113,0,112,760.0534370000005,,,,,,,,,,,,,,,,,,,,,,,,,,,,,,,,,,,,,,,,,,,,,,,,,,760.0394488000002,760.0534370000005,760.5536361000013,760.5378239000001,760.5506452000009,760.5536361000013,760.5536361000013,760.5536361000013,762.0217931000007,Foils\scenes18.jpg,none,n,1.4611227000004874,None,,,,,,,,00015,001,2025-11-17_18h33.40.554,MST_test,2024.2.0,59.911522662890064,2025-11-17 18h33.46.800266 +0530,
113,0,114,o,3.7610230000009324,None,114,0,113,762.0365012000002,,,,,,,,,,,,,,,,,,,,,,,,,,,,,,,,,,,,,,,,,,,,,,,,,,762.0221351,762.0365012000002,762.5500783000007,762.5207788000007,762.5473472000012,762.5500783000007,762.5500783000007,762.5500783000007,766.3222188,Scenes\092b.jpg,post,o,3.7610230000009324,None,,,,,,,,00015,001,2025-11-17_18h33.40.554,MST_test,2024.2.0,59.911522662890064,2025-11-17 18h33.46.800266 +0530,
114,0,115,s,6.07467700000052,None,115,0,114,766.3365197000003,,,,,,,,,,,,,,,,,,,,,,,,,,,,,,,,,,,,,,,,,,,,,,,,,,766.3225867000001,766.3365197000003,766.8441875000008,766.8208983000004,766.8411682000005,766.8441875000008,766.8441875000008,766.8441875000008,772.9218949000006,Scenes\080b.jpg,mid,s,6.07467700000052,None,,,,,,,,00015,001,2025-11-17_18h33.40.554,MST_test,2024.2.0,59.911522662890064,2025-11-17 18h33.46.800266 +0530,
115,0,116,o,3.021565600000031,None,116,0,115,772.9365190000008,,,,,,,,,,,,,,,,,,,,,,,,,,,,,,,,,,,,,,,,,,,,,,,,,,772.9222750000008,772.9365190000008,773.4418192000012,773.4208779,773.4389025,773.4418192000012,773.4418192000012,773.4418192000012,776.4718475999998,Scenes\036b.jpg,pre,o,3.021565600000031,None,,,,,,,,00015,001,2025-11-17_18h33.40.554,MST_test,2024.2.0,59.911522662890064,2025-11-17 18h33.46.800266 +0530,
116,0,117,o,2.763521299999411,None,117,0,116,776.4864758000003,,,,,,,,,,,,,,,,,,,,,,,,,,,,,,,,,,,,,,,,,,,,,,,,,,776.4722153000002,776.4864758000003,776.9872298000009,776.9713408000007,776.9804530000001,776.9872298000009,776.9872298000009,776.9872298000009,779.7555556000007,Objects\045a.jpg,pre,o,2.763521299999411,None,,,,,,,,00015,001,2025-11-17_18h33.40.554,MST_test,2024.2.0,59.911522662890064,2025-11-17 18h33.46.800266 +0530,
117,0,118,n,1.5051457000008668,None,118,0,117,779.7696594000008,,,,,,,,,,,,,,,,,,,,,,,,,,,,,,,,,,,,,,,,,,,,,,,,,,779.7559237000005,779.7696594000008,780.2702188000003,780.2543500000011,780.2609675000003,780.2702188000003,780.2702188000003,780.2702188000003,781.7892921000002,Foils\scenes8.jpg,none,n,1.5051457000008668,None,,,,,,,,00015,001,2025-11-17_18h33.40.554,MST_test,2024.2.0,59.911522662890064,2025-11-17 18h33.46.800266 +0530,
118,0,119,o,6.256438500000513,None,119,0,118,781.8035249000004,,,,,,,,,,,,,,,,,,,,,,,,,,,,,,,,,,,,,,,,,,,,,,,,,,781.7896735000013,781.8035249000004,782.3108308999999,782.2879539000005,782.3079968000002,782.3108308999999,782.3108308999999,782.3108308999999,788.5719225000012,Scenes\014b.jpg,pre,o,6.256438500000513,None,,,,,,,,00015,001,2025-11-17_18h33.40.554,MST_test,2024.2.0,59.911522662890064,2025-11-17 18h33.46.800266 +0530,
119,0,120,o,3.1171759000008024,None,120,0,119,788.5865535000012,,,,,,,,,,,,,,,,,,,,,,,,,,,,,,,,,,,,,,,,,,,,,,,,,,788.5723328000004,788.5865535000012,789.0902169000001,789.0709709000002,789.0873776999997,789.0902169000001,789.0902169000001,789.0902169000001,792.2220120000002,Scenes\143a.jpg,pre,o,3.1171759000008024,None,,,,,,,,00015,001,2025-11-17_18h33.40.554,MST_test,2024.2.0,59.911522662890064,2025-11-17 18h33.46.800266 +0530,
120,0,121,s,4.818680000000313,None,121,0,120,792.2364539000009,,,,,,,,,,,,,,,,,,,,,,,,,,,,,,,,,,,,,,,,,,,,,,,,,,792.2224010000009,792.2364539000009,792.7408486000004,792.7211218000011,792.737978000001,792.7408486000004,792.7408486000004,792.7408486000004,797.5722977000005,Objects\179b.jpg,pre,s,4.818680000000313,None,,,,,,,,00015,001,2025-11-17_18h33.40.554,MST_test,2024.2.0,59.911522662890064,2025-11-17 18h33.46.800266 +0530,
121,0,122,o,2.142320599999948,None,122,0,121,797.5866131000002,,,,,,,,,,,,,,,,,,,,,,,,,,,,,,,,,,,,,,,,,,,,,,,,,,797.5727009000002,797.5866131000002,798.089086,798.0707505000009,798.0862981999999,798.089086,798.089086,798.089086,800.2391360000001,Scenes\187a.jpg,mid,o,2.142320599999948,None,,,,,,,,00015,001,2025-11-17_18h33.40.554,MST_test,2024.2.0,59.911522662890064,2025-11-17 18h33.46.800266 +0530,
122,0,123,s,1.8562640000000101,None,123,0,122,800.2534215000014,,,,,,,,,,,,,,,,,,,,,,,,,,,,,,,,,,,,,,,,,,,,,,,,,,800.2395242000002,800.2534215000014,800.7582515000013,800.7379304000006,800.7552746000001,800.7582515000013,800.7582515000013,800.7582515000013,802.6223924000005,Objects\174b.jpg,pre,s,1.8562640000000101,None,,,,,,,,00015,001,2025-11-17_18h33.40.554,MST_test,2024.2.0,59.911522662890064,2025-11-17 18h33.46.800266 +0530,
123,0,124,s,1.9077820000002248,None,124,0,123,802.6368031000002,,,,,,,,,,,,,,,,,,,,,,,,,,,,,,,,,,,,,,,,,,,,,,,,,,802.6227424999997,802.6368031000002,803.1466419000008,803.1210900000005,803.1436931999997,803.1466419000008,803.1466419000008,803.1466419000008,805.0563209000011,Scenes\100b.jpg,post,s,1.9077820000002248,None,,,,,,,,00015,001,2025-11-17_18h33.40.554,MST_test,2024.2.0,59.911522662890064,2025-11-17 18h33.46.800266 +0530,
124,0,125,n,2.7150022000005265,None,125,0,124,805.0699839000008,,,,,,,,,,,,,,,,,,,,,,,,,,,,,,,,,,,,,,,,,,,,,,,,,,805.0566878000009,805.0699839000008,805.5726000000013,805.5545046000007,805.5696298000003,805.5726000000013,805.5726000000013,805.5726000000013,808.2896851000005,Foils\scenes4.jpg,none,n,2.7150022000005265,None,,,,,,,,00015,001,2025-11-17_18h33.40.554,MST_test,2024.2.0,59.911522662890064,2025-11-17 18h33.46.800266 +0530,
125,0,126,o,2.6545578000004753,None,126,0,125,808.3032609000002,,,,,,,,,,,,,,,,,,,,,,,,,,,,,,,,,,,,,,,,,,,,,,,,,,808.2900282999999,808.3032609000002,808.8082083000008,808.7880634000012,808.8053452000004,808.8082083000008,808.8082083000008,808.8082083000008,811.4728353999999,Scenes\034a.jpg,post,o,2.6545578000004753,None,,,,,,,,00015,001,2025-11-17_18h33.40.554,MST_test,2024.2.0,59.911522662890064,2025-11-17 18h33.46.800266 +0530,
126,0,127,o,4.371532400000433,None,127,0,126,811.4867398000006,,,,,,,,,,,,,,,,,,,,,,,,,,,,,,,,,,,,,,,,,,,,,,,,,,811.4731642000006,811.4867398000006,811.9876172000004,811.970148800001,811.9744057000007,811.9876172000004,811.9876172000004,811.9876172000004,816.3722751000005,Objects\061a.jpg,post,o,4.371532400000433,None,,,,,,,,00015,001,2025-11-17_18h33.40.554,MST_test,2024.2.0,59.911522662890064,2025-11-17 18h33.46.800266 +0530,
127,0,128,o,1.52312720000009,None,128,0,127,816.3867797000003,,,,,,,,,,,,,,,,,,,,,,,,,,,,,,,,,,,,,,,,,,,,,,,,,,816.3726630000001,816.3867797000003,816.8917926000013,816.8714094000006,816.8891553000012,816.8917926000013,816.8917926000013,816.8917926000013,818.4225160000005,Objects\085b.jpg,post,o,1.52312720000009,None,,,,,,,,00015,001,2025-11-17_18h33.40.554,MST_test,2024.2.0,59.911522662890064,2025-11-17 18h33.46.800266 +0530,
128,0,129,s,1.9710408999999345,None,129,0,128,818.4367854000011,,,,,,,,,,,,,,,,,,,,,,,,,,,,,,,,,,,,,,,,,,,,,,,,,,818.4228803000005,818.4367854000011,818.9401373000001,818.9210588000005,818.9375629000006,818.9401373000001,818.9401373000001,818.9401373000001,820.9217991000005,Objects\082b.jpg,pre,s,1.9710408999999345,None,,,,,,,,00015,001,2025-11-17_18h33.40.554,MST_test,2024.2.0,59.911522662890064,2025-11-17 18h33.46.800266 +0530,
129,0,130,n,1.5773435000010068,None,130,0,129,820.9367355000013,,,,,,,,,,,,,,,,,,,,,,,,,,,,,,,,,,,,,,,,,,,,,,,,,,820.9221100000013,820.9367355000013,821.4381252000003,821.4211169000009,821.435479400001,821.4381252000003,821.4381252000003,821.4381252000003,823.0210019000006,Foils\010a.jpg,none,n,1.5773435000010068,None,,,,,,,,00015,001,2025-11-17_18h33.40.554,MST_test,2024.2.0,59.911522662890064,2025-11-17 18h33.46.800266 +0530,
130,0,131,o,1.8452409000001353,None,131,0,130,823.0362975999997,,,,,,,,,,,,,,,,,,,,,,,,,,,,,,,,,,,,,,,,,,,,,,,,,,823.0211359000004,823.0362975999997,823.5373016000012,823.5208769000001,823.5318182999999,823.5373016000012,823.5373016000012,823.5373016000012,825.3887544999998,Scenes\052a.jpg,pre,o,1.8452409000001353,None,,,,,,,,00015,001,2025-11-17_18h33.40.554,MST_test,2024.2.0,59.911522662890064,2025-11-17 18h33.46.800266 +0530,
131,0,132,o,3.4466757999998663,None,132,0,131,825.403296800001,,,,,,,,,,,,,,,,,,,,,,,,,,,,,,,,,,,,,,,,,,,,,,,,,,825.3891512999999,825.403296800001,825.9040401000002,825.8876753000004,825.9007296,825.9040401000002,825.9040401000002,825.9040401000002,829.3553306000013,Scenes\071a.jpg,mid,o,3.4466757999998663,None,,,,,,,,00015,001,2025-11-17_18h33.40.554,MST_test,2024.2.0,59.911522662890064,2025-11-17 18h33.46.800266 +0530,
132,0,133,s,5.208607399999892,None,133,0,132,829.369782400001,,,,,,,,,,,,,,,,,,,,,,,,,,,,,,,,,,,,,,,,,,,,,,,,,,829.3556423000009,829.369782400001,829.8703999999998,829.8543543000014,829.8638967000006,829.8703999999998,829.8703999999998,829.8703999999998,835.0879167000003,Foils\scenes19.jpg,none,s,5.208607399999892,None,,,,,,,,00015,001,2025-11-17_18h33.40.554,MST_test,2024.2.0,59.911522662890064,2025-11-17 18h33.46.800266 +0530,
133,0,134,o,1.7082303000006505,None,134,0,133,835.1031959000011,,,,,,,,,,,,,,,,,,,,,,,,,,,,,,,,,,,,,,,,,,,,,,,,,,835.0881516000009,835.1031959000011,835.6036182999997,835.5875558999996,835.5992303000003,835.6036182999997,835.6036182999997,835.6036182999997,837.3218599000011,Scenes\112a.jpg,mid,o,1.7082303000006505,None,,,,,,,,00015,001,2025-11-17_18h33.40.554,MST_test,2024.2.0,59.911522662890064,2025-11-17 18h33.46.800266 +0530,
134,0,135,n,4.265760600001158,None,135,0,134,837.336448600001,,,,,,,,,,,,,,,,,,,,,,,,,,,,,,,,,,,,,,,,,,,,,,,,,,837.3221537000009,837.336448600001,838.0777706000008,837.8208467000004,838.071117200001,838.0777706000008,838.0777706000008,838.0777706000008,842.3555460000007,Foils\scenes26.jpg,none,n,4.265760600001158,None,,,,,,,,00015,001,2025-11-17_18h33.40.554,MST_test,2024.2.0,59.911522662890064,2025-11-17 18h33.46.800266 +0530,
135,0,136,s,1.5986558000004152,None,136,0,135,842.3696777000005,,,,,,,,,,,,,,,,,,,,,,,,,,,,,,,,,,,,,,,,,,,,,,,,,,842.3558057000009,842.3696777000005,842.8959919999998,842.8541608000014,842.8933694000007,842.8959919999998,842.8959919999998,842.8959919999998,844.5052139,Objects\156b.jpg,post,s,1.5986558000004152,None,,,,,,,,00015,001,2025-11-17_18h33.40.554,MST_test,2024.2.0,59.911522662890064,2025-11-17 18h33.46.800266 +0530,
136,0,137,n,3.4143413999991026,None,137,0,136,844.5198017000002,,,,,,,,,,,,,,,,,,,,,,,,,,,,,,,,,,,,,,,,,,,,,,,,,,844.5055470000007,844.5198017000002,845.0482376,845.0042017000014,845.0453358000013,845.0482376,845.0482376,845.0482376,848.471921100001,Scenes\039b.jpg,post,n,3.4143413999991026,None,,,,,,,,00015,001,2025-11-17_18h33.40.554,MST_test,2024.2.0,59.911522662890064,2025-11-17 18h33.46.800266 +0530,
137,0,138,o,1.4113156999992498,None,138,0,137,848.4867031000013,,,,,,,,,,,,,,,,,,,,,,,,,,,,,,,,,,,,,,,,,,,,,,,,,,848.472220900001,848.4867031000013,848.9872572000004,848.9711012999996,848.9827858000008,848.9872572000004,848.9872572000004,848.9872572000004,850.405854300001,Scenes\192a.jpg,mid,o,1.4113156999992498,None,,,,,,,,00015,001,2025-11-17_18h33.40.554,MST_test,2024.2.0,59.911522662890064,2025-11-17 18h33.46.800266 +0530,
138,0,139,s,2.663812200000393,None,139,0,138,850.4199441000001,,,,,,,,,,,,,,,,,,,,,,,,,,,,,,,,,,,,,,,,,,,,,,,,,,850.406243200001,850.4199441000001,850.9278418000013,850.903322600001,850.9247949,850.9278418000013,850.9278418000013,850.9278418000013,853.6056442000008,Scenes\086b.jpg,mid,s,2.663812200000393,None,,,,,,,,00015,001,2025-11-17_18h33.40.554,MST_test,2024.2.0,59.911522662890064,2025-11-17 18h33.46.800266 +0530,
139,0,140,o,2.1591125999984797,None,140,0,139,853.6201376999998,,,,,,,,,,,,,,,,,,,,,,,,,,,,,,,,,,,,,,,,,,,,,,,,,,853.6060505000005,853.6201376999998,854.1200876000003,854.1048850000006,854.1169890000001,854.1200876000003,854.1200876000003,854.1200876000003,856.2893254999999,Scenes\183a.jpg,post,o,2.1591125999984797,None,,,,,,,,00015,001,2025-11-17_18h33.40.554,MST_test,2024.2.0,59.911522662890064,2025-11-17 18h33.46.800266 +0530,
140,0,141,s,1.3671661000007589,None,141,0,140,856.3033304,,,,,,,,,,,,,,,,,,,,,,,,,,,,,,,,,,,,,,,,,,,,,,,,,,856.2897014000009,856.3033304,856.8077510000003,856.7878645000001,856.8047696000012,856.8077510000003,856.8077510000003,856.8077510000003,858.1887400000014,Objects\117b.jpg,post,s,1.3671661000007589,None,,,,,,,,00015,001,2025-11-17_18h33.40.554,MST_test,2024.2.0,59.911522662890064,2025-11-17 18h33.46.800266 +0530,
141,0,142,s,2.007256500000949,None,142,0,141,858.2033792000002,,,,,,,,,,,,,,,,,,,,,,,,,,,,,,,,,,,,,,,,,,,,,,,,,,858.1891775000004,858.2033792000002,858.7114316000007,858.687773900001,858.708381800001,858.7114316000007,858.7114316000007,858.7114316000007,860.7225383000005,Scenes\111b.jpg,post,s,2.007256500000949,None,,,,,,,,00015,001,2025-11-17_18h33.40.554,MST_test,2024.2.0,59.911522662890064,2025-11-17 18h33.46.800266 +0530,
142,0,143,n,1.3730709999999817,None,143,0,142,860.7363919,,,,,,,,,,,,,,,,,,,,,,,,,,,,,,,,,,,,,,,,,,,,,,,,,,860.7229192000013,860.7363919,861.2579869000001,861.2211456000005,861.2557238999998,861.2579869000001,861.2579869000001,861.2579869000001,862.6387546000005,Foils\scenes17.jpg,none,n,1.3730709999999817,None,,,,,,,,00015,001,2025-11-17_18h33.40.554,MST_test,2024.2.0,59.911522662890064,2025-11-17 18h33.46.800266 +0530,
143,0,144,o,1.1809899999989284,None,144,0,143,862.6531563000008,,,,,,,,,,,,,,,,,,,,,,,,,,,,,,,,,,,,,,,,,,,,,,,,,,862.6390974000005,862.6531563000008,863.153559800001,863.1376768999999,863.1455173000013,863.153559800001,863.153559800001,863.153559800001,864.3389805000006,Objects\177a.jpg,post,o,1.1809899999989284,None,,,,,,,,00015,001,2025-11-17_18h33.40.554,MST_test,2024.2.0,59.911522662890064,2025-11-17 18h33.46.800266 +0530,
144,0,145,o,2.1694571000007272,None,145,0,144,864.3531902000013,,,,,,,,,,,,,,,,,,,,,,,,,,,,,,,,,,,,,,,,,,,,,,,,,,864.3393312000007,864.3531902000013,864.8533850000003,864.8374861000011,864.8454849999998,864.8533850000003,864.8533850000003,864.8533850000003,867.0386570999999,Objects\167a.jpg,post,o,2.1694571000007272,None,,,,,,,,00015,001,2025-11-17_18h33.40.554,MST_test,2024.2.0,59.911522662890064,2025-11-17 18h33.46.800266 +0530,
145,0,146,n,4.0743750000001455,None,146,0,145,867.0531676999999,,,,,,,,,,,,,,,,,,,,,,,,,,,,,,,,,,,,,,,,,,,,,,,,,,867.0390979000003,867.0531676999999,867.5568664000002,867.5376949000001,867.5543904000006,867.5568664000002,867.5568664000002,867.5568664000002,871.6386743000003,Foils\065a.jpg,none,n,4.0743750000001455,None,,,,,,,,00015,001,2025-11-17_18h33.40.554,MST_test,2024.2.0,59.911522662890064,2025-11-17 18h33.46.800266 +0530,
146,0,147,s,1.3803113000012672,None,147,0,146,871.6531351000012,,,,,,,,,,,,,,,,,,,,,,,,,,,,,,,,,,,,,,,,,,,,,,,,,,871.6390549000007,871.6531351000012,872.1545074000005,872.137369,872.1521491000003,872.1545074000005,872.1545074000005,872.1545074000005,873.538888000001,Objects\041b.jpg,pre,s,1.3803113000012672,None,,,,,,,,00015,001,2025-11-17_18h33.40.554,MST_test,2024.2.0,59.911522662890064,2025-11-17 18h33.46.800266 +0530,
147,0,148,s,1.6872905000000173,None,148,0,147,873.5532185000011,,,,,,,,,,,,,,,,,,,,,,,,,,,,,,,,,,,,,,,,,,,,,,,,,,873.5392306000012,873.5532185000011,874.0552143000004,874.0375191000003,874.0524127000008,874.0552143000004,874.0552143000004,874.0552143000004,875.7554741000004,Scenes\134a.jpg,pre,s,1.6872905000000173,None,,,,,,,,00015,001,2025-11-17_18h33.40.554,MST_test,2024.2.0,59.911522662890064,2025-11-17 18h33.46.800266 +0530,
148,0,149,o,4.820282000000589,None,149,0,148,875.7698049999999,,,,,,,,,,,,,,,,,,,,,,,,,,,,,,,,,,,,,,,,,,,,,,,,,,875.7558112000006,875.7698049999999,876.2831571000006,876.2541325000002,876.2800120000011,876.2831571000006,876.2831571000006,876.2831571000006,881.106039100001,Scenes\020b.jpg,post,o,4.820282000000589,None,,,,,,,,00015,001,2025-11-17_18h33.40.554,MST_test,2024.2.0,59.911522662890064,2025-11-17 18h33.46.800266 +0530,
149,0,150,n,2.7676815999984683,None,150,0,149,881.1199358000013,,,,,,,,,,,,,,,,,,,,,,,,,,,,,,,,,,,,,,,,,,,,,,,,,,881.1063907999996,881.1199358000013,881.6232775999997,881.6043354000012,881.6201627999999,881.6232775999997,881.6232775999997,881.6232775999997,884.4052131000008,Foils\101b.jpg,none,n,2.7676815999984683,None,,,,,,,,00015,001,2025-11-17_18h33.40.554,MST_test,2024.2.0,59.911522662890064,2025-11-17 18h33.46.800266 +0530,
,,,,,,,,,,,,,,,,,,,,,,,,,,,,,,,,,,,,,,,,,,,,,,,,,,,,,,,,,,,,,,,,,,,,,,,,,884.4054621000014,884.4197748000006,884.4197748000006,886.388122100001,space,1.955055899999934,None,00015,001,2025-11-17_18h33.40.554,MST_test,2024.2.0,59.911522662890064,2025-11-17 18h33.46.800266 +0530,
