thisN,thisTrialN,thisRepN,key_resp_3.keys,key_resp_3.rt,key_resp_3.duration,trials.thisRepN,trials.thisTrialN,trials.thisN,trials.thisIndex,thisRow.t,notes,intro_page.started,text.started,key_resp.started,intro_page.stopped,key_resp.keys,key_resp.rt,key_resp.duration,instructions.started,text_2.started,key_resp_2.started,instructions.stopped,key_resp_2.keys,key_resp_2.rt,key_resp_2.duration,demo1.started,image_1.started,image_2.started,text_7.started,key_resp_6.started,text_9.started,demo1.stopped,key_resp_6.keys,key_resp_6.rt,key_resp_6.duration,demo2.started,image_5.started,image_6.started,text_11.started,text_12.started,key_resp_8.started,demo2.stopped,key_resp_8.keys,key_resp_8.rt,key_resp_8.duration,demo_conclusion.started,text_13.started,key_resp_9.started,demo_conclusion.stopped,key_resp_9.keys,key_resp_9.rt,key_resp_9.duration,start_test.started,text_6.started,key_resp_5.started,start_test.stopped,key_resp_5.keys,key_resp_5.rt,key_resp_5.duration,ISI.started,text_4.started,text_4.stopped,ISI.stopped,routine_1.started,image.started,text_3.started,key_resp_3.started,routine_1.stopped,image_path,position_of_stimuli,trials.key_resp_3.keys,trials.key_resp_3.rt,trials.key_resp_3.duration,End_page.started,text_5.started,key_resp_4.started,End_page.stopped,key_resp_4.keys,key_resp_4.rt,key_resp_4.duration,participant,session,date,expName,psychopyVersion,frameRate,expStart,
,,,,,,,,,,,,0.009430600000086997,0.025861600000098406,0.025861600000098406,3.5272448000000622,space,3.488314000000173,None,,,,,,,,,,,,,,,,,,,,,,,,,,,,,,,,,,,,,,,,,,,,,,,,,,,,,,,,,,,,,,,00010,001,2025-11-14_18h08.55.599,MST_test,2024.2.2,59.99530836687437,2025-11-14 18h09.02.416515 +0530,
,,,,,,,,,,,,,,,,,,,3.5272721999999703,3.5423929000000953,3.5423929000000953,20.17572939999991,space,16.61789019999992,None,,,,,,,,,,,,,,,,,,,,,,,,,,,,,,,,,,,,,,,,,,,,,,,,,,,,,,,,00010,001,2025-11-14_18h08.55.599,MST_test,2024.2.2,59.99530836687437,2025-11-14 18h09.02.416515 +0530,
,,,,,,,,,,,,,,,,,,,,,,,,,,20.17575480000005,20.192061299999978,20.192061299999978,20.192061299999978,20.192061299999978,20.192061299999978,27.50899370000002,space,7.300334300000031,None,,,,,,,,,,,,,,,,,,,,,,,,,,,,,,,,,,,,,,,,,,,,,,00010,001,2025-11-14_18h08.55.599,MST_test,2024.2.2,59.99530836687437,2025-11-14 18h09.02.416515 +0530,
,,,,,,,,,,,,,,,,,,,,,,,,,,,,,,,,,,,,27.509015999999974,27.525235600000087,27.525235600000087,27.525235600000087,27.525235600000087,27.525235600000087,29.975735199999917,space,2.4398043000001053,None,,,,,,,,,,,,,,,,,,,,,,,,,,,,,,,,,,,,00010,001,2025-11-14_18h08.55.599,MST_test,2024.2.2,59.99530836687437,2025-11-14 18h09.02.416515 +0530,
,,,,,,,,,,,,,,,,,,,,,,,,,,,,,,,,,,,,,,,,,,,,,,29.97576009999989,29.991856999999982,29.991856999999982,60.22505049999995,space,30.224287399999866,None,,,,,,,,,,,,,,,,,,,,,,,,,,,,,00010,001,2025-11-14_18h08.55.599,MST_test,2024.2.2,59.99530836687437,2025-11-14 18h09.02.416515 +0530,
,,,,,,,,,,,,,,,,,,,,,,,,,,,,,,,,,,,,,,,,,,,,,,,,,,,,,60.22508569999991,60.241183800000044,60.241183800000044,112.84051909999994,space,52.58260870000004,None,,,,,,,,,,,,,,,,,,,,,,00010,001,2025-11-14_18h08.55.599,MST_test,2024.2.2,59.99530836687437,2025-11-14 18h09.02.416515 +0530,
0,0,0,s,4.8004360999998426,None,0,0,0,0,112.85674200000017,,,,,,,,,,,,,,,,,,,,,,,,,,,,,,,,,,,,,,,,,,,,,,,,,,112.84325849999982,112.85674200000017,113.37356380000006,113.34020170000008,113.36414219999983,113.37356380000006,113.37356380000006,113.37356380000006,118.19036590000019,Objects\057b.jpg,pre,s,4.8004360999998426,None,,,,,,,,00010,001,2025-11-14_18h08.55.599,MST_test,2024.2.2,59.99530836687437,2025-11-14 18h09.02.416515 +0530,
1,0,1,o,1.689442400000189,None,1,0,1,0,118.20660479999992,,,,,,,,,,,,,,,,,,,,,,,,,,,,,,,,,,,,,,,,,,,,,,,,,,118.19045380000011,118.20660479999992,118.70657150000011,118.69021660000021,118.69258239999976,118.70657150000011,118.70657150000011,118.70657150000011,120.40693329999999,Objects\118a.jpg,mid,o,1.689442400000189,None,,,,,,,,00010,001,2025-11-14_18h08.55.599,MST_test,2024.2.2,59.99530836687437,2025-11-14 18h09.02.416515 +0530,
2,0,2,s,2.403243199999906,None,2,0,2,0,120.42322730000001,,,,,,,,,,,,,,,,,,,,,,,,,,,,,,,,,,,,,,,,,,,,,,,,,,120.40701699999977,120.42322730000001,120.95674639999993,120.90681930000005,120.94341000000009,120.95674639999993,120.95674639999993,120.95674639999993,123.37352279999982,Foils\scenes27.jpg,none,s,2.403243199999906,None,,,,,,,,00010,001,2025-11-14_18h08.55.599,MST_test,2024.2.2,59.99530836687437,2025-11-14 18h09.02.416515 +0530,
3,0,3,s,1.807281399999738,None,3,0,3,0,123.3898314999999,,,,,,,,,,,,,,,,,,,,,,,,,,,,,,,,,,,,,,,,,,,,,,,,,,123.37359850000007,123.3898314999999,123.90645389999986,123.8733837000002,123.90103629999999,123.90645389999986,123.90645389999986,123.90645389999986,125.72335309999994,Foils\033a.jpg,none,s,1.807281399999738,None,,,,,,,,00010,001,2025-11-14_18h08.55.599,MST_test,2024.2.2,59.99530836687437,2025-11-14 18h09.02.416515 +0530,
4,0,4,o,1.2455338999998276,None,4,0,4,0,125.73977940000009,,,,,,,,,,,,,,,,,,,,,,,,,,,,,,,,,,,,,,,,,,,,,,,,,,125.72343010000009,125.73977940000009,126.25644219999981,126.22323299999994,126.24067899999977,126.25644219999981,126.25644219999981,126.25644219999981,127.50667050000015,Objects\117b.jpg,mid,o,1.2455338999998276,None,,,,,,,,00010,001,2025-11-14_18h08.55.599,MST_test,2024.2.2,59.99530836687437,2025-11-14 18h09.02.416515 +0530,
5,0,5,n,2.4450706000002356,None,5,0,5,0,127.52309850000006,,,,,,,,,,,,,,,,,,,,,,,,,,,,,,,,,,,,,,,,,,,,,,,,,,127.50674640000011,127.52309850000006,128.1568165000001,128.00658180000005,128.13204500000006,128.1568165000001,128.1568165000001,128.1568165000001,130.60682680000014,Foils\scenes25.jpg,none,n,2.4450706000002356,None,,,,,,,,00010,001,2025-11-14_18h08.55.599,MST_test,2024.2.2,59.99530836687437,2025-11-14 18h09.02.416515 +0530,
6,0,6,n,2.5064822000003915,None,6,0,6,0,130.62300660000005,,,,,,,,,,,,,,,,,,,,,,,,,,,,,,,,,,,,,,,,,,,,,,,,,,130.60690910000017,130.62300660000005,131.13962990000005,131.10647989999984,131.13465410000003,131.13962990000005,131.13962990000005,131.13962990000005,133.65670190000014,Objects\049b.jpg,post,n,2.5064822000003915,None,,,,,,,,00010,001,2025-11-14_18h08.55.599,MST_test,2024.2.2,59.99530836687437,2025-11-14 18h09.02.416515 +0530,
7,0,7,o,1.3105828000002475,None,7,0,7,0,133.6729410999999,,,,,,,,,,,,,,,,,,,,,,,,,,,,,,,,,,,,,,,,,,,,,,,,,,133.65678020000018,133.6729410999999,134.1730911000002,134.15643840000007,134.16894119999984,134.1730911000002,134.1730911000002,134.1730911000002,135.48984349999978,Scenes\066a.jpg,post,o,1.3105828000002475,None,,,,,,,,00010,001,2025-11-14_18h08.55.599,MST_test,2024.2.2,59.99530836687437,2025-11-14 18h09.02.416515 +0530,
8,0,8,o,1.8512525000001006,None,8,0,8,0,135.50625520000017,,,,,,,,,,,,,,,,,,,,,,,,,,,,,,,,,,,,,,,,,,,,,,,,,,135.48991779999983,135.50625520000017,136.00622550000003,135.9896669000002,135.99931129999982,136.00622550000003,136.00622550000003,136.00622550000003,137.87309309999978,Objects\134a.jpg,mid,o,1.8512525000001006,None,,,,,,,,00010,001,2025-11-14_18h08.55.599,MST_test,2024.2.2,59.99530836687437,2025-11-14 18h09.02.416515 +0530,
9,0,9,s,1.9617130000001453,None,9,0,9,0,137.88948079999977,,,,,,,,,,,,,,,,,,,,,,,,,,,,,,,,,,,,,,,,,,,,,,,,,,137.8731647000002,137.88948079999977,138.40637839999977,138.3729811999999,138.3891240999999,138.40637839999977,138.40637839999977,138.40637839999977,140.37306250000006,Scenes\069a.jpg,pre,s,1.9617130000001453,None,,,,,,,,00010,001,2025-11-14_18h08.55.599,MST_test,2024.2.2,59.99530836687437,2025-11-14 18h09.02.416515 +0530,
10,0,10,s,1.2873535000003358,None,10,0,10,0,140.3894598999998,,,,,,,,,,,,,,,,,,,,,,,,,,,,,,,,,,,,,,,,,,,,,,,,,,140.37313629999994,140.3894598999998,140.90641549999987,140.87293220000015,140.8926724999999,140.90641549999987,140.90641549999987,140.90641549999987,142.20642010000006,Foils\scenes20.jpg,none,s,1.2873535000003358,None,,,,,,,,00010,001,2025-11-14_18h08.55.599,MST_test,2024.2.2,59.99530836687437,2025-11-14 18h09.02.416515 +0530,
11,0,11,s,1.0938577000001715,None,11,0,11,0,142.22276979999992,,,,,,,,,,,,,,,,,,,,,,,,,,,,,,,,,,,,,,,,,,,,,,,,,,142.20649530000014,142.22276979999992,142.73959360000003,142.70620029999986,142.73345069999982,142.73959360000003,142.73959360000003,142.73959360000003,143.83968870000012,Objects\147b.jpg,mid,s,1.0938577000001715,None,,,,,,,,00010,001,2025-11-14_18h08.55.599,MST_test,2024.2.2,59.99530836687437,2025-11-14 18h09.02.416515 +0530,
12,0,12,o,1.9591891000000032,None,12,0,12,0,143.85604919999992,,,,,,,,,,,,,,,,,,,,,,,,,,,,,,,,,,,,,,,,,,,,,,,,,,143.83977440000012,143.85604919999992,144.37260579999997,144.33957149999992,144.36852620000013,144.37260579999997,144.37260579999997,144.37260579999997,146.3395779,Scenes\074b.jpg,mid,o,1.9591891000000032,None,,,,,,,,00010,001,2025-11-14_18h08.55.599,MST_test,2024.2.2,59.99530836687437,2025-11-14 18h09.02.416515 +0530,
13,0,13,o,0.9314502000001994,None,13,0,13,0,146.35600039999986,,,,,,,,,,,,,,,,,,,,,,,,,,,,,,,,,,,,,,,,,,,,,,,,,,146.33965079999984,146.35600039999986,146.85600769999996,146.83960820000016,146.84958410000013,146.85600769999996,146.85600769999996,146.85600769999996,147.78966560000003,Objects\142a.jpg,mid,o,0.9314502000001994,None,,,,,,,,00010,001,2025-11-14_18h08.55.599,MST_test,2024.2.2,59.99530836687437,2025-11-14 18h09.02.416515 +0530,
14,0,14,o,1.3735502999998062,None,14,0,14,0,147.8059268999998,,,,,,,,,,,,,,,,,,,,,,,,,,,,,,,,,,,,,,,,,,,,,,,,,,147.78973699999983,147.8059268999998,148.32262379999997,148.28945809999982,148.31463180000014,148.32262379999997,148.32262379999997,148.32262379999997,149.7061873,Objects\119b.jpg,post,o,1.3735502999998062,None,,,,,,,,00010,001,2025-11-14_18h08.55.599,MST_test,2024.2.2,59.99530836687437,2025-11-14 18h09.02.416515 +0530,
15,0,15,o,0.7928071000001182,None,15,0,15,0,149.7225735999998,,,,,,,,,,,,,,,,,,,,,,,,,,,,,,,,,,,,,,,,,,,,,,,,,,149.70626030000017,149.7225735999998,150.23927230000004,150.20604489999982,150.22883500000012,150.23927230000004,150.23927230000004,150.23927230000004,151.0395774000001,Objects\015b.jpg,pre,o,0.7928071000001182,None,,,,,,,,00010,001,2025-11-14_18h08.55.599,MST_test,2024.2.2,59.99530836687437,2025-11-14 18h09.02.416515 +0530,
16,0,16,n,2.2973376999998436,None,16,0,16,0,151.05592339999998,,,,,,,,,,,,,,,,,,,,,,,,,,,,,,,,,,,,,,,,,,,,,,,,,,151.03964960000008,151.05592339999998,151.5725246999998,151.5394328,151.55876759999978,151.5725246999998,151.5725246999998,151.5725246999998,153.87304729999983,Foils\113a.jpg,none,n,2.2973376999998436,None,,,,,,,,00010,001,2025-11-14_18h08.55.599,MST_test,2024.2.2,59.99530836687437,2025-11-14 18h09.02.416515 +0530,
17,0,17,o,0.9216550000001007,None,17,0,17,0,153.88928710000005,,,,,,,,,,,,,,,,,,,,,,,,,,,,,,,,,,,,,,,,,,,,,,,,,,153.8731239000001,153.88928710000005,154.40594589999978,154.37274619999994,154.39073780000012,154.40594589999978,154.40594589999978,154.40594589999978,155.3395084000001,Scenes\138a.jpg,post,o,0.9216550000001007,None,,,,,,,,00010,001,2025-11-14_18h08.55.599,MST_test,2024.2.2,59.99530836687437,2025-11-14 18h09.02.416515 +0530,
18,0,18,o,1.1559652999999344,None,18,0,18,0,155.3559386999998,,,,,,,,,,,,,,,,,,,,,,,,,,,,,,,,,,,,,,,,,,,,,,,,,,155.33958189999998,155.3559386999998,155.87253729999998,155.83938349999994,155.86277349999978,155.87253729999998,155.87253729999998,155.87253729999998,157.0394385000002,Foils\066a.jpg,none,o,1.1559652999999344,None,,,,,,,,00010,001,2025-11-14_18h08.55.599,MST_test,2024.2.2,59.99530836687437,2025-11-14 18h09.02.416515 +0530,
19,0,19,s,1.2721597000004294,None,19,0,19,0,157.05588469999998,,,,,,,,,,,,,,,,,,,,,,,,,,,,,,,,,,,,,,,,,,,,,,,,,,157.03950939999982,157.05588469999998,157.58938490000014,157.5393230000002,157.57383000000004,157.58938490000014,157.58938490000014,157.58938490000014,158.87278579999997,Scenes\079b.jpg,pre,s,1.2721597000004294,None,,,,,,,,00010,001,2025-11-14_18h08.55.599,MST_test,2024.2.2,59.99530836687437,2025-11-14 18h09.02.416515 +0530,
20,0,20,n,2.993515099999968,None,20,0,20,0,158.88914739999996,,,,,,,,,,,,,,,,,,,,,,,,,,,,,,,,,,,,,,,,,,,,,,,,,,158.87286289999997,158.88914739999996,159.42270930000018,159.37262589999978,159.41272460000005,159.42270930000018,159.42270930000018,159.42270930000018,162.4226503000002,Foils\scenes30.jpg,none,n,2.993515099999968,None,,,,,,,,00010,001,2025-11-14_18h08.55.599,MST_test,2024.2.2,59.99530836687437,2025-11-14 18h09.02.416515 +0530,
21,0,21,s,1.6355398000000605,None,21,0,21,0,162.43903999999998,,,,,,,,,,,,,,,,,,,,,,,,,,,,,,,,,,,,,,,,,,,,,,,,,,162.42273420000015,162.43903999999998,162.97264119999977,162.92255980000004,162.9550327999998,162.97264119999977,162.97264119999977,162.97264119999977,164.62265129999992,Objects\002b.jpg,pre,s,1.6355398000000605,None,,,,,,,,00010,001,2025-11-14_18h08.55.599,MST_test,2024.2.2,59.99530836687437,2025-11-14 18h09.02.416515 +0530,
22,0,22,o,1.1172443000000385,None,22,0,22,0,164.63898910000012,,,,,,,,,,,,,,,,,,,,,,,,,,,,,,,,,,,,,,,,,,,,,,,,,,164.62272400000006,164.63898910000012,165.1389843999998,165.12260149999997,165.13252510000007,165.1389843999998,165.1389843999998,165.1389843999998,166.2727008999998,Objects\132a.jpg,mid,o,1.1172443000000385,None,,,,,,,,00010,001,2025-11-14_18h08.55.599,MST_test,2024.2.2,59.99530836687437,2025-11-14 18h09.02.416515 +0530,
23,0,23,s,1.4858498000003237,None,23,0,23,0,166.28901269999983,,,,,,,,,,,,,,,,,,,,,,,,,,,,,,,,,,,,,,,,,,,,,,,,,,166.27277329999993,166.28901269999983,166.80562350000014,166.77254609999977,166.79914140000005,166.80562350000014,166.80562350000014,166.80562350000014,168.30592839999986,Objects\018b.jpg,pre,s,1.4858498000003237,None,,,,,,,,00010,001,2025-11-14_18h08.55.599,MST_test,2024.2.2,59.99530836687437,2025-11-14 18h09.02.416515 +0530,
24,0,24,s,1.4061397000000397,None,24,0,24,0,168.32230559999994,,,,,,,,,,,,,,,,,,,,,,,,,,,,,,,,,,,,,,,,,,,,,,,,,,168.3059992000001,168.32230559999994,168.82223559999989,168.80575569999996,168.81516959999976,168.82223559999989,168.82223559999989,168.82223559999989,170.2393080999998,Objects\185a.jpg,post,s,1.4061397000000397,None,,,,,,,,00010,001,2025-11-14_18h08.55.599,MST_test,2024.2.2,59.99530836687437,2025-11-14 18h09.02.416515 +0530,
25,0,25,n,2.814227100000153,None,25,0,25,0,170.25553950000017,,,,,,,,,,,,,,,,,,,,,,,,,,,,,,,,,,,,,,,,,,,,,,,,,,170.23938440000006,170.25553950000017,171.0392930999999,170.73905579999996,171.00610329999995,171.0392930999999,171.0392930999999,171.0392930999999,173.85574770000017,Foils\scenes26.jpg,none,n,2.814227100000153,None,,,,,,,,00010,001,2025-11-14_18h08.55.599,MST_test,2024.2.2,59.99530836687437,2025-11-14 18h09.02.416515 +0530,
26,0,26,o,1.2767382000001817,None,26,0,26,0,173.8721539999999,,,,,,,,,,,,,,,,,,,,,,,,,,,,,,,,,,,,,,,,,,,,,,,,,,173.85583380000003,173.8721539999999,174.40568019999978,174.3557358999999,174.39516019999996,174.40568019999978,174.40568019999978,174.40568019999978,175.6891161000001,Scenes\130b.jpg,pre,o,1.2767382000001817,None,,,,,,,,00010,001,2025-11-14_18h08.55.599,MST_test,2024.2.2,59.99530836687437,2025-11-14 18h09.02.416515 +0530,
27,0,27,n,2.77095670000017,None,27,0,27,0,175.7055025000002,,,,,,,,,,,,,,,,,,,,,,,,,,,,,,,,,,,,,,,,,,,,,,,,,,175.68919739999978,175.7055025000002,176.22230139999988,176.18893129999992,176.2053527999999,176.22230139999988,176.22230139999988,176.22230139999988,179.0058118999998,Foils\020b.jpg,none,n,2.77095670000017,None,,,,,,,,00010,001,2025-11-14_18h08.55.599,MST_test,2024.2.2,59.99530836687437,2025-11-14 18h09.02.416515 +0530,
28,0,28,o,1.1996561999999358,None,28,0,28,0,179.0220436000002,,,,,,,,,,,,,,,,,,,,,,,,,,,,,,,,,,,,,,,,,,,,,,,,,,179.00589130000003,179.0220436000002,179.5386761000002,179.50553049999985,179.5273580999999,179.5386761000002,179.5386761000002,179.5386761000002,180.7389071,Scenes\094a.jpg,pre,o,1.1996561999999358,None,,,,,,,,00010,001,2025-11-14_18h08.55.599,MST_test,2024.2.2,59.99530836687437,2025-11-14 18h09.02.416515 +0530,
29,0,29,o,1.608078000000205,None,29,0,29,0,180.75537240000017,,,,,,,,,,,,,,,,,,,,,,,,,,,,,,,,,,,,,,,,,,,,,,,,,,180.7389912000001,180.75537240000017,181.27197550000005,181.23886689999995,181.26469659999998,181.27197550000005,181.27197550000005,181.27197550000005,182.88899449999985,Objects\152b.jpg,pre,o,1.608078000000205,None,,,,,,,,00010,001,2025-11-14_18h08.55.599,MST_test,2024.2.2,59.99530836687437,2025-11-14 18h09.02.416515 +0530,
30,0,30,o,0.6694036999997479,None,30,0,30,0,182.90529570000012,,,,,,,,,,,,,,,,,,,,,,,,,,,,,,,,,,,,,,,,,,,,,,,,,,182.88907940000013,182.90529570000012,183.40528010000003,183.38878339999997,183.39863469999977,183.40528010000003,183.40528010000003,183.40528010000003,184.0889724000001,Objects\078a.jpg,post,o,0.6694036999997479,None,,,,,,,,00010,001,2025-11-14_18h08.55.599,MST_test,2024.2.2,59.99530836687437,2025-11-14 18h09.02.416515 +0530,
31,0,31,o,0.6084031999998842,None,31,0,31,0,184.10520239999983,,,,,,,,,,,,,,,,,,,,,,,,,,,,,,,,,,,,,,,,,,,,,,,,,,184.0890465,184.10520239999983,184.6219036,184.58872859999997,184.61416729999996,184.6219036,184.6219036,184.6219036,185.2388238000001,Objects\146b.jpg,mid,o,0.6084031999998842,None,,,,,,,,00010,001,2025-11-14_18h08.55.599,MST_test,2024.2.2,59.99530836687437,2025-11-14 18h09.02.416515 +0530,
32,0,32,o,0.8028862999999546,None,32,0,32,0,185.2552803000001,,,,,,,,,,,,,,,,,,,,,,,,,,,,,,,,,,,,,,,,,,,,,,,,,,185.23889750000012,185.2552803000001,185.7887589999998,185.7387030000002,185.7733128000002,185.7887589999998,185.7887589999998,185.7887589999998,186.60564739999995,Scenes\131b.jpg,pre,o,0.8028862999999546,None,,,,,,,,00010,001,2025-11-14_18h08.55.599,MST_test,2024.2.2,59.99530836687437,2025-11-14 18h09.02.416515 +0530,
33,0,33,o,0.8808546999998725,None,33,0,33,0,186.6219276999998,,,,,,,,,,,,,,,,,,,,,,,,,,,,,,,,,,,,,,,,,,,,,,,,,,186.60572829999978,186.6219276999998,187.1217951000001,187.10536230000002,187.11486119999995,187.1217951000001,187.1217951000001,187.1217951000001,188.0054616,Objects\101a.jpg,pre,o,0.8808546999998725,None,,,,,,,,00010,001,2025-11-14_18h08.55.599,MST_test,2024.2.2,59.99530836687437,2025-11-14 18h09.02.416515 +0530,
34,0,34,s,1.2281342000001132,None,34,0,34,0,188.0219493000002,,,,,,,,,,,,,,,,,,,,,,,,,,,,,,,,,,,,,,,,,,,,,,,,,,188.00552979999998,188.0219493000002,188.5381507999998,188.5053945000002,188.53441820000012,188.5381507999998,188.5381507999998,188.5381507999998,189.7720541000001,Scenes\147b.jpg,mid,s,1.2281342000001132,None,,,,,,,,00010,001,2025-11-14_18h08.55.599,MST_test,2024.2.2,59.99530836687437,2025-11-14 18h09.02.416515 +0530,
35,0,35,o,0.860795799999778,None,35,0,35,0,189.78844809999987,,,,,,,,,,,,,,,,,,,,,,,,,,,,,,,,,,,,,,,,,,,,,,,,,,189.7721300999999,189.78844809999987,190.30538409999986,190.2720400999999,190.2942642999999,190.30538409999986,190.30538409999986,190.30538409999986,191.17221929999982,Scenes\104a.jpg,post,o,0.860795799999778,None,,,,,,,,00010,001,2025-11-14_18h08.55.599,MST_test,2024.2.2,59.99530836687437,2025-11-14 18h09.02.416515 +0530,
36,0,36,o,0.8293524000000616,None,36,0,36,0,191.18842259999997,,,,,,,,,,,,,,,,,,,,,,,,,,,,,,,,,,,,,,,,,,,,,,,,,,191.17231490000017,191.18842259999997,191.68863129999977,191.6718411999998,191.68125350000014,191.68863129999977,191.68863129999977,191.68863129999977,192.52203309999982,Objects\139a.jpg,post,o,0.8293524000000616,None,,,,,,,,00010,001,2025-11-14_18h08.55.599,MST_test,2024.2.2,59.99530836687437,2025-11-14 18h09.02.416515 +0530,
37,0,37,o,0.7241301000003659,None,37,0,37,0,192.5384406999999,,,,,,,,,,,,,,,,,,,,,,,,,,,,,,,,,,,,,,,,,,,,,,,,,,192.52210119999995,192.5384406999999,193.07176109999978,193.02190349999978,193.05742149999992,193.07176109999978,193.07176109999978,193.07176109999978,193.80535480000003,Scenes\132b.jpg,mid,o,0.7241301000003659,None,,,,,,,,00010,001,2025-11-14_18h08.55.599,MST_test,2024.2.2,59.99530836687437,2025-11-14 18h09.02.416515 +0530,
38,0,38,o,0.8767511000000923,None,38,0,38,0,193.82172509999987,,,,,,,,,,,,,,,,,,,,,,,,,,,,,,,,,,,,,,,,,,,,,,,,,,193.80543319999992,193.82172509999987,194.3217057999998,194.3052197999998,194.3148177999999,194.3217057999998,194.3217057999998,194.3217057999998,195.20527430000016,Objects\009a.jpg,mid,o,0.8767511000000923,None,,,,,,,,00010,001,2025-11-14_18h08.55.599,MST_test,2024.2.2,59.99530836687437,2025-11-14 18h09.02.416515 +0530,
39,0,39,o,0.7729927999998836,None,39,0,39,0,195.22177410000018,,,,,,,,,,,,,,,,,,,,,,,,,,,,,,,,,,,,,,,,,,,,,,,,,,195.20534070000008,195.22177410000018,195.7385582999998,195.70515450000016,195.72129010000003,195.7385582999998,195.7385582999998,195.7385582999998,196.5220227000002,Scenes\139a.jpg,pre,o,0.7729927999998836,None,,,,,,,,00010,001,2025-11-14_18h08.55.599,MST_test,2024.2.2,59.99530836687437,2025-11-14 18h09.02.416515 +0530,
40,0,40,n,2.49255839999978,None,40,0,40,0,196.5383334999999,,,,,,,,,,,,,,,,,,,,,,,,,,,,,,,,,,,,,,,,,,,,,,,,,,196.52209909999988,196.5383334999999,197.0551994,197.0218299999999,197.04631480000012,197.0551994,197.0551994,197.0551994,199.5551793000002,Foils\scenes29.jpg,none,n,2.49255839999978,None,,,,,,,,00010,001,2025-11-14_18h08.55.599,MST_test,2024.2.2,59.99530836687437,2025-11-14 18h09.02.416515 +0530,
41,0,41,o,0.9794885999999678,None,41,0,41,0,199.5715988999998,,,,,,,,,,,,,,,,,,,,,,,,,,,,,,,,,,,,,,,,,,,,,,,,,,199.5552578999998,199.5715988999998,200.0717914999998,200.05508329999998,200.06463340000005,200.0717914999998,200.0717914999998,200.0717914999998,201.05518640000014,Objects\176a.jpg,post,o,0.9794885999999678,None,,,,,,,,00010,001,2025-11-14_18h08.55.599,MST_test,2024.2.2,59.99530836687437,2025-11-14 18h09.02.416515 +0530,
42,0,42,o,2.1005032000002757,None,42,0,42,0,201.07156800000007,,,,,,,,,,,,,,,,,,,,,,,,,,,,,,,,,,,,,,,,,,,,,,,,,,201.05525710000006,201.07156800000007,201.57152259999998,201.5551370999999,201.56513599999994,201.57152259999998,201.57152259999998,201.57152259999998,203.68852859999993,Objects\037a.jpg,post,o,2.1005032000002757,None,,,,,,,,00010,001,2025-11-14_18h08.55.599,MST_test,2024.2.2,59.99530836687437,2025-11-14 18h09.02.416515 +0530,
43,0,43,o,1.800902799999676,None,43,0,43,0,203.7048281,,,,,,,,,,,,,,,,,,,,,,,,,,,,,,,,,,,,,,,,,,,,,,,,,,203.68860699999982,203.7048281,204.22173309999994,204.18825170000014,204.20558000000005,204.22173309999994,204.22173309999994,204.22173309999994,206.03838710000014,Scenes\188a.jpg,post,o,1.800902799999676,None,,,,,,,,00010,001,2025-11-14_18h08.55.599,MST_test,2024.2.2,59.99530836687437,2025-11-14 18h09.02.416515 +0530,
44,0,44,o,1.6438646000001427,None,44,0,44,0,206.05483990000016,,,,,,,,,,,,,,,,,,,,,,,,,,,,,,,,,,,,,,,,,,,,,,,,,,206.0384660000002,206.05483990000016,206.58845570000017,206.5382932,206.56931969999982,206.58845570000017,206.58845570000017,206.58845570000017,208.23835609999992,Scenes\149b.jpg,mid,o,1.6438646000001427,None,,,,,,,,00010,001,2025-11-14_18h08.55.599,MST_test,2024.2.2,59.99530836687437,2025-11-14 18h09.02.416515 +0530,
45,0,45,n,1.735583399999996,None,45,0,45,0,208.25473239999997,,,,,,,,,,,,,,,,,,,,,,,,,,,,,,,,,,,,,,,,,,,,,,,,,,208.23842750000017,208.25473239999997,208.78835800000002,208.73820749999982,208.77467360000014,208.78835800000002,208.78835800000002,208.78835800000002,210.53842569999983,Scenes\047b.jpg,post,n,1.735583399999996,None,,,,,,,,00010,001,2025-11-14_18h08.55.599,MST_test,2024.2.2,59.99530836687437,2025-11-14 18h09.02.416515 +0530,
46,0,46,o,0.9246142000001782,None,46,0,46,0,210.55473270000016,,,,,,,,,,,,,,,,,,,,,,,,,,,,,,,,,,,,,,,,,,,,,,,,,,210.53851400000008,210.55473270000016,211.07151850000014,211.03819080000017,211.06274169999983,211.07151850000014,211.07151850000014,211.07151850000014,212.00490250000007,Objects\050b.jpg,mid,o,0.9246142000001782,None,,,,,,,,00010,001,2025-11-14_18h08.55.599,MST_test,2024.2.2,59.99530836687437,2025-11-14 18h09.02.416515 +0530,
47,0,47,n,1.9266522000002624,None,47,0,47,0,212.02130569999986,,,,,,,,,,,,,,,,,,,,,,,,,,,,,,,,,,,,,,,,,,,,,,,,,,212.0049775,212.02130569999986,212.5215039000002,212.5047747000001,212.51621390000014,212.5215039000002,212.5215039000002,212.5215039000002,214.45489900000007,Scenes\061a.jpg,mid,n,1.9266522000002624,None,,,,,,,,00010,001,2025-11-14_18h08.55.599,MST_test,2024.2.2,59.99530836687437,2025-11-14 18h09.02.416515 +0530,
48,0,48,n,1.3016514000000825,None,48,0,48,0,214.47119120000002,,,,,,,,,,,,,,,,,,,,,,,,,,,,,,,,,,,,,,,,,,,,,,,,,,214.45497379999983,214.47119120000002,214.98790510000003,214.95478609999986,214.98404800000003,214.98790510000003,214.98790510000003,214.98790510000003,216.3048341000001,Foils\010a.jpg,none,n,1.3016514000000825,None,,,,,,,,00010,001,2025-11-14_18h08.55.599,MST_test,2024.2.2,59.99530836687437,2025-11-14 18h09.02.416515 +0530,
49,0,49,o,1.2107316000001447,None,49,0,49,0,216.3211214999999,,,,,,,,,,,,,,,,,,,,,,,,,,,,,,,,,,,,,,,,,,,,,,,,,,216.30490459999987,216.3211214999999,,216.80533360000004,216.83200610000017,216.83758299999977,216.83758299999977,216.83758299999977,218.0548283999999,Scenes\020a.jpg,pre,o,1.2107316000001447,None,,,,,,,,00010,001,2025-11-14_18h08.55.599,MST_test,2024.2.2,59.99530836687437,2025-11-14 18h09.02.416515 +0530,
50,0,50,s,1.8391394000000219,None,50,0,50,0,218.0711190999998,,,,,,,,,,,,,,,,,,,,,,,,,,,,,,,,,,,,,,,,,,,,,,,,,,218.05490840000016,218.0711190999998,218.5710743000002,218.55471539999985,218.56454439999993,218.5710743000002,218.5710743000002,218.5710743000002,220.42132830000014,Objects\120a.jpg,mid,s,1.8391394000000219,None,,,,,,,,00010,001,2025-11-14_18h08.55.599,MST_test,2024.2.2,59.99530836687437,2025-11-14 18h09.02.416515 +0530,
51,0,51,s,1.614404100000229,None,51,0,51,0,220.43773170000009,,,,,,,,,,,,,,,,,,,,,,,,,,,,,,,,,,,,,,,,,,,,,,,,,,220.42140649999988,220.43773170000009,220.95438230000013,220.9212626000001,220.94909040000016,220.95438230000013,220.95438230000013,220.95438230000013,222.57142050000016,Objects\035b.jpg,mid,s,1.614404100000229,None,,,,,,,,00010,001,2025-11-14_18h08.55.599,MST_test,2024.2.2,59.99530836687437,2025-11-14 18h09.02.416515 +0530,
52,0,52,o,1.3317051999997602,None,52,0,52,0,222.58773189999988,,,,,,,,,,,,,,,,,,,,,,,,,,,,,,,,,,,,,,,,,,,,,,,,,,222.57149270000014,222.58773189999988,223.1043062000001,223.0712691000001,223.09824700000013,223.1043062000001,223.1043062000001,223.1043062000001,224.43791690000012,Objects\130b.jpg,mid,o,1.3317051999997602,None,,,,,,,,00010,001,2025-11-14_18h08.55.599,MST_test,2024.2.2,59.99530836687437,2025-11-14 18h09.02.416515 +0530,
53,0,53,s,1.4524544000000787,None,53,0,53,0,224.45434099999989,,,,,,,,,,,,,,,,,,,,,,,,,,,,,,,,,,,,,,,,,,,,,,,,,,224.437995,224.45434099999989,224.98792179999987,224.93793930000015,224.97750629999996,224.98792179999987,224.98792179999987,224.98792179999987,226.4545988000002,Scenes\128b.jpg,mid,s,1.4524544000000787,None,,,,,,,,00010,001,2025-11-14_18h08.55.599,MST_test,2024.2.2,59.99530836687437,2025-11-14 18h09.02.416515 +0530,
54,0,54,n,3.301515200000267,None,54,0,54,0,226.4709304999999,,,,,,,,,,,,,,,,,,,,,,,,,,,,,,,,,,,,,,,,,,,,,,,,,,226.4546716000002,226.4709304999999,226.9709332,226.9545340000002,226.96415850000017,226.9709332,226.9709332,226.9709332,230.28793259999998,Objects\097a.jpg,pre,n,3.301515200000267,None,,,,,,,,00010,001,2025-11-14_18h08.55.599,MST_test,2024.2.2,59.99530836687437,2025-11-14 18h09.02.416515 +0530,
55,0,55,s,1.3268364999998994,None,55,0,55,0,230.3041857999999,,,,,,,,,,,,,,,,,,,,,,,,,,,,,,,,,,,,,,,,,,,,,,,,,,230.28801309999994,230.3041857999999,230.83774160000007,230.78780690000008,230.81888529999992,230.83774160000007,230.83774160000007,230.83774160000007,232.1710572999998,Scenes\185b.jpg,pre,s,1.3268364999998994,None,,,,,,,,00010,001,2025-11-14_18h08.55.599,MST_test,2024.2.2,59.99530836687437,2025-11-14 18h09.02.416515 +0530,
56,0,56,o,1.0029551000002357,None,56,0,56,0,232.1874704999998,,,,,,,,,,,,,,,,,,,,,,,,,,,,,,,,,,,,,,,,,,,,,,,,,,232.17113029999996,232.1874704999998,232.68748720000008,232.671016,232.68056809999985,232.68748720000008,232.68748720000008,232.68748720000008,233.7044674000001,Objects\004a.jpg,post,o,1.0029551000002357,None,,,,,,,,00010,001,2025-11-14_18h08.55.599,MST_test,2024.2.2,59.99530836687437,2025-11-14 18h09.02.416515 +0530,
57,0,57,o,0.87251120000019,None,57,0,57,0,233.72080399999982,,,,,,,,,,,,,,,,,,,,,,,,,,,,,,,,,,,,,,,,,,,,,,,,,,233.7045470999999,233.72080399999982,234.2377230999998,234.2043857000001,234.22440399999982,234.2377230999998,234.2377230999998,234.2377230999998,235.1211434999998,Scenes\143a.jpg,mid,o,0.87251120000019,None,,,,,,,,00010,001,2025-11-14_18h08.55.599,MST_test,2024.2.2,59.99530836687437,2025-11-14 18h09.02.416515 +0530,
58,0,58,o,0.8072087000000465,None,58,0,58,0,235.13741090000008,,,,,,,,,,,,,,,,,,,,,,,,,,,,,,,,,,,,,,,,,,,,,,,,,,235.12122029999978,235.13741090000008,235.6877132000002,235.6208994000001,235.66912200000002,235.6877132000002,235.6877132000002,235.6877132000002,236.50440619999995,Scenes\026b.jpg,post,o,0.8072087000000465,None,,,,,,,,00010,001,2025-11-14_18h08.55.599,MST_test,2024.2.2,59.99530836687437,2025-11-14 18h09.02.416515 +0530,
59,0,59,o,0.6288676999997733,None,59,0,59,0,236.52071249999995,,,,,,,,,,,,,,,,,,,,,,,,,,,,,,,,,,,,,,,,,,,,,,,,,,236.50448110000002,236.52071249999995,237.03737840000008,237.00424050000015,237.02514929999984,237.03737840000008,237.03737840000008,237.03737840000008,237.67110239999988,Scenes\189a.jpg,pre,o,0.6288676999997733,None,,,,,,,,00010,001,2025-11-14_18h08.55.599,MST_test,2024.2.2,59.99530836687437,2025-11-14 18h09.02.416515 +0530,
60,0,60,s,1.78611920000003,None,60,0,60,0,237.68735850000007,,,,,,,,,,,,,,,,,,,,,,,,,,,,,,,,,,,,,,,,,,,,,,,,,,237.67118700000015,237.68735850000007,238.20426199999997,238.17090639999992,238.1993998999999,238.20426199999997,238.20426199999997,238.20426199999997,240.00435219999986,Objects\159b.jpg,post,s,1.78611920000003,None,,,,,,,,00010,001,2025-11-14_18h08.55.599,MST_test,2024.2.2,59.99530836687437,2025-11-14 18h09.02.416515 +0530,
61,0,61,s,1.97754359999999,None,61,0,61,0,240.02064050000013,,,,,,,,,,,,,,,,,,,,,,,,,,,,,,,,,,,,,,,,,,,,,,,,,,240.00442550000002,240.02064050000013,240.5539683999998,240.50425149999978,240.53848409999978,240.5539683999998,240.5539683999998,240.5539683999998,242.5376186000001,Scenes\126b.jpg,pre,s,1.97754359999999,None,,,,,,,,00010,001,2025-11-14_18h08.55.599,MST_test,2024.2.2,59.99530836687437,2025-11-14 18h09.02.416515 +0530,
62,0,62,s,1.1910542000000532,None,62,0,62,0,242.55395190000013,,,,,,,,,,,,,,,,,,,,,,,,,,,,,,,,,,,,,,,,,,,,,,,,,,242.53770250000002,242.55395190000013,243.07087109999998,243.03739400000018,243.0566769999998,243.07087109999998,243.07087109999998,243.07087109999998,244.2708783999999,Foils\scenes19.jpg,none,s,1.1910542000000532,None,,,,,,,,00010,001,2025-11-14_18h08.55.599,MST_test,2024.2.2,59.99530836687437,2025-11-14 18h09.02.416515 +0530,
63,0,63,o,1.8474074999999175,None,63,0,63,0,244.28720709999993,,,,,,,,,,,,,,,,,,,,,,,,,,,,,,,,,,,,,,,,,,,,,,,,,,244.2709680999999,244.28720709999993,244.82049849999999,244.77078589999996,244.8080263999998,244.82049849999999,244.82049849999999,244.82049849999999,246.6708572,Scenes\136b.jpg,pre,o,1.8474074999999175,None,,,,,,,,00010,001,2025-11-14_18h08.55.599,MST_test,2024.2.2,59.99530836687437,2025-11-14 18h09.02.416515 +0530,
64,0,64,o,1.7520813999999518,None,64,0,64,0,246.68715989999987,,,,,,,,,,,,,,,,,,,,,,,,,,,,,,,,,,,,,,,,,,,,,,,,,,246.6709417999998,246.68715989999987,247.2207593999999,247.17068519999998,247.20415489999982,247.2207593999999,247.2207593999999,247.2207593999999,248.98739950000004,Scenes\120a.jpg,mid,o,1.7520813999999518,None,,,,,,,,00010,001,2025-11-14_18h08.55.599,MST_test,2024.2.2,59.99530836687437,2025-11-14 18h09.02.416515 +0530,
65,0,65,s,1.0698209000001953,None,65,0,65,0,249.00377569999978,,,,,,,,,,,,,,,,,,,,,,,,,,,,,,,,,,,,,,,,,,,,,,,,,,248.98747759999992,249.00377569999978,249.52039499999978,249.48733199999992,249.5079192999999,249.52039499999978,249.52039499999978,249.52039499999978,250.60406649999982,Scenes\055a.jpg,post,s,1.0698209000001953,None,,,,,,,,00010,001,2025-11-14_18h08.55.599,MST_test,2024.2.2,59.99530836687437,2025-11-14 18h09.02.416515 +0530,
66,0,66,o,1.7443684999998368,None,66,0,66,0,250.62044260000016,,,,,,,,,,,,,,,,,,,,,,,,,,,,,,,,,,,,,,,,,,,,,,,,,,250.6041388000001,250.62044260000016,251.13707679999993,251.10397390000003,251.12496170000009,251.13707679999993,251.13707679999993,251.13707679999993,252.88738750000016,Scenes\010a.jpg,post,o,1.7443684999998368,None,,,,,,,,00010,001,2025-11-14_18h08.55.599,MST_test,2024.2.2,59.99530836687437,2025-11-14 18h09.02.416515 +0530,
67,0,67,n,2.105416299999888,None,67,0,67,0,252.90368869999998,,,,,,,,,,,,,,,,,,,,,,,,,,,,,,,,,,,,,,,,,,,,,,,,,,252.8874702999999,252.90368869999998,253.420609,253.38723499999992,253.40769109999997,253.420609,253.420609,253.420609,255.53734180000015,Foils\034a.jpg,none,n,2.105416299999888,None,,,,,,,,00010,001,2025-11-14_18h08.55.599,MST_test,2024.2.2,59.99530836687437,2025-11-14 18h09.02.416515 +0530,
68,0,68,s,1.8771111000000928,None,68,0,68,0,255.55363920000013,,,,,,,,,,,,,,,,,,,,,,,,,,,,,,,,,,,,,,,,,,,,,,,,,,255.53742089999992,255.55363920000013,256.0702920000001,256.03722330000005,256.0580937000002,256.0702920000001,256.0702920000001,256.0702920000001,257.9540120999998,Scenes\161a.jpg,pre,s,1.8771111000000928,None,,,,,,,,00010,001,2025-11-14_18h08.55.599,MST_test,2024.2.2,59.99530836687437,2025-11-14 18h09.02.416515 +0530,
69,0,69,s,0.9216330999997808,None,69,0,69,0,257.9703667000001,,,,,,,,,,,,,,,,,,,,,,,,,,,,,,,,,,,,,,,,,,,,,,,,,,257.95408840000005,257.9703667000001,258.4702487000002,258.4537855000001,258.46481289999997,258.4702487000002,258.4702487000002,258.4702487000002,259.40388169999983,Objects\084a.jpg,pre,s,0.9216330999997808,None,,,,,,,,00010,001,2025-11-14_18h08.55.599,MST_test,2024.2.2,59.99530836687437,2025-11-14 18h09.02.416515 +0530,
70,0,70,s,1.831775099999959,None,70,0,70,0,259.4202155999999,,,,,,,,,,,,,,,,,,,,,,,,,,,,,,,,,,,,,,,,,,,,,,,,,,259.40395049999984,259.4202155999999,259.9204815999999,259.9038284999999,259.9157386999998,259.9204815999999,259.9204815999999,259.9204815999999,261.7538852,Foils\scenes6.jpg,none,s,1.831775099999959,None,,,,,,,,00010,001,2025-11-14_18h08.55.599,MST_test,2024.2.2,59.99530836687437,2025-11-14 18h09.02.416515 +0530,
71,0,71,s,0.7503358999997545,None,71,0,71,0,261.77016609999987,,,,,,,,,,,,,,,,,,,,,,,,,,,,,,,,,,,,,,,,,,,,,,,,,,261.75395490000005,261.77016609999987,262.3201915000002,262.25370959999987,262.2803194999999,262.3201915000002,262.3201915000002,262.3201915000002,263.0871574999999,Objects\180b.jpg,mid,s,0.7503358999997545,None,,,,,,,,00010,001,2025-11-14_18h08.55.599,MST_test,2024.2.2,59.99530836687437,2025-11-14 18h09.02.416515 +0530,
72,0,72,s,3.55131799999981,None,72,0,72,0,263.1034376,,,,,,,,,,,,,,,,,,,,,,,,,,,,,,,,,,,,,,,,,,,,,,,,,,263.08723480000003,263.1034376,263.6369615000001,263.5870169000002,263.6246767,263.6369615000001,263.6369615000001,263.6369615000001,267.2037146,Scenes\044b.jpg,mid,s,3.55131799999981,None,,,,,,,,00010,001,2025-11-14_18h08.55.599,MST_test,2024.2.2,59.99530836687437,2025-11-14 18h09.02.416515 +0530,
73,0,73,o,1.2233188000000155,None,73,0,73,0,267.2200513999999,,,,,,,,,,,,,,,,,,,,,,,,,,,,,,,,,,,,,,,,,,,,,,,,,,267.20379389999994,267.2200513999999,267.7366804999999,267.70361149999985,267.7234632000002,267.7366804999999,267.7366804999999,267.7366804999999,268.97036409999987,Scenes\080a.jpg,pre,o,1.2233188000000155,None,,,,,,,,00010,001,2025-11-14_18h08.55.599,MST_test,2024.2.2,59.99530836687437,2025-11-14 18h09.02.416515 +0530,
74,0,74,s,0.805617799999709,None,74,0,74,0,268.9866823,,,,,,,,,,,,,,,,,,,,,,,,,,,,,,,,,,,,,,,,,,,,,,,,,,268.9704374999999,268.9866823,269.4866292999998,269.47021930000005,269.4814260999999,269.4866292999998,269.4866292999998,269.4866292999998,270.3036642999998,Objects\014a.jpg,post,s,0.805617799999709,None,,,,,,,,00010,001,2025-11-14_18h08.55.599,MST_test,2024.2.2,59.99530836687437,2025-11-14 18h09.02.416515 +0530,
75,0,75,s,1.974759599999743,None,75,0,75,0,270.3201112999998,,,,,,,,,,,,,,,,,,,,,,,,,,,,,,,,,,,,,,,,,,,,,,,,,,270.3037394999999,270.3201112999998,270.8532767999998,270.80348919999983,270.8430267000001,270.8532767999998,270.8532767999998,270.8532767999998,272.83710050000013,Scenes\187b.jpg,mid,s,1.974759599999743,None,,,,,,,,00010,001,2025-11-14_18h08.55.599,MST_test,2024.2.2,59.99530836687437,2025-11-14 18h09.02.416515 +0530,
76,0,76,s,1.337120600000162,None,76,0,76,0,272.8533721000001,,,,,,,,,,,,,,,,,,,,,,,,,,,,,,,,,,,,,,,,,,,,,,,,,,272.8371863,272.8533721000001,273.3869354000001,273.3368681999998,273.3722667999998,273.3869354000001,273.3869354000001,273.3869354000001,274.7369322000002,Scenes\081b.jpg,post,s,1.337120600000162,None,,,,,,,,00010,001,2025-11-14_18h08.55.599,MST_test,2024.2.2,59.99530836687437,2025-11-14 18h09.02.416515 +0530,
77,0,77,o,1.2536910999997417,None,77,0,77,0,274.75333879999994,,,,,,,,,,,,,,,,,,,,,,,,,,,,,,,,,,,,,,,,,,,,,,,,,,274.73700570000005,274.75333879999994,275.2702978,275.2367551,275.2559868999999,275.2702978,275.2702978,275.2702978,276.53692079999996,Foils\065a.jpg,none,o,1.2536910999997417,None,,,,,,,,00010,001,2025-11-14_18h08.55.599,MST_test,2024.2.2,59.99530836687437,2025-11-14 18h09.02.416515 +0530,
78,0,78,o,0.9965072999998483,None,78,0,78,0,276.5533133000001,,,,,,,,,,,,,,,,,,,,,,,,,,,,,,,,,,,,,,,,,,,,,,,,,,276.53700619999995,276.5533133000001,277.0699010000001,277.03678749999995,277.0655223000001,277.0699010000001,277.0699010000001,277.0699010000001,278.07020880000005,Objects\039b.jpg,post,o,0.9965072999998483,None,,,,,,,,00010,001,2025-11-14_18h08.55.599,MST_test,2024.2.2,59.99530836687437,2025-11-14 18h09.02.416515 +0530,
79,0,79,o,0.8081391000000622,None,79,0,79,0,278.08659939999984,,,,,,,,,,,,,,,,,,,,,,,,,,,,,,,,,,,,,,,,,,,,,,,,,,278.070293,278.08659939999984,278.6198713000001,278.5700736000001,278.6005730999998,278.6198713000001,278.6198713000001,278.6198713000001,279.4368218000002,Objects\150b.jpg,post,o,0.8081391000000622,None,,,,,,,,00010,001,2025-11-14_18h08.55.599,MST_test,2024.2.2,59.99530836687437,2025-11-14 18h09.02.416515 +0530,
80,0,80,o,1.956963199999791,None,80,0,80,0,279.45326009999985,,,,,,,,,,,,,,,,,,,,,,,,,,,,,,,,,,,,,,,,,,,,,,,,,,279.4368929999998,279.45326009999985,279.9532310000002,279.93676089999985,279.94636849999983,279.9532310000002,279.9532310000002,279.9532310000002,281.9200475,Objects\021a.jpg,pre,o,1.956963199999791,None,,,,,,,,00010,001,2025-11-14_18h08.55.599,MST_test,2024.2.2,59.99530836687437,2025-11-14 18h09.02.416515 +0530,
81,0,81,o,0.9004608000000189,None,81,0,81,0,281.93650999999977,,,,,,,,,,,,,,,,,,,,,,,,,,,,,,,,,,,,,,,,,,,,,,,,,,281.9201243,281.93650999999977,282.4531187,282.4199203999999,282.43896830000017,282.4531187,282.4531187,282.4531187,283.3701447000001,Scenes\091a.jpg,post,o,0.9004608000000189,None,,,,,,,,00010,001,2025-11-14_18h08.55.599,MST_test,2024.2.2,59.99530836687437,2025-11-14 18h09.02.416515 +0530,
82,0,82,s,1.3091875000000073,None,82,0,82,0,283.3864897000001,,,,,,,,,,,,,,,,,,,,,,,,,,,,,,,,,,,,,,,,,,,,,,,,,,283.3702353000001,283.3864897000001,283.90306129999976,283.8700455999999,283.8990944999998,283.90306129999976,283.90306129999976,283.90306129999976,285.2200449999998,Objects\089b.jpg,post,s,1.3091875000000073,None,,,,,,,,00010,001,2025-11-14_18h08.55.599,MST_test,2024.2.2,59.99530836687437,2025-11-14 18h09.02.416515 +0530,
83,0,83,s,1.800513900000169,None,83,0,83,0,285.23638700000015,,,,,,,,,,,,,,,,,,,,,,,,,,,,,,,,,,,,,,,,,,,,,,,,,,285.2201241999999,285.23638700000015,285.76969110000005,285.71993399999997,285.7652888,285.76969110000005,285.76969110000005,285.76969110000005,287.5866266999999,Scenes\092b.jpg,post,s,1.800513900000169,None,,,,,,,,00010,001,2025-11-14_18h08.55.599,MST_test,2024.2.2,59.99530836687437,2025-11-14 18h09.02.416515 +0530,
84,0,84,n,1.9720586000003095,None,84,0,84,0,287.60302909999996,,,,,,,,,,,,,,,,,,,,,,,,,,,,,,,,,,,,,,,,,,,,,,,,,,287.5867039000002,287.60302909999996,288.1196889999999,288.08661800000004,288.10158350000006,288.1196889999999,288.1196889999999,288.1196889999999,290.10327230000007,Scenes\163a.jpg,post,n,1.9720586000003095,None,,,,,,,,00010,001,2025-11-14_18h08.55.599,MST_test,2024.2.2,59.99530836687437,2025-11-14 18h09.02.416515 +0530,
85,0,85,s,2.160073199999715,None,85,0,85,0,290.1196609000001,,,,,,,,,,,,,,,,,,,,,,,,,,,,,,,,,,,,,,,,,,,,,,,,,,290.1033546000001,290.1196609000001,290.6363454,290.6031359000001,290.6238973000002,290.6363454,290.6363454,290.6363454,292.80337399999985,Objects\099b.jpg,post,s,2.160073199999715,None,,,,,,,,00010,001,2025-11-14_18h08.55.599,MST_test,2024.2.2,59.99530836687437,2025-11-14 18h09.02.416515 +0530,
86,0,86,n,2.310837300000003,None,86,0,86,0,292.8196043999999,,,,,,,,,,,,,,,,,,,,,,,,,,,,,,,,,,,,,,,,,,,,,,,,,,292.8034497000001,292.8196043999999,293.3528828000001,293.3031343,293.3344866,293.3528828000001,293.3528828000001,293.3528828000001,295.6698033,Foils\090a.jpg,none,n,2.310837300000003,None,,,,,,,,00010,001,2025-11-14_18h08.55.599,MST_test,2024.2.2,59.99530836687437,2025-11-14 18h09.02.416515 +0530,
87,0,87,s,1.8528501000000688,None,87,0,87,0,295.68618949999995,,,,,,,,,,,,,,,,,,,,,,,,,,,,,,,,,,,,,,,,,,,,,,,,,,295.6698772000002,295.68618949999995,296.2028171999998,296.16962320000016,296.1966423000001,296.2028171999998,296.2028171999998,296.2028171999998,298.06966050000005,Objects\187b.jpg,pre,s,1.8528501000000688,None,,,,,,,,00010,001,2025-11-14_18h08.55.599,MST_test,2024.2.2,59.99530836687437,2025-11-14 18h09.02.416515 +0530,
88,0,88,s,2.495245999999952,None,88,0,88,0,298.0862605,,,,,,,,,,,,,,,,,,,,,,,,,,,,,,,,,,,,,,,,,,,,,,,,,,298.06973189999985,298.0862605,298.6529972999999,298.5696141000001,298.63260749999995,298.6529972999999,298.6529972999999,298.6529972999999,301.1529754999999,Foils\scenes23.jpg,none,s,2.495245999999952,None,,,,,,,,00010,001,2025-11-14_18h08.55.599,MST_test,2024.2.2,59.99530836687437,2025-11-14 18h09.02.416515 +0530,
89,0,89,s,1.6988223000003018,None,89,0,89,0,301.1694378999998,,,,,,,,,,,,,,,,,,,,,,,,,,,,,,,,,,,,,,,,,,,,,,,,,,301.1530647000002,301.1694378999998,301.66936770000007,301.6528277,301.6626862999999,301.66936770000007,301.66936770000007,301.66936770000007,303.3698818999999,Objects\164a.jpg,pre,s,1.6988223000003018,None,,,,,,,,00010,001,2025-11-14_18h08.55.599,MST_test,2024.2.2,59.99530836687437,2025-11-14 18h09.02.416515 +0530,
90,0,90,s,1.1955316999997194,None,90,0,90,0,303.38602719999994,,,,,,,,,,,,,,,,,,,,,,,,,,,,,,,,,,,,,,,,,,,,,,,,,,303.3699602999998,303.38602719999994,303.9029124000001,303.8695183000002,303.88841419999994,303.9029124000001,303.9029124000001,303.9029124000001,305.10290899999995,Scenes\065a.jpg,pre,s,1.1955316999997194,None,,,,,,,,00010,001,2025-11-14_18h08.55.599,MST_test,2024.2.2,59.99530836687437,2025-11-14 18h09.02.416515 +0530,
91,0,91,o,1.8412731000003077,None,91,0,91,0,305.1193427999999,,,,,,,,,,,,,,,,,,,,,,,,,,,,,,,,,,,,,,,,,,,,,,,,,,305.10297650000007,305.1193427999999,305.6192883000001,305.60278129999983,305.6120312999999,305.6192883000001,305.6192883000001,305.6192883000001,307.4695442,Objects\111a.jpg,pre,o,1.8412731000003077,None,,,,,,,,00010,001,2025-11-14_18h08.55.599,MST_test,2024.2.2,59.99530836687437,2025-11-14 18h09.02.416515 +0530,
92,0,92,s,1.907168300000194,None,92,0,92,0,307.48595980000005,,,,,,,,,,,,,,,,,,,,,,,,,,,,,,,,,,,,,,,,,,,,,,,,,,307.46962039999994,307.48595980000005,308.0026102999998,307.9693592000001,307.9981108999998,308.0026102999998,308.0026102999998,308.0026102999998,309.91946059999987,Foils\042a.jpg,none,s,1.907168300000194,None,,,,,,,,00010,001,2025-11-14_18h08.55.599,MST_test,2024.2.2,59.99530836687437,2025-11-14 18h09.02.416515 +0530,
93,0,93,n,0.9994902999997066,None,93,0,93,0,309.9359012000002,,,,,,,,,,,,,,,,,,,,,,,,,,,,,,,,,,,,,,,,,,,,,,,,,,309.9195484999998,309.9359012000002,310.4527688999999,310.41937329999996,310.4416826999998,310.4527688999999,310.4527688999999,310.4527688999999,311.45275229999993,Scenes\089a.jpg,mid,n,0.9994902999997066,None,,,,,,,,00010,001,2025-11-14_18h08.55.599,MST_test,2024.2.2,59.99530836687437,2025-11-14 18h09.02.416515 +0530,
94,0,94,o,1.2778561000000082,None,94,0,94,0,311.46917099999996,,,,,,,,,,,,,,,,,,,,,,,,,,,,,,,,,,,,,,,,,,,,,,,,,,311.45282569999995,311.46917099999996,312.00277660000006,311.9527949000001,311.9822065999999,312.00277660000006,312.00277660000006,312.00277660000006,313.2860769000001,Scenes\046a.jpg,mid,o,1.2778561000000082,None,,,,,,,,00010,001,2025-11-14_18h08.55.599,MST_test,2024.2.2,59.99530836687437,2025-11-14 18h09.02.416515 +0530,
95,0,95,o,0.9439033999997264,None,95,0,95,0,313.3024979999998,,,,,,,,,,,,,,,,,,,,,,,,,,,,,,,,,,,,,,,,,,,,,,,,,,313.28614519999996,313.3024979999998,313.83578550000016,313.78599580000014,313.8288921999999,313.83578550000016,313.83578550000016,313.83578550000016,314.78600729999994,Scenes\145b.jpg,mid,o,0.9439033999997264,None,,,,,,,,00010,001,2025-11-14_18h08.55.599,MST_test,2024.2.2,59.99530836687437,2025-11-14 18h09.02.416515 +0530,
96,0,96,o,0.8005895000001146,None,96,0,96,0,314.80244590000007,,,,,,,,,,,,,,,,,,,,,,,,,,,,,,,,,,,,,,,,,,,,,,,,,,314.78607639999996,314.80244590000007,315.3357398999999,315.28593509999996,315.3183068000001,315.3357398999999,315.3357398999999,315.3357398999999,316.15274710000017,Scenes\073b.jpg,mid,o,0.8005895000001146,None,,,,,,,,00010,001,2025-11-14_18h08.55.599,MST_test,2024.2.2,59.99530836687437,2025-11-14 18h09.02.416515 +0530,
97,0,97,n,1.5663710000003448,None,97,0,97,0,316.16911129999994,,,,,,,,,,,,,,,,,,,,,,,,,,,,,,,,,,,,,,,,,,,,,,,,,,316.1528258000001,316.16911129999994,316.6859462,316.6525568999998,316.6689619000001,316.6859462,316.6859462,316.6859462,318.2527822999998,Foils\073a.jpg,none,n,1.5663710000003448,None,,,,,,,,00010,001,2025-11-14_18h08.55.599,MST_test,2024.2.2,59.99530836687437,2025-11-14 18h09.02.416515 +0530,
98,0,98,s,1.2383342000002813,None,98,0,98,0,318.2690573000002,,,,,,,,,,,,,,,,,,,,,,,,,,,,,,,,,,,,,,,,,,,,,,,,,,318.2528556,318.2690573000002,318.7857431,318.75249740000004,318.7750939,318.7857431,318.7857431,318.7857431,320.0359560999998,Objects\116b.jpg,pre,s,1.2383342000002813,None,,,,,,,,00010,001,2025-11-14_18h08.55.599,MST_test,2024.2.2,59.99530836687437,2025-11-14 18h09.02.416515 +0530,
99,0,99,s,1.3818827999998575,None,99,0,99,0,320.0523768999999,,,,,,,,,,,,,,,,,,,,,,,,,,,,,,,,,,,,,,,,,,,,,,,,,,320.03603769999995,320.0523768999999,320.56896949999987,320.5358273999998,320.55849349999994,320.56896949999987,320.56896949999987,320.56896949999987,321.95270730000016,Objects\048b.jpg,post,s,1.3818827999998575,None,,,,,,,,00010,001,2025-11-14_18h08.55.599,MST_test,2024.2.2,59.99530836687437,2025-11-14 18h09.02.416515 +0530,
100,0,100,n,1.2414065000002665,None,100,0,100,0,321.96897160000003,,,,,,,,,,,,,,,,,,,,,,,,,,,,,,,,,,,,,,,,,,,,,,,,,,321.9527807000002,321.96897160000003,322.5022526,322.45258260000014,322.4859272000001,322.5022526,322.5022526,322.5022526,323.75249240000016,Scenes\118b.jpg,pre,n,1.2414065000002665,None,,,,,,,,00010,001,2025-11-14_18h08.55.599,MST_test,2024.2.2,59.99530836687437,2025-11-14 18h09.02.416515 +0530,
101,0,101,o,1.2168282999996336,None,101,0,101,0,323.7689456999999,,,,,,,,,,,,,,,,,,,,,,,,,,,,,,,,,,,,,,,,,,,,,,,,,,323.7525678999998,323.7689456999999,324.26887220000003,324.2524079000002,324.2625055000001,324.26887220000003,324.26887220000003,324.26887220000003,325.4861916000002,Objects\008a.jpg,mid,o,1.2168282999996336,None,,,,,,,,00010,001,2025-11-14_18h08.55.599,MST_test,2024.2.2,59.99530836687437,2025-11-14 18h09.02.416515 +0530,
102,0,102,o,1.7392375999997967,None,102,0,102,0,325.5021847999999,,,,,,,,,,,,,,,,,,,,,,,,,,,,,,,,,,,,,,,,,,,,,,,,,,325.4862701999998,325.5021847999999,326.0191126000002,325.98565380000014,326.00352959999987,326.0191126000002,326.0191126000002,326.0191126000002,327.76909219999993,Scenes\008a.jpg,post,o,1.7392375999997967,None,,,,,,,,00010,001,2025-11-14_18h08.55.599,MST_test,2024.2.2,59.99530836687437,2025-11-14 18h09.02.416515 +0530,
103,0,103,n,1.483531899999889,None,103,0,103,0,327.78551660000016,,,,,,,,,,,,,,,,,,,,,,,,,,,,,,,,,,,,,,,,,,,,,,,,,,327.7691747000001,327.78551660000016,328.3021510000001,328.2690144999999,328.2887717000001,328.3021510000001,328.3021510000001,328.3021510000001,329.8022921999998,Foils\050a.jpg,none,n,1.483531899999889,None,,,,,,,,00010,001,2025-11-14_18h08.55.599,MST_test,2024.2.2,59.99530836687437,2025-11-14 18h09.02.416515 +0530,
104,0,104,o,1.2190965999998298,None,104,0,104,0,329.818814,,,,,,,,,,,,,,,,,,,,,,,,,,,,,,,,,,,,,,,,,,,,,,,,,,329.8023602999999,329.818814,330.3188069999999,330.30222130000016,330.31167930000015,330.3188069999999,330.3188069999999,330.3188069999999,331.5523598000002,Objects\063a.jpg,post,o,1.2190965999998298,None,,,,,,,,00010,001,2025-11-14_18h08.55.599,MST_test,2024.2.2,59.99530836687437,2025-11-14 18h09.02.416515 +0530,
105,0,105,s,1.533947100000205,None,105,0,105,0,331.56878089999987,,,,,,,,,,,,,,,,,,,,,,,,,,,,,,,,,,,,,,,,,,,,,,,,,,331.5524373999999,331.56878089999987,332.1023595999998,332.05221319999987,332.08760400000006,332.1023595999998,332.1023595999998,332.1023595999998,333.6522941999999,Scenes\101b.jpg,post,s,1.533947100000205,None,,,,,,,,00010,001,2025-11-14_18h08.55.599,MST_test,2024.2.2,59.99530836687437,2025-11-14 18h09.02.416515 +0530,
106,0,106,o,1.019130099999984,None,106,0,106,0,333.66862079999987,,,,,,,,,,,,,,,,,,,,,,,,,,,,,,,,,,,,,,,,,,,,,,,,,,333.6523727000001,333.66862079999987,334.16857129999994,334.1521077,334.16194169999994,334.16857129999994,334.16857129999994,334.16857129999994,335.20217590000016,Objects\045a.jpg,pre,o,1.019130099999984,None,,,,,,,,00010,001,2025-11-14_18h08.55.599,MST_test,2024.2.2,59.99530836687437,2025-11-14 18h09.02.416515 +0530,
107,0,107,n,0.8462611999998444,None,107,0,107,0,335.2186153,,,,,,,,,,,,,,,,,,,,,,,,,,,,,,,,,,,,,,,,,,,,,,,,,,335.2022558000001,335.2186153,335.75216879999994,335.7020221999999,335.73374249999983,335.75216879999994,335.75216879999994,335.75216879999994,336.6022719,Foils\scenes12.jpg,none,n,0.8462611999998444,None,,,,,,,,00010,001,2025-11-14_18h08.55.599,MST_test,2024.2.2,59.99530836687437,2025-11-14 18h09.02.416515 +0530,
108,0,108,s,1.718418500000098,None,108,0,108,0,336.61850849999996,,,,,,,,,,,,,,,,,,,,,,,,,,,,,,,,,,,,,,,,,,,,,,,,,,336.6023504000002,336.61850849999996,337.15186149999977,337.1021079999998,337.13333850000004,337.15186149999977,337.15186149999977,337.15186149999977,338.88556970000013,Foils\086a.jpg,none,s,1.718418500000098,None,,,,,,,,00010,001,2025-11-14_18h08.55.599,MST_test,2024.2.2,59.99530836687437,2025-11-14 18h09.02.416515 +0530,
109,0,109,s,1.6048691000000872,None,109,0,109,0,338.9018343,,,,,,,,,,,,,,,,,,,,,,,,,,,,,,,,,,,,,,,,,,,,,,,,,,338.8856535000002,338.9018343,339.43544829999996,339.38549309999985,339.4293129,339.43544829999996,339.43544829999996,339.43544829999996,341.0521710999999,Scenes\114b.jpg,post,s,1.6048691000000872,None,,,,,,,,00010,001,2025-11-14_18h08.55.599,MST_test,2024.2.2,59.99530836687437,2025-11-14 18h09.02.416515 +0530,
110,0,110,o,1.2226553000000422,None,110,0,110,0,341.0684893,,,,,,,,,,,,,,,,,,,,,,,,,,,,,,,,,,,,,,,,,,,,,,,,,,341.05225300000006,341.0684893,341.5851734999999,341.55200219999983,341.5805364999999,341.5851734999999,341.5851734999999,341.5851734999999,342.8187005000002,Scenes\023a.jpg,post,o,1.2226553000000422,None,,,,,,,,00010,001,2025-11-14_18h08.55.599,MST_test,2024.2.2,59.99530836687437,2025-11-14 18h09.02.416515 +0530,
111,0,111,o,1.2099244000000908,None,111,0,111,0,342.8350890999998,,,,,,,,,,,,,,,,,,,,,,,,,,,,,,,,,,,,,,,,,,,,,,,,,,342.8187838000001,342.8350890999998,343.3519657999998,343.31863439999984,343.34826670000007,343.3519657999998,343.3519657999998,343.3519657999998,344.56878429999983,Objects\163b.jpg,mid,o,1.2099244000000908,None,,,,,,,,00010,001,2025-11-14_18h08.55.599,MST_test,2024.2.2,59.99530836687437,2025-11-14 18h09.02.416515 +0530,
112,0,112,s,2.4799976999997853,None,112,0,112,0,344.5850417999998,,,,,,,,,,,,,,,,,,,,,,,,,,,,,,,,,,,,,,,,,,,,,,,,,,344.5688676000002,344.5850417999998,345.1021096000002,345.06867609999995,345.08213469999987,345.1021096000002,345.1021096000002,345.1021096000002,347.58538620000013,Foils\scenes14.jpg,none,s,2.4799976999997853,None,,,,,,,,00010,001,2025-11-14_18h08.55.599,MST_test,2024.2.2,59.99530836687437,2025-11-14 18h09.02.416515 +0530,
113,0,113,o,1.1412520999997469,None,113,0,113,0,347.6016453,,,,,,,,,,,,,,,,,,,,,,,,,,,,,,,,,,,,,,,,,,,,,,,,,,347.5854815,347.6016453,348.1185773999998,348.08520539999995,348.1040043999999,348.1185773999998,348.1185773999998,348.1185773999998,349.2686328000002,Scenes\052a.jpg,post,o,1.1412520999997469,None,,,,,,,,00010,001,2025-11-14_18h08.55.599,MST_test,2024.2.2,59.99530836687437,2025-11-14 18h09.02.416515 +0530,
114,0,114,s,1.4241892999998527,None,114,0,114,0,349.2849428000002,,,,,,,,,,,,,,,,,,,,,,,,,,,,,,,,,,,,,,,,,,,,,,,,,,349.26870239999994,349.2849428000002,349.80157410000015,349.7685706999998,349.7874900999998,349.80157410000015,349.80157410000015,349.80157410000015,351.2352681,Scenes\018a.jpg,mid,s,1.4241892999998527,None,,,,,,,,00010,001,2025-11-14_18h08.55.599,MST_test,2024.2.2,59.99530836687437,2025-11-14 18h09.02.416515 +0530,
115,0,115,n,1.5983188000000155,None,115,0,115,0,351.25156679999986,,,,,,,,,,,,,,,,,,,,,,,,,,,,,,,,,,,,,,,,,,,,,,,,,,351.23535030000016,351.25156679999986,351.78524630000015,351.7350705000001,351.7694447000001,351.78524630000015,351.78524630000015,351.78524630000015,353.3852436999998,Scenes\117b.jpg,pre,n,1.5983188000000155,None,,,,,,,,00010,001,2025-11-14_18h08.55.599,MST_test,2024.2.2,59.99530836687437,2025-11-14 18h09.02.416515 +0530,
116,0,116,o,0.8289386000001286,None,116,0,116,0,353.4015519000002,,,,,,,,,,,,,,,,,,,,,,,,,,,,,,,,,,,,,,,,,,,,,,,,,,353.38532899999996,353.4015519000002,353.93502409999996,353.8850073000001,353.9166727999998,353.93502409999996,353.93502409999996,353.93502409999996,354.7685251999999,Scenes\033b.jpg,mid,o,0.8289386000001286,None,,,,,,,,00010,001,2025-11-14_18h08.55.599,MST_test,2024.2.2,59.99530836687437,2025-11-14 18h09.02.416515 +0530,
117,0,117,o,1.1160539000002245,None,117,0,117,0,354.7848179,,,,,,,,,,,,,,,,,,,,,,,,,,,,,,,,,,,,,,,,,,,,,,,,,,354.76859519999994,354.7848179,355.3017140999998,355.26835749999987,355.29441250000013,355.3017140999998,355.3017140999998,355.3017140999998,356.4184745,Scenes\076a.jpg,mid,o,1.1160539000002245,None,,,,,,,,00010,001,2025-11-14_18h08.55.599,MST_test,2024.2.2,59.99530836687437,2025-11-14 18h09.02.416515 +0530,
118,0,118,o,0.8943498000003274,None,118,0,118,0,356.4347541999998,,,,,,,,,,,,,,,,,,,,,,,,,,,,,,,,,,,,,,,,,,,,,,,,,,356.41855199999986,356.4347541999998,356.9683465999999,356.91834630000017,356.95326679999994,356.9683465999999,356.9683465999999,356.9683465999999,357.86852669999985,Scenes\034a.jpg,pre,o,0.8943498000003274,None,,,,,,,,00010,001,2025-11-14_18h08.55.599,MST_test,2024.2.2,59.99530836687437,2025-11-14 18h09.02.416515 +0530,
119,0,119,o,0.7333724999998594,None,119,0,119,0,357.8847767999998,,,,,,,,,,,,,,,,,,,,,,,,,,,,,,,,,,,,,,,,,,,,,,,,,,357.8686123,357.8847767999998,358.3850722999998,358.36833249999995,358.3780773000001,358.3850722999998,358.3850722999998,358.3850722999998,359.1351769999999,Objects\055a.jpg,mid,o,0.7333724999998594,None,,,,,,,,00010,001,2025-11-14_18h08.55.599,MST_test,2024.2.2,59.99530836687437,2025-11-14 18h09.02.416515 +0530,
120,0,120,n,1.5051720000001296,None,120,0,120,0,359.15137919999984,,,,,,,,,,,,,,,,,,,,,,,,,,,,,,,,,,,,,,,,,,,,,,,,,,359.1352638999999,359.15137919999984,359.6847016999998,359.6350473,359.6648137999998,359.6847016999998,359.6847016999998,359.6847016999998,361.20167909999986,Objects\069b.jpg,post,n,1.5051720000001296,None,,,,,,,,00010,001,2025-11-14_18h08.55.599,MST_test,2024.2.2,59.99530836687437,2025-11-14 18h09.02.416515 +0530,
121,0,121,o,1.1596181999998407,None,121,0,121,0,361.2180222999998,,,,,,,,,,,,,,,,,,,,,,,,,,,,,,,,,,,,,,,,,,,,,,,,,,361.2017592999998,361.2180222999998,361.7179748000001,361.7016256999998,361.7114484000001,361.7179748000001,361.7179748000001,361.7179748000001,362.8850639,Objects\071a.jpg,pre,o,1.1596181999998407,None,,,,,,,,00010,001,2025-11-14_18h08.55.599,MST_test,2024.2.2,59.99530836687437,2025-11-14 18h09.02.416515 +0530,
122,0,122,n,1.634381299999859,None,122,0,122,0,362.9013246000002,,,,,,,,,,,,,,,,,,,,,,,,,,,,,,,,,,,,,,,,,,,,,,,,,,362.88513910000006,362.9013246000002,363.41826639999977,363.38490549999983,363.41222859999993,363.41826639999977,363.41826639999977,363.41826639999977,365.0682214000001,Foils\scenes16.jpg,none,n,1.634381299999859,None,,,,,,,,00010,001,2025-11-14_18h08.55.599,MST_test,2024.2.2,59.99530836687437,2025-11-14 18h09.02.416515 +0530,
123,0,123,o,1.0858086999996885,None,123,0,123,0,365.08459389999985,,,,,,,,,,,,,,,,,,,,,,,,,,,,,,,,,,,,,,,,,,,,,,,,,,365.068305,365.08459389999985,365.63475379999977,365.5680811999998,365.61567519999994,365.63475379999977,365.63475379999977,365.63475379999977,366.73484859999985,Scenes\045b.jpg,mid,o,1.0858086999996885,None,,,,,,,,00010,001,2025-11-14_18h08.55.599,MST_test,2024.2.2,59.99530836687437,2025-11-14 18h09.02.416515 +0530,
124,0,124,o,2.427649599999768,None,124,0,124,0,366.75119729999983,,,,,,,,,,,,,,,,,,,,,,,,,,,,,,,,,,,,,,,,,,,,,,,,,,366.7349324999998,366.75119729999983,367.2848255000001,367.2348730000001,367.2751995000001,367.2848255000001,367.2848255000001,367.2848255000001,369.71816839999997,Scenes\017b.jpg,pre,o,2.427649599999768,None,,,,,,,,00010,001,2025-11-14_18h08.55.599,MST_test,2024.2.2,59.99530836687437,2025-11-14 18h09.02.416515 +0530,
125,0,125,o,0.6798366000002716,None,125,0,125,0,369.7345518999998,,,,,,,,,,,,,,,,,,,,,,,,,,,,,,,,,,,,,,,,,,,,,,,,,,369.7182443999998,369.7345518999998,370.2346318000002,370.2179776999999,370.2285890999999,370.2346318000002,370.2346318000002,370.2346318000002,370.91810999999984,Objects\183a.jpg,mid,o,0.6798366000002716,None,,,,,,,,00010,001,2025-11-14_18h08.55.599,MST_test,2024.2.2,59.99530836687437,2025-11-14 18h09.02.416515 +0530,
126,0,126,s,1.5299561000001631,None,126,0,126,0,370.9344815000002,,,,,,,,,,,,,,,,,,,,,,,,,,,,,,,,,,,,,,,,,,,,,,,,,,370.918179,370.9344815000002,371.4680586000002,371.41795549999983,371.44816049999986,371.4680586000002,371.4680586000002,371.4680586000002,373.00152779999985,Scenes\042b.jpg,post,s,1.5299561000001631,None,,,,,,,,00010,001,2025-11-14_18h08.55.599,MST_test,2024.2.2,59.99530836687437,2025-11-14 18h09.02.416515 +0530,
127,0,127,s,1.2517452000001867,None,127,0,127,0,373.0177658,,,,,,,,,,,,,,,,,,,,,,,,,,,,,,,,,,,,,,,,,,,,,,,,,,373.0016119999998,373.0177658,373.5343891,373.50125589999993,373.52743799999985,373.5343891,373.5343891,373.5343891,374.80135099999984,Foils\105a.jpg,none,s,1.2517452000001867,None,,,,,,,,00010,001,2025-11-14_18h08.55.599,MST_test,2024.2.2,59.99530836687437,2025-11-14 18h09.02.416515 +0530,
128,0,128,n,1.657636999999795,None,128,0,128,0,374.8177360000002,,,,,,,,,,,,,,,,,,,,,,,,,,,,,,,,,,,,,,,,,,,,,,,,,,374.80141990000016,374.8177360000002,375.33435239999994,375.3012314,375.32748689999994,375.33435239999994,375.33435239999994,375.33435239999994,377.0012813000001,Foils\101b.jpg,none,n,1.657636999999795,None,,,,,,,,00010,001,2025-11-14_18h08.55.599,MST_test,2024.2.2,59.99530836687437,2025-11-14 18h09.02.416515 +0530,
129,0,129,o,1.036645099999987,None,129,0,129,0,377.01768030000017,,,,,,,,,,,,,,,,,,,,,,,,,,,,,,,,,,,,,,,,,,,,,,,,,,377.0013631999998,377.01768030000017,377.51762799999983,377.5011631,377.51056429999994,377.51762799999983,377.51762799999983,377.51762799999983,378.5680877000002,Objects\022a.jpg,pre,o,1.036645099999987,None,,,,,,,,00010,001,2025-11-14_18h08.55.599,MST_test,2024.2.2,59.99530836687437,2025-11-14 18h09.02.416515 +0530,
130,0,130,s,1.975926200000231,None,130,0,130,0,378.58426380000014,,,,,,,,,,,,,,,,,,,,,,,,,,,,,,,,,,,,,,,,,,,,,,,,,,378.5681677,378.58426380000014,379.0842971999998,379.06775089999996,379.0772128000001,379.0842971999998,379.0842971999998,379.0842971999998,381.06786320000015,Objects\060a.jpg,mid,s,1.975926200000231,None,,,,,,,,00010,001,2025-11-14_18h08.55.599,MST_test,2024.2.2,59.99530836687437,2025-11-14 18h09.02.416515 +0530,
131,0,131,n,1.4497306999996908,None,131,0,131,0,381.08422050000013,,,,,,,,,,,,,,,,,,,,,,,,,,,,,,,,,,,,,,,,,,,,,,,,,,381.06793619999985,381.08422050000013,381.58450130000006,381.5677364999999,381.5791729,381.58450130000006,381.58450130000006,381.58450130000006,383.0345940999998,Foils\scenes18.jpg,none,n,1.4497306999996908,None,,,,,,,,00010,001,2025-11-14_18h08.55.599,MST_test,2024.2.2,59.99530836687437,2025-11-14 18h09.02.416515 +0530,
132,0,132,s,1.5666261999999733,None,132,0,132,0,383.05088150000006,,,,,,,,,,,,,,,,,,,,,,,,,,,,,,,,,,,,,,,,,,,,,,,,,,383.03466520000006,383.05088150000006,383.5842033000001,383.5343642,383.5706650999998,383.5842033000001,383.5842033000001,383.5842033000001,385.1512574000001,Foils\scenes1.jpg,none,s,1.5666261999999733,None,,,,,,,,00010,001,2025-11-14_18h08.55.599,MST_test,2024.2.2,59.99530836687437,2025-11-14 18h09.02.416515 +0530,
133,0,133,n,2.7622362000001885,None,133,0,133,0,385.1675023999999,,,,,,,,,,,,,,,,,,,,,,,,,,,,,,,,,,,,,,,,,,,,,,,,,,385.1513324,385.1675023999999,385.68435239999985,385.6510194,385.6798256999998,385.68435239999985,385.68435239999985,385.68435239999985,388.4510988999998,Scenes\009a.jpg,mid,n,2.7622362000001885,None,,,,,,,,00010,001,2025-11-14_18h08.55.599,MST_test,2024.2.2,59.99530836687437,2025-11-14 18h09.02.416515 +0530,
134,0,134,o,1.0081618999997772,None,134,0,134,0,388.4674293999999,,,,,,,,,,,,,,,,,,,,,,,,,,,,,,,,,,,,,,,,,,,,,,,,,,388.4511808999998,388.4674293999999,388.9840694000002,388.95098669999993,388.97313469999995,388.9840694000002,388.9840694000002,388.9840694000002,390.0010027000001,Objects\001b.jpg,pre,o,1.0081618999997772,None,,,,,,,,00010,001,2025-11-14_18h08.55.599,MST_test,2024.2.2,59.99530836687437,2025-11-14 18h09.02.416515 +0530,
135,0,135,o,1.582813200000146,None,135,0,135,0,390.01740029999996,,,,,,,,,,,,,,,,,,,,,,,,,,,,,,,,,,,,,,,,,,,,,,,,,,390.0010834000002,390.01740029999996,390.55096320000007,390.5008744999998,390.5334055000001,390.55096320000007,390.55096320000007,390.55096320000007,392.13442169999985,Scenes\156b.jpg,post,o,1.582813200000146,None,,,,,,,,00010,001,2025-11-14_18h08.55.599,MST_test,2024.2.2,59.99530836687437,2025-11-14 18h09.02.416515 +0530,
136,0,136,n,1.8783791000000747,None,136,0,136,0,392.15069659999995,,,,,,,,,,,,,,,,,,,,,,,,,,,,,,,,,,,,,,,,,,,,,,,,,,392.13450149999994,392.15069659999995,392.6840079000001,392.63417270000014,392.66768130000014,392.6840079000001,392.6840079000001,392.6840079000001,394.5676557999998,Scenes\068b.jpg,pre,n,1.8783791000000747,None,,,,,,,,00010,001,2025-11-14_18h08.55.599,MST_test,2024.2.2,59.99530836687437,2025-11-14 18h09.02.416515 +0530,
137,0,137,o,1.0005597999997917,None,137,0,137,0,394.58396400000015,,,,,,,,,,,,,,,,,,,,,,,,,,,,,,,,,,,,,,,,,,,,,,,,,,394.5677355999999,394.58396400000015,395.0839182000002,395.06747659999996,395.07861149999985,395.0839182000002,395.0839182000002,395.0839182000002,396.1008417999999,Objects\149a.jpg,pre,o,1.0005597999997917,None,,,,,,,,00010,001,2025-11-14_18h08.55.599,MST_test,2024.2.2,59.99530836687437,2025-11-14 18h09.02.416515 +0530,
138,0,138,o,2.0978778999997303,None,138,0,138,0,396.1172675,,,,,,,,,,,,,,,,,,,,,,,,,,,,,,,,,,,,,,,,,,,,,,,,,,396.1009179,396.1172675,396.6339021000001,396.60069940000017,396.62025530000005,396.6339021000001,396.6339021000001,396.6339021000001,398.73415150000005,Scenes\150a.jpg,mid,o,2.0978778999997303,None,,,,,,,,00010,001,2025-11-14_18h08.55.599,MST_test,2024.2.2,59.99530836687437,2025-11-14 18h09.02.416515 +0530,
139,0,139,o,1.1623293000002377,None,139,0,139,0,398.75054750000004,,,,,,,,,,,,,,,,,,,,,,,,,,,,,,,,,,,,,,,,,,,,,,,,,,398.73423419999995,398.75054750000004,399.25054669999986,399.2340388,399.24408530000005,399.25054669999986,399.25054669999986,399.25054669999986,400.41746720000015,Objects\093a.jpg,mid,o,1.1623293000002377,None,,,,,,,,00010,001,2025-11-14_18h08.55.599,MST_test,2024.2.2,59.99530836687437,2025-11-14 18h09.02.416515 +0530,
140,0,140,n,1.2361626000001706,None,140,0,140,0,400.4338372999998,,,,,,,,,,,,,,,,,,,,,,,,,,,,,,,,,,,,,,,,,,,,,,,,,,400.41753919999996,400.4338372999998,400.9507511999998,400.9173183999999,400.9422814000002,400.9507511999998,400.9507511999998,400.9507511999998,402.2007672000002,Foils\scenes3.jpg,none,n,1.2361626000001706,None,,,,,,,,00010,001,2025-11-14_18h08.55.599,MST_test,2024.2.2,59.99530836687437,2025-11-14 18h09.02.416515 +0530,
141,0,141,n,3.2695952999997644,None,141,0,141,0,402.21709179999993,,,,,,,,,,,,,,,,,,,,,,,,,,,,,,,,,,,,,,,,,,,,,,,,,,402.2008361999999,402.21709179999993,402.7340333999998,402.70071489999987,402.7179993000002,402.7340333999998,402.7340333999998,402.7340333999998,406.01740670000004,Scenes\123a.jpg,post,n,3.2695952999997644,None,,,,,,,,00010,001,2025-11-14_18h08.55.599,MST_test,2024.2.2,59.99530836687437,2025-11-14 18h09.02.416515 +0530,
142,0,142,o,1.1730413999998746,None,142,0,142,0,406.0337130999999,,,,,,,,,,,,,,,,,,,,,,,,,,,,,,,,,,,,,,,,,,,,,,,,,,406.0174927999999,406.0337130999999,406.56738169999994,406.5172230999999,406.5581562,406.56738169999994,406.56738169999994,406.56738169999994,407.75063239999986,Scenes\095b.jpg,pre,o,1.1730413999998746,None,,,,,,,,00010,001,2025-11-14_18h08.55.599,MST_test,2024.2.2,59.99530836687437,2025-11-14 18h09.02.416515 +0530,
143,0,143,o,1.0824139999999716,None,143,0,143,0,407.7679182999998,,,,,,,,,,,,,,,,,,,,,,,,,,,,,,,,,,,,,,,,,,,,,,,,,,407.7507099000002,407.7679182999998,408.28386079999996,408.25051099999996,408.2717417000001,408.28386079999996,408.28386079999996,408.28386079999996,409.3673046000001,Objects\122b.jpg,pre,o,1.0824139999999716,None,,,,,,,,00010,001,2025-11-14_18h08.55.599,MST_test,2024.2.2,59.99530836687437,2025-11-14 18h09.02.416515 +0530,
144,0,144,n,1.3928617999999915,None,144,0,144,0,409.3836435999999,,,,,,,,,,,,,,,,,,,,,,,,,,,,,,,,,,,,,,,,,,,,,,,,,,409.36738979999996,409.3836435999999,409.9169792,409.86715309999977,409.9007244000002,409.9169792,409.9169792,409.9169792,411.3172255000002,Objects\066b.jpg,post,n,1.3928617999999915,None,,,,,,,,00010,001,2025-11-14_18h08.55.599,MST_test,2024.2.2,59.99530836687437,2025-11-14 18h09.02.416515 +0530,
145,0,145,s,0.8830740000003061,None,145,0,145,0,411.33368140000016,,,,,,,,,,,,,,,,,,,,,,,,,,,,,,,,,,,,,,,,,,,,,,,,,,411.31729710000013,411.33368140000016,411.86690109999995,411.8171209999998,411.8515890000001,411.86690109999995,411.86690109999995,411.86690109999995,412.7506387000001,Objects\081b.jpg,post,s,0.8830740000003061,None,,,,,,,,00010,001,2025-11-14_18h08.55.599,MST_test,2024.2.2,59.99530836687437,2025-11-14 18h09.02.416515 +0530,
146,0,146,o,1.009321,None,146,0,146,0,412.7669020000001,,,,,,,,,,,,,,,,,,,,,,,,,,,,,,,,,,,,,,,,,,,,,,,,,,412.7507174,412.7669020000001,413.2668928999999,413.2503777999998,413.2600398000002,413.2668928999999,413.2668928999999,413.2668928999999,414.28378869999983,Objects\038a.jpg,pre,o,1.009321,None,,,,,,,,00010,001,2025-11-14_18h08.55.599,MST_test,2024.2.2,59.99530836687437,2025-11-14 18h09.02.416515 +0530,
147,0,147,n,1.1436972999999853,None,147,0,147,0,414.30023370000004,,,,,,,,,,,,,,,,,,,,,,,,,,,,,,,,,,,,,,,,,,,,,,,,,,414.28386969999997,414.30023370000004,414.81684789999986,414.78372000000013,414.80563449999977,414.81684789999986,414.81684789999986,414.81684789999986,415.9672231000002,Foils\082a.jpg,none,n,1.1436972999999853,None,,,,,,,,00010,001,2025-11-14_18h08.55.599,MST_test,2024.2.2,59.99530836687437,2025-11-14 18h09.02.416515 +0530,
148,0,148,o,0.9649549000000661,None,148,0,148,0,415.9835088000002,,,,,,,,,,,,,,,,,,,,,,,,,,,,,,,,,,,,,,,,,,,,,,,,,,415.9673022999998,415.9835088000002,416.5001243999998,416.4669750999999,416.49022249999985,416.5001243999998,416.5001243999998,416.5001243999998,417.4670804,Objects\172b.jpg,post,o,0.9649549000000661,None,,,,,,,,00010,001,2025-11-14_18h08.55.599,MST_test,2024.2.2,59.99530836687437,2025-11-14 18h09.02.416515 +0530,
149,0,149,o,0.6343919000000824,None,149,0,149,0,417.48347519999993,,,,,,,,,,,,,,,,,,,,,,,,,,,,,,,,,,,,,,,,,,,,,,,,,,417.4671609999998,417.48347519999993,418.0000886,417.9669833999999,417.9951773,418.0000886,418.0000886,418.0000886,418.65038919999984,Objects\054b.jpg,mid,o,0.6343919000000824,None,,,,,,,,00010,001,2025-11-14_18h08.55.599,MST_test,2024.2.2,59.99530836687437,2025-11-14 18h09.02.416515 +0530,
,,,,,,,,,,,,,,,,,,,,,,,,,,,,,,,,,,,,,,,,,,,,,,,,,,,,,,,,,,,,,,,,,,,,,,,,,,418.65043760000003,418.6667807000001,418.6667807000001,420.3670116999999,space,1.6908504000002722,None,00010,001,2025-11-14_18h08.55.599,MST_test,2024.2.2,59.99530836687437,2025-11-14 18h09.02.416515 +0530,
