Sl_no,image_path,thisN,thisTrialN,thisRepN,key_resp_5.keys,key_resp_7.keys,key_resp_7.rt,key_resp_7.duration,key_resp_5.rt,key_resp_5.duration,key_resp_9.keys,key_resp_9.rt,key_resp_9.duration,key_resp_8.keys,key_resp_8.rt,key_resp_8.duration,practice.thisRepN,practice.thisTrialN,practice.thisN,trials.thisRepN,trials.thisTrialN,trials.thisN,thisRow.t,notes,welcome_page.started,text.started,key_resp.started,welcome_page.stopped,key_resp.keys,key_resp.rt,key_resp.duration,instructions.started,ins.started,key_resp_2.started,instructions.stopped,key_resp_2.keys,key_resp_2.rt,key_resp_2.duration,objects_only_instruction.started,text_3.started,key_resp_3.started,objects_only_instruction.stopped,key_resp_3.keys,key_resp_3.rt,key_resp_3.duration,ISI.started,text_4.started,ISI.stopped,practice_block.started,image.started,text_5.started,key_resp_5.started,practice_block.stopped,practice.key_resp_5.keys,indoor_outdoor.started,text_7.started,key_resp_7.started,indoor_outdoor.stopped,practice.key_resp_7.keys,practice.key_resp_7.rt,practice.key_resp_7.duration,text_4.stopped,practice.key_resp_5.rt,practice.key_resp_5.duration,practice_to_main.started,text_2.started,key_resp_4.started,practice_to_main.stopped,key_resp_4.keys,key_resp_4.rt,key_resp_4.duration,objects.started,image_2.started,text_9.started,key_resp_9.started,objects.stopped,trials.key_resp_9.keys,trials.key_resp_9.rt,trials.key_resp_9.duration,encoding_task.started,encoding_task.stopped,trials.key_resp_8.keys,text_8.started,key_resp_8.started,trials.key_resp_8.rt,trials.key_resp_8.duration,image_2.stopped,text_9.stopped,key_resp_9.stopped,end_experiment.started,text_6.started,key_resp_6.started,end_experiment.stopped,key_resp_6.keys,key_resp_6.rt,key_resp_6.duration,list_of_stimuli,encoding_task_accuracy,participant,session,date,expName,psychopyVersion,frameRate,expStart,
,,,,,,,,,,,,,,,,,,,,,,,,,0.002505700002075173,0.004955800002790056,0.004955800002790056,955.3437548999937,space,955.3177808000037,None,,,,,,,,,,,,,,,,,,,,,,,,,,,,,,,,,,,,,,,,,,,,,,,,,,,,,,,,,,,,,,,,,,,,00018,001,2026-01-20_14h57.56.200,MST_task,2024.2.0,59.9251654556009,2026-01-20 14h58.12.859873 +0530,
,,,,,,,,,,,,,,,,,,,,,,,,,,,,,,,,955.3438452999981,955.3614223999903,955.3614223999903,1018.505696799999,space,63.1382847000059,None,,,,,,,,,,,,,,,,,,,,,,,,,,,,,,,,,,,,,,,,,,,,,,,,,,,,,,,,,,,,,00018,001,2026-01-20_14h57.56.200,MST_task,2024.2.0,59.9251654556009,2026-01-20 14h58.12.859873 +0530,
,,,,,,,,,,,,,,,,,,,,,,,,,,,,,,,,,,,,,,,1018.5058758999949,1018.5260617000022,1018.5260617000022,1041.9729278000013,space,23.444634899991797,None,,,,,,,,,,,,,,,,,,,,,,,,,,,,,,,,,,,,,,,,,,,,,,,,,,,,,,00018,001,2026-01-20_14h57.56.200,MST_task,2024.2.0,59.9251654556009,2026-01-20 14h58.12.859873 +0530,
8,practice_images/178a.jpg,0,0,1,None,f,0.24341979999735486,None,,,,,,,,,1,0,0,,,,1042.0153912999958,,,,,,,,,,,,,,,,,,,,,,,1042.0119797999942,1042.0153912999958,1042.4870301000046,1042.5193279999949,1042.5519208999904,1042.5519208999904,1042.5519208999904,1045.4871963999904,None,1045.4921520999924,1045.5036058999976,1045.5036058999976,1045.7550997999933,f,0.24341979999735486,None,,,,,,,,,,,,,,,,,,,,,,,,,,,,,,,,,,,,,,00018,001,2026-01-20_14h57.56.200,MST_task,2024.2.0,59.9251654556009,2026-01-20 14h58.12.859873 +0530,
6,practice_images/158a.jpg,1,1,1,j,None,,,1.023943699998199,0.13577380000788253,,,,,,,1,1,1,,,,1045.7703700999991,,,,,,,,,,,,,,,,,,,,,,,1045.7553438000032,1045.7703700999991,1046.2546101999906,1046.2805473000044,1046.283358899993,1046.283358899993,1046.283358899993,1049.2706525999965,j,1049.2708391999913,,,1049.2708864000015,None,,,1046.283358899993,1.023943699998199,0.13577380000788253,,,,,,,,,,,,,,,,,,,,,,,,,,,,,,,,,,,00018,001,2026-01-20_14h57.56.200,MST_task,2024.2.0,59.9251654556009,2026-01-20 14h58.12.859873 +0530,
3,practice_images/037a.jpg,2,2,1,f,None,,,2.354825400005211,0.1447626000008313,,,,,,,1,2,2,,,,1049.2869020999933,,,,,,,,,,,,,,,,,,,,,,,1049.2710873000033,1049.2869020999933,1049.7712944999948,1049.796658799998,1049.7998068000015,1049.7998068000015,1049.7998068000015,1052.7871507999953,f,1052.7873604999913,,,1052.7874100000045,None,,,1049.7998068000015,2.354825400005211,0.1447626000008313,,,,,,,,,,,,,,,,,,,,,,,,,,,,,,,,,,,00018,001,2026-01-20_14h57.56.200,MST_task,2024.2.0,59.9251654556009,2026-01-20 14h58.12.859873 +0530,
2,practice_images/031a.jpg,3,3,1,None,f,0.21834880000096746,None,,,,,,,,,1,3,3,,,,1052.8035367999983,,,,,,,,,,,,,,,,,,,,,,,1052.7876230999973,1052.8035367999983,1053.2879647999944,1053.311327000003,1053.3150064999936,1053.3150064999936,1053.3150064999936,1056.303732699991,None,1056.3038593999954,1056.3201635000005,1056.3201635000005,1056.5559211999935,f,0.21834880000096746,None,1053.3150064999936,,,,,,,,,,,,,,,,,,,,,,,,,,,,,,,,,,,,,00018,001,2026-01-20_14h57.56.200,MST_task,2024.2.0,59.9251654556009,2026-01-20 14h58.12.859873 +0530,
5,practice_images/139a.jpg,4,4,1,f,None,,,2.5140049000037834,0.1442897999950219,,,,,,,1,4,4,,,,1056.5701998000004,,,,,,,,,,,,,,,,,,,,,,,1056.5563032999926,1056.5701998000004,1057.0544426999986,1057.0777170999936,1057.0807514999906,1057.0807514999906,1057.0807514999906,1060.0704858999961,f,1060.0706791999983,,,1060.0707275000022,None,,,1057.0807514999906,2.5140049000037834,0.1442897999950219,,,,,,,,,,,,,,,,,,,,,,,,,,,,,,,,,,,00018,001,2026-01-20_14h57.56.200,MST_task,2024.2.0,59.9251654556009,2026-01-20 14h58.12.859873 +0530,
9,practice_images/180a.jpg,5,5,1,f,None,,,1.7915600999986054,0.17642679999698885,,,,,,,1,5,5,,,,1060.0877211000043,,,,,,,,,,,,,,,,,,,,,,,1060.0709269999934,1060.0877211000043,1060.5712205000018,1060.5998836999934,1060.6032285999972,1060.6032285999972,1060.6032285999972,1063.587197899993,f,1063.587371200003,,,1063.5874332999956,None,,,1060.6032285999972,1.7915600999986054,0.17642679999698885,,,,,,,,,,,,,,,,,,,,,,,,,,,,,,,,,,,00018,001,2026-01-20_14h57.56.200,MST_task,2024.2.0,59.9251654556009,2026-01-20 14h58.12.859873 +0530,
1,practice_images/013a.jpg,6,6,1,j,None,,,1.9061279999878025,0.11921480001183227,,,,,,,1,6,6,,,,1063.6035396999941,,,,,,,,,,,,,,,,,,,,,,,1063.5876609999978,1063.6035396999941,1064.088023599994,1064.1185315000039,1064.1217540999933,1064.1217540999933,1064.1217540999933,1067.1037885999976,j,1067.103951600002,,,1067.1040057999926,None,,,1064.1217540999933,1.9061279999878025,0.11921480001183227,,,,,,,,,,,,,,,,,,,,,,,,,,,,,,,,,,,00018,001,2026-01-20_14h57.56.200,MST_task,2024.2.0,59.9251654556009,2026-01-20 14h58.12.859873 +0530,
7,practice_images/166a.jpg,7,7,1,f,None,,,1.3132045999955153,0.14421179999771994,,,,,,,1,7,7,,,,1067.1200263999926,,,,,,,,,,,,,,,,,,,,,,,1067.1042419000005,1067.1200263999926,1067.604471899991,1067.6305524999916,1067.6335345999978,1067.6335345999978,1067.6335345999978,1070.6204716999928,f,1070.620628299992,,,1070.6206772000005,None,,,1067.6335345999978,1.3132045999955153,0.14421179999771994,,,,,,,,,,,,,,,,,,,,,,,,,,,,,,,,,,,00018,001,2026-01-20_14h57.56.200,MST_task,2024.2.0,59.9251654556009,2026-01-20 14h58.12.859873 +0530,
4,practice_images/002b.jpg,8,8,1,f,None,,,0.9718461000011303,0.16024910000851378,,,,,,,1,8,8,,,,1070.6374978999957,,,,,,,,,,,,,,,,,,,,,,,1070.6208952000015,1070.6374978999957,1071.1212185999902,1071.147896399998,1071.1509765999945,1071.1509765999945,1071.1509765999945,1074.1374013000022,f,1074.1375654000003,,,1074.1376148999989,None,,,1071.1509765999945,0.9718461000011303,0.16024910000851378,,,,,,,,,,,,,,,,,,,,,,,,,,,,,,,,,,,00018,001,2026-01-20_14h57.56.200,MST_task,2024.2.0,59.9251654556009,2026-01-20 14h58.12.859873 +0530,
10,practice_images/182a.jpg,9,9,1,f,None,,,2.176967400009744,0.14465619999100454,,,,,,,1,9,9,,,,1074.1533682000008,,,,,,,,,,,,,,,,,,,,,,,1074.1378250999987,1074.1533682000008,1074.637750199996,1074.6542497000046,1074.657547099996,1074.657547099996,1074.657547099996,1077.6539063999953,f,1077.6541081000032,,,1077.6541814999946,None,,,1074.657547099996,2.176967400009744,0.14465619999100454,,,,,,,,,,,,,,,,,,,,,,,,,,,,,,,,,,,00018,001,2026-01-20_14h57.56.200,MST_task,2024.2.0,59.9251654556009,2026-01-20 14h58.12.859873 +0530,
,,,,,,,,,,,,,,,,,,,,,,,,,,,,,,,,,,,,,,,,,,,,,,,,,,,,,,,,,,,,,,,,,1077.654383599991,1077.6705154999945,1077.6705154999945,1551.9889130999945,space,474.30897769999865,None,,,,,,,,,,,,,,,,,,,,,,,,,,,,00018,001,2026-01-20_14h57.56.200,MST_task,2024.2.0,59.9251654556009,2026-01-20 14h58.12.859873 +0530,
,Scenes\093a.jpg,0,0,1,,,,,,,f,0.8844797999918228,0.1690688999951817,None,,,,,,1,0,0,1552.0034377999982,,,,,,,,,,,,,,,,,,,,,,,1551.9915726000036,1552.0034377999982,1552.488132899991,,,,,,,,,,,,,,1552.566327099994,,,,,,,,,,1552.561381099993,1552.566327099994,1552.566327099994,1552.566327099994,1555.5040925999929,f,0.8844797999918228,0.1690688999951817,1555.5104618000041,1555.5104974999995,None,,,,,,,,,,,,,,,,,00018,001,2026-01-20_14h57.56.200,MST_task,2024.2.0,59.9251654556009,2026-01-20 14h58.12.859873 +0530,
,Scenes\019a.jpg,1,0,2,,,,,,,j,1.603078700005426,0.1767278999905102,None,,,,,,2,0,1,1555.5204280000034,,,,,,,,,,,,,,,,,,,,,,,1555.510669299998,1555.5204280000034,1556.0046710000024,,,,,,,,,,,,,,1556.0396637999947,,,,,,,,,,1556.0365506999951,1556.0396637999947,1556.0396637999947,1556.0396637999947,1559.0206520999927,j,1.603078700005426,0.1767278999905102,1559.0208760999958,1559.020939599999,None,,,,,,,,,,,,,,,,,00018,001,2026-01-20_14h57.56.200,MST_task,2024.2.0,59.9251654556009,2026-01-20 14h58.12.859873 +0530,
,Scenes\084a.jpg,2,0,3,,,,,,,j,1.1374358000030043,0.21508470000117086,None,,,,,,3,0,2,1559.0368785000028,,,,,,,,,,,,,,,,,,,,,,,1559.0212326000037,1559.0368785000028,1559.5213187999907,,,,,,,,,,,,,,1559.5696075000014,,,,,,,,,,1559.5660753999982,1559.5696075000014,1559.5696075000014,1559.5696075000014,1562.537297399991,j,1.1374358000030043,0.21508470000117086,1562.5374390999932,1562.5374813999952,None,,,,,,,,,,,,,,,,,00018,001,2026-01-20_14h57.56.200,MST_task,2024.2.0,59.9251654556009,2026-01-20 14h58.12.859873 +0530,
,Scenes\026a.jpg,3,0,4,,,,,,,j,2.5508580000023358,0.14353729999857023,None,,,,,,4,0,3,1562.5537010999979,,,,,,,,,,,,,,,,,,,,,,,1562.5377392999944,1562.5537010999979,1563.0378469999996,,,,,,,,,,,,,,1563.1488845999993,,,,,,,,,,1563.145379099995,1563.1488845999993,1563.1488845999993,1563.1488845999993,1566.0539470999938,j,2.5508580000023358,0.14353729999857023,1566.0540888999967,1566.0541314000002,None,,,,,,,,,,,,,,,,,00018,001,2026-01-20_14h57.56.200,MST_task,2024.2.0,59.9251654556009,2026-01-20 14h58.12.859873 +0530,
,Scenes\076a.jpg,4,0,5,,,,,,,j,0.9355214999959571,0.1908908000041265,None,,,,,,5,0,4,1566.0701769000007,,,,,,,,,,,,,,,,,,,,,,,1566.054331499996,1566.0701769000007,1566.5547848999995,,,,,,,,,,,,,,1566.5955755000032,,,,,,,,,,1566.5918850000016,1566.5955755000032,1566.5955755000032,1566.5955755000032,1569.554633199994,j,0.9355214999959571,0.1908908000041265,1569.554783200001,1569.5548241999932,None,,,,,,,,,,,,,,,,,00018,001,2026-01-20_14h57.56.200,MST_task,2024.2.0,59.9251654556009,2026-01-20 14h58.12.859873 +0530,
,Scenes\028a.jpg,5,0,6,,,,,,,j,1.5714057000004686,0.21654559999296907,None,,,,,,6,0,5,1569.5702202999964,,,,,,,,,,,,,,,,,,,,,,,1569.5550655999978,1569.5702202999964,1570.054615999994,,,,,,,,,,,,,,1570.1026238999912,,,,,,,,,,1570.0989678000042,1570.1026238999912,1570.1026238999912,1570.1026238999912,1573.0708714999928,j,1.5714057000004686,0.21654559999296907,1573.0710923000006,1573.0711616000044,None,,,,,,,,,,,,,,,,,00018,001,2026-01-20_14h57.56.200,MST_task,2024.2.0,59.9251654556009,2026-01-20 14h58.12.859873 +0530,
,Scenes\104a.jpg,6,0,7,,,,,,,j,2.110558900007163,0.17654590000165626,None,,,,,,7,0,6,1573.0868132000032,,,,,,,,,,,,,,,,,,,,,,,1573.0715562999976,1573.0868132000032,1573.571396799991,,,,,,,,,,,,,,1573.6124091999955,,,,,,,,,,1573.6094515000004,1573.6124091999955,1573.6124091999955,1573.6124091999955,1576.5874636999943,j,2.110558900007163,0.17654590000165626,1576.5875971999922,1576.5876368000027,None,,,,,,,,,,,,,,,,,00018,001,2026-01-20_14h57.56.200,MST_task,2024.2.0,59.9251654556009,2026-01-20 14h58.12.859873 +0530,
,Objects\167a.jpg,7,0,8,,,,,,,f,0.9038682999962475,0.19142859999556094,None,,,,,,8,0,7,1576.603576900001,,,,,,,,,,,,,,,,,,,,,,,1576.5878239000012,1576.603576900001,1577.0879614000005,,,,,,,,,,,,,,1577.1479287999973,,,,,,,,,,1577.1441116999922,1577.1479287999973,1577.1479287999973,1577.1479287999973,1580.1042424999905,f,0.9038682999962475,0.19142859999556094,1580.1044433999923,1580.1044892999926,None,,,,,,,,,,,,,,,,,00018,001,2026-01-20_14h57.56.200,MST_task,2024.2.0,59.9251654556009,2026-01-20 14h58.12.859873 +0530,
,Objects\111a.jpg,8,0,9,,,,,,,f,0.894779499998549,0.19832119999045972,None,,,,,,9,0,8,1580.1206770999997,,,,,,,,,,,,,,,,,,,,,,,1580.1047677000024,1580.1206770999997,1580.604661099991,,,,,,,,,,,,,,1580.6370470999973,,,,,,,,,,1580.6329869000037,1580.6370470999973,1580.6370470999973,1580.6370470999973,1583.6205908999982,f,0.894779499998549,0.19832119999045972,1583.620779399993,1583.6208203999995,None,,,,,,,,,,,,,,,,,00018,001,2026-01-20_14h57.56.200,MST_task,2024.2.0,59.9251654556009,2026-01-20 14h58.12.859873 +0530,
,Objects\138a.jpg,9,0,10,,,,,,,j,1.4619473000057042,0.1916132999904221,None,,,,,,10,0,9,1583.636889100002,,,,,,,,,,,,,,,,,,,,,,,1583.6210565999936,1583.636889100002,1584.1213266999985,,,,,,,,,,,,,,1584.2448943999916,,,,,,,,,,1584.240978899994,1584.2448943999916,1584.2448943999916,1584.2448943999916,1587.1376953,j,1.4619473000057042,0.1916132999904221,1587.1378550999943,1587.1379024999915,None,,,,,,,,,,,,,,,,,00018,001,2026-01-20_14h57.56.200,MST_task,2024.2.0,59.9251654556009,2026-01-20 14h58.12.859873 +0530,
,Objects\112a.jpg,10,0,11,,,,,,,f,0.8130307999963406,0.20078790000115987,None,,,,,,11,0,10,1587.153822399996,,,,,,,,,,,,,,,,,,,,,,,1587.1381851999904,1587.153822399996,1587.6383475000039,,,,,,,,,,,,,,1587.7178584999929,,,,,,,,,,1587.7147870000044,1587.7178584999929,1587.7178584999929,1587.7178584999929,1590.6544552999985,f,0.8130307999963406,0.20078790000115987,1590.6545902999933,1590.6546267999947,None,,,,,,,,,,,,,,,,,00018,001,2026-01-20_14h57.56.200,MST_task,2024.2.0,59.9251654556009,2026-01-20 14h58.12.859873 +0530,
,Objects\076a.jpg,11,0,12,,,,,,,j,2.172700099996291,0.1667747000028612,None,,,,,,12,0,11,1590.6700554999989,,,,,,,,,,,,,,,,,,,,,,,1590.6548081999936,1590.6700554999989,1591.1545822999906,,,,,,,,,,,,,,1591.1828604000038,,,,,,,,,,1591.1796305000025,1591.1828604000038,1591.1828604000038,1591.1828604000038,1594.1702630999935,j,2.172700099996291,0.1667747000028612,1594.1704252999916,1594.1704721999995,None,,,,,,,,,,,,,,,,,00018,001,2026-01-20_14h57.56.200,MST_task,2024.2.0,59.9251654556009,2026-01-20 14h58.12.859873 +0530,
,Objects\108a.jpg,12,0,13,,,,,,,None,,,j,0.11597250000340864,None,,,,13,0,12,1594.1867830999981,,,,,,,,,,,,,,,,,,,,,,,1594.1707629000011,1594.1867830999981,1594.6701390999951,,,,,,,,,,,,,,1594.705907399999,,,,,,,,,,1594.7023965999979,1594.705907399999,1594.705907399999,1594.705907399999,1597.6707085999951,None,,,1597.6708474000043,1597.8053990000044,j,1597.6868318999914,1597.6868318999914,0.11597250000340864,None,,,,,,,,,,,,,00018,001,2026-01-20_14h57.56.200,MST_task,2024.2.0,59.9251654556009,2026-01-20 14h58.12.859873 +0530,
,Objects\162a.jpg,13,0,14,,,,,,,f,2.2506654000026174,0.15968009999778587,None,,,,,,14,0,13,1597.8203400999919,,,,,,,,,,,,,,,,,,,,,,,1597.805760599993,1597.8203400999919,1598.3043969999999,,,,,,,,,,,,,,1598.3518238999968,,,,,,,,,,1598.3487366999907,1598.3518238999968,1598.3518238999968,1598.3518238999968,1601.320566399998,f,2.2506654000026174,0.15968009999778587,1601.3207743999956,1601.320842000001,None,,,,,,,,,,,,,,,,,00018,001,2026-01-20_14h57.56.200,MST_task,2024.2.0,59.9251654556009,2026-01-20 14h58.12.859873 +0530,
,Scenes\174a.jpg,14,0,15,,,,,,,j,0.671263900003396,0.15915999999560881,None,,,,,,15,0,14,1601.3368847999955,,,,,,,,,,,,,,,,,,,,,,,1601.3210928999906,1601.3368847999955,1601.8214141999924,,,,,,,,,,,,,,1601.8760229000036,,,,,,,,,,1601.8726140999934,1601.8760229000036,1601.8760229000036,1601.8760229000036,1604.837230899997,j,0.671263900003396,0.15915999999560881,1604.8374306000042,1604.837492599996,None,,,,,,,,,,,,,,,,,00018,001,2026-01-20_14h57.56.200,MST_task,2024.2.0,59.9251654556009,2026-01-20 14h58.12.859873 +0530,
,Scenes\149a.jpg,15,0,16,,,,,,,j,1.4245477999938885,0.15252129999862518,None,,,,,,16,0,15,1604.8537617999973,,,,,,,,,,,,,,,,,,,,,,,1604.8377593999903,1604.8537617999973,1605.3382729000004,,,,,,,,,,,,,,1605.3862507000013,,,,,,,,,,1605.383093700002,1605.3862507000013,1605.3862507000013,1605.3862507000013,1608.3543119999958,j,1.4245477999938885,0.15252129999862518,1608.3545479000022,1608.3546158999961,None,,,,,,,,,,,,,,,,,00018,001,2026-01-20_14h57.56.200,MST_task,2024.2.0,59.9251654556009,2026-01-20 14h58.12.859873 +0530,
,Scenes\100a.jpg,16,0,17,,,,,,,j,1.2779630000004545,0.1994872000068426,None,,,,,,17,0,16,1608.3702373999986,,,,,,,,,,,,,,,,,,,,,,,1608.3548894999985,1608.3702373999986,1608.8549405999947,,,,,,,,,,,,,,1608.8930427000014,,,,,,,,,,1608.8895876000024,1608.8930427000014,1608.8930427000014,1608.8930427000014,1611.8706619000004,j,1.2779630000004545,0.1994872000068426,1611.8708127999998,1611.870855000001,None,,,,,,,,,,,,,,,,,00018,001,2026-01-20_14h57.56.200,MST_task,2024.2.0,59.9251654556009,2026-01-20 14h58.12.859873 +0530,
,Scenes\067a.jpg,17,0,18,,,,,,,j,2.4308552000002237,0.21749809999892022,None,,,,,,18,0,17,1611.887195599993,,,,,,,,,,,,,,,,,,,,,,,1611.8711100999935,1611.887195599993,1612.3713968999946,,,,,,,,,,,,,,1612.4191823,,,,,,,,,,1612.4150481999968,1612.4191823,1612.4191823,1612.4191823,1615.3872996999999,j,2.4308552000002237,0.21749809999892022,1615.3875135999988,1615.3875798999943,None,,,,,,,,,,,,,,,,,00018,001,2026-01-20_14h57.56.200,MST_task,2024.2.0,59.9251654556009,2026-01-20 14h58.12.859873 +0530,
,Scenes\095a.jpg,18,0,19,,,,,,,j,0.5988542999984929,0.19900890000280924,None,,,,,,19,0,18,1615.403883699997,,,,,,,,,,,,,,,,,,,,,,,1615.3879815999971,1615.403883699997,1615.8878410000034,,,,,,,,,,,,,,,,,,,,,,,,1615.9285223000043,1615.932881899993,1615.932881899993,1615.932881899993,1618.9041067999933,j,0.5988542999984929,0.19900890000280924,1618.9042953000026,1618.9043363999954,None,,,,,,,,,,,,,,,,,00018,001,2026-01-20_14h57.56.200,MST_task,2024.2.0,59.9251654556009,2026-01-20 14h58.12.859873 +0530,
,Scenes\173a.jpg,19,0,20,,,,,,,j,1.7018691999983275,0.1200745999958599,None,,,,,,20,0,19,1618.9201582999958,,,,,,,,,,,,,,,,,,,,,,,1618.9045759,1618.9201582999958,1619.4047226999974,,,,,,,,,,,,,,1619.4452611000015,,,,,,,,,,1619.442202899998,1619.4452611000015,1619.4452611000015,1619.4452611000015,1622.4206875999953,j,1.7018691999983275,0.1200745999958599,1622.4208779000037,1622.4209189999965,None,,,,,,,,,,,,,,,,,00018,001,2026-01-20_14h57.56.200,MST_task,2024.2.0,59.9251654556009,2026-01-20 14h58.12.859873 +0530,
,Scenes\126a.jpg,20,0,21,,,,,,,j,0.8890128999919398,0.11964570000418462,None,,,,,,21,0,20,1622.4370017000037,,,,,,,,,,,,,,,,,,,,,,,1622.4211168000038,1622.4370017000037,1622.9215051999927,,,,,,,,,,,,,,1622.9615145999996,,,,,,,,,,1622.9585411000007,1622.9615145999996,1622.9615145999996,1622.9615145999996,1625.9376142999972,j,0.8890128999919398,0.11964570000418462,1625.9377879999956,1625.9378414999956,None,,,,,,,,,,,,,,,,,00018,001,2026-01-20_14h57.56.200,MST_task,2024.2.0,59.9251654556009,2026-01-20 14h58.12.859873 +0530,
,Objects\030a.jpg,21,0,22,,,,,,,f,0.6917895999940811,0.19237340000108816,None,,,,,,22,0,21,1625.9535765000037,,,,,,,,,,,,,,,,,,,,,,,1625.9381505999918,1625.9535765000037,1626.4380137999979,,,,,,,,,,,,,,1626.4707014000014,,,,,,,,,,1626.4677567000035,1626.4707014000014,1626.4707014000014,1626.4707014000014,1629.4540535999986,f,0.6917895999940811,0.19237340000108816,1629.4542350999982,1629.454271399998,None,,,,,,,,,,,,,,,,,00018,001,2026-01-20_14h57.56.200,MST_task,2024.2.0,59.9251654556009,2026-01-20 14h58.12.859873 +0530,
,Objects\178a.jpg,22,0,23,,,,,,,f,0.7972214000037638,0.19197030000214,None,,,,,,23,0,22,1629.4704653999943,,,,,,,,,,,,,,,,,,,,,,,1629.4545166000025,1629.4704653999943,1629.9547385000042,,,,,,,,,,,,,,1629.9813725999993,,,,,,,,,,1629.9782911999937,1629.9813725999993,1629.9813725999993,1629.9813725999993,1632.970865700001,f,0.7972214000037638,0.19197030000214,1632.9710767999932,1632.9711690999975,None,,,,,,,,,,,,,,,,,00018,001,2026-01-20_14h57.56.200,MST_task,2024.2.0,59.9251654556009,2026-01-20 14h58.12.859873 +0530,
,Objects\149a.jpg,23,0,24,,,,,,,f,0.7429292000015266,0.2320802000031108,None,,,,,,24,0,23,1632.9868560000032,,,,,,,,,,,,,,,,,,,,,,,1632.9714083,1632.9868560000032,1633.4710845999944,,,,,,,,,,,,,,1633.4996455999935,,,,,,,,,,1633.496567299997,1633.4996455999935,1633.4996455999935,1633.4996455999935,1636.4872344000032,f,0.7429292000015266,0.2320802000031108,1636.4874159000028,1636.4874638000038,None,,,,,,,,,,,,,,,,,00018,001,2026-01-20_14h57.56.200,MST_task,2024.2.0,59.9251654556009,2026-01-20 14h58.12.859873 +0530,
,Objects\004a.jpg,24,0,25,,,,,,,j,1.5035310000093887,0.14403199999651406,None,,,,,,25,0,24,1636.5038250999933,,,,,,,,,,,,,,,,,,,,,,,1636.487744500002,1636.5038250999933,1636.9881105999957,,,,,,,,,,,,,,1637.0112074999925,,,,,,,,,,1637.0082863999996,1637.0112074999925,1637.0112074999925,1637.0112074999925,1639.987741799996,j,1.5035310000093887,0.14403199999651406,1639.9878986999975,1639.9879465999984,None,,,,,,,,,,,,,,,,,00018,001,2026-01-20_14h57.56.200,MST_task,2024.2.0,59.9251654556009,2026-01-20 14h58.12.859873 +0530,
,Objects\164a.jpg,25,0,26,,,,,,,f,1.6467263999948045,0.16831370000727475,None,,,,,,26,0,25,1640.003572200003,,,,,,,,,,,,,,,,,,,,,,,1639.9881919000036,1640.003572200003,1640.487945899993,,,,,,,,,,,,,,1640.5162739999942,,,,,,,,,,1640.5130745999923,1640.5162739999942,1640.5162739999942,1640.5162739999942,1643.5038942999963,f,1.6467263999948045,0.16831370000727475,1643.5041106999997,1643.5041782999906,None,,,,,,,,,,,,,,,,,00018,001,2026-01-20_14h57.56.200,MST_task,2024.2.0,59.9251654556009,2026-01-20 14h58.12.859873 +0530,
,Objects\153a.jpg,26,0,27,,,,,,,f,2.4418809000053443,0.18448429999989457,None,,,,,,27,0,26,1643.5201801999938,,,,,,,,,,,,,,,,,,,,,,,1643.5045440999966,1643.5201801999938,1644.004545399992,,,,,,,,,,,,,,1644.0413048000046,,,,,,,,,,1644.0383245999983,1644.0413048000046,1644.0413048000046,1644.0413048000046,1647.0209585999983,f,2.4418809000053443,0.18448429999989457,1647.021139599994,1647.0211792000046,None,,,,,,,,,,,,,,,,,00018,001,2026-01-20_14h57.56.200,MST_task,2024.2.0,59.9251654556009,2026-01-20 14h58.12.859873 +0530,
,Objects\166a.jpg,27,0,28,,,,,,,j,0.8963190000067698,0.14486709999619052,None,,,,,,28,0,27,1647.0369126000005,,,,,,,,,,,,,,,,,,,,,,,1647.0213649999932,1647.0369126000005,1647.5214053999953,,,,,,,,,,,,,,1647.5538343999942,,,,,,,,,,1647.5503715999948,1647.5538343999942,1647.5538343999942,1647.5538343999942,1650.5375686000043,j,0.8963190000067698,0.14486709999619052,1650.5377158000047,1650.5377605999965,None,,,,,,,,,,,,,,,,,00018,001,2026-01-20_14h57.56.200,MST_task,2024.2.0,59.9251654556009,2026-01-20 14h58.12.859873 +0530,
,Scenes\015a.jpg,28,0,29,,,,,,,j,2.7858674000017345,0.15199039998697117,None,,,,,,29,0,28,1650.553571700002,,,,,,,,,,,,,,,,,,,,,,,1650.5380173000012,1650.553571700002,1651.0380933999986,,,,,,,,,,,,,,1651.0816913000017,,,,,,,,,,1651.0787195000012,1651.0816913000017,1651.0816913000017,1651.0816913000017,1654.054575000002,j,2.7858674000017345,0.15199039998697117,1654.0547590999922,1654.0547936999938,None,,,,,,,,,,,,,,,,,00018,001,2026-01-20_14h57.56.200,MST_task,2024.2.0,59.9251654556009,2026-01-20 14h58.12.859873 +0530,
,Scenes\018a.jpg,29,0,30,,,,,,,f,1.240250200004084,0.1676597000041511,None,,,,,,30,0,29,1654.0707753000024,,,,,,,,,,,,,,,,,,,,,,,1654.0550001999945,1654.0707753000024,1654.5546746000036,,,,,,,,,,,,,,1654.6429939999944,,,,,,,,,,1654.6394217999914,1654.6429939999944,1654.6429939999944,1654.6429939999944,1657.570444500001,f,1.240250200004084,0.1676597000041511,1657.5706707999925,1657.5707392999902,None,,,,,,,,,,,,,,,,,00018,001,2026-01-20_14h57.56.200,MST_task,2024.2.0,59.9251654556009,2026-01-20 14h58.12.859873 +0530,
,Scenes\182a.jpg,30,0,31,,,,,,,j,2.7903592999937246,0.12727579999773297,None,,,,,,31,0,30,1657.5868852999993,,,,,,,,,,,,,,,,,,,,,,,1657.5710575999983,1657.5868852999993,1658.0712996999937,,,,,,,,,,,,,,1658.1090313000022,,,,,,,,,,1658.1060312000045,1658.1090313000022,1658.1090313000022,1658.1090313000022,1661.0878682000039,j,2.7903592999937246,0.12727579999773297,1661.0880538999918,1661.0880910999986,None,,,,,,,,,,,,,,,,,00018,001,2026-01-20_14h57.56.200,MST_task,2024.2.0,59.9251654556009,2026-01-20 14h58.12.859873 +0530,
,Scenes\152a.jpg,31,0,32,,,,,,,j,0.6915199000068242,0.1517493999999715,None,,,,,,32,0,31,1661.1036280999979,,,,,,,,,,,,,,,,,,,,,,,1661.088276399998,1661.1036280999979,1661.5881716000004,,,,,,,,,,,,,,1661.6239819000039,,,,,,,,,,1661.620966100003,1661.6239819000039,1661.6239819000039,1661.6239819000039,1664.6040726999927,j,0.6915199000068242,0.1517493999999715,1664.6042132000002,1664.6042549999984,None,,,,,,,,,,,,,,,,,00018,001,2026-01-20_14h57.56.200,MST_task,2024.2.0,59.9251654556009,2026-01-20 14h58.12.859873 +0530,
,Scenes\116a.jpg,32,0,33,,,,,,,j,1.3174031999951694,0.14473669999279082,None,,,,,,33,0,32,1664.6202298999997,,,,,,,,,,,,,,,,,,,,,,,1664.604505299998,1664.6202298999997,1665.1045855999982,,,,,,,,,,,,,,1665.1488017999945,,,,,,,,,,1665.145491000003,1665.1488017999945,1665.1488017999945,1665.1488017999945,1668.120672799996,j,1.3174031999951694,0.14473669999279082,1668.120891700004,1668.1209364999959,None,,,,,,,,,,,,,,,,,00018,001,2026-01-20_14h57.56.200,MST_task,2024.2.0,59.9251654556009,2026-01-20 14h58.12.859873 +0530,
,Scenes\147a.jpg,33,0,34,,,,,,,j,0.8992591999995057,0.15300200000638142,None,,,,,,34,0,33,1668.1369180000038,,,,,,,,,,,,,,,,,,,,,,,1668.121201300004,1668.1369180000038,1668.6210905000044,,,,,,,,,,,,,,1668.6630819999991,,,,,,,,,,1668.6601456999924,1668.6630819999991,1668.6630819999991,1668.6630819999991,1671.6374956999935,j,0.8992591999995057,0.15300200000638142,1671.6376443000045,1671.6376875999995,None,,,,,,,,,,,,,,,,,00018,001,2026-01-20_14h57.56.200,MST_task,2024.2.0,59.9251654556009,2026-01-20 14h58.12.859873 +0530,
,Scenes\085a.jpg,34,0,35,,,,,,,j,1.0751212000031956,0.1448623000032967,None,,,,,,35,0,34,1671.6535333999927,,,,,,,,,,,,,,,,,,,,,,,1671.637947299998,1671.6535333999927,1672.1382475999999,,,,,,,,,,,,,,1672.1920599000005,,,,,,,,,,1672.1887996000005,1672.1920599000005,1672.1920599000005,1672.1920599000005,1675.1541335999937,j,1.0751212000031956,0.1448623000032967,1675.1543268999958,1675.1543687999947,None,,,,,,,,,,,,,,,,,00018,001,2026-01-20_14h57.56.200,MST_task,2024.2.0,59.9251654556009,2026-01-20 14h58.12.859873 +0530,
,Objects\123a.jpg,35,0,36,,,,,,,j,0.9676503000082448,0.19119739999587182,None,,,,,,36,0,35,1675.170225599999,,,,,,,,,,,,,,,,,,,,,,,1675.1546223000041,1675.170225599999,1675.6548935000028,,,,,,,,,,,,,,1675.6831998999987,,,,,,,,,,1675.6796653999918,1675.6831998999987,1675.6831998999987,1675.6831998999987,1678.6707561999938,j,0.9676503000082448,0.19119739999587182,1678.6709876999957,1678.6710320999991,None,,,,,,,,,,,,,,,,,00018,001,2026-01-20_14h57.56.200,MST_task,2024.2.0,59.9251654556009,2026-01-20 14h58.12.859873 +0530,
,Objects\055a.jpg,36,0,37,,,,,,,f,1.0573234999901615,0.18362910000723787,None,,,,,,37,0,36,1678.6869183999952,,,,,,,,,,,,,,,,,,,,,,,1678.6712420999975,1678.6869183999952,1679.1712087999913,,,,,,,,,,,,,,1679.2903159999987,,,,,,,,,,1679.2867383999983,1679.2903159999987,1679.2903159999987,1679.2903159999987,1682.1873214999941,f,1.0573234999901615,0.18362910000723787,1682.1874701999914,1682.1875073999981,None,,,,,,,,,,,,,,,,,00018,001,2026-01-20_14h57.56.200,MST_task,2024.2.0,59.9251654556009,2026-01-20 14h58.12.859873 +0530,
,Objects\183a.jpg,37,0,38,,,,,,,f,0.7202092999941669,0.1836273000080837,None,,,,,,38,0,37,1682.2038820000016,,,,,,,,,,,,,,,,,,,,,,,1682.1876811999973,1682.2038820000016,1682.6882230999909,,,,,,,,,,,,,,1682.722473899994,,,,,,,,,,1682.7198605000012,1682.722473899994,1682.722473899994,1682.722473899994,1685.704837199999,f,0.7202092999941669,0.1836273000080837,1685.7050503999926,1685.7051178999973,None,,,,,,,,,,,,,,,,,00018,001,2026-01-20_14h57.56.200,MST_task,2024.2.0,59.9251654556009,2026-01-20 14h58.12.859873 +0530,
,Objects\097a.jpg,38,0,39,,,,,,,j,0.7428356000018539,0.1841432000073837,None,,,,,,39,0,38,1685.720384100001,,,,,,,,,,,,,,,,,,,,,,,1685.705521099997,1685.720384100001,1686.2048645000032,,,,,,,,,,,,,,1686.2352806999988,,,,,,,,,,1686.232112400001,1686.2352806999988,1686.2352806999988,1686.2352806999988,1689.2213015000016,j,0.7428356000018539,0.1841432000073837,1689.2214860999957,1689.2215243999963,None,,,,,,,,,,,,,,,,,00018,001,2026-01-20_14h57.56.200,MST_task,2024.2.0,59.9251654556009,2026-01-20 14h58.12.859873 +0530,
,Objects\008a.jpg,39,0,40,,,,,,,f,1.6075323999975808,0.16735620000690687,None,,,,,,40,0,39,1689.236857900003,,,,,,,,,,,,,,,,,,,,,,,1689.2217116999964,1689.236857900003,1689.7216344000044,,,,,,,,,,,,,,1689.7470176999923,,,,,,,,,,1689.744468399993,1689.7470176999923,1689.7470176999923,1689.7470176999923,1692.7376017999923,f,1.6075323999975808,0.16735620000690687,1692.7377425000013,1692.7377790000028,None,,,,,,,,,,,,,,,,,00018,001,2026-01-20_14h57.56.200,MST_task,2024.2.0,59.9251654556009,2026-01-20 14h58.12.859873 +0530,
,Objects\050a.jpg,40,0,41,,,,,,,f,0.797075099995709,0.24072960000194144,None,,,,,,41,0,40,1692.7535342000047,,,,,,,,,,,,,,,,,,,,,,,1692.7380162000045,1692.7535342000047,1693.2378196999925,,,,,,,,,,,,,,1693.2696201999934,,,,,,,,,,1693.2667339000036,1693.2696201999934,1693.2696201999934,1693.2696201999934,1696.254039499996,f,0.797075099995709,0.24072960000194144,1696.2542291999998,1696.2542704999942,None,,,,,,,,,,,,,,,,,00018,001,2026-01-20_14h57.56.200,MST_task,2024.2.0,59.9251654556009,2026-01-20 14h58.12.859873 +0530,
,Objects\085a.jpg,41,0,42,,,,,,,j,2.752259100001538,0.12025400000857189,None,,,,,,42,0,41,1696.2701998999983,,,,,,,,,,,,,,,,,,,,,,,1696.2544726999913,1696.2701998999983,1696.7544015000021,,,,,,,,,,,,,,1696.778223699992,,,,,,,,,,1696.775862399998,1696.778223699992,1696.778223699992,1696.778223699992,1699.771532999992,j,2.752259100001538,0.12025400000857189,1699.771755499998,1699.7718228000012,None,,,,,,,,,,,,,,,,,00018,001,2026-01-20_14h57.56.200,MST_task,2024.2.0,59.9251654556009,2026-01-20 14h58.12.859873 +0530,
,Scenes\114a.jpg,42,0,43,,,,,,,f,2.5223639000032563,0.2231106999970507,None,,,,,,43,0,42,1699.7868994000019,,,,,,,,,,,,,,,,,,,,,,,1699.772235700002,1699.7868994000019,1700.2712867999944,,,,,,,,,,,,,,1700.3126493000018,,,,,,,,,,1700.3092499999912,1700.3126493000018,1700.3126493000018,1700.3126493000018,1703.2874001000018,f,2.5223639000032563,0.2231106999970507,1703.2875375000003,1703.2875801000046,None,,,,,,,,,,,,,,,,,00018,001,2026-01-20_14h57.56.200,MST_task,2024.2.0,59.9251654556009,2026-01-20 14h58.12.859873 +0530,
,Scenes\031a.jpg,43,0,44,,,,,,,j,2.7919729000132065,None,None,,,,,,44,0,43,1703.3035231999966,,,,,,,,,,,,,,,,,,,,,,,1703.2878243000014,1703.3035231999966,1703.7882352000015,,,,,,,,,,,,,,1703.8421664999914,,,,,,,,,,1703.8389545999962,1703.8421664999914,1703.8421664999914,1703.8421664999914,1706.8040555999905,j,2.7919729000132065,None,1706.804212899995,1706.8042718999932,None,,,,,,,,,,,,,,,,,00018,001,2026-01-20_14h57.56.200,MST_task,2024.2.0,59.9251654556009,2026-01-20 14h58.12.859873 +0530,
,Scenes\192a.jpg,44,0,45,,,,,,,j,1.3274679000023752,0.12834640000073705,None,,,,,,45,0,44,1706.8206116999936,,,,,,,,,,,,,,,,,,,,,,,1706.8045660999924,1706.8206116999936,1707.3048670999997,,,,,,,,,,,,,,1707.3398759999982,,,,,,,,,,1707.3366146999906,1707.3398759999982,1707.3398759999982,1707.3398759999982,1710.3211727000016,j,1.3274679000023752,0.12834640000073705,1710.3213806999993,1710.3214220999944,None,,,,,,,,,,,,,,,,,00018,001,2026-01-20_14h57.56.200,MST_task,2024.2.0,59.9251654556009,2026-01-20 14h58.12.859873 +0530,
,Scenes\155a.jpg,45,0,46,,,,,,,j,0.6192947999952594,0.18405799999891315,None,,,,,,46,0,45,1710.3369850000017,,,,,,,,,,,,,,,,,,,,,,,1710.3216201000032,1710.3369850000017,1710.8213536999974,,,,,,,,,,,,,,1710.8634901000041,,,,,,,,,,1710.8600189999997,1710.8634901000041,1710.8634901000041,1710.8634901000041,1713.837088699991,j,0.6192947999952594,0.18405799999891315,1713.837239200002,1713.8372788999986,None,,,,,,,,,,,,,,,,,00018,001,2026-01-20_14h57.56.200,MST_task,2024.2.0,59.9251654556009,2026-01-20 14h58.12.859873 +0530,
,Scenes\177a.jpg,46,0,47,,,,,,,j,1.27185429999372,0.16074940000544302,None,,,,,,47,0,46,1713.8535157000006,,,,,,,,,,,,,,,,,,,,,,,1713.8375199000002,1713.8535157000006,1714.3375643000036,,,,,,,,,,,,,,,,,,,,,,,,1714.380944599994,1714.3860152999987,1714.3860152999987,1714.3860152999987,1717.3374890999985,j,1.27185429999372,0.16074940000544302,1717.3376325999998,1717.3376723999972,None,,,,,,,,,,,,,,,,,00018,001,2026-01-20_14h57.56.200,MST_task,2024.2.0,59.9251654556009,2026-01-20 14h58.12.859873 +0530,
,Scenes\161a.jpg,47,0,48,,,,,,,j,1.6224671999952989,0.14525070000672713,None,,,,,,48,0,47,1717.3536529999983,,,,,,,,,,,,,,,,,,,,,,,1717.3378735000006,1717.3536529999983,1717.837824000002,,,,,,,,,,,,,,1717.8835626999935,,,,,,,,,,1717.8801856999926,1717.8835626999935,1717.8835626999935,1717.8835626999935,1720.8540601999994,j,1.6224671999952989,0.14525070000672713,1720.8542347000039,1720.8542861000024,None,,,,,,,,,,,,,,,,,00018,001,2026-01-20_14h57.56.200,MST_task,2024.2.0,59.9251654556009,2026-01-20 14h58.12.859873 +0530,
,Scenes\112a.jpg,48,0,49,,,,,,,j,0.6058654000080423,0.150138999990304,None,,,,,,49,0,48,1720.8702076999907,,,,,,,,,,,,,,,,,,,,,,,1720.854591700001,1720.8702076999907,1721.355011199994,,,,,,,,,,,,,,,,,,,,,,,,1721.3941732999956,1721.3979623999912,1721.3979623999912,1721.3979623999912,1724.3706952999928,j,0.6058654000080423,0.150138999990304,1724.3708572000032,1724.3709032999905,None,,,,,,,,,,,,,,,,,00018,001,2026-01-20_14h57.56.200,MST_task,2024.2.0,59.9251654556009,2026-01-20 14h58.12.859873 +0530,
,Objects\160a.jpg,49,0,50,,,,,,,j,1.746543399989605,0.1356835000042338,None,,,,,,50,0,49,1724.3871882999956,,,,,,,,,,,,,,,,,,,,,,,1724.3711286000034,1724.3871882999956,1724.8710592999996,,,,,,,,,,,,,,,,,,,,,,,,1724.9171002999938,1724.9205060999957,1724.9205060999957,1724.9205060999957,1727.8872877999966,j,1.746543399989605,0.1356835000042338,1727.8874626000033,1727.887503799997,None,,,,,,,,,,,,,,,,,00018,001,2026-01-20_14h57.56.200,MST_task,2024.2.0,59.9251654556009,2026-01-20 14h58.12.859873 +0530,
,Objects\127a.jpg,50,0,51,,,,,,,f,0.668647400001646,0.20815249999577645,None,,,,,,51,0,50,1727.9035678999935,,,,,,,,,,,,,,,,,,,,,,,1727.8877005999966,1727.9035678999935,1728.3883510000014,,,,,,,,,,,,,,1728.4221580000012,,,,,,,,,,1728.4194271000015,1728.4221580000012,1728.4221580000012,1728.4221580000012,1731.4039435000013,f,0.668647400001646,0.20815249999577645,1731.4041674000036,1731.4042353999976,None,,,,,,,,,,,,,,,,,00018,001,2026-01-20_14h57.56.200,MST_task,2024.2.0,59.9251654556009,2026-01-20 14h58.12.859873 +0530,
,Objects\041a.jpg,51,0,52,,,,,,,f,1.9560002000071108,0.1609805000043707,None,,,,,,52,0,51,1731.420428700003,,,,,,,,,,,,,,,,,,,,,,,1731.4044717999932,1731.420428700003,1731.9046272999985,,,,,,,,,,,,,,1731.9339402000041,,,,,,,,,,1731.9303849999997,1731.9339402000041,1731.9339402000041,1731.9339402000041,1734.920545999994,f,1.9560002000071108,0.1609805000043707,1734.9207059000037,1734.9207525999955,None,,,,,,,,,,,,,,,,,00018,001,2026-01-20_14h57.56.200,MST_task,2024.2.0,59.9251654556009,2026-01-20 14h58.12.859873 +0530,
,Objects\028a.jpg,52,0,53,,,,,,,j,0.7144501000002492,0.07212759999674745,None,,,,,,53,0,52,1734.9371912999923,,,,,,,,,,,,,,,,,,,,,,,1734.9210333999945,1734.9371912999923,1735.4210531999997,,,,,,,,,,,,,,,,,,,,,,,,1735.4457598000008,1735.4485492999956,1735.4485492999956,1735.4485492999956,1738.4372268000006,j,0.7144501000002492,0.07212759999674745,1738.437414,1738.4374626999925,None,,,,,,,,,,,,,,,,,00018,001,2026-01-20_14h57.56.200,MST_task,2024.2.0,59.9251654556009,2026-01-20 14h58.12.859873 +0530,
,Objects\116a.jpg,53,0,54,,,,,,,f,1.0943325999978697,0.2003125000046566,None,,,,,,54,0,53,1738.4536146000028,,,,,,,,,,,,,,,,,,,,,,,1738.4376941999944,1738.4536146000028,1738.9377557999978,,,,,,,,,,,,,,1738.9728212999908,,,,,,,,,,1738.9693625999935,1738.9728212999908,1738.9728212999908,1738.9728212999908,1741.9538997999916,f,1.0943325999978697,0.2003125000046566,1741.9541079999908,1741.9541767000046,None,,,,,,,,,,,,,,,,,00018,001,2026-01-20_14h57.56.200,MST_task,2024.2.0,59.9251654556009,2026-01-20 14h58.12.859873 +0530,
,Objects\090a.jpg,54,0,55,,,,,,,j,2.2035829999949783,0.1364612000033958,None,,,,,,55,0,54,1741.970240900002,,,,,,,,,,,,,,,,,,,,,,,1741.9544849999947,1741.970240900002,1742.4546922000009,,,,,,,,,,,,,,1742.480090500001,,,,,,,,,,1742.4769809999998,1742.480090500001,1742.480090500001,1742.480090500001,1745.4709021000017,j,2.2035829999949783,0.1364612000033958,1745.4710324000043,1745.471070899992,None,,,,,,,,,,,,,,,,,00018,001,2026-01-20_14h57.56.200,MST_task,2024.2.0,59.9251654556009,2026-01-20 14h58.12.859873 +0530,
,Objects\119a.jpg,55,0,56,,,,,,,f,1.3607385000068462,0.21599589999823365,None,,,,,,56,0,55,1745.4868587999954,,,,,,,,,,,,,,,,,,,,,,,1745.4712536000006,1745.4868587999954,1745.971220899999,,,,,,,,,,,,,,1746.0024915999966,,,,,,,,,,1745.9995258999988,1746.0024915999966,1746.0024915999966,1746.0024915999966,1748.9874858999974,f,1.3607385000068462,0.21599589999823365,1748.9877075999975,1748.9877890999924,None,,,,,,,,,,,,,,,,,00018,001,2026-01-20_14h57.56.200,MST_task,2024.2.0,59.9251654556009,2026-01-20 14h58.12.859873 +0530,
,Scenes\053a.jpg,56,0,57,,,,,,,j,0.9214414000016404,0.15322150000429247,None,,,,,,57,0,56,1749.0035269999935,,,,,,,,,,,,,,,,,,,,,,,1748.9881053999998,1749.0035269999935,1749.488206599999,,,,,,,,,,,,,,1749.5126227,,,,,,,,,,1749.509900799996,1749.5126227,1749.5126227,1749.5126227,1752.503859199991,j,0.9214414000016404,0.15322150000429247,1752.5040623999957,1752.504107899993,None,,,,,,,,,,,,,,,,,00018,001,2026-01-20_14h57.56.200,MST_task,2024.2.0,59.9251654556009,2026-01-20 14h58.12.859873 +0530,
,Scenes\092a.jpg,57,0,58,,,,,,,j,1.0381670000060694,0.1435557999939192,None,,,,,,58,0,57,1752.5204316000018,,,,,,,,,,,,,,,,,,,,,,,1752.5043673000037,1752.5204316000018,1753.0045716000022,,,,,,,,,,,,,,1753.0526073999936,,,,,,,,,,1753.049117100003,1753.0526073999936,1753.0526073999936,1753.0526073999936,1756.0208329000016,j,1.0381670000060694,0.1435557999939192,1756.0209594000044,1756.020995999992,None,,,,,,,,,,,,,,,,,00018,001,2026-01-20_14h57.56.200,MST_task,2024.2.0,59.9251654556009,2026-01-20 14h58.12.859873 +0530,
,Scenes\185a.jpg,58,0,59,,,,,,,None,,,j,0.28968290000921115,None,,,,59,0,58,1756.036981600002,,,,,,,,,,,,,,,,,,,,,,,1756.0211741999956,1756.036981600002,1756.5210569999908,,,,,,,,,,,,,,1756.5695980000019,,,,,,,,,,1756.566153199994,1756.5695980000019,1756.5695980000019,1756.5695980000019,1759.5373443999997,None,,,1759.537549200002,1759.855456499994,j,1759.5534660999983,1759.5534660999983,0.28968290000921115,None,,,,,,,,,,,,,00018,001,2026-01-20_14h57.56.200,MST_task,2024.2.0,59.9251654556009,2026-01-20 14h58.12.859873 +0530,
,Scenes\020a.jpg,59,0,60,,,,,,,f,2.6769551999896066,0.1527178999967873,None,,,,,,60,0,59,1759.8704797999962,,,,,,,,,,,,,,,,,,,,,,,1759.8557613000012,1759.8704797999962,1760.3547336000047,,,,,,,,,,,,,,1760.4219523999927,,,,,,,,,,1760.418465099996,1760.4219523999927,1760.4219523999927,1760.4219523999927,1763.3705176999938,f,2.6769551999896066,0.1527178999967873,1763.3706729999976,1763.370719300001,None,,,,,,,,,,,,,,,,,00018,001,2026-01-20_14h57.56.200,MST_task,2024.2.0,59.9251654556009,2026-01-20 14h58.12.859873 +0530,
,Scenes\109a.jpg,60,0,61,,,,,,,j,1.108924800006207,0.13655280000239145,None,,,,,,61,0,60,1763.3870171000017,,,,,,,,,,,,,,,,,,,,,,,1763.3709823999961,1763.3870171000017,1763.8714369999943,,,,,,,,,,,,,,1763.9176210000005,,,,,,,,,,1763.9144237,1763.9176210000005,1763.9176210000005,1763.9176210000005,1766.8871589999908,j,1.108924800006207,0.13655280000239145,1766.8872892999934,1766.8873267000017,None,,,,,,,,,,,,,,,,,00018,001,2026-01-20_14h57.56.200,MST_task,2024.2.0,59.9251654556009,2026-01-20 14h58.12.859873 +0530,
,Scenes\179a.jpg,61,0,62,,,,,,,j,1.4419176000083098,0.14338660000066739,None,,,,,,62,0,61,1766.9037312,,,,,,,,,,,,,,,,,,,,,,,1766.887503799997,1766.9037312,1767.3878834999923,,,,,,,,,,,,,,1767.4247161999956,,,,,,,,,,1767.4217456000042,1767.4247161999956,1767.4247161999956,1767.4247161999956,1770.4039953000029,j,1.4419176000083098,0.14338660000066739,1770.4041647999984,1770.4042315999977,None,,,,,,,,,,,,,,,,,00018,001,2026-01-20_14h57.56.200,MST_task,2024.2.0,59.9251654556009,2026-01-20 14h58.12.859873 +0530,
,Scenes\108a.jpg,62,0,63,,,,,,,j,1.0730092000012519,0.1526385999895865,None,,,,,,63,0,62,1770.4209083000023,,,,,,,,,,,,,,,,,,,,,,,1770.4044708000001,1770.4209083000023,1770.9045430999977,,,,,,,,,,,,,,1770.9536994999944,,,,,,,,,,1770.9500561000023,1770.9536994999944,1770.9536994999944,1770.9536994999944,1773.920705800003,j,1.0730092000012519,0.1526385999895865,1773.9209184999927,1773.9209850000043,None,,,,,,,,,,,,,,,,,00018,001,2026-01-20_14h57.56.200,MST_task,2024.2.0,59.9251654556009,2026-01-20 14h58.12.859873 +0530,
,Objects\098a.jpg,63,0,64,,,,,,,f,1.2369862000050489,0.19193210000230465,None,,,,,,64,0,63,1773.9368619000015,,,,,,,,,,,,,,,,,,,,,,,1773.921299900001,1773.9368619000015,1774.4212208999961,,,,,,,,,,,,,,1774.4539411000005,,,,,,,,,,1774.450822400002,1774.4539411000005,1774.4539411000005,1774.4539411000005,1777.437345600003,f,1.2369862000050489,0.19193210000230465,1777.4375685999985,1777.437638599993,None,,,,,,,,,,,,,,,,,00018,001,2026-01-20_14h57.56.200,MST_task,2024.2.0,59.9251654556009,2026-01-20 14h58.12.859873 +0530,
,Objects\165a.jpg,64,0,65,,,,,,,f,2.426471400001901,0.1686762000026647,None,,,,,,65,0,64,1777.4535367999924,,,,,,,,,,,,,,,,,,,,,,,1777.4380009000015,1777.4535367999924,1777.9380886,,,,,,,,,,,,,,1777.968348399998,,,,,,,,,,1777.9649640999996,1777.968348399998,1777.968348399998,1777.968348399998,1780.9539854000031,f,2.426471400001901,0.1686762000026647,1780.954179399996,1780.954237500002,None,,,,,,,,,,,,,,,,,00018,001,2026-01-20_14h57.56.200,MST_task,2024.2.0,59.9251654556009,2026-01-20 14h58.12.859873 +0530,
,Objects\059a.jpg,65,0,66,,,,,,,f,2.357857299997704,0.1517714000074193,None,,,,,,66,0,65,1780.9704249999922,,,,,,,,,,,,,,,,,,,,,,,1780.9545119999966,1780.9704249999922,1781.4549119000003,,,,,,,,,,,,,,1781.5412582999998,,,,,,,,,,1781.5373945000028,1781.5412582999998,1781.5412582999998,1781.5412582999998,1784.470970800001,f,2.357857299997704,0.1517714000074193,1784.4711663999915,1784.4712044000044,None,,,,,,,,,,,,,,,,,00018,001,2026-01-20_14h57.56.200,MST_task,2024.2.0,59.9251654556009,2026-01-20 14h58.12.859873 +0530,
,Objects\049a.jpg,66,0,67,,,,,,,f,0.6584035999985645,0.18415250000543892,None,,,,,,67,0,66,1784.486845099993,,,,,,,,,,,,,,,,,,,,,,,1784.4714284999936,1784.486845099993,1784.9714089000045,,,,,,,,,,,,,,1784.9994742999988,,,,,,,,,,1784.9959209999943,1784.9994742999988,1784.9994742999988,1784.9994742999988,1787.9873993999936,f,0.6584035999985645,0.18415250000543892,1787.9876187000045,1787.9876860999939,None,,,,,,,,,,,,,,,,,00018,001,2026-01-20_14h57.56.200,MST_task,2024.2.0,59.9251654556009,2026-01-20 14h58.12.859873 +0530,
,Objects\066a.jpg,67,0,68,,,,,,,j,1.5627910000039265,0.1683379000023706,None,,,,,,68,0,67,1788.0035986000003,,,,,,,,,,,,,,,,,,,,,,,1787.9879042999964,1788.0035986000003,1788.487300599998,,,,,,,,,,,,,,1788.5117308000044,,,,,,,,,,1788.5088902999996,1788.5117308000044,1788.5117308000044,1788.5117308000044,1791.5039963000017,j,1.5627910000039265,0.1683379000023706,1791.5042281999922,1791.5042958999984,None,,,,,,,,,,,,,,,,,00018,001,2026-01-20_14h57.56.200,MST_task,2024.2.0,59.9251654556009,2026-01-20 14h58.12.859873 +0530,
,Objects\142a.jpg,68,0,69,,,,,,,f,0.7737435000017285,0.2074679999932414,None,,,,,,69,0,68,1791.5202315999923,,,,,,,,,,,,,,,,,,,,,,,1791.5045668999956,1791.5202315999923,1792.0050204,,,,,,,,,,,,,,1792.029510399996,,,,,,,,,,1792.0267076000018,1792.029510399996,1792.029510399996,1792.029510399996,1795.020760200001,f,0.7737435000017285,0.2074679999932414,1795.0209310999926,1795.0209766999906,None,,,,,,,,,,,,,,,,,00018,001,2026-01-20_14h57.56.200,MST_task,2024.2.0,59.9251654556009,2026-01-20 14h58.12.859873 +0530,
,Objects\086a.jpg,69,0,70,,,,,,,f,1.8163540999958059,0.18277519999537617,None,,,,,,70,0,69,1795.0369051000016,,,,,,,,,,,,,,,,,,,,,,,1795.0212628000008,1795.0369051000016,1795.5212504999945,,,,,,,,,,,,,,1795.5474172999966,,,,,,,,,,1795.5448352999956,1795.5474172999966,1795.5474172999966,1795.5474172999966,1798.5372004999954,f,1.8163540999958059,0.18277519999537617,1798.5374381000001,1798.537505500004,None,,,,,,,,,,,,,,,,,00018,001,2026-01-20_14h57.56.200,MST_task,2024.2.0,59.9251654556009,2026-01-20 14h58.12.859873 +0530,
,Scenes\005a.jpg,70,0,71,,,,,,,f,2.1995644999988144,0.19135880000249017,None,,,,,,71,0,70,1798.553743700002,,,,,,,,,,,,,,,,,,,,,,,1798.537914799992,1798.553743700002,1799.037970099991,,,,,,,,,,,,,,1799.074987400003,,,,,,,,,,1799.0719925000012,1799.074987400003,1799.074987400003,1799.074987400003,1802.0550528000022,f,2.1995644999988144,0.19135880000249017,1802.0552628000005,1802.0553314999997,None,,,,,,,,,,,,,,,,,00018,001,2026-01-20_14h57.56.200,MST_task,2024.2.0,59.9251654556009,2026-01-20 14h58.12.859873 +0530,
,Scenes\049a.jpg,71,0,72,,,,,,,j,1.0477708000107668,0.1524782999913441,None,,,,,,72,0,71,1802.0702580999932,,,,,,,,,,,,,,,,,,,,,,,1802.0556631999934,1802.0702580999932,1802.5547714999993,,,,,,,,,,,,,,1802.5953433999966,,,,,,,,,,1802.5922976000002,1802.5953433999966,1802.5953433999966,1802.5953433999966,1805.5707451999915,j,1.0477708000107668,0.1524782999913441,1805.5708786000032,1805.5709172999923,None,,,,,,,,,,,,,,,,,00018,001,2026-01-20_14h57.56.200,MST_task,2024.2.0,59.9251654556009,2026-01-20 14h58.12.859873 +0530,
,Scenes\175a.jpg,72,0,73,,,,,,,j,2.471831499991822,0.1505508000118425,None,,,,,,73,0,72,1805.5868475000025,,,,,,,,,,,,,,,,,,,,,,,1805.5711431999953,1805.5868475000025,1806.0712350999966,,,,,,,,,,,,,,1806.1315562999953,,,,,,,,,,1806.1277169999958,1806.1315562999953,1806.1315562999953,1806.1315562999953,1809.087215099993,j,2.471831499991822,0.1505508000118425,1809.0873507999931,1809.0873919000005,None,,,,,,,,,,,,,,,,,00018,001,2026-01-20_14h57.56.200,MST_task,2024.2.0,59.9251654556009,2026-01-20 14h58.12.859873 +0530,
,Scenes\168a.jpg,73,0,74,,,,,,,j,1.0323239999997895,0.15206429999670945,None,,,,,,74,0,73,1809.1036432999972,,,,,,,,,,,,,,,,,,,,,,,1809.0875849000004,1809.1036432999972,1809.5880887999956,,,,,,,,,,,,,,1809.6346258999984,,,,,,,,,,1809.6312184999988,1809.6346258999984,1809.6346258999984,1809.6346258999984,1812.5878030000022,j,1.0323239999997895,0.15206429999670945,1812.5878920999967,1812.5879171999986,None,,,,,,,,,,,,,,,,,00018,001,2026-01-20_14h57.56.200,MST_task,2024.2.0,59.9251654556009,2026-01-20 14h58.12.859873 +0530,
,Scenes\127a.jpg,74,0,75,,,,,,,j,1.4965470000024652,0.17630549999012146,None,,,,,,75,0,74,1812.604177599991,,,,,,,,,,,,,,,,,,,,,,,1812.5880517000041,1812.604177599991,1813.087834799997,,,,,,,,,,,,,,1813.1299453999964,,,,,,,,,,1813.126209199996,1813.1299453999964,1813.1299453999964,1813.1299453999964,1816.104681900004,j,1.4965470000024652,0.17630549999012146,1816.1049349999957,1816.1050018999958,None,,,,,,,,,,,,,,,,,00018,001,2026-01-20_14h57.56.200,MST_task,2024.2.0,59.9251654556009,2026-01-20 14h58.12.859873 +0530,
,Scenes\164a.jpg,75,0,76,,,,,,,j,0.8294114000018453,0.152725099993404,None,,,,,,76,0,75,1816.1202432999999,,,,,,,,,,,,,,,,,,,,,,,1816.105411800003,1816.1202432999999,1816.6046036000043,,,,,,,,,,,,,,1816.6527636999963,,,,,,,,,,1816.6490919999924,1816.6527636999963,1816.6527636999963,1816.6527636999963,1819.6208251999924,j,0.8294114000018453,0.152725099993404,1819.6210431999934,1819.6210817999963,None,,,,,,,,,,,,,,,,,00018,001,2026-01-20_14h57.56.200,MST_task,2024.2.0,59.9251654556009,2026-01-20 14h58.12.859873 +0530,
,Scenes\125a.jpg,76,0,77,,,,,,,j,1.030227700000978,0.16780710000602994,None,,,,,,77,0,76,1819.637069000004,,,,,,,,,,,,,,,,,,,,,,,1819.6212674999988,1819.637069000004,1820.1214279999986,,,,,,,,,,,,,,1820.260449399997,,,,,,,,,,1820.2570569999953,1820.260449399997,1820.260449399997,1820.260449399997,1823.1377224000025,j,1.030227700000978,0.16780710000602994,1823.1378773000033,1823.137922199996,None,,,,,,,,,,,,,,,,,00018,001,2026-01-20_14h57.56.200,MST_task,2024.2.0,59.9251654556009,2026-01-20 14h58.12.859873 +0530,
,Objects\158a.jpg,77,0,78,,,,,,,j,1.2978854999964824,0.1440599000052316,None,,,,,,78,0,77,1823.1537020999967,,,,,,,,,,,,,,,,,,,,,,,1823.138218299995,1823.1537020999967,1823.6379583999951,,,,,,,,,,,,,,1823.6730054999935,,,,,,,,,,1823.670048,1823.6730054999935,1823.6730054999935,1823.6730054999935,1826.6540958999976,j,1.2978854999964824,0.1440599000052316,1826.654300299997,1826.6543683999917,None,,,,,,,,,,,,,,,,,00018,001,2026-01-20_14h57.56.200,MST_task,2024.2.0,59.9251654556009,2026-01-20 14h58.12.859873 +0530,
,Objects\023a.jpg,78,0,79,,,,,,,f,0.7508480999968015,0.19201909999537747,None,,,,,,79,0,78,1826.670487700001,,,,,,,,,,,,,,,,,,,,,,,1826.6547544999921,1826.670487700001,1827.1546511999913,,,,,,,,,,,,,,1827.1870684000023,,,,,,,,,,1827.1832960000029,1827.1870684000023,1827.1870684000023,1827.1870684000023,1830.1708650999935,f,0.7508480999968015,0.19201909999537747,1830.1710463999916,1830.171084799993,None,,,,,,,,,,,,,,,,,00018,001,2026-01-20_14h57.56.200,MST_task,2024.2.0,59.9251654556009,2026-01-20 14h58.12.859873 +0530,
,Objects\020a.jpg,79,0,80,,,,,,,f,2.309183800010942,0.18334370000229683,None,,,,,,80,0,79,1830.1872469999944,,,,,,,,,,,,,,,,,,,,,,,1830.171270699997,1830.1872469999944,1830.6712038999976,,,,,,,,,,,,,,1830.701892099998,,,,,,,,,,1830.6989079999912,1830.701892099998,1830.701892099998,1830.701892099998,1833.6880115999957,f,2.309183800010942,0.18334370000229683,1833.688193199996,1833.6882291999937,None,,,,,,,,,,,,,,,,,00018,001,2026-01-20_14h57.56.200,MST_task,2024.2.0,59.9251654556009,2026-01-20 14h58.12.859873 +0530,
,Objects\018a.jpg,80,0,81,,,,,,,f,0.7658436999918194,0.23160260000440758,None,,,,,,81,0,80,1833.7044069999974,,,,,,,,,,,,,,,,,,,,,,,1833.6884576000011,1833.7044069999974,1834.1884097000002,,,,,,,,,,,,,,1834.2125790999999,,,,,,,,,,1834.2095928999915,1834.2125790999999,1834.2125790999999,1834.2125790999999,1837.203978599995,f,0.7658436999918194,0.23160260000440758,1837.2041893999994,1837.2042562999995,None,,,,,,,,,,,,,,,,,00018,001,2026-01-20_14h57.56.200,MST_task,2024.2.0,59.9251654556009,2026-01-20 14h58.12.859873 +0530,
,Objects\168a.jpg,81,0,82,,,,,,,f,1.22491339998669,0.1840468000009423,None,,,,,,82,0,81,1837.220318199994,,,,,,,,,,,,,,,,,,,,,,,1837.204565699998,1837.220318199994,1837.7047659999953,,,,,,,,,,,,,,1837.738094699991,,,,,,,,,,1837.734803799991,1837.738094699991,1837.738094699991,1837.738094699991,1840.7209845000034,f,1.22491339998669,0.1840468000009423,1840.7211141000007,1840.7211527000036,None,,,,,,,,,,,,,,,,,00018,001,2026-01-20_14h57.56.200,MST_task,2024.2.0,59.9251654556009,2026-01-20 14h58.12.859873 +0530,
,Objects\169a.jpg,82,0,83,,,,,,,f,1.7052041999995708,0.22407170000951737,None,,,,,,83,0,82,1840.7368909999932,,,,,,,,,,,,,,,,,,,,,,,1840.7213862999924,1840.7368909999932,1841.2216898000042,,,,,,,,,,,,,,1841.2574131000001,,,,,,,,,,1841.2541102999967,1841.2574131000001,1841.2574131000001,1841.2574131000001,1844.2374277999916,f,1.7052041999995708,0.22407170000951737,1844.2376466999995,1844.2377144999919,None,,,,,,,,,,,,,,,,,00018,001,2026-01-20_14h57.56.200,MST_task,2024.2.0,59.9251654556009,2026-01-20 14h58.12.859873 +0530,
,Objects\147a.jpg,83,0,84,,,,,,,f,0.8130065000004834,0.12673150000046007,None,,,,,,84,0,83,1844.253886999999,,,,,,,,,,,,,,,,,,,,,,,1844.2380522000021,1844.253886999999,1844.7381418000004,,,,,,,,,,,,,,1844.766420400003,,,,,,,,,,1844.763586400004,1844.766420400003,1844.766420400003,1844.766420400003,1847.7384201999957,f,0.8130065000004834,0.12673150000046007,1847.7385869999998,1847.7386419999966,None,,,,,,,,,,,,,,,,,00018,001,2026-01-20_14h57.56.200,MST_task,2024.2.0,59.9251654556009,2026-01-20 14h58.12.859873 +0530,
,Scenes\022a.jpg,84,0,85,,,,,,,j,1.7986304000078235,0.16715839999960735,None,,,,,,85,0,84,1847.753697799999,,,,,,,,,,,,,,,,,,,,,,,1847.7388221,1847.753697799999,1848.2381473999994,,,,,,,,,,,,,,1848.340484500004,,,,,,,,,,1848.337065899992,1848.340484500004,1848.340484500004,1848.340484500004,1851.2541838000034,j,1.7986304000078235,0.16715839999960735,1851.2543433999963,1851.2543895999988,None,,,,,,,,,,,,,,,,,00018,001,2026-01-20_14h57.56.200,MST_task,2024.2.0,59.9251654556009,2026-01-20 14h58.12.859873 +0530,
,Scenes\176a.jpg,85,0,86,,,,,,,j,2.655568400004995,0.1521498999936739,None,,,,,,86,0,85,1851.2703066999966,,,,,,,,,,,,,,,,,,,,,,,1851.2546644999966,1851.2703066999966,1851.754738299991,,,,,,,,,,,,,,1851.7951646000001,,,,,,,,,,1851.7921987000009,1851.7951646000001,1851.7951646000001,1851.7951646000001,1854.770589599997,j,2.655568400004995,0.1521498999936739,1854.7707106000016,1854.7707469000015,None,,,,,,,,,,,,,,,,,00018,001,2026-01-20_14h57.56.200,MST_task,2024.2.0,59.9251654556009,2026-01-20 14h58.12.859873 +0530,
,Scenes\030a.jpg,86,0,87,,,,,,,None,,,j,0.13185150000208523,None,,,,87,0,86,1854.7868716999947,,,,,,,,,,,,,,,,,,,,,,,1854.7709305000026,1854.7868716999947,1855.2711457999976,,,,,,,,,,,,,,1855.3171193000017,,,,,,,,,,1855.3140310000017,1855.3171193000017,1855.3171193000017,1855.3171193000017,1858.270986100004,None,,,1858.2711165999935,1858.4220820000046,j,1858.2874142999935,1858.2874142999935,0.13185150000208523,None,,,,,,,,,,,,,00018,001,2026-01-20_14h57.56.200,MST_task,2024.2.0,59.9251654556009,2026-01-20 14h58.12.859873 +0530,
,Scenes\169a.jpg,87,0,88,,,,,,,j,1.7780867000110447,0.12055099999997765,None,,,,,,88,0,87,1858.4368926000025,,,,,,,,,,,,,,,,,,,,,,,1858.4223925999977,1858.4368926000025,1858.9214729999949,,,,,,,,,,,,,,1858.9600907999993,,,,,,,,,,1858.9565720999963,1858.9600907999993,1858.9600907999993,1858.9600907999993,1861.9374220000027,j,1.7780867000110447,0.12055099999997765,1861.9376435000013,1861.9377109999914,None,,,,,,,,,,,,,,,,,00018,001,2026-01-20_14h57.56.200,MST_task,2024.2.0,59.9251654556009,2026-01-20 14h58.12.859873 +0530,
,Scenes\017a.jpg,88,0,89,,,,,,,f,2.1723583999992115,0.17514849999861326,None,,,,,,89,0,88,1861.9534832999925,,,,,,,,,,,,,,,,,,,,,,,1861.9379354999983,1861.9534832999925,1862.4378873999958,,,,,,,,,,,,,,1862.4785646999953,,,,,,,,,,1862.4750634999946,1862.4785646999953,1862.4785646999953,1862.4785646999953,1865.4380270999973,f,2.1723583999992115,0.17514849999861326,1865.438215000002,1865.4382726999902,None,,,,,,,,,,,,,,,,,00018,001,2026-01-20_14h57.56.200,MST_task,2024.2.0,59.9251654556009,2026-01-20 14h58.12.859873 +0530,
,Scenes\189a.jpg,89,0,90,,,,,,,j,0.5974220000061905,0.09458389999053907,None,,,,,,90,0,89,1865.4535715999955,,,,,,,,,,,,,,,,,,,,,,,1865.4385329999932,1865.4535715999955,1865.9378918000002,,,,,,,,,,,,,,1865.9820414999995,,,,,,,,,,1865.9778536999947,1865.9820414999995,1865.9820414999995,1865.9820414999995,1868.9543157000007,j,0.5974220000061905,0.09458389999053907,1868.9545523999986,1868.9545956999937,None,,,,,,,,,,,,,,,,,00018,001,2026-01-20_14h57.56.200,MST_task,2024.2.0,59.9251654556009,2026-01-20 14h58.12.859873 +0530,
,Scenes\163a.jpg,90,0,91,,,,,,,j,1.3026141000009375,0.15247679999447428,None,,,,,,91,0,90,1868.9703500000032,,,,,,,,,,,,,,,,,,,,,,,1868.954805699992,1868.9703500000032,1869.4546407000016,,,,,,,,,,,,,,1869.492423699994,,,,,,,,,,1869.4892163999903,1869.492423699994,1869.492423699994,1869.492423699994,1872.4709416999976,j,1.3026141000009375,0.15247679999447428,1872.4711177999998,1872.4711690999975,None,,,,,,,,,,,,,,,,,00018,001,2026-01-20_14h57.56.200,MST_task,2024.2.0,59.9251654556009,2026-01-20 14h58.12.859873 +0530,
,Objects\084a.jpg,91,0,92,,,,,,,f,1.594962500006659,0.1987712999980431,None,,,,,,92,0,91,1872.4868279999937,,,,,,,,,,,,,,,,,,,,,,,1872.4714838999935,1872.4868279999937,1872.9713568000006,,,,,,,,,,,,,,1873.0081308999943,,,,,,,,,,1873.0044972000032,1873.0081308999943,1873.0081308999943,1873.0081308999943,1875.987419099998,f,1.594962500006659,0.1987712999980431,1875.987628399991,1875.9876950000034,None,,,,,,,,,,,,,,,,,00018,001,2026-01-20_14h57.56.200,MST_task,2024.2.0,59.9251654556009,2026-01-20 14h58.12.859873 +0530,
,Objects\175a.jpg,92,0,93,,,,,,,f,2.109327199999825,0.18422729999292642,None,,,,,,93,0,92,1876.0039202000044,,,,,,,,,,,,,,,,,,,,,,,1875.9881083999935,1876.0039202000044,1876.4879793,,,,,,,,,,,,,,1876.5572277000028,,,,,,,,,,1876.5543687000027,1876.5572277000028,1876.5572277000028,1876.5572277000028,1879.5040590999997,f,2.109327199999825,0.18422729999292642,1879.5042763999954,1879.5043431999948,None,,,,,,,,,,,,,,,,,00018,001,2026-01-20_14h57.56.200,MST_task,2024.2.0,59.9251654556009,2026-01-20 14h58.12.859873 +0530,
,Objects\089a.jpg,93,0,94,,,,,,,f,0.8057858999964083,0.2160742999985814,None,,,,,,94,0,93,1879.5201987000037,,,,,,,,,,,,,,,,,,,,,,,1879.5046828999912,1879.5201987000037,1880.0049703999975,,,,,,,,,,,,,,1880.036732099994,,,,,,,,,,1880.0335627000022,1880.036732099994,1880.036732099994,1880.036732099994,1883.0209364000038,f,0.8057858999964083,0.2160742999985814,1883.0211284999968,1883.0211719999934,None,,,,,,,,,,,,,,,,,00018,001,2026-01-20_14h57.56.200,MST_task,2024.2.0,59.9251654556009,2026-01-20 14h58.12.859873 +0530,
,Objects\064a.jpg,94,0,95,,,,,,,f,1.9310703999944963,0.14416750000964385,None,,,,,,95,0,94,1883.0369381999917,,,,,,,,,,,,,,,,,,,,,,,1883.0214331000025,1883.0369381999917,1883.521605499991,,,,,,,,,,,,,,1883.5515233999904,,,,,,,,,,1883.548545800004,1883.5515233999904,1883.5515233999904,1883.5515233999904,1886.5373076999967,f,1.9310703999944963,0.14416750000964385,1886.5375140999968,1886.537581800003,None,,,,,,,,,,,,,,,,,00018,001,2026-01-20_14h57.56.200,MST_task,2024.2.0,59.9251654556009,2026-01-20 14h58.12.859873 +0530,
,Objects\082a.jpg,95,0,96,,,,,,,j,0.8416198999912012,0.1445670999964932,None,,,,,,96,0,95,1886.553609399998,,,,,,,,,,,,,,,,,,,,,,,1886.537970999998,1886.553609399998,1887.0379622000037,,,,,,,,,,,,,,1887.0648683000036,,,,,,,,,,1887.0616826999903,1887.0648683000036,1887.0648683000036,1887.0648683000036,1890.0547062999976,j,0.8416198999912012,0.1445670999964932,1890.0549088999978,1890.0549763000017,None,,,,,,,,,,,,,,,,,00018,001,2026-01-20_14h57.56.200,MST_task,2024.2.0,59.9251654556009,2026-01-20 14h58.12.859873 +0530,
,Objects\110a.jpg,96,0,97,,,,,,,f,2.115939100011019,0.19865569999092259,None,,,,,,97,0,96,1890.070256299994,,,,,,,,,,,,,,,,,,,,,,,1890.0553046999994,1890.070256299994,1890.5549656999938,,,,,,,,,,,,,,1890.583483800001,,,,,,,,,,1890.5806235999917,1890.583483800001,1890.583483800001,1890.583483800001,1893.5708469999954,f,2.115939100011019,0.19865569999092259,1893.5710655000003,1893.5711099000036,None,,,,,,,,,,,,,,,,,00018,001,2026-01-20_14h57.56.200,MST_task,2024.2.0,59.9251654556009,2026-01-20 14h58.12.859873 +0530,
,Objects\154a.jpg,97,0,98,,,,,,,f,1.4382347999926424,0.20809149999695364,None,,,,,,98,0,97,1893.5870493999973,,,,,,,,,,,,,,,,,,,,,,,1893.571283600002,1893.5870493999973,1894.071293400004,,,,,,,,,,,,,,1894.1002712000045,,,,,,,,,,1894.0972556999914,1894.1002712000045,1894.1002712000045,1894.1002712000045,1897.0875693999988,f,1.4382347999926424,0.20809149999695364,1897.0877655999939,1897.0878090999904,None,,,,,,,,,,,,,,,,,00018,001,2026-01-20_14h57.56.200,MST_task,2024.2.0,59.9251654556009,2026-01-20 14h58.12.859873 +0530,
,Scenes\113a.jpg,98,0,99,,,,,,,j,0.9698050000006333,0.14417810000304598,None,,,,,,99,0,98,1897.1038747999992,,,,,,,,,,,,,,,,,,,,,,,1897.0880822000036,1897.1038747999992,1897.5880774999969,,,,,,,,,,,,,,1897.6172138999973,,,,,,,,,,1897.6145129999932,1897.6172138999973,1897.6172138999973,1897.6172138999973,1900.6040709999943,j,0.9698050000006333,0.14417810000304598,1900.6042884999915,1900.6043559999962,None,,,,,,,,,,,,,,,,,00018,001,2026-01-20_14h57.56.200,MST_task,2024.2.0,59.9251654556009,2026-01-20 14h58.12.859873 +0530,
,Scenes\190a.jpg,99,0,100,,,,,,,j,2.3065683000022545,0.13625619999947958,None,,,,,,100,0,99,1900.6201719999954,,,,,,,,,,,,,,,,,,,,,,,1900.604649899993,1900.6201719999954,1901.1047532999946,,,,,,,,,,,,,,1901.1447148000007,,,,,,,,,,1901.1412110999954,1901.1447148000007,1901.1447148000007,1901.1447148000007,1904.1046223000012,j,2.3065683000022545,0.13625619999947958,1904.1048501999903,1904.1049188000034,None,,,,,,,,,,,,,,,,,00018,001,2026-01-20_14h57.56.200,MST_task,2024.2.0,59.9251654556009,2026-01-20 14h58.12.859873 +0530,
,Scenes\120a.jpg,100,0,101,,,,,,,j,1.2527618000021903,0.1446451999945566,None,,,,,,101,0,100,1904.120444100001,,,,,,,,,,,,,,,,,,,,,,,1904.105236000003,1904.120444100001,1904.6048093999998,,,,,,,,,,,,,,1904.6455650999997,,,,,,,,,,1904.642101599995,1904.6455650999997,1904.6455650999997,1904.6455650999997,1907.6208742000017,j,1.2527618000021903,0.1446451999945566,1907.6210969999956,1907.6211366999923,None,,,,,,,,,,,,,,,,,00018,001,2026-01-20_14h57.56.200,MST_task,2024.2.0,59.9251654556009,2026-01-20 14h58.12.859873 +0530,
,Scenes\042a.jpg,101,0,102,,,,,,,j,1.6259802000131458,0.17541549999441486,None,,,,,,102,0,101,1907.6370271999913,,,,,,,,,,,,,,,,,,,,,,,1907.621385999999,1907.6370271999913,1908.1214047999965,,,,,,,,,,,,,,1908.1766162999993,,,,,,,,,,1908.172492999991,1908.1766162999993,1908.1766162999993,1908.1766162999993,1911.1375148999941,j,1.6259802000131458,0.17541549999441486,1911.1377219999995,1911.1377890000003,None,,,,,,,,,,,,,,,,,00018,001,2026-01-20_14h57.56.200,MST_task,2024.2.0,59.9251654556009,2026-01-20 14h58.12.859873 +0530,
,Scenes\002a.jpg,102,0,103,,,,,,,j,1.694182000006549,0.13477099999727216,None,,,,,,103,0,102,1911.153602499995,,,,,,,,,,,,,,,,,,,,,,,1911.1381005000003,1911.153602499995,1911.6380930000014,,,,,,,,,,,,,,1911.6928570000018,,,,,,,,,,1911.6896299999935,1911.6928570000018,1911.6928570000018,1911.6928570000018,1914.654343999995,j,1.694182000006549,0.13477099999727216,1914.6545119999937,1914.6545603999984,None,,,,,,,,,,,,,,,,,00018,001,2026-01-20_14h57.56.200,MST_task,2024.2.0,59.9251654556009,2026-01-20 14h58.12.859873 +0530,
,Scenes\035a.jpg,103,0,104,,,,,,,j,2.4452912000124343,0.13641539998934604,None,,,,,,104,0,103,1914.670366899998,,,,,,,,,,,,,,,,,,,,,,,1914.6548408999952,1914.670366899998,1915.154532799992,,,,,,,,,,,,,,1915.2372127999988,,,,,,,,,,1915.2337256000028,1915.2372127999988,1915.2372127999988,1915.2372127999988,1918.1710108999978,j,2.4452912000124343,0.13641539998934604,1918.1712410000036,1918.1713085999945,None,,,,,,,,,,,,,,,,,00018,001,2026-01-20_14h57.56.200,MST_task,2024.2.0,59.9251654556009,2026-01-20 14h58.12.859873 +0530,
,Scenes\142a.jpg,104,0,105,,,,,,,j,1.1033139000064693,0.18412989999342244,None,,,,,,105,0,104,1918.1869402000011,,,,,,,,,,,,,,,,,,,,,,,1918.171540299998,1918.1869402000011,1918.6711772999988,,,,,,,,,,,,,,1918.7155532000033,,,,,,,,,,1918.7115109000006,1918.7155532000033,1918.7155532000033,1918.7155532000033,1921.688535399997,j,1.1033139000064693,0.18412989999342244,1921.688797499999,1921.688872899991,None,,,,,,,,,,,,,,,,,00018,001,2026-01-20_14h57.56.200,MST_task,2024.2.0,59.9251654556009,2026-01-20 14h58.12.859873 +0530,
,Objects\109a.jpg,105,0,106,,,,,,,f,2.3672929000022123,0.1677384000067832,None,,,,,,106,0,105,1921.7035446999944,,,,,,,,,,,,,,,,,,,,,,,1921.6892066,1921.7035446999944,1922.1882686000026,,,,,,,,,,,,,,1922.2192009999999,,,,,,,,,,1922.216149999993,1922.2192009999999,1922.2192009999999,1922.2192009999999,1925.204087399994,f,2.3672929000022123,0.1677384000067832,1925.2042168999906,1925.204255699995,None,,,,,,,,,,,,,,,,,00018,001,2026-01-20_14h57.56.200,MST_task,2024.2.0,59.9251654556009,2026-01-20 14h58.12.859873 +0530,
,Objects\120a.jpg,106,0,107,,,,,,,f,0.6289558999997098,0.15975609999441076,None,,,,,,107,0,106,1925.2203283999988,,,,,,,,,,,,,,,,,,,,,,,1925.2044805999903,1925.2203283999988,1925.7046050999925,,,,,,,,,,,,,,1925.7416014999908,,,,,,,,,,1925.7375006999937,1925.7416014999908,1925.7416014999908,1925.7416014999908,1928.720723099992,f,0.6289558999997098,0.15975609999441076,1928.7209594000014,1928.7209928999946,None,,,,,,,,,,,,,,,,,00018,001,2026-01-20_14h57.56.200,MST_task,2024.2.0,59.9251654556009,2026-01-20 14h58.12.859873 +0530,
,Objects\093a.jpg,107,0,108,,,,,,,j,0.7924805000075139,0.16042869999364484,None,,,,,,108,0,107,1928.7370512999914,,,,,,,,,,,,,,,,,,,,,,,1928.7211528999906,1928.7370512999914,1929.2214325999958,,,,,,,,,,,,,,1929.2506617000035,,,,,,,,,,1929.2471454000042,1929.2506617000035,1929.2506617000035,1929.2506617000035,1932.2380530999944,j,0.7924805000075139,0.16042869999364484,1932.238259299993,1932.2383243999939,None,,,,,,,,,,,,,,,,,00018,001,2026-01-20_14h57.56.200,MST_task,2024.2.0,59.9251654556009,2026-01-20 14h58.12.859873 +0530,
,Objects\172a.jpg,108,0,109,,,,,,,j,1.3072323000087636,0.14589970000088215,None,,,,,,109,0,108,1932.2537177999911,,,,,,,,,,,,,,,,,,,,,,,1932.2385484999977,1932.2537177999911,1932.7378434999991,,,,,,,,,,,,,,1932.7664177999977,,,,,,,,,,1932.763098800002,1932.7664177999977,1932.7664177999977,1932.7664177999977,1935.7538433000009,j,1.3072323000087636,0.14589970000088215,1935.754015300001,1935.7540520000039,None,,,,,,,,,,,,,,,,,00018,001,2026-01-20_14h57.56.200,MST_task,2024.2.0,59.9251654556009,2026-01-20 14h58.12.859873 +0530,
,Objects\135a.jpg,109,0,110,,,,,,,f,0.8782288000074914,0.1676405999896815,None,,,,,,110,0,109,1935.7702238999918,,,,,,,,,,,,,,,,,,,,,,,1935.7542707999964,1935.7702238999918,1936.2546756999946,,,,,,,,,,,,,,1936.291991399994,,,,,,,,,,1936.2884051,1936.291991399994,1936.291991399994,1936.291991399994,1939.2710269999952,f,0.8782288000074914,0.1676405999896815,1939.2712610000017,1939.2713289999956,None,,,,,,,,,,,,,,,,,00018,001,2026-01-20_14h57.56.200,MST_task,2024.2.0,59.9251654556009,2026-01-20 14h58.12.859873 +0530,
,Objects\146a.jpg,110,0,111,,,,,,,f,1.4648943999927724,0.17483299999730662,None,,,,,,111,0,110,1939.2869954999915,,,,,,,,,,,,,,,,,,,,,,,1939.2716658999998,1939.2869954999915,1939.7717878999974,,,,,,,,,,,,,,1939.8021272999904,,,,,,,,,,1939.7991709999915,1939.8021272999904,1939.8021272999904,1939.8021272999904,1942.787347599995,f,1.4648943999927724,0.17483299999730662,1942.7875536999927,1942.7876198000013,None,,,,,,,,,,,,,,,,,00018,001,2026-01-20_14h57.56.200,MST_task,2024.2.0,59.9251654556009,2026-01-20 14h58.12.859873 +0530,
,Objects\144a.jpg,111,0,112,,,,,,,f,1.7580197000061162,0.19202930000028573,None,,,,,,112,0,111,1942.8034646000015,,,,,,,,,,,,,,,,,,,,,,,1942.7879279999906,1942.8034646000015,1943.2881989000016,,,,,,,,,,,,,,1943.3328284000017,,,,,,,,,,1943.3300313999935,1943.3328284000017,1943.3328284000017,1943.3328284000017,1946.3042744999984,f,1.7580197000061162,0.19202930000028573,1946.3043924999947,1946.3044272999978,None,,,,,,,,,,,,,,,,,00018,001,2026-01-20_14h57.56.200,MST_task,2024.2.0,59.9251654556009,2026-01-20 14h58.12.859873 +0530,
,Scenes\014a.jpg,112,0,113,,,,,,,j,0.8645013999921503,0.19234229999710806,None,,,,,,113,0,112,1946.3203360000043,,,,,,,,,,,,,,,,,,,,,,,1946.3046300999995,1946.3203360000043,1946.8051870999916,,,,,,,,,,,,,,1946.8419998000027,,,,,,,,,,1946.8387559999974,1946.8419998000027,1946.8419998000027,1946.8419998000027,1949.8212265000038,j,0.8645013999921503,0.19234229999710806,1949.821432800003,1949.8214987999963,None,,,,,,,,,,,,,,,,,00018,001,2026-01-20_14h57.56.200,MST_task,2024.2.0,59.9251654556009,2026-01-20 14h58.12.859873 +0530,
,Scenes\140a.jpg,113,0,114,,,,,,,j,1.6818273999961093,0.16792269999859855,None,,,,,,114,0,113,1949.8369265999936,,,,,,,,,,,,,,,,,,,,,,,1949.8218108,1949.8369265999936,1950.3219249999966,,,,,,,,,,,,,,1950.361208599992,,,,,,,,,,1950.357496800003,1950.361208599992,1950.361208599992,1950.361208599992,1953.3373408999905,j,1.6818273999961093,0.16792269999859855,1953.3375298000028,1953.337588399998,None,,,,,,,,,,,,,,,,,00018,001,2026-01-20_14h57.56.200,MST_task,2024.2.0,59.9251654556009,2026-01-20 14h58.12.859873 +0530,
,Scenes\073a.jpg,114,0,115,,,,,,,j,0.9957527999940794,0.1585107999999309,None,,,,,,115,0,114,1953.3534708999941,,,,,,,,,,,,,,,,,,,,,,,1953.3379256999906,1953.3534708999941,1953.8382008000044,,,,,,,,,,,,,,1953.887617699991,,,,,,,,,,1953.8846552000032,1953.887617699991,1953.887617699991,1953.887617699991,1956.8539744000009,j,0.9957527999940794,0.1585107999999309,1956.8541791000025,1956.8542446999927,None,,,,,,,,,,,,,,,,,00018,001,2026-01-20_14h57.56.200,MST_task,2024.2.0,59.9251654556009,2026-01-20 14h58.12.859873 +0530,
,Scenes\032a.jpg,115,0,116,,,,,,,j,1.0165704999963054,0.15202239999780431,None,,,,,,116,0,115,1956.870258199997,,,,,,,,,,,,,,,,,,,,,,,1956.8546383999928,1956.870258199997,1957.3554230000009,,,,,,,,,,,,,,1957.410656699998,,,,,,,,,,1957.4071245999949,1957.410656699998,1957.410656699998,1957.410656699998,1960.3713375999941,j,1.0165704999963054,0.15202239999780431,1960.3715396000043,1960.371580299994,None,,,,,,,,,,,,,,,,,00018,001,2026-01-20_14h57.56.200,MST_task,2024.2.0,59.9251654556009,2026-01-20 14h58.12.859873 +0530,
,Scenes\167a.jpg,116,0,117,,,,,,,j,2.267714600006002,0.134314999988419,None,,,,,,117,0,116,1960.3871728999948,,,,,,,,,,,,,,,,,,,,,,,1960.3717744000023,1960.3871728999948,1960.872370600002,,,,,,,,,,,,,,1960.9196671999962,,,,,,,,,,1960.9158637999935,1960.9196671999962,1960.9196671999962,1960.9196671999962,1963.8873465999932,j,2.267714600006002,0.134314999988419,1963.8875810000027,1963.8876481000043,None,,,,,,,,,,,,,,,,,00018,001,2026-01-20_14h57.56.200,MST_task,2024.2.0,59.9251654556009,2026-01-20 14h58.12.859873 +0530,
,Scenes\122a.jpg,117,0,118,,,,,,,f,1.6492587000102503,0.19193970000196714,None,,,,,,118,0,117,1963.903536400001,,,,,,,,,,,,,,,,,,,,,,,1963.8879667,1963.903536400001,1964.3883476999908,,,,,,,,,,,,,,1964.4326751999906,,,,,,,,,,1964.4294865999982,1964.4326751999906,1964.4326751999906,1964.4326751999906,1967.4038661999948,f,1.6492587000102503,0.19193970000196714,1967.4040785999969,1967.4041447999916,None,,,,,,,,,,,,,,,,,00018,001,2026-01-20_14h57.56.200,MST_task,2024.2.0,59.9251654556009,2026-01-20 14h58.12.859873 +0530,
,Scenes\139a.jpg,118,0,119,,,,,,,j,1.2644661999947857,0.1681070000049658,None,,,,,,119,0,118,1967.4206181999907,,,,,,,,,,,,,,,,,,,,,,,1967.4045368999941,1967.4206181999907,1967.904409099996,,,,,,,,,,,,,,1967.946042800002,,,,,,,,,,1967.9426228999946,1967.946042800002,1967.946042800002,1967.946042800002,1970.9206600000034,j,1.2644661999947857,0.1681070000049658,1970.9208623000013,1970.920937399991,None,,,,,,,,,,,,,,,,,00018,001,2026-01-20_14h57.56.200,MST_task,2024.2.0,59.9251654556009,2026-01-20 14h58.12.859873 +0530,
,Objects\173a.jpg,119,0,120,,,,,,,f,1.5787324999982957,0.17641250000451691,None,,,,,,120,0,119,1970.9370770999958,,,,,,,,,,,,,,,,,,,,,,,1970.9213425999915,1970.9370770999958,1971.421800199998,,,,,,,,,,,,,,1971.5116364999994,,,,,,,,,,1971.5086234000046,1971.5116364999994,1971.5116364999994,1971.5116364999994,1974.4374248999957,f,1.5787324999982957,0.17641250000451691,1974.437591599999,1974.4376368999947,None,,,,,,,,,,,,,,,,,00018,001,2026-01-20_14h57.56.200,MST_task,2024.2.0,59.9251654556009,2026-01-20 14h58.12.859873 +0530,
,Objects\054a.jpg,120,0,121,,,,,,,f,0.9990666000085184,0.16735659999540076,None,,,,,,121,0,120,1974.4537887999904,,,,,,,,,,,,,,,,,,,,,,,1974.4379010999983,1974.4537887999904,1974.9378641999938,,,,,,,,,,,,,,1974.9717789999995,,,,,,,,,,1974.968484500001,1974.9717789999995,1974.9717789999995,1974.9717789999995,1977.9540563000046,f,0.9990666000085184,0.16735659999540076,1977.9542574999941,1977.9543116999994,None,,,,,,,,,,,,,,,,,00018,001,2026-01-20_14h57.56.200,MST_task,2024.2.0,59.9251654556009,2026-01-20 14h58.12.859873 +0530,
,Objects\102a.jpg,121,0,122,,,,,,,f,2.2257563000021037,0.14529220000258647,None,,,,,,122,0,121,1977.9702779999934,,,,,,,,,,,,,,,,,,,,,,,1977.9546014999942,1977.9702779999934,1978.4548527000006,,,,,,,,,,,,,,1978.4804938000016,,,,,,,,,,1978.4774144999974,1978.4804938000016,1978.4804938000016,1978.4804938000016,1981.4706535000005,f,2.2257563000021037,0.14529220000258647,1981.470834199994,1981.4709016999986,None,,,,,,,,,,,,,,,,,00018,001,2026-01-20_14h57.56.200,MST_task,2024.2.0,59.9251654556009,2026-01-20 14h58.12.859873 +0530,
,Objects\189a.jpg,122,0,123,,,,,,,f,1.8161122000019532,0.19102569999813568,None,,,,,,123,0,122,1981.4870148999908,,,,,,,,,,,,,,,,,,,,,,,1981.4712226999982,1981.4870148999908,1981.9713783999905,,,,,,,,,,,,,,1982.0029393000004,,,,,,,,,,1981.9996347999986,1982.0029393000004,1982.0029393000004,1982.0029393000004,1984.987403799998,f,1.8161122000019532,0.19102569999813568,1984.987571699996,1984.9876197999984,None,,,,,,,,,,,,,,,,,00018,001,2026-01-20_14h57.56.200,MST_task,2024.2.0,59.9251654556009,2026-01-20 14h58.12.859873 +0530,
,Objects\005a.jpg,123,0,124,,,,,,,f,0.5785217999946326,0.17543830000795424,None,,,,,,124,0,123,1985.0038066999987,,,,,,,,,,,,,,,,,,,,,,,1984.9879327999952,1985.0038066999987,1985.4878358999995,,,,,,,,,,,,,,,,,,,,,,,,1985.517387999993,1985.520545099993,1985.520545099993,1985.520545099993,1988.503836799995,f,0.5785217999946326,0.17543830000795424,1988.5039661999908,1988.5040029999946,None,,,,,,,,,,,,,,,,,00018,001,2026-01-20_14h57.56.200,MST_task,2024.2.0,59.9251654556009,2026-01-20 14h58.12.859873 +0530,
,Objects\125a.jpg,124,0,125,,,,,,,j,1.0280176999949617,0.1920859000092605,None,,,,,,125,0,124,1988.5208988999948,,,,,,,,,,,,,,,,,,,,,,,1988.504220200004,1988.5208988999948,1989.004549499994,,,,,,,,,,,,,,1989.029774499999,,,,,,,,,,1989.0271816000022,1989.029774499999,1989.029774499999,1989.029774499999,1992.020871899993,j,1.0280176999949617,0.1920859000092605,1992.021042399996,1992.0210917999939,None,,,,,,,,,,,,,,,,,00018,001,2026-01-20_14h57.56.200,MST_task,2024.2.0,59.9251654556009,2026-01-20 14h58.12.859873 +0530,
,Objects\031a.jpg,125,0,126,,,,,,,f,1.448463199994876,0.24009550000482704,None,,,,,,126,0,125,1992.0369088000007,,,,,,,,,,,,,,,,,,,,,,,1992.0213894000044,1992.0369088000007,1992.5214150999964,,,,,,,,,,,,,,1992.5540548999998,,,,,,,,,,1992.550801999998,1992.5540548999998,1992.5540548999998,1992.5540548999998,1995.5375863999943,f,1.448463199994876,0.24009550000482704,1995.537746499991,1995.5377930999966,None,,,,,,,,,,,,,,,,,00018,001,2026-01-20_14h57.56.200,MST_task,2024.2.0,59.9251654556009,2026-01-20 14h58.12.859873 +0530,
,Scenes\040a.jpg,126,0,127,,,,,,,j,2.4751485000015236,0.15159249999851454,None,,,,,,127,0,126,1995.5535488000023,,,,,,,,,,,,,,,,,,,,,,,1995.5380773999932,1995.5535488000023,1996.0380680999951,,,,,,,,,,,,,,1996.1035621999908,,,,,,,,,,1996.098912699992,1996.1035621999908,1996.1035621999908,1996.1035621999908,1999.054096699998,j,2.4751485000015236,0.15159249999851454,1999.0542400999984,1999.054278800002,None,,,,,,,,,,,,,,,,,00018,001,2026-01-20_14h57.56.200,MST_task,2024.2.0,59.9251654556009,2026-01-20 14h58.12.859873 +0530,
,Scenes\046a.jpg,127,0,128,,,,,,,j,2.434948900001473,0.1516604000062216,None,,,,,,128,0,127,1999.070323299995,,,,,,,,,,,,,,,,,,,,,,,1999.054519600002,1999.070323299995,1999.5547560999985,,,,,,,,,,,,,,1999.6003098999936,,,,,,,,,,1999.5971080000018,1999.6003098999936,1999.6003098999936,1999.6003098999936,2002.5707716000034,j,2.434948900001473,0.1516604000062216,2002.5709971000033,2002.5710440999974,None,,,,,,,,,,,,,,,,,00018,001,2026-01-20_14h57.56.200,MST_task,2024.2.0,59.9251654556009,2026-01-20 14h58.12.859873 +0530,
,Scenes\034a.jpg,128,0,129,,,,,,,j,1.037057100009406,0.20926329999929294,None,,,,,,129,0,128,2002.5869739999907,,,,,,,,,,,,,,,,,,,,,,,2002.5713282999932,2002.5869739999907,2003.0716952999937,,,,,,,,,,,,,,2003.116937999992,,,,,,,,,,2003.1132291999966,2003.116937999992,2003.116937999992,2003.116937999992,2006.0873739999952,j,1.037057100009406,0.20926329999929294,2006.0876040000003,2006.087640400001,None,,,,,,,,,,,,,,,,,00018,001,2026-01-20_14h57.56.200,MST_task,2024.2.0,59.9251654556009,2026-01-20 14h58.12.859873 +0530,
,Scenes\078a.jpg,129,0,130,,,,,,,None,,,j,0.653855399999884,None,,,,130,0,129,2006.1038408000022,,,,,,,,,,,,,,,,,,,,,,,2006.0878641000018,2006.1038408000022,2006.587939799996,,,,,,,,,,,,,,2006.6306355999986,,,,,,,,,,2006.6272230000031,2006.6306355999986,2006.6306355999986,2006.6306355999986,2009.6040906999988,None,,,2009.6042272999912,2010.288817499997,j,2009.6203255,2009.6203255,0.653855399999884,None,,,,,,,,,,,,,00018,001,2026-01-20_14h57.56.200,MST_task,2024.2.0,59.9251654556009,2026-01-20 14h58.12.859873 +0530,
,Scenes\154a.jpg,130,0,131,,,,,,,j,0.6968379000027198,0.1353355999890482,None,,,,,,131,0,130,2010.3036686999985,,,,,,,,,,,,,,,,,,,,,,,2010.2891779999918,2010.3036686999985,2010.7880125999945,,,,,,,,,,,,,,2010.8344147000025,,,,,,,,,,2010.8308871000045,2010.8344147000025,2010.8344147000025,2010.8344147000025,2013.8039760999964,j,0.6968379000027198,0.1353355999890482,2013.8041827999987,2013.8042503000033,None,,,,,,,,,,,,,,,,,00018,001,2026-01-20_14h57.56.200,MST_task,2024.2.0,59.9251654556009,2026-01-20 14h58.12.859873 +0530,
,Scenes\146a.jpg,131,0,132,,,,,,,j,1.7895985999930417,0.19259429999510758,None,,,,,,132,0,131,2013.8204372000037,,,,,,,,,,,,,,,,,,,,,,,2013.8045673000015,2013.8204372000037,2014.304627199992,,,,,,,,,,,,,,2014.3485229999933,,,,,,,,,,2014.3454969000013,2014.3485229999933,2014.3485229999933,2014.3485229999933,2017.3208932999987,j,1.7895985999930417,0.19259429999510758,2017.3211202999955,2017.321200099992,None,,,,,,,,,,,,,,,,,00018,001,2026-01-20_14h57.56.200,MST_task,2024.2.0,59.9251654556009,2026-01-20 14h58.12.859873 +0530,
,Scenes\062a.jpg,132,0,133,,,,,,,j,0.8125373999937437,0.15161600000283215,None,,,,,,133,0,132,2017.3369558999984,,,,,,,,,,,,,,,,,,,,,,,2017.3214750999905,2017.3369558999984,2017.821531900001,,,,,,,,,,,,,,2017.9422974999907,,,,,,,,,,2017.9391262999998,2017.9422974999907,2017.9422974999907,2017.9422974999907,2020.8374711999932,j,0.8125373999937437,0.15161600000283215,2020.837660499994,2020.837699399999,None,,,,,,,,,,,,,,,,,00018,001,2026-01-20_14h57.56.200,MST_task,2024.2.0,59.9251654556009,2026-01-20 14h58.12.859873 +0530,
,Objects\157a.jpg,133,0,134,,,,,,,f,0.771972900009132,0.16819670000404585,None,,,,,,134,0,133,2020.8536495000008,,,,,,,,,,,,,,,,,,,,,,,2020.8379343999986,2020.8536495000008,2021.3382566999935,,,,,,,,,,,,,,2021.3908874999906,,,,,,,,,,2021.3874528000015,2021.3908874999906,2021.3908874999906,2021.3908874999906,2024.353934999992,f,0.771972900009132,0.16819670000404585,2024.3541104000033,2024.3541633999994,None,,,,,,,,,,,,,,,,,00018,001,2026-01-20_14h57.56.200,MST_task,2024.2.0,59.9251654556009,2026-01-20 14h58.12.859873 +0530,
,Objects\170a.jpg,134,0,135,,,,,,,f,2.693764999989071,0.1524070000014035,None,,,,,,135,0,134,2024.3705707000045,,,,,,,,,,,,,,,,,,,,,,,2024.3544370000018,2024.3705707000045,2024.8546241000004,,,,,,,,,,,,,,2024.8852439000038,,,,,,,,,,2024.8824487999955,2024.8852439000038,2024.8852439000038,2024.8852439000038,2027.8710053999966,f,2.693764999989071,0.1524070000014035,2027.871197799992,2027.8712429000007,None,,,,,,,,,,,,,,,,,00018,001,2026-01-20_14h57.56.200,MST_task,2024.2.0,59.9251654556009,2026-01-20 14h58.12.859873 +0530,
,Objects\092a.jpg,135,0,136,,,,,,,f,1.8698911000101361,0.14629259999492206,None,,,,,,136,0,135,2027.8873684999999,,,,,,,,,,,,,,,,,,,,,,,2027.871460800001,2027.8873684999999,2028.3712171999941,,,,,,,,,,,,,,2028.4038272000034,,,,,,,,,,2028.400823399992,2028.4038272000034,2028.4038272000034,2028.4038272000034,2031.387627499993,f,1.8698911000101361,0.14629259999492206,2031.3877725999919,2031.3878163000045,None,,,,,,,,,,,,,,,,,00018,001,2026-01-20_14h57.56.200,MST_task,2024.2.0,59.9251654556009,2026-01-20 14h58.12.859873 +0530,
,Objects\107a.jpg,136,0,137,,,,,,,f,0.7408667000127025,0.14409750000049826,None,,,,,,137,0,136,2031.404481199992,,,,,,,,,,,,,,,,,,,,,,,2031.388074699993,2031.404481199992,2031.887996599995,,,,,,,,,,,,,,2031.9259822000022,,,,,,,,,,2031.9226651999925,2031.9259822000022,2031.9259822000022,2031.9259822000022,2034.9041135000007,f,0.7408667000127025,0.14409750000049826,2034.9042696999968,2034.9043166000047,None,,,,,,,,,,,,,,,,,00018,001,2026-01-20_14h57.56.200,MST_task,2024.2.0,59.9251654556009,2026-01-20 14h58.12.859873 +0530,
,Objects\155a.jpg,137,0,138,,,,,,,f,0.812745699993684,0.20808270000270568,None,,,,,,138,0,137,2034.9202848999994,,,,,,,,,,,,,,,,,,,,,,,2034.904593500003,2034.9202848999994,2035.4048435000004,,,,,,,,,,,,,,2035.4377697000018,,,,,,,,,,2035.4348193000042,2035.4377697000018,2035.4377697000018,2035.4377697000018,2038.4207305000018,f,0.812745699993684,0.20808270000270568,2038.4209449000045,2038.420992200001,None,,,,,,,,,,,,,,,,,00018,001,2026-01-20_14h57.56.200,MST_task,2024.2.0,59.9251654556009,2026-01-20 14h58.12.859873 +0530,
,Objects\025a.jpg,138,0,139,,,,,,,j,1.3958308000001125,0.16899499999999534,None,,,,,,139,0,138,2038.4369603999949,,,,,,,,,,,,,,,,,,,,,,,2038.4212722999946,2038.4369603999949,2038.9212870000047,,,,,,,,,,,,,,2038.9581105999969,,,,,,,,,,2038.952778699997,2038.9581105999969,2038.9581105999969,2038.9581105999969,2041.9372358999972,j,1.3958308000001125,0.16899499999999534,2041.9374467000016,2041.937515800004,None,,,,,,,,,,,,,,,,,00018,001,2026-01-20_14h57.56.200,MST_task,2024.2.0,59.9251654556009,2026-01-20 14h58.12.859873 +0530,
,Objects\104a.jpg,139,0,140,,,,,,,f,0.8617745999945328,0.2406998999940697,None,,,,,,140,0,139,2041.9537282999954,,,,,,,,,,,,,,,,,,,,,,,2041.9379112000024,2041.9537282999954,2042.4382928999985,,,,,,,,,,,,,,2042.5081577999954,,,,,,,,,,2042.5047236999962,2042.5081577999954,2042.5081577999954,2042.5081577999954,2045.4540938999999,f,0.8617745999945328,0.2406998999940697,2045.4542995999946,2045.4543660999916,None,,,,,,,,,,,,,,,,,00018,001,2026-01-20_14h57.56.200,MST_task,2024.2.0,59.9251654556009,2026-01-20 14h58.12.859873 +0530,
,Scenes\145a.jpg,140,0,141,,,,,,,j,1.5364694000018062,0.16849419999925885,None,,,,,,141,0,140,2045.470203399993,,,,,,,,,,,,,,,,,,,,,,,2045.454756799998,2045.470203399993,2045.9545775000006,,,,,,,,,,,,,,2046.0017951000045,,,,,,,,,,2045.9983537999942,2046.0017951000045,2046.0017951000045,2046.0017951000045,2048.970694699994,j,1.5364694000018062,0.16849419999925885,2048.9708694,2048.970919799991,None,,,,,,,,,,,,,,,,,00018,001,2026-01-20_14h57.56.200,MST_task,2024.2.0,59.9251654556009,2026-01-20 14h58.12.859873 +0530,
,Scenes\012a.jpg,141,0,142,,,,,,,j,1.0506846999924164,0.20883600000524893,None,,,,,,142,0,141,2048.9869838000013,,,,,,,,,,,,,,,,,,,,,,,2048.971222399996,2048.9869838000013,2049.4712872999953,,,,,,,,,,,,,,2049.5193639999925,,,,,,,,,,2049.5156575,2049.5193639999925,2049.5193639999925,2049.5193639999925,2052.487569399993,j,1.0506846999924164,0.20883600000524893,2052.4877242999937,2052.487763199999,None,,,,,,,,,,,,,,,,,00018,001,2026-01-20_14h57.56.200,MST_task,2024.2.0,59.9251654556009,2026-01-20 14h58.12.859873 +0530,
,Scenes\047a.jpg,142,0,143,,,,,,,j,1.940828299993882,0.16702969999460038,None,,,,,,143,0,142,2052.5037195999903,,,,,,,,,,,,,,,,,,,,,,,2052.487992299997,2052.5037195999903,2052.9881060000043,,,,,,,,,,,,,,2053.038302999994,,,,,,,,,,2053.0348981999996,2053.038302999994,2053.038302999994,2053.038302999994,2056.0040866999916,j,1.940828299993882,0.16702969999460038,2056.004288099997,2056.0043511999975,None,,,,,,,,,,,,,,,,,00018,001,2026-01-20_14h57.56.200,MST_task,2024.2.0,59.9251654556009,2026-01-20 14h58.12.859873 +0530,
,Scenes\160a.jpg,143,0,144,,,,,,,j,1.3602367999992566,0.1930318999948213,None,,,,,,144,0,143,2056.0203847999946,,,,,,,,,,,,,,,,,,,,,,,2056.004748499996,2056.0203847999946,2056.504660199993,,,,,,,,,,,,,,,,,,,,,,,,2056.5422314000025,2056.5454796999984,2056.5454796999984,2056.5454796999984,2059.5210074999923,j,1.3602367999992566,0.1930318999948213,2059.5212272999925,2059.521267999997,None,,,,,,,,,,,,,,,,,00018,001,2026-01-20_14h57.56.200,MST_task,2024.2.0,59.9251654556009,2026-01-20 14h58.12.859873 +0530,
,Scenes\054a.jpg,144,0,145,,,,,,,j,1.0644898999889847,0.1832478000142146,None,,,,,,145,0,144,2059.536953200004,,,,,,,,,,,,,,,,,,,,,,,2059.5215163999965,2059.536953200004,2060.0214137000003,,,,,,,,,,,,,,2060.0579109999962,,,,,,,,,,2060.0546397,2060.0579109999962,2060.0579109999962,2060.0579109999962,2063.0372951000027,j,1.0644898999889847,0.1832478000142146,2063.0374857999996,2063.037534599993,None,,,,,,,,,,,,,,,,,00018,001,2026-01-20_14h57.56.200,MST_task,2024.2.0,59.9251654556009,2026-01-20 14h58.12.859873 +0530,
,Scenes\096a.jpg,145,0,146,,,,,,,j,0.8504143000027398,0.1679842000012286,None,,,,,,146,0,145,2063.053633699994,,,,,,,,,,,,,,,,,,,,,,,2063.037831099995,2063.053633699994,2063.5379856999934,,,,,,,,,,,,,,2063.575537800003,,,,,,,,,,2063.572340400002,2063.575537800003,2063.575537800003,2063.575537800003,2066.5542071999953,j,0.8504143000027398,0.1679842000012286,2066.554396499996,2066.5544376000034,None,,,,,,,,,,,,,,,,,00018,001,2026-01-20_14h57.56.200,MST_task,2024.2.0,59.9251654556009,2026-01-20 14h58.12.859873 +0530,
,Scenes\043a.jpg,146,0,147,,,,,,,j,1.6482866000005743,0.1672790000011446,None,,,,,,147,0,146,2066.570381700003,,,,,,,,,,,,,,,,,,,,,,,2066.554690299992,2066.570381700003,2067.054832499998,,,,,,,,,,,,,,2067.098786699993,,,,,,,,,,2067.0955321999936,2067.098786699993,2067.098786699993,2067.098786699993,2070.0548165999935,j,1.6482866000005743,0.1672790000011446,2070.054950299993,2070.0549914000003,None,,,,,,,,,,,,,,,,,00018,001,2026-01-20_14h57.56.200,MST_task,2024.2.0,59.9251654556009,2026-01-20 14h58.12.859873 +0530,
,Objects\161a.jpg,147,0,148,,,,,,,f,2.966029499992146,None,None,,,,,,148,0,147,2070.0703503999976,,,,,,,,,,,,,,,,,,,,,,,2070.0552270999906,2070.0703503999976,2070.5552633000043,,,,,,,,,,,,,,2070.5812657999923,,,,,,,,,,2070.5779702,2070.5812657999923,2070.5812657999923,2070.5812657999923,2073.5710867000016,f,2.966029499992146,None,2073.571249300003,2073.571292499997,None,,,,,,,,,,,,,,,,,00018,001,2026-01-20_14h57.56.200,MST_task,2024.2.0,59.9251654556009,2026-01-20 14h58.12.859873 +0530,
,Objects\091a.jpg,148,0,149,,,,,,,f,1.9934331000113161,0.1845842999900924,None,,,,,,149,0,148,2073.5869266999944,,,,,,,,,,,,,,,,,,,,,,,2073.571542999998,2073.5869266999944,2074.0715094999905,,,,,,,,,,,,,,2074.104951400004,,,,,,,,,,2074.1018352999963,2074.104951400004,2074.104951400004,2074.104951400004,2077.0872766999964,f,1.9934331000113161,0.1845842999900924,2077.087460900002,2077.0875031000032,None,,,,,,,,,,,,,,,,,00018,001,2026-01-20_14h57.56.200,MST_task,2024.2.0,59.9251654556009,2026-01-20 14h58.12.859873 +0530,
,Objects\137a.jpg,149,0,150,,,,,,,f,0.5607087000098545,0.15261989999271464,None,,,,,,150,0,149,2077.1036849999946,,,,,,,,,,,,,,,,,,,,,,,2077.087759999995,2077.1036849999946,2077.587949099994,,,,,,,,,,,,,,2077.617523599998,,,,,,,,,,2077.614908000003,2077.617523599998,2077.617523599998,2077.617523599998,2080.6043205000024,f,0.5607087000098545,0.15261989999271464,2080.604551700002,2080.6046176999953,None,,,,,,,,,,,,,,,,,00018,001,2026-01-20_14h57.56.200,MST_task,2024.2.0,59.9251654556009,2026-01-20 14h58.12.859873 +0530,
,Objects\134a.jpg,150,0,151,,,,,,,f,1.4018200999998953,0.18332769999688026,None,,,,,,151,0,150,2080.6203945000016,,,,,,,,,,,,,,,,,,,,,,,2080.604933499999,2080.6203945000016,2081.1047821999964,,,,,,,,,,,,,,2081.145159599997,,,,,,,,,,2081.1421443,2081.145159599997,2081.145159599997,2081.145159599997,2084.1207084999915,f,1.4018200999998953,0.18332769999688026,2084.120888999998,2084.120937200001,None,,,,,,,,,,,,,,,,,00018,001,2026-01-20_14h57.56.200,MST_task,2024.2.0,59.9251654556009,2026-01-20 14h58.12.859873 +0530,
,Objects\087a.jpg,151,0,152,,,,,,,f,1.2514896000066074,0.13636779999069404,None,,,,,,152,0,151,2084.136764099996,,,,,,,,,,,,,,,,,,,,,,,2084.1212318000034,2084.136764099996,2084.621655499999,,,,,,,,,,,,,,2084.654773100003,,,,,,,,,,2084.651805799993,2084.654773100003,2084.654773100003,2084.654773100003,2087.6212258000014,f,1.2514896000066074,0.13636779999069404,2087.6214326000045,2087.621501699992,None,,,,,,,,,,,,,,,,,00018,001,2026-01-20_14h57.56.200,MST_task,2024.2.0,59.9251654556009,2026-01-20 14h58.12.859873 +0530,
,Objects\105a.jpg,152,0,153,,,,,,,f,1.086009999999078,0.20779230000334792,None,,,,,,153,0,152,2087.6374388999975,,,,,,,,,,,,,,,,,,,,,,,2087.6218775000016,2087.6374388999975,2088.1212667999935,,,,,,,,,,,,,,2088.1573065999983,,,,,,,,,,2088.1535783,2088.1573065999983,2088.1573065999983,2088.1573065999983,2091.1375738999923,f,1.086009999999078,0.20779230000334792,2091.1376987999975,2091.1377350999974,None,,,,,,,,,,,,,,,,,00018,001,2026-01-20_14h57.56.200,MST_task,2024.2.0,59.9251654556009,2026-01-20 14h58.12.859873 +0530,
,Objects\024a.jpg,153,0,154,,,,,,,f,0.8017238000029465,0.19223290000809357,None,,,,,,154,0,153,2091.153855800003,,,,,,,,,,,,,,,,,,,,,,,2091.137920699999,2091.153855800003,2091.6380051000015,,,,,,,,,,,,,,2091.680808899997,,,,,,,,,,2091.676878500002,2091.680808899997,2091.680808899997,2091.680808899997,2094.654461600003,f,0.8017238000029465,0.19223290000809357,2094.654655499995,2094.6546988000046,None,,,,,,,,,,,,,,,,,00018,001,2026-01-20_14h57.56.200,MST_task,2024.2.0,59.9251654556009,2026-01-20 14h58.12.859873 +0530,
,Scenes\016a.jpg,154,0,155,,,,,,,j,0.5940420999977505,0.15208390000043437,None,,,,,,155,0,154,2094.670276399993,,,,,,,,,,,,,,,,,,,,,,,2094.6549583000015,2094.670276399993,2095.154708599992,,,,,,,,,,,,,,2095.1917698000034,,,,,,,,,,2095.1880900999968,2095.1917698000034,2095.1917698000034,2095.1917698000034,2098.1708938999946,j,0.5940420999977505,0.15208390000043437,2098.171121499996,2098.171187999993,None,,,,,,,,,,,,,,,,,00018,001,2026-01-20_14h57.56.200,MST_task,2024.2.0,59.9251654556009,2026-01-20 14h58.12.859873 +0530,
,Scenes\071a.jpg,155,0,156,,,,,,,j,2.4111369000020204,0.20912489999318495,None,,,,,,156,0,155,2098.186898999993,,,,,,,,,,,,,,,,,,,,,,,2098.171561299998,2098.186898999993,2098.6712468999904,,,,,,,,,,,,,,2098.7105362,,,,,,,,,,2098.707047899996,2098.7105362,2098.7105362,2098.7105362,2101.687355599992,j,2.4111369000020204,0.20912489999318495,2101.6875063000043,2101.687548499991,None,,,,,,,,,,,,,,,,,00018,001,2026-01-20_14h57.56.200,MST_task,2024.2.0,59.9251654556009,2026-01-20 14h58.12.859873 +0530,
,Scenes\011a.jpg,156,0,157,,,,,,,j,1.471562199993059,0.15263540000887588,None,,,,,,157,0,156,2101.703604800001,,,,,,,,,,,,,,,,,,,,,,,2101.6877435999922,2101.703604800001,2102.1884709000005,,,,,,,,,,,,,,2102.234932499996,,,,,,,,,,2102.231374199997,2102.234932499996,2102.234932499996,2102.234932499996,2105.2041437000007,j,1.471562199993059,0.15263540000887588,2105.2043627999956,2105.2044045999937,None,,,,,,,,,,,,,,,,,00018,001,2026-01-20_14h57.56.200,MST_task,2024.2.0,59.9251654556009,2026-01-20 14h58.12.859873 +0530,
,Scenes\107a.jpg,157,0,158,,,,,,,j,2.521655299991835,0.11993440000514966,None,,,,,,158,0,157,2105.220312599995,,,,,,,,,,,,,,,,,,,,,,,2105.2046547999926,2105.220312599995,2105.7045620999997,,,,,,,,,,,,,,2105.744805800001,,,,,,,,,,2105.741407499998,2105.744805800001,2105.744805800001,2105.744805800001,2108.7210798000015,j,2.521655299991835,0.11993440000514966,2108.7211970999924,2108.7212322999985,None,,,,,,,,,,,,,,,,,00018,001,2026-01-20_14h57.56.200,MST_task,2024.2.0,59.9251654556009,2026-01-20 14h58.12.859873 +0530,
,Scenes\013a.jpg,158,0,159,,,,,,,j,0.8586263000033796,0.15261349998763762,None,,,,,,159,0,158,2108.7371302999964,,,,,,,,,,,,,,,,,,,,,,,2108.721404199998,2108.7371302999964,2109.2212373999937,,,,,,,,,,,,,,2109.2792854,,,,,,,,,,2109.2761003999913,2109.2792854,2109.2792854,2109.2792854,2112.237468799998,j,0.8586263000033796,0.15261349998763762,2112.2376285999926,2112.2376758000028,None,,,,,,,,,,,,,,,,,00018,001,2026-01-20_14h57.56.200,MST_task,2024.2.0,59.9251654556009,2026-01-20 14h58.12.859873 +0530,
,Scenes\159a.jpg,159,0,160,,,,,,,j,1.880396100008511,0.15236110000114422,None,,,,,,160,0,159,2112.253753900004,,,,,,,,,,,,,,,,,,,,,,,2112.237971800001,2112.253753900004,2112.7380733000027,,,,,,,,,,,,,,2112.7860855000035,,,,,,,,,,2112.7823116999934,2112.7860855000035,2112.7860855000035,2112.7860855000035,2115.754852600003,j,1.880396100008511,0.15236110000114422,2115.7549886999914,2115.7550293999957,None,,,,,,,,,,,,,,,,,00018,001,2026-01-20_14h57.56.200,MST_task,2024.2.0,59.9251654556009,2026-01-20 14h58.12.859873 +0530,
,Scenes\119a.jpg,160,0,161,,,,,,,j,0.6002799999987474,0.16832029999932274,None,,,,,,161,0,160,2115.770315300004,,,,,,,,,,,,,,,,,,,,,,,2115.7552787000022,2115.770315300004,2116.2549740999966,,,,,,,,,,,,,,2116.2982275999966,,,,,,,,,,2116.295051699999,2116.2982275999966,2116.2982275999966,2116.2982275999966,2119.270464000001,j,0.6002799999987474,0.16832029999932274,2119.2705963000044,2119.2706316999975,None,,,,,,,,,,,,,,,,,00018,001,2026-01-20_14h57.56.200,MST_task,2024.2.0,59.9251654556009,2026-01-20 14h58.12.859873 +0530,
,Objects\171a.jpg,161,0,162,,,,,,,f,0.761879300000146,0.2244916000054218,None,,,,,,162,0,161,2119.2873323999956,,,,,,,,,,,,,,,,,,,,,,,2119.270844899991,2119.2873323999956,2119.7708185999945,,,,,,,,,,,,,,,,,,,,,,,,2119.8042838999972,2119.808241599996,2119.808241599996,2119.808241599996,2122.7876969999925,f,0.761879300000146,0.2244916000054218,2122.7878771999967,2122.7879269999976,None,,,,,,,,,,,,,,,,,00018,001,2026-01-20_14h57.56.200,MST_task,2024.2.0,59.9251654556009,2026-01-20 14h58.12.859873 +0530,
,Objects\003a.jpg,162,0,163,,,,,,,f,1.9844541999918874,0.19179840000288095,None,,,,,,163,0,162,2122.803621400002,,,,,,,,,,,,,,,,,,,,,,,2122.788213699998,2122.803621400002,2123.287978099994,,,,,,,,,,,,,,2123.314471299993,,,,,,,,,,2123.3113831999945,2123.314471299993,2123.314471299993,2123.314471299993,2126.304198999991,f,1.9844541999918874,0.19179840000288095,2126.304417799998,2126.3044920999964,None,,,,,,,,,,,,,,,,,00018,001,2026-01-20_14h57.56.200,MST_task,2024.2.0,59.9251654556009,2026-01-20 14h58.12.859873 +0530,
,Objects\188a.jpg,163,0,164,,,,,,,f,0.8959235000074841,0.19192099999054335,None,,,,,,164,0,163,2126.320248399992,,,,,,,,,,,,,,,,,,,,,,,2126.304805599997,2126.320248399992,2126.8047564000008,,,,,,,,,,,,,,2126.834488499997,,,,,,,,,,2126.831603999992,2126.834488499997,2126.834488499997,2126.834488499997,2129.8210241999914,f,0.8959235000074841,0.19192099999054335,2129.8211714999925,2129.821215799995,None,,,,,,,,,,,,,,,,,00018,001,2026-01-20_14h57.56.200,MST_task,2024.2.0,59.9251654556009,2026-01-20 14h58.12.859873 +0530,
,Objects\124a.jpg,164,0,165,,,,,,,j,1.8033844000019599,0.16625989999738522,None,,,,,,165,0,164,2129.8370466999913,,,,,,,,,,,,,,,,,,,,,,,2129.821567799998,2129.8370466999913,2130.321754699995,,,,,,,,,,,,,,2130.3599740999925,,,,,,,,,,2130.3564650000044,2130.3599740999925,2130.3599740999925,2130.3599740999925,2133.3374518999917,j,1.8033844000019599,0.16625989999738522,2133.337615700002,2133.3376615000016,None,,,,,,,,,,,,,,,,,00018,001,2026-01-20_14h57.56.200,MST_task,2024.2.0,59.9251654556009,2026-01-20 14h58.12.859873 +0530,
,Objects\017a.jpg,165,0,166,,,,,,,f,1.721010399996885,0.1989876000006916,None,,,,,,166,0,165,2133.3536199999944,,,,,,,,,,,,,,,,,,,,,,,2133.3379212,2133.3536199999944,2133.8380849999958,,,,,,,,,,,,,,2133.873980999997,,,,,,,,,,2133.871118700001,2133.873980999997,2133.873980999997,2133.873980999997,2136.8540754999995,f,1.721010399996885,0.1989876000006916,2136.8542020000023,2136.854241299996,None,,,,,,,,,,,,,,,,,00018,001,2026-01-20_14h57.56.200,MST_task,2024.2.0,59.9251654556009,2026-01-20 14h58.12.859873 +0530,
,Objects\129a.jpg,166,0,167,,,,,,,f,0.84630059999472,0.15187680000963155,None,,,,,,167,0,166,2136.8701734999922,,,,,,,,,,,,,,,,,,,,,,,2136.854436499998,2136.8701734999922,2137.3545376999973,,,,,,,,,,,,,,2137.3883114999917,,,,,,,,,,2137.3851501000026,2137.3883114999917,2137.3883114999917,2137.3883114999917,2140.370703599998,f,0.84630059999472,0.15187680000963155,2140.3708347999927,2140.370873599997,None,,,,,,,,,,,,,,,,,00018,001,2026-01-20_14h57.56.200,MST_task,2024.2.0,59.9251654556009,2026-01-20 14h58.12.859873 +0530,
,Objects\072a.jpg,167,0,168,,,,,,,f,1.671141600003466,0.16765939998731483,None,,,,,,168,0,167,2140.3871496999927,,,,,,,,,,,,,,,,,,,,,,,2140.371102799996,2140.3871496999927,2140.871591999996,,,,,,,,,,,,,,2140.9158382000023,,,,,,,,,,2140.9115552000003,2140.9158382000023,2140.9158382000023,2140.9158382000023,2143.887574399996,f,1.671141600003466,0.16765939998731483,2143.8876937000023,2143.8877289999946,None,,,,,,,,,,,,,,,,,00018,001,2026-01-20_14h57.56.200,MST_task,2024.2.0,59.9251654556009,2026-01-20 14h58.12.859873 +0530,
,Scenes\036a.jpg,168,0,169,,,,,,,j,1.878116099993349,0.19219510001130402,None,,,,,,169,0,168,2143.903637700001,,,,,,,,,,,,,,,,,,,,,,,2143.8878941000003,2143.903637700001,2144.388217300002,,,,,,,,,,,,,,2144.419912199999,,,,,,,,,,2144.416954100001,2144.419912199999,2144.419912199999,2144.419912199999,2147.4040311999997,j,1.878116099993349,0.19219510001130402,2147.4042391999974,2147.4043055999937,None,,,,,,,,,,,,,,,,,00018,001,2026-01-20_14h57.56.200,MST_task,2024.2.0,59.9251654556009,2026-01-20 14h58.12.859873 +0530,
,Scenes\044a.jpg,169,0,170,,,,,,,j,2.8383160999946995,None,None,,,,,,170,0,169,2147.4201933000004,,,,,,,,,,,,,,,,,,,,,,,2147.4046161000006,2147.4201933000004,2147.9048745000036,,,,,,,,,,,,,,2147.9488524999906,,,,,,,,,,2147.944619200003,2147.9488524999906,2147.9488524999906,2147.9488524999906,2150.921158099998,j,2.8383160999946995,None,2150.9213814999966,2150.9214488,None,,,,,,,,,,,,,,,,,00018,001,2026-01-20_14h57.56.200,MST_task,2024.2.0,59.9251654556009,2026-01-20 14h58.12.859873 +0530,
,Scenes\131a.jpg,170,0,171,,,,,,,j,1.053056499993545,0.15872580000723246,None,,,,,,171,0,170,2150.9371543000016,,,,,,,,,,,,,,,,,,,,,,,2150.9218793000036,2150.9371543000016,2151.42130229999,,,,,,,,,,,,,,2151.4619089999906,,,,,,,,,,2151.457747399996,2151.4619089999906,2151.4619089999906,2151.4619089999906,2154.4376671999926,j,1.053056499993545,0.15872580000723246,2154.4378792999923,2154.4379469999985,None,,,,,,,,,,,,,,,,,00018,001,2026-01-20_14h57.56.200,MST_task,2024.2.0,59.9251654556009,2026-01-20 14h58.12.859873 +0530,
,Scenes\033a.jpg,171,0,172,,,,,,,j,0.8272280999954091,0.16787119999935385,None,,,,,,172,0,171,2154.453733000002,,,,,,,,,,,,,,,,,,,,,,,2154.4381697999925,2154.453733000002,2154.9379618999956,,,,,,,,,,,,,,2154.9677604000026,,,,,,,,,,2154.9647998,2154.9677604000026,2154.9677604000026,2154.9677604000026,2157.954176799991,j,0.8272280999954091,0.16787119999935385,2157.954361099997,2157.954402100004,None,,,,,,,,,,,,,,,,,00018,001,2026-01-20_14h57.56.200,MST_task,2024.2.0,59.9251654556009,2026-01-20 14h58.12.859873 +0530,
,Scenes\134a.jpg,172,0,173,,,,,,,j,1.578032899997197,0.14519140000629704,None,,,,,,173,0,172,2157.970518000002,,,,,,,,,,,,,,,,,,,,,,,2157.9545980999974,2157.970518000002,2158.4549573999975,,,,,,,,,,,,,,2158.4957914999977,,,,,,,,,,2158.492615199997,2158.4957914999977,2158.4957914999977,2158.4957914999977,2161.4707796000002,j,1.578032899997197,0.14519140000629704,2161.4709440000006,2161.4709895999986,None,,,,,,,,,,,,,,,,,00018,001,2026-01-20_14h57.56.200,MST_task,2024.2.0,59.9251654556009,2026-01-20 14h58.12.859873 +0530,
,Scenes\080a.jpg,173,0,174,,,,,,,j,1.5561753000074532,0.18311279999034014,None,,,,,,174,0,173,2161.487156000003,,,,,,,,,,,,,,,,,,,,,,,2161.471259999991,2161.487156000003,2161.9712961999903,,,,,,,,,,,,,,2162.0063351999997,,,,,,,,,,2162.002812299994,2162.0063351999997,2162.0063351999997,2162.0063351999997,2164.987446500003,j,1.5561753000074532,0.18311279999034014,2164.987661299994,2164.987729699991,None,,,,,,,,,,,,,,,,,00018,001,2026-01-20_14h57.56.200,MST_task,2024.2.0,59.9251654556009,2026-01-20 14h58.12.859873 +0530,
,Scenes\129a.jpg,174,0,175,,,,,,,j,2.1601983000000473,0.1598011000023689,None,,,,,,175,0,174,2165.003779699997,,,,,,,,,,,,,,,,,,,,,,,2164.9881319999986,2165.003779699997,2165.487978799996,,,,,,,,,,,,,,2165.5299535999948,,,,,,,,,,2165.526475699997,2165.5299535999948,2165.5299535999948,2165.5299535999948,2168.5041043999954,j,2.1601983000000473,0.1598011000023689,2168.5042456999945,2168.504284800001,None,,,,,,,,,,,,,,,,,00018,001,2026-01-20_14h57.56.200,MST_task,2024.2.0,59.9251654556009,2026-01-20 14h58.12.859873 +0530,
