thisN,thisTrialN,thisRepN,key_resp_3.keys,key_resp_3.rt,key_resp_3.duration,trials.thisRepN,trials.thisTrialN,trials.thisN,thisRow.t,notes,intro_page.started,text.started,key_resp.started,intro_page.stopped,key_resp.keys,key_resp.rt,key_resp.duration,instructions.started,text_2.started,key_resp_2.started,instructions.stopped,key_resp_2.keys,key_resp_2.rt,key_resp_2.duration,demo1.started,image_1.started,image_2.started,text_7.started,key_resp_6.started,text_9.started,demo1.stopped,key_resp_6.keys,key_resp_6.rt,key_resp_6.duration,demo2.started,image_5.started,image_6.started,text_11.started,text_12.started,key_resp_8.started,demo2.stopped,key_resp_8.keys,key_resp_8.rt,key_resp_8.duration,demo_conclusion.started,text_13.started,key_resp_9.started,demo_conclusion.stopped,key_resp_9.keys,key_resp_9.rt,key_resp_9.duration,start_test.started,text_6.started,key_resp_5.started,start_test.stopped,key_resp_5.keys,key_resp_5.rt,key_resp_5.duration,ISI.started,text_4.started,text_4.stopped,ISI.stopped,routine_1.started,image.started,text_3.started,key_resp_3.started,routine_1.stopped,image_path,position_of_stimuli,trials.key_resp_3.keys,trials.key_resp_3.rt,trials.key_resp_3.duration,End_page.started,text_5.started,key_resp_4.started,End_page.stopped,key_resp_4.keys,key_resp_4.rt,key_resp_4.duration,participant,session,date,expName,psychopyVersion,frameRate,expStart,
,,,,,,,,,,,0.0020196000000396452,0.004006399999980204,0.004006399999980204,2.541308399999707,space,2.4826140000000123,None,,,,,,,,,,,,,,,,,,,,,,,,,,,,,,,,,,,,,,,,,,,,,,,,,,,,,,,,,,,,,,,00013,001,2025-11-15_17h55.05.651,MST_test,2024.2.0,59.78083151553864,2025-11-15 17h55.16.235331 +0530,
,,,,,,,,,,,,,,,,,,2.5413423999998486,2.549340199999733,2.549340199999733,11.48763259999987,space,8.92114219999985,None,,,,,,,,,,,,,,,,,,,,,,,,,,,,,,,,,,,,,,,,,,,,,,,,,,,,,,,,00013,001,2025-11-15_17h55.05.651,MST_test,2024.2.0,59.78083151553864,2025-11-15 17h55.16.235331 +0530,
,,,,,,,,,,,,,,,,,,,,,,,,,11.48773409999967,11.50422380000009,11.50422380000009,11.50422380000009,11.50422380000009,11.50422380000009,16.705193699999654,space,5.19041580000021,None,,,,,,,,,,,,,,,,,,,,,,,,,,,,,,,,,,,,,,,,,,,,,,00013,001,2025-11-15_17h55.05.651,MST_test,2024.2.0,59.78083151553864,2025-11-15 17h55.16.235331 +0530,
,,,,,,,,,,,,,,,,,,,,,,,,,,,,,,,,,,,16.705297199999677,16.719601199999943,16.719601199999943,16.719601199999943,16.719601199999943,16.719601199999943,18.72128960000009,space,1.9987438999996812,None,,,,,,,,,,,,,,,,,,,,,,,,,,,,,,,,,,,,00013,001,2025-11-15_17h55.05.651,MST_test,2024.2.0,59.78083151553864,2025-11-15 17h55.16.235331 +0530,
,,,,,,,,,,,,,,,,,,,,,,,,,,,,,,,,,,,,,,,,,,,,,18.72137449999991,18.735737099999824,18.735737099999824,32.53789719999986,space,13.799237400000038,None,,,,,,,,,,,,,,,,,,,,,,,,,,,,,00013,001,2025-11-15_17h55.05.651,MST_test,2024.2.0,59.78083151553864,2025-11-15 17h55.16.235331 +0530,
,,,,,,,,,,,,,,,,,,,,,,,,,,,,,,,,,,,,,,,,,,,,,,,,,,,,32.53805049999983,32.55218190000005,32.55218190000005,61.02125249999972,space,28.46299910000016,None,,,,,,,,,,,,,,,,,,,,,,00013,001,2025-11-15_17h55.05.651,MST_test,2024.2.0,59.78083151553864,2025-11-15 17h55.16.235331 +0530,
0,0,1,n,2.1391185000002224,None,1,0,0,61.03518309999981,,,,,,,,,,,,,,,,,,,,,,,,,,,,,,,,,,,,,,,,,,,,,,,,,,61.029770799999824,61.03518309999981,61.547309999999925,61.52020689999972,61.54452809999975,61.547309999999925,61.547309999999925,61.547309999999925,63.68843990000005,Foils\121a.jpg,none,n,2.1391185000002224,None,,,,,,,,00013,001,2025-11-15_17h55.05.651,MST_test,2024.2.0,59.78083151553864,2025-11-15 17h55.16.235331 +0530,
1,0,2,o,3.7057426999999734,None,2,0,1,63.70206579999967,,,,,,,,,,,,,,,,,,,,,,,,,,,,,,,,,,,,,,,,,,,,,,,,,,63.68880009999975,63.70206579999967,64.20473450000009,64.18678619999991,64.20226049999974,64.20473450000009,64.20473450000009,64.20473450000009,67.92099579999967,Objects\122a.jpg,mid,o,3.7057426999999734,None,,,,,,,,00013,001,2025-11-15_17h55.05.651,MST_test,2024.2.0,59.78083151553864,2025-11-15 17h55.16.235331 +0530,
2,0,3,o,5.285149700000147,None,3,0,2,67.9354771999997,,,,,,,,,,,,,,,,,,,,,,,,,,,,,,,,,,,,,,,,,,,,,,,,,,67.92129290000003,67.9354771999997,68.44185259999995,68.42027329999974,68.43936919999987,68.44185259999995,68.44185259999995,68.44185259999995,73.73749029999999,Objects\175b.jpg,post,o,5.285149700000147,None,,,,,,,,00013,001,2025-11-15_17h55.05.651,MST_test,2024.2.0,59.78083151553864,2025-11-15 17h55.16.235331 +0530,
3,0,4,s,2.4371258000001035,None,4,0,3,73.75193119999994,,,,,,,,,,,,,,,,,,,,,,,,,,,,,,,,,,,,,,,,,,,,,,,,,,73.73782279999978,73.75193119999994,74.25769020000007,74.23681859999988,74.25486409999985,74.25769020000007,74.25769020000007,74.25769020000007,76.70460079999975,Scenes\039a.jpg,post,s,2.4371258000001035,None,,,,,,,,00013,001,2025-11-15_17h55.05.651,MST_test,2024.2.0,59.78083151553864,2025-11-15 17h55.16.235331 +0530,
4,0,5,s,9.245346899999731,None,5,0,4,76.71891579999965,,,,,,,,,,,,,,,,,,,,,,,,,,,,,,,,,,,,,,,,,,,,,,,,,,76.70502510000006,76.71891579999965,77.2264812999997,77.20306389999996,77.2242097999997,77.2264812999997,77.2264812999997,77.2264812999997,86.48771429999988,Objects\058b.jpg,mid,s,9.245346899999731,None,,,,,,,,00013,001,2025-11-15_17h55.05.651,MST_test,2024.2.0,59.78083151553864,2025-11-15 17h55.16.235331 +0530,
5,0,6,s,3.0410156999996616,None,6,0,5,86.50201149999975,,,,,,,,,,,,,,,,,,,,,,,,,,,,,,,,,,,,,,,,,,,,,,,,,,86.48809129999972,86.50201149999975,87.01432569999997,86.98647269999992,87.01127659999975,87.01432569999997,87.01432569999997,87.01432569999997,90.06961359999968,Scenes\030a.jpg,mid,s,3.0410156999996616,None,,,,,,,,00013,001,2025-11-15_17h55.05.651,MST_test,2024.2.0,59.78083151553864,2025-11-15 17h55.16.235331 +0530,
6,0,7,s,3.8389563000000635,None,7,0,6,90.08534669999972,,,,,,,,,,,,,,,,,,,,,,,,,,,,,,,,,,,,,,,,,,,,,,,,,,90.06971619999968,90.08534669999972,90.5918542999998,90.57027349999998,90.58873820000008,90.5918542999998,90.5918542999998,90.5918542999998,94.43793749999986,Objects\030b.jpg,post,s,3.8389563000000635,None,,,,,,,,00013,001,2025-11-15_17h55.05.651,MST_test,2024.2.0,59.78083151553864,2025-11-15 17h55.16.235331 +0530,
7,0,8,o,2.358332700000119,None,8,0,7,94.45214839999971,,,,,,,,,,,,,,,,,,,,,,,,,,,,,,,,,,,,,,,,,,,,,,,,,,94.43831999999975,94.45214839999971,94.95224280000002,94.93686019999996,94.94538310000007,94.95224280000002,94.95224280000002,94.95224280000002,97.32088889999977,Objects\008a.jpg,pre,o,2.358332700000119,None,,,,,,,,00013,001,2025-11-15_17h55.05.651,MST_test,2024.2.0,59.78083151553864,2025-11-15 17h55.16.235331 +0530,
8,0,9,n,1.7503174000003128,None,9,0,8,97.3354789,,,,,,,,,,,,,,,,,,,,,,,,,,,,,,,,,,,,,,,,,,,,,,,,,,97.32120429999986,97.3354789,97.84008270000004,97.82015139999976,97.83742570000004,97.84008270000004,97.84008270000004,97.84008270000004,99.60445140000002,Foils\scenes12.jpg,none,n,1.7503174000003128,None,,,,,,,,00013,001,2025-11-15_17h55.05.651,MST_test,2024.2.0,59.78083151553864,2025-11-15 17h55.16.235331 +0530,
9,0,10,n,2.7858533000003263,None,10,0,9,99.61883669999997,,,,,,,,,,,,,,,,,,,,,,,,,,,,,,,,,,,,,,,,,,,,,,,,,,99.60482640000009,99.61883669999997,100.13336459999982,100.10329559999991,100.13037759999997,100.13336459999982,100.13336459999982,100.13336459999982,102.9212751,Foils\scenes28.jpg,none,n,2.7858533000003263,None,,,,,,,,00013,001,2025-11-15_17h55.05.651,MST_test,2024.2.0,59.78083151553864,2025-11-15 17h55.16.235331 +0530,
10,0,11,s,2.061996800000088,None,11,0,10,102.93547020000005,,,,,,,,,,,,,,,,,,,,,,,,,,,,,,,,,,,,,,,,,,,,,,,,,,102.92166039999984,102.93547020000005,103.44076949999999,103.42003849999992,103.43729489999987,103.44076949999999,103.44076949999999,103.44076949999999,105.50465450000002,Objects\184b.jpg,pre,s,2.061996800000088,None,,,,,,,,00013,001,2025-11-15_17h55.05.651,MST_test,2024.2.0,59.78083151553864,2025-11-15 17h55.16.235331 +0530,
11,0,12,n,2.280262899999798,None,12,0,11,105.51899400000002,,,,,,,,,,,,,,,,,,,,,,,,,,,,,,,,,,,,,,,,,,,,,,,,,,105.50506159999986,105.51899400000002,106.02248699999973,106.00310069999978,106.02008909999995,106.02248699999973,106.02248699999973,106.02248699999973,108.30475479999996,Foils\020b.jpg,none,n,2.280262899999798,None,,,,,,,,00013,001,2025-11-15_17h55.05.651,MST_test,2024.2.0,59.78083151553864,2025-11-15 17h55.16.235331 +0530,
12,0,13,n,1.5113618000000315,None,13,0,12,108.31879939999999,,,,,,,,,,,,,,,,,,,,,,,,,,,,,,,,,,,,,,,,,,,,,,,,,,108.30515539999988,108.31879939999999,108.82329759999993,108.8031231,108.82089199999973,108.82329759999993,108.82329759999993,108.82329759999993,110.33782219999966,Foils\093b.jpg,none,n,1.5113618000000315,None,,,,,,,,00013,001,2025-11-15_17h55.05.651,MST_test,2024.2.0,59.78083151553864,2025-11-15 17h55.16.235331 +0530,
13,0,14,s,2.2710486000000856,None,14,0,13,110.3520352999999,,,,,,,,,,,,,,,,,,,,,,,,,,,,,,,,,,,,,,,,,,,,,,,,,,110.33817689999978,110.3520352999999,110.86335159999999,110.83671120000008,110.8603576999999,110.86335159999999,110.86335159999999,110.86335159999999,113.13836859999992,Scenes\047b.jpg,mid,s,2.2710486000000856,None,,,,,,,,00013,001,2025-11-15_17h55.05.651,MST_test,2024.2.0,59.78083151553864,2025-11-15 17h55.16.235331 +0530,
14,0,15,s,2.3641781000001174,None,15,0,14,113.15201339999976,,,,,,,,,,,,,,,,,,,,,,,,,,,,,,,,,,,,,,,,,,,,,,,,,,113.13878959999965,113.15201339999976,113.6582629999998,113.63693289999992,113.65518659999998,113.6582629999998,113.6582629999998,113.6582629999998,116.03795820000005,Scenes\136a.jpg,post,s,2.3641781000001174,None,,,,,,,,00013,001,2025-11-15_17h55.05.651,MST_test,2024.2.0,59.78083151553864,2025-11-15 17h55.16.235331 +0530,
15,0,16,o,1.7394819000001007,None,16,0,15,116.05214320000005,,,,,,,,,,,,,,,,,,,,,,,,,,,,,,,,,,,,,,,,,,,,,,,,,,116.03836539999975,116.05214320000005,116.55508569999984,116.5367739999997,116.55214079999996,116.55508569999984,116.55508569999984,116.55508569999984,118.30429779999986,Objects\170a.jpg,pre,o,1.7394819000001007,None,,,,,,,,00013,001,2025-11-15_17h55.05.651,MST_test,2024.2.0,59.78083151553864,2025-11-15 17h55.16.235331 +0530,
16,0,17,o,1.5150073999998313,None,17,0,16,118.31876899999997,,,,,,,,,,,,,,,,,,,,,,,,,,,,,,,,,,,,,,,,,,,,,,,,,,118.30468259999998,118.31876899999997,118.81980189999967,118.80295350000006,118.81750489999968,118.81980189999967,118.81980189999967,118.81980189999967,120.33795039999995,Objects\163a.jpg,pre,o,1.5150073999998313,None,,,,,,,,00013,001,2025-11-15_17h55.05.651,MST_test,2024.2.0,59.78083151553864,2025-11-15 17h55.16.235331 +0530,
17,0,18,o,2.081649599999764,None,18,0,17,120.35217809999995,,,,,,,,,,,,,,,,,,,,,,,,,,,,,,,,,,,,,,,,,,,,,,,,,,120.33830229999967,120.35217809999995,120.85299020000002,120.83669359999976,120.85013529999969,120.85299020000002,120.85299020000002,120.85299020000002,122.93790760000002,Scenes\071a.jpg,mid,o,2.081649599999764,None,,,,,,,,00013,001,2025-11-15_17h55.05.651,MST_test,2024.2.0,59.78083151553864,2025-11-15 17h55.16.235331 +0530,
18,0,19,s,3.5377997999999025,None,19,0,18,122.9521738999997,,,,,,,,,,,,,,,,,,,,,,,,,,,,,,,,,,,,,,,,,,,,,,,,,,122.93828919999987,122.9521738999997,123.46135529999992,123.43675069999972,123.45811989999993,123.46135529999992,123.46135529999992,123.46135529999992,127.00480289999996,Scenes\035a.jpg,post,s,3.5377997999999025,None,,,,,,,,00013,001,2025-11-15_17h55.05.651,MST_test,2024.2.0,59.78083151553864,2025-11-15 17h55.16.235331 +0530,
19,0,20,n,3.0438069000001633,None,20,0,19,127.0189504,,,,,,,,,,,,,,,,,,,,,,,,,,,,,,,,,,,,,,,,,,,,,,,,,,127.00520559999995,127.0189504,127.52302809999992,127.50343309999971,127.51998479999975,127.52302809999992,127.52302809999992,127.52302809999992,130.5713622999997,Foils\scenes14.jpg,none,n,3.0438069000001633,None,,,,,,,,00013,001,2025-11-15_17h55.05.651,MST_test,2024.2.0,59.78083151553864,2025-11-15 17h55.16.235331 +0530,
20,0,21,o,1.457287499999893,None,21,0,20,130.58557089999977,,,,,,,,,,,,,,,,,,,,,,,,,,,,,,,,,,,,,,,,,,,,,,,,,,130.5717313,130.58557089999977,131.08595560000003,131.0700597,131.07858099999976,131.08595560000003,131.08595560000003,131.08595560000003,132.55420849999973,Objects\094a.jpg,post,o,1.457287499999893,None,,,,,,,,00013,001,2025-11-15_17h55.05.651,MST_test,2024.2.0,59.78083151553864,2025-11-15 17h55.16.235331 +0530,
21,0,22,n,1.9711944000000585,None,22,0,21,132.56898499999988,,,,,,,,,,,,,,,,,,,,,,,,,,,,,,,,,,,,,,,,,,,,,,,,,,132.55460709999988,132.56898499999988,133.07511909999994,133.05298479999965,133.07218479999983,133.07511909999994,133.07511909999994,133.07511909999994,135.05423440000004,Scenes\132b.jpg,pre,n,1.9711944000000585,None,,,,,,,,00013,001,2025-11-15_17h55.05.651,MST_test,2024.2.0,59.78083151553864,2025-11-15 17h55.16.235331 +0530,
22,0,23,o,2.4914528999997856,None,23,0,22,135.0689183999998,,,,,,,,,,,,,,,,,,,,,,,,,,,,,,,,,,,,,,,,,,,,,,,,,,135.05462379999972,135.0689183999998,135.57933079999975,135.55341700000008,135.5762347,135.57933079999975,135.57933079999975,135.57933079999975,138.08747159999984,Scenes\107b.jpg,pre,o,2.4914528999997856,None,,,,,,,,00013,001,2025-11-15_17h55.05.651,MST_test,2024.2.0,59.78083151553864,2025-11-15 17h55.16.235331 +0530,
23,0,24,o,1.610578599999826,None,24,0,23,138.1021651000001,,,,,,,,,,,,,,,,,,,,,,,,,,,,,,,,,,,,,,,,,,,,,,,,,,138.0878617999997,138.1021651000001,138.61227329999974,138.5867420999998,138.60907789999965,138.61227329999974,138.61227329999974,138.61227329999974,140.2383319999999,Scenes\176a.jpg,pre,o,1.610578599999826,None,,,,,,,,00013,001,2025-11-15_17h55.05.651,MST_test,2024.2.0,59.78083151553864,2025-11-15 17h55.16.235331 +0530,
24,0,25,o,1.6647671999999147,None,25,0,24,140.2522160999997,,,,,,,,,,,,,,,,,,,,,,,,,,,,,,,,,,,,,,,,,,,,,,,,,,140.23872529999971,140.2522160999997,140.75783049999973,140.7368523,140.75466619999997,140.75783049999973,140.75783049999973,140.75783049999973,142.43808020000006,Objects\042b.jpg,mid,o,1.6647671999999147,None,,,,,,,,00013,001,2025-11-15_17h55.05.651,MST_test,2024.2.0,59.78083151553864,2025-11-15 17h55.16.235331 +0530,
25,0,26,o,1.3157577000001766,None,26,0,25,142.45220040000004,,,,,,,,,,,,,,,,,,,,,,,,,,,,,,,,,,,,,,,,,,,,,,,,,,142.43847289999985,142.45220040000004,142.9546508999997,142.9367311000001,142.95209079999995,142.9546508999997,142.9546508999997,142.9546508999997,144.28781679999975,Objects\158a.jpg,post,o,1.3157577000001766,None,,,,,,,,00013,001,2025-11-15_17h55.05.651,MST_test,2024.2.0,59.78083151553864,2025-11-15 17h55.16.235331 +0530,
26,0,27,s,2.3223880999998983,None,27,0,26,144.30212959999972,,,,,,,,,,,,,,,,,,,,,,,,,,,,,,,,,,,,,,,,,,,,,,,,,,144.28820899999982,144.30212959999972,144.83759199999986,144.7867357,144.83345069999996,144.83759199999986,144.83759199999986,144.83759199999986,147.17080080000005,Foils\scenes15.jpg,none,s,2.3223880999998983,None,,,,,,,,00013,001,2025-11-15_17h55.05.651,MST_test,2024.2.0,59.78083151553864,2025-11-15 17h55.16.235331 +0530,
27,0,28,n,5.436762700000145,None,28,0,27,147.18560639999987,,,,,,,,,,,,,,,,,,,,,,,,,,,,,,,,,,,,,,,,,,,,,,,,,,147.17115479999984,147.18560639999987,147.69784889999983,147.6700206999999,147.69537279999986,147.69784889999983,147.69784889999983,147.69784889999983,153.13825049999969,Foils\101b.jpg,none,n,5.436762700000145,None,,,,,,,,00013,001,2025-11-15_17h55.05.651,MST_test,2024.2.0,59.78083151553864,2025-11-15 17h55.16.235331 +0530,
28,0,29,s,2.4623067000002266,None,29,0,28,153.15223250000008,,,,,,,,,,,,,,,,,,,,,,,,,,,,,,,,,,,,,,,,,,,,,,,,,,153.13868309999998,153.15223250000008,153.65594489999967,153.63664229999995,153.65354009999965,153.65594489999967,153.65594489999967,153.65594489999967,156.12106099999983,Objects\101b.jpg,mid,s,2.4623067000002266,None,,,,,,,,00013,001,2025-11-15_17h55.05.651,MST_test,2024.2.0,59.78083151553864,2025-11-15 17h55.16.235331 +0530,
29,0,30,s,1.6599670999999034,None,30,0,29,156.13554909999993,,,,,,,,,,,,,,,,,,,,,,,,,,,,,,,,,,,,,,,,,,,,,,,,,,156.12135369999987,156.13554909999993,156.64236889999984,156.61995519999982,156.63939949999985,156.64236889999984,156.64236889999984,156.64236889999984,158.30508629999986,Scenes\098a.jpg,pre,s,1.6599670999999034,None,,,,,,,,00013,001,2025-11-15_17h55.05.651,MST_test,2024.2.0,59.78083151553864,2025-11-15 17h55.16.235331 +0530,
30,0,31,s,1.9349365000002763,None,31,0,30,158.31880049999972,,,,,,,,,,,,,,,,,,,,,,,,,,,,,,,,,,,,,,,,,,,,,,,,,,158.30563669999992,158.31880049999972,158.82333919999974,158.8034788,158.82044199999973,158.82333919999974,158.82333919999974,158.82333919999974,160.7710815999999,Objects\159b.jpg,mid,s,1.9349365000002763,None,,,,,,,,00013,001,2025-11-15_17h55.05.651,MST_test,2024.2.0,59.78083151553864,2025-11-15 17h55.16.235331 +0530,
31,0,32,n,1.10290329999998,None,32,0,31,160.7855724000001,,,,,,,,,,,,,,,,,,,,,,,,,,,,,,,,,,,,,,,,,,,,,,,,,,160.77145539999992,160.7855724000001,161.51204030000008,161.26953299999968,161.50589910000008,161.51204030000008,161.51204030000008,161.51204030000008,162.62182099999973,Foils\scenes26.jpg,none,n,1.10290329999998,None,,,,,,,,00013,001,2025-11-15_17h55.05.651,MST_test,2024.2.0,59.78083151553864,2025-11-15 17h55.16.235331 +0530,
32,0,33,n,0.8942345000000387,None,33,0,32,162.63547389999985,,,,,,,,,,,,,,,,,,,,,,,,,,,,,,,,,,,,,,,,,,,,,,,,,,162.62221389999968,162.63547389999985,163.16082469999992,163.11966940000002,163.1582970999998,163.16082469999992,163.16082469999992,163.16082469999992,164.0708408999999,Foils\scenes19.jpg,none,n,0.8942345000000387,None,,,,,,,,00013,001,2025-11-15_17h55.05.651,MST_test,2024.2.0,59.78083151553864,2025-11-15 17h55.16.235331 +0530,
33,0,34,s,1.5231912999997803,None,34,0,33,164.08544349999966,,,,,,,,,,,,,,,,,,,,,,,,,,,,,,,,,,,,,,,,,,,,,,,,,,164.07124669999985,164.08544349999966,164.58792229999972,164.56968259999985,164.58550639999976,164.58792229999972,164.58792229999972,164.58792229999972,166.12069759999986,Objects\031a.jpg,pre,s,1.5231912999997803,None,,,,,,,,00013,001,2025-11-15_17h55.05.651,MST_test,2024.2.0,59.78083151553864,2025-11-15 17h55.16.235331 +0530,
34,0,35,o,1.490314699999999,None,35,0,34,166.13539330000003,,,,,,,,,,,,,,,,,,,,,,,,,,,,,,,,,,,,,,,,,,,,,,,,,,166.12105679999968,166.13539330000003,166.63720179999973,166.61959869999964,166.63482969999995,166.63720179999973,166.63720179999973,166.63720179999973,168.13673500000004,Objects\183a.jpg,pre,o,1.490314699999999,None,,,,,,,,00013,001,2025-11-15_17h55.05.651,MST_test,2024.2.0,59.78083151553864,2025-11-15 17h55.16.235331 +0530,
35,0,36,o,1.7612632999998823,None,36,0,35,168.15201009999964,,,,,,,,,,,,,,,,,,,,,,,,,,,,,,,,,,,,,,,,,,,,,,,,,,168.13697739999998,168.15201009999964,168.6613640999999,168.63684889999968,168.65844479999987,168.6613640999999,168.6613640999999,168.6613640999999,170.43647779999992,Scenes\126b.jpg,pre,o,1.7612632999998823,None,,,,,,,,00013,001,2025-11-15_17h55.05.651,MST_test,2024.2.0,59.78083151553864,2025-11-15 17h55.16.235331 +0530,
36,0,37,o,3.9357037999998283,None,37,0,36,170.45197919999964,,,,,,,,,,,,,,,,,,,,,,,,,,,,,,,,,,,,,,,,,,,,,,,,,,170.43669869999985,170.45197919999964,170.95962729999974,170.93658049999976,170.95647000000008,170.95962729999974,170.95962729999974,170.95962729999974,174.90470719999985,Scenes\119a.jpg,mid,o,3.9357037999998283,None,,,,,,,,00013,001,2025-11-15_17h55.05.651,MST_test,2024.2.0,59.78083151553864,2025-11-15 17h55.16.235331 +0530,
37,0,38,o,1.2028089999998883,None,38,0,37,174.9185908999998,,,,,,,,,,,,,,,,,,,,,,,,,,,,,,,,,,,,,,,,,,,,,,,,,,174.9050414999997,174.9185908999998,175.41934609999998,175.40320519999977,175.41211159999966,175.41934609999998,175.41934609999998,175.41934609999998,176.63740089999965,Objects\046a.jpg,mid,o,1.2028089999998883,None,,,,,,,,00013,001,2025-11-15_17h55.05.651,MST_test,2024.2.0,59.78083151553864,2025-11-15 17h55.16.235331 +0530,
38,0,39,s,1.7604169000001093,None,39,0,38,176.65204479999966,,,,,,,,,,,,,,,,,,,,,,,,,,,,,,,,,,,,,,,,,,,,,,,,,,176.6377392999998,176.65204479999966,177.1742850999999,177.13645749999978,177.17191219999995,177.1742850999999,177.1742850999999,177.1742850999999,178.93816190000007,Objects\049b.jpg,pre,s,1.7604169000001093,None,,,,,,,,00013,001,2025-11-15_17h55.05.651,MST_test,2024.2.0,59.78083151553864,2025-11-15 17h55.16.235331 +0530,
39,0,40,n,1.1505867000000762,None,40,0,39,178.95205669999996,,,,,,,,,,,,,,,,,,,,,,,,,,,,,,,,,,,,,,,,,,,,,,,,,,178.93852489999972,178.95205669999996,179.4560594999998,179.43656199999987,179.453716,179.4560594999998,179.4560594999998,179.4560594999998,180.62104739999995,Foils\034a.jpg,none,n,1.1505867000000762,None,,,,,,,,00013,001,2025-11-15_17h55.05.651,MST_test,2024.2.0,59.78083151553864,2025-11-15 17h55.16.235331 +0530,
40,0,41,s,6.793127500000082,None,41,0,40,180.63540729999977,,,,,,,,,,,,,,,,,,,,,,,,,,,,,,,,,,,,,,,,,,,,,,,,,,180.62144080000007,180.63540729999977,181.14121149999983,181.11959549999983,181.1384711999999,181.14121149999983,181.14121149999983,181.14121149999983,187.93754899999976,Scenes\065a.jpg,mid,s,6.793127500000082,None,,,,,,,,00013,001,2025-11-15_17h55.05.651,MST_test,2024.2.0,59.78083151553864,2025-11-15 17h55.16.235331 +0530,
41,0,42,o,2.063275099999828,None,42,0,41,187.95214600000008,,,,,,,,,,,,,,,,,,,,,,,,,,,,,,,,,,,,,,,,,,,,,,,,,,187.9379375999997,187.95214600000008,188.4550866999998,188.43663160000006,188.4522036999997,188.4550866999998,188.4550866999998,188.4550866999998,190.52136990000008,Objects\006a.jpg,post,o,2.063275099999828,None,,,,,,,,00013,001,2025-11-15_17h55.05.651,MST_test,2024.2.0,59.78083151553864,2025-11-15 17h55.16.235331 +0530,
42,0,43,s,1.4860614000003807,None,43,0,42,190.5353839999998,,,,,,,,,,,,,,,,,,,,,,,,,,,,,,,,,,,,,,,,,,,,,,,,,,190.52181299999984,190.5353839999998,191.0406826999997,191.01979759999995,191.03824779999968,191.0406826999997,191.0406826999997,191.0406826999997,192.5377414999998,Objects\178b.jpg,mid,s,1.4860614000003807,None,,,,,,,,00013,001,2025-11-15_17h55.05.651,MST_test,2024.2.0,59.78083151553864,2025-11-15 17h55.16.235331 +0530,
43,0,44,s,1.9662690000000111,None,44,0,43,192.55204269999967,,,,,,,,,,,,,,,,,,,,,,,,,,,,,,,,,,,,,,,,,,,,,,,,,,192.53810179999982,192.55204269999967,193.05615510000007,193.0367640999998,193.0537515000001,193.05615510000007,193.05615510000007,193.05615510000007,195.03782180000007,Objects\036b.jpg,pre,s,1.9662690000000111,None,,,,,,,,00013,001,2025-11-15_17h55.05.651,MST_test,2024.2.0,59.78083151553864,2025-11-15 17h55.16.235331 +0530,
44,0,45,o,1.2944243000001734,None,45,0,44,195.052103,,,,,,,,,,,,,,,,,,,,,,,,,,,,,,,,,,,,,,,,,,,,,,,,,,195.0381907000001,195.052103,195.55226670000002,195.5365284999998,195.5446935,195.55226670000002,195.55226670000002,195.55226670000002,196.85443299999997,Objects\130a.jpg,post,o,1.2944243000001734,None,,,,,,,,00013,001,2025-11-15_17h55.05.651,MST_test,2024.2.0,59.78083151553864,2025-11-15 17h55.16.235331 +0530,
45,0,46,o,1.7391433000002507,None,46,0,45,196.86868819999972,,,,,,,,,,,,,,,,,,,,,,,,,,,,,,,,,,,,,,,,,,,,,,,,,,196.85475300000007,196.86868819999972,197.37145329999976,197.3531899999998,197.36902740000005,197.37145329999976,197.37145329999976,197.37145329999976,199.1210833,Objects\171b.jpg,post,o,1.7391433000002507,None,,,,,,,,00013,001,2025-11-15_17h55.05.651,MST_test,2024.2.0,59.78083151553864,2025-11-15 17h55.16.235331 +0530,
46,0,47,s,1.2884195000001455,None,47,0,46,199.1354464000001,,,,,,,,,,,,,,,,,,,,,,,,,,,,,,,,,,,,,,,,,,,,,,,,,,199.1214885999998,199.1354464000001,199.63857389999976,199.6199174999997,199.63618989999986,199.63857389999976,199.63857389999976,199.63857389999976,200.9376668,Objects\113b.jpg,pre,s,1.2884195000001455,None,,,,,,,,00013,001,2025-11-15_17h55.05.651,MST_test,2024.2.0,59.78083151553864,2025-11-15 17h55.16.235331 +0530,
47,0,48,o,1.3840267000000495,None,48,0,47,200.95208319999983,,,,,,,,,,,,,,,,,,,,,,,,,,,,,,,,,,,,,,,,,,,,,,,,,,200.93798500000003,200.95208319999983,201.45434129999967,201.43658030000006,201.4519148999998,201.45434129999967,201.45434129999967,201.45434129999967,202.85412099999985,Objects\188a.jpg,mid,o,1.3840267000000495,None,,,,,,,,00013,001,2025-11-15_17h55.05.651,MST_test,2024.2.0,59.78083151553864,2025-11-15 17h55.16.235331 +0530,
48,0,49,s,1.4482874999998785,None,49,0,48,202.86873990000004,,,,,,,,,,,,,,,,,,,,,,,,,,,,,,,,,,,,,,,,,,,,,,,,,,202.8544379,202.86873990000004,203.374323,203.35357209999984,203.37201000000005,203.374323,203.374323,203.374323,204.83797959999993,Foils\066a.jpg,none,s,1.4482874999998785,None,,,,,,,,00013,001,2025-11-15_17h55.05.651,MST_test,2024.2.0,59.78083151553864,2025-11-15 17h55.16.235331 +0530,
49,0,50,o,5.4681712999999945,None,50,0,49,204.85217629999988,,,,,,,,,,,,,,,,,,,,,,,,,,,,,,,,,,,,,,,,,,,,,,,,,,204.83838319999995,204.85217629999988,205.36287989999983,205.33648399999993,205.36001499999975,205.36287989999983,205.36287989999983,205.36287989999983,210.83743860000004,Scenes\012b.jpg,mid,o,5.4681712999999945,None,,,,,,,,00013,001,2025-11-15_17h55.05.651,MST_test,2024.2.0,59.78083151553864,2025-11-15 17h55.16.235331 +0530,
50,0,51,s,3.9103407000002335,None,51,0,50,210.85200989999976,,,,,,,,,,,,,,,,,,,,,,,,,,,,,,,,,,,,,,,,,,,,,,,,,,210.8377035999997,210.85200989999976,211.3846282999998,211.3367605999997,211.38158589999966,211.3846282999998,211.3846282999998,211.3846282999998,215.30415459999995,Scenes\092b.jpg,mid,s,3.9103407000002335,None,,,,,,,,00013,001,2025-11-15_17h55.05.651,MST_test,2024.2.0,59.78083151553864,2025-11-15 17h55.16.235331 +0530,
51,0,52,n,1.6453651000001628,None,52,0,51,215.31867429999966,,,,,,,,,,,,,,,,,,,,,,,,,,,,,,,,,,,,,,,,,,,,,,,,,,215.30447890000005,215.31867429999966,215.82555419999971,215.8032592999998,215.82259239999985,215.82555419999971,215.82555419999971,215.82555419999971,217.4871217,Foils\scenes3.jpg,none,n,1.6453651000001628,None,,,,,,,,00013,001,2025-11-15_17h55.05.651,MST_test,2024.2.0,59.78083151553864,2025-11-15 17h55.16.235331 +0530,
52,0,53,o,1.564522499999839,None,53,0,52,217.50205939999978,,,,,,,,,,,,,,,,,,,,,,,,,,,,,,,,,,,,,,,,,,,,,,,,,,217.4874077999998,217.50205939999978,218.01101709999966,217.9864908999998,218.00831309999967,218.01101709999966,218.01101709999966,218.01101709999966,219.58728119999978,Scenes\160a.jpg,post,o,1.564522499999839,None,,,,,,,,00013,001,2025-11-15_17h55.05.651,MST_test,2024.2.0,59.78083151553864,2025-11-15 17h55.16.235331 +0530,
53,0,54,s,2.3119879999999284,None,54,0,53,219.60199710000006,,,,,,,,,,,,,,,,,,,,,,,,,,,,,,,,,,,,,,,,,,,,,,,,,,219.58767799999987,219.60199710000006,220.1104052999999,220.08653920000006,220.10790399999996,220.1104052999999,220.1104052999999,220.1104052999999,222.43753749999996,Scenes\168b.jpg,post,s,2.3119879999999284,None,,,,,,,,00013,001,2025-11-15_17h55.05.651,MST_test,2024.2.0,59.78083151553864,2025-11-15 17h55.16.235331 +0530,
54,0,55,o,1.3882989999997335,None,55,0,54,222.4520325999997,,,,,,,,,,,,,,,,,,,,,,,,,,,,,,,,,,,,,,,,,,,,,,,,,,222.43787939999993,222.4520325999997,222.95469860000003,222.93663089999973,222.95165700000007,222.95469860000003,222.95469860000003,222.95469860000003,224.3544268999999,Scenes\103a.jpg,post,o,1.3882989999997335,None,,,,,,,,00013,001,2025-11-15_17h55.05.651,MST_test,2024.2.0,59.78083151553864,2025-11-15 17h55.16.235331 +0530,
55,0,56,o,1.1933823999997912,None,56,0,55,224.36870520000002,,,,,,,,,,,,,,,,,,,,,,,,,,,,,,,,,,,,,,,,,,,,,,,,,,224.35482199999979,224.36870520000002,224.8689703,224.85336529999995,224.86666239999977,224.8689703,224.8689703,224.8689703,226.07112389999975,Scenes\021a.jpg,pre,o,1.1933823999997912,None,,,,,,,,00013,001,2025-11-15_17h55.05.651,MST_test,2024.2.0,59.78083151553864,2025-11-15 17h55.16.235331 +0530,
56,0,57,s,1.1913442000000032,None,57,0,56,226.0852175,,,,,,,,,,,,,,,,,,,,,,,,,,,,,,,,,,,,,,,,,,,,,,,,,,226.07154589999982,226.0852175,226.5914069999999,226.56996649999974,226.58831549999968,226.5914069999999,226.5914069999999,226.5914069999999,227.7876957999997,Scenes\118a.jpg,pre,s,1.1913442000000032,None,,,,,,,,00013,001,2025-11-15_17h55.05.651,MST_test,2024.2.0,59.78083151553864,2025-11-15 17h55.16.235331 +0530,
57,0,58,o,1.59970229999999,None,58,0,57,227.80202599999984,,,,,,,,,,,,,,,,,,,,,,,,,,,,,,,,,,,,,,,,,,,,,,,,,,227.78803919999973,227.80202599999984,228.30268339999975,228.28643839999995,228.29249419999996,228.30268339999975,228.30268339999975,228.30268339999975,229.9048272,Objects\016a.jpg,mid,o,1.59970229999999,None,,,,,,,,00013,001,2025-11-15_17h55.05.651,MST_test,2024.2.0,59.78083151553864,2025-11-15 17h55.16.235331 +0530,
58,0,59,n,2.595007599999917,None,59,0,58,229.91881590000003,,,,,,,,,,,,,,,,,,,,,,,,,,,,,,,,,,,,,,,,,,,,,,,,,,229.90521199999966,229.91881590000003,230.4361547999997,230.40339210000002,230.43374399999993,230.4361547999997,230.4361547999997,230.4361547999997,233.03800709999996,Foils\018a.jpg,none,n,2.595007599999917,None,,,,,,,,00013,001,2025-11-15_17h55.05.651,MST_test,2024.2.0,59.78083151553864,2025-11-15 17h55.16.235331 +0530,
59,0,60,o,1.9192276000003403,None,60,0,59,233.05203849999998,,,,,,,,,,,,,,,,,,,,,,,,,,,,,,,,,,,,,,,,,,,,,,,,,,233.03849279999986,233.05203849999998,233.55937559999984,233.53661109999985,233.55649909999966,233.55937559999984,233.55937559999984,233.55937559999984,235.4875119999997,Scenes\164a.jpg,post,o,1.9192276000003403,None,,,,,,,,00013,001,2025-11-15_17h55.05.651,MST_test,2024.2.0,59.78083151553864,2025-11-15 17h55.16.235331 +0530,
60,0,61,s,1.6730007000001024,None,61,0,60,235.50209029999996,,,,,,,,,,,,,,,,,,,,,,,,,,,,,,,,,,,,,,,,,,,,,,,,,,235.48792950000006,235.50209029999996,236.00576269999965,235.98666709999998,236.0029316,236.00576269999965,236.00576269999965,236.00576269999965,237.68804180000006,Objects\043b.jpg,pre,s,1.6730007000001024,None,,,,,,,,00013,001,2025-11-15_17h55.05.651,MST_test,2024.2.0,59.78083151553864,2025-11-15 17h55.16.235331 +0530,
61,0,62,o,1.364002299999811,None,62,0,61,237.70207660000005,,,,,,,,,,,,,,,,,,,,,,,,,,,,,,,,,,,,,,,,,,,,,,,,,,237.68841649999968,237.70207660000005,238.20228139999972,238.18630170000006,238.19925179999973,238.20228139999972,238.20228139999972,238.20228139999972,239.57114729999967,Objects\172a.jpg,mid,o,1.364002299999811,None,,,,,,,,00013,001,2025-11-15_17h55.05.651,MST_test,2024.2.0,59.78083151553864,2025-11-15 17h55.16.235331 +0530,
62,0,63,o,1.1525590000001102,None,63,0,62,239.58543439999994,,,,,,,,,,,,,,,,,,,,,,,,,,,,,,,,,,,,,,,,,,,,,,,,,,239.57152779999979,239.58543439999994,240.09380359999977,240.0699439,240.09093699999994,240.09380359999977,240.09380359999977,240.09380359999977,241.25425079999968,Scenes\080b.jpg,pre,o,1.1525590000001102,None,,,,,,,,00013,001,2025-11-15_17h55.05.651,MST_test,2024.2.0,59.78083151553864,2025-11-15 17h55.16.235331 +0530,
63,0,64,s,1.3536723000001984,None,64,0,63,241.26871589999973,,,,,,,,,,,,,,,,,,,,,,,,,,,,,,,,,,,,,,,,,,,,,,,,,,241.25457860000006,241.26871589999973,241.77288580000004,241.75319229999968,241.7700061999999,241.77288580000004,241.77288580000004,241.77288580000004,243.13744499999984,Scenes\157b.jpg,mid,s,1.3536723000001984,None,,,,,,,,00013,001,2025-11-15_17h55.05.651,MST_test,2024.2.0,59.78083151553864,2025-11-15 17h55.16.235331 +0530,
64,0,65,s,1.2511458999997558,None,65,0,64,243.15211959999988,,,,,,,,,,,,,,,,,,,,,,,,,,,,,,,,,,,,,,,,,,,,,,,,,,243.1378394999997,243.15211959999988,243.65959759999987,243.63640299999997,243.65668199999982,243.65959759999987,243.65959759999987,243.65959759999987,244.92075969999996,Scenes\146a.jpg,mid,s,1.2511458999997558,None,,,,,,,,00013,001,2025-11-15_17h55.05.651,MST_test,2024.2.0,59.78083151553864,2025-11-15 17h55.16.235331 +0530,
65,0,66,s,2.78333369999973,None,66,0,65,244.93530639999972,,,,,,,,,,,,,,,,,,,,,,,,,,,,,,,,,,,,,,,,,,,,,,,,,,244.9210721999998,244.93530639999972,245.44697309999992,245.42017069999974,245.4439226999998,245.44697309999992,245.44697309999992,245.44697309999992,248.23728379999966,Scenes\090b.jpg,post,s,2.78333369999973,None,,,,,,,,00013,001,2025-11-15_17h55.05.651,MST_test,2024.2.0,59.78083151553864,2025-11-15 17h55.16.235331 +0530,
66,0,67,s,1.498780099999749,None,67,0,66,248.2520583999999,,,,,,,,,,,,,,,,,,,,,,,,,,,,,,,,,,,,,,,,,,,,,,,,,,248.23760809999976,248.2520583999999,248.75560610000002,248.73660500000005,248.75252929999988,248.75560610000002,248.75560610000002,248.75560610000002,250.27110949999997,Objects\116a.jpg,post,s,1.498780099999749,None,,,,,,,,00013,001,2025-11-15_17h55.05.651,MST_test,2024.2.0,59.78083151553864,2025-11-15 17h55.16.235331 +0530,
67,0,68,s,1.2722217000000455,None,68,0,67,250.2854686999999,,,,,,,,,,,,,,,,,,,,,,,,,,,,,,,,,,,,,,,,,,,,,,,,,,250.2715358999999,250.2854686999999,250.7899193999997,250.7705391999998,250.78732450000007,250.7899193999997,250.7899193999997,250.7899193999997,252.0708056999997,Objects\065b.jpg,pre,s,1.2722217000000455,None,,,,,,,,00013,001,2025-11-15_17h55.05.651,MST_test,2024.2.0,59.78083151553864,2025-11-15 17h55.16.235331 +0530,
68,0,69,s,1.7412807000000612,None,69,0,68,252.08526089999987,,,,,,,,,,,,,,,,,,,,,,,,,,,,,,,,,,,,,,,,,,,,,,,,,,252.0711014999997,252.08526089999987,252.5930883000001,252.57009339999968,252.59027879999985,252.5930883000001,252.5930883000001,252.5930883000001,254.33829990000004,Scenes\150a.jpg,post,s,1.7412807000000612,None,,,,,,,,00013,001,2025-11-15_17h55.05.651,MST_test,2024.2.0,59.78083151553864,2025-11-15 17h55.16.235331 +0530,
69,0,70,s,1.8115889999999126,None,70,0,69,254.3520656999999,,,,,,,,,,,,,,,,,,,,,,,,,,,,,,,,,,,,,,,,,,,,,,,,,,254.3387091999998,254.3520656999999,254.86731359999976,254.8366129000001,254.86396560000003,254.86731359999976,254.86731359999976,254.86731359999976,256.68759629999977,Scenes\089b.jpg,post,s,1.8115889999999126,None,,,,,,,,00013,001,2025-11-15_17h55.05.651,MST_test,2024.2.0,59.78083151553864,2025-11-15 17h55.16.235331 +0530,
70,0,71,n,1.6251215000002048,None,71,0,70,256.7020371999997,,,,,,,,,,,,,,,,,,,,,,,,,,,,,,,,,,,,,,,,,,,,,,,,,,256.6879670999997,256.7020371999997,257.2052530000001,257.18669739999996,257.2022228000001,257.2052530000001,257.2052530000001,257.2052530000001,258.83750489999966,Foils\scenes20.jpg,none,n,1.6251215000002048,None,,,,,,,,00013,001,2025-11-15_17h55.05.651,MST_test,2024.2.0,59.78083151553864,2025-11-15 17h55.16.235331 +0530,
71,0,72,s,1.4933774999999514,None,72,0,71,258.85197530000005,,,,,,,,,,,,,,,,,,,,,,,,,,,,,,,,,,,,,,,,,,,,,,,,,,258.83789149999984,258.85197530000005,259.35351360000004,259.3365675,259.3509025999997,259.35351360000004,259.35351360000004,259.35351360000004,260.8546501000001,Objects\181a.jpg,post,s,1.4933774999999514,None,,,,,,,,00013,001,2025-11-15_17h55.05.651,MST_test,2024.2.0,59.78083151553864,2025-11-15 17h55.16.235331 +0530,
72,0,73,n,1.2418058999996902,None,73,0,72,260.8687154999998,,,,,,,,,,,,,,,,,,,,,,,,,,,,,,,,,,,,,,,,,,,,,,,,,,260.8550703000001,260.8687154999998,261.37253469999996,261.35365580000007,261.37005550000003,261.37253469999996,261.37253469999996,261.37253469999996,262.62069470000006,Foils\098a.jpg,none,n,1.2418058999996902,None,,,,,,,,00013,001,2025-11-15_17h55.05.651,MST_test,2024.2.0,59.78083151553864,2025-11-15 17h55.16.235331 +0530,
73,0,74,o,1.5104951999996956,None,74,0,73,262.63545209999984,,,,,,,,,,,,,,,,,,,,,,,,,,,,,,,,,,,,,,,,,,,,,,,,,,262.62097509999967,262.63545209999984,263.13617539999996,263.1198899000001,263.13383350000004,263.13617539999996,263.13617539999996,263.13617539999996,264.65467390000003,Objects\051a.jpg,pre,o,1.5104951999996956,None,,,,,,,,00013,001,2025-11-15_17h55.05.651,MST_test,2024.2.0,59.78083151553864,2025-11-15 17h55.16.235331 +0530,
74,0,75,s,1.8936478999999053,None,75,0,74,264.6687520999999,,,,,,,,,,,,,,,,,,,,,,,,,,,,,,,,,,,,,,,,,,,,,,,,,,264.65503820000004,264.6687520999999,265.16946289999987,265.15306899999996,265.1669987,265.16946289999987,265.16946289999987,265.16946289999987,267.07152199999973,Objects\099b.jpg,post,s,1.8936478999999053,None,,,,,,,,00013,001,2025-11-15_17h55.05.651,MST_test,2024.2.0,59.78083151553864,2025-11-15 17h55.16.235331 +0530,
75,0,76,n,1.7048922000003586,None,76,0,75,267.0854062999997,,,,,,,,,,,,,,,,,,,,,,,,,,,,,,,,,,,,,,,,,,,,,,,,,,267.0718598999997,267.0854062999997,267.5898285999997,267.56993310000007,267.5873443999999,267.5898285999997,267.5898285999997,267.5898285999997,269.3044242000001,Foils\009a.jpg,none,n,1.7048922000003586,None,,,,,,,,00013,001,2025-11-15_17h55.05.651,MST_test,2024.2.0,59.78083151553864,2025-11-15 17h55.16.235331 +0530,
76,0,77,s,2.1442380999997113,None,77,0,76,269.3188789999999,,,,,,,,,,,,,,,,,,,,,,,,,,,,,,,,,,,,,,,,,,,,,,,,,,269.30482949999987,269.3188789999999,269.8231665999997,269.80304099999967,269.8208033000001,269.8231665999997,269.8231665999997,269.8231665999997,271.9709872999997,Foils\105a.jpg,none,s,2.1442380999997113,None,,,,,,,,00013,001,2025-11-15_17h55.05.651,MST_test,2024.2.0,59.78083151553864,2025-11-15 17h55.16.235331 +0530,
77,0,78,o,1.5746939000000566,None,78,0,77,271.9851672,,,,,,,,,,,,,,,,,,,,,,,,,,,,,,,,,,,,,,,,,,,,,,,,,,271.97130070000003,271.9851672,272.4874738999997,272.47021189999987,272.4849654999998,272.4874738999997,272.4874738999997,272.4874738999997,274.0708937999998,Objects\003b.jpg,mid,o,1.5746939000000566,None,,,,,,,,00013,001,2025-11-15_17h55.05.651,MST_test,2024.2.0,59.78083151553864,2025-11-15 17h55.16.235331 +0530,
78,0,79,o,3.6019937000000937,None,79,0,78,274.08524799999986,,,,,,,,,,,,,,,,,,,,,,,,,,,,,,,,,,,,,,,,,,,,,,,,,,274.0712745999999,274.08524799999986,274.58838609999975,274.5699411999999,274.5859627,274.58838609999975,274.58838609999975,274.58838609999975,278.20391329999984,Objects\103b.jpg,post,o,3.6019937000000937,None,,,,,,,,00013,001,2025-11-15_17h55.05.651,MST_test,2024.2.0,59.78083151553864,2025-11-15 17h55.16.235331 +0530,
79,0,80,o,1.0105141000003641,None,80,0,79,278.21873400000004,,,,,,,,,,,,,,,,,,,,,,,,,,,,,,,,,,,,,,,,,,,,,,,,,,278.2041359,278.21873400000004,278.72362029999977,278.7030716999998,278.72096809999994,278.72362029999977,278.72362029999977,278.72362029999977,279.73771499999975,Objects\112a.jpg,mid,o,1.0105141000003641,None,,,,,,,,00013,001,2025-11-15_17h55.05.651,MST_test,2024.2.0,59.78083151553864,2025-11-15 17h55.16.235331 +0530,
80,0,81,s,1.295861099999911,None,81,0,80,279.75212379999994,,,,,,,,,,,,,,,,,,,,,,,,,,,,,,,,,,,,,,,,,,,,,,,,,,279.73813999999993,279.75212379999994,280.25527029999967,280.23629589999973,280.25280169999996,280.25527029999967,280.25527029999967,280.25527029999967,281.5540197,Objects\124b.jpg,mid,s,1.295861099999911,None,,,,,,,,00013,001,2025-11-15_17h55.05.651,MST_test,2024.2.0,59.78083151553864,2025-11-15 17h55.16.235331 +0530,
81,0,82,n,2.638682400000107,None,82,0,81,281.5686191,,,,,,,,,,,,,,,,,,,,,,,,,,,,,,,,,,,,,,,,,,,,,,,,,,281.55436929999996,281.5686191,282.07233259999975,282.05359439999984,282.0699231999997,282.07233259999975,282.07233259999975,282.07233259999975,284.7206719999999,Foils\049a.jpg,none,n,2.638682400000107,None,,,,,,,,00013,001,2025-11-15_17h55.05.651,MST_test,2024.2.0,59.78083151553864,2025-11-15 17h55.16.235331 +0530,
82,0,83,o,1.8110928999999487,None,83,0,82,284.73521690000007,,,,,,,,,,,,,,,,,,,,,,,,,,,,,,,,,,,,,,,,,,,,,,,,,,284.7209969999999,284.73521690000007,285.23539919999985,285.2197299999998,285.22649309999997,285.23539919999985,285.23539919999985,285.23539919999985,287.0541439999997,Objects\123a.jpg,post,o,1.8110928999999487,None,,,,,,,,00013,001,2025-11-15_17h55.05.651,MST_test,2024.2.0,59.78083151553864,2025-11-15 17h55.16.235331 +0530,
83,0,84,o,1.001522600000044,None,84,0,83,287.0686627,,,,,,,,,,,,,,,,,,,,,,,,,,,,,,,,,,,,,,,,,,,,,,,,,,287.05447349999986,287.0686627,287.5725828999998,287.5532684,287.5697986,287.5725828999998,287.5725828999998,287.5725828999998,288.58581030000005,Scenes\033b.jpg,pre,o,1.001522600000044,None,,,,,,,,00013,001,2025-11-15_17h55.05.651,MST_test,2024.2.0,59.78083151553864,2025-11-15 17h55.16.235331 +0530,
84,0,85,s,2.5813963999999032,None,85,0,84,288.60181190000003,,,,,,,,,,,,,,,,,,,,,,,,,,,,,,,,,,,,,,,,,,,,,,,,,,288.5859071,288.60181190000003,289.1052950999997,289.0862155,289.1026102000001,289.1052950999997,289.1052950999997,289.1052950999997,291.7040861999999,Objects\038b.jpg,post,s,2.5813963999999032,None,,,,,,,,00013,001,2025-11-15_17h55.05.651,MST_test,2024.2.0,59.78083151553864,2025-11-15 17h55.16.235331 +0530,
85,0,86,o,1.402551599999697,None,86,0,85,291.71868489999997,,,,,,,,,,,,,,,,,,,,,,,,,,,,,,,,,,,,,,,,,,,,,,,,,,291.7043847,291.71868489999997,292.22012099999984,292.20244950000006,292.2173899999998,292.22012099999984,292.22012099999984,292.22012099999984,293.6375049999997,Scenes\051a.jpg,post,o,1.402551599999697,None,,,,,,,,00013,001,2025-11-15_17h55.05.651,MST_test,2024.2.0,59.78083151553864,2025-11-15 17h55.16.235331 +0530,
86,0,87,s,1.252349299999878,None,87,0,86,293.6520581,,,,,,,,,,,,,,,,,,,,,,,,,,,,,,,,,,,,,,,,,,,,,,,,,,293.63792779999994,293.6520581,294.16274399999975,294.1364659000001,294.15961530000004,294.16274399999975,294.16274399999975,294.16274399999975,295.4208985999999,Scenes\192b.jpg,pre,s,1.252349299999878,None,,,,,,,,00013,001,2025-11-15_17h55.05.651,MST_test,2024.2.0,59.78083151553864,2025-11-15 17h55.16.235331 +0530,
87,0,88,s,1.3238045000002785,None,88,0,87,295.4353965,,,,,,,,,,,,,,,,,,,,,,,,,,,,,,,,,,,,,,,,,,,,,,,,,,295.42128649999995,295.4353965,295.9392484,295.9198991999997,295.9362978999998,295.9392484,295.9392484,295.9392484,297.27108,Objects\165b.jpg,mid,s,1.3238045000002785,None,,,,,,,,00013,001,2025-11-15_17h55.05.651,MST_test,2024.2.0,59.78083151553864,2025-11-15 17h55.16.235331 +0530,
88,0,89,s,1.0673448000002281,None,89,0,88,297.2851582999997,,,,,,,,,,,,,,,,,,,,,,,,,,,,,,,,,,,,,,,,,,,,,,,,,,297.2714510999999,297.2851582999997,297.7869797999997,297.76984049999965,297.78461530000004,297.7869797999997,297.7869797999997,297.7869797999997,298.8711037999997,Objects\152b.jpg,post,s,1.0673448000002281,None,,,,,,,,00013,001,2025-11-15_17h55.05.651,MST_test,2024.2.0,59.78083151553864,2025-11-15 17h55.16.235331 +0530,
89,0,90,o,1.4743106999999327,None,90,0,89,298.8852976999997,,,,,,,,,,,,,,,,,,,,,,,,,,,,,,,,,,,,,,,,,,,,,,,,,,298.87153599999965,298.8852976999997,299.3881443,299.3697841999997,299.38575569999966,299.3881443,299.3881443,299.3881443,300.86977009999964,Objects\121b.jpg,mid,o,1.4743106999999327,None,,,,,,,,00013,001,2025-11-15_17h55.05.651,MST_test,2024.2.0,59.78083151553864,2025-11-15 17h55.16.235331 +0530,
90,0,91,o,1.4592885000001843,None,91,0,90,300.8854698,,,,,,,,,,,,,,,,,,,,,,,,,,,,,,,,,,,,,,,,,,,,,,,,,,300.86993789999997,300.8854698,301.38706409999986,301.3700353999998,301.3845468999998,301.38706409999986,301.38706409999986,301.38706409999986,302.8538547999997,Objects\082a.jpg,pre,o,1.4592885000001843,None,,,,,,,,00013,001,2025-11-15_17h55.05.651,MST_test,2024.2.0,59.78083151553864,2025-11-15 17h55.16.235331 +0530,
91,0,92,s,1.5827914000001329,None,92,0,91,302.8686958999997,,,,,,,,,,,,,,,,,,,,,,,,,,,,,,,,,,,,,,,,,,,,,,,,,,302.85413389999985,302.8686958999997,303.3757295999999,303.35340529999985,303.37275869999985,303.3757295999999,303.3757295999999,303.3757295999999,304.9703125000001,Scenes\163b.jpg,post,s,1.5827914000001329,None,,,,,,,,00013,001,2025-11-15_17h55.05.651,MST_test,2024.2.0,59.78083151553864,2025-11-15 17h55.16.235331 +0530,
92,0,93,n,1.3176103999999214,None,93,0,92,304.98531520000006,,,,,,,,,,,,,,,,,,,,,,,,,,,,,,,,,,,,,,,,,,,,,,,,,,304.97062860000005,304.98531520000006,305.4886336999998,305.4700207000001,305.48560769999995,305.4886336999998,305.4886336999998,305.4886336999998,306.82129719999966,Foils\scenes18.jpg,none,n,1.3176103999999214,None,,,,,,,,00013,001,2025-11-15_17h55.05.651,MST_test,2024.2.0,59.78083151553864,2025-11-15 17h55.16.235331 +0530,
93,0,94,s,2.781872800000201,None,94,0,93,306.8354811999998,,,,,,,,,,,,,,,,,,,,,,,,,,,,,,,,,,,,,,,,,,,,,,,,,,306.82168619999993,306.8354811999998,307.3452932,307.31948409999995,307.34266690000004,307.3452932,307.3452932,307.3452932,310.13766910000004,Scenes\009b.jpg,mid,s,2.781872800000201,None,,,,,,,,00013,001,2025-11-15_17h55.05.651,MST_test,2024.2.0,59.78083151553864,2025-11-15 17h55.16.235331 +0530,
94,0,95,n,6.32719169999973,None,95,0,94,310.1520496999997,,,,,,,,,,,,,,,,,,,,,,,,,,,,,,,,,,,,,,,,,,,,,,,,,,310.13806769999974,310.1520496999997,310.66303059999973,310.63622899999973,310.66005889999997,310.66303059999973,310.66303059999973,310.66303059999973,317.0040749,Scenes\028b.jpg,post,n,6.32719169999973,None,,,,,,,,00013,001,2025-11-15_17h55.05.651,MST_test,2024.2.0,59.78083151553864,2025-11-15 17h55.16.235331 +0530,
95,0,96,n,14.918782400000055,None,96,0,95,317.0186811999997,,,,,,,,,,,,,,,,,,,,,,,,,,,,,,,,,,,,,,,,,,,,,,,,,,317.0044574999997,317.0186811999997,317.5282014999998,317.50297699999965,317.5251638,317.5282014999998,317.5282014999998,317.5282014999998,332.4544473000001,Scenes\117b.jpg,pre,n,14.918782400000055,None,,,,,,,,00013,001,2025-11-15_17h55.05.651,MST_test,2024.2.0,59.78083151553864,2025-11-15 17h55.16.235331 +0530,
96,0,97,n,0.8738430000003063,None,97,0,96,332.46863510000003,,,,,,,,,,,,,,,,,,,,,,,,,,,,,,,,,,,,,,,,,,,,,,,,,,332.4548193999999,332.46863510000003,332.9731615999999,332.9530958,332.97067590000006,332.9731615999999,332.9731615999999,332.9731615999999,333.8548189999997,Foils\scenes17.jpg,none,n,0.8738430000003063,None,,,,,,,,00013,001,2025-11-15_17h55.05.651,MST_test,2024.2.0,59.78083151553864,2025-11-15 17h55.16.235331 +0530,
97,0,98,n,1.1565731999999116,None,98,0,97,333.8686109999999,,,,,,,,,,,,,,,,,,,,,,,,,,,,,,,,,,,,,,,,,,,,,,,,,,333.85520399999996,333.8686109999999,334.37827419999985,334.3532329999998,334.3756555,334.37827419999985,334.37827419999985,334.37827419999985,335.53806029999987,Scenes\184b.jpg,mid,n,1.1565731999999116,None,,,,,,,,00013,001,2025-11-15_17h55.05.651,MST_test,2024.2.0,59.78083151553864,2025-11-15 17h55.16.235331 +0530,
98,0,99,s,1.1231286000002,None,99,0,98,335.5520498000001,,,,,,,,,,,,,,,,,,,,,,,,,,,,,,,,,,,,,,,,,,,,,,,,,,335.53843069999994,335.5520498000001,336.05919959999983,336.0364331999999,336.0563170999999,336.05919959999983,336.05919959999983,336.05919959999983,337.1873642999999,Scenes\185b.jpg,pre,s,1.1231286000002,None,,,,,,,,00013,001,2025-11-15_17h55.05.651,MST_test,2024.2.0,59.78083151553864,2025-11-15 17h55.16.235331 +0530,
99,0,100,s,1.159547499999917,None,100,0,99,337.20184789999985,,,,,,,,,,,,,,,,,,,,,,,,,,,,,,,,,,,,,,,,,,,,,,,,,,337.1877473999998,337.20184789999985,337.70279660000006,337.68568579999965,337.69618409999975,337.70279660000006,337.70279660000006,337.70279660000006,338.8712496999997,Objects\162a.jpg,mid,s,1.159547499999917,None,,,,,,,,00013,001,2025-11-15_17h55.05.651,MST_test,2024.2.0,59.78083151553864,2025-11-15 17h55.16.235331 +0530,
100,0,101,s,1.2436459000000468,None,101,0,100,338.88518049999993,,,,,,,,,,,,,,,,,,,,,,,,,,,,,,,,,,,,,,,,,,,,,,,,,,338.87158599999975,338.88518049999993,339.38735419999966,339.3698495999997,339.3848373000001,339.38735419999966,339.38735419999966,339.38735419999966,340.6377603000001,Objects\161a.jpg,pre,s,1.2436459000000468,None,,,,,,,,00013,001,2025-11-15_17h55.05.651,MST_test,2024.2.0,59.78083151553864,2025-11-15 17h55.16.235331 +0530,
101,0,102,s,1.8264819999999418,None,102,0,101,340.65198569999984,,,,,,,,,,,,,,,,,,,,,,,,,,,,,,,,,,,,,,,,,,,,,,,,,,340.6381292000001,340.65198569999984,341.15619419999985,341.1364801999998,341.15318869999965,341.15619419999985,341.15619419999985,341.15619419999985,342.9875828999998,Scenes\175a.jpg,post,s,1.8264819999999418,None,,,,,,,,00013,001,2025-11-15_17h55.05.651,MST_test,2024.2.0,59.78083151553864,2025-11-15 17h55.16.235331 +0530,
102,0,103,n,1.3180731000002197,None,103,0,102,343.0019795999997,,,,,,,,,,,,,,,,,,,,,,,,,,,,,,,,,,,,,,,,,,,,,,,,,,342.9878948999999,343.0019795999997,343.50415699999985,343.4863728,343.50131919999967,343.50415699999985,343.50415699999985,343.50415699999985,344.8377507,Foils\scenes29.jpg,none,n,1.3180731000002197,None,,,,,,,,00013,001,2025-11-15_17h55.05.651,MST_test,2024.2.0,59.78083151553864,2025-11-15 17h55.16.235331 +0530,
103,0,104,n,1.54955979999977,None,104,0,103,344.85190429999966,,,,,,,,,,,,,,,,,,,,,,,,,,,,,,,,,,,,,,,,,,,,,,,,,,344.83810919999996,344.85190429999966,345.36076409999987,345.33639809999977,345.3580563999999,345.36076409999987,345.36076409999987,345.36076409999987,346.9206986999998,Foils\scenes27.jpg,none,n,1.54955979999977,None,,,,,,,,00013,001,2025-11-15_17h55.05.651,MST_test,2024.2.0,59.78083151553864,2025-11-15 17h55.16.235331 +0530,
104,0,105,n,1.1766889999998966,None,105,0,104,346.93507299999965,,,,,,,,,,,,,,,,,,,,,,,,,,,,,,,,,,,,,,,,,,,,,,,,,,346.92095659999995,346.93507299999965,347.4462258999997,347.4199205,347.4432508,347.4462258999997,347.4462258999997,347.4462258999997,348.6377026,Scenes\122b.jpg,post,n,1.1766889999998966,None,,,,,,,,00013,001,2025-11-15_17h55.05.651,MST_test,2024.2.0,59.78083151553864,2025-11-15 17h55.16.235331 +0530,
105,0,106,n,1.0835674999998446,None,106,0,105,348.6522394999997,,,,,,,,,,,,,,,,,,,,,,,,,,,,,,,,,,,,,,,,,,,,,,,,,,348.63807529999985,348.6522394999997,349.1554148,349.1365221000001,349.1524691999998,349.1554148,349.1554148,349.1554148,350.2545832999999,Objects\131b.jpg,post,n,1.0835674999998446,None,,,,,,,,00013,001,2025-11-15_17h55.05.651,MST_test,2024.2.0,59.78083151553864,2025-11-15 17h55.16.235331 +0530,
106,0,107,s,1.651357100000041,None,107,0,106,350.26863449999973,,,,,,,,,,,,,,,,,,,,,,,,,,,,,,,,,,,,,,,,,,,,,,,,,,350.25509009999996,350.26863449999973,350.7709477999997,350.7531663999998,350.7684842999997,350.7709477999997,350.7709477999997,350.7709477999997,352.4374708,Foils\081a.jpg,none,s,1.651357100000041,None,,,,,,,,00013,001,2025-11-15_17h55.05.651,MST_test,2024.2.0,59.78083151553864,2025-11-15 17h55.16.235331 +0530,
107,0,108,n,1.218522699999994,None,108,0,107,352.45196799999985,,,,,,,,,,,,,,,,,,,,,,,,,,,,,,,,,,,,,,,,,,,,,,,,,,352.4378647999997,352.45196799999985,352.95579389999966,352.9367927999997,352.9533773999997,352.95579389999966,352.95579389999966,352.95579389999966,354.18764059999967,Foils\074a.jpg,none,n,1.218522699999994,None,,,,,,,,00013,001,2025-11-15_17h55.05.651,MST_test,2024.2.0,59.78083151553864,2025-11-15 17h55.16.235331 +0530,
108,0,109,s,6.549812600000223,None,109,0,108,354.2018134,,,,,,,,,,,,,,,,,,,,,,,,,,,,,,,,,,,,,,,,,,,,,,,,,,354.1880308,354.2018134,354.7126128,354.6864157,354.70960799999966,354.7126128,354.7126128,354.7126128,361.2711420999999,Scenes\125b.jpg,post,s,6.549812600000223,None,,,,,,,,00013,001,2025-11-15_17h55.05.651,MST_test,2024.2.0,59.78083151553864,2025-11-15 17h55.16.235331 +0530,
109,0,110,s,1.5457639999999628,None,110,0,109,361.28548169999976,,,,,,,,,,,,,,,,,,,,,,,,,,,,,,,,,,,,,,,,,,,,,,,,,,361.27154169999994,361.28548169999976,361.78892339999993,361.7699488999997,361.78594209999983,361.78892339999993,361.78892339999993,361.78892339999993,363.337904,Objects\143a.jpg,mid,s,1.5457639999999628,None,,,,,,,,00013,001,2025-11-15_17h55.05.651,MST_test,2024.2.0,59.78083151553864,2025-11-15 17h55.16.235331 +0530,
110,0,111,o,1.5128802999997788,None,111,0,110,363.3521449,,,,,,,,,,,,,,,,,,,,,,,,,,,,,,,,,,,,,,,,,,,,,,,,,,363.33825690000003,363.3521449,363.8532845,363.8365869999998,363.8508088999997,363.8532845,363.8532845,363.8532845,365.3713481,Objects\017a.jpg,mid,o,1.5128802999997788,None,,,,,,,,00013,001,2025-11-15_17h55.05.651,MST_test,2024.2.0,59.78083151553864,2025-11-15 17h55.16.235331 +0530,
111,0,112,s,1.8073937000003752,None,112,0,111,365.38537099999985,,,,,,,,,,,,,,,,,,,,,,,,,,,,,,,,,,,,,,,,,,,,,,,,,,365.3717369000001,365.38537099999985,365.8949852999999,365.8700352000001,365.89199370000006,365.8949852999999,365.8949852999999,365.8949852999999,367.7046184999999,Scenes\100b.jpg,post,s,1.8073937000003752,None,,,,,,,,00013,001,2025-11-15_17h55.05.651,MST_test,2024.2.0,59.78083151553864,2025-11-15 17h55.16.235331 +0530,
112,0,113,o,1.4652949999999691,None,113,0,112,367.7186880999998,,,,,,,,,,,,,,,,,,,,,,,,,,,,,,,,,,,,,,,,,,,,,,,,,,367.70501349999995,367.7186880999998,368.22896139999966,368.20305919999964,368.2258039999997,368.22896139999966,368.22896139999966,368.22896139999966,369.70463900000004,Scenes\001b.jpg,pre,o,1.4652949999999691,None,,,,,,,,00013,001,2025-11-15_17h55.05.651,MST_test,2024.2.0,59.78083151553864,2025-11-15 17h55.16.235331 +0530,
113,0,114,o,1.2016116999998303,None,114,0,113,369.7187592999999,,,,,,,,,,,,,,,,,,,,,,,,,,,,,,,,,,,,,,,,,,,,,,,,,,369.70498869999983,369.7187592999999,370.2205779000001,370.2032485,370.2174707999998,370.2205779000001,370.2205779000001,370.2205779000001,371.43795869999985,Objects\078a.jpg,mid,o,1.2016116999998303,None,,,,,,,,00013,001,2025-11-15_17h55.05.651,MST_test,2024.2.0,59.78083151553864,2025-11-15 17h55.16.235331 +0530,
114,0,115,n,1.21738170000026,None,115,0,114,371.4521815999997,,,,,,,,,,,,,,,,,,,,,,,,,,,,,,,,,,,,,,,,,,,,,,,,,,371.4383837999999,371.4521815999997,371.9567542,371.93664139999964,371.95421959999976,371.9567542,371.9567542,371.9567542,373.1877728999998,Foils\113a.jpg,none,n,1.21738170000026,None,,,,,,,,00013,001,2025-11-15_17h55.05.651,MST_test,2024.2.0,59.78083151553864,2025-11-15 17h55.16.235331 +0530,
115,0,116,o,1.4160737999995945,None,116,0,115,373.2019376999997,,,,,,,,,,,,,,,,,,,,,,,,,,,,,,,,,,,,,,,,,,,,,,,,,,373.18817679999984,373.2019376999997,373.71063520000007,373.68653189999986,373.7075200999998,373.71063520000007,373.71063520000007,373.71063520000007,375.1376605999999,Scenes\018b.jpg,mid,o,1.4160737999995945,None,,,,,,,,00013,001,2025-11-15_17h55.05.651,MST_test,2024.2.0,59.78083151553864,2025-11-15 17h55.16.235331 +0530,
116,0,117,o,0.9370302000002084,None,117,0,116,375.15210149999984,,,,,,,,,,,,,,,,,,,,,,,,,,,,,,,,,,,,,,,,,,,,,,,,,,375.1380283999997,375.15210149999984,375.65384559999984,375.6365530999997,375.6508713999997,375.65384559999984,375.65384559999984,375.65384559999984,376.6041016999998,Objects\104a.jpg,mid,o,0.9370302000002084,None,,,,,,,,00013,001,2025-11-15_17h55.05.651,MST_test,2024.2.0,59.78083151553864,2025-11-15 17h55.16.235331 +0530,
117,0,118,n,1.1654590000002827,None,118,0,117,376.6187003,,,,,,,,,,,,,,,,,,,,,,,,,,,,,,,,,,,,,,,,,,,,,,,,,,376.6044085999997,376.6187003,377.12149999999974,377.1033355999998,377.1187543000001,377.12149999999974,377.12149999999974,377.12149999999974,378.30441189999965,Foils\scenes13.jpg,none,n,1.1654590000002827,None,,,,,,,,00013,001,2025-11-15_17h55.05.651,MST_test,2024.2.0,59.78083151553864,2025-11-15 17h55.16.235331 +0530,
118,0,119,o,0.9618430999998964,None,119,0,118,378.31878770000003,,,,,,,,,,,,,,,,,,,,,,,,,,,,,,,,,,,,,,,,,,,,,,,,,,378.30483860000004,378.31878770000003,378.8206642,378.80330589999994,378.81803450000007,378.8206642,378.8206642,378.8206642,379.78787569999986,Foils\026a.jpg,none,o,0.9618430999998964,None,,,,,,,,00013,001,2025-11-15_17h55.05.651,MST_test,2024.2.0,59.78083151553864,2025-11-15 17h55.16.235331 +0530,
119,0,120,s,2.0993357000002106,None,120,0,119,379.80212809999966,,,,,,,,,,,,,,,,,,,,,,,,,,,,,,,,,,,,,,,,,,,,,,,,,,379.7882755999999,379.80212809999966,380.3153705,380.28642999999965,380.31227149999995,380.3153705,380.3153705,380.3153705,382.42043379999996,Scenes\183b.jpg,pre,s,2.0993357000002106,None,,,,,,,,00013,001,2025-11-15_17h55.05.651,MST_test,2024.2.0,59.78083151553864,2025-11-15 17h55.16.235331 +0530,
120,0,121,n,2.820905400000356,None,121,0,120,382.43536989999984,,,,,,,,,,,,,,,,,,,,,,,,,,,,,,,,,,,,,,,,,,,,,,,,,,382.4207305,382.43536989999984,382.9374803999999,382.9199632,382.9345542000001,382.9374803999999,382.9374803999999,382.9374803999999,385.7713288,Foils\scenes7.jpg,none,n,2.820905400000356,None,,,,,,,,00013,001,2025-11-15_17h55.05.651,MST_test,2024.2.0,59.78083151553864,2025-11-15 17h55.16.235331 +0530,
121,0,122,s,1.3645050000000083,None,122,0,121,385.78537430000006,,,,,,,,,,,,,,,,,,,,,,,,,,,,,,,,,,,,,,,,,,,,,,,,,,385.77175529999977,385.78537430000006,386.2978392,386.26985939999986,386.29483889999983,386.2978392,386.2978392,386.2978392,387.6710592999998,Scenes\120b.jpg,pre,s,1.3645050000000083,None,,,,,,,,00013,001,2025-11-15_17h55.05.651,MST_test,2024.2.0,59.78083151553864,2025-11-15 17h55.16.235331 +0530,
122,0,123,s,1.2867059000000154,None,123,0,122,387.6853364999997,,,,,,,,,,,,,,,,,,,,,,,,,,,,,,,,,,,,,,,,,,,,,,,,,,387.67146189999994,387.6853364999997,388.19177469999977,388.1694477000001,388.1883496999999,388.19177469999977,388.19177469999977,388.19177469999977,389.48726020000004,Scenes\037b.jpg,mid,s,1.2867059000000154,None,,,,,,,,00013,001,2025-11-15_17h55.05.651,MST_test,2024.2.0,59.78083151553864,2025-11-15 17h55.16.235331 +0530,
123,0,124,o,1.097546599999987,None,124,0,123,389.50206739999976,,,,,,,,,,,,,,,,,,,,,,,,,,,,,,,,,,,,,,,,,,,,,,,,,,389.48760719999973,389.50206739999976,390.00483600000007,389.9864898000001,390.0017386999998,390.00483600000007,390.00483600000007,390.00483600000007,391.10508869999967,Objects\005a.jpg,post,o,1.097546599999987,None,,,,,,,,00013,001,2025-11-15_17h55.05.651,MST_test,2024.2.0,59.78083151553864,2025-11-15 17h55.16.235331 +0530,
124,0,125,o,1.4331164999998691,None,125,0,124,391.1186011,,,,,,,,,,,,,,,,,,,,,,,,,,,,,,,,,,,,,,,,,,,,,,,,,,391.105603,391.1186011,391.6293136999998,391.60320150000007,391.62614970000004,391.6293136999998,391.6293136999998,391.6293136999998,393.07093699999996,Scenes\010b.jpg,mid,o,1.4331164999998691,None,,,,,,,,00013,001,2025-11-15_17h55.05.651,MST_test,2024.2.0,59.78083151553864,2025-11-15 17h55.16.235331 +0530,
125,0,126,o,1.0095994000002975,None,126,0,125,393.0851327999999,,,,,,,,,,,,,,,,,,,,,,,,,,,,,,,,,,,,,,,,,,,,,,,,,,393.0713636999999,393.0851327999999,393.58912759999976,393.5700836000001,393.5861639999998,393.58912759999976,393.58912759999976,393.58912759999976,394.6048605000001,Scenes\003a.jpg,pre,o,1.0095994000002975,None,,,,,,,,00013,001,2025-11-15_17h55.05.651,MST_test,2024.2.0,59.78083151553864,2025-11-15 17h55.16.235331 +0530,
126,0,127,o,6.354477800000041,None,127,0,126,394.61883910000006,,,,,,,,,,,,,,,,,,,,,,,,,,,,,,,,,,,,,,,,,,,,,,,,,,394.6052620999999,394.61883910000006,395.1242242999997,395.1032043,395.1212548999997,395.1242242999997,395.1242242999997,395.1242242999997,401.48797079999986,Scenes\147a.jpg,pre,o,6.354477800000041,None,,,,,,,,00013,001,2025-11-15_17h55.05.651,MST_test,2024.2.0,59.78083151553864,2025-11-15 17h55.16.235331 +0530,
127,0,128,s,1.2187292000003254,None,128,0,127,401.5021760999998,,,,,,,,,,,,,,,,,,,,,,,,,,,,,,,,,,,,,,,,,,,,,,,,,,401.488605,401.5021760999998,402.0044224999997,401.98619770000005,402.0016704999998,402.0044224999997,402.0044224999997,402.0044224999997,403.23688379999976,Objects\153a.jpg,post,s,1.2187292000003254,None,,,,,,,,00013,001,2025-11-15_17h55.05.651,MST_test,2024.2.0,59.78083151553864,2025-11-15 17h55.16.235331 +0530,
128,0,129,o,1.1711186000002272,None,129,0,128,403.2518534000001,,,,,,,,,,,,,,,,,,,,,,,,,,,,,,,,,,,,,,,,,,,,,,,,,,403.2371598,403.2518534000001,403.7553273999997,403.7365004999997,403.75293310000006,403.7553273999997,403.7553273999997,403.7553273999997,404.93810510000003,Objects\080b.jpg,post,o,1.1711186000002272,None,,,,,,,,00013,001,2025-11-15_17h55.05.651,MST_test,2024.2.0,59.78083151553864,2025-11-15 17h55.16.235331 +0530,
129,0,130,o,1.1132668000000194,None,130,0,129,404.95211949999975,,,,,,,,,,,,,,,,,,,,,,,,,,,,,,,,,,,,,,,,,,,,,,,,,,404.93854280000005,404.95211949999975,405.4626632999998,405.43617730000005,405.45973520000007,405.4626632999998,405.4626632999998,405.4626632999998,406.5877108999998,Scenes\017b.jpg,pre,o,1.1132668000000194,None,,,,,,,,00013,001,2025-11-15_17h55.05.651,MST_test,2024.2.0,59.78083151553864,2025-11-15 17h55.16.235331 +0530,
130,0,131,s,2.5514625000000706,None,131,0,130,406.60190299999977,,,,,,,,,,,,,,,,,,,,,,,,,,,,,,,,,,,,,,,,,,,,,,,,,,406.58810449999964,406.60190299999977,407.1027777999998,407.0862689999999,407.09838119999995,407.1027777999998,407.1027777999998,407.1027777999998,409.671065,Objects\062a.jpg,post,s,2.5514625000000706,None,,,,,,,,00013,001,2025-11-15_17h55.05.651,MST_test,2024.2.0,59.78083151553864,2025-11-15 17h55.16.235331 +0530,
131,0,132,s,1.284779300000082,None,132,0,131,409.6851944,,,,,,,,,,,,,,,,,,,,,,,,,,,,,,,,,,,,,,,,,,,,,,,,,,409.6713993999997,409.6851944,410.2101591999999,410.1697086999998,410.20726969999987,410.2101591999999,410.2101591999999,410.2101591999999,411.50375329999997,Objects\027b.jpg,pre,s,1.284779300000082,None,,,,,,,,00013,001,2025-11-15_17h55.05.651,MST_test,2024.2.0,59.78083151553864,2025-11-15 17h55.16.235331 +0530,
132,0,133,s,1.320897000000059,None,133,0,132,411.5184999999997,,,,,,,,,,,,,,,,,,,,,,,,,,,,,,,,,,,,,,,,,,,,,,,,,,411.5041490999997,411.5184999999997,412.02115019999974,412.0033077999997,412.0185601999997,412.02115019999974,412.02115019999974,412.02115019999974,413.35354129999996,Objects\106b.jpg,post,s,1.320897000000059,None,,,,,,,,00013,001,2025-11-15_17h55.05.651,MST_test,2024.2.0,59.78083151553864,2025-11-15 17h55.16.235331 +0530,
133,0,134,s,3.6204333999999108,None,134,0,133,413.3687543000001,,,,,,,,,,,,,,,,,,,,,,,,,,,,,,,,,,,,,,,,,,,,,,,,,,413.35380609999993,413.3687543000001,413.8743196999999,413.85328979999986,413.87154069999997,413.8743196999999,413.8743196999999,413.8743196999999,417.5045743999999,Scenes\008b.jpg,pre,s,3.6204333999999108,None,,,,,,,,00013,001,2025-11-15_17h55.05.651,MST_test,2024.2.0,59.78083151553864,2025-11-15 17h55.16.235331 +0530,
134,0,135,o,1.4448319000002812,None,135,0,134,417.51867969999967,,,,,,,,,,,,,,,,,,,,,,,,,,,,,,,,,,,,,,,,,,,,,,,,,,417.5049762999997,417.51867969999967,418.0254839999998,418.0032977000001,418.02246799999966,418.0254839999998,418.0254839999998,418.0254839999998,419.4877160000001,Scenes\158a.jpg,mid,o,1.4448319000002812,None,,,,,,,,00013,001,2025-11-15_17h55.05.651,MST_test,2024.2.0,59.78083151553864,2025-11-15 17h55.16.235331 +0530,
135,0,136,s,1.2310809999999037,None,136,0,135,419.5019935,,,,,,,,,,,,,,,,,,,,,,,,,,,,,,,,,,,,,,,,,,,,,,,,,,419.4881375,419.5019935,420.0069389,419.9861817000001,420.0037296999999,420.0069389,420.0069389,420.0069389,421.2539296,Scenes\068a.jpg,mid,s,1.2310809999999037,None,,,,,,,,00013,001,2025-11-15_17h55.05.651,MST_test,2024.2.0,59.78083151553864,2025-11-15 17h55.16.235331 +0530,
136,0,137,o,1.0788883999998689,None,137,0,136,421.26847869999983,,,,,,,,,,,,,,,,,,,,,,,,,,,,,,,,,,,,,,,,,,,,,,,,,,421.2541661999999,421.26847869999983,421.77539609999985,421.7533518,421.772379,421.77539609999985,421.77539609999985,421.77539609999985,422.87117209999997,Scenes\112b.jpg,mid,o,1.0788883999998689,None,,,,,,,,00013,001,2025-11-15_17h55.05.651,MST_test,2024.2.0,59.78083151553864,2025-11-15 17h55.16.235331 +0530,
137,0,138,o,0.8963332999996965,None,138,0,137,422.8854459999998,,,,,,,,,,,,,,,,,,,,,,,,,,,,,,,,,,,,,,,,,,,,,,,,,,422.87155489999986,422.8854459999998,423.39029200000004,423.3694571000001,423.3874827999998,423.39029200000004,423.39029200000004,423.39029200000004,424.30426799999987,Scenes\113b.jpg,post,o,0.8963332999996965,None,,,,,,,,00013,001,2025-11-15_17h55.05.651,MST_test,2024.2.0,59.78083151553864,2025-11-15 17h55.16.235331 +0530,
138,0,139,s,1.241820799999914,None,139,0,138,424.31875880000007,,,,,,,,,,,,,,,,,,,,,,,,,,,,,,,,,,,,,,,,,,,,,,,,,,424.30466739999974,424.31875880000007,424.8207321,424.80298089999997,424.81780230000004,424.8207321,424.8207321,424.8207321,426.07118189999983,Objects\119a.jpg,pre,s,1.241820799999914,None,,,,,,,,00013,001,2025-11-15_17h55.05.651,MST_test,2024.2.0,59.78083151553864,2025-11-15 17h55.16.235331 +0530,
139,0,140,o,1.2124393000003693,None,140,0,139,426.08508059999986,,,,,,,,,,,,,,,,,,,,,,,,,,,,,,,,,,,,,,,,,,,,,,,,,,426.07158219999974,426.08508059999986,426.5865445999998,426.5697829999999,426.58414270000003,426.5865445999998,426.5865445999998,426.5865445999998,427.8038895999998,Objects\155a.jpg,pre,o,1.2124393000003693,None,,,,,,,,00013,001,2025-11-15_17h55.05.651,MST_test,2024.2.0,59.78083151553864,2025-11-15 17h55.16.235331 +0530,
140,0,141,n,1.4484814000002189,None,141,0,140,427.8185635,,,,,,,,,,,,,,,,,,,,,,,,,,,,,,,,,,,,,,,,,,,,,,,,,,427.80421019999994,427.8185635,428.3257257,428.30319759999975,428.3229333999998,428.3257257,428.3257257,428.3257257,429.7874938,Foils\scenes30.jpg,none,n,1.4484814000002189,None,,,,,,,,00013,001,2025-11-15_17h55.05.651,MST_test,2024.2.0,59.78083151553864,2025-11-15 17h55.16.235331 +0530,
141,0,142,s,2.111955300000318,None,142,0,141,429.80196079999996,,,,,,,,,,,,,,,,,,,,,,,,,,,,,,,,,,,,,,,,,,,,,,,,,,429.7879459999999,429.80196079999996,430.3023341999997,430.28650119999975,430.292097,430.3023341999997,430.3023341999997,430.3023341999997,432.4206691999998,Objects\192a.jpg,pre,s,2.111955300000318,None,,,,,,,,00013,001,2025-11-15_17h55.05.651,MST_test,2024.2.0,59.78083151553864,2025-11-15 17h55.16.235331 +0530,
142,0,143,o,1.1154494999996132,None,143,0,142,432.43521629999987,,,,,,,,,,,,,,,,,,,,,,,,,,,,,,,,,,,,,,,,,,,,,,,,,,432.4209854999999,432.43521629999987,432.94757489999984,432.91992200000004,432.94454429999996,432.94757489999984,432.94757489999984,432.94757489999984,434.07080069999984,Scenes\020a.jpg,post,o,1.1154494999996132,None,,,,,,,,00013,001,2025-11-15_17h55.05.651,MST_test,2024.2.0,59.78083151553864,2025-11-15 17h55.16.235331 +0530,
143,0,144,o,1.6204266999998254,None,144,0,143,434.0851153999997,,,,,,,,,,,,,,,,,,,,,,,,,,,,,,,,,,,,,,,,,,,,,,,,,,434.07121819999975,434.0851153999997,434.59421859999975,434.5695009000001,434.59124619999966,434.59421859999975,434.59421859999975,434.59421859999975,436.22095199999967,Scenes\138b.jpg,mid,o,1.6204266999998254,None,,,,,,,,00013,001,2025-11-15_17h55.05.651,MST_test,2024.2.0,59.78083151553864,2025-11-15 17h55.16.235331 +0530,
144,0,145,n,3.1169536999996126,None,145,0,144,436.2350452999999,,,,,,,,,,,,,,,,,,,,,,,,,,,,,,,,,,,,,,,,,,,,,,,,,,436.22125689999984,436.2350452999999,436.74592540000003,436.71975029999976,436.7427832999997,436.74592540000003,436.74592540000003,436.74592540000003,439.8702398999999,Scenes\038b.jpg,post,n,3.1169536999996126,None,,,,,,,,00013,001,2025-11-15_17h55.05.651,MST_test,2024.2.0,59.78083151553864,2025-11-15 17h55.16.235331 +0530,
145,0,146,o,1.1127762000000985,None,146,0,145,439.88510819999965,,,,,,,,,,,,,,,,,,,,,,,,,,,,,,,,,,,,,,,,,,,,,,,,,,439.87048219999997,439.88510819999965,440.38976950000006,440.36980700000004,440.3866565999997,440.38976950000006,440.38976950000006,440.38976950000006,441.50437029999966,Scenes\141a.jpg,pre,o,1.1127762000000985,None,,,,,,,,00013,001,2025-11-15_17h55.05.651,MST_test,2024.2.0,59.78083151553864,2025-11-15 17h55.16.235331 +0530,
146,0,147,o,1.0909676999999647,None,147,0,146,441.5185604999997,,,,,,,,,,,,,,,,,,,,,,,,,,,,,,,,,,,,,,,,,,,,,,,,,,441.5047222999997,441.5185604999997,442.0192133999999,442.0025654000001,442.01530189999994,442.0192133999999,442.0192133999999,442.0192133999999,443.12110029999985,Scenes\086a.jpg,mid,o,1.0909676999999647,None,,,,,,,,00013,001,2025-11-15_17h55.05.651,MST_test,2024.2.0,59.78083151553864,2025-11-15 17h55.16.235331 +0530,
147,0,148,o,1.1625152000001435,None,148,0,147,443.1351116999999,,,,,,,,,,,,,,,,,,,,,,,,,,,,,,,,,,,,,,,,,,,,,,,,,,443.12148709999974,443.1351116999999,443.63586269999996,443.6195806999999,443.63162220000004,443.63586269999996,443.63586269999996,443.63586269999996,444.80430879999994,Scenes\178a.jpg,mid,o,1.1625152000001435,None,,,,,,,,00013,001,2025-11-15_17h55.05.651,MST_test,2024.2.0,59.78083151553864,2025-11-15 17h55.16.235331 +0530,
148,0,149,o,1.1830462999996598,None,149,0,148,444.8186606999998,,,,,,,,,,,,,,,,,,,,,,,,,,,,,,,,,,,,,,,,,,,,,,,,,,444.8046224999998,444.8186606999998,445.3192273999998,445.30330779999986,445.3101598999997,445.3192273999998,445.3192273999998,445.3192273999998,446.50446729999976,Objects\076a.jpg,pre,o,1.1830462999996598,None,,,,,,,,00013,001,2025-11-15_17h55.05.651,MST_test,2024.2.0,59.78083151553864,2025-11-15 17h55.16.235331 +0530,
149,0,150,o,0.7798824000001332,None,150,0,149,446.5185855999998,,,,,,,,,,,,,,,,,,,,,,,,,,,,,,,,,,,,,,,,,,,,,,,,,,446.5048297999997,446.5185855999998,447.0189532999998,447.00357140000006,447.01663489999964,447.0189532999998,447.0189532999998,447.0189532999998,447.8037187,Objects\084a.jpg,pre,o,0.7798824000001332,None,,,,,,,,00013,001,2025-11-15_17h55.05.651,MST_test,2024.2.0,59.78083151553864,2025-11-15 17h55.16.235331 +0530,
,,,,,,,,,,,,,,,,,,,,,,,,,,,,,,,,,,,,,,,,,,,,,,,,,,,,,,,,,,,,,,,,,,,,,,,,,447.8038938999998,447.81852679999974,447.81852679999974,458.4037656999999,space,10.572317899999689,None,00013,001,2025-11-15_17h55.05.651,MST_test,2024.2.0,59.78083151553864,2025-11-15 17h55.16.235331 +0530,
