thisN,thisTrialN,thisRepN,key_resp_3.keys,key_resp_3.rt,key_resp_3.duration,trials.thisRepN,trials.thisTrialN,trials.thisN,thisRow.t,notes,intro_page.started,text.started,key_resp.started,intro_page.stopped,key_resp.keys,key_resp.rt,key_resp.duration,instructions.started,text_2.started,key_resp_2.started,instructions.stopped,key_resp_2.keys,key_resp_2.rt,key_resp_2.duration,demo1.started,image_1.started,image_2.started,text_7.started,key_resp_6.started,text_9.started,demo1.stopped,key_resp_6.keys,key_resp_6.rt,key_resp_6.duration,demo2.started,image_5.started,image_6.started,text_11.started,text_12.started,key_resp_8.started,demo2.stopped,key_resp_8.keys,key_resp_8.rt,key_resp_8.duration,demo_conclusion.started,text_13.started,key_resp_9.started,demo_conclusion.stopped,key_resp_9.keys,key_resp_9.rt,key_resp_9.duration,start_test.started,text_6.started,key_resp_5.started,start_test.stopped,key_resp_5.keys,key_resp_5.rt,key_resp_5.duration,ISI.started,text_4.started,text_4.stopped,ISI.stopped,routine_1.started,image.started,text_3.started,key_resp_3.started,routine_1.stopped,image_path,position_of_stimuli,trials.key_resp_3.keys,trials.key_resp_3.rt,trials.key_resp_3.duration,End_page.started,text_5.started,key_resp_4.started,End_page.stopped,key_resp_4.keys,key_resp_4.rt,key_resp_4.duration,participant,session,date,expName,psychopyVersion,frameRate,expStart,
,,,,,,,,,,,0.0012450999929569662,0.002984099992318079,0.002984099992318079,2.282603499988909,space,2.269418300013058,None,,,,,,,,,,,,,,,,,,,,,,,,,,,,,,,,,,,,,,,,,,,,,,,,,,,,,,,,,,,,,,,00020,001,2026-01-20_16h39.03.637,MST_test,2024.2.0,60.13695590309493,2026-01-20 16h39.18.995461 +0530,
,,,,,,,,,,,,,,,,,,2.2827303999947617,2.2945902999927057,2.2945902999927057,12.84346160000132,space,10.5464428000123,None,,,,,,,,,,,,,,,,,,,,,,,,,,,,,,,,,,,,,,,,,,,,,,,,,,,,,,,,00020,001,2026-01-20_16h39.03.637,MST_test,2024.2.0,60.13695590309493,2026-01-20 16h39.18.995461 +0530,
,,,,,,,,,,,,,,,,,,,,,,,,,12.843547099997522,12.884107699996093,12.884107699996093,12.884107699996093,12.884107699996093,12.884107699996093,19.543946899997536,space,6.651804299996002,None,,,,,,,,,,,,,,,,,,,,,,,,,,,,,,,,,,,,,,,,,,,,,,00020,001,2026-01-20_16h39.03.637,MST_test,2024.2.0,60.13695590309493,2026-01-20 16h39.18.995461 +0530,
,,,,,,,,,,,,,,,,,,,,,,,,,,,,,,,,,,,19.544062399989343,19.558764099987457,19.558764099987457,19.558764099987457,19.558764099987457,19.558764099987457,22.793733399987104,space,3.2175243999954546,None,,,,,,,,,,,,,,,,,,,,,,,,,,,,,,,,,,,,00020,001,2026-01-20_16h39.03.637,MST_test,2024.2.0,60.13695590309493,2026-01-20 16h39.18.995461 +0530,
,,,,,,,,,,,,,,,,,,,,,,,,,,,,,,,,,,,,,,,,,,,,,22.793851299997186,22.808196999991196,22.808196999991196,108.54393659999187,space,85.72847349999938,None,,,,,,,,,,,,,,,,,,,,,,,,,,,,,00020,001,2026-01-20_16h39.03.637,MST_test,2024.2.0,60.13695590309493,2026-01-20 16h39.18.995461 +0530,
,,,,,,,,,,,,,,,,,,,,,,,,,,,,,,,,,,,,,,,,,,,,,,,,,,,,108.54406219998782,108.55827669998689,108.55827669998689,120.79388149999431,space,12.226575300010154,None,,,,,,,,,,,,,,,,,,,,,,00020,001,2026-01-20_16h39.03.637,MST_test,2024.2.0,60.13695590309493,2026-01-20 16h39.18.995461 +0530,
0,0,1,o,3.658115900005214,None,1,0,0,120.8083872999996,,,,,,,,,,,,,,,,,,,,,,,,,,,,,,,,,,,,,,,,,,,,,,,,,,120.80154489999404,120.8083872999996,121.31006249999336,121.29269229999045,121.30744449999474,121.31006249999336,121.31006249999336,121.31006249999336,124.97705859999405,Objects\128a.jpg,mid,o,3.658115900005214,None,,,,,,,,00020,001,2026-01-20_16h39.03.637,MST_test,2024.2.0,60.13695590309493,2026-01-20 16h39.18.995461 +0530,
1,0,2,o,1.925064700000803,None,2,0,1,124.99163159998716,,,,,,,,,,,,,,,,,,,,,,,,,,,,,,,,,,,,,,,,,,,,,,,,,,124.97741829999723,124.99163159998716,125.4918403999909,125.4760144999891,125.4816051999951,125.4918403999909,125.4918403999909,125.4918403999909,127.42688369999814,Objects\107a.jpg,mid,o,1.925064700000803,None,,,,,,,,00020,001,2026-01-20_16h39.03.637,MST_test,2024.2.0,60.13695590309493,2026-01-20 16h39.18.995461 +0530,
2,0,3,s,5.061258100002306,None,3,0,2,127.44174359999306,,,,,,,,,,,,,,,,,,,,,,,,,,,,,,,,,,,,,,,,,,,,,,,,,,127.42717269998684,127.44174359999306,127.94672139998875,127.92619809998723,127.9440220999968,127.94672139998875,127.94672139998875,127.94672139998875,133.01102700000047,Scenes\065a.jpg,pre,s,5.061258100002306,None,,,,,,,,00020,001,2026-01-20_16h39.03.637,MST_test,2024.2.0,60.13695590309493,2026-01-20 16h39.18.995461 +0530,
3,0,4,o,3.683157099992968,None,4,0,3,133.0247750999988,,,,,,,,,,,,,,,,,,,,,,,,,,,,,,,,,,,,,,,,,,,,,,,,,,133.01142619999882,133.0247750999988,133.52488989999983,133.50929119999637,133.52199629999814,133.52488989999983,133.52488989999983,133.52488989999983,137.21026100000017,Objects\070a.jpg,mid,o,3.683157099992968,None,,,,,,,,00020,001,2026-01-20_16h39.03.637,MST_test,2024.2.0,60.13695590309493,2026-01-20 16h39.18.995461 +0530,
4,0,5,s,6.828670799994143,None,5,0,4,137.22514129999036,,,,,,,,,,,,,,,,,,,,,,,,,,,,,,,,,,,,,,,,,,,,,,,,,,137.21049279998988,137.22514129999036,137.7393849999935,137.70921859999362,137.73659380000026,137.7393849999935,137.7393849999935,137.7393849999935,144.57667499998934,Objects\168b.jpg,pre,s,6.828670799994143,None,,,,,,,,00020,001,2026-01-20_16h39.03.637,MST_test,2024.2.0,60.13695590309493,2026-01-20 16h39.18.995461 +0530,
5,0,6,o,6.5806268000014825,None,6,0,5,144.59150029999728,,,,,,,,,,,,,,,,,,,,,,,,,,,,,,,,,,,,,,,,,,,,,,,,,,144.57701739999175,144.59150029999728,145.09207210000022,145.0758014999883,145.0882421999995,145.09207210000022,145.09207210000022,145.09207210000022,151.6768926999939,Scenes\074a.jpg,post,o,6.5806268000014825,None,,,,,,,,00020,001,2026-01-20_16h39.03.637,MST_test,2024.2.0,60.13695590309493,2026-01-20 16h39.18.995461 +0530,
6,0,7,s,2.539091600003303,None,7,0,6,151.6915830999933,,,,,,,,,,,,,,,,,,,,,,,,,,,,,,,,,,,,,,,,,,,,,,,,,,151.67729339998914,151.6915830999933,152.20484259999648,152.17597810000007,152.20196159998886,152.20484259999648,152.20484259999648,152.20484259999648,154.76039689999016,Objects\177b.jpg,post,s,2.539091600003303,None,,,,,,,,00020,001,2026-01-20_16h39.03.637,MST_test,2024.2.0,60.13695590309493,2026-01-20 16h39.18.995461 +0530,
7,0,8,s,11.22957929999393,None,8,0,7,154.77484619998722,,,,,,,,,,,,,,,,,,,,,,,,,,,,,,,,,,,,,,,,,,,,,,,,,,154.76064029999543,154.77484619998722,155.27594329998828,155.25964239999303,155.26752169999236,155.27594329998828,155.27594329998828,155.27594329998828,166.5105421999906,Objects\157b.jpg,pre,s,11.22957929999393,None,,,,,,,,00020,001,2026-01-20_16h39.03.637,MST_test,2024.2.0,60.13695590309493,2026-01-20 16h39.18.995461 +0530,
8,0,9,n,7.89594550000038,None,9,0,8,166.5248339999962,,,,,,,,,,,,,,,,,,,,,,,,,,,,,,,,,,,,,,,,,,,,,,,,,,166.51095579999674,166.5248339999962,167.02511709999817,167.00934309999866,167.01713979999477,167.02511709999817,167.02511709999817,167.02511709999817,174.92672389998916,Objects\029b.jpg,post,n,7.89594550000038,None,,,,,,,,00020,001,2026-01-20_16h39.03.637,MST_test,2024.2.0,60.13695590309493,2026-01-20 16h39.18.995461 +0530,
9,0,10,s,3.7256841999915196,None,10,0,9,174.94161280000117,,,,,,,,,,,,,,,,,,,,,,,,,,,,,,,,,,,,,,,,,,,,,,,,,,174.92696779999824,174.94161280000117,175.47565769999346,175.4257360999909,175.4726013999898,175.47565769999346,175.47565769999346,175.47565769999346,179.21055179998802,Foils\073a.jpg,none,s,3.7256841999915196,None,,,,,,,,00020,001,2026-01-20_16h39.03.637,MST_test,2024.2.0,60.13695590309493,2026-01-20 16h39.18.995461 +0530,
10,0,11,s,2.6660064999887254,None,11,0,10,179.22488989999692,,,,,,,,,,,,,,,,,,,,,,,,,,,,,,,,,,,,,,,,,,,,,,,,,,179.21080859999347,179.22488989999692,179.72655789999408,179.70928009999625,179.7231172999891,179.72655789999408,179.72655789999408,179.72655789999408,182.40991529999883,Scenes\186a.jpg,post,s,2.6660064999887254,None,,,,,,,,00020,001,2026-01-20_16h39.03.637,MST_test,2024.2.0,60.13695590309493,2026-01-20 16h39.18.995461 +0530,
11,0,12,o,2.8917141999991145,None,12,0,11,182.42514179999125,,,,,,,,,,,,,,,,,,,,,,,,,,,,,,,,,,,,,,,,,,,,,,,,,,182.41013509999902,182.42514179999125,182.92540209999424,182.90948139999819,182.91993540000112,182.92540209999424,182.92540209999424,182.92540209999424,185.82706779999717,Objects\058a.jpg,mid,o,2.8917141999991145,None,,,,,,,,00020,001,2026-01-20_16h39.03.637,MST_test,2024.2.0,60.13695590309493,2026-01-20 16h39.18.995461 +0530,
12,0,13,s,1.6392679999989923,None,13,0,12,185.841583299989,,,,,,,,,,,,,,,,,,,,,,,,,,,,,,,,,,,,,,,,,,,,,,,,,,185.82746209998732,185.841583299989,186.36111800000072,186.32591149999644,186.35733139999502,186.36111800000072,186.36111800000072,186.36111800000072,188.0101769999892,Objects\170b.jpg,post,s,1.6392679999989923,None,,,,,,,,00020,001,2026-01-20_16h39.03.637,MST_test,2024.2.0,60.13695590309493,2026-01-20 16h39.18.995461 +0530,
13,0,14,s,2.834897299995646,None,14,0,13,188.02476889999525,,,,,,,,,,,,,,,,,,,,,,,,,,,,,,,,,,,,,,,,,,,,,,,,,,188.0105232999922,188.02476889999525,188.5255247999885,188.50924719999603,188.51553489999787,188.5255247999885,188.5255247999885,188.5255247999885,191.37687449999794,Objects\028b.jpg,post,s,2.834897299995646,None,,,,,,,,00020,001,2026-01-20_16h39.03.637,MST_test,2024.2.0,60.13695590309493,2026-01-20 16h39.18.995461 +0530,
14,0,15,o,10.025165700004436,None,15,0,14,191.39180179999676,,,,,,,,,,,,,,,,,,,,,,,,,,,,,,,,,,,,,,,,,,,,,,,,,,191.37722689998918,191.39180179999676,191.89477699999406,191.87656649999553,191.89162979999674,191.89477699999406,191.89477699999406,191.89477699999406,201.92812389999744,Scenes\116a.jpg,post,o,10.025165700004436,None,,,,,,,,00020,001,2026-01-20_16h39.03.637,MST_test,2024.2.0,60.13695590309493,2026-01-20 16h39.18.995461 +0530,
15,0,16,s,1.6852800000051502,None,16,0,15,201.94148289998702,,,,,,,,,,,,,,,,,,,,,,,,,,,,,,,,,,,,,,,,,,,,,,,,,,201.92851659998996,201.94148289998702,202.4585051999893,202.42621130000043,202.45577209998737,202.4585051999893,202.4585051999893,202.4585051999893,204.16030609999143,Objects\143b.jpg,mid,s,1.6852800000051502,None,,,,,,,,00020,001,2026-01-20_16h39.03.637,MST_test,2024.2.0,60.13695590309493,2026-01-20 16h39.18.995461 +0530,
16,0,17,o,1.8273728999920422,None,17,0,16,204.174829399999,,,,,,,,,,,,,,,,,,,,,,,,,,,,,,,,,,,,,,,,,,,,,,,,,,204.1605644999945,204.174829399999,204.67691099998774,204.65923369998927,204.67370759999903,204.67691099998774,204.67691099998774,204.67691099998774,206.51038199999311,Scenes\007a.jpg,pre,o,1.8273728999920422,None,,,,,,,,00020,001,2026-01-20_16h39.03.637,MST_test,2024.2.0,60.13695590309493,2026-01-20 16h39.18.995461 +0530,
17,0,18,n,3.2383045999886235,None,18,0,17,206.5248256999912,,,,,,,,,,,,,,,,,,,,,,,,,,,,,,,,,,,,,,,,,,,,,,,,,,206.51062659999297,206.5248256999912,207.02534779999405,207.00949440000113,207.01605709998694,207.02534779999405,207.02534779999405,207.02534779999405,210.27680269999837,Foils\scenes3.jpg,none,n,3.2383045999886235,None,,,,,,,,00020,001,2026-01-20_16h39.03.637,MST_test,2024.2.0,60.13695590309493,2026-01-20 16h39.18.995461 +0530,
18,0,19,s,3.0773394999996526,None,19,0,18,210.2914477000013,,,,,,,,,,,,,,,,,,,,,,,,,,,,,,,,,,,,,,,,,,,,,,,,,,210.27704639999138,210.2914477000013,210.79454249999253,210.77604059998703,210.79144079999242,210.79454249999253,210.79454249999253,210.79454249999253,213.87706769999932,Scenes\100a.jpg,mid,s,3.0773394999996526,None,,,,,,,,00020,001,2026-01-20_16h39.03.637,MST_test,2024.2.0,60.13695590309493,2026-01-20 16h39.18.995461 +0530,
19,0,20,o,3.472382200008724,None,20,0,19,213.89161339998827,,,,,,,,,,,,,,,,,,,,,,,,,,,,,,,,,,,,,,,,,,,,,,,,,,213.87734179999097,213.89161339998827,214.4802434000012,214.3757789999945,214.47727999999188,214.4802434000012,214.4802434000012,214.4802434000012,217.96012019999034,Scenes\192b.jpg,post,o,3.472382200008724,None,,,,,,,,00020,001,2026-01-20_16h39.03.637,MST_test,2024.2.0,60.13695590309493,2026-01-20 16h39.18.995461 +0530,
20,0,21,n,3.8337901000049897,None,21,0,20,217.97499279999465,,,,,,,,,,,,,,,,,,,,,,,,,,,,,,,,,,,,,,,,,,,,,,,,,,217.96052189999318,217.97499279999465,218.5030540000007,218.45917579998786,218.50002649999806,218.5030540000007,218.5030540000007,218.5030540000007,222.34375339999679,Foils\scenes22.jpg,none,n,3.8337901000049897,None,,,,,,,,00020,001,2026-01-20_16h39.03.637,MST_test,2024.2.0,60.13695590309493,2026-01-20 16h39.18.995461 +0530,
21,0,22,s,9.160167000009096,None,22,0,21,222.35814349999418,,,,,,,,,,,,,,,,,,,,,,,,,,,,,,,,,,,,,,,,,,,,,,,,,,222.34409069998947,222.35814349999418,222.87222259999544,222.84284489999118,222.8693937999924,222.87222259999544,222.87222259999544,222.87222259999544,232.04371369999717,Objects\043b.jpg,post,s,9.160167000009096,None,,,,,,,,00020,001,2026-01-20_16h39.03.637,MST_test,2024.2.0,60.13695590309493,2026-01-20 16h39.18.995461 +0530,
22,0,23,o,1.9449447999941185,None,23,0,22,232.05842279999342,,,,,,,,,,,,,,,,,,,,,,,,,,,,,,,,,,,,,,,,,,,,,,,,,,232.04400460000033,232.05842279999342,232.55893569999898,232.54271889998927,232.55612389999442,232.55893569999898,232.55893569999898,232.55893569999898,234.51013409999723,Scenes\109a.jpg,pre,o,1.9449447999941185,None,,,,,,,,00020,001,2026-01-20_16h39.03.637,MST_test,2024.2.0,60.13695590309493,2026-01-20 16h39.18.995461 +0530,
23,0,24,o,1.950940399998217,None,24,0,23,234.52487549999205,,,,,,,,,,,,,,,,,,,,,,,,,,,,,,,,,,,,,,,,,,,,,,,,,,234.51052959999652,234.52487549999205,235.0256120999984,235.0092474999983,235.02157949999673,235.0256120999984,235.0256120999984,235.0256120999984,236.97873589998926,Scenes\111a.jpg,post,o,1.950940399998217,None,,,,,,,,00020,001,2026-01-20_16h39.03.637,MST_test,2024.2.0,60.13695590309493,2026-01-20 16h39.18.995461 +0530,
24,0,25,n,3.285865499987267,None,25,0,24,236.99162729999807,,,,,,,,,,,,,,,,,,,,,,,,,,,,,,,,,,,,,,,,,,,,,,,,,,236.97906599999988,236.99162729999807,237.50645190000068,237.47607499999867,237.50391069999023,237.50645190000068,237.50645190000068,237.50645190000068,240.79452649998711,Foils\033a.jpg,none,n,3.285865499987267,None,,,,,,,,00020,001,2026-01-20_16h39.03.637,MST_test,2024.2.0,60.13695590309493,2026-01-20 16h39.18.995461 +0530,
25,0,26,o,11.913193400003365,None,26,0,25,240.8081902999984,,,,,,,,,,,,,,,,,,,,,,,,,,,,,,,,,,,,,,,,,,,,,,,,,,240.7948827999935,240.8081902999984,241.3112759999931,241.29282239999156,241.30855789998895,241.3112759999931,241.3112759999931,241.3112759999931,253.2270939000009,Scenes\119b.jpg,mid,o,11.913193400003365,None,,,,,,,,00020,001,2026-01-20_16h39.03.637,MST_test,2024.2.0,60.13695590309493,2026-01-20 16h39.18.995461 +0530,
26,0,27,n,3.986406900003203,None,27,0,26,253.24156999999832,,,,,,,,,,,,,,,,,,,,,,,,,,,,,,,,,,,,,,,,,,,,,,,,,,253.22749579999072,253.24156999999832,253.7421578999929,253.72581689999788,253.73323079998954,253.7421578999929,253.7421578999929,253.7421578999929,257.7440354999999,Foils\scenes1.jpg,none,n,3.986406900003203,None,,,,,,,,00020,001,2026-01-20_16h39.03.637,MST_test,2024.2.0,60.13695590309493,2026-01-20 16h39.18.995461 +0530,
27,0,28,n,2.3664533000119263,None,28,0,27,257.7582667999959,,,,,,,,,,,,,,,,,,,,,,,,,,,,,,,,,,,,,,,,,,,,,,,,,,257.74443729998893,257.7582667999959,258.2586936000007,258.24273739999626,258.2508616999985,258.2586936000007,258.2586936000007,258.2586936000007,260.6273530999897,Scenes\053b.jpg,mid,n,2.3664533000119263,None,,,,,,,,00020,001,2026-01-20_16h39.03.637,MST_test,2024.2.0,60.13695590309493,2026-01-20 16h39.18.995461 +0530,
28,0,29,o,1.6750737000111258,None,29,0,28,260.641664099996,,,,,,,,,,,,,,,,,,,,,,,,,,,,,,,,,,,,,,,,,,,,,,,,,,260.6277596,260.641664099996,261.14187709998805,261.1260589000012,261.13562909999746,261.14187709998805,261.14187709998805,261.14187709998805,262.82673899999645,Objects\104a.jpg,mid,o,1.6750737000111258,None,,,,,,,,00020,001,2026-01-20_16h39.03.637,MST_test,2024.2.0,60.13695590309493,2026-01-20 16h39.18.995461 +0530,
29,0,30,n,3.1043819000042276,None,30,0,29,262.8416099999886,,,,,,,,,,,,,,,,,,,,,,,,,,,,,,,,,,,,,,,,,,,,,,,,,,262.82713369998964,262.8416099999886,263.3765663999948,263.32616319999215,263.3739973999909,263.3765663999948,263.3765663999948,263.3765663999948,266.49367519999214,Foils\058a.jpg,none,n,3.1043819000042276,None,,,,,,,,00020,001,2026-01-20_16h39.03.637,MST_test,2024.2.0,60.13695590309493,2026-01-20 16h39.18.995461 +0530,
30,0,31,n,3.1146903000044404,None,31,0,30,266.50837079998746,,,,,,,,,,,,,,,,,,,,,,,,,,,,,,,,,,,,,,,,,,,,,,,,,,266.4940147999878,266.50837079998746,267.0218548999983,266.9927452999982,267.0187880000012,267.0218548999983,267.0218548999983,267.0218548999983,270.14371329999994,Foils\scenes18.jpg,none,n,3.1146903000044404,None,,,,,,,,00020,001,2026-01-20_16h39.03.637,MST_test,2024.2.0,60.13695590309493,2026-01-20 16h39.18.995461 +0530,
31,0,32,o,3.61597410000104,None,32,0,31,270.1593284999981,,,,,,,,,,,,,,,,,,,,,,,,,,,,,,,,,,,,,,,,,,,,,,,,,,270.14411569999356,270.1593284999981,270.67994849999377,270.6427546999912,270.6765192999883,270.67994849999377,270.67994849999377,270.67994849999377,274.31033319998824,Objects\094b.jpg,mid,o,3.61597410000104,None,,,,,,,,00020,001,2026-01-20_16h39.03.637,MST_test,2024.2.0,60.13695590309493,2026-01-20 16h39.18.995461 +0530,
32,0,33,s,3.0740355999878375,None,33,0,32,274.32495819999895,,,,,,,,,,,,,,,,,,,,,,,,,,,,,,,,,,,,,,,,,,,,,,,,,,274.3107401999878,274.32495819999895,274.8468618999905,274.8092950999999,274.84424049999507,274.8468618999905,274.8468618999905,274.8468618999905,277.9265340999991,Scenes\191b.jpg,mid,s,3.0740355999878375,None,,,,,,,,00020,001,2026-01-20_16h39.03.637,MST_test,2024.2.0,60.13695590309493,2026-01-20 16h39.18.995461 +0530,
33,0,34,o,1.958327400003327,None,34,0,33,277.9416084999975,,,,,,,,,,,,,,,,,,,,,,,,,,,,,,,,,,,,,,,,,,,,,,,,,,277.92687009999645,277.9416084999975,278.44275019998895,278.42596239999693,278.43176129998756,278.44275019998895,278.44275019998895,278.44275019998895,280.4112341,Objects\110a.jpg,mid,o,1.958327400003327,None,,,,,,,,00020,001,2026-01-20_16h39.03.637,MST_test,2024.2.0,60.13695590309493,2026-01-20 16h39.18.995461 +0530,
34,0,35,n,2.238728700001957,None,35,0,34,280.4248626999906,,,,,,,,,,,,,,,,,,,,,,,,,,,,,,,,,,,,,,,,,,,,,,,,,,280.41163979998964,280.4248626999906,280.94575139999506,280.9093697999924,280.9425513999886,280.94575139999506,280.94575139999506,280.94575139999506,283.1938852999883,Foils\scenes13.jpg,none,n,2.238728700001957,None,,,,,,,,00020,001,2026-01-20_16h39.03.637,MST_test,2024.2.0,60.13695590309493,2026-01-20 16h39.18.995461 +0530,
35,0,36,s,3.9676120999938576,None,36,0,35,283.2083391999913,,,,,,,,,,,,,,,,,,,,,,,,,,,,,,,,,,,,,,,,,,,,,,,,,,283.1941816999897,283.2083391999913,283.728019999995,283.6929170999938,283.72513289999915,283.728019999995,283.728019999995,283.728019999995,287.7103075999912,Objects\163b.jpg,pre,s,3.9676120999938576,None,,,,,,,,00020,001,2026-01-20_16h39.03.637,MST_test,2024.2.0,60.13695590309493,2026-01-20 16h39.18.995461 +0530,
36,0,37,s,7.508912099990994,None,37,0,36,287.7247701999877,,,,,,,,,,,,,,,,,,,,,,,,,,,,,,,,,,,,,,,,,,,,,,,,,,287.71062769999844,287.7247701999877,288.25123449999955,288.2092011999921,288.24773269999423,288.25123449999955,288.25123449999955,288.25123449999955,295.7766158000013,Scenes\182b.jpg,pre,s,7.508912099990994,None,,,,,,,,00020,001,2026-01-20_16h39.03.637,MST_test,2024.2.0,60.13695590309493,2026-01-20 16h39.18.995461 +0530,
37,0,38,o,1.5806511999981012,None,38,0,37,295.7916752999881,,,,,,,,,,,,,,,,,,,,,,,,,,,,,,,,,,,,,,,,,,,,,,,,,,295.7769392999908,295.7916752999881,296.29226149999886,296.2759281999897,296.2816177999921,296.29226149999886,296.29226149999886,296.29226149999886,297.87717339998926,Objects\098a.jpg,pre,o,1.5806511999981012,None,,,,,,,,00020,001,2026-01-20_16h39.03.637,MST_test,2024.2.0,60.13695590309493,2026-01-20 16h39.18.995461 +0530,
38,0,39,o,3.441292000003159,None,39,0,38,297.8917270999955,,,,,,,,,,,,,,,,,,,,,,,,,,,,,,,,,,,,,,,,,,,,,,,,,,297.877493699998,297.8917270999955,298.3917919999949,298.375839299988,298.3831199999986,298.3917919999949,298.3917919999949,298.3917919999949,301.8435757999978,Objects\068a.jpg,post,o,3.441292000003159,None,,,,,,,,00020,001,2026-01-20_16h39.03.637,MST_test,2024.2.0,60.13695590309493,2026-01-20 16h39.18.995461 +0530,
39,0,40,s,6.106319300000905,None,40,0,39,301.85834259999683,,,,,,,,,,,,,,,,,,,,,,,,,,,,,,,,,,,,,,,,,,,,,,,,,,301.8439098999952,301.85834259999683,302.42241859999194,302.3426577999926,302.4194504999905,302.42241859999194,302.42241859999194,302.42241859999194,308.543402700001,Objects\091b.jpg,pre,s,6.106319300000905,None,,,,,,,,00020,001,2026-01-20_16h39.03.637,MST_test,2024.2.0,60.13695590309493,2026-01-20 16h39.18.995461 +0530,
40,0,41,n,2.5396706000028644,None,41,0,40,308.55851919999986,,,,,,,,,,,,,,,,,,,,,,,,,,,,,,,,,,,,,,,,,,,,,,,,,,308.5437314999872,308.55851919999986,309.07717299999786,309.0429998999898,309.0746775000007,309.07717299999786,309.07717299999786,309.07717299999786,311.62698779998755,Foils\057a.jpg,none,n,2.5396706000028644,None,,,,,,,,00020,001,2026-01-20_16h39.03.637,MST_test,2024.2.0,60.13695590309493,2026-01-20 16h39.18.995461 +0530,
41,0,42,o,1.3554274999914924,None,42,0,41,311.64155209998717,,,,,,,,,,,,,,,,,,,,,,,,,,,,,,,,,,,,,,,,,,,,,,,,,,311.62729849999596,311.64155209998717,312.15618999999424,312.12595629999123,312.15321789999143,312.15618999999424,312.15618999999424,312.15618999999424,313.52682139999524,Objects\047b.jpg,pre,o,1.3554274999914924,None,,,,,,,,00020,001,2026-01-20_16h39.03.637,MST_test,2024.2.0,60.13695590309493,2026-01-20 16h39.18.995461 +0530,
42,0,43,o,3.511076899987529,None,43,0,42,313.54163680000056,,,,,,,,,,,,,,,,,,,,,,,,,,,,,,,,,,,,,,,,,,,,,,,,,,313.52711989999807,313.54163680000056,314.04209839999385,314.026005599997,314.0313325999887,314.04209839999385,314.04209839999385,314.04209839999385,317.5602274999983,Objects\095a.jpg,mid,o,3.511076899987529,None,,,,,,,,00020,001,2026-01-20_16h39.03.637,MST_test,2024.2.0,60.13695590309493,2026-01-20 16h39.18.995461 +0530,
43,0,44,s,3.10083090000262,None,44,0,43,317.5753495999961,,,,,,,,,,,,,,,,,,,,,,,,,,,,,,,,,,,,,,,,,,,,,,,,,,317.56047499999113,317.5753495999961,318.07562920000055,318.05921949999174,318.0644464999932,318.07562920000055,318.07562920000055,318.07562920000055,321.19341009999334,Foils\scenes29.jpg,none,s,3.10083090000262,None,,,,,,,,00020,001,2026-01-20_16h39.03.637,MST_test,2024.2.0,60.13695590309493,2026-01-20 16h39.18.995461 +0530,
44,0,45,o,1.3079507000074955,None,45,0,44,321.2081435,,,,,,,,,,,,,,,,,,,,,,,,,,,,,,,,,,,,,,,,,,,,,,,,,,321.19382499999483,321.2081435,321.7085201999871,321.6926939999976,321.7014242000005,321.7085201999871,321.7085201999871,321.7085201999871,323.02666039999167,Objects\115a.jpg,pre,o,1.3079507000074955,None,,,,,,,,00020,001,2026-01-20_16h39.03.637,MST_test,2024.2.0,60.13695590309493,2026-01-20 16h39.18.995461 +0530,
45,0,46,o,1.7391805999941425,None,46,0,45,323.04186329999357,,,,,,,,,,,,,,,,,,,,,,,,,,,,,,,,,,,,,,,,,,,,,,,,,,323.0269081000006,323.04186329999357,323.54179039999144,323.52621949999593,323.53195639999467,323.54179039999144,323.54179039999144,323.54179039999144,325.2933316999988,Objects\041a.jpg,post,o,1.7391805999941425,None,,,,,,,,00020,001,2026-01-20_16h39.03.637,MST_test,2024.2.0,60.13695590309493,2026-01-20 16h39.18.995461 +0530,
46,0,47,n,2.280568799993489,None,47,0,46,325.3081860999955,,,,,,,,,,,,,,,,,,,,,,,,,,,,,,,,,,,,,,,,,,,,,,,,,,325.2935937000002,325.3081860999955,325.82433469999523,325.79254909999145,325.82168019999517,325.82433469999523,325.82433469999523,325.82433469999523,328.11081929999636,Foils\020b.jpg,none,n,2.280568799993489,None,,,,,,,,00020,001,2026-01-20_16h39.03.637,MST_test,2024.2.0,60.13695590309493,2026-01-20 16h39.18.995461 +0530,
47,0,48,n,1.0277523999975529,None,48,0,47,328.1249614999979,,,,,,,,,,,,,,,,,,,,,,,,,,,,,,,,,,,,,,,,,,,,,,,,,,328.111118899993,328.1249614999979,328.637084099988,328.60948780000035,328.63431399999536,328.637084099988,328.637084099988,328.637084099988,329.6767235999869,Foils\scenes5.jpg,none,n,1.0277523999975529,None,,,,,,,,00020,001,2026-01-20_16h39.03.637,MST_test,2024.2.0,60.13695590309493,2026-01-20 16h39.18.995461 +0530,
48,0,49,s,5.496007499998086,None,49,0,48,329.69163169999956,,,,,,,,,,,,,,,,,,,,,,,,,,,,,,,,,,,,,,,,,,,,,,,,,,329.67708109998784,329.69163169999956,330.19235909999406,330.1760757000011,330.1850737999921,330.19235909999406,330.19235909999406,330.19235909999406,335.69365539999853,Objects\102a.jpg,pre,s,5.496007499998086,None,,,,,,,,00020,001,2026-01-20_16h39.03.637,MST_test,2024.2.0,60.13695590309493,2026-01-20 16h39.18.995461 +0530,
49,0,50,n,5.3617902000114555,None,50,0,49,335.7079279999889,,,,,,,,,,,,,,,,,,,,,,,,,,,,,,,,,,,,,,,,,,,,,,,,,,335.69400619999215,335.7079279999889,336.2302035999892,336.19259439999587,336.2272559999983,336.2302035999892,336.2302035999892,336.2302035999892,341.59418839999125,Scenes\169b.jpg,pre,n,5.3617902000114555,None,,,,,,,,00020,001,2026-01-20_16h39.03.637,MST_test,2024.2.0,60.13695590309493,2026-01-20 16h39.18.995461 +0530,
50,0,51,n,6.2223027,None,51,0,50,341.608318300001,,,,,,,,,,,,,,,,,,,,,,,,,,,,,,,,,,,,,,,,,,,,,,,,,,341.59452039998723,341.608318300001,342.12160339999537,342.0927403999958,342.11868409998715,342.12160339999537,342.12160339999537,342.12160339999537,348.3600257999933,Objects\079b.jpg,post,n,6.2223027,None,,,,,,,,00020,001,2026-01-20_16h39.03.637,MST_test,2024.2.0,60.13695590309493,2026-01-20 16h39.18.995461 +0530,
51,0,52,o,1.5290084000007482,None,52,0,51,348.37497219999204,,,,,,,,,,,,,,,,,,,,,,,,,,,,,,,,,,,,,,,,,,,,,,,,,,348.3602802999958,348.37497219999204,348.8791537999932,348.8593089999922,348.87631899998814,348.8791537999932,348.8791537999932,348.8791537999932,350.41117519998807,Scenes\010a.jpg,post,o,1.5290084000007482,None,,,,,,,,00020,001,2026-01-20_16h39.03.637,MST_test,2024.2.0,60.13695590309493,2026-01-20 16h39.18.995461 +0530,
52,0,53,s,1.6390731999999844,None,53,0,52,350.424955999988,,,,,,,,,,,,,,,,,,,,,,,,,,,,,,,,,,,,,,,,,,,,,,,,,,350.4114593999984,350.424955999988,350.94523309999204,350.9093029999931,350.9417500999989,350.94523309999204,350.94523309999204,350.94523309999204,352.59395239999867,Objects\035b.jpg,post,s,1.6390731999999844,None,,,,,,,,00020,001,2026-01-20_16h39.03.637,MST_test,2024.2.0,60.13695590309493,2026-01-20 16h39.18.995461 +0530,
53,0,54,n,5.8397963999887,None,54,0,53,352.60807339999883,,,,,,,,,,,,,,,,,,,,,,,,,,,,,,,,,,,,,,,,,,,,,,,,,,352.59437409999373,352.60807339999883,353.1132349999971,353.0925443999877,353.109252299997,353.1132349999971,353.1132349999971,353.1132349999971,358.9600503999973,Scenes\132a.jpg,pre,n,5.8397963999887,None,,,,,,,,00020,001,2026-01-20_16h39.03.637,MST_test,2024.2.0,60.13695590309493,2026-01-20 16h39.18.995461 +0530,
54,0,55,n,1.0442712000076426,None,55,0,54,358.97496279999905,,,,,,,,,,,,,,,,,,,,,,,,,,,,,,,,,,,,,,,,,,,,,,,,,,358.96038239999325,358.97496279999905,359.4837317999918,359.45926429999236,359.48061519999465,359.4837317999918,359.4837317999918,359.4837317999918,360.5434852999897,Foils\scenes28.jpg,none,n,1.0442712000076426,None,,,,,,,,00020,001,2026-01-20_16h39.03.637,MST_test,2024.2.0,60.13695590309493,2026-01-20 16h39.18.995461 +0530,
55,0,56,s,2.6901894000038737,None,56,0,55,360.558142599999,,,,,,,,,,,,,,,,,,,,,,,,,,,,,,,,,,,,,,,,,,,,,,,,,,360.5437683999917,360.558142599999,361.0628759999963,361.04305999999633,361.0594020999997,361.0628759999963,361.0628759999963,361.0628759999963,363.7599106999987,Scenes\055a.jpg,post,s,2.6901894000038737,None,,,,,,,,00020,001,2026-01-20_16h39.03.637,MST_test,2024.2.0,60.13695590309493,2026-01-20 16h39.18.995461 +0530,
56,0,57,o,1.420713200001046,None,57,0,56,363.77497039998707,,,,,,,,,,,,,,,,,,,,,,,,,,,,,,,,,,,,,,,,,,,,,,,,,,363.7603112999932,363.77497039998707,364.275759799988,364.2593831999984,364.27036450000014,364.275759799988,364.275759799988,364.275759799988,365.7104393999907,Scenes\006a.jpg,mid,o,1.420713200001046,None,,,,,,,,00020,001,2026-01-20_16h39.03.637,MST_test,2024.2.0,60.13695590309493,2026-01-20 16h39.18.995461 +0530,
57,0,58,o,1.0942244999896502,None,58,0,57,365.7248489999911,,,,,,,,,,,,,,,,,,,,,,,,,,,,,,,,,,,,,,,,,,,,,,,,,,365.7107662999915,365.7248489999911,366.22582669999974,366.20944019999297,366.2179046999954,366.22582669999974,366.22582669999974,366.22582669999974,367.32745329999307,Objects\154a.jpg,post,o,1.0942244999896502,None,,,,,,,,00020,001,2026-01-20_16h39.03.637,MST_test,2024.2.0,60.13695590309493,2026-01-20 16h39.18.995461 +0530,
58,0,59,o,2.106648800006951,None,59,0,58,367.34157789999153,,,,,,,,,,,,,,,,,,,,,,,,,,,,,,,,,,,,,,,,,,,,,,,,,,367.3277803999954,367.34157789999153,367.86153339999146,367.8260079999891,367.85900329999276,367.86153339999146,367.86153339999146,367.86153339999146,369.97690650000004,Objects\062b.jpg,mid,o,2.106648800006951,None,,,,,,,,00020,001,2026-01-20_16h39.03.637,MST_test,2024.2.0,60.13695590309493,2026-01-20 16h39.18.995461 +0530,
59,0,60,s,1.5952344000106677,None,60,0,59,369.9915500999923,,,,,,,,,,,,,,,,,,,,,,,,,,,,,,,,,,,,,,,,,,,,,,,,,,369.9772716000007,369.9915500999923,370.5249766999914,370.47605810000096,370.5220674000011,370.5249766999914,370.5249766999914,370.5249766999914,372.1268687999982,Scenes\045b.jpg,post,s,1.5952344000106677,None,,,,,,,,00020,001,2026-01-20_16h39.03.637,MST_test,2024.2.0,60.13695590309493,2026-01-20 16h39.18.995461 +0530,
60,0,61,s,4.433336200003396,None,61,0,60,372.14158979999775,,,,,,,,,,,,,,,,,,,,,,,,,,,,,,,,,,,,,,,,,,,,,,,,,,372.12711339999805,372.14158979999775,372.7353751999908,372.62590679999266,372.7313676999911,372.7353751999908,372.7353751999908,372.7353751999908,377.1767698999902,Objects\013b.jpg,pre,s,4.433336200003396,None,,,,,,,,00020,001,2026-01-20_16h39.03.637,MST_test,2024.2.0,60.13695590309493,2026-01-20 16h39.18.995461 +0530,
61,0,62,s,1.5376766999979736,None,62,0,61,377.19154960000014,,,,,,,,,,,,,,,,,,,,,,,,,,,,,,,,,,,,,,,,,,,,,,,,,,377.17702740000095,377.19154960000014,377.7101554999972,377.67608369998925,377.70742769999197,377.7101554999972,377.7101554999972,377.7101554999972,379.26029109999945,Objects\073b.jpg,post,s,1.5376766999979736,None,,,,,,,,00020,001,2026-01-20_16h39.03.637,MST_test,2024.2.0,60.13695590309493,2026-01-20 16h39.18.995461 +0530,
62,0,63,s,3.197152799999458,None,63,0,62,379.2749752999953,,,,,,,,,,,,,,,,,,,,,,,,,,,,,,,,,,,,,,,,,,,,,,,,,,379.2605198999954,379.2749752999953,379.7946288999956,379.7595149999979,379.7918370999978,379.7946288999956,379.7946288999956,379.7946288999956,382.99387099999876,Foils\018a.jpg,none,s,3.197152799999458,None,,,,,,,,00020,001,2026-01-20_16h39.03.637,MST_test,2024.2.0,60.13695590309493,2026-01-20 16h39.18.995461 +0530,
63,0,64,s,1.715244499995606,None,64,0,63,383.00827339998796,,,,,,,,,,,,,,,,,,,,,,,,,,,,,,,,,,,,,,,,,,,,,,,,,,382.9941448999889,383.00827339998796,383.5337276999926,383.4926868999901,383.53111839998746,383.5337276999926,383.5337276999926,383.5337276999926,385.2606053999916,Objects\169b.jpg,post,s,1.715244499995606,None,,,,,,,,00020,001,2026-01-20_16h39.03.637,MST_test,2024.2.0,60.13695590309493,2026-01-20 16h39.18.995461 +0530,
64,0,65,o,1.6652543999953195,None,65,0,64,385.27488789999916,,,,,,,,,,,,,,,,,,,,,,,,,,,,,,,,,,,,,,,,,,,,,,,,,,385.2608843999915,385.27488789999916,385.7754341999971,385.7596696999972,385.7681777999969,385.7754341999971,385.7754341999971,385.7754341999971,387.4436985999928,Objects\003a.jpg,pre,o,1.6652543999953195,None,,,,,,,,00020,001,2026-01-20_16h39.03.637,MST_test,2024.2.0,60.13695590309493,2026-01-20 16h39.18.995461 +0530,
65,0,66,s,2.8499280999967596,None,66,0,65,387.45823609999206,,,,,,,,,,,,,,,,,,,,,,,,,,,,,,,,,,,,,,,,,,,,,,,,,,387.4440496999887,387.45823609999206,387.9748525999894,387.9431817000004,387.971701699993,387.9748525999894,387.9748525999894,387.9748525999894,390.8270224999869,Objects\180b.jpg,pre,s,2.8499280999967596,None,,,,,,,,00020,001,2026-01-20_16h39.03.637,MST_test,2024.2.0,60.13695590309493,2026-01-20 16h39.18.995461 +0530,
66,0,67,n,1.8666642000025604,None,67,0,66,390.8416479999869,,,,,,,,,,,,,,,,,,,,,,,,,,,,,,,,,,,,,,,,,,,,,,,,,,390.82745579999755,390.8416479999869,391.34195949998684,391.32616849998885,391.3330050999939,391.34195949998684,391.34195949998684,391.34195949998684,393.2107878999959,Foils\scenes11.jpg,none,n,1.8666642000025604,None,,,,,,,,00020,001,2026-01-20_16h39.03.637,MST_test,2024.2.0,60.13695590309493,2026-01-20 16h39.18.995461 +0530,
67,0,68,s,3.8583674999972573,None,68,0,67,393.2249785999884,,,,,,,,,,,,,,,,,,,,,,,,,,,,,,,,,,,,,,,,,,,,,,,,,,393.2110657999874,393.2249785999884,393.72526419999485,393.7098658999894,393.7180701999896,393.72526419999485,393.72526419999485,393.72526419999485,397.59206759999506,Objects\086b.jpg,pre,s,3.8583674999972573,None,,,,,,,,00020,001,2026-01-20_16h39.03.637,MST_test,2024.2.0,60.13695590309493,2026-01-20 16h39.18.995461 +0530,
68,0,69,o,1.550345700001344,None,69,0,68,397.608107299995,,,,,,,,,,,,,,,,,,,,,,,,,,,,,,,,,,,,,,,,,,,,,,,,,,397.59218169999076,397.608107299995,398.11329660000047,398.0927487000008,398.1107023999939,398.11329660000047,398.11329660000047,398.11329660000047,399.676472799998,Objects\082b.jpg,post,o,1.550345700001344,None,,,,,,,,00020,001,2026-01-20_16h39.03.637,MST_test,2024.2.0,60.13695590309493,2026-01-20 16h39.18.995461 +0530,
69,0,70,s,1.8003299999982119,None,70,0,69,399.6914273000002,,,,,,,,,,,,,,,,,,,,,,,,,,,,,,,,,,,,,,,,,,,,,,,,,,399.6767451999913,399.6914273000002,400.1917664999928,400.17692069998884,400.18395320000127,400.1917664999928,400.1917664999928,400.1917664999928,401.99419599999965,Objects\184a.jpg,mid,s,1.8003299999982119,None,,,,,,,,00020,001,2026-01-20_16h39.03.637,MST_test,2024.2.0,60.13695590309493,2026-01-20 16h39.18.995461 +0530,
70,0,71,s,1.5166500000050291,None,71,0,70,402.0081871000002,,,,,,,,,,,,,,,,,,,,,,,,,,,,,,,,,,,,,,,,,,,,,,,,,,401.9946423999936,402.0081871000002,402.51572269998724,402.4917424999876,402.51364679999824,402.51572269998724,402.51572269998724,402.51572269998724,404.04379289998906,Objects\024b.jpg,mid,s,1.5166500000050291,None,,,,,,,,00020,001,2026-01-20_16h39.03.637,MST_test,2024.2.0,60.13695590309493,2026-01-20 16h39.18.995461 +0530,
71,0,72,n,2.8728546999918763,None,72,0,71,404.05823809999856,,,,,,,,,,,,,,,,,,,,,,,,,,,,,,,,,,,,,,,,,,,,,,,,,,404.04411599999,404.05823809999856,404.5588404999871,404.5426105999941,404.54878579999786,404.5588404999871,404.5588404999871,404.5588404999871,407.4435078999959,Foils\scenes8.jpg,none,n,2.8728546999918763,None,,,,,,,,00020,001,2026-01-20_16h39.03.637,MST_test,2024.2.0,60.13695590309493,2026-01-20 16h39.18.995461 +0530,
72,0,73,o,1.321276399990893,None,73,0,72,407.45827299999655,,,,,,,,,,,,,,,,,,,,,,,,,,,,,,,,,,,,,,,,,,,,,,,,,,407.4437389999948,407.45827299999655,408.0548603999923,407.94256899999164,408.0517323999957,408.0548603999923,408.0548603999923,408.0548603999923,409.39378059998853,Scenes\003b.jpg,mid,o,1.321276399990893,None,,,,,,,,00020,001,2026-01-20_16h39.03.637,MST_test,2024.2.0,60.13695590309493,2026-01-20 16h39.18.995461 +0530,
73,0,74,n,4.531411399992066,None,74,0,73,409.40835009999864,,,,,,,,,,,,,,,,,,,,,,,,,,,,,,,,,,,,,,,,,,,,,,,,,,409.39409349999914,409.40835009999864,409.90896009998687,409.8923495999916,409.8981250999932,409.90896009998687,409.90896009998687,409.90896009998687,414.4436136000004,Foils\scenes6.jpg,none,n,4.531411399992066,None,,,,,,,,00020,001,2026-01-20_16h39.03.637,MST_test,2024.2.0,60.13695590309493,2026-01-20 16h39.18.995461 +0530,
74,0,75,n,2.5690685999870766,None,75,0,74,414.4581859999889,,,,,,,,,,,,,,,,,,,,,,,,,,,,,,,,,,,,,,,,,,,,,,,,,,414.4440093999874,414.4581859999889,414.967762100001,414.94344529999944,414.9649855999887,414.967762100001,414.967762100001,414.967762100001,417.54378759999236,Scenes\105a.jpg,pre,n,2.5690685999870766,None,,,,,,,,00020,001,2026-01-20_16h39.03.637,MST_test,2024.2.0,60.13695590309493,2026-01-20 16h39.18.995461 +0530,
75,0,76,o,1.4662515000090934,None,76,0,75,417.5587744999939,,,,,,,,,,,,,,,,,,,,,,,,,,,,,,,,,,,,,,,,,,,,,,,,,,417.5440963000001,417.5587744999939,418.06175679998705,418.04254299998865,418.05883249999897,418.06175679998705,418.06175679998705,418.06175679998705,419.5446036999929,Scenes\092a.jpg,mid,o,1.4662515000090934,None,,,,,,,,00020,001,2026-01-20_16h39.03.637,MST_test,2024.2.0,60.13695590309493,2026-01-20 16h39.18.995461 +0530,
76,0,77,n,2.2535223999875598,None,77,0,76,419.5582279999944,,,,,,,,,,,,,,,,,,,,,,,,,,,,,,,,,,,,,,,,,,,,,,,,,,419.54493379998894,419.5582279999944,420.0588371999911,420.042849999998,420.05086859999574,420.0588371999911,420.0588371999911,420.0588371999911,422.326862899994,Foils\113a.jpg,none,n,2.2535223999875598,None,,,,,,,,00020,001,2026-01-20_16h39.03.637,MST_test,2024.2.0,60.13695590309493,2026-01-20 16h39.18.995461 +0530,
77,0,78,o,1.7182499999908032,None,78,0,77,422.3416506999929,,,,,,,,,,,,,,,,,,,,,,,,,,,,,,,,,,,,,,,,,,,,,,,,,,422.32717720000073,422.3416506999929,422.841906799993,422.8264263999881,422.83430819999194,422.841906799993,422.841906799993,422.841906799993,424.5767952999886,Objects\100a.jpg,mid,o,1.7182499999908032,None,,,,,,,,00020,001,2026-01-20_16h39.03.637,MST_test,2024.2.0,60.13695590309493,2026-01-20 16h39.18.995461 +0530,
78,0,79,o,2.3285502000071574,None,79,0,78,424.59149289999914,,,,,,,,,,,,,,,,,,,,,,,,,,,,,,,,,,,,,,,,,,,,,,,,,,424.57713609999337,424.59149289999914,425.09650559999864,425.07629109999107,425.09355059999507,425.09650559999864,425.09650559999864,425.09650559999864,427.4268946999946,Scenes\172a.jpg,post,o,2.3285502000071574,None,,,,,,,,00020,001,2026-01-20_16h39.03.637,MST_test,2024.2.0,60.13695590309493,2026-01-20 16h39.18.995461 +0530,
79,0,80,o,1.809626100002788,None,80,0,79,427.44172619999154,,,,,,,,,,,,,,,,,,,,,,,,,,,,,,,,,,,,,,,,,,,,,,,,,,427.4272903999954,427.44172619999154,427.94318059999205,427.9263028999994,427.9398395999888,427.94318059999205,427.94318059999205,427.94318059999205,429.7603139999992,Scenes\151a.jpg,pre,o,1.809626100002788,None,,,,,,,,00020,001,2026-01-20_16h39.03.637,MST_test,2024.2.0,60.13695590309493,2026-01-20 16h39.18.995461 +0530,
80,0,81,n,4.993516999995336,None,81,0,80,429.77499619999435,,,,,,,,,,,,,,,,,,,,,,,,,,,,,,,,,,,,,,,,,,,,,,,,,,429.7607006999897,429.77499619999435,430.2790734000009,430.25929929999984,430.27614479999465,430.2790734000009,430.2790734000009,430.2790734000009,435.2771314999991,Foils\scenes27.jpg,none,n,4.993516999995336,None,,,,,,,,00020,001,2026-01-20_16h39.03.637,MST_test,2024.2.0,60.13695590309493,2026-01-20 16h39.18.995461 +0530,
81,0,82,n,16.092892600005143,None,82,0,81,435.29155899999023,,,,,,,,,,,,,,,,,,,,,,,,,,,,,,,,,,,,,,,,,,,,,,,,,,435.27745209999557,435.29155899999023,435.79515139998693,435.77652279999165,435.7921900999936,435.79515139998693,435.79515139998693,435.79515139998693,451.89371809999284,Scenes\131a.jpg,mid,n,16.092892600005143,None,,,,,,,,00020,001,2026-01-20_16h39.03.637,MST_test,2024.2.0,60.13695590309493,2026-01-20 16h39.18.995461 +0530,
82,0,83,o,1.2641429999930551,None,83,0,82,451.9082303999894,,,,,,,,,,,,,,,,,,,,,,,,,,,,,,,,,,,,,,,,,,,,,,,,,,451.8940782999998,451.9082303999894,452.40878329999396,452.39281369998935,452.40448109999124,452.40878329999396,452.40878329999396,452.40878329999396,453.6771015999984,Objects\069a.jpg,post,o,1.2641429999930551,None,,,,,,,,00020,001,2026-01-20_16h39.03.637,MST_test,2024.2.0,60.13695590309493,2026-01-20 16h39.18.995461 +0530,
83,0,84,o,1.1063420999998925,None,84,0,83,453.6915832999948,,,,,,,,,,,,,,,,,,,,,,,,,,,,,,,,,,,,,,,,,,,,,,,,,,453.6773874999926,453.6915832999948,454.21442540000135,454.17622109998774,454.211346600001,454.21442540000135,454.21442540000135,454.21442540000135,455.3271700999903,Objects\081b.jpg,pre,o,1.1063420999998925,None,,,,,,,,00020,001,2026-01-20_16h39.03.637,MST_test,2024.2.0,60.13695590309493,2026-01-20 16h39.18.995461 +0530,
84,0,85,s,1.5908118999941507,None,85,0,84,455.34173099999316,,,,,,,,,,,,,,,,,,,,,,,,,,,,,,,,,,,,,,,,,,,,,,,,,,455.327403599993,455.34173099999316,455.84175019999384,455.82596449999255,455.8346731999918,455.84175019999384,455.84175019999384,455.84175019999384,457.4435248999944,Foils\105a.jpg,none,s,1.5908118999941507,None,,,,,,,,00020,001,2026-01-20_16h39.03.637,MST_test,2024.2.0,60.13695590309493,2026-01-20 16h39.18.995461 +0530,
85,0,86,s,1.3849599999957718,None,86,0,85,457.4581666999875,,,,,,,,,,,,,,,,,,,,,,,,,,,,,,,,,,,,,,,,,,,,,,,,,,457.4438381999935,457.4581666999875,457.97453209999367,457.9427408999909,457.9718520999886,457.97453209999367,457.97453209999367,457.97453209999367,459.37644409999484,Objects\178b.jpg,pre,s,1.3849599999957718,None,,,,,,,,00020,001,2026-01-20_16h39.03.637,MST_test,2024.2.0,60.13695590309493,2026-01-20 16h39.18.995461 +0530,
86,0,87,s,1.1496362999896519,None,87,0,86,459.3916077999893,,,,,,,,,,,,,,,,,,,,,,,,,,,,,,,,,,,,,,,,,,,,,,,,,,459.37666829999944,459.3916077999893,459.90662879998854,459.87681409998913,459.9040602999885,459.90662879998854,459.90662879998854,459.90662879998854,461.06014389998745,Objects\053b.jpg,mid,s,1.1496362999896519,None,,,,,,,,00020,001,2026-01-20_16h39.03.637,MST_test,2024.2.0,60.13695590309493,2026-01-20 16h39.18.995461 +0530,
87,0,88,s,6.489520299990545,None,88,0,87,461.07483889999276,,,,,,,,,,,,,,,,,,,,,,,,,,,,,,,,,,,,,,,,,,,,,,,,,,461.0604639999947,461.07483889999276,461.6223476999876,461.55984609998995,461.61956989999453,461.6223476999876,461.6223476999876,461.6223476999876,468.12694249999186,Scenes\080b.jpg,mid,s,6.489520299990545,None,,,,,,,,00020,001,2026-01-20_16h39.03.637,MST_test,2024.2.0,60.13695590309493,2026-01-20 16h39.18.995461 +0530,
88,0,89,s,1.941631800000323,None,89,0,88,468.1416218999948,,,,,,,,,,,,,,,,,,,,,,,,,,,,,,,,,,,,,,,,,,,,,,,,,,468.1272173999896,468.1416218999948,468.6500743999932,468.6261469999881,468.64648450000095,468.6500743999932,468.6500743999932,468.6500743999932,470.5938480999903,Scenes\107b.jpg,post,s,1.941631800000323,None,,,,,,,,00020,001,2026-01-20_16h39.03.637,MST_test,2024.2.0,60.13695590309493,2026-01-20 16h39.18.995461 +0530,
89,0,90,n,1.99128530001326,None,90,0,89,470.6082727999892,,,,,,,,,,,,,,,,,,,,,,,,,,,,,,,,,,,,,,,,,,,,,,,,,,470.59422139999515,470.6082727999892,471.1133770999877,471.0927262999903,471.1083653999958,471.1133770999877,471.1133770999877,471.1133770999877,473.11070009999094,Scenes\168b.jpg,pre,n,1.99128530001326,None,,,,,,,,00020,001,2026-01-20_16h39.03.637,MST_test,2024.2.0,60.13695590309493,2026-01-20 16h39.18.995461 +0530,
90,0,91,s,2.4266533000045456,None,91,0,90,473.1248552999896,,,,,,,,,,,,,,,,,,,,,,,,,,,,,,,,,,,,,,,,,,,,,,,,,,473.1110858999891,473.1248552999896,473.653467799988,473.6096575999982,473.6503854999901,473.653467799988,473.653467799988,473.653467799988,476.0941831999953,Objects\066b.jpg,mid,s,2.4266533000045456,None,,,,,,,,00020,001,2026-01-20_16h39.03.637,MST_test,2024.2.0,60.13695590309493,2026-01-20 16h39.18.995461 +0530,
91,0,92,o,6.342844500002684,None,92,0,91,476.1082968999981,,,,,,,,,,,,,,,,,,,,,,,,,,,,,,,,,,,,,,,,,,,,,,,,,,476.0944761999999,476.1082968999981,476.63361359998817,476.5927515999938,476.6307009999873,476.63361359998817,476.63361359998817,476.63361359998817,482.9933714999934,Scenes\130b.jpg,pre,o,6.342844500002684,None,,,,,,,,00020,001,2026-01-20_16h39.03.637,MST_test,2024.2.0,60.13695590309493,2026-01-20 16h39.18.995461 +0530,
92,0,93,s,4.691156799992314,None,93,0,92,483.0083000000013,,,,,,,,,,,,,,,,,,,,,,,,,,,,,,,,,,,,,,,,,,,,,,,,,,482.9936466999934,483.0083000000013,483.50938279999536,483.49279429999297,483.50380929998937,483.50938279999536,483.50938279999536,483.50938279999536,488.2101893999934,Scenes\117a.jpg,pre,s,4.691156799992314,None,,,,,,,,00020,001,2026-01-20_16h39.03.637,MST_test,2024.2.0,60.13695590309493,2026-01-20 16h39.18.995461 +0530,
93,0,94,s,1.202148500000476,None,94,0,93,488.2250733999972,,,,,,,,,,,,,,,,,,,,,,,,,,,,,,,,,,,,,,,,,,,,,,,,,,488.2104437999951,488.2250733999972,488.72555109999666,488.70948949999,488.7155963999976,488.72555109999666,488.72555109999666,488.72555109999666,489.9438720999897,Objects\097b.jpg,pre,s,1.202148500000476,None,,,,,,,,00020,001,2026-01-20_16h39.03.637,MST_test,2024.2.0,60.13695590309493,2026-01-20 16h39.18.995461 +0530,
94,0,95,o,1.4697703999991063,None,95,0,94,489.9591730999964,,,,,,,,,,,,,,,,,,,,,,,,,,,,,,,,,,,,,,,,,,,,,,,,,,489.94416519999504,489.9591730999964,490.45893819999765,490.44250789999205,490.4534541999892,490.45893819999765,490.45893819999765,490.45893819999765,491.9434035000013,Scenes\126a.jpg,mid,o,1.4697703999991063,None,,,,,,,,00020,001,2026-01-20_16h39.03.637,MST_test,2024.2.0,60.13695590309493,2026-01-20 16h39.18.995461 +0530,
95,0,96,o,1.8620097000093665,None,96,0,95,491.9586233000009,,,,,,,,,,,,,,,,,,,,,,,,,,,,,,,,,,,,,,,,,,,,,,,,,,491.94363599999633,491.9586233000009,492.45881630000076,492.4431876999879,492.4531128999952,492.45881630000076,492.45881630000076,492.45881630000076,494.32686199998716,Objects\052a.jpg,pre,o,1.8620097000093665,None,,,,,,,,00020,001,2026-01-20_16h39.03.637,MST_test,2024.2.0,60.13695590309493,2026-01-20 16h39.18.995461 +0530,
96,0,97,o,1.0695988000079524,None,97,0,96,494.3414320999873,,,,,,,,,,,,,,,,,,,,,,,,,,,,,,,,,,,,,,,,,,,,,,,,,,494.3271374999895,494.3414320999873,494.84261259999766,494.82586230000015,494.83972459999495,494.84261259999766,494.84261259999766,494.84261259999766,495.9267764999968,Scenes\024a.jpg,pre,o,1.0695988000079524,None,,,,,,,,00020,001,2026-01-20_16h39.03.637,MST_test,2024.2.0,60.13695590309493,2026-01-20 16h39.18.995461 +0530,
97,0,98,o,0.8480507000058424,None,98,0,97,495.9419227999897,,,,,,,,,,,,,,,,,,,,,,,,,,,,,,,,,,,,,,,,,,,,,,,,,,495.92703249999613,495.9419227999897,496.44753199999104,496.4260399999912,496.4439604999934,496.44753199999104,496.44753199999104,496.44753199999104,497.3102835999889,Scenes\005a.jpg,post,o,0.8480507000058424,None,,,,,,,,00020,001,2026-01-20_16h39.03.637,MST_test,2024.2.0,60.13695590309493,2026-01-20 16h39.18.995461 +0530,
98,0,99,n,2.317556299996795,None,99,0,98,497.32539139999426,,,,,,,,,,,,,,,,,,,,,,,,,,,,,,,,,,,,,,,,,,,,,,,,,,497.3106717999908,497.32539139999426,497.8429805999913,497.80941699999676,497.8401023999904,497.8429805999913,497.8429805999913,497.8429805999913,500.17682529999,Foils\082a.jpg,none,n,2.317556299996795,None,,,,,,,,00020,001,2026-01-20_16h39.03.637,MST_test,2024.2.0,60.13695590309493,2026-01-20 16h39.18.995461 +0530,
99,0,100,s,15.924378499999875,None,100,0,99,500.19162439998763,,,,,,,,,,,,,,,,,,,,,,,,,,,,,,,,,,,,,,,,,,,,,,,,,,500.1771747999883,500.19162439998763,500.70006119999744,500.67601840000134,500.69745449999755,500.70006119999744,500.70006119999744,500.70006119999744,516.6265203999938,Objects\096b.jpg,pre,s,15.924378499999875,None,,,,,,,,00020,001,2026-01-20_16h39.03.637,MST_test,2024.2.0,60.13695590309493,2026-01-20 16h39.18.995461 +0530,
100,0,101,n,6.48163470000145,None,101,0,100,516.6416993999883,,,,,,,,,,,,,,,,,,,,,,,,,,,,,,,,,,,,,,,,,,,,,,,,,,516.626861599987,516.6416993999883,517.1424903999869,517.125753299988,517.1368517999945,517.1424903999869,517.1424903999869,517.1424903999869,523.6272953000007,Scenes\157a.jpg,post,n,6.48163470000145,None,,,,,,,,00020,001,2026-01-20_16h39.03.637,MST_test,2024.2.0,60.13695590309493,2026-01-20 16h39.18.995461 +0530,
101,0,102,s,2.900476399998297,None,102,0,101,523.6417280999885,,,,,,,,,,,,,,,,,,,,,,,,,,,,,,,,,,,,,,,,,,,,,,,,,,523.6275399000006,523.6417280999885,524.1802855999995,524.126064799988,524.176787999997,524.1802855999995,524.1802855999995,524.1802855999995,527.0939914999908,Scenes\104b.jpg,post,s,2.900476399998297,None,,,,,,,,00020,001,2026-01-20_16h39.03.637,MST_test,2024.2.0,60.13695590309493,2026-01-20 16h39.18.995461 +0530,
102,0,103,n,1.5562215000099968,None,103,0,102,527.1084390999895,,,,,,,,,,,,,,,,,,,,,,,,,,,,,,,,,,,,,,,,,,,,,,,,,,527.0943237999891,527.1084390999895,527.6444797000004,527.5926848999952,527.6409993999987,527.6444797000004,527.6444797000004,527.6444797000004,529.2100681000011,Scenes\025b.jpg,mid,n,1.5562215000099968,None,,,,,,,,00020,001,2026-01-20_16h39.03.637,MST_test,2024.2.0,60.13695590309493,2026-01-20 16h39.18.995461 +0530,
103,0,104,o,4.03359370000544,None,104,0,103,529.2249188999995,,,,,,,,,,,,,,,,,,,,,,,,,,,,,,,,,,,,,,,,,,,,,,,,,,529.210462099989,529.2249188999995,529.7257268999965,529.7096708999889,529.7179295999958,529.7257268999965,529.7257268999965,529.7257268999965,533.7768008999992,Objects\080a.jpg,mid,o,4.03359370000544,None,,,,,,,,00020,001,2026-01-20_16h39.03.637,MST_test,2024.2.0,60.13695590309493,2026-01-20 16h39.18.995461 +0530,
104,0,105,o,1.3605386999988696,None,105,0,104,533.7916216999874,,,,,,,,,,,,,,,,,,,,,,,,,,,,,,,,,,,,,,,,,,,,,,,,,,533.7770714999933,533.7916216999874,534.2962021999992,534.276171199992,534.2926649000001,534.2962021999992,534.2962021999992,534.2962021999992,535.6603137999919,Scenes\052a.jpg,pre,o,1.3605386999988696,None,,,,,,,,00020,001,2026-01-20_16h39.03.637,MST_test,2024.2.0,60.13695590309493,2026-01-20 16h39.18.995461 +0530,
105,0,106,o,0.9209663999936311,None,106,0,105,535.6750805999909,,,,,,,,,,,,,,,,,,,,,,,,,,,,,,,,,,,,,,,,,,,,,,,,,,535.6606083999941,535.6750805999909,536.1755176000006,536.1591225000011,536.1699082999985,536.1755176000006,536.1755176000006,536.1755176000006,537.1103845999896,Objects\084a.jpg,post,o,0.9209663999936311,None,,,,,,,,00020,001,2026-01-20_16h39.03.637,MST_test,2024.2.0,60.13695590309493,2026-01-20 16h39.18.995461 +0530,
106,0,107,s,1.4035020000010263,None,107,0,106,537.1248969000007,,,,,,,,,,,,,,,,,,,,,,,,,,,,,,,,,,,,,,,,,,,,,,,,,,537.1107854000002,537.1248969000007,537.6602309999871,537.6089510999882,537.6572842999885,537.6602309999871,537.6602309999871,537.6602309999871,539.0772645999969,Scenes\179b.jpg,mid,s,1.4035020000010263,None,,,,,,,,00020,001,2026-01-20_16h39.03.637,MST_test,2024.2.0,60.13695590309493,2026-01-20 16h39.18.995461 +0530,
107,0,108,o,1.4858240000030492,None,108,0,107,539.091752399996,,,,,,,,,,,,,,,,,,,,,,,,,,,,,,,,,,,,,,,,,,,,,,,,,,539.0776089999999,539.091752399996,539.5942053999897,539.5758362999914,539.5910901999887,539.5942053999897,539.5942053999897,539.5942053999897,541.0939267999929,Scenes\112a.jpg,post,o,1.4858240000030492,None,,,,,,,,00020,001,2026-01-20_16h39.03.637,MST_test,2024.2.0,60.13695590309493,2026-01-20 16h39.18.995461 +0530,
108,0,109,o,0.9596067999955267,None,109,0,108,541.109163599991,,,,,,,,,,,,,,,,,,,,,,,,,,,,,,,,,,,,,,,,,,,,,,,,,,541.0941649999877,541.109163599991,541.6093590999953,541.5927727999951,541.6062815999903,541.6093590999953,541.6093590999953,541.6093590999953,542.5765231999976,Scenes\018a.jpg,pre,o,0.9596067999955267,None,,,,,,,,00020,001,2026-01-20_16h39.03.637,MST_test,2024.2.0,60.13695590309493,2026-01-20 16h39.18.995461 +0530,
109,0,110,o,1.2995165000029374,None,110,0,109,542.5924143000011,,,,,,,,,,,,,,,,,,,,,,,,,,,,,,,,,,,,,,,,,,,,,,,,,,542.5767516999913,542.5924143000011,543.0924593999953,543.0758642000001,543.0839000999986,543.0924593999953,543.0924593999953,543.0924593999953,544.3940765999869,Objects\051a.jpg,mid,o,1.2995165000029374,None,,,,,,,,00020,001,2026-01-20_16h39.03.637,MST_test,2024.2.0,60.13695590309493,2026-01-20 16h39.18.995461 +0530,
110,0,111,o,4.402911199998925,None,111,0,110,544.4084295999928,,,,,,,,,,,,,,,,,,,,,,,,,,,,,,,,,,,,,,,,,,,,,,,,,,544.3944210999907,544.4084295999928,544.9087002999877,544.8926750999963,544.898219499999,544.9087002999877,544.9087002999877,544.9087002999877,549.3267358000012,Objects\147a.jpg,pre,o,4.402911199998925,None,,,,,,,,00020,001,2026-01-20_16h39.03.637,MST_test,2024.2.0,60.13695590309493,2026-01-20 16h39.18.995461 +0530,
111,0,112,o,1.806683399991016,None,112,0,111,549.3416797999962,,,,,,,,,,,,,,,,,,,,,,,,,,,,,,,,,,,,,,,,,,,,,,,,,,549.3271072999923,549.3416797999962,549.8657749999984,549.8261740999878,549.8625922999927,549.8657749999984,549.8657749999984,549.8657749999984,551.6770469999901,Objects\089b.jpg,post,o,1.806683399991016,None,,,,,,,,00020,001,2026-01-20_16h39.03.637,MST_test,2024.2.0,60.13695590309493,2026-01-20 16h39.18.995461 +0530,
112,0,113,s,1.497852899992722,None,113,0,112,551.6915577999898,,,,,,,,,,,,,,,,,,,,,,,,,,,,,,,,,,,,,,,,,,,,,,,,,,551.6772880999924,551.6915577999898,552.2147113999963,552.1762022999901,552.2115424999938,552.2147113999963,552.2147113999963,552.2147113999963,553.726831699998,Scenes\101b.jpg,mid,s,1.497852899992722,None,,,,,,,,00020,001,2026-01-20_16h39.03.637,MST_test,2024.2.0,60.13695590309493,2026-01-20 16h39.18.995461 +0530,
113,0,114,o,1.758631000004243,None,114,0,113,553.7419044999988,,,,,,,,,,,,,,,,,,,,,,,,,,,,,,,,,,,,,,,,,,,,,,,,,,553.7272262999904,553.7419044999988,554.2497248,554.2260476999945,554.2457855999965,554.2497248,554.2497248,554.2497248,556.0103502999991,Scenes\046a.jpg,pre,o,1.758631000004243,None,,,,,,,,00020,001,2026-01-20_16h39.03.637,MST_test,2024.2.0,60.13695590309493,2026-01-20 16h39.18.995461 +0530,
114,0,115,s,2.2492929000000004,None,115,0,114,556.0250979999983,,,,,,,,,,,,,,,,,,,,,,,,,,,,,,,,,,,,,,,,,,,,,,,,,,556.0105643999996,556.0250979999983,556.5514481999999,556.5093229999911,556.5472389999923,556.5514481999999,556.5514481999999,556.5514481999999,558.8099822999939,Scenes\127b.jpg,mid,s,2.2492929000000004,None,,,,,,,,00020,001,2026-01-20_16h39.03.637,MST_test,2024.2.0,60.13695590309493,2026-01-20 16h39.18.995461 +0530,
115,0,116,s,5.803065700005391,None,116,0,115,558.824904299996,,,,,,,,,,,,,,,,,,,,,,,,,,,,,,,,,,,,,,,,,,,,,,,,,,558.8102075999923,558.824904299996,559.3255560999969,559.3091966999928,559.3224983999971,559.3255560999969,559.3255560999969,559.3255560999969,565.1435716999986,Scenes\162a.jpg,post,s,5.803065700005391,None,,,,,,,,00020,001,2026-01-20_16h39.03.637,MST_test,2024.2.0,60.13695590309493,2026-01-20 16h39.18.995461 +0530,
116,0,117,o,1.4569142999971518,None,117,0,116,565.1583440999966,,,,,,,,,,,,,,,,,,,,,,,,,,,,,,,,,,,,,,,,,,,,,,,,,,565.1439897999953,565.1583440999966,565.6875651999871,565.642875199992,565.6844711000012,565.6875651999871,565.6875651999871,565.6875651999871,567.1601334999868,Scenes\083b.jpg,mid,o,1.4569142999971518,None,,,,,,,,00020,001,2026-01-20_16h39.03.637,MST_test,2024.2.0,60.13695590309493,2026-01-20 16h39.18.995461 +0530,
117,0,118,o,1.5325756999955047,None,118,0,117,567.1754061999964,,,,,,,,,,,,,,,,,,,,,,,,,,,,,,,,,,,,,,,,,,,,,,,,,,567.1604286999936,567.1754061999964,567.6754837999906,567.659832099991,567.6656603999872,567.6754837999906,567.6754837999906,567.6754837999906,569.2102834999969,Objects\137a.jpg,mid,o,1.5325756999955047,None,,,,,,,,00020,001,2026-01-20_16h39.03.637,MST_test,2024.2.0,60.13695590309493,2026-01-20 16h39.18.995461 +0530,
118,0,119,s,2.7677265999955125,None,119,0,118,569.2253079999937,,,,,,,,,,,,,,,,,,,,,,,,,,,,,,,,,,,,,,,,,,,,,,,,,,569.2106898999918,569.2253079999937,569.7287119999964,569.7093380000006,569.7257876999938,569.7287119999964,569.7287119999964,569.7287119999964,572.5099948999996,Scenes\120a.jpg,pre,s,2.7677265999955125,None,,,,,,,,00020,001,2026-01-20_16h39.03.637,MST_test,2024.2.0,60.13695590309493,2026-01-20 16h39.18.995461 +0530,
119,0,120,n,1.108288100003847,None,120,0,119,572.5248072999966,,,,,,,,,,,,,,,,,,,,,,,,,,,,,,,,,,,,,,,,,,,,,,,,,,572.5104022999876,572.5248072999966,573.0514017999958,573.0092623999954,573.0477831999888,573.0514017999958,573.0514017999958,573.0514017999958,574.1765925999935,Foils\098a.jpg,none,n,1.108288100003847,None,,,,,,,,00020,001,2026-01-20_16h39.03.637,MST_test,2024.2.0,60.13695590309493,2026-01-20 16h39.18.995461 +0530,
120,0,121,s,1.5821450999937952,None,121,0,120,574.1917760999931,,,,,,,,,,,,,,,,,,,,,,,,,,,,,,,,,,,,,,,,,,,,,,,,,,574.1768238999939,574.1917760999931,574.7136363999889,574.6765598999918,574.7106375000003,574.7136363999889,574.7136363999889,574.7136363999889,576.3104291999916,Scenes\171b.jpg,post,s,1.5821450999937952,None,,,,,,,,00020,001,2026-01-20_16h39.03.637,MST_test,2024.2.0,60.13695590309493,2026-01-20 16h39.18.995461 +0530,
121,0,122,s,4.382773899997119,None,122,0,121,576.3248305999878,,,,,,,,,,,,,,,,,,,,,,,,,,,,,,,,,,,,,,,,,,,,,,,,,,576.3107937999885,576.3248305999878,576.8254677999939,576.8094356999936,576.8159238999942,576.8254677999939,576.8254677999939,576.8254677999939,581.210534400001,Foils\034a.jpg,none,s,4.382773899997119,None,,,,,,,,00020,001,2026-01-20_16h39.03.637,MST_test,2024.2.0,60.13695590309493,2026-01-20 16h39.18.995461 +0530,
122,0,123,s,1.4023355999961495,None,123,0,122,581.2250239999994,,,,,,,,,,,,,,,,,,,,,,,,,,,,,,,,,,,,,,,,,,,,,,,,,,581.2109461999935,581.2250239999994,581.7251557999989,581.7091456999915,581.7155886999972,581.7251557999989,581.7251557999989,581.7251557999989,583.143578999996,Objects\153a.jpg,post,s,1.4023355999961495,None,,,,,,,,00020,001,2026-01-20_16h39.03.637,MST_test,2024.2.0,60.13695590309493,2026-01-20 16h39.18.995461 +0530,
123,0,124,o,1.5651102000119863,None,124,0,123,583.1582615999941,,,,,,,,,,,,,,,,,,,,,,,,,,,,,,,,,,,,,,,,,,,,,,,,,,583.144000299988,583.1582615999941,583.6587110999972,583.642761199997,583.650561699993,583.6587110999972,583.6587110999972,583.6587110999972,585.2268996999919,Objects\120a.jpg,pre,o,1.5651102000119863,None,,,,,,,,00020,001,2026-01-20_16h39.03.637,MST_test,2024.2.0,60.13695590309493,2026-01-20 16h39.18.995461 +0530,
124,0,125,o,0.9916009999869857,None,125,0,124,585.241665900001,,,,,,,,,,,,,,,,,,,,,,,,,,,,,,,,,,,,,,,,,,,,,,,,,,585.2272632999957,585.241665900001,585.7613278999925,585.7259388999955,585.7584627999895,585.7613278999925,585.7613278999925,585.7613278999925,586.7598451999947,Objects\167b.jpg,post,o,0.9916009999869857,None,,,,,,,,00020,001,2026-01-20_16h39.03.637,MST_test,2024.2.0,60.13695590309493,2026-01-20 16h39.18.995461 +0530,
125,0,126,n,3.2090890999970725,None,126,0,125,586.7756825999968,,,,,,,,,,,,,,,,,,,,,,,,,,,,,,,,,,,,,,,,,,,,,,,,,,586.7601074999984,586.7756825999968,587.3433435999905,587.2595999999903,587.3404631999874,587.3433435999905,587.3433435999905,587.3433435999905,590.5598051999987,Foils\121a.jpg,none,n,3.2090890999970725,None,,,,,,,,00020,001,2026-01-20_16h39.03.637,MST_test,2024.2.0,60.13695590309493,2026-01-20 16h39.18.995461 +0530,
126,0,127,s,5.772216199999093,None,127,0,126,590.5748198999936,,,,,,,,,,,,,,,,,,,,,,,,,,,,,,,,,,,,,,,,,,,,,,,,,,590.5602144000004,590.5748198999936,591.1077034999907,591.0594842999999,591.104479799993,591.1077034999907,591.1077034999907,591.1077034999907,596.8942145999899,Scenes\175b.jpg,post,s,5.772216199999093,None,,,,,,,,00020,001,2026-01-20_16h39.03.637,MST_test,2024.2.0,60.13695590309493,2026-01-20 16h39.18.995461 +0530,
127,0,128,s,1.685678599998937,None,128,0,127,596.9082994999917,,,,,,,,,,,,,,,,,,,,,,,,,,,,,,,,,,,,,,,,,,,,,,,,,,596.8944594999921,596.9082994999917,597.4349346999952,597.3927796999924,597.4317217999924,597.4349346999952,597.4349346999952,597.4349346999952,599.1266407999938,Scenes\067b.jpg,mid,s,1.685678599998937,None,,,,,,,,00020,001,2026-01-20_16h39.03.637,MST_test,2024.2.0,60.13695590309493,2026-01-20 16h39.18.995461 +0530,
128,0,129,s,2.0823103000002448,None,129,0,128,599.1415755999915,,,,,,,,,,,,,,,,,,,,,,,,,,,,,,,,,,,,,,,,,,,,,,,,,,599.1269719999982,599.1415755999915,599.6695193999913,599.6259470999939,599.6661044999928,599.6695193999913,599.6695193999913,599.6695193999913,601.7603638,Scenes\031b.jpg,pre,s,2.0823103000002448,None,,,,,,,,00020,001,2026-01-20_16h39.03.637,MST_test,2024.2.0,60.13695590309493,2026-01-20 16h39.18.995461 +0530,
129,0,130,n,4.68454840000777,None,130,0,129,601.7749346999917,,,,,,,,,,,,,,,,,,,,,,,,,,,,,,,,,,,,,,,,,,,,,,,,,,601.7607157999882,601.7749346999917,602.2755202999979,602.2593042999943,602.2654683000001,602.2755202999979,602.2755202999979,602.2755202999979,606.9766033999913,Objects\172b.jpg,mid,n,4.68454840000777,None,,,,,,,,00020,001,2026-01-20_16h39.03.637,MST_test,2024.2.0,60.13695590309493,2026-01-20 16h39.18.995461 +0530,
130,0,131,o,1.0927965999871958,None,131,0,130,606.9914992999984,,,,,,,,,,,,,,,,,,,,,,,,,,,,,,,,,,,,,,,,,,,,,,,,,,606.9770312999899,606.9914992999984,607.4919786999963,607.4759907999978,607.4876201999868,607.4919786999963,607.4919786999963,607.4919786999963,608.5933152999933,Scenes\141a.jpg,mid,o,1.0927965999871958,None,,,,,,,,00020,001,2026-01-20_16h39.03.637,MST_test,2024.2.0,60.13695590309493,2026-01-20 16h39.18.995461 +0530,
131,0,132,s,5.97893290000502,None,132,0,131,608.6083153999934,,,,,,,,,,,,,,,,,,,,,,,,,,,,,,,,,,,,,,,,,,,,,,,,,,608.5936834999884,608.6083153999934,609.109102699993,609.0928380999976,609.1046650999924,609.109102699993,609.109102699993,609.109102699993,615.0938592999883,Scenes\187a.jpg,pre,s,5.97893290000502,None,,,,,,,,00020,001,2026-01-20_16h39.03.637,MST_test,2024.2.0,60.13695590309493,2026-01-20 16h39.18.995461 +0530,
132,0,133,s,2.2164166000002297,None,133,0,132,615.1083517999941,,,,,,,,,,,,,,,,,,,,,,,,,,,,,,,,,,,,,,,,,,,,,,,,,,615.094124899988,615.1083517999941,615.6088190999872,615.5929190999886,615.5993839000002,615.6088190999872,615.6088190999872,615.6088190999872,617.8273371999967,Objects\083a.jpg,post,s,2.2164166000002297,None,,,,,,,,00020,001,2026-01-20_16h39.03.637,MST_test,2024.2.0,60.13695590309493,2026-01-20 16h39.18.995461 +0530,
133,0,134,s,3.1742263000051025,None,134,0,133,617.8416314999922,,,,,,,,,,,,,,,,,,,,,,,,,,,,,,,,,,,,,,,,,,,,,,,,,,617.8276044999948,617.8416314999922,618.3451643000008,618.3258589999896,618.3418089999905,618.3451643000008,618.3451643000008,618.3451643000008,621.5276216999919,Scenes\076a.jpg,post,s,3.1742263000051025,None,,,,,,,,00020,001,2026-01-20_16h39.03.637,MST_test,2024.2.0,60.13695590309493,2026-01-20 16h39.18.995461 +0530,
134,0,135,o,1.597322500005248,None,135,0,134,621.5416595999995,,,,,,,,,,,,,,,,,,,,,,,,,,,,,,,,,,,,,,,,,,,,,,,,,,621.5279656999919,621.5416595999995,622.0589942999941,622.0260646999959,622.0555432999972,622.0589942999941,622.0589942999941,622.0589942999941,623.6600755999971,Objects\186b.jpg,pre,o,1.597322500005248,None,,,,,,,,00020,001,2026-01-20_16h39.03.637,MST_test,2024.2.0,60.13695590309493,2026-01-20 16h39.18.995461 +0530,
135,0,136,s,1.560897000003024,None,136,0,135,623.6749658999906,,,,,,,,,,,,,,,,,,,,,,,,,,,,,,,,,,,,,,,,,,,,,,,,,,623.6603881999908,623.6749658999906,624.1757585999876,624.1594450999983,624.1727122999873,624.1757585999876,624.1757585999876,624.1757585999876,625.7443076999916,Scenes\042b.jpg,mid,s,1.560897000003024,None,,,,,,,,00020,001,2026-01-20_16h39.03.637,MST_test,2024.2.0,60.13695590309493,2026-01-20 16h39.18.995461 +0530,
136,0,137,o,1.2104575999983354,None,137,0,136,625.758241699994,,,,,,,,,,,,,,,,,,,,,,,,,,,,,,,,,,,,,,,,,,,,,,,,,,625.7446248999913,625.758241699994,626.2621828999982,626.2427647000004,626.2588453999924,626.2621828999982,626.2621828999982,626.2621828999982,627.4768756999983,Scenes\002a.jpg,mid,o,1.2104575999983354,None,,,,,,,,00020,001,2026-01-20_16h39.03.637,MST_test,2024.2.0,60.13695590309493,2026-01-20 16h39.18.995461 +0530,
137,0,138,s,1.1858994000067469,None,138,0,137,627.4915268999903,,,,,,,,,,,,,,,,,,,,,,,,,,,,,,,,,,,,,,,,,,,,,,,,,,627.4772849000001,627.4915268999903,628.013930000001,627.9762493999879,628.0099937999912,628.013930000001,628.013930000001,628.013930000001,629.2104413999914,Objects\055b.jpg,mid,s,1.1858994000067469,None,,,,,,,,00020,001,2026-01-20_16h39.03.637,MST_test,2024.2.0,60.13695590309493,2026-01-20 16h39.18.995461 +0530,
138,0,139,n,1.6073082000075374,None,139,0,138,629.2248038999969,,,,,,,,,,,,,,,,,,,,,,,,,,,,,,,,,,,,,,,,,,,,,,,,,,629.2107980000001,629.2248038999969,629.7613435999956,629.7112021999928,629.7179613999906,629.7613435999956,629.7613435999956,629.7613435999956,631.376868899999,Foils\093b.jpg,none,n,1.6073082000075374,None,,,,,,,,00020,001,2026-01-20_16h39.03.637,MST_test,2024.2.0,60.13695590309493,2026-01-20 16h39.18.995461 +0530,
139,0,140,n,0.9040863999980502,None,140,0,139,631.3915573999984,,,,,,,,,,,,,,,,,,,,,,,,,,,,,,,,,,,,,,,,,,,,,,,,,,631.3770685999916,631.3915573999984,631.9127819999994,631.8762368999887,631.9101833999885,631.9127819999994,631.9127819999994,631.9127819999994,632.8267613999924,Foils\017a.jpg,none,n,0.9040863999980502,None,,,,,,,,00020,001,2026-01-20_16h39.03.637,MST_test,2024.2.0,60.13695590309493,2026-01-20 16h39.18.995461 +0530,
140,0,141,n,1.449388099994394,None,141,0,140,632.8423741000006,,,,,,,,,,,,,,,,,,,,,,,,,,,,,,,,,,,,,,,,,,,,,,,,,,632.8270310999942,632.8423741000006,633.3580812,633.3258302999893,633.354456599991,633.3580812,633.3580812,633.3580812,634.8103906999895,Scenes\036b.jpg,pre,n,1.449388099994394,None,,,,,,,,00020,001,2026-01-20_16h39.03.637,MST_test,2024.2.0,60.13695590309493,2026-01-20 16h39.18.995461 +0530,
141,0,142,n,1.4354489999968791,None,142,0,141,634.8250002999994,,,,,,,,,,,,,,,,,,,,,,,,,,,,,,,,,,,,,,,,,,,,,,,,,,634.8106314999895,634.8250002999994,635.429229699992,635.3095691999915,635.424483099996,635.429229699992,635.429229699992,635.429229699992,636.8767851999874,Foils\scenes25.jpg,none,n,1.4354489999968791,None,,,,,,,,00020,001,2026-01-20_16h39.03.637,MST_test,2024.2.0,60.13695590309493,2026-01-20 16h39.18.995461 +0530,
142,0,143,o,1.2487153999973089,None,143,0,142,636.8916243999993,,,,,,,,,,,,,,,,,,,,,,,,,,,,,,,,,,,,,,,,,,,,,,,,,,636.8771364999993,636.8916243999993,637.4719612999907,637.3761726999946,637.4693058999983,637.4719612999907,637.4719612999907,637.4719612999907,638.7275058999949,Scenes\066b.jpg,pre,o,1.2487153999973089,None,,,,,,,,00020,001,2026-01-20_16h39.03.637,MST_test,2024.2.0,60.13695590309493,2026-01-20 16h39.18.995461 +0530,
143,0,144,n,1.8570395999995526,None,144,0,143,638.7415538999921,,,,,,,,,,,,,,,,,,,,,,,,,,,,,,,,,,,,,,,,,,,,,,,,,,638.727945199993,638.7415538999921,639.2551027999871,639.226073599988,639.2521284999966,639.2551027999871,639.2551027999871,639.2551027999871,641.1268793999916,Foils\scenes14.jpg,none,n,1.8570395999995526,None,,,,,,,,00020,001,2026-01-20_16h39.03.637,MST_test,2024.2.0,60.13695590309493,2026-01-20 16h39.18.995461 +0530,
144,0,145,o,1.4504770999919856,None,145,0,144,641.1413101999933,,,,,,,,,,,,,,,,,,,,,,,,,,,,,,,,,,,,,,,,,,,,,,,,,,641.1272577999916,641.1413101999933,641.6703938999999,641.625123299993,641.6676794999948,641.6703938999999,641.6703938999999,641.6703938999999,643.1270923999982,Scenes\040b.jpg,post,o,1.4504770999919856,None,,,,,,,,00020,001,2026-01-20_16h39.03.637,MST_test,2024.2.0,60.13695590309493,2026-01-20 16h39.18.995461 +0530,
145,0,146,s,4.741045000002487,None,146,0,145,643.1415176999872,,,,,,,,,,,,,,,,,,,,,,,,,,,,,,,,,,,,,,,,,,,,,,,,,,643.1274124999909,643.1415176999872,643.64359349999,643.6261448000005,643.6406325999997,643.64359349999,643.64359349999,643.64359349999,648.3935264999891,Scenes\176a.jpg,mid,s,4.741045000002487,None,,,,,,,,00020,001,2026-01-20_16h39.03.637,MST_test,2024.2.0,60.13695590309493,2026-01-20 16h39.18.995461 +0530,
146,0,147,o,1.2815101000014693,None,147,0,146,648.4085937999916,,,,,,,,,,,,,,,,,,,,,,,,,,,,,,,,,,,,,,,,,,,,,,,,,,648.3937987999961,648.4085937999916,648.9261715999892,648.8925320999988,648.9213986999966,648.9261715999892,648.9261715999892,648.9261715999892,650.2106273999962,Objects\130b.jpg,post,o,1.2815101000014693,None,,,,,,,,00020,001,2026-01-20_16h39.03.637,MST_test,2024.2.0,60.13695590309493,2026-01-20 16h39.18.995461 +0530,
147,0,148,o,1.5351525000005495,None,148,0,147,650.2249006999918,,,,,,,,,,,,,,,,,,,,,,,,,,,,,,,,,,,,,,,,,,,,,,,,,,650.2110183999903,650.2249006999918,650.7297156999994,650.7098704999953,650.726837899987,650.7297156999994,650.7297156999994,650.7297156999994,652.2778200999892,Scenes\170a.jpg,post,o,1.5351525000005495,None,,,,,,,,00020,001,2026-01-20_16h39.03.637,MST_test,2024.2.0,60.13695590309493,2026-01-20 16h39.18.995461 +0530,
148,0,149,n,6.735271500001545,None,149,0,148,652.2916183999914,,,,,,,,,,,,,,,,,,,,,,,,,,,,,,,,,,,,,,,,,,,,,,,,,,652.278109299994,652.2916183999914,652.7921385999944,652.7760206999956,652.7825683999981,652.7921385999944,652.7921385999944,652.7921385999944,659.5432233999891,Foils\scenes30.jpg,none,n,6.735271500001545,None,,,,,,,,00020,001,2026-01-20_16h39.03.637,MST_test,2024.2.0,60.13695590309493,2026-01-20 16h39.18.995461 +0530,
149,0,150,n,3.6546645000053104,None,150,0,149,659.558221299987,,,,,,,,,,,,,,,,,,,,,,,,,,,,,,,,,,,,,,,,,,,,,,,,,,659.5436150999885,659.558221299987,660.082035399988,660.0426861999877,660.0778844999877,660.082035399988,660.082035399988,660.082035399988,663.7435368000006,Foils\scenes19.jpg,none,n,3.6546645000053104,None,,,,,,,,00020,001,2026-01-20_16h39.03.637,MST_test,2024.2.0,60.13695590309493,2026-01-20 16h39.18.995461 +0530,
,,,,,,,,,,,,,,,,,,,,,,,,,,,,,,,,,,,,,,,,,,,,,,,,,,,,,,,,,,,,,,,,,,,,,,,,,663.7438045999879,663.7582323999959,663.7582323999959,665.2269423999969,space,1.4582894999912241,None,00020,001,2026-01-20_16h39.03.637,MST_test,2024.2.0,60.13695590309493,2026-01-20 16h39.18.995461 +0530,
