thisN,thisTrialN,thisRepN,key_resp_3.keys,key_resp_3.rt,key_resp_3.duration,trials.thisRepN,trials.thisTrialN,trials.thisN,thisRow.t,notes,intro_page.started,text.started,key_resp.started,intro_page.stopped,key_resp.keys,key_resp.rt,key_resp.duration,instructions.started,text_2.started,key_resp_2.started,instructions.stopped,key_resp_2.keys,key_resp_2.rt,key_resp_2.duration,demo1.started,image_1.started,image_2.started,text_7.started,key_resp_6.started,text_9.started,demo1.stopped,key_resp_6.keys,key_resp_6.rt,key_resp_6.duration,demo2.started,image_5.started,image_6.started,text_11.started,text_12.started,key_resp_8.started,demo2.stopped,key_resp_8.keys,key_resp_8.rt,key_resp_8.duration,demo_conclusion.started,text_13.started,key_resp_9.started,demo_conclusion.stopped,key_resp_9.keys,key_resp_9.rt,key_resp_9.duration,start_test.started,text_6.started,key_resp_5.started,start_test.stopped,key_resp_5.keys,key_resp_5.rt,key_resp_5.duration,ISI.started,text_4.started,text_4.stopped,ISI.stopped,routine_1.started,image.started,text_3.started,key_resp_3.started,routine_1.stopped,image_path,position_of_stimuli,trials.key_resp_3.keys,trials.key_resp_3.rt,trials.key_resp_3.duration,End_page.started,text_5.started,key_resp_4.started,participant,session,date,expName,psychopyVersion,frameRate,expStart,
,,,,,,,,,,,0.001309900006162934,0.0031064000067999586,0.0031064000067999586,6.60527970000112,space,6.566420700008166,None,,,,,,,,,,,,,,,,,,,,,,,,,,,,,,,,,,,,,,,,,,,,,,,,,,,,,,,,,,,00022,001,2026-01-20_17h30.21.472,MST_test,2024.2.0,60.05464973490318,2026-01-20 17h30.28.390848 +0530,
,,,,,,,,,,,,,,,,,,6.605387600007816,6.616794200002914,6.616794200002914,18.01747580000665,space,11.38504299998749,None,,,,,,,,,,,,,,,,,,,,,,,,,,,,,,,,,,,,,,,,,,,,,,,,,,,,00022,001,2026-01-20_17h30.21.472,MST_test,2024.2.0,60.05464973490318,2026-01-20 17h30.28.390848 +0530,
,,,,,,,,,,,,,,,,,,,,,,,,,18.01758630000404,18.05598689999897,18.05598689999897,18.05598689999897,18.05598689999897,18.05598689999897,24.700747499999125,space,6.641760999991675,None,,,,,,,,,,,,,,,,,,,,,,,,,,,,,,,,,,,,,,,,,,00022,001,2026-01-20_17h30.21.472,MST_test,2024.2.0,60.05464973490318,2026-01-20 17h30.28.390848 +0530,
,,,,,,,,,,,,,,,,,,,,,,,,,,,,,,,,,,,24.700842200007173,24.717353300002287,24.717353300002287,24.717353300002287,24.717353300002287,24.717353300002287,26.88355220000085,space,2.155898500001058,None,,,,,,,,,,,,,,,,,,,,,,,,,,,,,,,,00022,001,2026-01-20_17h30.21.472,MST_test,2024.2.0,60.05464973490318,2026-01-20 17h30.28.390848 +0530,
,,,,,,,,,,,,,,,,,,,,,,,,,,,,,,,,,,,,,,,,,,,,,26.88361160000204,26.89961680000124,26.89961680000124,45.88499330000195,space,18.974585899995873,None,,,,,,,,,,,,,,,,,,,,,,,,,00022,001,2026-01-20_17h30.21.472,MST_test,2024.2.0,60.05464973490318,2026-01-20 17h30.28.390848 +0530,
,,,,,,,,,,,,,,,,,,,,,,,,,,,,,,,,,,,,,,,,,,,,,,,,,,,,45.88509270000213,45.90021390000766,45.90021390000766,94.31731300000683,space,48.41402240000025,None,,,,,,,,,,,,,,,,,,00022,001,2026-01-20_17h30.21.472,MST_test,2024.2.0,60.05464973490318,2026-01-20 17h30.28.390848 +0530,
0,0,1,s,10.334833699991577,None,1,0,0,94.33303049999813,,,,,,,,,,,,,,,,,,,,,,,,,,,,,,,,,,,,,,,,,,,,,,,,,,94.32704530000046,94.33303049999813,94.86667699999816,94.81692430000112,94.86362830000871,94.86667699999816,94.86667699999816,94.86667699999816,105.21754630000214,Scenes\131b.jpg,post,s,10.334833699991577,None,,,,00022,001,2026-01-20_17h30.21.472,MST_test,2024.2.0,60.05464973490318,2026-01-20 17h30.28.390848 +0530,
1,0,2,o,4.788640999991912,None,2,0,1,105.23347249999642,,,,,,,,,,,,,,,,,,,,,,,,,,,,,,,,,,,,,,,,,,,,,,,,,,105.21799859999737,105.23347249999642,105.73381459999655,105.71721889999753,105.73170200000459,105.73381459999655,105.73381459999655,105.73381459999655,110.53422460000729,Objects\092a.jpg,pre,o,4.788640999991912,None,,,,00022,001,2026-01-20_17h30.21.472,MST_test,2024.2.0,60.05464973490318,2026-01-20 17h30.28.390848 +0530,
2,0,3,s,14.212772099999711,None,3,0,2,110.55013850000978,,,,,,,,,,,,,,,,,,,,,,,,,,,,,,,,,,,,,,,,,,,,,,,,,,110.53458249999676,110.55013850000978,111.07724280000548,111.0339643000043,111.07466450000356,111.07724280000548,111.07724280000548,111.07724280000548,125.30086590000428,Scenes\050b.jpg,mid,s,14.212772099999711,None,,,,00022,001,2026-01-20_17h30.21.472,MST_test,2024.2.0,60.05464973490318,2026-01-20 17h30.28.390848 +0530,
3,0,4,o,19.488913199995295,None,4,0,3,125.31681489999755,,,,,,,,,,,,,,,,,,,,,,,,,,,,,,,,,,,,,,,,,,,,,,,,,,125.30131080000137,125.31681489999755,125.84924840000167,125.8002880999993,125.8458779000066,125.84924840000167,125.84924840000167,125.84924840000167,145.3507440000103,Scenes\004b.jpg,pre,o,19.488913199995295,None,,,,00022,001,2026-01-20_17h30.21.472,MST_test,2024.2.0,60.05464973490318,2026-01-20 17h30.28.390848 +0530,
4,0,5,o,20.38132110000879,None,5,0,4,145.36653929999738,,,,,,,,,,,,,,,,,,,,,,,,,,,,,,,,,,,,,,,,,,,,,,,,,,145.3511096000002,145.36653929999738,145.93229369999608,145.85039790000883,145.92987160000484,145.93229369999608,145.93229369999608,145.93229369999608,166.31725860000006,Objects\016b.jpg,pre,o,20.38132110000879,None,,,,00022,001,2026-01-20_17h30.21.472,MST_test,2024.2.0,60.05464973490318,2026-01-20 17h30.28.390848 +0530,
5,0,6,o,9.34341279999353,None,6,0,5,166.33338340000773,,,,,,,,,,,,,,,,,,,,,,,,,,,,,,,,,,,,,,,,,,,,,,,,,,166.31770120000874,166.33338340000773,166.83452010000474,166.8168294000061,166.8264426000096,166.83452010000474,166.83452010000474,166.83452010000474,176.18419390000054,Objects\096a.jpg,pre,o,9.34341279999353,None,,,,00022,001,2026-01-20_17h30.21.472,MST_test,2024.2.0,60.05464973490318,2026-01-20 17h30.28.390848 +0530,
6,0,7,s,7.677730600000359,None,7,0,6,176.2001517000026,,,,,,,,,,,,,,,,,,,,,,,,,,,,,,,,,,,,,,,,,,,,,,,,,,176.18455570000515,176.2001517000026,176.70024340000236,176.68378030000895,176.69321470000432,176.70024340000236,176.70024340000236,176.70024340000236,184.38395400000445,Objects\010a.jpg,mid,s,7.677730600000359,None,,,,00022,001,2026-01-20_17h30.21.472,MST_test,2024.2.0,60.05464973490318,2026-01-20 17h30.28.390848 +0530,
7,0,8,n,5.629286600000341,None,8,0,7,184.399846100001,,,,,,,,,,,,,,,,,,,,,,,,,,,,,,,,,,,,,,,,,,,,,,,,,,184.38435560000653,184.399846100001,184.9006939999963,184.88362269999925,184.89336339999863,184.9006939999963,184.9006939999963,184.9006939999963,190.53423320000002,Scenes\163a.jpg,pre,n,5.629286600000341,None,,,,00022,001,2026-01-20_17h30.21.472,MST_test,2024.2.0,60.05464973490318,2026-01-20 17h30.28.390848 +0530,
8,0,9,n,3.27106709999498,None,9,0,8,190.5499967000069,,,,,,,,,,,,,,,,,,,,,,,,,,,,,,,,,,,,,,,,,,,,,,,,,,190.53461869999592,190.5499967000069,191.0504215999972,191.03393220000726,191.04633120000653,191.0504215999972,191.0504215999972,191.0504215999972,194.33407540000917,Foils\017a.jpg,none,n,3.27106709999498,None,,,,00022,001,2026-01-20_17h30.21.472,MST_test,2024.2.0,60.05464973490318,2026-01-20 17h30.28.390848 +0530,
9,0,10,s,33.03193579999788,None,10,0,9,194.35006540000904,,,,,,,,,,,,,,,,,,,,,,,,,,,,,,,,,,,,,,,,,,,,,,,,,,194.334448900001,194.35006540000904,194.91405590000795,194.83372690000397,194.91077040000528,194.91405590000795,194.91405590000795,194.91405590000795,227.95102320000296,Foils\scenes15.jpg,none,s,33.03193579999788,None,,,,00022,001,2026-01-20_17h30.21.472,MST_test,2024.2.0,60.05464973490318,2026-01-20 17h30.28.390848 +0530,
10,0,11,o,7.138304200008861,None,11,0,10,227.96689930000866,,,,,,,,,,,,,,,,,,,,,,,,,,,,,,,,,,,,,,,,,,,,,,,,,,227.9514826000086,227.96689930000866,228.471649900006,228.45049450000806,228.46971720000147,228.471649900006,228.471649900006,228.471649900006,235.61748349999834,Objects\191a.jpg,post,o,7.138304200008861,None,,,,00022,001,2026-01-20_17h30.21.472,MST_test,2024.2.0,60.05464973490318,2026-01-20 17h30.28.390848 +0530,
11,0,12,n,2.2701024999987567,None,12,0,11,235.63332780000928,,,,,,,,,,,,,,,,,,,,,,,,,,,,,,,,,,,,,,,,,,,,,,,,,,235.61784190000617,235.63332780000928,236.1558842000086,236.11726890000864,236.15367700000934,236.1558842000086,236.1558842000086,236.1558842000086,238.43424090000917,Foils\101b.jpg,none,n,2.2701024999987567,None,,,,00022,001,2026-01-20_17h30.21.472,MST_test,2024.2.0,60.05464973490318,2026-01-20 17h30.28.390848 +0530,
12,0,13,n,2.6350219000014476,None,13,0,12,238.4500001999986,,,,,,,,,,,,,,,,,,,,,,,,,,,,,,,,,,,,,,,,,,,,,,,,,,238.43460680000135,238.4500001999986,238.95048820000375,238.9338870000065,238.94153399999777,238.95048820000375,238.95048820000375,238.95048820000375,241.60081370000262,Foils\scenes14.jpg,none,n,2.6350219000014476,None,,,,00022,001,2026-01-20_17h30.21.472,MST_test,2024.2.0,60.05464973490318,2026-01-20 17h30.28.390848 +0530,
13,0,14,s,26.613588499996695,None,14,0,13,241.61644939999678,,,,,,,,,,,,,,,,,,,,,,,,,,,,,,,,,,,,,,,,,,,,,,,,,,241.6012558000075,241.61644939999678,242.13972950000607,242.10030190000543,242.13746540001011,242.13972950000607,242.13972950000607,242.13972950000607,268.7673853000015,Objects\068b.jpg,mid,s,26.613588499996695,None,,,,00022,001,2026-01-20_17h30.21.472,MST_test,2024.2.0,60.05464973490318,2026-01-20 17h30.28.390848 +0530,
14,0,15,s,31.846178799998597,None,15,0,14,268.78414350000094,,,,,,,,,,,,,,,,,,,,,,,,,,,,,,,,,,,,,,,,,,,,,,,,,,268.76782490000187,268.78414350000094,269.2839161000011,269.26717920000374,269.27938520000316,269.2839161000011,269.2839161000011,269.2839161000011,301.1342208999995,Scenes\160a.jpg,post,s,31.846178799998597,None,,,,00022,001,2026-01-20_17h30.21.472,MST_test,2024.2.0,60.05464973490318,2026-01-20 17h30.28.390848 +0530,
15,0,16,n,1.9826820000016596,None,16,0,15,301.150140800004,,,,,,,,,,,,,,,,,,,,,,,,,,,,,,,,,,,,,,,,,,,,,,,,,,301.1346317999996,301.150140800004,301.65062050000415,301.63390960000106,301.6449088000081,301.65062050000415,301.65062050000415,301.65062050000415,303.63394349999726,Objects\168b.jpg,mid,n,1.9826820000016596,None,,,,00022,001,2026-01-20_17h30.21.472,MST_test,2024.2.0,60.05464973490318,2026-01-20 17h30.28.390848 +0530,
16,0,17,o,4.7316504000045825,None,17,0,16,303.6497004999983,,,,,,,,,,,,,,,,,,,,,,,,,,,,,,,,,,,,,,,,,,,,,,,,,,303.6343816000008,303.6497004999983,304.1503290999972,304.1339745000005,304.1474309000041,304.1503290999972,304.1503290999972,304.1503290999972,308.8850078999967,Scenes\027a.jpg,pre,o,4.7316504000045825,None,,,,00022,001,2026-01-20_17h30.21.472,MST_test,2024.2.0,60.05464973490318,2026-01-20 17h30.28.390848 +0530,
17,0,18,o,9.545750799996313,None,18,0,17,308.90010430000257,,,,,,,,,,,,,,,,,,,,,,,,,,,,,,,,,,,,,,,,,,,,,,,,,,308.8853680000029,308.90010430000257,309.40025950000563,309.3839197000052,309.396484900004,309.40025950000563,309.40025950000563,309.40025950000563,318.95087950000016,Objects\147a.jpg,pre,o,9.545750799996313,None,,,,00022,001,2026-01-20_17h30.21.472,MST_test,2024.2.0,60.05464973490318,2026-01-20 17h30.28.390848 +0530,
18,0,19,n,4.31057809999038,None,19,0,18,318.96688130000257,,,,,,,,,,,,,,,,,,,,,,,,,,,,,,,,,,,,,,,,,,,,,,,,,,318.95133969999733,318.96688130000257,319.4673378000007,319.4505655999965,319.4593870000099,319.4673378000007,319.4673378000007,319.4673378000007,323.78478370000084,Foils\scenes20.jpg,none,n,4.31057809999038,None,,,,00022,001,2026-01-20_17h30.21.472,MST_test,2024.2.0,60.05464973490318,2026-01-20 17h30.28.390848 +0530,
19,0,20,o,15.444958499996574,None,20,0,19,323.8001265000057,,,,,,,,,,,,,,,,,,,,,,,,,,,,,,,,,,,,,,,,,,,,,,,,,,323.785166200003,323.8001265000057,324.30028880000464,324.2837811000063,324.2930070000002,324.30028880000464,324.30028880000464,324.30028880000464,339.7508114000084,Objects\023a.jpg,post,o,15.444958499996574,None,,,,00022,001,2026-01-20_17h30.21.472,MST_test,2024.2.0,60.05464973490318,2026-01-20 17h30.28.390848 +0530,
20,0,21,n,4.518110100005288,None,21,0,20,339.76687720000336,,,,,,,,,,,,,,,,,,,,,,,,,,,,,,,,,,,,,,,,,,,,,,,,,,339.75135690000025,339.76687720000336,340.2673463999963,340.2506088000082,340.25803680000536,340.2673463999963,340.2673463999963,340.2673463999963,344.800776700009,Foils\scenes5.jpg,none,n,4.518110100005288,None,,,,00022,001,2026-01-20_17h30.21.472,MST_test,2024.2.0,60.05464973490318,2026-01-20 17h30.28.390848 +0530,
21,0,22,o,11.852260200001183,None,22,0,21,344.81689620000543,,,,,,,,,,,,,,,,,,,,,,,,,,,,,,,,,,,,,,,,,,,,,,,,,,344.80120040000475,344.81689620000543,345.31701460000477,345.30033120000735,345.31454870000016,345.31701460000477,345.31701460000477,345.31701460000477,357.1844351000036,Scenes\087a.jpg,post,o,11.852260200001183,None,,,,00022,001,2026-01-20_17h30.21.472,MST_test,2024.2.0,60.05464973490318,2026-01-20 17h30.28.390848 +0530,
22,0,23,o,3.3807624999899417,None,23,0,22,357.19998119999946,,,,,,,,,,,,,,,,,,,,,,,,,,,,,,,,,,,,,,,,,,,,,,,,,,357.1850313000032,357.19998119999946,357.7007275000069,357.683686999997,357.6927327000012,357.7007275000069,357.7007275000069,357.7007275000069,361.0838640000002,Objects\172a.jpg,pre,o,3.3807624999899417,None,,,,00022,001,2026-01-20_17h30.21.472,MST_test,2024.2.0,60.05464973490318,2026-01-20 17h30.28.390848 +0530,
23,0,24,n,7.968786400000681,None,24,0,23,361.0999795000098,,,,,,,,,,,,,,,,,,,,,,,,,,,,,,,,,,,,,,,,,,,,,,,,,,361.0842818000092,361.0999795000098,361.6003947999998,361.5835616999975,361.5911306000053,361.6003947999998,361.6003947999998,361.6003947999998,369.5840850000095,Foils\scenes4.jpg,none,n,7.968786400000681,None,,,,00022,001,2026-01-20_17h30.21.472,MST_test,2024.2.0,60.05464973490318,2026-01-20 17h30.28.390848 +0530,
24,0,25,o,8.720366900000954,None,25,0,24,369.60011450000457,,,,,,,,,,,,,,,,,,,,,,,,,,,,,,,,,,,,,,,,,,,,,,,,,,369.58451400000195,369.60011450000457,370.1290463000041,370.0839979000011,370.12680160001037,370.1290463000041,370.1290463000041,370.1290463000041,378.8509155000065,Objects\118b.jpg,mid,o,8.720366900000954,None,,,,00022,001,2026-01-20_17h30.21.472,MST_test,2024.2.0,60.05464973490318,2026-01-20 17h30.28.390848 +0530,
25,0,26,n,5.714391599991359,None,26,0,25,378.8672605000029,,,,,,,,,,,,,,,,,,,,,,,,,,,,,,,,,,,,,,,,,,,,,,,,,,378.851324400006,378.8672605000029,379.36708969999745,379.3505065000063,379.3563240000076,379.36708969999745,379.36708969999745,379.36708969999745,385.08402589999605,Foils\020b.jpg,none,n,5.714391599991359,None,,,,00022,001,2026-01-20_17h30.21.472,MST_test,2024.2.0,60.05464973490318,2026-01-20 17h30.28.390848 +0530,
26,0,27,s,5.112958900004742,None,27,0,26,385.0999681000103,,,,,,,,,,,,,,,,,,,,,,,,,,,,,,,,,,,,,,,,,,,,,,,,,,385.0844310000102,385.0999681000103,385.6005160000059,385.58400480001,385.5937918999989,385.6005160000059,385.6005160000059,385.6005160000059,390.71729179999966,Scenes\053a.jpg,post,s,5.112958900004742,None,,,,00022,001,2026-01-20_17h30.21.472,MST_test,2024.2.0,60.05464973490318,2026-01-20 17h30.28.390848 +0530,
27,0,28,s,2.8295606000028783,None,28,0,27,390.73333410000487,,,,,,,,,,,,,,,,,,,,,,,,,,,,,,,,,,,,,,,,,,,,,,,,,,390.7178014000092,390.73333410000487,391.25165400000697,391.2173232000059,391.2491905000061,391.25165400000697,391.25165400000697,391.25165400000697,394.08393030001025,Objects\098b.jpg,mid,s,2.8295606000028783,None,,,,00022,001,2026-01-20_17h30.21.472,MST_test,2024.2.0,60.05464973490318,2026-01-20 17h30.28.390848 +0530,
28,0,29,n,5.854771600003005,None,29,0,28,394.09999940000125,,,,,,,,,,,,,,,,,,,,,,,,,,,,,,,,,,,,,,,,,,,,,,,,,,394.0843900000036,394.09999940000125,394.6586546000035,394.58380990001024,394.65614330000244,394.6586546000035,394.6586546000035,394.6586546000035,400.51761579999584,Scenes\049b.jpg,mid,n,5.854771600003005,None,,,,00022,001,2026-01-20_17h30.21.472,MST_test,2024.2.0,60.05464973490318,2026-01-20 17h30.28.390848 +0530,
29,0,30,n,5.26815770000394,None,30,0,29,400.53350910000154,,,,,,,,,,,,,,,,,,,,,,,,,,,,,,,,,,,,,,,,,,,,,,,,,,400.51799730000494,400.53350910000154,401.0376089000056,401.0176636999968,401.03513080000994,401.0376089000056,401.0376089000056,401.0376089000056,406.3176325000095,Scenes\128a.jpg,mid,n,5.26815770000394,None,,,,00022,001,2026-01-20_17h30.21.472,MST_test,2024.2.0,60.05464973490318,2026-01-20 17h30.28.390848 +0530,
30,0,31,n,6.935108100005891,None,31,0,30,406.33339420000266,,,,,,,,,,,,,,,,,,,,,,,,,,,,,,,,,,,,,,,,,,,,,,,,,,406.3180624000088,406.33339420000266,406.8340662999981,406.8173772000009,406.82739669999864,406.8340662999981,406.8340662999981,406.8340662999981,413.78434510000807,Foils\002a.jpg,none,n,6.935108100005891,None,,,,00022,001,2026-01-20_17h30.21.472,MST_test,2024.2.0,60.05464973490318,2026-01-20 17h30.28.390848 +0530,
31,0,32,o,2.17340040000272,None,32,0,31,413.8003124999959,,,,,,,,,,,,,,,,,,,,,,,,,,,,,,,,,,,,,,,,,,,,,,,,,,413.7847519000061,413.8003124999959,414.30026740000176,414.2845968000038,414.29351220000535,414.30026740000176,414.30026740000176,414.30026740000176,416.4841213000036,Objects\167a.jpg,mid,o,2.17340040000272,None,,,,00022,001,2026-01-20_17h30.21.472,MST_test,2024.2.0,60.05464973490318,2026-01-20 17h30.28.390848 +0530,
32,0,33,o,1.4705859999958193,None,33,0,32,416.5002788999991,,,,,,,,,,,,,,,,,,,,,,,,,,,,,,,,,,,,,,,,,,,,,,,,,,416.4845064999972,416.5002788999991,417.01915530000406,416.9839645000029,417.01696570000786,417.01915530000406,417.01915530000406,417.01915530000406,418.5007306000043,Objects\117b.jpg,post,o,1.4705859999958193,None,,,,00022,001,2026-01-20_17h30.21.472,MST_test,2024.2.0,60.05464973490318,2026-01-20 17h30.28.390848 +0530,
33,0,34,s,8.301217300002463,None,34,0,33,418.5168941000011,,,,,,,,,,,,,,,,,,,,,,,,,,,,,,,,,,,,,,,,,,,,,,,,,,418.5012276000052,418.5168941000011,419.05199610001,419.00060840000515,419.04946200000995,419.05199610001,419.05199610001,419.05199610001,427.36760350000986,Scenes\186b.jpg,mid,s,8.301217300002463,None,,,,00022,001,2026-01-20_17h30.21.472,MST_test,2024.2.0,60.05464973490318,2026-01-20 17h30.28.390848 +0530,
34,0,35,n,6.44522359999246,None,35,0,34,427.3834809999971,,,,,,,,,,,,,,,,,,,,,,,,,,,,,,,,,,,,,,,,,,,,,,,,,,427.36796410000534,427.3834809999971,427.8838572000095,427.86698750000505,427.8703286000091,427.8838572000095,427.8838572000095,427.8838572000095,434.335877000005,Foils\scenes3.jpg,none,n,6.44522359999246,None,,,,00022,001,2026-01-20_17h30.21.472,MST_test,2024.2.0,60.05464973490318,2026-01-20 17h30.28.390848 +0530,
35,0,36,o,2.6786651000002166,None,36,0,35,434.3501619000017,,,,,,,,,,,,,,,,,,,,,,,,,,,,,,,,,,,,,,,,,,,,,,,,,,434.3362605000002,434.3501619000017,434.85068899999897,434.8339377000084,434.8437741000089,434.85068899999897,434.85068899999897,434.85068899999897,437.53424920000543,Objects\002a.jpg,post,o,2.6786651000002166,None,,,,00022,001,2026-01-20_17h30.21.472,MST_test,2024.2.0,60.05464973490318,2026-01-20 17h30.28.390848 +0530,
36,0,37,s,4.552404200003366,None,37,0,36,437.5501260000019,,,,,,,,,,,,,,,,,,,,,,,,,,,,,,,,,,,,,,,,,,,,,,,,,,437.53460939999786,437.5501260000019,438.0570783000003,438.0339288999967,438.0545831000054,438.0570783000003,438.0570783000003,438.0570783000003,442.6177335000102,Scenes\105a.jpg,pre,s,4.552404200003366,None,,,,00022,001,2026-01-20_17h30.21.472,MST_test,2024.2.0,60.05464973490318,2026-01-20 17h30.28.390848 +0530,
37,0,38,o,6.3394321000087075,None,38,0,37,442.63324380000995,,,,,,,,,,,,,,,,,,,,,,,,,,,,,,,,,,,,,,,,,,,,,,,,,,442.61815550000756,442.63324380000995,443.13413690000016,443.1173640000052,443.12263260000327,443.13413690000016,443.13413690000016,443.13413690000016,449.4841984000086,Objects\020a.jpg,post,o,6.3394321000087075,None,,,,00022,001,2026-01-20_17h30.21.472,MST_test,2024.2.0,60.05464973490318,2026-01-20 17h30.28.390848 +0530,
38,0,39,n,1.3770179000130156,None,39,0,38,449.50011770000856,,,,,,,,,,,,,,,,,,,,,,,,,,,,,,,,,,,,,,,,,,,,,,,,,,449.484621399999,449.50011770000856,450.0002614999976,449.9840273000009,449.99237410000933,450.0002614999976,450.0002614999976,450.0002614999976,451.3840251000074,Foils\121a.jpg,none,n,1.3770179000130156,None,,,,00022,001,2026-01-20_17h30.21.472,MST_test,2024.2.0,60.05464973490318,2026-01-20 17h30.28.390848 +0530,
39,0,40,n,4.371963700003107,None,40,0,39,451.4001145000075,,,,,,,,,,,,,,,,,,,,,,,,,,,,,,,,,,,,,,,,,,,,,,,,,,451.3843789000093,451.4001145000075,,451.8843237999972,451.89928480000526,451.9017737999966,451.9017737999966,451.9017737999966,456.28420259999984,Scenes\169b.jpg,pre,n,4.371963700003107,None,,,,00022,001,2026-01-20_17h30.21.472,MST_test,2024.2.0,60.05464973490318,2026-01-20 17h30.28.390848 +0530,
40,0,41,o,1.3933944000018528,None,41,0,40,456.30018410000775,,,,,,,,,,,,,,,,,,,,,,,,,,,,,,,,,,,,,,,,,,,,,,,,,,456.28462859999854,456.30018410000775,456.8004452000023,456.78353960000095,456.79270859999815,456.8004452000023,456.8004452000023,456.8004452000023,458.20088780000515,Objects\047a.jpg,mid,o,1.3933944000018528,None,,,,00022,001,2026-01-20_17h30.21.472,MST_test,2024.2.0,60.05464973490318,2026-01-20 17h30.28.390848 +0530,
41,0,42,s,9.196685899994918,None,42,0,41,458.2164686000033,,,,,,,,,,,,,,,,,,,,,,,,,,,,,,,,,,,,,,,,,,,,,,,,,,458.2012916000094,458.2164686000033,458.7170984999975,458.7005843000079,458.71056439999666,458.7170984999975,458.7170984999975,458.7170984999975,467.91781260000425,Objects\053b.jpg,mid,s,9.196685899994918,None,,,,00022,001,2026-01-20_17h30.21.472,MST_test,2024.2.0,60.05464973490318,2026-01-20 17h30.28.390848 +0530,
42,0,43,o,1.6281061000045156,None,43,0,42,467.93339400000696,,,,,,,,,,,,,,,,,,,,,,,,,,,,,,,,,,,,,,,,,,,,,,,,,,467.9182129999972,467.93339400000696,468.4615863000072,468.4170043000049,468.4594386999961,468.4615863000072,468.4615863000072,468.4615863000072,470.10078920000524,Objects\142b.jpg,mid,o,1.6281061000045156,None,,,,00022,001,2026-01-20_17h30.21.472,MST_test,2024.2.0,60.05464973490318,2026-01-20 17h30.28.390848 +0530,
43,0,44,o,2.1062922999990406,None,44,0,43,470.11690100000123,,,,,,,,,,,,,,,,,,,,,,,,,,,,,,,,,,,,,,,,,,,,,,,,,,470.10127569999895,470.11690100000123,470.6234826,470.600646100007,470.62110479999683,470.6234826,470.6234826,470.6234826,472.73421779999626,Scenes\089a.jpg,pre,o,2.1062922999990406,None,,,,00022,001,2026-01-20_17h30.21.472,MST_test,2024.2.0,60.05464973490318,2026-01-20 17h30.28.390848 +0530,
44,0,45,o,3.304320399998687,None,45,0,44,472.75002150000364,,,,,,,,,,,,,,,,,,,,,,,,,,,,,,,,,,,,,,,,,,,,,,,,,,472.7346719000052,472.75002150000364,473.3050371999998,473.2339840000059,473.3021893999976,473.3050371999998,473.3050371999998,473.3050371999998,476.6174749000056,Scenes\108b.jpg,post,o,3.304320399998687,None,,,,00022,001,2026-01-20_17h30.21.472,MST_test,2024.2.0,60.05464973490318,2026-01-20 17h30.28.390848 +0530,
45,0,46,o,7.98212610000337,None,46,0,45,476.63349330000347,,,,,,,,,,,,,,,,,,,,,,,,,,,,,,,,,,,,,,,,,,,,,,,,,,476.61783099999593,476.63349330000347,477.13913510000566,477.1171961000073,477.13642009999603,477.13913510000566,477.13913510000566,477.13913510000566,485.1341839000088,Scenes\182b.jpg,post,o,7.98212610000337,None,,,,00022,001,2026-01-20_17h30.21.472,MST_test,2024.2.0,60.05464973490318,2026-01-20 17h30.28.390848 +0530,
46,0,47,n,5.070434200009913,None,47,0,46,485.15026399999624,,,,,,,,,,,,,,,,,,,,,,,,,,,,,,,,,,,,,,,,,,,,,,,,,,485.134619000004,485.15026399999624,485.67507730000943,485.63384860000224,485.6725133,485.67507730000943,485.67507730000943,485.67507730000943,490.75066119999974,Scenes\116b.jpg,mid,n,5.070434200009913,None,,,,00022,001,2026-01-20_17h30.21.472,MST_test,2024.2.0,60.05464973490318,2026-01-20 17h30.28.390848 +0530,
47,0,48,o,4.220718800002942,None,48,0,47,490.766958799999,,,,,,,,,,,,,,,,,,,,,,,,,,,,,,,,,,,,,,,,,,,,,,,,,,490.751005099999,490.766958799999,491.36464860000706,491.25083319999976,491.36140870000236,491.36464860000706,491.36464860000706,491.36464860000706,495.60085170000093,Objects\144b.jpg,post,o,4.220718800002942,None,,,,00022,001,2026-01-20_17h30.21.472,MST_test,2024.2.0,60.05464973490318,2026-01-20 17h30.28.390848 +0530,
48,0,49,s,3.9409932999988087,None,49,0,48,495.61691340000834,,,,,,,,,,,,,,,,,,,,,,,,,,,,,,,,,,,,,,,,,,,,,,,,,,495.6013440999959,495.61691340000834,496.11671200000274,496.099953500001,496.1086151000054,496.11671200000274,496.11671200000274,496.11671200000274,500.06761579999875,Foils\057a.jpg,none,s,3.9409932999988087,None,,,,00022,001,2026-01-20_17h30.21.472,MST_test,2024.2.0,60.05464973490318,2026-01-20 17h30.28.390848 +0530,
49,0,50,o,3.9804353000072297,None,50,0,49,500.0834551000007,,,,,,,,,,,,,,,,,,,,,,,,,,,,,,,,,,,,,,,,,,,,,,,,,,500.0681201999978,500.0834551000007,500.61335939999844,500.56718530000944,500.61082840000745,500.61335939999844,500.61335939999844,500.61335939999844,504.60082020000846,Scenes\024b.jpg,pre,o,3.9804353000072297,None,,,,00022,001,2026-01-20_17h30.21.472,MST_test,2024.2.0,60.05464973490318,2026-01-20 17h30.28.390848 +0530,
50,0,51,o,1.8754496000037761,None,51,0,50,504.6169072000048,,,,,,,,,,,,,,,,,,,,,,,,,,,,,,,,,,,,,,,,,,,,,,,,,,504.6013382000092,504.6169072000048,505.12567480000143,505.1006003000075,505.121856400001,505.12567480000143,505.12567480000143,505.12567480000143,507.0174590000097,Scenes\171a.jpg,mid,o,1.8754496000037761,None,,,,00022,001,2026-01-20_17h30.21.472,MST_test,2024.2.0,60.05464973490318,2026-01-20 17h30.28.390848 +0530,
51,0,52,s,5.6665080999955535,None,52,0,51,507.0333287000103,,,,,,,,,,,,,,,,,,,,,,,,,,,,,,,,,,,,,,,,,,,,,,,,,,507.0178436999995,507.0333287000103,507.8151704000047,507.5172489999968,507.8081983000011,507.8151704000047,507.8151704000047,507.8151704000047,513.4844897000003,Foils\scenes26.jpg,none,s,5.6665080999955535,None,,,,00022,001,2026-01-20_17h30.21.472,MST_test,2024.2.0,60.05464973490318,2026-01-20 17h30.28.390848 +0530,
52,0,53,s,2.763574900003732,None,53,0,52,513.5006611999997,,,,,,,,,,,,,,,,,,,,,,,,,,,,,,,,,,,,,,,,,,,,,,,,,,513.484990099998,513.5006611999997,514.0216664000036,513.9839504999982,514.0194941000082,514.0216664000036,514.0216664000036,514.0216664000036,516.8002888000046,Objects\007a.jpg,pre,s,2.763574900003732,None,,,,00022,001,2026-01-20_17h30.21.472,MST_test,2024.2.0,60.05464973490318,2026-01-20 17h30.28.390848 +0530,
53,0,54,o,1.579698700006702,None,54,0,53,516.8168650000007,,,,,,,,,,,,,,,,,,,,,,,,,,,,,,,,,,,,,,,,,,,,,,,,,,516.8004270000092,516.8168650000007,,517.3004983999999,517.3149923000019,517.3173516000097,517.3173516000097,517.3173516000097,518.900562099996,Scenes\191a.jpg,post,o,1.579698700006702,None,,,,00022,001,2026-01-20_17h30.21.472,MST_test,2024.2.0,60.05464973490318,2026-01-20 17h30.28.390848 +0530,
54,0,55,o,6.901574900010019,None,55,0,54,518.9168839000049,,,,,,,,,,,,,,,,,,,,,,,,,,,,,,,,,,,,,,,,,,,,,,,,,,518.9009378000046,518.9168839000049,519.420125500008,519.4005295000097,519.4176414000103,519.420125500008,519.420125500008,519.420125500008,526.3343622000102,Scenes\073a.jpg,pre,o,6.901574900010019,None,,,,00022,001,2026-01-20_17h30.21.472,MST_test,2024.2.0,60.05464973490318,2026-01-20 17h30.28.390848 +0530,
55,0,56,n,3.7216406999941682,None,56,0,55,526.3508396999969,,,,,,,,,,,,,,,,,,,,,,,,,,,,,,,,,,,,,,,,,,,,,,,,,,526.3347487999999,526.3508396999969,526.8553813000035,526.8343412999966,526.852509999997,526.8553813000035,526.8553813000035,526.8553813000035,530.5841725000064,Scenes\015a.jpg,mid,n,3.7216406999941682,None,,,,00022,001,2026-01-20_17h30.21.472,MST_test,2024.2.0,60.05464973490318,2026-01-20 17h30.28.390848 +0530,
56,0,57,o,2.89467570000852,None,57,0,56,530.6001259000041,,,,,,,,,,,,,,,,,,,,,,,,,,,,,,,,,,,,,,,,,,,,,,,,,,530.5846165999974,530.6001259000041,531.1303945999971,531.0839264000097,531.127396099997,531.1303945999971,531.1303945999971,531.1303945999971,534.034238399996,Scenes\022b.jpg,pre,o,2.89467570000852,None,,,,00022,001,2026-01-20_17h30.21.472,MST_test,2024.2.0,60.05464973490318,2026-01-20 17h30.28.390848 +0530,
57,0,58,n,8.595363500004169,None,58,0,57,534.0501767999958,,,,,,,,,,,,,,,,,,,,,,,,,,,,,,,,,,,,,,,,,,,,,,,,,,534.0347356999991,534.0501767999958,534.5503407000069,534.5340421000001,534.5473149000027,534.5503407000069,534.5503407000069,534.5503407000069,543.1508665000001,Scenes\168b.jpg,post,n,8.595363500004169,None,,,,00022,001,2026-01-20_17h30.21.472,MST_test,2024.2.0,60.05464973490318,2026-01-20 17h30.28.390848 +0530,
58,0,59,o,1.0442993999895407,None,59,0,58,543.1666769000003,,,,,,,,,,,,,,,,,,,,,,,,,,,,,,,,,,,,,,,,,,,,,,,,,,543.1513483000017,543.1666769000003,543.6850265999965,543.6500186000048,543.6815945999988,543.6850265999965,543.6850265999965,543.6850265999965,544.733884900008,Objects\038b.jpg,mid,o,1.0442993999895407,None,,,,00022,001,2026-01-20_17h30.21.472,MST_test,2024.2.0,60.05464973490318,2026-01-20 17h30.28.390848 +0530,
59,0,60,o,1.111448299998301,None,60,0,59,544.7500035999983,,,,,,,,,,,,,,,,,,,,,,,,,,,,,,,,,,,,,,,,,,,,,,,,,,544.7342366000084,544.7500035999983,545.250157100003,545.2341083000065,545.2403962999961,545.250157100003,545.250157100003,545.250157100003,546.3675774000003,Objects\059a.jpg,post,o,1.111448299998301,None,,,,00022,001,2026-01-20_17h30.21.472,MST_test,2024.2.0,60.05464973490318,2026-01-20 17h30.28.390848 +0530,
60,0,61,o,0.7736399999994319,None,61,0,60,546.3835381000099,,,,,,,,,,,,,,,,,,,,,,,,,,,,,,,,,,,,,,,,,,,,,,,,,,546.3679508000059,546.3835381000099,546.8836440000014,546.8674232000049,546.875849899996,546.8836440000014,546.8836440000014,546.8836440000014,547.6675098999985,Objects\040a.jpg,mid,o,0.7736399999994319,None,,,,00022,001,2026-01-20_17h30.21.472,MST_test,2024.2.0,60.05464973490318,2026-01-20 17h30.28.390848 +0530,
61,0,62,s,1.7382428999990225,None,62,0,61,547.6835750000027,,,,,,,,,,,,,,,,,,,,,,,,,,,,,,,,,,,,,,,,,,,,,,,,,,547.6679338000104,547.6835750000027,548.1834162000014,548.1672865,548.1759526000096,548.1834162000014,548.1834162000014,548.1834162000014,549.934324700007,Foils\018a.jpg,none,s,1.7382428999990225,None,,,,00022,001,2026-01-20_17h30.21.472,MST_test,2024.2.0,60.05464973490318,2026-01-20 17h30.28.390848 +0530,
62,0,63,o,4.165238999994472,None,63,0,62,549.9499517000077,,,,,,,,,,,,,,,,,,,,,,,,,,,,,,,,,,,,,,,,,,,,,,,,,,549.9346906999999,549.9499517000077,550.4604462999996,550.4341346000001,550.4579373000015,550.4604462999996,550.4604462999996,550.4604462999996,554.6343755999987,Scenes\003b.jpg,mid,o,4.165238999994472,None,,,,00022,001,2026-01-20_17h30.21.472,MST_test,2024.2.0,60.05464973490318,2026-01-20 17h30.28.390848 +0530,
63,0,64,o,2.3732113000005484,None,64,0,63,554.6498634000018,,,,,,,,,,,,,,,,,,,,,,,,,,,,,,,,,,,,,,,,,,,,,,,,,,554.6347627000068,554.6498634000018,555.1564921999961,555.1339815999963,555.1537669999962,555.1564921999961,555.1564921999961,555.1564921999961,557.5342803000094,Scenes\002a.jpg,post,o,2.3732113000005484,None,,,,00022,001,2026-01-20_17h30.21.472,MST_test,2024.2.0,60.05464973490318,2026-01-20 17h30.28.390848 +0530,
64,0,65,s,6.2865163999958895,None,65,0,64,557.5501887999999,,,,,,,,,,,,,,,,,,,,,,,,,,,,,,,,,,,,,,,,,,,,,,,,,,557.5346340999968,557.5501887999999,558.0504609000054,558.0337046000059,558.0436305000039,558.0504609000054,558.0504609000054,558.0504609000054,564.3505245999986,Foils\010a.jpg,none,s,6.2865163999958895,None,,,,00022,001,2026-01-20_17h30.21.472,MST_test,2024.2.0,60.05464973490318,2026-01-20 17h30.28.390848 +0530,
65,0,66,s,3.117819999999483,None,66,0,65,564.3673475999967,,,,,,,,,,,,,,,,,,,,,,,,,,,,,,,,,,,,,,,,,,,,,,,,,,564.3508975000004,564.3673475999967,,564.8511911000096,564.8614088000031,564.8671597000066,564.8671597000066,564.8671597000066,568.0009779000102,Foils\105a.jpg,none,s,3.117819999999483,None,,,,00022,001,2026-01-20_17h30.21.472,MST_test,2024.2.0,60.05464973490318,2026-01-20 17h30.28.390848 +0530,
66,0,67,n,1.9245890000020154,None,67,0,66,568.016875900008,,,,,,,,,,,,,,,,,,,,,,,,,,,,,,,,,,,,,,,,,,,,,,,,,,568.0013990000007,568.016875900008,568.5570934999996,568.5001728000061,568.5546009999962,568.5570934999996,568.5570934999996,568.5570934999996,570.4839807999961,Scenes\069b.jpg,post,n,1.9245890000020154,None,,,,00022,001,2026-01-20_17h30.21.472,MST_test,2024.2.0,60.05464973490318,2026-01-20 17h30.28.390848 +0530,
67,0,68,o,3.3681930000020657,None,68,0,67,570.5002243000054,,,,,,,,,,,,,,,,,,,,,,,,,,,,,,,,,,,,,,,,,,,,,,,,,,570.4844039000018,570.5002243000054,571.000813000006,570.983948699999,570.9937444000097,571.000813000006,571.000813000006,571.000813000006,574.384266100009,Objects\171a.jpg,pre,o,3.3681930000020657,None,,,,00022,001,2026-01-20_17h30.21.472,MST_test,2024.2.0,60.05464973490318,2026-01-20 17h30.28.390848 +0530,
68,0,69,s,2.6214646000007633,None,69,0,68,574.4008675000077,,,,,,,,,,,,,,,,,,,,,,,,,,,,,,,,,,,,,,,,,,,,,,,,,,574.3846179999964,574.4008675000077,574.9002286000032,574.884077499999,574.8927733000019,574.9002286000032,574.9002286000032,574.9002286000032,577.533912800005,Foils\050a.jpg,none,s,2.6214646000007633,None,,,,00022,001,2026-01-20_17h30.21.472,MST_test,2024.2.0,60.05464973490318,2026-01-20 17h30.28.390848 +0530,
69,0,70,o,1.4384814999939408,None,70,0,69,577.550256100003,,,,,,,,,,,,,,,,,,,,,,,,,,,,,,,,,,,,,,,,,,,,,,,,,,577.5342648000078,577.550256100003,578.0506339999993,578.0341459000047,578.0407529000076,578.0506339999993,578.0506339999993,578.0506339999993,579.5008022999973,Foils\066a.jpg,none,o,1.4384814999939408,None,,,,00022,001,2026-01-20_17h30.21.472,MST_test,2024.2.0,60.05464973490318,2026-01-20 17h30.28.390848 +0530,
70,0,71,o,5.832521000003908,None,71,0,70,579.5166078000038,,,,,,,,,,,,,,,,,,,,,,,,,,,,,,,,,,,,,,,,,,,,,,,,,,579.5011587000045,579.5166078000038,580.0170726000069,580.0006799999974,580.0094700000045,580.0170726000069,580.0170726000069,580.0170726000069,585.851043600007,Objects\094b.jpg,mid,o,5.832521000003908,None,,,,00022,001,2026-01-20_17h30.21.472,MST_test,2024.2.0,60.05464973490318,2026-01-20 17h30.28.390848 +0530,
71,0,72,n,2.336096999992151,None,72,0,71,585.866546899997,,,,,,,,,,,,,,,,,,,,,,,,,,,,,,,,,,,,,,,,,,,,,,,,,,585.8515066999971,585.866546899997,586.3933265000087,586.3506098000071,586.3913048999966,586.3933265000087,586.3933265000087,586.3933265000087,588.7343020999979,Objects\187b.jpg,pre,n,2.336096999992151,None,,,,00022,001,2026-01-20_17h30.21.472,MST_test,2024.2.0,60.05464973490318,2026-01-20 17h30.28.390848 +0530,
72,0,73,s,2.4557017000042833,None,73,0,72,588.7500289000018,,,,,,,,,,,,,,,,,,,,,,,,,,,,,,,,,,,,,,,,,,,,,,,,,,588.734655799999,588.7500289000018,,589.2345122999977,589.2428214000101,589.2500335000077,589.2500335000077,589.2500335000077,591.7175531000103,Objects\106a.jpg,mid,s,2.4557017000042833,None,,,,00022,001,2026-01-20_17h30.21.472,MST_test,2024.2.0,60.05464973490318,2026-01-20 17h30.28.390848 +0530,
73,0,74,o,2.708507599993027,None,74,0,73,591.7338283999998,,,,,,,,,,,,,,,,,,,,,,,,,,,,,,,,,,,,,,,,,,,,,,,,,,591.7180417000054,591.7338283999998,592.2605025000084,592.2173011999985,592.2579139000009,592.2605025000084,592.2605025000084,592.2605025000084,594.9841670000023,Scenes\095b.jpg,mid,o,2.708507599993027,None,,,,00022,001,2026-01-20_17h30.21.472,MST_test,2024.2.0,60.05464973490318,2026-01-20 17h30.28.390848 +0530,
74,0,75,o,1.2204569000023184,None,75,0,74,595.0000817999971,,,,,,,,,,,,,,,,,,,,,,,,,,,,,,,,,,,,,,,,,,,,,,,,,,594.9845655999961,595.0000817999971,595.5007964999968,595.4839951000031,595.4935007000022,595.5007964999968,595.5007964999968,595.5007964999968,596.734091300008,Objects\145a.jpg,mid,o,1.2204569000023184,None,,,,00022,001,2026-01-20_17h30.21.472,MST_test,2024.2.0,60.05464973490318,2026-01-20 17h30.28.390848 +0530,
75,0,76,o,1.3383854999992764,None,76,0,75,596.7513269000046,,,,,,,,,,,,,,,,,,,,,,,,,,,,,,,,,,,,,,,,,,,,,,,,,,596.7344481000036,596.7513269000046,,597.2504500000068,597.2754106000066,597.2787229000096,597.2787229000096,597.2787229000096,598.6342127000098,Scenes\046a.jpg,pre,o,1.3383854999992764,None,,,,00022,001,2026-01-20_17h30.21.472,MST_test,2024.2.0,60.05464973490318,2026-01-20 17h30.28.390848 +0530,
76,0,77,o,1.8874844999954803,None,77,0,76,598.6502044000081,,,,,,,,,,,,,,,,,,,,,,,,,,,,,,,,,,,,,,,,,,,,,,,,,,598.6346129000012,598.6502044000081,599.1861165000009,599.1340484999964,599.1835410000058,599.1861165000009,599.1861165000009,599.1861165000009,601.0843125999963,Objects\185b.jpg,post,o,1.8874844999954803,None,,,,00022,001,2026-01-20_17h30.21.472,MST_test,2024.2.0,60.05464973490318,2026-01-20 17h30.28.390848 +0530,
77,0,78,s,1.8951100999984192,None,78,0,77,601.1002384000021,,,,,,,,,,,,,,,,,,,,,,,,,,,,,,,,,,,,,,,,,,,,,,,,,,601.0847882000089,601.1002384000021,601.6181681000016,601.5833542000037,601.6155876999983,601.6181681000016,601.6181681000016,601.6181681000016,603.5176388999971,Objects\155b.jpg,pre,s,1.8951100999984192,None,,,,00022,001,2026-01-20_17h30.21.472,MST_test,2024.2.0,60.05464973490318,2026-01-20 17h30.28.390848 +0530,
78,0,79,o,1.4237585999944713,None,79,0,78,603.5334889000078,,,,,,,,,,,,,,,,,,,,,,,,,,,,,,,,,,,,,,,,,,,,,,,,,,603.5180276000028,603.5334889000078,604.0338383000053,604.0173031000013,604.0268975000072,604.0338383000053,604.0338383000053,604.0338383000053,605.4676382000034,Objects\034a.jpg,pre,o,1.4237585999944713,None,,,,00022,001,2026-01-20_17h30.21.472,MST_test,2024.2.0,60.05464973490318,2026-01-20 17h30.28.390848 +0530,
79,0,80,o,3.4321883999946294,None,80,0,79,605.4832767000044,,,,,,,,,,,,,,,,,,,,,,,,,,,,,,,,,,,,,,,,,,,,,,,,,,605.4679933000007,605.4832767000044,605.9848617000098,605.9673401000036,605.977098000003,605.9848617000098,605.9848617000098,605.9848617000098,609.4177596000081,Scenes\118a.jpg,post,o,3.4321883999946294,None,,,,00022,001,2026-01-20_17h30.21.472,MST_test,2024.2.0,60.05464973490318,2026-01-20 17h30.28.390848 +0530,
80,0,81,n,2.1800653000100283,None,81,0,80,609.4333600999962,,,,,,,,,,,,,,,,,,,,,,,,,,,,,,,,,,,,,,,,,,,,,,,,,,609.4181220000028,609.4333600999962,609.9335370000044,609.9173968999967,609.9286819999979,609.9335370000044,609.9335370000044,609.9335370000044,612.1177234000061,Scenes\162a.jpg,mid,n,2.1800653000100283,None,,,,00022,001,2026-01-20_17h30.21.472,MST_test,2024.2.0,60.05464973490318,2026-01-20 17h30.28.390848 +0530,
81,0,82,o,3.075783699998283,None,82,0,81,612.1335357000062,,,,,,,,,,,,,,,,,,,,,,,,,,,,,,,,,,,,,,,,,,,,,,,,,,612.1182265000098,612.1335357000062,612.6378818000085,612.6172003000102,612.6354538000014,612.6378818000085,612.6378818000085,612.6378818000085,615.7176631000038,Scenes\102a.jpg,pre,o,3.075783699998283,None,,,,00022,001,2026-01-20_17h30.21.472,MST_test,2024.2.0,60.05464973490318,2026-01-20 17h30.28.390848 +0530,
82,0,83,n,1.8077314999973169,None,83,0,82,615.7335464000062,,,,,,,,,,,,,,,,,,,,,,,,,,,,,,,,,,,,,,,,,,,,,,,,,,615.7181103000039,615.7335464000062,616.3059421000071,616.217840199999,616.3015851000091,616.3059421000071,616.3059421000071,616.3059421000071,618.1176694000023,Foils\scenes25.jpg,none,n,1.8077314999973169,None,,,,00022,001,2026-01-20_17h30.21.472,MST_test,2024.2.0,60.05464973490318,2026-01-20 17h30.28.390848 +0530,
83,0,84,o,1.5566772000020137,None,84,0,83,618.1335025000008,,,,,,,,,,,,,,,,,,,,,,,,,,,,,,,,,,,,,,,,,,,,,,,,,,618.1180240000103,618.1335025000008,618.6369831000047,618.6172798000043,618.6323411000049,618.6369831000047,618.6369831000047,618.6369831000047,620.2008795000002,Scenes\175a.jpg,pre,o,1.5566772000020137,None,,,,00022,001,2026-01-20_17h30.21.472,MST_test,2024.2.0,60.05464973490318,2026-01-20 17h30.28.390848 +0530,
84,0,85,o,3.5958045000006678,None,85,0,84,620.2168851000024,,,,,,,,,,,,,,,,,,,,,,,,,,,,,,,,,,,,,,,,,,,,,,,,,,620.201129100009,620.2168851000024,620.7171184000035,620.7006679000042,620.7134372,620.7171184000035,620.7171184000035,620.7171184000035,624.3172644000006,Objects\137a.jpg,pre,o,3.5958045000006678,None,,,,00022,001,2026-01-20_17h30.21.472,MST_test,2024.2.0,60.05464973490318,2026-01-20 17h30.28.390848 +0530,
85,0,86,s,12.771812100007082,None,86,0,85,624.3334849000094,,,,,,,,,,,,,,,,,,,,,,,,,,,,,,,,,,,,,,,,,,,,,,,,,,624.3176175999979,624.3334849000094,624.8379115999996,624.8173457000084,624.835349800007,624.8379115999996,624.8379115999996,624.8379115999996,637.6175777000026,Scenes\062a.jpg,mid,s,12.771812100007082,None,,,,00022,001,2026-01-20_17h30.21.472,MST_test,2024.2.0,60.05464973490318,2026-01-20 17h30.28.390848 +0530,
86,0,87,s,4.70631590000994,None,87,0,86,637.6336049000092,,,,,,,,,,,,,,,,,,,,,,,,,,,,,,,,,,,,,,,,,,,,,,,,,,637.6179353000043,637.6336049000092,638.1347269999969,638.117299400008,638.1321616000059,638.1347269999969,638.1347269999969,638.1347269999969,642.8510045000003,Scenes\190a.jpg,post,s,4.70631590000994,None,,,,00022,001,2026-01-20_17h30.21.472,MST_test,2024.2.0,60.05464973490318,2026-01-20 17h30.28.390848 +0530,
87,0,88,o,1.3143543000041973,None,88,0,87,642.8669147000037,,,,,,,,,,,,,,,,,,,,,,,,,,,,,,,,,,,,,,,,,,,,,,,,,,642.8513551000069,642.8669147000037,643.3672270000097,643.3499848000065,643.3557826000033,643.3672270000097,643.3672270000097,643.3672270000097,644.6837743000069,Objects\062a.jpg,pre,o,1.3143543000041973,None,,,,00022,001,2026-01-20_17h30.21.472,MST_test,2024.2.0,60.05464973490318,2026-01-20 17h30.28.390848 +0530,
88,0,89,n,1.3523960000020452,None,89,0,88,644.7002350999974,,,,,,,,,,,,,,,,,,,,,,,,,,,,,,,,,,,,,,,,,,,,,,,,,,644.6841967000073,644.7002350999974,645.2004298000102,645.1838883000019,645.1920337000047,645.2004298000102,645.2004298000102,645.2004298000102,646.5676628000074,Objects\069a.jpg,post,n,1.3523960000020452,None,,,,00022,001,2026-01-20_17h30.21.472,MST_test,2024.2.0,60.05464973490318,2026-01-20 17h30.28.390848 +0530,
89,0,90,n,1.1687115999957314,None,90,0,89,646.5835251000099,,,,,,,,,,,,,,,,,,,,,,,,,,,,,,,,,,,,,,,,,,,,,,,,,,646.5680147000094,646.5835251000099,647.1127814000065,647.0668755000079,647.1101229000051,647.1127814000065,647.1127814000065,647.1127814000065,648.2838479000056,Scenes\084b.jpg,post,n,1.1687115999957314,None,,,,00022,001,2026-01-20_17h30.21.472,MST_test,2024.2.0,60.05464973490318,2026-01-20 17h30.28.390848 +0530,
90,0,91,o,0.9436571999976877,None,91,0,90,648.3003089999984,,,,,,,,,,,,,,,,,,,,,,,,,,,,,,,,,,,,,,,,,,,,,,,,,,648.2840253000031,648.3003089999984,648.8335433000029,648.7839378000062,648.8310779000021,648.8335433000029,648.8335433000029,648.8335433000029,649.7842113000079,Objects\003b.jpg,post,o,0.9436571999976877,None,,,,00022,001,2026-01-20_17h30.21.472,MST_test,2024.2.0,60.05464973490318,2026-01-20 17h30.28.390848 +0530,
91,0,92,o,2.3565429000009317,None,92,0,91,649.8002090000082,,,,,,,,,,,,,,,,,,,,,,,,,,,,,,,,,,,,,,,,,,,,,,,,,,649.7846244000102,649.8002090000082,650.3006894999999,650.2839400000084,650.2962629999965,650.3006894999999,650.3006894999999,650.3006894999999,652.6676136000024,Scenes\147a.jpg,pre,o,2.3565429000009317,None,,,,00022,001,2026-01-20_17h30.21.472,MST_test,2024.2.0,60.05464973490318,2026-01-20 17h30.28.390848 +0530,
92,0,93,o,1.824778599999263,None,93,0,92,652.6836610000028,,,,,,,,,,,,,,,,,,,,,,,,,,,,,,,,,,,,,,,,,,,,,,,,,,652.6679909000086,652.6836610000028,653.1844385000004,653.1673850000079,653.177708800009,653.1844385000004,653.1844385000004,653.1844385000004,655.0173848999984,Objects\051b.jpg,post,o,1.824778599999263,None,,,,00022,001,2026-01-20_17h30.21.472,MST_test,2024.2.0,60.05464973490318,2026-01-20 17h30.28.390848 +0530,
93,0,94,s,3.8433384999952978,None,94,0,93,655.0334162000072,,,,,,,,,,,,,,,,,,,,,,,,,,,,,,,,,,,,,,,,,,,,,,,,,,655.0178331000061,655.0334162000072,655.5342932000058,655.5173458000063,655.5274325000064,655.5342932000058,655.5342932000058,655.5342932000058,659.384171800004,Objects\103a.jpg,post,s,3.8433384999952978,None,,,,00022,001,2026-01-20_17h30.21.472,MST_test,2024.2.0,60.05464973490318,2026-01-20 17h30.28.390848 +0530,
94,0,95,o,1.348805400004494,None,95,0,94,659.4001749000017,,,,,,,,,,,,,,,,,,,,,,,,,,,,,,,,,,,,,,,,,,,,,,,,,,659.3846171000041,659.4001749000017,659.9004265999974,659.8840383000061,659.8924291000003,659.9004265999974,659.9004265999974,659.9004265999974,661.2507139000081,Objects\017a.jpg,mid,o,1.348805400004494,None,,,,00022,001,2026-01-20_17h30.21.472,MST_test,2024.2.0,60.05464973490318,2026-01-20 17h30.28.390848 +0530,
95,0,96,n,5.873818000007304,None,96,0,95,661.266606300007,,,,,,,,,,,,,,,,,,,,,,,,,,,,,,,,,,,,,,,,,,,,,,,,,,661.251167800001,661.266606300007,661.7671694000019,661.7507039000047,661.7590360000031,661.7671694000019,661.7671694000019,661.7671694000019,667.6508239999966,Objects\079b.jpg,post,n,5.873818000007304,None,,,,00022,001,2026-01-20_17h30.21.472,MST_test,2024.2.0,60.05464973490318,2026-01-20 17h30.28.390848 +0530,
96,0,97,o,1.0017166000034194,None,97,0,96,667.6673807000043,,,,,,,,,,,,,,,,,,,,,,,,,,,,,,,,,,,,,,,,,,,,,,,,,,667.6511885000073,667.6673807000043,668.1671497000061,668.1506683000043,668.1610019000072,668.1671497000061,668.1671497000061,668.1671497000061,669.1839088999986,Objects\066a.jpg,mid,o,1.0017166000034194,None,,,,00022,001,2026-01-20_17h30.21.472,MST_test,2024.2.0,60.05464973490318,2026-01-20 17h30.28.390848 +0530,
97,0,98,s,2.86569469999813,None,98,0,97,669.2001537000033,,,,,,,,,,,,,,,,,,,,,,,,,,,,,,,,,,,,,,,,,,,,,,,,,,669.184282000002,669.2001537000033,669.719549100002,669.6839717999974,669.7169310000027,669.719549100002,669.719549100002,669.719549100002,672.6009332000103,Objects\139b.jpg,pre,s,2.86569469999813,None,,,,00022,001,2026-01-20_17h30.21.472,MST_test,2024.2.0,60.05464973490318,2026-01-20 17h30.28.390848 +0530,
98,0,99,n,1.2236244999949122,None,99,0,98,672.6169367999973,,,,,,,,,,,,,,,,,,,,,,,,,,,,,,,,,,,,,,,,,,,,,,,,,,672.6013926000014,672.6169367999973,,673.1012059000059,673.1358050999988,673.1379613000026,673.1379613000026,673.1379613000026,674.3674992000015,Foils\009a.jpg,none,n,1.2236244999949122,None,,,,00022,001,2026-01-20_17h30.21.472,MST_test,2024.2.0,60.05464973490318,2026-01-20 17h30.28.390848 +0530,
99,0,100,o,4.243692899995949,None,100,0,99,674.3835364999977,,,,,,,,,,,,,,,,,,,,,,,,,,,,,,,,,,,,,,,,,,,,,,,,,,674.3678669000074,674.3835364999977,674.9172914000083,674.867688600003,674.9148941000021,674.9172914000083,674.9172914000083,674.9172914000083,679.1673490999965,Scenes\011b.jpg,pre,o,4.243692899995949,None,,,,00022,001,2026-01-20_17h30.21.472,MST_test,2024.2.0,60.05464973490318,2026-01-20 17h30.28.390848 +0530,
100,0,101,o,2.3414694999955827,None,101,0,100,679.1836106999981,,,,,,,,,,,,,,,,,,,,,,,,,,,,,,,,,,,,,,,,,,,,,,,,,,679.1677975000057,679.1836106999981,679.68415310001,679.6672691999993,679.6798603000061,679.68415310001,679.68415310001,679.68415310001,682.0341472,Scenes\153a.jpg,mid,o,2.3414694999955827,None,,,,00022,001,2026-01-20_17h30.21.472,MST_test,2024.2.0,60.05464973490318,2026-01-20 17h30.28.390848 +0530,
101,0,102,o,0.949619300008635,None,102,0,101,682.0516487999994,,,,,,,,,,,,,,,,,,,,,,,,,,,,,,,,,,,,,,,,,,,,,,,,,,682.0345150000066,682.0516487999994,,682.5503373999964,682.5853765000065,682.5879827000026,682.5879827000026,682.5879827000026,683.5506870000099,Scenes\113b.jpg,mid,o,0.949619300008635,None,,,,00022,001,2026-01-20_17h30.21.472,MST_test,2024.2.0,60.05464973490318,2026-01-20 17h30.28.390848 +0530,
102,0,103,s,3.7460659999924246,None,103,0,102,683.5669297999993,,,,,,,,,,,,,,,,,,,,,,,,,,,,,,,,,,,,,,,,,,,,,,,,,,683.5510396000027,683.5669297999993,684.070982899997,684.0507717,684.068245100003,684.070982899997,684.070982899997,684.070982899997,687.8179657000001,Scenes\072a.jpg,post,s,3.7460659999924246,None,,,,00022,001,2026-01-20_17h30.21.472,MST_test,2024.2.0,60.05464973490318,2026-01-20 17h30.28.390848 +0530,
103,0,104,o,1.584943399997428,None,104,0,103,687.8333854000084,,,,,,,,,,,,,,,,,,,,,,,,,,,,,,,,,,,,,,,,,,,,,,,,,,687.8183615000016,687.8333854000084,688.3366315000021,688.3172254000092,688.3341386999964,688.3366315000021,688.3366315000021,688.3366315000021,689.934328000003,Scenes\074a.jpg,post,o,1.584943399997428,None,,,,00022,001,2026-01-20_17h30.21.472,MST_test,2024.2.0,60.05464973490318,2026-01-20 17h30.28.390848 +0530,
104,0,105,o,2.5906896000087727,None,105,0,104,689.9499384000083,,,,,,,,,,,,,,,,,,,,,,,,,,,,,,,,,,,,,,,,,,,,,,,,,,689.9346732999984,689.9499384000083,690.4508420000057,690.4340306000086,690.4439445000025,690.4508420000057,690.4508420000057,690.4508420000057,693.0507439000066,Objects\043b.jpg,pre,o,2.5906896000087727,None,,,,00022,001,2026-01-20_17h30.21.472,MST_test,2024.2.0,60.05464973490318,2026-01-20 17h30.28.390848 +0530,
105,0,106,s,5.160835600006976,None,106,0,105,693.0669256999972,,,,,,,,,,,,,,,,,,,,,,,,,,,,,,,,,,,,,,,,,,,,,,,,,,693.0511396000074,693.0669256999972,693.592167499999,693.550774400006,693.5896904999972,693.592167499999,693.592167499999,693.592167499999,698.7673768000095,Scenes\140b.jpg,post,s,5.160835600006976,None,,,,00022,001,2026-01-20_17h30.21.472,MST_test,2024.2.0,60.05464973490318,2026-01-20 17h30.28.390848 +0530,
106,0,107,n,1.5886679999966873,None,107,0,106,698.7832460000063,,,,,,,,,,,,,,,,,,,,,,,,,,,,,,,,,,,,,,,,,,,,,,,,,,698.767831300007,698.7832460000063,699.28418100001,699.2667946000001,699.2780212000071,699.28418100001,699.28418100001,699.28418100001,700.8840070000006,Scenes\154a.jpg,mid,n,1.5886679999966873,None,,,,00022,001,2026-01-20_17h30.21.472,MST_test,2024.2.0,60.05464973490318,2026-01-20 17h30.28.390848 +0530,
107,0,108,o,2.449445799997193,None,108,0,107,700.8999040000053,,,,,,,,,,,,,,,,,,,,,,,,,,,,,,,,,,,,,,,,,,,,,,,,,,700.8843763000041,700.8999040000053,701.4321633000072,701.3836891000101,701.4296738999983,701.4321633000072,701.4321633000072,701.4321633000072,703.8838672999991,Scenes\055b.jpg,pre,o,2.449445799997193,None,,,,00022,001,2026-01-20_17h30.21.472,MST_test,2024.2.0,60.05464973490318,2026-01-20 17h30.28.390848 +0530,
108,0,109,o,3.4881890999968164,None,109,0,108,703.9002660999977,,,,,,,,,,,,,,,,,,,,,,,,,,,,,,,,,,,,,,,,,,,,,,,,,,703.8842104000069,703.9002660999977,704.4009155000094,704.3839552999998,704.3987983999978,704.4009155000094,704.4009155000094,704.4009155000094,707.9008169000008,Scenes\143b.jpg,pre,o,3.4881890999968164,None,,,,00022,001,2026-01-20_17h30.21.472,MST_test,2024.2.0,60.05464973490318,2026-01-20 17h30.28.390848 +0530,
109,0,110,o,1.408248600011575,None,110,0,109,707.9167312000063,,,,,,,,,,,,,,,,,,,,,,,,,,,,,,,,,,,,,,,,,,,,,,,,,,707.9011884000065,707.9167312000063,708.4172817000072,708.4007119000016,708.4147221000021,708.4172817000072,708.4172817000072,708.4172817000072,709.8342700000067,Scenes\091a.jpg,mid,o,1.408248600011575,None,,,,00022,001,2026-01-20_17h30.21.472,MST_test,2024.2.0,60.05464973490318,2026-01-20 17h30.28.390848 +0530,
110,0,111,n,3.097468400010257,None,111,0,110,709.8502355000091,,,,,,,,,,,,,,,,,,,,,,,,,,,,,,,,,,,,,,,,,,,,,,,,,,709.8346942000062,709.8502355000091,710.3522556000098,710.3340096000029,710.3494942999969,710.3522556000098,710.3522556000098,710.3522556000098,713.4513379999989,Foils\scenes22.jpg,none,n,3.097468400010257,None,,,,00022,001,2026-01-20_17h30.21.472,MST_test,2024.2.0,60.05464973490318,2026-01-20 17h30.28.390848 +0530,
111,0,112,o,5.151196099992376,None,112,0,111,713.4670007000095,,,,,,,,,,,,,,,,,,,,,,,,,,,,,,,,,,,,,,,,,,,,,,,,,,713.4517354999989,713.4670007000095,713.9946048999991,713.9506408000016,713.9919870000012,713.9946048999991,713.9946048999991,713.9946048999991,719.1510455000098,Objects\131b.jpg,mid,o,5.151196099992376,None,,,,00022,001,2026-01-20_17h30.21.472,MST_test,2024.2.0,60.05464973490318,2026-01-20 17h30.28.390848 +0530,
112,0,113,s,3.839023599997745,None,113,0,112,719.1667643999972,,,,,,,,,,,,,,,,,,,,,,,,,,,,,,,,,,,,,,,,,,,,,,,,,,719.1513931000081,719.1667643999972,719.7062737000088,719.6507157000015,719.7034711000015,719.7062737000088,719.7062737000088,719.7062737000088,723.5505381999974,Scenes\009b.jpg,mid,s,3.839023599997745,None,,,,00022,001,2026-01-20_17h30.21.472,MST_test,2024.2.0,60.05464973490318,2026-01-20 17h30.28.390848 +0530,
113,0,114,o,1.3174103000055766,None,114,0,113,723.5669143999985,,,,,,,,,,,,,,,,,,,,,,,,,,,,,,,,,,,,,,,,,,,,,,,,,,723.5510042000096,723.5669143999985,724.0674444000033,724.0505401999981,724.0574345000059,724.0674444000033,724.0674444000033,724.0674444000033,725.4009048000007,Objects\149a.jpg,post,o,1.3174103000055766,None,,,,00022,001,2026-01-20_17h30.21.472,MST_test,2024.2.0,60.05464973490318,2026-01-20 17h30.28.390848 +0530,
114,0,115,o,3.2165936999954283,None,115,0,114,725.4169915000093,,,,,,,,,,,,,,,,,,,,,,,,,,,,,,,,,,,,,,,,,,,,,,,,,,725.4013319000078,725.4169915000093,725.9365435000072,725.9006134000083,725.9337070000038,725.9365435000072,725.9365435000072,725.9365435000072,729.1676905000058,Objects\128b.jpg,pre,o,3.2165936999954283,None,,,,00022,001,2026-01-20_17h30.21.472,MST_test,2024.2.0,60.05464973490318,2026-01-20 17h30.28.390848 +0530,
115,0,116,o,4.565682200001902,None,116,0,115,729.1835624000087,,,,,,,,,,,,,,,,,,,,,,,,,,,,,,,,,,,,,,,,,,,,,,,,,,729.1681001999968,729.1835624000087,729.6838485000044,729.6674363000056,729.675753500007,729.6838485000044,729.6838485000044,729.6838485000044,734.2510735999967,Objects\064a.jpg,mid,o,4.565682200001902,None,,,,00022,001,2026-01-20_17h30.21.472,MST_test,2024.2.0,60.05464973490318,2026-01-20 17h30.28.390848 +0530,
116,0,117,o,1.5455120999977225,None,117,0,116,734.2666714000079,,,,,,,,,,,,,,,,,,,,,,,,,,,,,,,,,,,,,,,,,,,,,,,,,,734.2514704000059,734.2666714000079,734.7914488999959,734.7506588999968,734.7894077000092,734.7914488999959,734.7914488999959,734.7914488999959,736.3506691000075,Objects\042b.jpg,pre,o,1.5455120999977225,None,,,,00022,001,2026-01-20_17h30.21.472,MST_test,2024.2.0,60.05464973490318,2026-01-20 17h30.28.390848 +0530,
117,0,118,s,2.325867500010645,None,118,0,117,736.3666482999979,,,,,,,,,,,,,,,,,,,,,,,,,,,,,,,,,,,,,,,,,,,,,,,,,,736.3510231999971,736.3666482999979,736.8671134000033,736.850637800002,736.8591470999963,736.8671134000033,736.8671134000033,736.8671134000033,739.200966000004,Objects\060a.jpg,pre,s,2.325867500010645,None,,,,00022,001,2026-01-20_17h30.21.472,MST_test,2024.2.0,60.05464973490318,2026-01-20 17h30.28.390848 +0530,
118,0,119,n,3.6998244999995222,None,119,0,118,739.2172207999974,,,,,,,,,,,,,,,,,,,,,,,,,,,,,,,,,,,,,,,,,,,,,,,,,,739.2014357000007,739.2172207999974,739.7171118999977,739.7005680000002,739.7088401000074,739.7171118999977,739.7171118999977,739.7171118999977,743.4177152000047,Foils\093b.jpg,none,n,3.6998244999995222,None,,,,00022,001,2026-01-20_17h30.21.472,MST_test,2024.2.0,60.05464973490318,2026-01-20 17h30.28.390848 +0530,
119,0,120,o,1.3879630000010366,None,120,0,119,743.4335352000053,,,,,,,,,,,,,,,,,,,,,,,,,,,,,,,,,,,,,,,,,,,,,,,,,,743.4180992000038,743.4335352000053,743.9335195000021,743.9180686000036,743.9245859000075,743.9335195000021,743.9335195000021,743.9335195000021,745.334174100004,Objects\140a.jpg,mid,o,1.3879630000010366,None,,,,00022,001,2026-01-20_17h30.21.472,MST_test,2024.2.0,60.05464973490318,2026-01-20 17h30.28.390848 +0530,
120,0,121,o,7.6780022000020836,None,121,0,120,745.3499452999968,,,,,,,,,,,,,,,,,,,,,,,,,,,,,,,,,,,,,,,,,,,,,,,,,,745.3345926000038,745.3499452999968,745.8834533000045,745.8336428000039,745.8808036999981,745.8834533000045,745.8834533000045,745.8834533000045,753.5675458000042,Objects\146b.jpg,post,o,7.6780022000020836,None,,,,00022,001,2026-01-20_17h30.21.472,MST_test,2024.2.0,60.05464973490318,2026-01-20 17h30.28.390848 +0530,
121,0,122,o,1.47026729999925,None,122,0,121,753.5835399000061,,,,,,,,,,,,,,,,,,,,,,,,,,,,,,,,,,,,,,,,,,,,,,,,,,753.568074099996,753.5835399000061,754.107342400006,754.0672334999981,754.1047469000041,754.107342400006,754.107342400006,754.107342400006,755.5841594000085,Scenes\098b.jpg,mid,o,1.47026729999925,None,,,,00022,001,2026-01-20_17h30.21.472,MST_test,2024.2.0,60.05464973490318,2026-01-20 17h30.28.390848 +0530,
122,0,123,o,8.344918600007077,None,123,0,122,755.6000311000098,,,,,,,,,,,,,,,,,,,,,,,,,,,,,,,,,,,,,,,,,,,,,,,,,,755.5845379000093,755.6000311000098,756.1047785999981,756.0839622000058,756.1021334999969,756.1047785999981,756.1047785999981,756.1047785999981,764.4512432000047,Scenes\134a.jpg,mid,o,8.344918600007077,None,,,,00022,001,2026-01-20_17h30.21.472,MST_test,2024.2.0,60.05464973490318,2026-01-20 17h30.28.390848 +0530,
123,0,124,n,7.504274999999325,None,124,0,123,764.4669392000069,,,,,,,,,,,,,,,,,,,,,,,,,,,,,,,,,,,,,,,,,,,,,,,,,,764.4516956000007,764.4669392000069,765.0012550000101,764.950722900001,764.9985631000018,765.0012550000101,765.0012550000101,765.0012550000101,772.517634600008,Foils\049a.jpg,none,n,7.504274999999325,None,,,,00022,001,2026-01-20_17h30.21.472,MST_test,2024.2.0,60.05464973490318,2026-01-20 17h30.28.390848 +0530,
124,0,125,s,2.51862779998919,None,125,0,124,772.534599999999,,,,,,,,,,,,,,,,,,,,,,,,,,,,,,,,,,,,,,,,,,,,,,,,,,772.5180174999987,772.534599999999,,773.0336931000056,773.0420218000072,773.0504474000045,773.0504474000045,773.0504474000045,775.5841549000033,Objects\091b.jpg,post,s,2.51862779998919,None,,,,00022,001,2026-01-20_17h30.21.472,MST_test,2024.2.0,60.05464973490318,2026-01-20 17h30.28.390848 +0530,
125,0,126,s,2.116761099998257,None,126,0,125,775.6002241000097,,,,,,,,,,,,,,,,,,,,,,,,,,,,,,,,,,,,,,,,,,,,,,,,,,775.5845907000039,775.6002241000097,776.1005128999968,776.0839971000096,776.0930876000057,776.1005128999968,776.1005128999968,776.1005128999968,778.2338923000061,Objects\070a.jpg,post,s,2.116761099998257,None,,,,00022,001,2026-01-20_17h30.21.472,MST_test,2024.2.0,60.05464973490318,2026-01-20 17h30.28.390848 +0530,
126,0,127,n,2.4950597999995807,None,127,0,126,778.2500911000097,,,,,,,,,,,,,,,,,,,,,,,,,,,,,,,,,,,,,,,,,,,,,,,,,,778.2342408999975,778.2500911000097,778.7857972000056,778.7339037000056,778.7832171000045,778.7857972000056,778.7857972000056,778.7857972000056,781.2850310000067,Scenes\189b.jpg,pre,n,2.4950597999995807,None,,,,00022,001,2026-01-20_17h30.21.472,MST_test,2024.2.0,60.05464973490318,2026-01-20 17h30.28.390848 +0530,
127,0,128,o,2.147489399998449,None,128,0,127,781.3002203000069,,,,,,,,,,,,,,,,,,,,,,,,,,,,,,,,,,,,,,,,,,,,,,,,,,781.2853792000096,781.3002203000069,781.8460391999979,781.7840597000031,781.843425900006,781.8460391999979,781.8460391999979,781.8460391999979,784.0009829000046,Scenes\006b.jpg,pre,o,2.147489399998449,None,,,,00022,001,2026-01-20_17h30.21.472,MST_test,2024.2.0,60.05464973490318,2026-01-20 17h30.28.390848 +0530,
128,0,129,s,1.8596937999973306,None,129,0,128,784.0168513000099,,,,,,,,,,,,,,,,,,,,,,,,,,,,,,,,,,,,,,,,,,,,,,,,,,784.0013300999999,784.0168513000099,784.5170775000006,784.5007297999982,784.5123132000008,784.5170775000006,784.5170775000006,784.5170775000006,786.3842467000068,Objects\114b.jpg,pre,s,1.8596937999973306,None,,,,00022,001,2026-01-20_17h30.21.472,MST_test,2024.2.0,60.05464973490318,2026-01-20 17h30.28.390848 +0530,
129,0,130,o,5.43542460000026,None,130,0,129,786.4002369000082,,,,,,,,,,,,,,,,,,,,,,,,,,,,,,,,,,,,,,,,,,,,,,,,,,786.3846136000066,786.4002369000082,786.9256995000032,786.8840455000027,786.9233126000036,786.9256995000032,786.9256995000032,786.9256995000032,792.3674968999985,Objects\085b.jpg,post,o,5.43542460000026,None,,,,00022,001,2026-01-20_17h30.21.472,MST_test,2024.2.0,60.05464973490318,2026-01-20 17h30.28.390848 +0530,
130,0,131,n,1.205785999991349,None,131,0,130,792.3833436999994,,,,,,,,,,,,,,,,,,,,,,,,,,,,,,,,,,,,,,,,,,,,,,,,,,792.3678806000098,792.3833436999994,792.8837694000104,792.8669128000038,792.8727146000019,792.8837694000104,792.8837694000104,792.8837694000104,794.1009223000001,Foils\scenes8.jpg,none,n,1.205785999991349,None,,,,00022,001,2026-01-20_17h30.21.472,MST_test,2024.2.0,60.05464973490318,2026-01-20 17h30.28.390848 +0530,
131,0,132,n,1.5998627000080887,None,132,0,131,794.116837900001,,,,,,,,,,,,,,,,,,,,,,,,,,,,,,,,,,,,,,,,,,,,,,,,,,794.1012810000102,794.116837900001,794.6171033999999,794.6006621999986,794.6071865999984,794.6171033999999,794.6171033999999,794.6171033999999,796.21780150001,Foils\scenes18.jpg,none,n,1.5998627000080887,None,,,,00022,001,2026-01-20_17h30.21.472,MST_test,2024.2.0,60.05464973490318,2026-01-20 17h30.28.390848 +0530,
132,0,133,s,2.8989262000104645,None,133,0,132,796.2336556000082,,,,,,,,,,,,,,,,,,,,,,,,,,,,,,,,,,,,,,,,,,,,,,,,,,796.2181727999996,796.2336556000082,796.7339337000012,796.7172598000034,796.7259094000037,796.7339337000012,796.7339337000012,796.7339337000012,799.6342296000075,Objects\083b.jpg,post,s,2.8989262000104645,None,,,,00022,001,2026-01-20_17h30.21.472,MST_test,2024.2.0,60.05464973490318,2026-01-20 17h30.28.390848 +0530,
133,0,134,s,3.5550361999921734,None,134,0,133,799.6502427000087,,,,,,,,,,,,,,,,,,,,,,,,,,,,,,,,,,,,,,,,,,,,,,,,,,799.6346104999975,799.6502427000087,800.1505295000097,800.1341051000054,800.1434064000059,800.1505295000097,800.1505295000097,800.1505295000097,803.717856400006,Objects\183a.jpg,pre,s,3.5550361999921734,None,,,,00022,001,2026-01-20_17h30.21.472,MST_test,2024.2.0,60.05464973490318,2026-01-20 17h30.28.390848 +0530,
134,0,135,s,1.8746968000050401,None,135,0,134,803.7332775999967,,,,,,,,,,,,,,,,,,,,,,,,,,,,,,,,,,,,,,,,,,,,,,,,,,803.7182372000098,803.7332775999967,804.2627982999984,804.2173160000093,804.2606598999992,804.2627982999984,804.2627982999984,804.2627982999984,806.150965000008,Objects\065b.jpg,pre,s,1.8746968000050401,None,,,,00022,001,2026-01-20_17h30.21.472,MST_test,2024.2.0,60.05464973490318,2026-01-20 17h30.28.390848 +0530,
135,0,136,n,2.710609799993108,None,136,0,135,806.1676748000027,,,,,,,,,,,,,,,,,,,,,,,,,,,,,,,,,,,,,,,,,,,,,,,,,,806.151417000001,806.1676748000027,806.6669450000045,806.650584700008,806.6596560000035,806.6669450000045,806.6669450000045,806.6669450000045,809.384288900008,Foils\058a.jpg,none,n,2.710609799993108,None,,,,00022,001,2026-01-20_17h30.21.472,MST_test,2024.2.0,60.05464973490318,2026-01-20 17h30.28.390848 +0530,
136,0,137,n,1.5405768000055104,None,137,0,136,809.4002832999977,,,,,,,,,,,,,,,,,,,,,,,,,,,,,,,,,,,,,,,,,,,,,,,,,,809.3847412000032,809.4002832999977,809.9002543000097,809.8839074999996,809.8905043999985,809.9002543000097,809.9002543000097,809.9002543000097,811.450934499997,Foils\090a.jpg,none,n,1.5405768000055104,None,,,,00022,001,2026-01-20_17h30.21.472,MST_test,2024.2.0,60.05464973490318,2026-01-20 17h30.28.390848 +0530,
137,0,138,s,5.334253400011221,None,138,0,137,811.4668577999983,,,,,,,,,,,,,,,,,,,,,,,,,,,,,,,,,,,,,,,,,,,,,,,,,,811.4512879000104,811.4668577999983,811.9948093999992,811.9507752000063,811.9922690000094,811.9948093999992,811.9948093999992,811.9948093999992,817.3341234999971,Scenes\071b.jpg,mid,s,5.334253400011221,None,,,,00022,001,2026-01-20_17h30.21.472,MST_test,2024.2.0,60.05464973490318,2026-01-20 17h30.28.390848 +0530,
138,0,139,o,5.982862199991359,None,139,0,138,817.3504240000038,,,,,,,,,,,,,,,,,,,,,,,,,,,,,,,,,,,,,,,,,,,,,,,,,,817.3344992000057,817.3504240000038,817.8746232999983,817.8339914000098,817.871951100009,817.8746232999983,817.8746232999983,817.8746232999983,823.8675887999998,Scenes\166b.jpg,post,o,5.982862199991359,None,,,,00022,001,2026-01-20_17h30.21.472,MST_test,2024.2.0,60.05464973490318,2026-01-20 17h30.28.390848 +0530,
139,0,140,o,2.7046836000081385,None,140,0,139,823.883628399999,,,,,,,,,,,,,,,,,,,,,,,,,,,,,,,,,,,,,,,,,,,,,,,,,,823.8679390000034,823.883628399999,824.3841084000014,824.3672988000035,824.3786697000032,824.3841084000014,824.3841084000014,824.3841084000014,827.1005910000094,Foils\034a.jpg,none,o,2.7046836000081385,None,,,,00022,001,2026-01-20_17h30.21.472,MST_test,2024.2.0,60.05464973490318,2026-01-20 17h30.28.390848 +0530,
140,0,141,s,1.8158156999998027,None,141,0,140,827.1163814000029,,,,,,,,,,,,,,,,,,,,,,,,,,,,,,,,,,,,,,,,,,,,,,,,,,827.1010118999984,827.1163814000029,827.6171449000103,827.6006427000102,827.6097829000064,827.6171449000103,827.6171449000103,827.6171449000103,829.4344865000021,Objects\090a.jpg,mid,s,1.8158156999998027,None,,,,00022,001,2026-01-20_17h30.21.472,MST_test,2024.2.0,60.05464973490318,2026-01-20 17h30.28.390848 +0530,
141,0,142,o,1.4182373999938136,None,142,0,141,829.4502716999996,,,,,,,,,,,,,,,,,,,,,,,,,,,,,,,,,,,,,,,,,,,,,,,,,,829.4348351000081,829.4502716999996,829.950685600008,829.9340473000047,829.9438762000063,829.950685600008,829.950685600008,829.950685600008,831.3843087999994,Foils\081a.jpg,none,o,1.4182373999938136,None,,,,00022,001,2026-01-20_17h30.21.472,MST_test,2024.2.0,60.05464973490318,2026-01-20 17h30.28.390848 +0530,
142,0,143,s,3.373193600011291,None,143,0,142,831.4002452999994,,,,,,,,,,,,,,,,,,,,,,,,,,,,,,,,,,,,,,,,,,,,,,,,,,831.3846608000022,831.4002452999994,831.9636411999963,831.8840482000087,831.960977900002,831.9636411999963,831.9636411999963,831.9636411999963,835.3507790000003,Scenes\136b.jpg,pre,s,3.373193600011291,None,,,,00022,001,2026-01-20_17h30.21.472,MST_test,2024.2.0,60.05464973490318,2026-01-20 17h30.28.390848 +0530,
143,0,144,n,1.5202944000047864,None,144,0,143,835.3665286000032,,,,,,,,,,,,,,,,,,,,,,,,,,,,,,,,,,,,,,,,,,,,,,,,,,835.3511351000052,835.3665286000032,835.9044904000039,835.8507165000046,835.9018360000046,835.9044904000039,835.9044904000039,835.9044904000039,837.4340452000033,Scenes\100b.jpg,mid,n,1.5202944000047864,None,,,,00022,001,2026-01-20_17h30.21.472,MST_test,2024.2.0,60.05464973490318,2026-01-20 17h30.28.390848 +0530,
144,0,145,o,1.5574624000000767,None,145,0,144,837.4498366000043,,,,,,,,,,,,,,,,,,,,,,,,,,,,,,,,,,,,,,,,,,,,,,,,,,837.4343971000053,837.4498366000043,837.9792705,837.9337455000059,837.976754400006,837.9792705,837.9792705,837.9792705,839.5505761000095,Scenes\051b.jpg,pre,o,1.5574624000000767,None,,,,00022,001,2026-01-20_17h30.21.472,MST_test,2024.2.0,60.05464973490318,2026-01-20 17h30.28.390848 +0530,
145,0,146,n,1.3245727000030456,None,146,0,145,839.5668489000091,,,,,,,,,,,,,,,,,,,,,,,,,,,,,,,,,,,,,,,,,,,,,,,,,,839.5507348999963,839.5668489000091,840.1728792000067,840.0506899000029,840.1703490000073,840.1728792000067,840.1728792000067,840.1728792000067,841.500904600005,Scenes\145b.jpg,post,n,1.3245727000030456,None,,,,00022,001,2026-01-20_17h30.21.472,MST_test,2024.2.0,60.05464973490318,2026-01-20 17h30.28.390848 +0530,
146,0,147,n,10.78609239999787,None,147,0,146,841.5169147999986,,,,,,,,,,,,,,,,,,,,,,,,,,,,,,,,,,,,,,,,,,,,,,,,,,841.5012559000024,841.5169147999986,842.0469235000055,842.0006428000052,842.044252599997,842.0469235000055,842.0469235000055,842.0469235000055,852.8345179000025,Scenes\060b.jpg,post,n,10.78609239999787,None,,,,00022,001,2026-01-20_17h30.21.472,MST_test,2024.2.0,60.05464973490318,2026-01-20 17h30.28.390848 +0530,
147,0,148,o,2.744314799987478,None,148,0,147,852.8502294000064,,,,,,,,,,,,,,,,,,,,,,,,,,,,,,,,,,,,,,,,,,,,,,,,,,852.8349548999977,852.8502294000064,853.3525085000001,853.333993399996,853.3499537000025,853.3525085000001,853.3525085000001,853.3525085000001,856.100572299998,Scenes\183a.jpg,post,o,2.744314799987478,None,,,,00022,001,2026-01-20_17h30.21.472,MST_test,2024.2.0,60.05464973490318,2026-01-20 17h30.28.390848 +0530,
148,0,149,o,3.5351802999939537,None,149,0,148,856.1165130000009,,,,,,,,,,,,,,,,,,,,,,,,,,,,,,,,,,,,,,,,,,,,,,,,,,856.10092360001,856.1165130000009,856.617665400001,856.6005997000029,856.609723600006,856.617665400001,856.617665400001,856.617665400001,860.1676120000047,Objects\031a.jpg,post,o,3.5351802999939537,None,,,,00022,001,2026-01-20_17h30.21.472,MST_test,2024.2.0,60.05464973490318,2026-01-20 17h30.28.390848 +0530,
149,0,150,n,3.316721100010909,None,150,0,149,860.1835646999971,,,,,,,,,,,,,,,,,,,,,,,,,,,,,,,,,,,,,,,,,,,,,,,,,,860.167964200009,860.1835646999971,860.6840688000084,860.6673885000055,860.6768959000037,860.6840688000084,860.6840688000084,860.6840688000084,864.0175406000053,Foils\scenes30.jpg,none,n,3.316721100010909,None,,,,00022,001,2026-01-20_17h30.21.472,MST_test,2024.2.0,60.05464973490318,2026-01-20 17h30.28.390848 +0530,
,,,,,,,,,,,,,,,,,,,,,,,,,,,,,,,,,,,,,,,,,,,,,,,,,,,,,,,,,,,,,,,,,,,,,,,,,864.0178718000097,864.0336656,864.0336656,,,,,,,,
