Sl_no,image_path,thisN,thisTrialN,thisRepN,key_resp_5.keys,key_resp_7.keys,key_resp_7.rt,key_resp_7.duration,key_resp_5.rt,key_resp_5.duration,key_resp_9.keys,key_resp_9.rt,key_resp_9.duration,key_resp_8.keys,key_resp_8.rt,key_resp_8.duration,practice.thisRepN,practice.thisTrialN,practice.thisN,trials.thisRepN,trials.thisTrialN,trials.thisN,thisRow.t,notes,welcome_page.started,text.started,key_resp.started,welcome_page.stopped,key_resp.keys,key_resp.rt,key_resp.duration,instructions.started,ins.started,key_resp_2.started,instructions.stopped,key_resp_2.keys,key_resp_2.rt,key_resp_2.duration,objects_only_instruction.started,text_3.started,key_resp_3.started,objects_only_instruction.stopped,key_resp_3.keys,key_resp_3.rt,key_resp_3.duration,ISI.started,text_4.started,ISI.stopped,practice_block.started,image.started,text_5.started,key_resp_5.started,practice_block.stopped,practice.key_resp_5.keys,indoor_outdoor.started,text_7.started,key_resp_7.started,indoor_outdoor.stopped,practice.key_resp_7.keys,practice.key_resp_7.rt,practice.key_resp_7.duration,text_4.stopped,image.stopped,text_5.stopped,key_resp_5.stopped,practice.key_resp_5.rt,practice.key_resp_5.duration,practice_to_main.started,text_2.started,key_resp_4.started,practice_to_main.stopped,key_resp_4.keys,key_resp_4.rt,key_resp_4.duration,objects.started,image_2.started,text_9.started,key_resp_9.started,image_2.stopped,text_9.stopped,key_resp_9.stopped,objects.stopped,trials.key_resp_9.keys,trials.key_resp_9.rt,trials.key_resp_9.duration,encoding_task.started,encoding_task.stopped,trials.key_resp_8.keys,text_8.started,key_resp_8.started,trials.key_resp_8.rt,trials.key_resp_8.duration,end_experiment.started,text_6.started,key_resp_6.started,end_experiment.stopped,key_resp_6.keys,key_resp_6.rt,key_resp_6.duration,list_of_stimuli,encoding_task_accuracy,participant,session,date,expName,psychopyVersion,frameRate,expStart,
,,,,,,,,,,,,,,,,,,,,,,,,,0.001242100028321147,0.0027892999933101237,0.0027892999933101237,11.787849600019399,space,11.733748900005594,None,,,,,,,,,,,,,,,,,,,,,,,,,,,,,,,,,,,,,,,,,,,,,,,,,,,,,,,,,,,,,,,,,,,,,,,00021,001,2026-01-20_15h54.11.031,MST_task,2024.2.0,59.89591287099594,2026-01-20 16h46.51.439289 +0530,
,,,,,,,,,,,,,,,,,,,,,,,,,,,,,,,,11.787889200029895,11.799886099994183,11.799886099994183,89.07240850001108,space,77.25625570002012,None,,,,,,,,,,,,,,,,,,,,,,,,,,,,,,,,,,,,,,,,,,,,,,,,,,,,,,,,,,,,,,,,00021,001,2026-01-20_15h54.11.031,MST_task,2024.2.0,59.89591287099594,2026-01-20 16h46.51.439289 +0530,
,,,,,,,,,,,,,,,,,,,,,,,,,,,,,,,,,,,,,,,89.0724387000082,89.08854980004253,89.08854980004253,102.6557596999919,space,13.551754599960987,None,,,,,,,,,,,,,,,,,,,,,,,,,,,,,,,,,,,,,,,,,,,,,,,,,,,,,,,,,00021,001,2026-01-20_15h54.11.031,MST_task,2024.2.0,59.89591287099594,2026-01-20 16h46.51.439289 +0530,
1,practice_images/013a.jpg,0,0,1,None,j,0.5401086000492796,None,,,,,,,,,1,0,0,,,,102.67749670002377,,,,,,,,,,,,,,,,,,,,,,,102.6751532999915,102.67749670002377,103.17205090000061,103.18739229999483,103.19879130000481,103.19879130000481,103.19879130000481,106.17239369999152,None,106.17470900004264,106.18872070004,106.18872070004,106.73915580002358,j,0.5401086000492796,None,,,,,,,,,,,,,,,,,,,,,,,,,,,,,,,,,,,,,,,,,00021,001,2026-01-20_15h54.11.031,MST_task,2024.2.0,59.89591287099594,2026-01-20 16h46.51.439289 +0530,
2,practice_images/031a.jpg,1,1,1,f,None,,,1.0573622999945655,0.17519979999633506,,,,,,,1,1,1,,,,106.75527339999098,,,,,,,,,,,,,,,,,,,,,,,106.73924310004804,106.75527339999098,107.23914810002316,107.24750990001485,107.25556330004474,107.25556330004474,107.25556330004474,110.23907130002044,f,110.23913200001698,,,110.23914510000031,None,,,107.25556330004474,110.25523830001475,110.25523830001475,110.25523830001475,1.0573622999945655,0.17519979999633506,,,,,,,,,,,,,,,,,,,,,,,,,,,,,,,,,,,00021,001,2026-01-20_15h54.11.031,MST_task,2024.2.0,59.89591287099594,2026-01-20 16h46.51.439289 +0530,
4,practice_images/002b.jpg,2,2,1,f,None,,,2.4369821999571286,0.18398510001134127,,,,,,,1,2,2,,,,110.25523830001475,,,,,,,,,,,,,,,,,,,,,,,110.2392080000136,110.25523830001475,110.73879940004554,110.74740180000663,110.75557110004593,110.75557110004593,110.75557110004593,113.73913280002307,f,113.739190399996,,,113.73920340003679,None,,,110.75557110004593,113.75530920003075,113.75530920003075,113.75530920003075,2.4369821999571286,0.18398510001134127,,,,,,,,,,,,,,,,,,,,,,,,,,,,,,,,,,,00021,001,2026-01-20_15h54.11.031,MST_task,2024.2.0,59.89591287099594,2026-01-20 16h46.51.439289 +0530,
7,practice_images/166a.jpg,3,3,1,f,None,,,2.048706400033552,0.18392340000718832,,,,,,,1,3,3,,,,113.75530920003075,,,,,,,,,,,,,,,,,,,,,,,113.73926709999796,113.75530920003075,114.2389070999925,114.24737820000155,114.25545200001216,114.25545200001216,114.25545200001216,117.23902360000648,f,117.23907440004405,,,117.23908690002281,None,,,114.25545200001216,117.25571430003038,117.25571430003038,117.25571430003038,2.048706400033552,0.18392340000718832,,,,,,,,,,,,,,,,,,,,,,,,,,,,,,,,,,,00021,001,2026-01-20_15h54.11.031,MST_task,2024.2.0,59.89591287099594,2026-01-20 16h46.51.439289 +0530,
10,practice_images/182a.jpg,4,4,1,f,None,,,2.2773326999740675,0.19199429999571294,,,,,,,1,4,4,,,,117.25571430003038,,,,,,,,,,,,,,,,,,,,,,,117.23915840004338,117.25571430003038,117.73889149999013,117.7472314000479,117.75552240002435,117.75552240002435,117.75552240002435,120.7391622000141,f,120.73923060001107,,,120.73924520000583,None,,,117.75552240002435,120.75533240003278,120.75533240003278,120.75533240003278,2.2773326999740675,0.19199429999571294,,,,,,,,,,,,,,,,,,,,,,,,,,,,,,,,,,,00021,001,2026-01-20_15h54.11.031,MST_task,2024.2.0,59.89591287099594,2026-01-20 16h46.51.439289 +0530,
3,practice_images/037a.jpg,5,5,1,f,None,,,1.9691644000122324,0.21566729998448864,,,,,,,1,5,5,,,,120.75533240003278,,,,,,,,,,,,,,,,,,,,,,,120.73931110004196,120.75533240003278,121.23875690001296,121.2468596000108,121.25548069999786,121.25548069999786,121.25548069999786,124.2388145000441,f,124.2388735000277,,,124.23888740001712,None,,,121.25548069999786,124.25531680003041,124.25531680003041,124.25531680003041,1.9691644000122324,0.21566729998448864,,,,,,,,,,,,,,,,,,,,,,,,,,,,,,,,,,,00021,001,2026-01-20_15h54.11.031,MST_task,2024.2.0,59.89591287099594,2026-01-20 16h46.51.439289 +0530,
5,practice_images/139a.jpg,6,6,1,j,None,,,1.6774655999615788,0.19199780002236366,,,,,,,1,6,6,,,,124.25531680003041,,,,,,,,,,,,,,,,,,,,,,,124.23895090003498,124.25531680003041,124.73900210001739,124.74940070003504,124.75546280003618,124.75546280003618,124.75546280003618,127.73906490002992,j,127.73911550000776,,,127.73912770004245,None,,,124.75546280003618,127.75538530002814,127.75538530002814,127.75538530002814,1.6774655999615788,0.19199780002236366,,,,,,,,,,,,,,,,,,,,,,,,,,,,,,,,,,,00021,001,2026-01-20_15h54.11.031,MST_task,2024.2.0,59.89591287099594,2026-01-20 16h46.51.439289 +0530,
9,practice_images/180a.jpg,7,7,1,f,None,,,1.138354900002014,0.21540889999596402,,,,,,,1,7,7,,,,127.75538530002814,,,,,,,,,,,,,,,,,,,,,,,127.73919450002722,127.75538530002814,128.23884180001915,128.24702070001513,128.25537420000182,128.25537420000182,128.25537420000182,131.23908110003686,f,131.23913629999151,,,131.23914950003382,None,,,128.25537420000182,131.25523650000105,131.25523650000105,131.25523650000105,1.138354900002014,0.21540889999596402,,,,,,,,,,,,,,,,,,,,,,,,,,,,,,,,,,,00021,001,2026-01-20_15h54.11.031,MST_task,2024.2.0,59.89591287099594,2026-01-20 16h46.51.439289 +0530,
6,practice_images/158a.jpg,8,8,1,j,None,,,2.8620743000064977,None,,,,,,,1,8,8,,,,131.25523650000105,,,,,,,,,,,,,,,,,,,,,,,131.2392096000258,131.25523650000105,131.73878150002565,131.74686469999142,131.75534910004353,131.75534910004353,131.75534910004353,134.73895040003117,j,134.73900240001967,,,134.73901459999615,None,,,131.75534910004353,134.75530110002728,134.75530110002728,134.75530110002728,2.8620743000064977,None,,,,,,,,,,,,,,,,,,,,,,,,,,,,,,,,,,,00021,001,2026-01-20_15h54.11.031,MST_task,2024.2.0,59.89591287099594,2026-01-20 16h46.51.439289 +0530,
8,practice_images/178a.jpg,9,9,1,j,None,,,1.4332035999977961,0.22395349998259917,,,,,,,1,9,9,,,,134.75530110002728,,,,,,,,,,,,,,,,,,,,,,,134.73907599999802,134.75530110002728,135.23876460001338,135.24744060001103,135.25538420001976,135.25538420001976,135.25538420001976,138.2389485000167,j,138.23900649999268,,,138.23901870002737,None,,,135.25538420001976,138.25541869999142,138.25541869999142,138.25541869999142,1.4332035999977961,0.22395349998259917,,,,,,,,,,,,,,,,,,,,,,,,,,,,,,,,,,,00021,001,2026-01-20_15h54.11.031,MST_task,2024.2.0,59.89591287099594,2026-01-20 16h46.51.439289 +0530,
,,,,,,,,,,,,,,,,,,,,,,,,,,,,,,,,,,,,,,,,,,,,,,,,,,,,,,,,,,,,,,,,,,,,138.23905969999032,138.25541869999142,138.25541869999142,150.48902760003693,space,12.225911999994423,None,,,,,,,,,,,,,,,,,,,,,,,,,,,,00021,001,2026-01-20_15h54.11.031,MST_task,2024.2.0,59.89591287099594,2026-01-20 16h46.51.439289 +0530,
,Objects\150a.jpg,0,0,1,,,,,,,f,1.803759899979923,0.19998259999556467,None,,,,,,1,0,0,150.50529240001924,,,,,,,,,,,,,,,,,,,,,,,150.48970440000994,150.50529240001924,150.9891413000296,,,,,,,,,,,,,,151.00555580004584,,,,,,,,,,,,,151.0020560999983,151.00555580004584,151.00555580004584,151.00555580004584,154.00525670003844,154.00525670003844,154.00525670003844,153.98915199999465,f,1.803759899979923,0.19998259999556467,153.99091650004266,153.990935800015,None,,,,,,,,,,,,,,00021,001,2026-01-20_15h54.11.031,MST_task,2024.2.0,59.89591287099594,2026-01-20 16h46.51.439289 +0530,
,Objects\047a.jpg,1,0,2,,,,,,,f,0.9912940000067465,0.22406899998895824,None,,,,,,2,0,1,154.00525670003844,,,,,,,,,,,,,,,,,,,,,,,153.99106920004124,154.00525670003844,154.4886625999934,,,,,,,,,,,,,,154.5054545000312,,,,,,,,,,,,,154.49819160002517,154.5054545000312,154.5054545000312,154.5054545000312,157.50517439999385,157.50517439999385,157.50517439999385,157.48906019999413,f,0.9912940000067465,0.22406899998895824,157.48911580001004,157.48912720003864,None,,,,,,,,,,,,,,00021,001,2026-01-20_15h54.11.031,MST_task,2024.2.0,59.89591287099594,2026-01-20 16h46.51.439289 +0530,
,Objects\093a.jpg,2,0,3,,,,,,,j,2.299291600007564,0.18407349998597056,None,,,,,,3,0,2,157.50517439999385,,,,,,,,,,,,,,,,,,,,,,,157.48920630000066,157.50517439999385,157.98872220003977,,,,,,,,,,,,,,158.00539410003694,,,,,,,,,,,,,157.99855800002115,158.00539410003694,158.00539410003694,158.00539410003694,161.0051872000331,161.0051872000331,161.0051872000331,160.98890520003624,j,2.299291600007564,0.18407349998597056,160.98896410001907,160.9889761999948,None,,,,,,,,,,,,,,00021,001,2026-01-20_15h54.11.031,MST_task,2024.2.0,59.89591287099594,2026-01-20 16h46.51.439289 +0530,
,Objects\169a.jpg,3,0,4,,,,,,,j,1.1827826999942772,0.2085971999913454,None,,,,,,4,0,3,161.0051872000331,,,,,,,,,,,,,,,,,,,,,,,160.98904479999328,161.0051872000331,161.48870670003816,,,,,,,,,,,,,,161.5054366000113,,,,,,,,,,,,,161.49843540001893,161.5054366000113,161.5054366000113,161.5054366000113,164.5051536000101,164.5051536000101,164.5051536000101,164.48906280001393,j,1.1827826999942772,0.2085971999913454,164.48911750002299,164.48912849999033,None,,,,,,,,,,,,,,00021,001,2026-01-20_15h54.11.031,MST_task,2024.2.0,59.89591287099594,2026-01-20 16h46.51.439289 +0530,
,Objects\030a.jpg,4,0,5,,,,,,,f,1.8033367999596521,0.19999779999488965,None,,,,,,5,0,4,164.5051536000101,,,,,,,,,,,,,,,,,,,,,,,164.4891917000059,164.5051536000101,164.98883069999283,,,,,,,,,,,,,,165.0054395000334,,,,,,,,,,,,,164.99849740002537,165.0054395000334,165.0054395000334,165.0054395000334,168.00521430000663,168.00521430000663,168.00521430000663,167.9890660000383,f,1.8033367999596521,0.19999779999488965,167.98912300000666,167.9891343000345,None,,,,,,,,,,,,,,00021,001,2026-01-20_15h54.11.031,MST_task,2024.2.0,59.89591287099594,2026-01-20 16h46.51.439289 +0530,
,Objects\170a.jpg,5,0,6,,,,,,,j,1.5913993999711238,0.2089216000167653,None,,,,,,6,0,5,168.00521430000663,,,,,,,,,,,,,,,,,,,,,,,167.98922099999618,168.00521430000663,168.48886149999453,,,,,,,,,,,,,,168.50557430001209,,,,,,,,,,,,,168.49905159999616,168.50557430001209,168.50557430001209,168.50557430001209,171.50522530003218,171.50522530003218,171.50522530003218,171.4891032000305,j,1.5913993999711238,0.2089216000167653,171.48916340002324,171.48917529999744,None,,,,,,,,,,,,,,00021,001,2026-01-20_15h54.11.031,MST_task,2024.2.0,59.89591287099594,2026-01-20 16h46.51.439289 +0530,
,Objects\077a.jpg,6,0,7,,,,,,,j,1.2678169999853708,0.20704429998295382,None,,,,,,7,0,6,171.50522530003218,,,,,,,,,,,,,,,,,,,,,,,171.48924490000354,171.50522530003218,171.98871810000855,,,,,,,,,,,,,,172.00538530002814,,,,,,,,,,,,,171.99841460003518,172.00538530002814,172.00538530002814,172.00538530002814,175.0052346000448,175.0052346000448,175.0052346000448,174.98898560000816,j,1.2678169999853708,0.20704429998295382,174.9890401000157,174.98905140004354,None,,,,,,,,,,,,,,00021,001,2026-01-20_15h54.11.031,MST_task,2024.2.0,59.89591287099594,2026-01-20 16h46.51.439289 +0530,
,Scenes\126a.jpg,7,0,8,,,,,,,j,1.0519563000416383,0.23267229995690286,None,,,,,,8,0,7,175.0052346000448,,,,,,,,,,,,,,,,,,,,,,,174.98914010002045,175.0052346000448,175.48885570000857,,,,,,,,,,,,,,175.5088911000057,,,,,,,,,,,,,175.50646589999087,175.5088911000057,175.5088911000057,175.5088911000057,,,,178.5054602000164,j,1.0519563000416383,0.23267229995690286,178.50551380001707,178.50552550004795,None,,,,,,,,,,,,,,00021,001,2026-01-20_15h54.11.031,MST_task,2024.2.0,59.89591287099594,2026-01-20 16h46.51.439289 +0530,
,Scenes\140a.jpg,8,0,9,,,,,,,j,0.9631677000434138,0.2149395999731496,None,,,,,,9,0,8,178.52190600003814,,,,,,,,,,,,,,,,,,,,,,,178.50561240001116,178.52190600003814,179.00552629999584,,,,,,,,,,,,,,179.02240549999988,,,,,,,,,,,,,179.01931659999536,179.02240549999988,179.02240549999988,179.02240549999988,182.02187620004406,182.02187620004406,182.02187620004406,182.00590009998996,j,0.9631677000434138,0.2149395999731496,182.00596510001924,182.00597669999115,None,,,,,,,,,,,,,,00021,001,2026-01-20_15h54.11.031,MST_task,2024.2.0,59.89591287099594,2026-01-20 16h46.51.439289 +0530,
,Scenes\154a.jpg,9,0,10,,,,,,,j,1.3987922000233084,0.21575509995454922,None,,,,,,10,0,9,182.02187620004406,,,,,,,,,,,,,,,,,,,,,,,182.00606750004226,182.02187620004406,182.50543370004743,,,,,,,,,,,,,,182.52246680000098,,,,,,,,,,,,,182.51864120003302,182.52246680000098,182.52246680000098,182.52246680000098,185.52245740004582,185.52245740004582,185.52245740004582,185.50594850000925,j,1.3987922000233084,0.21575509995454922,185.50601090001874,185.5060228999937,None,,,,,,,,,,,,,,00021,001,2026-01-20_15h54.11.031,MST_task,2024.2.0,59.89591287099594,2026-01-20 16h46.51.439289 +0530,
,Scenes\189a.jpg,10,0,11,,,,,,,j,1.5886545000248589,0.2240614999900572,None,,,,,,11,0,10,185.52245740004582,,,,,,,,,,,,,,,,,,,,,,,185.506111100025,185.52245740004582,186.00548620003974,,,,,,,,,,,,,,186.02763590001268,,,,,,,,,,,,,186.02530380000826,186.02763590001268,186.02763590001268,186.02763590001268,,,,189.0221814000397,j,1.5886545000248589,0.2240614999900572,189.02225420001196,189.02226789999986,None,,,,,,,,,,,,,,00021,001,2026-01-20_15h54.11.031,MST_task,2024.2.0,59.89591287099594,2026-01-20 16h46.51.439289 +0530,
,Scenes\047a.jpg,11,0,12,,,,,,,j,1.729764999996405,0.2250038999482058,None,,,,,,12,0,11,189.03861630003667,,,,,,,,,,,,,,,,,,,,,,,189.02234550000867,189.03861630003667,189.52215160004562,,,,,,,,,,,,,,189.54244470002595,,,,,,,,,,,,,189.5400568000041,189.54244470002595,189.54244470002595,189.54244470002595,,,,192.5388139000279,j,1.729764999996405,0.2250038999482058,192.53888670000015,192.5388998000417,None,,,,,,,,,,,,,,00021,001,2026-01-20_15h54.11.031,MST_task,2024.2.0,59.89591287099594,2026-01-20 16h46.51.439289 +0530,
,Scenes\003a.jpg,12,0,13,,,,,,,f,1.7414345999713987,0.20910540001932532,None,,,,,,13,0,12,192.55522820004262,,,,,,,,,,,,,,,,,,,,,,,192.5389911000384,192.55522820004262,193.03870219999226,,,,,,,,,,,,,,193.0587671000394,,,,,,,,,,,,,193.0565753999981,193.0587671000394,193.0587671000394,193.0587671000394,,,,196.05561430001399,f,1.7414345999713987,0.20910540001932532,196.0556841000216,196.05569790001027,None,,,,,,,,,,,,,,00021,001,2026-01-20_15h54.11.031,MST_task,2024.2.0,59.89591287099594,2026-01-20 16h46.51.439289 +0530,
,Scenes\070a.jpg,13,0,14,,,,,,,j,2.016100600012578,0.20799759996589273,None,,,,,,14,0,13,196.0720627999981,,,,,,,,,,,,,,,,,,,,,,,196.05579790001502,196.0720627999981,196.55552510003326,,,,,,,,,,,,,,196.57685110002058,,,,,,,,,,,,,196.57439500000328,196.57685110002058,196.57685110002058,196.57685110002058,,,,199.57214830000885,j,2.016100600012578,0.20799759996589273,199.57220340002095,199.57221589999972,None,,,,,,,,,,,,,,00021,001,2026-01-20_15h54.11.031,MST_task,2024.2.0,59.89591287099594,2026-01-20 16h46.51.439289 +0530,
,Objects\137a.jpg,14,0,15,,,,,,,f,2.6564611000358127,0.21564339997712523,None,,,,,,15,0,14,199.5883979999926,,,,,,,,,,,,,,,,,,,,,,,199.57230180001352,199.5883979999926,200.0720857999986,,,,,,,,,,,,,,200.08865530003095,,,,,,,,,,,,,200.0840273000067,200.08865530003095,200.08865530003095,200.08865530003095,203.08845690003363,203.08845690003363,203.08845690003363,203.0725202000467,f,2.6564611000358127,0.21564339997712523,203.07258330000332,203.07259510003496,None,,,,,,,,,,,,,,00021,001,2026-01-20_15h54.11.031,MST_task,2024.2.0,59.89591287099594,2026-01-20 16h46.51.439289 +0530,
,Objects\168a.jpg,15,0,16,,,,,,,None,,,f,0.33245240000542253,None,,,,16,0,15,203.08845690003363,,,,,,,,,,,,,,,,,,,,,,,203.07266270002583,203.08845690003363,203.5721104000113,,,,,,,,,,,,,,203.58864540001377,,,,,,,,,,,,,203.58165629999712,203.58864540001377,203.58864540001377,203.58864540001377,206.588509800029,206.588509800029,206.588509800029,206.5724584000418,None,,,206.57251070003258,206.92246380000142,f,206.588509800029,206.588509800029,0.33245240000542253,None,,,,,,,,,,00021,001,2026-01-20_15h54.11.031,MST_task,2024.2.0,59.89591287099594,2026-01-20 16h46.51.439289 +0530,
,Objects\110a.jpg,16,0,17,,,,,,,f,2.2096518999896944,0.2083081000018865,None,,,,,,17,0,16,206.93842530000256,,,,,,,,,,,,,,,,,,,,,,,206.92258280003443,206.93842530000256,207.42252020002343,,,,,,,,,,,,,,207.4388200000394,,,,,,,,,,,,,207.4328647000366,207.4388200000394,207.4388200000394,207.4388200000394,210.43847470002947,210.43847470002947,210.43847470002947,210.42240500001935,f,2.2096518999896944,0.2083081000018865,210.42246269999305,210.42247480002698,None,,,,,,,,,,,,,,00021,001,2026-01-20_15h54.11.031,MST_task,2024.2.0,59.89591287099594,2026-01-20 16h46.51.439289 +0530,
,Objects\154a.jpg,17,0,18,,,,,,,f,1.2144656999735162,0.24017439997987822,None,,,,,,18,0,17,210.43847470002947,,,,,,,,,,,,,,,,,,,,,,,210.42253909999272,210.43847470002947,210.922262600041,,,,,,,,,,,,,,210.93876740004634,,,,,,,,,,,,,210.93195800000103,210.93876740004634,210.93876740004634,210.93876740004634,213.93859430000884,213.93859430000884,213.93859430000884,213.92252300004475,f,1.2144656999735162,0.24017439997987822,213.92258430004586,213.92259640002158,None,,,,,,,,,,,,,,00021,001,2026-01-20_15h54.11.031,MST_task,2024.2.0,59.89591287099594,2026-01-20 16h46.51.439289 +0530,
,Objects\105a.jpg,18,0,19,,,,,,,j,1.91386039997451,0.2557805000105873,None,,,,,,19,0,18,213.93859430000884,,,,,,,,,,,,,,,,,,,,,,,213.92268970003352,213.93859430000884,214.4224411000032,,,,,,,,,,,,,,214.4388159000082,,,,,,,,,,,,,214.43278610002017,214.4388159000082,214.4388159000082,214.4388159000082,217.43856120004784,217.43856120004784,217.43856120004784,217.42237109999405,j,1.91386039997451,0.2557805000105873,217.42243010003585,217.42244200001005,None,,,,,,,,,,,,,,00021,001,2026-01-20_15h54.11.031,MST_task,2024.2.0,59.89591287099594,2026-01-20 16h46.51.439289 +0530,
,Objects\174a.jpg,19,0,20,,,,,,,f,2.1012118000071496,0.2159152000094764,None,,,,,,20,0,19,217.43856120004784,,,,,,,,,,,,,,,,,,,,,,,217.42250879999483,217.43856120004784,217.92231860000174,,,,,,,,,,,,,,217.9389939000248,,,,,,,,,,,,,217.93168650002917,217.9389939000248,217.9389939000248,217.9389939000248,220.93868439999642,220.93868439999642,220.93868439999642,220.92258940002648,f,2.1012118000071496,0.2159152000094764,220.92264390003402,220.92265510000288,None,,,,,,,,,,,,,,00021,001,2026-01-20_15h54.11.031,MST_task,2024.2.0,59.89591287099594,2026-01-20 16h46.51.439289 +0530,
,Objects\135a.jpg,20,0,21,,,,,,,f,2.6506409000139683,0.21522600000025705,None,,,,,,21,0,20,220.93868439999642,,,,,,,,,,,,,,,,,,,,,,,220.9227402000106,220.93868439999642,221.42219720000867,,,,,,,,,,,,,,221.4386669000378,,,,,,,,,,,,,221.43199830001686,221.4386669000378,221.4386669000378,221.4386669000378,224.4386252000113,224.4386252000113,224.4386252000113,224.42271990003064,f,2.6506409000139683,0.21522600000025705,224.4227816000348,224.4228010000079,None,,,,,,,,,,,,,,00021,001,2026-01-20_15h54.11.031,MST_task,2024.2.0,59.89591287099594,2026-01-20 16h46.51.439289 +0530,
,Scenes\136a.jpg,21,0,22,,,,,,,f,2.709075800026767,0.2490686000091955,None,,,,,,22,0,21,224.4386252000113,,,,,,,,,,,,,,,,,,,,,,,224.42289350001374,224.4386252000113,224.92239200003678,,,,,,,,,,,,,,224.9392542000278,,,,,,,,,,,,,224.93622410000535,224.9392542000278,224.9392542000278,224.9392542000278,227.93855220003752,227.93855220003752,227.93855220003752,227.9227327000117,f,2.709075800026767,0.2490686000091955,227.92280300002312,227.92281479999656,None,,,,,,,,,,,,,,00021,001,2026-01-20_15h54.11.031,MST_task,2024.2.0,59.89591287099594,2026-01-20 16h46.51.439289 +0530,
,Scenes\113a.jpg,22,0,23,,,,,,,j,1.5615570000372827,0.2160141000058502,None,,,,,,23,0,22,227.93855220003752,,,,,,,,,,,,,,,,,,,,,,,227.92292730003828,227.93855220003752,228.42237530002603,,,,,,,,,,,,,,228.43923990003532,,,,,,,,,,,,,228.4339045000379,228.43923990003532,228.43923990003532,228.43923990003532,231.438614600047,231.438614600047,231.438614600047,231.42260470002657,j,1.5615570000372827,0.2160141000058502,231.42265860002954,231.4226697999984,None,,,,,,,,,,,,,,00021,001,2026-01-20_15h54.11.031,MST_task,2024.2.0,59.89591287099594,2026-01-20 16h46.51.439289 +0530,
,Scenes\145a.jpg,23,0,24,,,,,,,j,1.3468345999717712,0.22347359999548644,None,,,,,,24,0,23,231.438614600047,,,,,,,,,,,,,,,,,,,,,,,231.42275530000916,231.438614600047,231.92229419999057,,,,,,,,,,,,,,231.9419436000171,,,,,,,,,,,,,231.93960430001607,231.9419436000171,231.9419436000171,231.9419436000171,,,,234.93879420001758,j,1.3468345999717712,0.22347359999548644,234.9388860000181,234.93890290003037,None,,,,,,,,,,,,,,00021,001,2026-01-20_15h54.11.031,MST_task,2024.2.0,59.89591287099594,2026-01-20 16h46.51.439289 +0530,
,Scenes\185a.jpg,24,0,25,,,,,,,j,1.3288391000241973,0.21531150001101196,None,,,,,,25,0,24,234.95540470001288,,,,,,,,,,,,,,,,,,,,,,,234.9390054999967,234.95540470001288,235.43891790002817,,,,,,,,,,,,,,235.45595299999695,,,,,,,,,,,,,235.4525853000232,235.45595299999695,235.45595299999695,235.45595299999695,238.4552093000384,238.4552093000384,238.4552093000384,238.43906130001415,j,1.3288391000241973,0.21531150001101196,238.43911590002244,238.43912680004723,None,,,,,,,,,,,,,,00021,001,2026-01-20_15h54.11.031,MST_task,2024.2.0,59.89591287099594,2026-01-20 16h46.51.439289 +0530,
,Scenes\121a.jpg,25,0,26,,,,,,,j,2.9635385000146925,None,None,,,,,,26,0,25,238.4552093000384,,,,,,,,,,,,,,,,,,,,,,,238.43919300002744,238.4552093000384,238.93870840000454,,,,,,,,,,,,,,238.95776930003194,,,,,,,,,,,,,238.9554005000391,238.95776930003194,238.95776930003194,238.95776930003194,,,,241.95545529999072,j,2.9635385000146925,None,241.95550979999825,241.9555213000276,None,,,,,,,,,,,,,,00021,001,2026-01-20_15h54.11.031,MST_task,2024.2.0,59.89591287099594,2026-01-20 16h46.51.439289 +0530,
,Scenes\085a.jpg,26,0,27,,,,,,,j,2.7984806000022218,None,None,,,,,,27,0,26,241.97191260004183,,,,,,,,,,,,,,,,,,,,,,,241.95560630003456,241.97191260004183,242.4555583000183,,,,,,,,,,,,,,242.47543980000773,,,,,,,,,,,,,242.47349589999067,242.47543980000773,242.47543980000773,242.47543980000773,,,,245.47222840000177,j,2.7984806000022218,None,245.47229010000592,245.47230280004442,None,,,,,,,,,,,,,,00021,001,2026-01-20_15h54.11.031,MST_task,2024.2.0,59.89591287099594,2026-01-20 16h46.51.439289 +0530,
,Scenes\031a.jpg,27,0,28,,,,,,,f,2.285511600028258,0.20802889997139573,None,,,,,,28,0,27,245.48849800002063,,,,,,,,,,,,,,,,,,,,,,,245.47240299999248,245.48849800002063,245.97211490001064,,,,,,,,,,,,,,245.99491519998992,,,,,,,,,,,,,245.9926250000135,245.99491519998992,245.99491519998992,245.99491519998992,,,,248.97271750000073,f,2.285511600028258,0.20802889997139573,248.97279760002857,248.97281260002637,None,,,,,,,,,,,,,,00021,001,2026-01-20_15h54.11.031,MST_task,2024.2.0,59.89591287099594,2026-01-20 16h46.51.439289 +0530,
,Objects\160a.jpg,28,0,29,,,,,,,j,1.6156309999641962,0.2160888999933377,None,,,,,,29,0,28,248.98861590004526,,,,,,,,,,,,,,,,,,,,,,,248.97292680002283,248.98861590004526,249.4723605000181,,,,,,,,,,,,,,249.48902530001942,,,,,,,,,,,,,249.4832652999903,249.48902530001942,249.48902530001942,249.48902530001942,252.4885620000423,252.4885620000423,252.4885620000423,252.47253020002972,j,1.6156309999641962,0.2160888999933377,252.47258600004716,252.4725973000168,None,,,,,,,,,,,,,,00021,001,2026-01-20_15h54.11.031,MST_task,2024.2.0,59.89591287099594,2026-01-20 16h46.51.439289 +0530,
,Objects\013a.jpg,29,0,30,,,,,,,f,1.9720840000081807,0.19999369996367022,None,,,,,,30,0,29,252.4885620000423,,,,,,,,,,,,,,,,,,,,,,,252.47266359999776,252.4885620000423,252.97218390001217,,,,,,,,,,,,,,252.98875830002362,,,,,,,,,,,,,252.98201560002053,252.98875830002362,252.98875830002362,252.98875830002362,255.98844030004693,255.98844030004693,255.98844030004693,255.97251180000603,f,1.9720840000081807,0.19999369996367022,255.97257099999115,255.97258240001975,None,,,,,,,,,,,,,,00021,001,2026-01-20_15h54.11.031,MST_task,2024.2.0,59.89591287099594,2026-01-20 16h46.51.439289 +0530,
,Objects\182a.jpg,30,0,31,,,,,,,f,1.3992288999725133,0.20888109999941662,None,,,,,,31,0,30,255.98844030004693,,,,,,,,,,,,,,,,,,,,,,,255.9726484999992,255.98844030004693,256.4721358999959,,,,,,,,,,,,,,256.48889560002135,,,,,,,,,,,,,256.4818659000448,256.48889560002135,256.48889560002135,256.48889560002135,259.48852660000557,259.48852660000557,259.48852660000557,259.4724664000096,f,1.3992288999725133,0.20888109999941662,259.4725217000232,259.4725328999921,None,,,,,,,,,,,,,,00021,001,2026-01-20_15h54.11.031,MST_task,2024.2.0,59.89591287099594,2026-01-20 16h46.51.439289 +0530,
,Objects\005a.jpg,31,0,32,,,,,,,f,0.8599122000159696,0.18392859998857602,None,,,,,,32,0,31,259.48852660000557,,,,,,,,,,,,,,,,,,,,,,,259.47259690001374,259.48852660000557,259.9723284000065,,,,,,,,,,,,,,259.9886944000027,,,,,,,,,,,,,259.98264500004007,259.9886944000027,259.9886944000027,259.9886944000027,262.98853620002046,262.98853620002046,262.98853620002046,262.9724987000227,f,0.8599122000159696,0.18392859998857602,262.9725551000447,262.97256580000976,None,,,,,,,,,,,,,,00021,001,2026-01-20_15h54.11.031,MST_task,2024.2.0,59.89591287099594,2026-01-20 16h46.51.439289 +0530,
,Objects\070a.jpg,32,0,33,,,,,,,f,0.9773113999981433,0.18304770003305748,None,,,,,,33,0,32,262.98853620002046,,,,,,,,,,,,,,,,,,,,,,,262.97264809999615,262.98853620002046,263.4725171000464,,,,,,,,,,,,,,263.4887389999931,,,,,,,,,,,,,263.48295780003536,263.4887389999931,263.4887389999931,263.4887389999931,266.4884515000158,266.4884515000158,266.4884515000158,266.47243100003107,f,0.9773113999981433,0.18304770003305748,266.472488600004,266.472499000025,None,,,,,,,,,,,,,,00021,001,2026-01-20_15h54.11.031,MST_task,2024.2.0,59.89591287099594,2026-01-20 16h46.51.439289 +0530,
,Objects\075a.jpg,33,0,34,,,,,,,f,1.3239478000323288,0.19290759996511042,None,,,,,,34,0,33,266.4884515000158,,,,,,,,,,,,,,,,,,,,,,,266.47256690001814,266.4884515000158,266.97218290000455,,,,,,,,,,,,,,266.98878410004545,,,,,,,,,,,,,266.98155860003317,266.98878410004545,266.98878410004545,266.98878410004545,269.98845990002155,269.98845990002155,269.98845990002155,269.9725036000018,f,1.3239478000323288,0.19290759996511042,269.9725566999987,269.97256760002347,None,,,,,,,,,,,,,,00021,001,2026-01-20_15h54.11.031,MST_task,2024.2.0,59.89591287099594,2026-01-20 16h46.51.439289 +0530,
,Objects\029a.jpg,34,0,35,,,,,,,f,1.224009900004603,0.19963409996125847,None,,,,,,35,0,34,269.98845990002155,,,,,,,,,,,,,,,,,,,,,,,269.97265090001747,269.98845990002155,270.47219530004077,,,,,,,,,,,,,,270.48861880000914,,,,,,,,,,,,,270.4815613999963,270.48861880000914,270.48861880000914,270.48861880000914,273.4884258999955,273.4884258999955,273.4884258999955,273.47251620003954,f,1.224009900004603,0.19963409996125847,273.47257849999005,273.4725897000171,None,,,,,,,,,,,,,,00021,001,2026-01-20_15h54.11.031,MST_task,2024.2.0,59.89591287099594,2026-01-20 16h46.51.439289 +0530,
,Scenes\036a.jpg,35,0,36,,,,,,,j,1.3245117999613285,0.2393722000415437,None,,,,,,36,0,35,273.4884258999955,,,,,,,,,,,,,,,,,,,,,,,273.47268230002373,273.4884258999955,273.9723305000225,,,,,,,,,,,,,,273.9889055000385,,,,,,,,,,,,,273.98382329999004,273.9889055000385,273.9889055000385,273.9889055000385,276.9884704000433,276.9884704000433,276.9884704000433,276.9725830000243,j,1.3245117999613285,0.2393722000415437,276.97264470002847,276.9726561999996,None,,,,,,,,,,,,,,00021,001,2026-01-20_15h54.11.031,MST_task,2024.2.0,59.89591287099594,2026-01-20 16h46.51.439289 +0530,
,Scenes\069a.jpg,36,0,37,,,,,,,j,2.287113700003829,0.26397849997738376,None,,,,,,37,0,36,276.9884704000433,,,,,,,,,,,,,,,,,,,,,,,276.9727251000004,276.9884704000433,277.4723481000401,,,,,,,,,,,,,,277.489090499992,,,,,,,,,,,,,277.4859633000451,277.489090499992,277.489090499992,277.489090499992,280.488578199991,280.488578199991,280.488578199991,280.47270420001587,j,2.287113700003829,0.26397849997738376,280.472768000036,280.47278010001173,None,,,,,,,,,,,,,,00021,001,2026-01-20_15h54.11.031,MST_task,2024.2.0,59.89591287099594,2026-01-20 16h46.51.439289 +0530,
,Scenes\132a.jpg,37,0,38,,,,,,,j,2.8753259999793954,None,None,,,,,,38,0,37,280.488578199991,,,,,,,,,,,,,,,,,,,,,,,280.4728881000192,280.488578199991,280.9721173000289,,,,,,,,,,,,,,280.98911419999786,,,,,,,,,,,,,280.98460280004656,280.98911419999786,280.98911419999786,280.98911419999786,283.98844129999634,283.98844129999634,283.98844129999634,283.97252750000916,j,2.8753259999793954,None,283.97258370002965,283.9725945999962,None,,,,,,,,,,,,,,00021,001,2026-01-20_15h54.11.031,MST_task,2024.2.0,59.89591287099594,2026-01-20 16h46.51.439289 +0530,
,Scenes\165a.jpg,38,0,39,,,,,,,f,1.5079642999917269,0.21678189997328445,None,,,,,,39,0,38,283.98844129999634,,,,,,,,,,,,,,,,,,,,,,,283.9726596000255,283.98844129999634,284.47223030001624,,,,,,,,,,,,,,284.49219800002174,,,,,,,,,,,,,284.48990620003315,284.49219800002174,284.49219800002174,284.49219800002174,,,,287.48871110001346,f,1.5079642999917269,0.21678189997328445,287.48880690004444,287.48882210004376,None,,,,,,,,,,,,,,00021,001,2026-01-20_15h54.11.031,MST_task,2024.2.0,59.89591287099594,2026-01-20 16h46.51.439289 +0530,
,Scenes\162a.jpg,39,0,40,,,,,,,j,2.723158799984958,0.17566700000315905,None,,,,,,40,0,39,287.505257300043,,,,,,,,,,,,,,,,,,,,,,,287.48889480001526,287.505257300043,287.98870290000923,,,,,,,,,,,,,,288.0057846000418,,,,,,,,,,,,,288.0017963999999,288.0057846000418,288.0057846000418,288.0057846000418,291.0052658999921,291.0052658999921,291.0052658999921,290.9890579000348,j,2.723158799984958,0.17566700000315905,290.9891138999956,290.9891250000219,None,,,,,,,,,,,,,,00021,001,2026-01-20_15h54.11.031,MST_task,2024.2.0,59.89591287099594,2026-01-20 16h46.51.439289 +0530,
,Scenes\010a.jpg,40,0,41,,,,,,,j,2.467217899975367,0.19999280001502484,None,,,,,,41,0,40,291.0052658999921,,,,,,,,,,,,,,,,,,,,,,,290.9892080000136,291.0052658999921,291.4886882000137,,,,,,,,,,,,,,291.50943490001373,,,,,,,,,,,,,291.50706730003003,291.50943490001373,291.50943490001373,291.50943490001373,,,,294.50553840002976,j,2.467217899975367,0.19999280001502484,294.5055913000251,294.5056026999955,None,,,,,,,,,,,,,,00021,001,2026-01-20_15h54.11.031,MST_task,2024.2.0,59.89591287099594,2026-01-20 16h46.51.439289 +0530,
,Scenes\158a.jpg,41,0,42,,,,,,,j,1.277642900007777,0.17598260001977906,None,,,,,,42,0,41,294.5219319000025,,,,,,,,,,,,,,,,,,,,,,,294.50568980001844,294.5219319000025,295.00573330000043,,,,,,,,,,,,,,295.0275957999984,,,,,,,,,,,,,295.02491570002167,295.0275957999984,295.0275957999984,295.0275957999984,,,,298.0221848000074,j,1.277642900007777,0.17598260001977906,298.0222461000085,298.0222585000447,None,,,,,,,,,,,,,,00021,001,2026-01-20_15h54.11.031,MST_task,2024.2.0,59.89591287099594,2026-01-20 16h46.51.439289 +0530,
,Objects\112a.jpg,42,0,43,,,,,,,f,2.4855482000275515,0.1926110999775119,None,,,,,,43,0,42,298.0384390000254,,,,,,,,,,,,,,,,,,,,,,,298.0223266000394,298.0384390000254,298.52217750001,,,,,,,,,,,,,,298.53891000000294,,,,,,,,,,,,,298.53252380003687,298.53891000000294,298.53891000000294,298.53891000000294,301.53857309999876,301.53857309999876,301.53857309999876,301.5225508000003,f,2.4855482000275515,0.1926110999775119,301.5226047000033,301.5226156000281,None,,,,,,,,,,,,,,00021,001,2026-01-20_15h54.11.031,MST_task,2024.2.0,59.89591287099594,2026-01-20 16h46.51.439289 +0530,
,Objects\136a.jpg,43,0,44,,,,,,,None,,,f,0.24263160000555217,None,,,,44,0,43,301.53857309999876,,,,,,,,,,,,,,,,,,,,,,,301.5226784000406,301.53857309999876,302.02219129999867,,,,,,,,,,,,,,302.0387658000109,,,,,,,,,,,,,302.0325102999923,302.0387658000109,302.0387658000109,302.0387658000109,305.0385391000309,305.0385391000309,305.0385391000309,305.0224608000135,None,,,305.0225119999959,305.28895419999026,f,305.0385391000309,305.0385391000309,0.24263160000555217,None,,,,,,,,,,00021,001,2026-01-20_15h54.11.031,MST_task,2024.2.0,59.89591287099594,2026-01-20 16h46.51.439289 +0530,
,Objects\002a.jpg,44,0,45,,,,,,,f,2.668497100006789,0.22325460001593456,None,,,,,,45,0,44,305.30520120001165,,,,,,,,,,,,,,,,,,,,,,,305.28907940001227,305.30520120001165,305.78887580003357,,,,,,,,,,,,,,305.8054352000472,,,,,,,,,,,,,305.8002739000367,305.8054352000472,305.8054352000472,305.8054352000472,308.80550550000044,308.80550550000044,308.80550550000044,308.78939670004183,f,2.668497100006789,0.22325460001593456,308.789466599992,308.78947890002746,None,,,,,,,,,,,,,,00021,001,2026-01-20_15h54.11.031,MST_task,2024.2.0,59.89591287099594,2026-01-20 16h46.51.439289 +0530,
,Objects\101a.jpg,45,0,46,,,,,,,f,2.718840999994427,0.2239701999933459,None,,,,,,46,0,45,308.80550550000044,,,,,,,,,,,,,,,,,,,,,,,308.78957670001546,308.80550550000044,309.28878920001443,,,,,,,,,,,,,,309.30544960004045,,,,,,,,,,,,,309.2992302000057,309.30544960004045,309.30544960004045,309.30544960004045,312.30527390004136,312.30527390004136,312.30527390004136,312.2892223999952,f,2.718840999994427,0.2239701999933459,312.28928440000163,312.2892961000325,None,,,,,,,,,,,,,,00021,001,2026-01-20_15h54.11.031,MST_task,2024.2.0,59.89591287099594,2026-01-20 16h46.51.439289 +0530,
,Objects\132a.jpg,46,0,47,,,,,,,None,,,f,0.2998158999835141,None,,,,47,0,46,312.30527390004136,,,,,,,,,,,,,,,,,,,,,,,312.289362600015,312.30527390004136,312.7886265999987,,,,,,,,,,,,,,312.8054939000285,,,,,,,,,,,,,312.7985759000294,312.8054939000285,312.8054939000285,312.8054939000285,315.80543170002056,315.80543170002056,315.80543170002056,315.7890830000397,None,,,315.7891513000359,316.1062348000123,f,315.80543170002056,315.80543170002056,0.2998158999835141,None,,,,,,,,,,00021,001,2026-01-20_15h54.11.031,MST_task,2024.2.0,59.89591287099594,2026-01-20 16h46.51.439289 +0530,
,Objects\129a.jpg,47,0,48,,,,,,,f,2.610663600033149,0.19993319996865466,None,,,,,,48,0,47,316.12207209999906,,,,,,,,,,,,,,,,,,,,,,,316.10637160000624,316.12207209999906,316.6056853000191,,,,,,,,,,,,,,316.62223570002243,,,,,,,,,,,,,316.61563810001826,316.62223570002243,316.62223570002243,316.62223570002243,319.62189340003533,319.62189340003533,319.62189340003533,319.60587790003046,f,2.610663600033149,0.19993319996865466,319.60593070002506,319.60594179999316,None,,,,,,,,,,,,,,00021,001,2026-01-20_15h54.11.031,MST_task,2024.2.0,59.89591287099594,2026-01-20 16h46.51.439289 +0530,
,Objects\161a.jpg,48,0,49,,,,,,,j,2.7181626999517903,0.2324815000174567,None,,,,,,49,0,48,319.62189340003533,,,,,,,,,,,,,,,,,,,,,,,319.60602330003167,319.62189340003533,320.10555300000124,,,,,,,,,,,,,,320.12210810004035,,,,,,,,,,,,,320.1152400000137,320.12210810004035,320.12210810004035,320.12210810004035,323.12189670000225,323.12189670000225,323.12189670000225,323.10595190001186,j,2.7181626999517903,0.2324815000174567,323.1060079000308,323.1060187999974,None,,,,,,,,,,,,,,00021,001,2026-01-20_15h54.11.031,MST_task,2024.2.0,59.89591287099594,2026-01-20 16h46.51.439289 +0530,
,Scenes\170a.jpg,49,0,50,,,,,,,j,2.005217600031756,0.21554429997922853,None,,,,,,50,0,49,323.12189670000225,,,,,,,,,,,,,,,,,,,,,,,323.1060833000229,323.12189670000225,323.60557549999794,,,,,,,,,,,,,,323.62761379999574,,,,,,,,,,,,,323.62501720001455,323.62761379999574,323.62761379999574,323.62761379999574,,,,326.6222170999972,j,2.005217600031756,0.21554429997922853,326.6222701999941,326.62228200002573,None,,,,,,,,,,,,,,00021,001,2026-01-20_15h54.11.031,MST_task,2024.2.0,59.89591287099594,2026-01-20 16h46.51.439289 +0530,
,Scenes\168a.jpg,50,0,51,,,,,,,j,2.2057655000244267,0.24847489997046068,None,,,,,,51,0,50,326.6384704000084,,,,,,,,,,,,,,,,,,,,,,,326.62234950001584,326.6384704000084,327.12238519999664,,,,,,,,,,,,,,327.139152800024,,,,,,,,,,,,,327.1362838000059,327.139152800024,327.139152800024,327.139152800024,330.1387091000215,330.1387091000215,330.1387091000215,330.12255670002196,j,2.2057655000244267,0.24847489997046068,330.1226122000371,330.122623400006,None,,,,,,,,,,,,,,00021,001,2026-01-20_15h54.11.031,MST_task,2024.2.0,59.89591287099594,2026-01-20 16h46.51.439289 +0530,
,Scenes\102a.jpg,51,0,52,,,,,,,f,1.164446099952329,0.2240437000291422,None,,,,,,52,0,51,330.1387091000215,,,,,,,,,,,,,,,,,,,,,,,330.1226898000459,330.1387091000215,330.622534300026,,,,,,,,,,,,,,330.6446968000382,,,,,,,,,,,,,330.6422350000357,330.6446968000382,330.6446968000382,330.6446968000382,,,,333.63888079999015,f,1.164446099952329,0.2240437000291422,333.63893410004675,333.6389461000217,None,,,,,,,,,,,,,,00021,001,2026-01-20_15h54.11.031,MST_task,2024.2.0,59.89591287099594,2026-01-20 16h46.51.439289 +0530,
,Scenes\118a.jpg,52,0,53,,,,,,,j,1.397258699988015,0.23074759996961802,None,,,,,,53,0,52,333.65539400000125,,,,,,,,,,,,,,,,,,,,,,,333.63903600000776,333.65539400000125,334.13896080001723,,,,,,,,,,,,,,334.1562183999922,,,,,,,,,,,,,334.15246210002806,334.1562183999922,334.1562183999922,334.1562183999922,337.1553545999923,337.1553545999923,337.1553545999923,337.13962720002746,j,1.397258699988015,0.23074759996961802,337.1396848000004,337.13969610002823,None,,,,,,,,,,,,,,00021,001,2026-01-20_15h54.11.031,MST_task,2024.2.0,59.89591287099594,2026-01-20 16h46.51.439289 +0530,
,Scenes\110a.jpg,53,0,54,,,,,,,None,,,j,1.1288461000076495,None,,,,54,0,53,337.1553545999923,,,,,,,,,,,,,,,,,,,,,,,337.1397870000219,337.1553545999923,337.6390225000214,,,,,,,,,,,,,,337.65908160002436,,,,,,,,,,,,,337.656535600021,337.65908160002436,337.65908160002436,337.65908160002436,,,,340.65583930001594,None,,,340.6559033000376,341.805771000043,j,340.6720561000402,340.6720561000402,1.1288461000076495,None,,,,,,,,,,00021,001,2026-01-20_15h54.11.031,MST_task,2024.2.0,59.89591287099594,2026-01-20 16h46.51.439289 +0530,
,Scenes\028a.jpg,54,0,55,,,,,,,None,,,j,0.6065499999676831,None,,,,55,0,54,341.82202070002677,,,,,,,,,,,,,,,,,,,,,,,341.80593680002494,341.82202070002677,342.3056337000453,,,,,,,,,,,,,,342.3226493000402,,,,,,,,,,,,,342.3201316000195,342.3226493000402,342.3226493000402,342.3226493000402,345.3220511000254,345.3220511000254,345.3220511000254,345.30600139999297,None,,,345.3060595000279,345.9390263000387,j,345.3220511000254,345.3220511000254,0.6065499999676831,None,,,,,,,,,,00021,001,2026-01-20_15h54.11.031,MST_task,2024.2.0,59.89591287099594,2026-01-20 16h46.51.439289 +0530,
,Scenes\186a.jpg,55,0,56,,,,,,,None,,,j,2.5455109999747947,None,,,,56,0,55,345.95535230002133,,,,,,,,,,,,,,,,,,,,,,,345.9391479000333,345.95535230002133,346.43899840000086,,,,,,,,,,,,,,346.45599310001126,,,,,,,,,,,,,346.4533429000294,346.45599310001126,346.45599310001126,346.45599310001126,349.45540350000374,349.45540350000374,349.45540350000374,349.4392091000336,None,,,349.43926030001603,352.0059932000004,j,349.45540350000374,349.45540350000374,2.5455109999747947,None,,,,,,,,,,00021,001,2026-01-20_15h54.11.031,MST_task,2024.2.0,59.89591287099594,2026-01-20 16h46.51.439289 +0530,
,Objects\159a.jpg,56,0,57,,,,,,,f,2.2616644999943674,0.17665159999160096,None,,,,,,57,0,56,352.022031600005,,,,,,,,,,,,,,,,,,,,,,,352.0060782000073,352.022031600005,352.50559980003163,,,,,,,,,,,,,,352.5225638000411,,,,,,,,,,,,,352.5162400000263,352.5225638000411,352.5225638000411,352.5225638000411,355.52205090003554,355.52205090003554,355.52205090003554,355.50598860002356,f,2.2616644999943674,0.17665159999160096,355.50604579999344,355.5060575000243,None,,,,,,,,,,,,,,00021,001,2026-01-20_15h54.11.031,MST_task,2024.2.0,59.89591287099594,2026-01-20 16h46.51.439289 +0530,
,Objects\048a.jpg,57,0,58,,,,,,,j,1.5389454999822192,0.2152123000123538,None,,,,,,58,0,57,355.52205090003554,,,,,,,,,,,,,,,,,,,,,,,355.50614330003737,355.52205090003554,356.00564560003113,,,,,,,,,,,,,,356.02224910003133,,,,,,,,,,,,,356.0155259000021,356.02224910003133,356.02224910003133,356.02224910003133,359.0220782000106,359.0220782000106,359.0220782000106,359.0058966000215,j,1.5389454999822192,0.2152123000123538,359.0059515000321,359.0059620999964,None,,,,,,,,,,,,,,00021,001,2026-01-20_15h54.11.031,MST_task,2024.2.0,59.89591287099594,2026-01-20 16h46.51.439289 +0530,
,Objects\187a.jpg,58,0,59,,,,,,,f,0.814488900010474,0.2245771000161767,None,,,,,,59,0,58,359.0220782000106,,,,,,,,,,,,,,,,,,,,,,,359.006027800031,359.0220782000106,359.505638200033,,,,,,,,,,,,,,359.5222715000273,,,,,,,,,,,,,359.515098200005,359.5222715000273,359.5222715000273,359.5222715000273,362.5220154999988,362.5220154999988,362.5220154999988,362.50590839999495,f,0.814488900010474,0.2245771000161767,362.50596139999107,362.50597230001586,None,,,,,,,,,,,,,,00021,001,2026-01-20_15h54.11.031,MST_task,2024.2.0,59.89591287099594,2026-01-20 16h46.51.439289 +0530,
,Objects\152a.jpg,59,0,60,,,,,,,None,,,f,0.7543256999924779,None,,,,60,0,59,362.5220154999988,,,,,,,,,,,,,,,,,,,,,,,362.50605510000605,362.5220154999988,363.00564889999805,,,,,,,,,,,,,,363.0222391000134,,,,,,,,,,,,,363.01532860001316,363.0222391000134,363.0222391000134,363.0222391000134,366.0220737000345,366.0220737000345,366.0220737000345,366.005884000042,None,,,366.00593350001145,366.7892206000397,f,366.0220737000345,366.0220737000345,0.7543256999924779,None,,,,,,,,,,00021,001,2026-01-20_15h54.11.031,MST_task,2024.2.0,59.89591287099594,2026-01-20 16h46.51.439289 +0530,
,Objects\003a.jpg,60,0,61,,,,,,,j,1.0079096000408754,0.1988992999540642,None,,,,,,61,0,60,366.8053118000389,,,,,,,,,,,,,,,,,,,,,,,366.78934519999893,366.8053118000389,367.2889495000127,,,,,,,,,,,,,,367.305589399999,,,,,,,,,,,,,367.3010685000336,367.305589399999,367.305589399999,367.305589399999,370.30535129999043,370.30535129999043,370.30535129999043,370.28923500003293,j,1.0079096000408754,0.1988992999540642,370.2892887000344,370.28930010000477,None,,,,,,,,,,,,,,00021,001,2026-01-20_15h54.11.031,MST_task,2024.2.0,59.89591287099594,2026-01-20 16h46.51.439289 +0530,
,Objects\050a.jpg,61,0,62,,,,,,,f,2.530494100006763,0.21602319995872676,None,,,,,,62,0,61,370.30535129999043,,,,,,,,,,,,,,,,,,,,,,,370.28936560003785,370.30535129999043,370.7889543999918,,,,,,,,,,,,,,370.80568240000866,,,,,,,,,,,,,370.7982990000164,370.80568240000866,370.80568240000866,370.80568240000866,373.805305899994,373.805305899994,373.805305899994,373.7892991999979,f,2.530494100006763,0.21602319995872676,373.789353900007,373.7893650000333,None,,,,,,,,,,,,,,00021,001,2026-01-20_15h54.11.031,MST_task,2024.2.0,59.89591287099594,2026-01-20 16h46.51.439289 +0530,
,Objects\062a.jpg,62,0,63,,,,,,,f,1.5992595999850892,0.18359450000571087,None,,,,,,63,0,62,373.805305899994,,,,,,,,,,,,,,,,,,,,,,,373.78942800004734,373.805305899994,374.2887844000361,,,,,,,,,,,,,,374.30552540003555,,,,,,,,,,,,,374.29868980002357,374.30552540003555,374.30552540003555,374.30552540003555,377.3053992000059,377.3053992000059,377.3053992000059,377.2891459999955,f,1.5992595999850892,0.18359450000571087,377.2892009000061,377.2892118000309,None,,,,,,,,,,,,,,00021,001,2026-01-20_15h54.11.031,MST_task,2024.2.0,59.89591287099594,2026-01-20 16h46.51.439289 +0530,
,Scenes\182a.jpg,63,0,64,,,,,,,j,2.099296700034756,0.2069144999841228,None,,,,,,64,0,63,377.3053992000059,,,,,,,,,,,,,,,,,,,,,,,377.2892759999959,377.3053992000059,377.78891390003264,,,,,,,,,,,,,,377.806166400027,,,,,,,,,,,,,377.80375290004304,377.806166400027,377.806166400027,377.806166400027,380.80543120001676,380.80543120001676,380.80543120001676,380.78932520002127,j,2.099296700034756,0.2069144999841228,380.789393700019,380.7894062999985,None,,,,,,,,,,,,,,00021,001,2026-01-20_15h54.11.031,MST_task,2024.2.0,59.89591287099594,2026-01-20 16h46.51.439289 +0530,
,Scenes\184a.jpg,64,0,65,,,,,,,j,1.5580654999939725,0.21687499998370185,None,,,,,,65,0,64,380.80543120001676,,,,,,,,,,,,,,,,,,,,,,,380.78947690001223,380.80543120001676,381.28891280002426,,,,,,,,,,,,,,381.30612740002107,,,,,,,,,,,,,381.3036575000151,381.30612740002107,381.30612740002107,381.30612740002107,384.3053869000287,384.3053869000287,384.3053869000287,384.2893221999984,j,1.5580654999939725,0.21687499998370185,384.28937569999835,384.2893872000277,None,,,,,,,,,,,,,,00021,001,2026-01-20_15h54.11.031,MST_task,2024.2.0,59.89591287099594,2026-01-20 16h46.51.439289 +0530,
,Scenes\005a.jpg,65,0,66,,,,,,,f,1.7861665999516845,0.15998140000738204,None,,,,,,66,0,65,384.3053869000287,,,,,,,,,,,,,,,,,,,,,,,384.2894521999988,384.3053869000287,384.7888543000445,,,,,,,,,,,,,,384.8067754000076,,,,,,,,,,,,,384.8045390000334,384.8067754000076,384.8067754000076,384.8067754000076,,,,387.8055760000134,f,1.7861665999516845,0.15998140000738204,387.80564570002025,387.805658199999,None,,,,,,,,,,,,,,00021,001,2026-01-20_15h54.11.031,MST_task,2024.2.0,59.89591287099594,2026-01-20 16h46.51.439289 +0530,
,Scenes\112a.jpg,66,0,67,,,,,,,f,1.3732435000129044,0.1601974000222981,None,,,,,,67,0,66,387.82199900003616,,,,,,,,,,,,,,,,,,,,,,,387.80573240004014,387.82199900003616,388.30553060001694,,,,,,,,,,,,,,388.32366210001055,,,,,,,,,,,,,388.3210240000044,388.32366210001055,388.32366210001055,388.32366210001055,,,,391.3221463999944,f,1.3732435000129044,0.1601974000222981,391.3221992000472,391.3222108000191,None,,,,,,,,,,,,,,00021,001,2026-01-20_15h54.11.031,MST_task,2024.2.0,59.89591287099594,2026-01-20 16h46.51.439289 +0530,
,Scenes\078a.jpg,67,0,68,,,,,,,j,1.5267205000272952,0.12100179999833927,None,,,,,,68,0,67,391.33855340001173,,,,,,,,,,,,,,,,,,,,,,,391.32227740000235,391.33855340001173,391.8221719000139,,,,,,,,,,,,,,391.84160139999585,,,,,,,,,,,,,391.8393178000115,391.84160139999585,391.84160139999585,391.84160139999585,,,,394.83886930003064,j,1.5267205000272952,0.12100179999833927,394.8389390000375,394.8389514000155,None,,,,,,,,,,,,,,00021,001,2026-01-20_15h54.11.031,MST_task,2024.2.0,59.89591287099594,2026-01-20 16h46.51.439289 +0530,
,Scenes\046a.jpg,68,0,69,,,,,,,f,1.1732666000025347,0.23999999999068677,None,,,,,,69,0,68,394.8553448000457,,,,,,,,,,,,,,,,,,,,,,,394.8390570000047,394.8553448000457,395.3387655999977,,,,,,,,,,,,,,395.36328089999733,,,,,,,,,,,,,395.3605233000126,395.36328089999733,395.36328089999733,395.36328089999733,,,,398.3555207000463,f,1.1732666000025347,0.23999999999068677,398.35557340004016,398.3555854000151,None,,,,,,,,,,,,,,00021,001,2026-01-20_15h54.11.031,MST_task,2024.2.0,59.89591287099594,2026-01-20 16h46.51.439289 +0530,
,Scenes\147a.jpg,69,0,70,,,,,,,f,2.319810700020753,0.20799110003281385,None,,,,,,70,0,69,398.3719515000121,,,,,,,,,,,,,,,,,,,,,,,398.3556711000274,398.3719515000121,398.8555667999899,,,,,,,,,,,,,,398.8725098000141,,,,,,,,,,,,,398.8696068000281,398.8725098000141,398.8725098000141,398.8725098000141,401.87204260000726,401.87204260000726,401.87204260000726,401.85609710001154,f,2.319810700020753,0.20799110003281385,401.856161600037,401.85617310000816,None,,,,,,,,,,,,,,00021,001,2026-01-20_15h54.11.031,MST_task,2024.2.0,59.89591287099594,2026-01-20 16h46.51.439289 +0530,
,Objects\058a.jpg,70,0,71,,,,,,,f,1.3883088000002317,0.1759454000275582,None,,,,,,71,0,70,401.87204260000726,,,,,,,,,,,,,,,,,,,,,,,401.8562712999992,401.87204260000726,402.3555689000059,,,,,,,,,,,,,,402.37256340001477,,,,,,,,,,,,,402.3657278000028,402.37256340001477,402.37256340001477,402.37256340001477,405.3720070000272,405.3720070000272,405.3720070000272,405.35610690002795,f,1.3883088000002317,0.1759454000275582,405.3561745000188,405.3561871999991,None,,,,,,,,,,,,,,00021,001,2026-01-20_15h54.11.031,MST_task,2024.2.0,59.89591287099594,2026-01-20 16h46.51.439289 +0530,
,Objects\027a.jpg,71,0,72,,,,,,,f,1.6728697000071406,0.16833120002411306,None,,,,,,72,0,71,405.3720070000272,,,,,,,,,,,,,,,,,,,,,,,405.3562555999961,405.3720070000272,405.85559749999084,,,,,,,,,,,,,,405.87219120003283,,,,,,,,,,,,,405.86492349999025,405.87219120003283,405.87219120003283,405.87219120003283,408.8719871999929,408.8719871999929,408.8719871999929,408.8559568999917,f,1.6728697000071406,0.16833120002411306,408.8560109999962,408.8560227000271,None,,,,,,,,,,,,,,00021,001,2026-01-20_15h54.11.031,MST_task,2024.2.0,59.89591287099594,2026-01-20 16h46.51.439289 +0530,
,Objects\067a.jpg,72,0,73,,,,,,,f,2.5887053000042215,0.16796910000266507,None,,,,,,73,0,72,408.8719871999929,,,,,,,,,,,,,,,,,,,,,,,408.8560855000396,408.8719871999929,409.3557820999995,,,,,,,,,,,,,,409.37232210004004,,,,,,,,,,,,,409.3664582000347,409.37232210004004,409.37232210004004,409.37232210004004,412.3719527000212,412.3719527000212,412.3719527000212,412.3559182000463,f,2.5887053000042215,0.16796910000266507,412.3559731999994,412.35598480002955,None,,,,,,,,,,,,,,00021,001,2026-01-20_15h54.11.031,MST_task,2024.2.0,59.89591287099594,2026-01-20 16h46.51.439289 +0530,
,Objects\106a.jpg,73,0,74,,,,,,,f,2.192953799967654,0.21517450001556426,None,,,,,,74,0,73,412.3719527000212,,,,,,,,,,,,,,,,,,,,,,,412.35604889999377,412.3719527000212,412.8555860000197,,,,,,,,,,,,,,412.87223690003157,,,,,,,,,,,,,412.86517140001524,412.87223690003157,412.87223690003157,412.87223690003157,415.87196630000835,415.87196630000835,415.87196630000835,415.8561345000053,f,2.192953799967654,0.21517450001556426,415.85619640001096,415.8562074000365,None,,,,,,,,,,,,,,00021,001,2026-01-20_15h54.11.031,MST_task,2024.2.0,59.89591287099594,2026-01-20 16h46.51.439289 +0530,
,Objects\190a.jpg,74,0,75,,,,,,,f,2.04450459999498,0.21587930002715439,None,,,,,,75,0,74,415.87196630000835,,,,,,,,,,,,,,,,,,,,,,,415.85629940003855,415.87196630000835,416.3556183000328,,,,,,,,,,,,,,416.3721920000389,,,,,,,,,,,,,416.36473590001697,416.3721920000389,416.3721920000389,416.3721920000389,419.3719149000244,419.3719149000244,419.3719149000244,419.3559727999964,f,2.04450459999498,0.21587930002715439,419.3560254999902,419.3560367000173,None,,,,,,,,,,,,,,00021,001,2026-01-20_15h54.11.031,MST_task,2024.2.0,59.89591287099594,2026-01-20 16h46.51.439289 +0530,
,Objects\099a.jpg,75,0,76,,,,,,,j,1.992213100020308,0.16799430001992732,None,,,,,,76,0,75,419.3719149000244,,,,,,,,,,,,,,,,,,,,,,,419.35610100004124,419.3719149000244,419.85573360003764,,,,,,,,,,,,,,419.872308799997,,,,,,,,,,,,,419.86678660003236,419.872308799997,419.872308799997,419.872308799997,422.87190760002704,422.87190760002704,422.87190760002704,422.8559360000072,j,1.992213100020308,0.16799430001992732,422.8559906000155,422.8560015000403,None,,,,,,,,,,,,,,00021,001,2026-01-20_15h54.11.031,MST_task,2024.2.0,59.89591287099594,2026-01-20 16h46.51.439289 +0530,
,Objects\087a.jpg,76,0,77,,,,,,,f,1.244440200040117,0.2237711999914609,None,,,,,,77,0,76,422.87190760002704,,,,,,,,,,,,,,,,,,,,,,,422.8560642999946,422.87190760002704,423.35555810004007,,,,,,,,,,,,,,423.372165400011,,,,,,,,,,,,,423.36541120003676,423.372165400011,423.372165400011,423.372165400011,426.3719390000333,426.3719390000333,426.3719390000333,426.355940700043,f,1.244440200040117,0.2237711999914609,426.35600030003116,426.3560115,None,,,,,,,,,,,,,,00021,001,2026-01-20_15h54.11.031,MST_task,2024.2.0,59.89591287099594,2026-01-20 16h46.51.439289 +0530,
,Scenes\191a.jpg,77,0,78,,,,,,,j,2.094385299948044,0.11236840003402904,None,,,,,,78,0,77,426.3719390000333,,,,,,,,,,,,,,,,,,,,,,,426.3561005000374,426.3719390000333,426.8556843000115,,,,,,,,,,,,,,426.8743790000444,,,,,,,,,,,,,426.87202300003264,426.8743790000444,426.8743790000444,426.8743790000444,,,,429.872170000046,j,2.094385299948044,0.11236840003402904,429.87222560000373,429.8722378000384,None,,,,,,,,,,,,,,00021,001,2026-01-20_15h54.11.031,MST_task,2024.2.0,59.89591287099594,2026-01-20 16h46.51.439289 +0530,
,Scenes\183a.jpg,78,0,79,,,,,,,f,1.1817855999688618,0.16823890001978725,None,,,,,,79,0,78,429.88857549999375,,,,,,,,,,,,,,,,,,,,,,,429.87230450002244,429.88857549999375,430.3723742000293,,,,,,,,,,,,,,430.3948578000418,,,,,,,,,,,,,430.39249210001435,430.3948578000418,430.3948578000418,430.3948578000418,,,,433.38888830004726,f,1.1817855999688618,0.16823890001978725,433.3889424999943,433.38895430002594,None,,,,,,,,,,,,,,00021,001,2026-01-20_15h54.11.031,MST_task,2024.2.0,59.89591287099594,2026-01-20 16h46.51.439289 +0530,
,Scenes\166a.jpg,79,0,80,,,,,,,j,0.9025125000043772,0.20109789998969063,None,,,,,,80,0,79,433.40529389999574,,,,,,,,,,,,,,,,,,,,,,,433.3890457000234,433.40529389999574,433.88905310002156,,,,,,,,,,,,,,433.90585330000613,,,,,,,,,,,,,433.9029492000118,433.90585330000613,433.90585330000613,433.90585330000613,436.9052769000409,436.9052769000409,436.9052769000409,436.88922100001946,j,0.9025125000043772,0.20109789998969063,436.8892840000335,436.88929610000923,None,,,,,,,,,,,,,,00021,001,2026-01-20_15h54.11.031,MST_task,2024.2.0,59.89591287099594,2026-01-20 16h46.51.439289 +0530,
,Scenes\187a.jpg,80,0,81,,,,,,,j,1.2016934999846853,0.19130080001195893,None,,,,,,81,0,80,436.9052769000409,,,,,,,,,,,,,,,,,,,,,,,436.88936359999934,436.9052769000409,437.3887718000333,,,,,,,,,,,,,,437.4074901000131,,,,,,,,,,,,,437.405152500025,437.4074901000131,437.4074901000131,437.4074901000131,,,,440.40550600003917,j,1.2016934999846853,0.19130080001195893,440.40556939999806,440.4055812000297,None,,,,,,,,,,,,,,00021,001,2026-01-20_15h54.11.031,MST_task,2024.2.0,59.89591287099594,2026-01-20 16h46.51.439289 +0530,
,Scenes\114a.jpg,81,0,82,,,,,,,f,1.913743400014937,0.17601110000396147,None,,,,,,82,0,81,440.4219849000219,,,,,,,,,,,,,,,,,,,,,,,440.40564960002666,440.4219849000219,440.90561630000593,,,,,,,,,,,,,,440.9270259999903,,,,,,,,,,,,,440.9247578000068,440.9270259999903,440.9270259999903,440.9270259999903,,,,443.92214470001636,f,1.913743400014937,0.17601110000396147,443.9221969000064,443.9222085000365,None,,,,,,,,,,,,,,00021,001,2026-01-20_15h54.11.031,MST_task,2024.2.0,59.89591287099594,2026-01-20 16h46.51.439289 +0530,
,Scenes\065a.jpg,82,0,83,,,,,,,j,0.8574444000259973,0.1681455000070855,None,,,,,,83,0,82,443.93839429999935,,,,,,,,,,,,,,,,,,,,,,,443.9222936000442,443.93839429999935,444.4221516000107,,,,,,,,,,,,,,444.439522700035,,,,,,,,,,,,,444.4370401999913,444.439522700035,444.439522700035,444.439522700035,447.4384920000448,447.4384920000448,447.4384920000448,447.422741700022,j,0.8574444000259973,0.1681455000070855,447.4228005000041,447.4228119000327,None,,,,,,,,,,,,,,00021,001,2026-01-20_15h54.11.031,MST_task,2024.2.0,59.89591287099594,2026-01-20 16h46.51.439289 +0530,
,Scenes\004a.jpg,83,0,84,,,,,,,j,1.1068614999530837,0.17600430001039058,None,,,,,,84,0,83,447.4384920000448,,,,,,,,,,,,,,,,,,,,,,,447.42290310002863,447.4384920000448,447.9223307000357,,,,,,,,,,,,,,447.94148400000995,,,,,,,,,,,,,447.93914279999444,447.94148400000995,447.94148400000995,447.94148400000995,,,,450.9388364000479,j,1.1068614999530837,0.17600430001039058,450.9389041000395,450.93891670001904,None,,,,,,,,,,,,,,00021,001,2026-01-20_15h54.11.031,MST_task,2024.2.0,59.89591287099594,2026-01-20 16h46.51.439289 +0530,
,Objects\118a.jpg,84,0,85,,,,,,,j,2.961654799990356,None,None,,,,,,85,0,84,450.95532120001735,,,,,,,,,,,,,,,,,,,,,,,450.939018700039,450.95532120001735,451.4389680000022,,,,,,,,,,,,,,451.45592560002115,,,,,,,,,,,,,451.4497007000027,451.45592560002115,451.45592560002115,451.45592560002115,454.4554373000283,454.4554373000283,454.4554373000283,454.4393954999978,j,2.961654799990356,None,454.4394624000415,454.43947500002105,None,,,,,,,,,,,,,,00021,001,2026-01-20_15h54.11.031,MST_task,2024.2.0,59.89591287099594,2026-01-20 16h46.51.439289 +0530,
,Objects\084a.jpg,85,0,86,,,,,,,f,1.6933953000116162,0.16800869995495304,None,,,,,,86,0,85,454.4554373000283,,,,,,,,,,,,,,,,,,,,,,,454.4395426000119,454.4554373000283,454.9388070999994,,,,,,,,,,,,,,454.95553440001095,,,,,,,,,,,,,454.9488810999901,454.95553440001095,454.95553440001095,454.95553440001095,457.9554041000083,457.9554041000083,457.9554041000083,457.93935130001046,f,1.6933953000116162,0.16800869995495304,457.9394097000477,457.9394211000181,None,,,,,,,,,,,,,,00021,001,2026-01-20_15h54.11.031,MST_task,2024.2.0,59.89591287099594,2026-01-20 16h46.51.439289 +0530,
,Objects\144a.jpg,86,0,87,,,,,,,f,1.9292513999971561,0.18404999998165295,None,,,,,,87,0,86,457.9554041000083,,,,,,,,,,,,,,,,,,,,,,,457.93950860004406,457.9554041000083,458.43899170000805,,,,,,,,,,,,,,458.4556237999932,,,,,,,,,,,,,458.44948250002926,458.4556237999932,458.4556237999932,458.4556237999932,461.4555534000392,461.4555534000392,461.4555534000392,461.4394971000147,f,1.9292513999971561,0.18404999998165295,461.4395651000086,461.43957750004483,None,,,,,,,,,,,,,,00021,001,2026-01-20_15h54.11.031,MST_task,2024.2.0,59.89591287099594,2026-01-20 16h46.51.439289 +0530,
,Objects\128a.jpg,87,0,88,,,,,,,j,2.140624799998477,0.22399879997828975,None,,,,,,88,0,87,461.4555534000392,,,,,,,,,,,,,,,,,,,,,,,461.43967029999476,461.4555534000392,461.9390213000006,,,,,,,,,,,,,,461.95567590004066,,,,,,,,,,,,,461.94907299999613,461.95567590004066,461.95567590004066,461.95567590004066,464.95534470002167,464.95534470002167,464.95534470002167,464.93916970002465,j,2.140624799998477,0.22399879997828975,464.939224700036,464.93923590000486,None,,,,,,,,,,,,,,00021,001,2026-01-20_15h54.11.031,MST_task,2024.2.0,59.89591287099594,2026-01-20 16h46.51.439289 +0530,
,Objects\042a.jpg,88,0,89,,,,,,,f,1.28934959997423,0.23292829998536035,None,,,,,,89,0,88,464.95534470002167,,,,,,,,,,,,,,,,,,,,,,,464.9392995000235,464.95534470002167,465.4388048000401,,,,,,,,,,,,,,465.4555035000085,,,,,,,,,,,,,465.4486840000027,465.4555035000085,465.4555035000085,465.4555035000085,468.45544019999215,468.45544019999215,468.45544019999215,468.43950939999195,f,1.28934959997423,0.23292829998536035,468.4395810000133,468.4395938999951,None,,,,,,,,,,,,,,00021,001,2026-01-20_15h54.11.031,MST_task,2024.2.0,59.89591287099594,2026-01-20 16h46.51.439289 +0530,
,Objects\185a.jpg,89,0,90,,,,,,,f,2.1496428999817,0.18457310000667349,None,,,,,,90,0,89,468.45544019999215,,,,,,,,,,,,,,,,,,,,,,,468.43966460000956,468.45544019999215,468.9391051999992,,,,,,,,,,,,,,468.95573310001055,,,,,,,,,,,,,468.948828099994,468.95573310001055,468.95573310001055,468.95573310001055,471.9554126000148,471.9554126000148,471.9554126000148,471.9395105000003,f,2.1496428999817,0.18457310000667349,471.9395794000011,471.93959170003654,None,,,,,,,,,,,,,,00021,001,2026-01-20_15h54.11.031,MST_task,2024.2.0,59.89591287099594,2026-01-20 16h46.51.439289 +0530,
,Objects\186a.jpg,90,0,91,,,,,,,f,2.360713300004136,0.17598960001487285,None,,,,,,91,0,90,471.9554126000148,,,,,,,,,,,,,,,,,,,,,,,471.9396863000002,471.9554126000148,472.43919940001797,,,,,,,,,,,,,,472.45564070000546,,,,,,,,,,,,,472.4492562999949,472.45564070000546,472.45564070000546,472.45564070000546,475.4554616000387,475.4554616000387,475.4554616000387,475.43924320000224,f,2.360713300004136,0.17598960001487285,475.439295499993,475.4393064000178,None,,,,,,,,,,,,,,00021,001,2026-01-20_15h54.11.031,MST_task,2024.2.0,59.89591287099594,2026-01-20 16h46.51.439289 +0530,
,Scenes\173a.jpg,91,0,92,,,,,,,j,0.9973094000015408,0.24004920001607388,None,,,,,,92,0,91,475.4554616000387,,,,,,,,,,,,,,,,,,,,,,,475.43937120004557,475.4554616000387,475.939091200009,,,,,,,,,,,,,,475.955818300019,,,,,,,,,,,,,475.95341910002753,475.955818300019,475.955818300019,475.955818300019,478.9552988000214,478.9552988000214,478.9552988000214,478.9392579999985,j,0.9973094000015408,0.24004920001607388,478.9393170000403,478.93932850001147,None,,,,,,,,,,,,,,00021,001,2026-01-20_15h54.11.031,MST_task,2024.2.0,59.89591287099594,2026-01-20 16h46.51.439289 +0530,
,Scenes\066a.jpg,92,0,93,,,,,,,j,2.3767162999720313,0.2000611000112258,None,,,,,,93,0,92,478.9552988000214,,,,,,,,,,,,,,,,,,,,,,,478.9393985000206,478.9552988000214,479.4391566000413,,,,,,,,,,,,,,479.4559050000389,,,,,,,,,,,,,479.4510058000451,479.4559050000389,479.4559050000389,479.4559050000389,482.45543820003513,482.45543820003513,482.45543820003513,482.4391584999976,j,2.3767162999720313,0.2000611000112258,482.43921159999445,482.4392231000238,None,,,,,,,,,,,,,,00021,001,2026-01-20_15h54.11.031,MST_task,2024.2.0,59.89591287099594,2026-01-20 16h46.51.439289 +0530,
,Scenes\178a.jpg,93,0,94,,,,,,,j,2.5009828999754973,0.16808129998389632,None,,,,,,94,0,93,482.45543820003513,,,,,,,,,,,,,,,,,,,,,,,482.4393082000315,482.45543820003513,482.9387866000179,,,,,,,,,,,,,,482.9557413000148,,,,,,,,,,,,,482.9526821000036,482.9557413000148,482.9557413000148,482.9557413000148,485.955441099999,485.955441099999,485.955441099999,485.9391586999991,j,2.5009828999754973,0.16808129998389632,485.9392196999979,485.93923130002804,None,,,,,,,,,,,,,,00021,001,2026-01-20_15h54.11.031,MST_task,2024.2.0,59.89591287099594,2026-01-20 16h46.51.439289 +0530,
,Scenes\179a.jpg,94,0,95,,,,,,,j,0.8636994999833405,0.16798550001112744,None,,,,,,95,0,94,485.955441099999,,,,,,,,,,,,,,,,,,,,,,,485.93929830001434,485.955441099999,486.4388733000378,,,,,,,,,,,,,,486.45674160000635,,,,,,,,,,,,,486.45437580003636,486.45674160000635,486.45674160000635,486.45674160000635,,,,489.4555200000177,j,0.8636994999833405,0.16798550001112744,489.45558410004014,489.4555964000174,None,,,,,,,,,,,,,,00021,001,2026-01-20_15h54.11.031,MST_task,2024.2.0,59.89591287099594,2026-01-20 16h46.51.439289 +0530,
,Scenes\044a.jpg,95,0,96,,,,,,,None,,,j,1.5090953999897465,None,,,,96,0,95,489.4720407000277,,,,,,,,,,,,,,,,,,,,,,,489.4556692999904,489.4720407000277,489.95566300000064,,,,,,,,,,,,,,489.9726842000382,,,,,,,,,,,,,489.9696806000429,489.9726842000382,489.9726842000382,489.9726842000382,,,,492.9557283000322,None,,,492.9558021000121,494.48901020002086,j,492.97214279999025,492.97214279999025,1.5090953999897465,None,,,,,,,,,,00021,001,2026-01-20_15h54.11.031,MST_task,2024.2.0,59.89591287099594,2026-01-20 16h46.51.439289 +0530,
,Scenes\130a.jpg,96,0,97,,,,,,,j,1.6219197000027634,0.11196260002907366,None,,,,,,97,0,96,494.5052663999959,,,,,,,,,,,,,,,,,,,,,,,494.48909899999853,494.5052663999959,494.98907280003186,,,,,,,,,,,,,,495.0103472000337,,,,,,,,,,,,,495.00791400001617,495.0103472000337,495.0103472000337,495.0103472000337,,,,498.00563030003104,j,1.6219197000027634,0.11196260002907366,498.005684200034,498.0056971000158,None,,,,,,,,,,,,,,00021,001,2026-01-20_15h54.11.031,MST_task,2024.2.0,59.89591287099594,2026-01-20 16h46.51.439289 +0530,
,Scenes\131a.jpg,97,0,98,,,,,,,j,1.0684075999888591,0.11907519999658689,None,,,,,,98,0,97,498.0221014000126,,,,,,,,,,,,,,,,,,,,,,,498.00576430000365,498.0221014000126,498.50569389999146,,,,,,,,,,,,,,498.52541410003323,,,,,,,,,,,,,498.5230041000177,498.52541410003323,498.52541410003323,498.52541410003323,,,,501.5223595999996,j,1.0684075999888591,0.11907519999658689,501.5224120999919,501.52242340001976,None,,,,,,,,,,,,,,00021,001,2026-01-20_15h54.11.031,MST_task,2024.2.0,59.89591287099594,2026-01-20 16h46.51.439289 +0530,
,Objects\130a.jpg,98,0,99,,,,,,,f,2.4901696000015363,0.17564359999960288,None,,,,,,99,0,98,501.5388146000332,,,,,,,,,,,,,,,,,,,,,,,501.5224908000091,501.5388146000332,502.02243660000386,,,,,,,,,,,,,,502.03896999999415,,,,,,,,,,,,,502.0325640999945,502.03896999999415,502.03896999999415,502.03896999999415,505.03859020001255,505.03859020001255,505.03859020001255,505.0225661000004,f,2.4901696000015363,0.17564359999960288,505.02262340002926,505.0226349000004,None,,,,,,,,,,,,,,00021,001,2026-01-20_15h54.11.031,MST_task,2024.2.0,59.89591287099594,2026-01-20 16h46.51.439289 +0530,
,Objects\126a.jpg,99,0,100,,,,,,,f,0.9572742999880575,0.16890729998704046,None,,,,,,100,0,99,505.03859020001255,,,,,,,,,,,,,,,,,,,,,,,505.02270160004264,505.03859020001255,505.5222549000173,,,,,,,,,,,,,,505.5389865000034,,,,,,,,,,,,,505.53172359999735,505.5389865000034,505.5389865000034,505.5389865000034,508.5385416999925,508.5385416999925,508.5385416999925,508.5224271999905,f,0.9572742999880575,0.16890729998704046,508.5224814999965,508.52249280002434,None,,,,,,,,,,,,,,00021,001,2026-01-20_15h54.11.031,MST_task,2024.2.0,59.89591287099594,2026-01-20 16h46.51.439289 +0530,
,Objects\022a.jpg,100,0,101,,,,,,,f,1.0352045999607071,0.17552109999815002,None,,,,,,101,0,100,508.5385416999925,,,,,,,,,,,,,,,,,,,,,,,508.52255670004524,508.5385416999925,509.0223962000455,,,,,,,,,,,,,,509.03880700003356,,,,,,,,,,,,,509.03247600002214,509.03880700003356,509.03880700003356,509.03880700003356,512.0385049000033,512.0385049000033,512.0385049000033,512.0225719000446,f,1.0352045999607071,0.17552109999815002,512.022625600046,512.0226371000172,None,,,,,,,,,,,,,,00021,001,2026-01-20_15h54.11.031,MST_task,2024.2.0,59.89591287099594,2026-01-20 16h46.51.439289 +0530,
,Objects\049a.jpg,101,0,102,,,,,,,None,,,f,0.34294230001978576,None,,,,102,0,101,512.0385049000033,,,,,,,,,,,,,,,,,,,,,,,512.0227015000419,512.0385049000033,512.5224411000381,,,,,,,,,,,,,,512.5387296000263,,,,,,,,,,,,,512.5320932000177,512.5387296000263,512.5387296000263,512.5387296000263,515.5385263999924,515.5385263999924,515.5385263999924,515.5227828000207,None,,,515.5228381000343,515.8890571999946,f,515.5385263999924,515.5385263999924,0.34294230001978576,None,,,,,,,,,,00021,001,2026-01-20_15h54.11.031,MST_task,2024.2.0,59.89591287099594,2026-01-20 16h46.51.439289 +0530,
,Objects\140a.jpg,102,0,103,,,,,,,j,0.9152812999673188,0.1279729999951087,None,,,,,,103,0,102,515.9053780999966,,,,,,,,,,,,,,,,,,,,,,,515.8891440000152,515.9053780999966,516.388823300018,,,,,,,,,,,,,,516.4055661000311,,,,,,,,,,,,,516.398318600026,516.4055661000311,516.4055661000311,516.4055661000311,519.4053360000253,519.4053360000253,519.4053360000253,519.3891417999985,j,0.9152812999673188,0.1279729999951087,519.3891961000045,519.3892074000323,None,,,,,,,,,,,,,,00021,001,2026-01-20_15h54.11.031,MST_task,2024.2.0,59.89591287099594,2026-01-20 16h46.51.439289 +0530,
,Objects\162a.jpg,103,0,104,,,,,,,f,1.055287099967245,0.1839808000368066,None,,,,,,104,0,103,519.4053360000253,,,,,,,,,,,,,,,,,,,,,,,519.3892724000034,519.4053360000253,519.8887231000117,,,,,,,,,,,,,,519.9055659000296,,,,,,,,,,,,,519.8984196000383,519.9055659000296,519.9055659000296,519.9055659000296,522.9052650000085,522.9052650000085,522.9052650000085,522.8890302000218,f,1.055287099967245,0.1839808000368066,522.8890860000392,522.8890967000043,None,,,,,,,,,,,,,,00021,001,2026-01-20_15h54.11.031,MST_task,2024.2.0,59.89591287099594,2026-01-20 16h46.51.439289 +0530,
,Objects\036a.jpg,104,0,105,,,,,,,None,,,f,0.42010250000748783,None,,,,105,0,104,522.9052650000085,,,,,,,,,,,,,,,,,,,,,,,522.889160700026,522.9052650000085,523.3888353999937,,,,,,,,,,,,,,523.4056120000314,,,,,,,,,,,,,523.3987167000305,523.4056120000314,523.4056120000314,523.4056120000314,526.4053514000261,526.4053514000261,526.4053514000261,526.3891409999924,None,,,526.3891917000292,526.8389142000233,f,526.4053514000261,526.4053514000261,0.42010250000748783,None,,,,,,,,,,00021,001,2026-01-20_15h54.11.031,MST_task,2024.2.0,59.89591287099594,2026-01-20 16h46.51.439289 +0530,
,Scenes\059a.jpg,105,0,106,,,,,,,None,,,j,0.17231819999869913,None,,,,106,0,105,526.8553493000218,,,,,,,,,,,,,,,,,,,,,,,526.8389977000188,526.8553493000218,527.3390482999966,,,,,,,,,,,,,,527.3605199000449,,,,,,,,,,,,,527.358248100034,527.3605199000449,527.3605199000449,527.3605199000449,,,,530.3555444999947,None,,,530.3555943000247,530.5557272000005,j,530.3720213000197,530.3720213000197,0.17231819999869913,None,,,,,,,,,,00021,001,2026-01-20_15h54.11.031,MST_task,2024.2.0,59.89591287099594,2026-01-20 16h46.51.439289 +0530,
,Scenes\041a.jpg,106,0,107,,,,,,,j,1.1650002999813296,0.20698290003929287,None,,,,,,107,0,106,530.5719930999912,,,,,,,,,,,,,,,,,,,,,,,530.5558423000039,530.5719930999912,531.0556459000218,,,,,,,,,,,,,,531.076354800025,,,,,,,,,,,,,531.0739294000086,531.076354800025,531.076354800025,531.076354800025,,,,534.0724182000267,j,1.1650002999813296,0.20698290003929287,534.0724858000176,534.0724990000017,None,,,,,,,,,,,,,,00021,001,2026-01-20_15h54.11.031,MST_task,2024.2.0,59.89591287099594,2026-01-20 16h46.51.439289 +0530,
,Scenes\090a.jpg,107,0,108,,,,,,,j,2.0869147999910638,0.15264260000549257,None,,,,,,108,0,107,534.0886476000305,,,,,,,,,,,,,,,,,,,,,,,534.0725795000326,534.0886476000305,534.5722640000167,,,,,,,,,,,,,,534.5935141000082,,,,,,,,,,,,,534.5911295000114,534.5935141000082,534.5935141000082,534.5935141000082,,,,537.5886445000069,j,2.0869147999910638,0.15264260000549257,537.5887009000289,537.5887126000016,None,,,,,,,,,,,,,,00021,001,2026-01-20_15h54.11.031,MST_task,2024.2.0,59.89591287099594,2026-01-20 16h46.51.439289 +0530,
,Scenes\137a.jpg,108,0,109,,,,,,,j,1.0553073000046425,0.07104289997369051,None,,,,,,109,0,108,537.6052988000447,,,,,,,,,,,,,,,,,,,,,,,537.5887998000253,537.6052988000447,538.088828100008,,,,,,,,,,,,,,538.1059001000249,,,,,,,,,,,,,538.1027060000342,538.1059001000249,538.1059001000249,538.1059001000249,,,,541.0888109999942,j,1.0553073000046425,0.07104289997369051,541.0888733000029,541.0888858000399,None,,,,,,,,,,,,,,00021,001,2026-01-20_15h54.11.031,MST_task,2024.2.0,59.89591287099594,2026-01-20 16h46.51.439289 +0530,
,Scenes\019a.jpg,109,0,110,,,,,,,j,2.136729700025171,0.10399879998294637,None,,,,,,110,0,109,541.1053947000182,,,,,,,,,,,,,,,,,,,,,,,541.0889822000172,541.1053947000182,541.5889338999987,,,,,,,,,,,,,,541.6075520000304,,,,,,,,,,,,,541.6052048000274,541.6075520000304,541.6075520000304,541.6075520000304,,,,544.6057223000098,j,2.136729700025171,0.10399879998294637,544.6057905000052,544.605803500046,None,,,,,,,,,,,,,,00021,001,2026-01-20_15h54.11.031,MST_task,2024.2.0,59.89591287099594,2026-01-20 16h46.51.439289 +0530,
,Scenes\111a.jpg,110,0,111,,,,,,,j,1.5419678000034764,0.18452309997519478,None,,,,,,111,0,110,544.6220228000311,,,,,,,,,,,,,,,,,,,,,,,544.6058808999951,544.6220228000311,545.1056587999919,,,,,,,,,,,,,,545.1225549000083,,,,,,,,,,,,,545.1193145000143,545.1225549000083,545.1225549000083,545.1225549000083,548.121992600034,548.121992600034,548.121992600034,548.106044300017,j,1.5419678000034764,0.18452309997519478,548.1061065000249,548.1061180999968,None,,,,,,,,,,,,,,00021,001,2026-01-20_15h54.11.031,MST_task,2024.2.0,59.89591287099594,2026-01-20 16h46.51.439289 +0530,
,Scenes\086a.jpg,111,0,112,,,,,,,j,2.190444000007119,0.10398830001940951,None,,,,,,112,0,111,548.121992600034,,,,,,,,,,,,,,,,,,,,,,,548.106184400036,548.121992600034,548.6061170000467,,,,,,,,,,,,,,548.6340172000346,,,,,,,,,,,,,548.6307034000056,548.6340172000346,548.6340172000346,548.6340172000346,,,,551.6222136000288,j,2.190444000007119,0.10398830001940951,551.6222666000249,551.6222782999976,None,,,,,,,,,,,,,,00021,001,2026-01-20_15h54.11.031,MST_task,2024.2.0,59.89591287099594,2026-01-20 16h46.51.439289 +0530,
,Objects\014a.jpg,112,0,113,,,,,,,f,0.6770672000129707,0.22405869996873662,None,,,,,,113,0,112,551.6385938000167,,,,,,,,,,,,,,,,,,,,,,,551.6223448000383,551.6385938000167,552.122298500035,,,,,,,,,,,,,,552.1392097999924,,,,,,,,,,,,,552.1324003000045,552.1392097999924,552.1392097999924,552.1392097999924,555.1386282000458,555.1386282000458,555.1386282000458,555.1226158000063,f,0.6770672000129707,0.22405869996873662,555.122675999999,555.1226879000315,None,,,,,,,,,,,,,,00021,001,2026-01-20_15h54.11.031,MST_task,2024.2.0,59.89591287099594,2026-01-20 16h46.51.439289 +0530,
,Objects\006a.jpg,113,0,114,,,,,,,None,,,j,0.3779807999962941,None,,,,114,0,113,555.1386282000458,,,,,,,,,,,,,,,,,,,,,,,555.1227791000274,555.1386282000458,555.622298500035,,,,,,,,,,,,,,555.6389096000348,,,,,,,,,,,,,555.6331417000038,555.6389096000348,555.6389096000348,555.6389096000348,558.6385166000109,558.6385166000109,558.6385166000109,558.6225863000145,None,,,558.6226347000338,559.0224466000218,j,558.6385166000109,558.6385166000109,0.3779807999962941,None,,,,,,,,,,00021,001,2026-01-20_15h54.11.031,MST_task,2024.2.0,59.89591287099594,2026-01-20 16h46.51.439289 +0530,
,Objects\179a.jpg,114,0,115,,,,,,,None,,,f,1.0146095000091009,None,,,,115,0,114,559.0385003000265,,,,,,,,,,,,,,,,,,,,,,,559.0225404000375,559.0385003000265,559.5223849000176,,,,,,,,,,,,,,559.5387863999931,,,,,,,,,,,,,559.5323370000115,559.5387863999931,559.5387863999931,559.5387863999931,562.5385583000025,562.5385583000025,562.5385583000025,562.5225525000133,None,,,562.5226096000406,563.5557138000149,f,562.5385583000025,562.5385583000025,1.0146095000091009,None,,,,,,,,,,00021,001,2026-01-20_15h54.11.031,MST_task,2024.2.0,59.89591287099594,2026-01-20 16h46.51.439289 +0530,
,Objects\007a.jpg,115,0,116,,,,,,,f,1.6727689999970607,0.20811220002360642,None,,,,,,116,0,115,563.5720090999966,,,,,,,,,,,,,,,,,,,,,,,563.5558293000213,563.5720090999966,564.0555504999938,,,,,,,,,,,,,,564.0721969000297,,,,,,,,,,,,,564.0653576000477,564.0721969000297,564.0721969000297,564.0721969000297,567.0722258000169,567.0722258000169,567.0722258000169,567.0558744000155,f,1.6727689999970607,0.20811220002360642,567.0559276000131,567.0559387000394,None,,,,,,,,,,,,,,00021,001,2026-01-20_15h54.11.031,MST_task,2024.2.0,59.89591287099594,2026-01-20 16h46.51.439289 +0530,
,Objects\037a.jpg,116,0,117,,,,,,,None,,,f,None,None,,,,117,0,116,567.0722258000169,,,,,,,,,,,,,,,,,,,,,,,567.0560041000135,567.0722258000169,567.5557090000366,,,,,,,,,,,,,,567.5723768000025,,,,,,,,,,,,,567.5657901000232,567.5723768000025,567.5723768000025,567.5723768000025,570.5720191000146,570.5720191000146,570.5720191000146,570.5560803000117,None,,,570.5561359000276,570.7890644000145,f,570.5720191000146,570.5720191000146,None,None,,,,,,,,,,00021,001,2026-01-20_15h54.11.031,MST_task,2024.2.0,59.89591287099594,2026-01-20 16h46.51.439289 +0530,
,Objects\155a.jpg,117,0,118,,,,,,,j,1.9753490000148304,0.12027269997633994,None,,,,,,118,0,117,570.8053446999984,,,,,,,,,,,,,,,,,,,,,,,570.7891969000339,570.8053446999984,571.2890220000409,,,,,,,,,,,,,,571.3057162000332,,,,,,,,,,,,,571.2990695000044,571.3057162000332,571.3057162000332,571.3057162000332,574.305406200001,574.305406200001,574.305406200001,574.2893029000261,j,1.9753490000148304,0.12027269997633994,574.2893553000176,574.2893670999911,None,,,,,,,,,,,,,,00021,001,2026-01-20_15h54.11.031,MST_task,2024.2.0,59.89591287099594,2026-01-20 16h46.51.439289 +0530,
,Objects\149a.jpg,118,0,119,,,,,,,f,2.002744099998381,0.13709500001277775,None,,,,,,119,0,118,574.305406200001,,,,,,,,,,,,,,,,,,,,,,,574.289450100041,574.305406200001,574.7890046000248,,,,,,,,,,,,,,574.8055522000068,,,,,,,,,,,,,574.798680900014,574.8055522000068,574.8055522000068,574.8055522000068,577.8054704000242,577.8054704000242,577.8054704000242,577.7891736000311,f,2.002744099998381,0.13709500001277775,577.7892274000333,577.7892384000006,None,,,,,,,,,,,,,,00021,001,2026-01-20_15h54.11.031,MST_task,2024.2.0,59.89591287099594,2026-01-20 16h46.51.439289 +0530,
,Scenes\087a.jpg,119,0,120,,,,,,,j,2.2466619000188075,0.09708929999032989,None,,,,,,120,0,119,577.8054704000242,,,,,,,,,,,,,,,,,,,,,,,577.7893226000015,577.8054704000242,578.2888580000144,,,,,,,,,,,,,,578.3058078000322,,,,,,,,,,,,,578.3012474999996,578.3058078000322,578.3058078000322,578.3058078000322,581.3053517999942,581.3053517999942,581.3053517999942,581.289187300019,j,2.2466619000188075,0.09708929999032989,581.2892488000216,581.2892603999935,None,,,,,,,,,,,,,,00021,001,2026-01-20_15h54.11.031,MST_task,2024.2.0,59.89591287099594,2026-01-20 16h46.51.439289 +0530,
,Scenes\049a.jpg,120,0,121,,,,,,,j,1.058023499965202,0.12081300001591444,None,,,,,,121,0,120,581.3053517999942,,,,,,,,,,,,,,,,,,,,,,,581.2893298999988,581.3053517999942,581.7889465999906,,,,,,,,,,,,,,581.8061887000222,,,,,,,,,,,,,581.803706900042,581.8061887000222,581.8061887000222,581.8061887000222,584.805554200022,584.805554200022,584.805554200022,584.7893843000056,j,1.058023499965202,0.12081300001591444,584.789439300017,584.7894507000456,None,,,,,,,,,,,,,,00021,001,2026-01-20_15h54.11.031,MST_task,2024.2.0,59.89591287099594,2026-01-20 16h46.51.439289 +0530,
,Scenes\009a.jpg,121,0,122,,,,,,,f,1.5160789000219665,0.1831145000178367,None,,,,,,122,0,121,584.805554200022,,,,,,,,,,,,,,,,,,,,,,,584.7895404000301,584.805554200022,585.2890213000355,,,,,,,,,,,,,,585.309042500041,,,,,,,,,,,,,585.3065687000053,585.309042500041,585.309042500041,585.309042500041,,,,588.3056296000141,f,1.5160789000219665,0.1831145000178367,588.3056832000148,588.3056952999905,None,,,,,,,,,,,,,,00021,001,2026-01-20_15h54.11.031,MST_task,2024.2.0,59.89591287099594,2026-01-20 16h46.51.439289 +0530,
,Scenes\008a.jpg,122,0,123,,,,,,,f,2.298093900026288,0.16803040000377223,None,,,,,,123,0,122,588.3222899000393,,,,,,,,,,,,,,,,,,,,,,,588.3057608000236,588.3222899000393,588.8056482000393,,,,,,,,,,,,,,588.8226731000468,,,,,,,,,,,,,588.820047700021,588.8226731000468,588.8226731000468,588.8226731000468,591.8220230000443,591.8220230000443,591.8220230000443,591.8060261000064,f,2.298093900026288,0.16803040000377223,591.8060884000151,591.8061002000468,None,,,,,,,,,,,,,,00021,001,2026-01-20_15h54.11.031,MST_task,2024.2.0,59.89591287099594,2026-01-20 16h46.51.439289 +0530,
,Scenes\153a.jpg,123,0,124,,,,,,,None,,,j,1.1423859000205994,None,,,,124,0,123,591.8220230000443,,,,,,,,,,,,,,,,,,,,,,,591.8061677000369,591.8220230000443,592.305744000012,,,,,,,,,,,,,,592.322624900029,,,,,,,,,,,,,592.3184132000315,592.322624900029,592.322624900029,592.322624900029,595.3221380000468,595.3221380000468,595.3221380000468,595.3059089000453,None,,,595.3059587000171,596.4728301000432,j,595.3221380000468,595.3221380000468,1.1423859000205994,None,,,,,,,,,,00021,001,2026-01-20_15h54.11.031,MST_task,2024.2.0,59.89591287099594,2026-01-20 16h46.51.439289 +0530,
,Scenes\014a.jpg,124,0,125,,,,,,,f,1.3554634000174701,0.1441732000093907,None,,,,,,125,0,124,596.4886256000027,,,,,,,,,,,,,,,,,,,,,,,596.4729679000448,596.4886256000027,596.97231620003,,,,,,,,,,,,,,596.9891389000113,,,,,,,,,,,,,596.984941200004,596.9891389000113,596.9891389000113,596.9891389000113,599.9885853000451,599.9885853000451,599.9885853000451,599.9727096999995,f,1.3554634000174701,0.1441732000093907,599.9727697999915,599.9727818000247,None,,,,,,,,,,,,,,00021,001,2026-01-20_15h54.11.031,MST_task,2024.2.0,59.89591287099594,2026-01-20 16h46.51.439289 +0530,
,Scenes\053a.jpg,125,0,126,,,,,,,None,,,j,0.4561925000161864,None,,,,126,0,125,599.9885853000451,,,,,,,,,,,,,,,,,,,,,,,599.9728485000087,599.9885853000451,600.4724165000371,,,,,,,,,,,,,,600.4890293999924,,,,,,,,,,,,,600.4823682000278,600.4890293999924,600.4890293999924,600.4890293999924,603.488538500038,603.488538500038,603.488538500038,603.4725710999919,None,,,603.472630400036,603.9558754000464,j,603.488538500038,603.488538500038,0.4561925000161864,None,,,,,,,,,,00021,001,2026-01-20_15h54.11.031,MST_task,2024.2.0,59.89591287099594,2026-01-20 16h46.51.439289 +0530,
,Objects\021a.jpg,126,0,127,,,,,,,None,,,j,2.0561045999638736,None,,,,127,0,126,603.9719433000428,,,,,,,,,,,,,,,,,,,,,,,603.9559927000082,603.9719433000428,604.4555470999912,,,,,,,,,,,,,,604.472424400039,,,,,,,,,,,,,604.4659892999916,604.472424400039,604.472424400039,604.472424400039,607.4721805000445,607.4721805000445,607.4721805000445,607.4561337000341,None,,,607.4561908000032,609.5390174000058,j,607.4721805000445,607.4721805000445,2.0561045999638736,None,,,,,,,,,,00021,001,2026-01-20_15h54.11.031,MST_task,2024.2.0,59.89591287099594,2026-01-20 16h46.51.439289 +0530,
,Objects\123a.jpg,127,0,128,,,,,,,None,,,j,2.8178304999601096,None,,,,128,0,127,609.5553481000243,,,,,,,,,,,,,,,,,,,,,,,609.5391016000067,609.5553481000243,610.0388074000366,,,,,,,,,,,,,,610.0557038999978,,,,,,,,,,,,,610.051140800002,610.0557038999978,610.0557038999978,610.0557038999978,613.055372700037,613.055372700037,613.055372700037,613.0391798000201,None,,,613.0392368000466,615.8889882999938,j,613.055372700037,613.055372700037,2.8178304999601096,None,,,,,,,,,,00021,001,2026-01-20_15h54.11.031,MST_task,2024.2.0,59.89591287099594,2026-01-20 16h46.51.439289 +0530,
,Objects\001a.jpg,128,0,129,,,,,,,None,,,f,0.8030552000273019,None,,,,129,0,128,615.9054210000322,,,,,,,,,,,,,,,,,,,,,,,615.8890807999996,615.9054210000322,616.3889893000014,,,,,,,,,,,,,,616.4056970000383,,,,,,,,,,,,,616.399483300047,616.4056970000383,616.4056970000383,616.4056970000383,619.4053674000315,619.4053674000315,619.4053674000315,619.3891768000321,None,,,619.3892281000153,620.2224313000333,f,619.4053674000315,619.4053674000315,0.8030552000273019,None,,,,,,,,,,00021,001,2026-01-20_15h54.11.031,MST_task,2024.2.0,59.89591287099594,2026-01-20 16h46.51.439289 +0530,
,Objects\103a.jpg,129,0,130,,,,,,,f,1.4379300000146031,0.07995759998448193,None,,,,,,130,0,129,620.2385482999962,,,,,,,,,,,,,,,,,,,,,,,620.2225184999988,620.2385482999962,620.7223792000441,,,,,,,,,,,,,,620.7388860000065,,,,,,,,,,,,,620.7324166000471,620.7388860000065,620.7388860000065,620.7388860000065,623.7386582000181,623.7386582000181,623.7386582000181,623.7224992000265,f,1.4379300000146031,0.07995759998448193,623.7225555000477,623.722567400022,None,,,,,,,,,,,,,,00021,001,2026-01-20_15h54.11.031,MST_task,2024.2.0,59.89591287099594,2026-01-20 16h46.51.439289 +0530,
,Objects\090a.jpg,130,0,131,,,,,,,j,1.346292500034906,0.08715589996427298,None,,,,,,131,0,130,623.7386582000181,,,,,,,,,,,,,,,,,,,,,,,623.7226553999935,623.7386582000181,624.2222249000333,,,,,,,,,,,,,,624.2389418000239,,,,,,,,,,,,,624.2324813000159,624.2389418000239,624.2389418000239,624.2389418000239,627.2386216000305,627.2386216000305,627.2386216000305,627.2225133000175,j,1.346292500034906,0.08715589996427298,627.2225665000151,627.2225778000429,None,,,,,,,,,,,,,,00021,001,2026-01-20_15h54.11.031,MST_task,2024.2.0,59.89591287099594,2026-01-20 16h46.51.439289 +0530,
,Objects\180a.jpg,131,0,132,,,,,,,None,,,f,1.9668288000393659,None,,,,132,0,131,627.2386216000305,,,,,,,,,,,,,,,,,,,,,,,627.222642800014,627.2386216000305,627.7225377000286,,,,,,,,,,,,,,627.7388878000202,,,,,,,,,,,,,627.7333991000196,627.7388878000202,627.7388878000202,627.7388878000202,630.7384648000007,630.7384648000007,630.7384648000007,630.7226016999921,None,,,630.7226662000176,632.7058723000227,f,630.7384648000007,630.7384648000007,1.9668288000393659,None,,,,,,,,,,00021,001,2026-01-20_15h54.11.031,MST_task,2024.2.0,59.89591287099594,2026-01-20 16h46.51.439289 +0530,
,Objects\063a.jpg,132,0,133,,,,,,,None,,,f,0.6271124000195414,None,,,,133,0,132,632.7220250000246,,,,,,,,,,,,,,,,,,,,,,,632.7059584000381,632.7220250000246,633.2056573000154,,,,,,,,,,,,,,633.2222731999937,,,,,,,,,,,,,633.215727700037,633.2222731999937,633.2222731999937,633.2222731999937,636.2220383000094,636.2220383000094,636.2220383000094,636.2058996999986,None,,,636.2059505000361,636.8558274999959,f,636.2220383000094,636.2220383000094,0.6271124000195414,None,,,,,,,,,,00021,001,2026-01-20_15h54.11.031,MST_task,2024.2.0,59.89591287099594,2026-01-20 16h46.51.439289 +0530,
,Scenes\012a.jpg,133,0,134,,,,,,,j,1.7206984999938868,0.10394280002219602,None,,,,,,134,0,133,636.8720671000192,,,,,,,,,,,,,,,,,,,,,,,636.855950600002,636.8720671000192,637.3556458000094,,,,,,,,,,,,,,637.376481400046,,,,,,,,,,,,,637.3740766000119,637.376481400046,637.376481400046,637.376481400046,,,,640.3722600000328,j,1.7206984999938868,0.10394280002219602,640.3723122000229,640.3723245000001,None,,,,,,,,,,,,,,00021,001,2026-01-20_15h54.11.031,MST_task,2024.2.0,59.89591287099594,2026-01-20 16h46.51.439289 +0530,
,Scenes\163a.jpg,134,0,135,,,,,,,None,,,j,0.5037819999852218,None,,,,135,0,134,640.3885334000224,,,,,,,,,,,,,,,,,,,,,,,640.372411600023,640.3885334000224,640.8724711000104,,,,,,,,,,,,,,640.8895966000273,,,,,,,,,,,,,640.8871709000086,640.8895966000273,640.8895966000273,640.8895966000273,,,,643.8724594000378,None,,,643.872509000008,644.4058744999929,j,643.8885880000307,643.8885880000307,0.5037819999852218,None,,,,,,,,,,00021,001,2026-01-20_15h54.11.031,MST_task,2024.2.0,59.89591287099594,2026-01-20 16h46.51.439289 +0530,
,Scenes\180a.jpg,135,0,136,,,,,,,j,1.095388300018385,0.08720089995767921,None,,,,,,136,0,135,644.4220743000042,,,,,,,,,,,,,,,,,,,,,,,644.4059987000073,644.4220743000042,644.9054972000304,,,,,,,,,,,,,,644.9222941999906,,,,,,,,,,,,,644.9194822999998,644.9222941999906,644.9222941999906,644.9222941999906,647.9220074000186,647.9220074000186,647.9220074000186,647.9059407000314,j,1.095388300018385,0.08720089995767921,647.9059963000473,647.9060073000146,None,,,,,,,,,,,,,,00021,001,2026-01-20_15h54.11.031,MST_task,2024.2.0,59.89591287099594,2026-01-20 16h46.51.439289 +0530,
,Scenes\062a.jpg,136,0,137,,,,,,,j,1.9648042999906465,0.07301560003543273,None,,,,,,137,0,136,647.9220074000186,,,,,,,,,,,,,,,,,,,,,,,647.9060758000123,647.9220074000186,648.4058901999961,,,,,,,,,,,,,,648.427710900025,,,,,,,,,,,,,648.425284099998,648.427710900025,648.427710900025,648.427710900025,,,,651.4222809000057,j,1.9648042999906465,0.07301560003543273,651.4223334999988,651.4223447000259,None,,,,,,,,,,,,,,00021,001,2026-01-20_15h54.11.031,MST_task,2024.2.0,59.89591287099594,2026-01-20 16h46.51.439289 +0530,
,Scenes\141a.jpg,137,0,138,,,,,,,j,1.7091236999840476,0.07999710005242378,None,,,,,,138,0,137,651.4385219000396,,,,,,,,,,,,,,,,,,,,,,,651.422431700048,651.4385219000396,651.9222293000203,,,,,,,,,,,,,,651.939259900013,,,,,,,,,,,,,651.9346573000075,651.939259900013,651.939259900013,651.939259900013,654.9386022000108,654.9386022000108,654.9386022000108,654.92287270003,j,1.7091236999840476,0.07999710005242378,654.9229418000323,654.9229537000065,None,,,,,,,,,,,,,,00021,001,2026-01-20_15h54.11.031,MST_task,2024.2.0,59.89591287099594,2026-01-20 16h46.51.439289 +0530,
,Scenes\051a.jpg,138,0,139,,,,,,,j,0.8977439000154845,0.08900610002456233,None,,,,,,139,0,138,654.9386022000108,,,,,,,,,,,,,,,,,,,,,,,654.9230453000055,654.9386022000108,655.4223593000206,,,,,,,,,,,,,,655.4391041999916,,,,,,,,,,,,,655.435454600025,655.4391041999916,655.4391041999916,655.4391041999916,658.4386320000049,658.4386320000049,658.4386320000049,658.4226453000447,j,0.8977439000154845,0.08900610002456233,658.4227000999963,658.4227119000279,None,,,,,,,,,,,,,,00021,001,2026-01-20_15h54.11.031,MST_task,2024.2.0,59.89591287099594,2026-01-20 16h46.51.439289 +0530,
,Scenes\109a.jpg,139,0,140,,,,,,,j,1.6275164999533445,0.09602390002692118,None,,,,,,140,0,139,658.4386320000049,,,,,,,,,,,,,,,,,,,,,,,658.4228007000056,658.4386320000049,658.9224476999952,,,,,,,,,,,,,,658.9412472000113,,,,,,,,,,,,,658.9389699000167,658.9412472000113,658.9412472000113,658.9412472000113,,,,661.9389894999913,j,1.6275164999533445,0.09602390002692118,661.9390476000262,661.9390870000352,None,,,,,,,,,,,,,,00021,001,2026-01-20_15h54.11.031,MST_task,2024.2.0,59.89591287099594,2026-01-20 16h46.51.439289 +0530,
,Objects\183a.jpg,140,0,141,,,,,,,f,1.3526027000043541,0.13625929999398068,None,,,,,,141,0,140,661.9554759000312,,,,,,,,,,,,,,,,,,,,,,,661.9391673000064,661.9554759000312,662.4388866000227,,,,,,,,,,,,,,662.4558820000384,,,,,,,,,,,,,662.4485960000311,662.4558820000384,662.4558820000384,662.4558820000384,665.4554456000333,665.4554456000333,665.4554456000333,665.4391660999972,f,1.3526027000043541,0.13625929999398068,665.4392296000151,665.439241300046,None,,,,,,,,,,,,,,00021,001,2026-01-20_15h54.11.031,MST_task,2024.2.0,59.89591287099594,2026-01-20 16h46.51.439289 +0530,
,Objects\163a.jpg,141,0,142,,,,,,,j,1.652846299984958,0.1686286999611184,None,,,,,,142,0,141,665.4554456000333,,,,,,,,,,,,,,,,,,,,,,,665.4393355000066,665.4554456000333,665.9388891000417,,,,,,,,,,,,,,665.9555920000421,,,,,,,,,,,,,665.9485373999923,665.9555920000421,665.9555920000421,665.9555920000421,668.9555386000429,668.9555386000429,668.9555386000429,668.9395735000144,j,1.652846299984958,0.1686286999611184,668.9396434000228,668.9396553999977,None,,,,,,,,,,,,,,00021,001,2026-01-20_15h54.11.031,MST_task,2024.2.0,59.89591287099594,2026-01-20 16h46.51.439289 +0530,
,Objects\098a.jpg,142,0,143,,,,,,,f,1.577253199997358,0.16804319998482242,None,,,,,,143,0,142,668.9555386000429,,,,,,,,,,,,,,,,,,,,,,,668.9397276000236,668.9555386000429,669.4390236000181,,,,,,,,,,,,,,669.4556978000328,,,,,,,,,,,,,669.4509111000225,669.4556978000328,669.4556978000328,669.4556978000328,672.4553862000466,672.4553862000466,672.4553862000466,672.4390036000405,f,1.577253199997358,0.16804319998482242,672.4390552000259,672.4390661999932,None,,,,,,,,,,,,,,00021,001,2026-01-20_15h54.11.031,MST_task,2024.2.0,59.89591287099594,2026-01-20 16h46.51.439289 +0530,
,Objects\125a.jpg,143,0,144,,,,,,,j,2.141757300007157,0.1919293999671936,None,,,,,,144,0,143,672.4553862000466,,,,,,,,,,,,,,,,,,,,,,,672.4391509999987,672.4553862000466,672.938799399999,,,,,,,,,,,,,,672.9555589000229,,,,,,,,,,,,,672.9485885000322,672.9555589000229,672.9555589000229,672.9555589000229,675.9554294000263,675.9554294000263,675.9554294000263,675.9390501000453,j,2.141757300007157,0.1919293999671936,675.9391066000098,675.9391174000339,None,,,,,,,,,,,,,,00021,001,2026-01-20_15h54.11.031,MST_task,2024.2.0,59.89591287099594,2026-01-20 16h46.51.439289 +0530,
,Objects\172a.jpg,144,0,145,,,,,,,j,1.3457074000034481,0.09595650003757328,None,,,,,,145,0,144,675.9554294000263,,,,,,,,,,,,,,,,,,,,,,,675.9392059000093,675.9554294000263,676.4388670999906,,,,,,,,,,,,,,676.4556427000207,,,,,,,,,,,,,676.4481605000328,676.4556427000207,676.4556427000207,676.4556427000207,679.4555210000253,679.4555210000253,679.4555210000253,679.43927480001,j,1.3457074000034481,0.09595650003757328,679.4393354000058,679.4393467000336,None,,,,,,,,,,,,,,00021,001,2026-01-20_15h54.11.031,MST_task,2024.2.0,59.89591287099594,2026-01-20 16h46.51.439289 +0530,
,Objects\015a.jpg,145,0,146,,,,,,,f,2.677177900040988,0.1601700999890454,None,,,,,,146,0,145,679.4555210000253,,,,,,,,,,,,,,,,,,,,,,,679.4394378000288,679.4555210000253,679.9388851000112,,,,,,,,,,,,,,679.9556260000099,,,,,,,,,,,,,679.9491879999987,679.9556260000099,679.9556260000099,679.9556260000099,682.9553699000389,682.9553699000389,682.9553699000389,682.9391654999927,f,2.677177900040988,0.1601700999890454,682.9392176000401,682.9392293000128,None,,,,,,,,,,,,,,00021,001,2026-01-20_15h54.11.031,MST_task,2024.2.0,59.89591287099594,2026-01-20 16h46.51.439289 +0530,
,Objects\016a.jpg,146,0,147,,,,,,,f,2.1534538000123575,0.1675507000181824,None,,,,,,147,0,146,682.9553699000389,,,,,,,,,,,,,,,,,,,,,,,682.9393129000091,682.9553699000389,683.4391557000345,,,,,,,,,,,,,,683.4556184000103,,,,,,,,,,,,,683.447152000037,683.4556184000103,683.4556184000103,683.4556184000103,686.4553552000434,686.4553552000434,686.4553552000434,686.4392053000047,f,2.1534538000123575,0.1675507000181824,686.4392633000389,686.4392747000093,None,,,,,,,,,,,,,,00021,001,2026-01-20_15h54.11.031,MST_task,2024.2.0,59.89591287099594,2026-01-20 16h46.51.439289 +0530,
,Scenes\071a.jpg,147,0,148,,,,,,,None,,,j,0.46142850001342595,None,,,,148,0,147,686.4553552000434,,,,,,,,,,,,,,,,,,,,,,,686.439366000006,686.4553552000434,686.9388615000062,,,,,,,,,,,,,,686.9570385999978,,,,,,,,,,,,,686.9548116000369,686.9570385999978,686.9570385999978,686.9570385999978,,,,689.9557616999955,None,,,689.9558351000305,690.4391835000133,j,689.9721789000323,689.9721789000323,0.46142850001342595,None,,,,,,,,,,00021,001,2026-01-20_15h54.11.031,MST_task,2024.2.0,59.89591287099594,2026-01-20 16h46.51.439289 +0530,
,Scenes\055a.jpg,148,0,149,,,,,,,None,,,j,0.38164630002574995,None,,,,149,0,148,690.4554854000453,,,,,,,,,,,,,,,,,,,,,,,690.4392699000309,690.4554854000453,690.9389720000327,,,,,,,,,,,,,,690.9566255999962,,,,,,,,,,,,,690.9543021999998,690.9566255999962,690.9566255999962,690.9566255999962,693.9555665000225,693.9555665000225,693.9555665000225,693.9396992000402,None,,,693.9397590000299,694.3392632000032,j,693.9555665000225,693.9555665000225,0.38164630002574995,None,,,,,,,,,,00021,001,2026-01-20_15h54.11.031,MST_task,2024.2.0,59.89591287099594,2026-01-20 16h46.51.439289 +0530,
,Scenes\007a.jpg,149,0,150,,,,,,,f,1.2080183000070974,0.19281859998591244,None,,,,,,150,0,149,694.3554277000367,,,,,,,,,,,,,,,,,,,,,,,694.3393509000307,694.3554277000367,694.8389414999983,,,,,,,,,,,,,,694.8562416000059,,,,,,,,,,,,,694.8526014999952,694.8562416000059,694.8562416000059,694.8562416000059,697.8554767000023,697.8554767000023,697.8554767000023,697.8393957000226,f,1.2080183000070974,0.19281859998591244,697.8394489000202,697.8394603999914,None,,,,,,,,,,,,,,00021,001,2026-01-20_15h54.11.031,MST_task,2024.2.0,59.89591287099594,2026-01-20 16h46.51.439289 +0530,
,Scenes\023a.jpg,150,0,151,,,,,,,None,,,f,1.2681493999552913,None,,,,151,0,150,697.8554767000023,,,,,,,,,,,,,,,,,,,,,,,697.8395262000267,697.8554767000023,698.3389779000427,,,,,,,,,,,,,,698.3607684000162,,,,,,,,,,,,,698.358231900027,698.3607684000162,698.3607684000162,698.3607684000162,,,,701.3557142000063,None,,,701.3557618000195,702.6558452000027,f,701.3721877000062,701.3721877000062,1.2681493999552913,None,,,,,,,,,,00021,001,2026-01-20_15h54.11.031,MST_task,2024.2.0,59.89591287099594,2026-01-20 16h46.51.439289 +0530,
,Scenes\167a.jpg,151,0,152,,,,,,,f,1.3757556999917142,0.20132210000883788,None,,,,,,152,0,151,702.6721543000313,,,,,,,,,,,,,,,,,,,,,,,702.6559631000273,702.6721543000313,703.155727000034,,,,,,,,,,,,,,703.1765579000348,,,,,,,,,,,,,703.1740131000406,703.1765579000348,703.1765579000348,703.1765579000348,,,,706.1724761000369,f,1.3757556999917142,0.20132210000883788,706.1725285000284,706.1725405000034,None,,,,,,,,,,,,,,00021,001,2026-01-20_15h54.11.031,MST_task,2024.2.0,59.89591287099594,2026-01-20 16h46.51.439289 +0530,
,Scenes\159a.jpg,152,0,153,,,,,,,j,1.362520799972117,0.08002759999362752,None,,,,,,153,0,152,706.1887363000424,,,,,,,,,,,,,,,,,,,,,,,706.1726283000316,706.1887363000424,706.6725789000047,,,,,,,,,,,,,,706.6943931000424,,,,,,,,,,,,,706.6919842000352,706.6943931000424,706.6943931000424,706.6943931000424,,,,709.6890250000288,j,1.362520799972117,0.08002759999362752,709.6890872000367,709.6890990000102,None,,,,,,,,,,,,,,00021,001,2026-01-20_15h54.11.031,MST_task,2024.2.0,59.89591287099594,2026-01-20 16h46.51.439289 +0530,
,Scenes\096a.jpg,153,0,154,,,,,,,j,1.0742596999625675,0.11200550000648946,None,,,,,,154,0,153,709.7053998000338,,,,,,,,,,,,,,,,,,,,,,,709.6891892999993,709.7053998000338,710.1894372000243,,,,,,,,,,,,,,710.2060979999951,,,,,,,,,,,,,710.2020301000448,710.2060979999951,710.2060979999951,710.2060979999951,713.2055043000146,713.2055043000146,713.2055043000146,713.1893165000365,j,1.0742596999625675,0.11200550000648946,713.1893699000357,713.189380900003,None,,,,,,,,,,,,,,00021,001,2026-01-20_15h54.11.031,MST_task,2024.2.0,59.89591287099594,2026-01-20 16h46.51.439289 +0530,
,Objects\026a.jpg,154,0,155,,,,,,,None,,,j,2.039398000051733,None,,,,155,0,154,713.2055043000146,,,,,,,,,,,,,,,,,,,,,,,713.1894651000039,713.2055043000146,713.689039000019,,,,,,,,,,,,,,713.7059246000135,,,,,,,,,,,,,713.6994865000015,713.7059246000135,713.7059246000135,713.7059246000135,716.7054109000019,716.7054109000019,716.7054109000019,716.689417799993,None,,,716.6894658000092,718.7559641000116,j,716.7054109000019,716.7054109000019,2.039398000051733,None,,,,,,,,,,00021,001,2026-01-20_15h54.11.031,MST_task,2024.2.0,59.89591287099594,2026-01-20 16h46.51.439289 +0530,
,Objects\147a.jpg,155,0,156,,,,,,,f,1.407963000005111,0.168833400006406,None,,,,,,156,0,155,718.7720732000307,,,,,,,,,,,,,,,,,,,,,,,718.7560831000446,718.7720732000307,719.2556845000363,,,,,,,,,,,,,,719.2723246000241,,,,,,,,,,,,,719.2660753999953,719.2723246000241,719.2723246000241,719.2723246000241,722.2721909999964,722.2721909999964,722.2721909999964,722.256077900005,f,1.407963000005111,0.168833400006406,722.2561326000141,722.2561441000435,None,,,,,,,,,,,,,,00021,001,2026-01-20_15h54.11.031,MST_task,2024.2.0,59.89591287099594,2026-01-20 16h46.51.439289 +0530,
,Objects\165a.jpg,156,0,157,,,,,,,None,,,f,1.1642348999739625,None,,,,157,0,156,722.2721909999964,,,,,,,,,,,,,,,,,,,,,,,722.2562132000457,722.2721909999964,722.7557395999902,,,,,,,,,,,,,,722.7724183000391,,,,,,,,,,,,,722.7651564000407,722.7724183000391,722.7724183000391,722.7724183000391,725.772068899998,725.772068899998,725.772068899998,725.7561227999977,None,,,725.7561758999946,726.9392278000014,f,725.772068899998,725.772068899998,1.1642348999739625,None,,,,,,,,,,00021,001,2026-01-20_15h54.11.031,MST_task,2024.2.0,59.89591287099594,2026-01-20 16h46.51.439289 +0530,
,Objects\143a.jpg,157,0,158,,,,,,,None,,,f,1.0581804999965243,None,,,,158,0,157,726.9554109000019,,,,,,,,,,,,,,,,,,,,,,,726.9393451000215,726.9554109000019,727.4390006000176,,,,,,,,,,,,,,727.4557342000189,,,,,,,,,,,,,727.449476400041,727.4557342000189,727.4557342000189,727.4557342000189,730.45538639999,730.45538639999,730.45538639999,730.4393596000155,None,,,730.4394136000192,731.5227710000472,f,730.45538639999,730.45538639999,1.0581804999965243,None,,,,,,,,,,00021,001,2026-01-20_15h54.11.031,MST_task,2024.2.0,59.89591287099594,2026-01-20 16h46.51.439289 +0530,
,Objects\020a.jpg,158,0,159,,,,,,,f,2.0492189999786206,0.11262880003778264,None,,,,,,159,0,158,731.5386241000379,,,,,,,,,,,,,,,,,,,,,,,731.52286680002,731.5386241000379,732.0224390000221,,,,,,,,,,,,,,732.0390387999942,,,,,,,,,,,,,732.033776300028,732.0390387999942,732.0390387999942,732.0390387999942,735.038566800009,735.038566800009,735.038566800009,735.0226462000282,f,2.0492189999786206,0.11262880003778264,735.0227088000393,735.0227215000195,None,,,,,,,,,,,,,,00021,001,2026-01-20_15h54.11.031,MST_task,2024.2.0,59.89591287099594,2026-01-20 16h46.51.439289 +0530,
,Objects\111a.jpg,159,0,160,,,,,,,f,2.33365970000159,0.08006179996300489,None,,,,,,160,0,159,735.038566800009,,,,,,,,,,,,,,,,,,,,,,,735.0228133000201,735.038566800009,735.52246930002,,,,,,,,,,,,,,735.5390745000332,,,,,,,,,,,,,735.5318944000173,735.5390745000332,735.5390745000332,735.5390745000332,738.5385766000254,738.5385766000254,738.5385766000254,738.5227235000348,f,2.33365970000159,0.08006179996300489,738.522785600042,738.5227973000146,None,,,,,,,,,,,,,,00021,001,2026-01-20_15h54.11.031,MST_task,2024.2.0,59.89591287099594,2026-01-20 16h46.51.439289 +0530,
,Objects\051a.jpg,160,0,161,,,,,,,j,2.1772765000350773,0.08800049999263138,None,,,,,,161,0,160,738.5385766000254,,,,,,,,,,,,,,,,,,,,,,,738.5228931000456,738.5385766000254,739.0224249000312,,,,,,,,,,,,,,739.0389907000354,,,,,,,,,,,,,739.0319802000304,739.0389907000354,739.0389907000354,739.0389907000354,742.0387529000291,742.0387529000291,742.0387529000291,742.0229452000349,j,2.1772765000350773,0.08800049999263138,742.0230173000018,742.0230286000296,None,,,,,,,,,,,,,,00021,001,2026-01-20_15h54.11.031,MST_task,2024.2.0,59.89591287099594,2026-01-20 16h46.51.439289 +0530,
,Scenes\016a.jpg,161,0,162,,,,,,,j,1.0458923000260256,0.10393129999283701,None,,,,,,162,0,161,742.0387529000291,,,,,,,,,,,,,,,,,,,,,,,742.0231020000065,742.0387529000291,742.522414600011,,,,,,,,,,,,,,742.5390747000347,,,,,,,,,,,,,742.5334590999992,742.5390747000347,742.5390747000347,742.5390747000347,745.5387910000281,745.5387910000281,745.5387910000281,745.5227657000069,j,1.0458923000260256,0.10393129999283701,745.5228207000182,745.5228314000415,None,,,,,,,,,,,,,,00021,001,2026-01-20_15h54.11.031,MST_task,2024.2.0,59.89591287099594,2026-01-20 16h46.51.439289 +0530,
