thisN,thisTrialN,thisRepN,key_resp_3.keys,key_resp_3.rt,key_resp_3.duration,trials.thisRepN,trials.thisTrialN,trials.thisN,thisRow.t,notes,intro_page.started,text.started,key_resp.started,intro_page.stopped,key_resp.keys,key_resp.rt,key_resp.duration,instructions.started,text_2.started,key_resp_2.started,instructions.stopped,key_resp_2.keys,key_resp_2.rt,key_resp_2.duration,demo1.started,image_1.started,image_2.started,text_7.started,key_resp_6.started,text_9.started,demo1.stopped,key_resp_6.keys,key_resp_6.rt,key_resp_6.duration,demo2.started,image_5.started,image_6.started,text_11.started,text_12.started,key_resp_8.started,demo2.stopped,key_resp_8.keys,key_resp_8.rt,key_resp_8.duration,demo_conclusion.started,text_13.started,key_resp_9.started,demo_conclusion.stopped,key_resp_9.keys,key_resp_9.rt,key_resp_9.duration,start_test.started,text_6.started,key_resp_5.started,start_test.stopped,key_resp_5.keys,key_resp_5.rt,key_resp_5.duration,ISI.started,text_4.started,ISI.stopped,routine_1.started,image.started,text_3.started,key_resp_3.started,routine_1.stopped,image_path,position_of_stimuli,trials.key_resp_3.keys,trials.key_resp_3.rt,trials.key_resp_3.duration,End_page.started,text_5.started,key_resp_4.started,End_page.stopped,key_resp_4.keys,key_resp_4.rt,key_resp_4.duration,participant,session,date,expName,psychopyVersion,frameRate,expStart,
,,,,,,,,,,,0.007973500061780214,0.02422430005390197,0.02422430005390197,3.74138630006928,space,3.7102107000537217,None,,,,,,,,,,,,,,,,,,,,,,,,,,,,,,,,,,,,,,,,,,,,,,,,,,,,,,,,,,,,,,00029,001,2026-01-21_11h42.53.652,MST_test,2024.2.0,59.80256778920867,2026-01-21 11h43.07.928920 +0530,
,,,,,,,,,,,,,,,,,,3.7414195000892505,3.755453700083308,3.755453700083308,16.199788300087675,space,12.442722199950367,None,,,,,,,,,,,,,,,,,,,,,,,,,,,,,,,,,,,,,,,,,,,,,,,,,,,,,,,00029,001,2026-01-21_11h42.53.652,MST_test,2024.2.0,59.80256778920867,2026-01-21 11h43.07.928920 +0530,
,,,,,,,,,,,,,,,,,,,,,,,,,16.199821500107646,16.215791800059378,16.215791800059378,16.215791800059378,16.215791800059378,16.215791800059378,22.99024180008564,space,6.766160099999979,None,,,,,,,,,,,,,,,,,,,,,,,,,,,,,,,,,,,,,,,,,,,,,00029,001,2026-01-21_11h42.53.652,MST_test,2024.2.0,59.80256778920867,2026-01-21 11h43.07.928920 +0530,
,,,,,,,,,,,,,,,,,,,,,,,,,,,,,,,,,,,22.990270200069062,23.006118700024672,23.006118700024672,23.006118700024672,23.006118700024672,23.006118700024672,38.19326260010712,space,15.17669490003027,None,,,,,,,,,,,,,,,,,,,,,,,,,,,,,,,,,,,00029,001,2026-01-21_11h42.53.652,MST_test,2024.2.0,59.80256778920867,2026-01-21 11h43.07.928920 +0530,
,,,,,,,,,,,,,,,,,,,,,,,,,,,,,,,,,,,,,,,,,,,,,38.193293500109576,38.209487800020725,38.209487800020725,117.9897873000009,space,79.76557269995101,None,,,,,,,,,,,,,,,,,,,,,,,,,,,,00029,001,2026-01-21_11h42.53.652,MST_test,2024.2.0,59.80256778920867,2026-01-21 11h43.07.928920 +0530,
,,,,,,,,,,,,,,,,,,,,,,,,,,,,,,,,,,,,,,,,,,,,,,,,,,,,117.98982410004828,118.00591080007143,118.00591080007143,126.72034800006077,space,8.712254700018093,None,,,,,,,,,,,,,,,,,,,,,00029,001,2026-01-21_11h42.53.652,MST_test,2024.2.0,59.80256778920867,2026-01-21 11h43.07.928920 +0530,
0,0,1,o,6.022815899923444,None,1,0,0,126.73637260007672,,,,,,,,,,,,,,,,,,,,,,,,,,,,,,,,,,,,,,,,,,,,,,,,,,126.72316839999985,126.73637260007672,127.22169740009122,127.23969539999962,127.2549532999983,127.2549532999983,127.2549532999983,133.29331640002783,Scenes\188a.jpg,mid,o,6.022815899923444,None,,,,,,,,00029,001,2026-01-21_11h42.53.652,MST_test,2024.2.0,59.80256778920867,2026-01-21 11h43.07.928920 +0530,
1,0,2,n,2.9206131999380887,None,2,0,1,133.3096688000951,,,,,,,,,,,,,,,,,,,,,,,,,,,,,,,,,,,,,,,,,,,,,,,,,,133.29342080000788,133.3096688000951,133.79458129999693,133.81796660006512,133.82897530007176,133.82897530007176,133.82897530007176,136.75503470003605,Foils\010a.jpg,none,n,2.9206131999380887,None,,,,,,,,00029,001,2026-01-21_11h42.53.652,MST_test,2024.2.0,59.80256778920867,2026-01-21 11h43.07.928920 +0530,
2,0,3,s,5.834225600003265,None,3,0,2,136.77131890004966,,,,,,,,,,,,,,,,,,,,,,,,,,,,,,,,,,,,,,,,,,,,,,,,,,136.75513270008378,136.77131890004966,137.25628329999745,137.27979040006176,137.30732200003695,137.30732200003695,137.30732200003695,143.14418810000643,Scenes\011a.jpg,pre,s,5.834225600003265,None,,,,,,,,00029,001,2026-01-21_11h42.53.652,MST_test,2024.2.0,59.80256778920867,2026-01-21 11h43.07.928920 +0530,
3,0,4,n,3.4458308999892324,None,4,0,3,143.16036330000497,,,,,,,,,,,,,,,,,,,,,,,,,,,,,,,,,,,,,,,,,,,,,,,,,,143.144287000061,143.16036330000497,143.6453395000426,143.67066570010502,143.69617890007794,143.69617890007794,143.69617890007794,147.1582888000412,Scenes\005b.jpg,post,n,3.4458308999892324,None,,,,,,,,00029,001,2026-01-21_11h42.53.652,MST_test,2024.2.0,59.80256778920867,2026-01-21 11h43.07.928920 +0530,
4,0,5,s,1.7599785999627784,None,5,0,4,147.1743032000959,,,,,,,,,,,,,,,,,,,,,,,,,,,,,,,,,,,,,,,,,,,,,,,,,,147.15838470007293,147.1743032000959,147.65969190001488,147.68093800009228,147.69383400003426,147.69383400003426,147.69383400003426,149.4663770000916,Scenes\139b.jpg,pre,s,1.7599785999627784,None,,,,,,,,00029,001,2026-01-21_11h42.53.652,MST_test,2024.2.0,59.80256778920867,2026-01-21 11h43.07.928920 +0530,
5,0,6,n,3.9803429999155924,None,6,0,5,149.4825550999958,,,,,,,,,,,,,,,,,,,,,,,,,,,,,,,,,,,,,,,,,,,,,,,,,,149.4664722000016,149.4825550999958,149.96747100003995,149.99129840009846,150.0016789000947,150.0016789000947,150.0016789000947,153.9988373001106,Objects\011b.jpg,post,n,3.9803429999155924,None,,,,,,,,00029,001,2026-01-21_11h42.53.652,MST_test,2024.2.0,59.80256778920867,2026-01-21 11h43.07.928920 +0530,
6,0,7,o,3.384094399982132,None,7,0,6,154.0149058001116,,,,,,,,,,,,,,,,,,,,,,,,,,,,,,,,,,,,,,,,,,,,,,,,,,153.99894040008076,154.0149058001116,154.5001167000737,154.52346190006938,154.53347990009934,154.53347990009934,154.53347990009934,157.92920360004064,Objects\072b.jpg,pre,o,3.384094399982132,None,,,,,,,,00029,001,2026-01-21_11h42.53.652,MST_test,2024.2.0,59.80256778920867,2026-01-21 11h43.07.928920 +0530,
7,0,8,o,2.77432540000882,None,8,0,7,157.9453555000946,,,,,,,,,,,,,,,,,,,,,,,,,,,,,,,,,,,,,,,,,,,,,,,,,,157.9293041001074,157.9453555000946,158.43054060009308,158.44863160001114,158.46386560006067,158.46386560006067,158.46386560006067,161.24093210010324,Scenes\158a.jpg,post,o,2.77432540000882,None,,,,,,,,00029,001,2026-01-21_11h42.53.652,MST_test,2024.2.0,59.80256778920867,2026-01-21 11h43.07.928920 +0530,
8,0,9,s,1.9664799000602216,None,9,0,8,161.25706190010533,,,,,,,,,,,,,,,,,,,,,,,,,,,,,,,,,,,,,,,,,,,,,,,,,,161.24102650000714,161.25706190010533,161.74203350010794,161.7668247000547,161.7755010999972,161.7755010999972,161.7755010999972,163.74955380009487,Objects\093b.jpg,post,s,1.9664799000602216,None,,,,,,,,00029,001,2026-01-21_11h42.53.652,MST_test,2024.2.0,59.80256778920867,2026-01-21 11h43.07.928920 +0530,
9,0,10,s,2.201232700026594,None,10,0,9,163.76574810000602,,,,,,,,,,,,,,,,,,,,,,,,,,,,,,,,,,,,,,,,,,,,,,,,,,163.74964980001096,163.76574810000602,164.25110210001003,164.26876630005427,164.28495490003843,164.28495490003843,164.28495490003843,166.49251370003913,Foils\scenes3.jpg,none,s,2.201232700026594,None,,,,,,,,00029,001,2026-01-21_11h42.53.652,MST_test,2024.2.0,59.80256778920867,2026-01-21 11h43.07.928920 +0530,
10,0,11,s,1.5847822999348864,None,11,0,10,166.50891810003668,,,,,,,,,,,,,,,,,,,,,,,,,,,,,,,,,,,,,,,,,,,,,,,,,,166.4926121000899,166.50891810003668,166.9937770999968,167.0327509000199,167.06160310003906,167.06160310003906,167.06160310003906,168.65048090007622,Foils\scenes23.jpg,none,s,1.5847822999348864,None,,,,,,,,00029,001,2026-01-21_11h42.53.652,MST_test,2024.2.0,59.80256778920867,2026-01-21 11h43.07.928920 +0530,
11,0,12,o,1.8837818000465631,None,12,0,11,168.66623030009214,,,,,,,,,,,,,,,,,,,,,,,,,,,,,,,,,,,,,,,,,,,,,,,,,,168.6505782000022,168.66623030009214,169.15240540006198,169.18678630003706,169.20231540000532,169.20231540000532,169.20231540000532,171.09297130000778,Scenes\090a.jpg,pre,o,1.8837818000465631,None,,,,,,,,00029,001,2026-01-21_11h42.53.652,MST_test,2024.2.0,59.80256778920867,2026-01-21 11h43.07.928920 +0530,
12,0,13,s,1.3868004000978544,None,13,0,12,171.10869020002428,,,,,,,,,,,,,,,,,,,,,,,,,,,,,,,,,,,,,,,,,,,,,,,,,,171.0930766001111,171.10869020002428,171.59350250009447,171.63193790009245,171.6434190000873,171.6434190000873,171.6434190000873,173.03305680002086,Scenes\070b.jpg,post,s,1.3868004000978544,None,,,,,,,,00029,001,2026-01-21_11h42.53.652,MST_test,2024.2.0,59.80256778920867,2026-01-21 11h43.07.928920 +0530,
13,0,14,s,1.4369853000389412,None,14,0,13,173.04837610002141,,,,,,,,,,,,,,,,,,,,,,,,,,,,,,,,,,,,,,,,,,,,,,,,,,173.03316550003365,173.04837610002141,173.5333330000285,173.57541600009426,173.5845456001116,173.5845456001116,173.5845456001116,175.0225493001053,Scenes\170b.jpg,pre,s,1.4369853000389412,None,,,,,,,,00029,001,2026-01-21_11h42.53.652,MST_test,2024.2.0,59.80256778920867,2026-01-21 11h43.07.928920 +0530,
14,0,15,s,1.4483847999945283,None,15,0,14,175.03865800006315,,,,,,,,,,,,,,,,,,,,,,,,,,,,,,,,,,,,,,,,,,,,,,,,,,175.0226466000313,175.03865800006315,175.52361100004055,175.54938600002788,175.55786360008642,175.55786360008642,175.55786360008642,177.01301590004005,Objects\073b.jpg,post,s,1.4483847999945283,None,,,,,,,,00029,001,2026-01-21_11h42.53.652,MST_test,2024.2.0,59.80256778920867,2026-01-21 11h43.07.928920 +0530,
15,0,16,o,1.602117000031285,None,16,0,15,177.0288503000047,,,,,,,,,,,,,,,,,,,,,,,,,,,,,,,,,,,,,,,,,,,,,,,,,,177.0131125000771,177.0288503000047,177.51422820007429,177.5288286000723,177.54729110002518,177.54729110002518,177.54729110002518,179.15361140004825,Objects\017a.jpg,post,o,1.602117000031285,None,,,,,,,,00029,001,2026-01-21_11h42.53.652,MST_test,2024.2.0,59.80256778920867,2026-01-21 11h43.07.928920 +0530,
16,0,17,s,1.12479719996918,None,17,0,16,179.16977870010305,,,,,,,,,,,,,,,,,,,,,,,,,,,,,,,,,,,,,,,,,,,,,,,,,,179.1537104001036,179.16977870010305,179.65475710004102,179.68785980006214,179.7060841000639,179.7060841000639,179.7060841000639,180.84278930001892,Scenes\153b.jpg,pre,s,1.12479719996918,None,,,,,,,,00029,001,2026-01-21_11h42.53.652,MST_test,2024.2.0,59.80256778920867,2026-01-21 11h43.07.928920 +0530,
17,0,18,s,1.708473899983801,None,18,0,17,180.85894520010334,,,,,,,,,,,,,,,,,,,,,,,,,,,,,,,,,,,,,,,,,,,,,,,,,,180.84288570005447,180.85894520010334,181.34441590006463,181.36781900003552,181.37749300000723,181.37749300000723,181.37749300000723,183.1006365000503,Foils\081a.jpg,none,s,1.708473899983801,None,,,,,,,,00029,001,2026-01-21_11h42.53.652,MST_test,2024.2.0,59.80256778920867,2026-01-21 11h43.07.928920 +0530,
18,0,19,o,1.8025353999109939,None,19,0,18,183.1169640000444,,,,,,,,,,,,,,,,,,,,,,,,,,,,,,,,,,,,,,,,,,,,,,,,,,183.10073880001437,183.1169640000444,183.60192889999598,183.61571170005482,183.63552930008154,183.63552930008154,183.63552930008154,185.44275750010274,Objects\139a.jpg,pre,o,1.8025353999109939,None,,,,,,,,00029,001,2026-01-21_11h42.53.652,MST_test,2024.2.0,59.80256778920867,2026-01-21 11h43.07.928920 +0530,
19,0,20,s,1.2612403999082744,None,20,0,19,185.45849570003338,,,,,,,,,,,,,,,,,,,,,,,,,,,,,,,,,,,,,,,,,,,,,,,,,,185.44285890005995,185.45849570003338,185.9434758001007,185.9667498000199,185.97692650009412,185.97692650009412,185.97692650009412,187.24848560011014,Scenes\111a.jpg,mid,s,1.2612403999082744,None,,,,,,,,00029,001,2026-01-21_11h42.53.652,MST_test,2024.2.0,59.80256778920867,2026-01-21 11h43.07.928920 +0530,
20,0,21,s,1.1183943999931216,None,21,0,20,187.26470000005793,,,,,,,,,,,,,,,,,,,,,,,,,,,,,,,,,,,,,,,,,,,,,,,,,,187.2486076001078,187.26470000005793,187.74990990001243,187.76703590003308,187.78325690003112,187.78325690003112,187.78325690003112,188.9045334000839,Objects\022a.jpg,post,s,1.1183943999931216,None,,,,,,,,00029,001,2026-01-21_11h42.53.652,MST_test,2024.2.0,59.80256778920867,2026-01-21 11h43.07.928920 +0530,
21,0,22,n,2.758718100027181,None,22,0,21,188.92060410010163,,,,,,,,,,,,,,,,,,,,,,,,,,,,,,,,,,,,,,,,,,,,,,,,,,188.90463070000987,188.92060410010163,189.4055696000578,189.42842540005222,189.43907580000814,189.43907580000814,189.43907580000814,192.19948290009052,Foils\026a.jpg,none,n,2.758718100027181,None,,,,,,,,00029,001,2026-01-21_11h42.53.652,MST_test,2024.2.0,59.80256778920867,2026-01-21 11h43.07.928920 +0530,
22,0,23,n,2.1421610000543296,None,23,0,22,192.2154756000964,,,,,,,,,,,,,,,,,,,,,,,,,,,,,,,,,,,,,,,,,,,,,,,,,,192.1995766001055,192.2154756000964,192.7007957000751,192.7505183001049,192.76817910000682,192.76817910000682,192.76817910000682,194.9256470000837,Foils\scenes22.jpg,none,n,2.1421610000543296,None,,,,,,,,00029,001,2026-01-21_11h42.53.652,MST_test,2024.2.0,59.80256778920867,2026-01-21 11h43.07.928920 +0530,
23,0,24,s,1.1127315999474376,None,24,0,23,194.94170370011125,,,,,,,,,,,,,,,,,,,,,,,,,,,,,,,,,,,,,,,,,,,,,,,,,,194.92574050009716,194.94170370011125,195.42665830010083,195.4556582000805,195.4775493000634,195.4775493000634,195.4775493000634,196.59816420008428,Scenes\160a.jpg,post,s,1.1127315999474376,None,,,,,,,,00029,001,2026-01-21_11h42.53.652,MST_test,2024.2.0,59.80256778920867,2026-01-21 11h43.07.928920 +0530,
24,0,25,s,0.8485902999527752,None,25,0,24,196.61410060001072,,,,,,,,,,,,,,,,,,,,,,,,,,,,,,,,,,,,,,,,,,,,,,,,,,196.59826420003083,196.61410060001072,197.0998477000976,197.12770690000616,197.1493785000639,197.1493785000639,197.1493785000639,198.00377980002668,Scenes\092a.jpg,mid,s,0.8485902999527752,None,,,,,,,,00029,001,2026-01-21_11h42.53.652,MST_test,2024.2.0,59.80256778920867,2026-01-21 11h43.07.928920 +0530,
25,0,26,s,1.1711367999669164,None,26,0,25,198.01922510005534,,,,,,,,,,,,,,,,,,,,,,,,,,,,,,,,,,,,,,,,,,,,,,,,,,198.00389370007906,198.01922510005534,198.5041321000317,198.52777230006177,198.5382905000588,198.5382905000588,198.5382905000588,199.72582610009704,Objects\003b.jpg,post,s,1.1711367999669164,None,,,,,,,,00029,001,2026-01-21_11h42.53.652,MST_test,2024.2.0,59.80256778920867,2026-01-21 11h43.07.928920 +0530,
26,0,27,n,3.0501777000026777,None,27,0,26,199.74188149999827,,,,,,,,,,,,,,,,,,,,,,,,,,,,,,,,,,,,,,,,,,,,,,,,,,199.72591970011126,199.74188149999827,200.22709610010497,200.25372780009639,200.2597294000443,200.2597294000443,200.2597294000443,203.32235250005033,Scenes\121a.jpg,pre,n,3.0501777000026777,None,,,,,,,,00029,001,2026-01-21_11h42.53.652,MST_test,2024.2.0,59.80256778920867,2026-01-21 11h43.07.928920 +0530,
27,0,28,s,1.5639984000008553,None,28,0,27,203.33793420006987,,,,,,,,,,,,,,,,,,,,,,,,,,,,,,,,,,,,,,,,,,,,,,,,,,203.32245289999992,203.33793420006987,203.82328520005103,203.8478974000318,203.8583106000442,203.8583106000442,203.8583106000442,205.4288857000647,Scenes\109a.jpg,post,s,1.5639984000008553,None,,,,,,,,00029,001,2026-01-21_11h42.53.652,MST_test,2024.2.0,59.80256778920867,2026-01-21 11h43.07.928920 +0530,
28,0,29,s,1.6180739999981597,None,29,0,28,205.4451374000637,,,,,,,,,,,,,,,,,,,,,,,,,,,,,,,,,,,,,,,,,,,,,,,,,,205.42898060008883,205.4451374000637,205.93011190008838,205.95441160001792,205.96369310002774,205.96369310002774,205.96369310002774,207.58654200006276,Scenes\177a.jpg,pre,s,1.6180739999981597,None,,,,,,,,00029,001,2026-01-21_11h42.53.652,MST_test,2024.2.0,59.80256778920867,2026-01-21 11h43.07.928920 +0530,
29,0,30,o,1.9074446000158787,None,30,0,29,207.60270060005132,,,,,,,,,,,,,,,,,,,,,,,,,,,,,,,,,,,,,,,,,,,,,,,,,,207.58663730008993,207.60270060005132,208.08766620000824,208.10495120007545,208.12201080005616,208.12201080005616,208.12201080005616,210.04513230000157,Objects\140a.jpg,post,o,1.9074446000158787,None,,,,,,,,00029,001,2026-01-21_11h42.53.652,MST_test,2024.2.0,59.80256778920867,2026-01-21 11h43.07.928920 +0530,
30,0,31,o,2.033340800087899,None,31,0,30,210.06130840000696,,,,,,,,,,,,,,,,,,,,,,,,,,,,,,,,,,,,,,,,,,,,,,,,,,210.0452334000729,210.06130840000696,210.5462975000264,210.57139370008372,210.58055310009513,210.58055310009513,210.58055310009513,212.6206537000835,Scenes\022b.jpg,mid,o,2.033340800087899,None,,,,,,,,00029,001,2026-01-21_11h42.53.652,MST_test,2024.2.0,59.80256778920867,2026-01-21 11h43.07.928920 +0530,
31,0,32,s,1.0582598999608308,None,32,0,31,212.63687899999786,,,,,,,,,,,,,,,,,,,,,,,,,,,,,,,,,,,,,,,,,,,,,,,,,,212.62075440003537,212.63687899999786,213.1221939000534,213.1463098000968,213.15532150003128,213.15532150003128,213.15532150003128,214.2263519000262,Objects\037b.jpg,pre,s,1.0582598999608308,None,,,,,,,,00029,001,2026-01-21_11h42.53.652,MST_test,2024.2.0,59.80256778920867,2026-01-21 11h43.07.928920 +0530,
32,0,33,s,1.0772586999228224,None,33,0,32,214.24262200004887,,,,,,,,,,,,,,,,,,,,,,,,,,,,,,,,,,,,,,,,,,,,,,,,,,214.22645120008383,214.24262200004887,214.7275780000491,214.74242070002947,214.76105190010276,214.76105190010276,214.76105190010276,215.84868270007428,Objects\096a.jpg,pre,s,1.0772586999228224,None,,,,,,,,00029,001,2026-01-21_11h42.53.652,MST_test,2024.2.0,59.80256778920867,2026-01-21 11h43.07.928920 +0530,
33,0,34,o,1.6047812000615522,None,34,0,33,215.86495200009085,,,,,,,,,,,,,,,,,,,,,,,,,,,,,,,,,,,,,,,,,,,,,,,,,,215.8487848000368,215.86495200009085,216.35007210006006,216.38158860011026,216.4009342000354,216.4009342000354,216.4009342000354,218.00635450007394,Scenes\128a.jpg,pre,o,1.6047812000615522,None,,,,,,,,00029,001,2026-01-21_11h42.53.652,MST_test,2024.2.0,59.80256778920867,2026-01-21 11h43.07.928920 +0530,
34,0,35,n,1.819080000044778,None,35,0,34,218.02456470008474,,,,,,,,,,,,,,,,,,,,,,,,,,,,,,,,,,,,,,,,,,,,,,,,,,218.006452600006,218.02456470008474,218.5075918000657,218.6323520001024,218.65888090000954,218.65888090000954,218.65888090000954,220.4816662000958,Foils\scenes25.jpg,none,n,1.819080000044778,None,,,,,,,,00029,001,2026-01-21_11h42.53.652,MST_test,2024.2.0,59.80256778920867,2026-01-21 11h43.07.928920 +0530,
35,0,36,s,1.9967950999271125,None,36,0,35,220.4978619000176,,,,,,,,,,,,,,,,,,,,,,,,,,,,,,,,,,,,,,,,,,,,,,,,,,220.48176130000502,220.4978619000176,220.98292530002072,221.01052880007774,221.03383270010818,221.03383270010818,221.03383270010818,223.04139060003217,Objects\111b.jpg,mid,s,1.9967950999271125,None,,,,,,,,00029,001,2026-01-21_11h42.53.652,MST_test,2024.2.0,59.80256778920867,2026-01-21 11h43.07.928920 +0530,
36,0,37,s,0.9165163000579923,None,37,0,36,223.05737370008137,,,,,,,,,,,,,,,,,,,,,,,,,,,,,,,,,,,,,,,,,,,,,,,,,,223.04149990004953,223.05737370008137,223.54222719999962,223.58299550006632,223.59305750008207,223.59305750008207,223.59305750008207,224.51232750003692,Scenes\107b.jpg,pre,s,0.9165163000579923,None,,,,,,,,00029,001,2026-01-21_11h42.53.652,MST_test,2024.2.0,59.80256778920867,2026-01-21 11h43.07.928920 +0530,
37,0,38,s,1.5182875000173226,None,38,0,37,224.5284969001077,,,,,,,,,,,,,,,,,,,,,,,,,,,,,,,,,,,,,,,,,,,,,,,,,,224.5124251000816,224.5284969001077,225.01425590005238,225.02990510000382,225.04783840000164,225.04783840000164,225.04783840000164,226.56954560009763,Scenes\033a.jpg,pre,s,1.5182875000173226,None,,,,,,,,00029,001,2026-01-21_11h42.53.652,MST_test,2024.2.0,59.80256778920867,2026-01-21 11h43.07.928920 +0530,
38,0,39,o,1.5167654999531806,None,39,0,38,226.58593270007987,,,,,,,,,,,,,,,,,,,,,,,,,,,,,,,,,,,,,,,,,,,,,,,,,,226.5696450000396,226.58593270007987,227.07142250007018,227.0874306000769,227.1054928000085,227.1054928000085,227.1054928000085,228.62703680002596,Objects\067a.jpg,mid,o,1.5167654999531806,None,,,,,,,,00029,001,2026-01-21_11h42.53.652,MST_test,2024.2.0,59.80256778920867,2026-01-21 11h43.07.928920 +0530,
39,0,40,s,2.267880600062199,None,40,0,39,228.6430550001096,,,,,,,,,,,,,,,,,,,,,,,,,,,,,,,,,,,,,,,,,,,,,,,,,,228.627139700111,228.6430550001096,229.12798850005493,229.1575142000802,229.17820280010346,229.17820280010346,229.17820280010346,231.45358080009464,Scenes\118b.jpg,mid,s,2.267880600062199,None,,,,,,,,00029,001,2026-01-21_11h42.53.652,MST_test,2024.2.0,59.80256778920867,2026-01-21 11h43.07.928920 +0530,
40,0,41,s,1.8582449000095949,None,41,0,40,231.46948590001557,,,,,,,,,,,,,,,,,,,,,,,,,,,,,,,,,,,,,,,,,,,,,,,,,,231.45368010003585,231.46948590001557,231.95495530008338,231.9912871000124,232.00477330002468,232.00477330002468,232.00477330002468,233.87859210011084,Scenes\115b.jpg,mid,s,1.8582449000095949,None,,,,,,,,00029,001,2026-01-21_11h42.53.652,MST_test,2024.2.0,59.80256778920867,2026-01-21 11h43.07.928920 +0530,
41,0,42,s,1.1187618999974802,None,42,0,41,233.89465170004405,,,,,,,,,,,,,,,,,,,,,,,,,,,,,,,,,,,,,,,,,,,,,,,,,,233.8786905000452,233.89465170004405,234.37986670003738,234.41136440006085,234.43124990002252,234.43124990002252,234.43124990002252,235.55215840006713,Scenes\100a.jpg,pre,s,1.1187618999974802,None,,,,,,,,00029,001,2026-01-21_11h42.53.652,MST_test,2024.2.0,59.80256778920867,2026-01-21 11h43.07.928920 +0530,
42,0,43,n,1.2714785999851301,None,43,0,42,235.56788910005707,,,,,,,,,,,,,,,,,,,,,,,,,,,,,,,,,,,,,,,,,,,,,,,,,,235.55228130007163,235.56788910005707,236.05226290004794,236.07626030000392,236.0864252001047,236.0864252001047,236.0864252001047,237.3741703000851,Foils\106a.jpg,none,n,1.2714785999851301,None,,,,,,,,00029,001,2026-01-21_11h42.53.652,MST_test,2024.2.0,59.80256778920867,2026-01-21 11h43.07.928920 +0530,
43,0,44,s,1.8010263999458402,None,44,0,43,237.3902320000343,,,,,,,,,,,,,,,,,,,,,,,,,,,,,,,,,,,,,,,,,,,,,,,,,,237.37426609999966,237.3902320000343,237.8754276999971,237.906802100013,237.92540080007166,237.92540080007166,237.92540080007166,239.73271160002332,Scenes\006b.jpg,mid,s,1.8010263999458402,None,,,,,,,,00029,001,2026-01-21_11h42.53.652,MST_test,2024.2.0,59.80256778920867,2026-01-21 11h43.07.928920 +0530,
44,0,45,s,1.4984662000788376,None,45,0,44,239.74874020006973,,,,,,,,,,,,,,,,,,,,,,,,,,,,,,,,,,,,,,,,,,,,,,,,,,239.7328087000642,239.74874020006973,240.23356940003578,240.2550943000242,240.26701470010448,240.26701470010448,240.26701470010448,241.77322140010074,Objects\165b.jpg,mid,s,1.4984662000788376,None,,,,,,,,00029,001,2026-01-21_11h42.53.652,MST_test,2024.2.0,59.80256778920867,2026-01-21 11h43.07.928920 +0530,
45,0,46,s,0.7306388999568298,None,46,0,45,241.78931180003565,,,,,,,,,,,,,,,,,,,,,,,,,,,,,,,,,,,,,,,,,,,,,,,,,,241.77332150004804,241.78931180003565,242.27407290006522,242.28876770008355,242.3075384000549,242.3075384000549,242.3075384000549,243.0441271000309,Objects\132a.jpg,pre,s,0.7306388999568298,None,,,,,,,,00029,001,2026-01-21_11h42.53.652,MST_test,2024.2.0,59.80256778920867,2026-01-21 11h43.07.928920 +0530,
46,0,47,s,1.5637084000045434,None,47,0,46,243.06007750006393,,,,,,,,,,,,,,,,,,,,,,,,,,,,,,,,,,,,,,,,,,,,,,,,,,243.0442259000847,243.06007750006393,243.54527890007012,243.56637480005156,243.5785123000387,243.5785123000387,243.5785123000387,245.15138990001287,Foils\009a.jpg,none,s,1.5637084000045434,None,,,,,,,,00029,001,2026-01-21_11h42.53.652,MST_test,2024.2.0,59.80256778920867,2026-01-21 11h43.07.928920 +0530,
47,0,48,s,0.9838995999889448,None,48,0,47,245.16757780010812,,,,,,,,,,,,,,,,,,,,,,,,,,,,,,,,,,,,,,,,,,,,,,,,,,245.15148750005756,245.16757780010812,245.6525841000257,245.68285130010918,245.70273610006552,245.70273610006552,245.70273610006552,246.68999780004378,Scenes\146a.jpg,post,s,0.9838995999889448,None,,,,,,,,00029,001,2026-01-21_11h42.53.652,MST_test,2024.2.0,59.80256778920867,2026-01-21 11h43.07.928920 +0530,
48,0,49,s,1.5093191000632942,None,49,0,48,246.70644380000886,,,,,,,,,,,,,,,,,,,,,,,,,,,,,,,,,,,,,,,,,,,,,,,,,,246.6900899000466,246.70644380000886,247.19127730000764,247.21497120009735,247.22461840009782,247.22461840009782,247.22461840009782,248.74750140006654,Foils\042a.jpg,none,s,1.5093191000632942,None,,,,,,,,00029,001,2026-01-21_11h42.53.652,MST_test,2024.2.0,59.80256778920867,2026-01-21 11h43.07.928920 +0530,
49,0,50,s,1.1637726000044495,None,50,0,49,248.76360340008978,,,,,,,,,,,,,,,,,,,,,,,,,,,,,,,,,,,,,,,,,,,,,,,,,,248.74759550008457,248.76360340008978,249.24858420004603,249.2719894000329,249.28182430006564,249.28182430006564,249.28182430006564,250.4531377000967,Objects\128b.jpg,mid,s,1.1637726000044495,None,,,,,,,,00029,001,2026-01-21_11h42.53.652,MST_test,2024.2.0,59.80256778920867,2026-01-21 11h43.07.928920 +0530,
50,0,51,s,1.4263779000611976,None,51,0,50,250.46956070000306,,,,,,,,,,,,,,,,,,,,,,,,,,,,,,,,,,,,,,,,,,,,,,,,,,250.45323460001964,250.46956070000306,250.95446640008595,250.97603560006246,250.98790850001387,250.98790850001387,250.98790850001387,252.4269665000029,Foils\020b.jpg,none,s,1.4263779000611976,None,,,,,,,,00029,001,2026-01-21_11h42.53.652,MST_test,2024.2.0,59.80256778920867,2026-01-21 11h43.07.928920 +0530,
51,0,52,n,1.5632867999374866,None,52,0,51,252.44293470005505,,,,,,,,,,,,,,,,,,,,,,,,,,,,,,,,,,,,,,,,,,,,,,,,,,252.4270625000354,252.44293470005505,252.92830210004468,252.9461733000353,252.9626156000886,252.9626156000886,252.9626156000886,254.53433470008895,Foils\scenes17.jpg,none,n,1.5632867999374866,None,,,,,,,,00029,001,2026-01-21_11h42.53.652,MST_test,2024.2.0,59.80256778920867,2026-01-21 11h43.07.928920 +0530,
52,0,53,o,1.3674799000145867,None,53,0,52,254.55060600000434,,,,,,,,,,,,,,,,,,,,,,,,,,,,,,,,,,,,,,,,,,,,,,,,,,254.5344321000157,254.55060600000434,255.03539720003027,255.07198460004292,255.08688740001526,255.08688740001526,255.08688740001526,256.4575850000838,Scenes\045a.jpg,post,o,1.3674799000145867,None,,,,,,,,00029,001,2026-01-21_11h42.53.652,MST_test,2024.2.0,59.80256778920867,2026-01-21 11h43.07.928920 +0530,
53,0,54,s,1.205607600044459,None,54,0,53,256.4744270000374,,,,,,,,,,,,,,,,,,,,,,,,,,,,,,,,,,,,,,,,,,,,,,,,,,256.45768470002804,256.4744270000374,256.9589771000901,256.98026890004985,256.9928010000149,256.9928010000149,256.9928010000149,258.2139988000272,Objects\053b.jpg,pre,s,1.205607600044459,None,,,,,,,,00029,001,2026-01-21_11h42.53.652,MST_test,2024.2.0,59.80256778920867,2026-01-21 11h43.07.928920 +0530,
54,0,55,o,1.9605946999508888,None,55,0,54,258.23036850010976,,,,,,,,,,,,,,,,,,,,,,,,,,,,,,,,,,,,,,,,,,,,,,,,,,258.21410160011146,258.23036850010976,258.7150767000858,258.7374050000217,258.7491848000791,258.7491848000791,258.7491848000791,260.722584900097,Scenes\141a.jpg,mid,o,1.9605946999508888,None,,,,,,,,00029,001,2026-01-21_11h42.53.652,MST_test,2024.2.0,59.80256778920867,2026-01-21 11h43.07.928920 +0530,
55,0,56,s,1.0281878999667242,None,56,0,55,260.73877759999596,,,,,,,,,,,,,,,,,,,,,,,,,,,,,,,,,,,,,,,,,,,,,,,,,,260.72267920000013,260.73877759999596,261.22372910007834,261.2551585000474,261.2738121000584,261.2738121000584,261.2738121000584,262.311488400097,Scenes\125a.jpg,post,s,1.0281878999667242,None,,,,,,,,00029,001,2026-01-21_11h42.53.652,MST_test,2024.2.0,59.80256778920867,2026-01-21 11h43.07.928920 +0530,
56,0,57,o,1.0711723000276834,None,57,0,56,262.3276635000948,,,,,,,,,,,,,,,,,,,,,,,,,,,,,,,,,,,,,,,,,,,,,,,,,,262.31159100006334,262.3276635000948,262.8126286000479,262.8419175000163,262.8628299999982,262.8628299999982,262.8628299999982,263.9504339999985,Scenes\058a.jpg,mid,o,1.0711723000276834,None,,,,,,,,00029,001,2026-01-21_11h42.53.652,MST_test,2024.2.0,59.80256778920867,2026-01-21 11h43.07.928920 +0530,
57,0,58,n,1.4165689999936149,None,58,0,57,263.96674170007464,,,,,,,,,,,,,,,,,,,,,,,,,,,,,,,,,,,,,,,,,,,,,,,,,,263.9506012001075,263.96674170007464,264.4517341000028,264.4734994000755,264.4851869000122,264.4851869000122,264.4851869000122,265.9074195000576,Foils\121a.jpg,none,n,1.4165689999936149,None,,,,,,,,00029,001,2026-01-21_11h42.53.652,MST_test,2024.2.0,59.80256778920867,2026-01-21 11h43.07.928920 +0530,
58,0,59,n,2.0753502000588924,None,59,0,58,265.9237479000585,,,,,,,,,,,,,,,,,,,,,,,,,,,,,,,,,,,,,,,,,,,,,,,,,,265.9075212000171,265.9237479000585,266.4086316000903,266.4265235000057,266.442840600037,266.442840600037,266.442840600037,268.5333027000306,Foils\scenes14.jpg,none,n,2.0753502000588924,None,,,,,,,,00029,001,2026-01-21_11h42.53.652,MST_test,2024.2.0,59.80256778920867,2026-01-21 11h43.07.928920 +0530,
59,0,60,o,2.130104200099595,None,60,0,59,268.5494600000093,,,,,,,,,,,,,,,,,,,,,,,,,,,,,,,,,,,,,,,,,,,,,,,,,,268.53339550003875,268.5494600000093,269.0345889000455,269.05012060003355,269.0678981000092,269.0678981000092,269.0678981000092,271.2095344000263,Objects\049a.jpg,post,o,2.130104200099595,None,,,,,,,,00029,001,2026-01-21_11h42.53.652,MST_test,2024.2.0,59.80256778920867,2026-01-21 11h43.07.928920 +0530,
60,0,61,s,1.2609006999991834,None,61,0,60,271.22538650000934,,,,,,,,,,,,,,,,,,,,,,,,,,,,,,,,,,,,,,,,,,,,,,,,,,271.2096434000414,271.22538650000934,271.7105955000734,271.7470880000619,271.76127390004694,271.76127390004694,271.76127390004694,273.0323794001015,Scenes\151b.jpg,post,s,1.2609006999991834,None,,,,,,,,00029,001,2026-01-21_11h42.53.652,MST_test,2024.2.0,59.80256778920867,2026-01-21 11h43.07.928920 +0530,
61,0,62,o,2.798606999916956,None,62,0,61,273.0485378000885,,,,,,,,,,,,,,,,,,,,,,,,,,,,,,,,,,,,,,,,,,,,,,,,,,273.03248090005945,273.0485378000885,273.5336464000866,273.5554950000951,273.56703620008193,273.56703620008193,273.56703620008193,276.3775661000982,Scenes\162a.jpg,post,o,2.798606999916956,None,,,,,,,,00029,001,2026-01-21_11h42.53.652,MST_test,2024.2.0,59.80256778920867,2026-01-21 11h43.07.928920 +0530,
62,0,63,s,1.422498800093308,None,63,0,62,276.3934656000929,,,,,,,,,,,,,,,,,,,,,,,,,,,,,,,,,,,,,,,,,,,,,,,,,,276.377661800012,276.3934656000929,276.8786921000574,276.9038095000433,276.9119180000853,276.9119180000853,276.9119180000853,278.35078880004585,Objects\172b.jpg,mid,s,1.422498800093308,None,,,,,,,,00029,001,2026-01-21_11h42.53.652,MST_test,2024.2.0,59.80256778920867,2026-01-21 11h43.07.928920 +0530,
63,0,64,o,1.2958686000201851,None,64,0,63,278.3672312000999,,,,,,,,,,,,,,,,,,,,,,,,,,,,,,,,,,,,,,,,,,,,,,,,,,278.35089380003046,278.3672312000999,278.85213940008543,278.88569770008326,278.90233050007373,278.90233050007373,278.90233050007373,280.20729940000456,Scenes\028b.jpg,pre,o,1.2958686000201851,None,,,,,,,,00029,001,2026-01-21_11h42.53.652,MST_test,2024.2.0,59.80256778920867,2026-01-21 11h43.07.928920 +0530,
64,0,65,s,2.2471009000437334,None,65,0,64,280.2235382000217,,,,,,,,,,,,,,,,,,,,,,,,,,,,,,,,,,,,,,,,,,,,,,,,,,280.20745490002446,280.2235382000217,280.70906500006095,280.73495860002004,280.74303340003826,280.74303340003826,280.74303340003826,283.00110960006714,Objects\051b.jpg,pre,s,2.2471009000437334,None,,,,,,,,00029,001,2026-01-21_11h42.53.652,MST_test,2024.2.0,59.80256778920867,2026-01-21 11h43.07.928920 +0530,
65,0,66,o,2.069631400052458,None,66,0,65,283.01735160010867,,,,,,,,,,,,,,,,,,,,,,,,,,,,,,,,,,,,,,,,,,,,,,,,,,283.0012227999978,283.01735160010867,283.5018732000608,283.5253195000114,283.5361293000169,283.5361293000169,283.5361293000169,285.60963960003573,Objects\135b.jpg,pre,o,2.069631400052458,None,,,,,,,,00029,001,2026-01-21_11h42.53.652,MST_test,2024.2.0,59.80256778920867,2026-01-21 11h43.07.928920 +0530,
66,0,67,s,1.1492127000819892,None,67,0,66,285.6259159001056,,,,,,,,,,,,,,,,,,,,,,,,,,,,,,,,,,,,,,,,,,,,,,,,,,285.6097401001025,285.6259159001056,286.11099610000383,286.13517530006357,286.14458320010453,286.14458320010453,286.14458320010453,287.2991316000698,Objects\101b.jpg,post,s,1.1492127000819892,None,,,,,,,,00029,001,2026-01-21_11h42.53.652,MST_test,2024.2.0,59.80256778920867,2026-01-21 11h43.07.928920 +0530,
67,0,68,n,1.641467300010845,None,68,0,67,287.3152769000735,,,,,,,,,,,,,,,,,,,,,,,,,,,,,,,,,,,,,,,,,,,,,,,,,,287.2992240000749,287.3152769000735,287.8001199000282,287.8577148000477,287.8680429001106,287.8680429001106,287.8680429001106,289.5240279000718,Foils\scenes28.jpg,none,n,1.641467300010845,None,,,,,,,,00029,001,2026-01-21_11h42.53.652,MST_test,2024.2.0,59.80256778920867,2026-01-21 11h43.07.928920 +0530,
68,0,69,s,1.372435300028883,None,69,0,68,289.5396348000504,,,,,,,,,,,,,,,,,,,,,,,,,,,,,,,,,,,,,,,,,,,,,,,,,,289.5241253999993,289.5396348000504,290.0256509000901,290.04299610003363,290.05794890003745,290.05794890003745,290.05794890003745,291.44669890007935,Objects\181a.jpg,mid,s,1.372435300028883,None,,,,,,,,00029,001,2026-01-21_11h42.53.652,MST_test,2024.2.0,59.80256778920867,2026-01-21 11h43.07.928920 +0530,
69,0,70,o,1.4008580000372604,None,70,0,69,291.46290740009863,,,,,,,,,,,,,,,,,,,,,,,,,,,,,,,,,,,,,,,,,,,,,,,,,,291.44679590000305,291.46290740009863,291.9483024000656,291.9624620000832,291.9813497000141,291.9813497000141,291.9813497000141,293.3871038000798,Objects\109a.jpg,pre,o,1.4008580000372604,None,,,,,,,,00029,001,2026-01-21_11h42.53.652,MST_test,2024.2.0,59.80256778920867,2026-01-21 11h43.07.928920 +0530,
70,0,71,o,0.9319359000073746,None,71,0,70,293.40314670000225,,,,,,,,,,,,,,,,,,,,,,,,,,,,,,,,,,,,,,,,,,,,,,,,,,293.38719890010543,293.40314670000225,293.8883731000824,293.91174940008204,293.92160480003804,293.92160480003804,293.92160480003804,294.8588376000989,Objects\018b.jpg,pre,o,0.9319359000073746,None,,,,,,,,00029,001,2026-01-21_11h42.53.652,MST_test,2024.2.0,59.80256778920867,2026-01-21 11h43.07.928920 +0530,
71,0,72,o,0.9327802000334486,None,72,0,71,294.8749781000661,,,,,,,,,,,,,,,,,,,,,,,,,,,,,,,,,,,,,,,,,,,,,,,,,,294.8589370000409,294.8749781000661,295.36004810000304,295.37480950006284,295.39340030006133,295.39340030006133,295.39340030006133,296.3306478000013,Objects\061a.jpg,post,o,0.9327802000334486,None,,,,,,,,00029,001,2026-01-21_11h42.53.652,MST_test,2024.2.0,59.80256778920867,2026-01-21 11h43.07.928920 +0530,
72,0,73,s,2.5089247999712825,None,73,0,72,296.34676200000104,,,,,,,,,,,,,,,,,,,,,,,,,,,,,,,,,,,,,,,,,,,,,,,,,,296.33074030000716,296.34676200000104,296.8320642000763,296.85861810005736,296.86544560000766,296.86544560000766,296.86544560000766,299.3913642000407,Scenes\083a.jpg,mid,s,2.5089247999712825,None,,,,,,,,00029,001,2026-01-21_11h42.53.652,MST_test,2024.2.0,59.80256778920867,2026-01-21 11h43.07.928920 +0530,
73,0,74,s,1.3361106999218464,None,74,0,73,299.4075647999998,,,,,,,,,,,,,,,,,,,,,,,,,,,,,,,,,,,,,,,,,,,,,,,,,,299.39145850006025,299.4075647999998,299.89277670008596,299.9155406000791,299.92599490005523,299.92599490005523,299.92599490005523,301.264567400096,Objects\115b.jpg,mid,s,1.3361106999218464,None,,,,,,,,00029,001,2026-01-21_11h42.53.652,MST_test,2024.2.0,59.80256778920867,2026-01-21 11h43.07.928920 +0530,
74,0,75,s,1.2944329999154434,None,75,0,74,301.2807334000245,,,,,,,,,,,,,,,,,,,,,,,,,,,,,,,,,,,,,,,,,,,,,,,,,,301.2646620000014,301.2807334000245,301.76570020010695,301.78013140009716,301.7991803000914,301.7991803000914,301.7991803000914,303.10428240010515,Objects\126a.jpg,mid,s,1.2944329999154434,None,,,,,,,,00029,001,2026-01-21_11h42.53.652,MST_test,2024.2.0,59.80256778920867,2026-01-21 11h43.07.928920 +0530,
75,0,76,s,2.8227983000688255,None,76,0,75,303.1205714000389,,,,,,,,,,,,,,,,,,,,,,,,,,,,,,,,,,,,,,,,,,,,,,,,,,303.1043813000433,303.1205714000389,303.6058683000738,303.627882800065,303.6395686001051,303.6395686001051,303.6395686001051,306.46610720001627,Scenes\192a.jpg,post,s,2.8227983000688255,None,,,,,,,,00029,001,2026-01-21_11h42.53.652,MST_test,2024.2.0,59.80256778920867,2026-01-21 11h43.07.928920 +0530,
76,0,77,o,1.8355859000002965,None,77,0,76,306.4822843000293,,,,,,,,,,,,,,,,,,,,,,,,,,,,,,,,,,,,,,,,,,,,,,,,,,306.46620190003887,306.4822843000293,306.9673772000242,306.9996624001069,307.0180782000534,307.0180782000534,307.0180782000534,308.857765700086,Scenes\091b.jpg,post,o,1.8355859000002965,None,,,,,,,,00029,001,2026-01-21_11h42.53.652,MST_test,2024.2.0,59.80256778920867,2026-01-21 11h43.07.928920 +0530,
77,0,78,n,1.80536639993079,None,78,0,77,308.87398520007264,,,,,,,,,,,,,,,,,,,,,,,,,,,,,,,,,,,,,,,,,,,,,,,,,,308.85786210000515,308.87398520007264,309.3591527000535,309.39997910009697,309.40914450003766,309.40914450003766,309.40914450003766,311.2161707000341,Scenes\076b.jpg,mid,n,1.80536639993079,None,,,,,,,,00029,001,2026-01-21_11h42.53.652,MST_test,2024.2.0,59.80256778920867,2026-01-21 11h43.07.928920 +0530,
78,0,79,s,1.1902483999729156,None,79,0,78,311.23213280003984,,,,,,,,,,,,,,,,,,,,,,,,,,,,,,,,,,,,,,,,,,,,,,,,,,311.21627410000656,311.23213280003984,311.71747520007193,311.7420698000351,311.75172530009877,311.75172530009877,311.75172530009877,312.9555107000051,Objects\105b.jpg,post,s,1.1902483999729156,None,,,,,,,,00029,001,2026-01-21_11h42.53.652,MST_test,2024.2.0,59.80256778920867,2026-01-21 11h43.07.928920 +0530,
79,0,80,s,0.7402173000155017,None,80,0,79,312.9716837001033,,,,,,,,,,,,,,,,,,,,,,,,,,,,,,,,,,,,,,,,,,,,,,,,,,312.95560420001857,312.9716837001033,313.4566378000891,313.485167200095,313.50683930004016,313.50683930004016,313.50683930004016,314.2600766000105,Scenes\103a.jpg,post,s,0.7402173000155017,None,,,,,,,,00029,001,2026-01-21_11h42.53.652,MST_test,2024.2.0,59.80256778920867,2026-01-21 11h43.07.928920 +0530,
80,0,81,s,2.5868511999724433,None,81,0,80,314.2761148000136,,,,,,,,,,,,,,,,,,,,,,,,,,,,,,,,,,,,,,,,,,,,,,,,,,314.26018460001796,314.2761148000136,314.7613281001104,314.7842328000115,314.7947116000578,314.7947116000578,314.7947116000578,317.3876060000621,Foils\017a.jpg,none,s,2.5868511999724433,None,,,,,,,,00029,001,2026-01-21_11h42.53.652,MST_test,2024.2.0,59.80256778920867,2026-01-21 11h43.07.928920 +0530,
81,0,82,o,1.1725571000715718,None,82,0,81,317.40386860002764,,,,,,,,,,,,,,,,,,,,,,,,,,,,,,,,,,,,,,,,,,,,,,,,,,317.387703500106,317.40386860002764,317.88882980006747,317.903165500029,317.92231779999565,317.92231779999565,317.92231779999565,319.11026490002405,Objects\168a.jpg,mid,o,1.1725571000715718,None,,,,,,,,00029,001,2026-01-21_11h42.53.652,MST_test,2024.2.0,59.80256778920867,2026-01-21 11h43.07.928920 +0530,
82,0,83,s,1.1444753999821842,None,83,0,82,319.1265666000545,,,,,,,,,,,,,,,,,,,,,,,,,,,,,,,,,,,,,,,,,,,,,,,,,,319.11036500008777,319.1265666000545,319.6115264000837,319.63307520002127,319.64504080009647,319.64504080009647,319.64504080009647,320.7995383000234,Objects\177b.jpg,mid,s,1.1444753999821842,None,,,,,,,,00029,001,2026-01-21_11h42.53.652,MST_test,2024.2.0,59.80256778920867,2026-01-21 11h43.07.928920 +0530,
83,0,84,s,1.5663271000375971,None,84,0,83,320.81581600010395,,,,,,,,,,,,,,,,,,,,,,,,,,,,,,,,,,,,,,,,,,,,,,,,,,320.79966240003705,320.81581600010395,321.30087070004083,321.3362906000111,321.35099140007515,321.35099140007515,321.35099140007515,322.923970200005,Scenes\106b.jpg,pre,s,1.5663271000375971,None,,,,,,,,00029,001,2026-01-21_11h42.53.652,MST_test,2024.2.0,59.80256778920867,2026-01-21 11h43.07.928920 +0530,
84,0,85,n,1.5392028000205755,None,85,0,84,322.93981160002295,,,,,,,,,,,,,,,,,,,,,,,,,,,,,,,,,,,,,,,,,,,,,,,,,,322.9240636000177,322.93981160002295,323.4252128000371,323.4489629000891,323.45836380007677,323.45836380007677,323.45836380007677,325.01433620008174,Foils\073a.jpg,none,n,1.5392028000205755,None,,,,,,,,00029,001,2026-01-21_11h42.53.652,MST_test,2024.2.0,59.80256778920867,2026-01-21 11h43.07.928920 +0530,
85,0,86,n,1.0173228000057861,None,86,0,85,325.03045449999627,,,,,,,,,,,,,,,,,,,,,,,,,,,,,,,,,,,,,,,,,,,,,,,,,,325.0144316001097,325.03045449999627,325.51566740009,325.53772060002666,325.5488879000768,325.5488879000768,325.5488879000768,326.56988520000596,Foils\002a.jpg,none,n,1.0173228000057861,None,,,,,,,,00029,001,2026-01-21_11h42.53.652,MST_test,2024.2.0,59.80256778920867,2026-01-21 11h43.07.928920 +0530,
86,0,87,n,0.9888935999479145,None,87,0,86,326.5859036000911,,,,,,,,,,,,,,,,,,,,,,,,,,,,,,,,,,,,,,,,,,,,,,,,,,326.56998020003084,326.5859036000911,327.0711060001049,327.109135900042,327.1210599000333,327.1210599000333,327.1210599000333,328.1251936000772,Scenes\171b.jpg,pre,n,0.9888935999479145,None,,,,,,,,00029,001,2026-01-21_11h42.53.652,MST_test,2024.2.0,59.80256778920867,2026-01-21 11h43.07.928920 +0530,
87,0,88,s,2.9364552999613807,None,88,0,87,328.1415918000275,,,,,,,,,,,,,,,,,,,,,,,,,,,,,,,,,,,,,,,,,,,,,,,,,,328.1252936000237,328.1415918000275,328.6264366999967,328.66087020002306,328.67747090000194,328.67747090000194,328.67747090000194,331.6209734000731,Scenes\110b.jpg,mid,s,2.9364552999613807,None,,,,,,,,00029,001,2026-01-21_11h42.53.652,MST_test,2024.2.0,59.80256778920867,2026-01-21 11h43.07.928920 +0530,
88,0,89,s,1.1623867000453174,None,89,0,88,331.636920100078,,,,,,,,,,,,,,,,,,,,,,,,,,,,,,,,,,,,,,,,,,,,,,,,,,331.6210697001079,331.636920100078,332.1221383000957,332.13888880005106,332.15624010004103,332.15624010004103,332.15624010004103,333.3269453000976,Objects\114a.jpg,post,s,1.1623867000453174,None,,,,,,,,00029,001,2026-01-21_11h42.53.652,MST_test,2024.2.0,59.80256778920867,2026-01-21 11h43.07.928920 +0530,
89,0,90,s,1.0484269999433309,None,90,0,89,333.34301920002326,,,,,,,,,,,,,,,,,,,,,,,,,,,,,,,,,,,,,,,,,,,,,,,,,,333.3270382001065,333.34301920002326,333.82798960001674,333.851808300009,333.8614782000659,333.8614782000659,333.8614782000659,334.9155918000033,Objects\097b.jpg,pre,s,1.0484269999433309,None,,,,,,,,00029,001,2026-01-21_11h42.53.652,MST_test,2024.2.0,59.80256778920867,2026-01-21 11h43.07.928920 +0530,
90,0,91,s,2.8111561000114307,None,91,0,90,334.93212590005714,,,,,,,,,,,,,,,,,,,,,,,,,,,,,,,,,,,,,,,,,,,,,,,,,,334.9156899000518,334.93212590005714,335.41707110009156,335.4369585000677,335.45050550007727,335.45050550007727,335.45050550007727,338.27760600007605,Objects\029b.jpg,mid,s,2.8111561000114307,None,,,,,,,,00029,001,2026-01-21_11h42.53.652,MST_test,2024.2.0,59.80256778920867,2026-01-21 11h43.07.928920 +0530,
91,0,92,s,1.6642028000205755,None,92,0,91,338.2938877000706,,,,,,,,,,,,,,,,,,,,,,,,,,,,,,,,,,,,,,,,,,,,,,,,,,338.277701400104,338.2938877000706,338.7786402000347,338.81489050004166,338.82981150003616,338.82981150003616,338.82981150003616,340.5020836000331,Scenes\167b.jpg,pre,s,1.6642028000205755,None,,,,,,,,00029,001,2026-01-21_11h42.53.652,MST_test,2024.2.0,59.80256778920867,2026-01-21 11h43.07.928920 +0530,
92,0,93,s,0.696652700076811,None,93,0,92,340.518031100044,,,,,,,,,,,,,,,,,,,,,,,,,,,,,,,,,,,,,,,,,,,,,,,,,,340.5021809000755,340.518031100044,341.0037063000491,341.0277285000775,341.03739589999896,341.03739589999896,341.03739589999896,341.73948960006237,Scenes\179a.jpg,mid,s,0.696652700076811,None,,,,,,,,00029,001,2026-01-21_11h42.53.652,MST_test,2024.2.0,59.80256778920867,2026-01-21 11h43.07.928920 +0530,
93,0,94,s,0.6268026999896392,None,94,0,93,341.7558139000321,,,,,,,,,,,,,,,,,,,,,,,,,,,,,,,,,,,,,,,,,,,,,,,,,,341.73958620009944,341.7558139000321,342.2407821000088,342.26487330009695,342.27530460001435,342.27530460001435,342.27530460001435,342.9103806000203,Foils\097a.jpg,none,s,0.6268026999896392,None,,,,,,,,00029,001,2026-01-21_11h42.53.652,MST_test,2024.2.0,59.80256778920867,2026-01-21 11h43.07.928920 +0530,
94,0,95,n,0.7053996999748051,None,95,0,94,342.92646080011036,,,,,,,,,,,,,,,,,,,,,,,,,,,,,,,,,,,,,,,,,,,,,,,,,,342.9105123000918,342.92646080011036,343.41183220001403,343.43614910007454,343.44487880007364,343.44487880007364,343.44487880007364,344.1648614000296,Scenes\027a.jpg,post,n,0.7053996999748051,None,,,,,,,,00029,001,2026-01-21_11h42.53.652,MST_test,2024.2.0,59.80256778920867,2026-01-21 11h43.07.928920 +0530,
95,0,96,s,1.3634283000137657,None,96,0,95,344.1808433000697,,,,,,,,,,,,,,,,,,,,,,,,,,,,,,,,,,,,,,,,,,,,,,,,,,344.16495420003776,344.1808433000697,344.66603590000886,344.69054350000806,344.6992790000513,344.6992790000513,344.6992790000513,346.0714559000917,Objects\176b.jpg,mid,s,1.3634283000137657,None,,,,,,,,00029,001,2026-01-21_11h42.53.652,MST_test,2024.2.0,59.80256778920867,2026-01-21 11h43.07.928920 +0530,
96,0,97,n,2.9275212000356987,None,97,0,96,346.08775440009777,,,,,,,,,,,,,,,,,,,,,,,,,,,,,,,,,,,,,,,,,,,,,,,,,,346.071551800007,346.08775440009777,346.57272610010114,346.59634360007476,346.60607820004225,346.60607820004225,346.60607820004225,349.550134500023,Foils\093b.jpg,none,n,2.9275212000356987,None,,,,,,,,00029,001,2026-01-21_11h42.53.652,MST_test,2024.2.0,59.80256778920867,2026-01-21 11h43.07.928920 +0530,
97,0,98,s,1.5041044999379665,None,98,0,97,349.56649150000885,,,,,,,,,,,,,,,,,,,,,,,,,,,,,,,,,,,,,,,,,,,,,,,,,,349.55022800003644,349.56649150000885,350.0514581000898,350.0877328000497,350.1023687000852,350.1023687000852,350.1023687000852,351.60748050000984,Scenes\131b.jpg,post,s,1.5041044999379665,None,,,,,,,,00029,001,2026-01-21_11h42.53.652,MST_test,2024.2.0,59.80256778920867,2026-01-21 11h43.07.928920 +0530,
98,0,99,o,1.3429990001022816,None,99,0,98,351.62357380008325,,,,,,,,,,,,,,,,,,,,,,,,,,,,,,,,,,,,,,,,,,,,,,,,,,351.60757440002635,351.62357380008325,352.10958240006585,352.1370518000331,352.15873730008025,352.15873730008025,352.15873730008025,353.51436100003775,Scenes\184a.jpg,pre,o,1.3429990001022816,None,,,,,,,,00029,001,2026-01-21_11h42.53.652,MST_test,2024.2.0,59.80256778920867,2026-01-21 11h43.07.928920 +0530,
99,0,100,s,2.2369994999608025,None,100,0,99,353.53036430000793,,,,,,,,,,,,,,,,,,,,,,,,,,,,,,,,,,,,,,,,,,,,,,,,,,353.51445280003827,353.53036430000793,354.01604300003964,354.0311489000451,354.0486915000947,354.0486915000947,354.0486915000947,356.2906842000084,Objects\163a.jpg,mid,s,2.2369994999608025,None,,,,,,,,00029,001,2026-01-21_11h42.53.652,MST_test,2024.2.0,59.80256778920867,2026-01-21 11h43.07.928920 +0530,
100,0,101,o,1.0927265000063926,None,101,0,100,356.3067612000741,,,,,,,,,,,,,,,,,,,,,,,,,,,,,,,,,,,,,,,,,,,,,,,,,,356.290778900031,356.3067612000741,356.79178990004584,356.8056409000419,356.82533300004434,356.82533300004434,356.82533300004434,357.9298826000886,Objects\123a.jpg,pre,o,1.0927265000063926,None,,,,,,,,00029,001,2026-01-21_11h42.53.652,MST_test,2024.2.0,59.80256778920867,2026-01-21 11h43.07.928920 +0530,
101,0,102,o,1.2776615000329912,None,102,0,101,357.94572499999776,,,,,,,,,,,,,,,,,,,,,,,,,,,,,,,,,,,,,,,,,,,,,,,,,,357.92997900000773,357.94572499999776,358.4309230000945,358.4447260000743,358.46426180005074,358.46426180005074,358.46426180005074,359.75278950005304,Objects\086a.jpg,mid,o,1.2776615000329912,None,,,,,,,,00029,001,2026-01-21_11h42.53.652,MST_test,2024.2.0,59.80256778920867,2026-01-21 11h43.07.928920 +0530,
102,0,103,s,1.1826571999117732,None,103,0,102,359.7687716000946,,,,,,,,,,,,,,,,,,,,,,,,,,,,,,,,,,,,,,,,,,,,,,,,,,359.7528835000703,359.7687716000946,360.2542853000341,360.28409170010127,360.3039191000862,360.3039191000862,360.3039191000862,361.49206600000616,Scenes\098b.jpg,mid,s,1.1826571999117732,None,,,,,,,,00029,001,2026-01-21_11h42.53.652,MST_test,2024.2.0,59.80256778920867,2026-01-21 11h43.07.928920 +0530,
103,0,104,s,2.219152500038035,None,104,0,103,361.50824500003364,,,,,,,,,,,,,,,,,,,,,,,,,,,,,,,,,,,,,,,,,,,,,,,,,,361.4921611000318,361.50824500003364,361.99340600008145,362.00835340004414,362.0271101000253,362.0271101000253,362.0271101000253,364.2519573000027,Objects\098a.jpg,pre,s,2.219152500038035,None,,,,,,,,00029,001,2026-01-21_11h42.53.652,MST_test,2024.2.0,59.80256778920867,2026-01-21 11h43.07.928920 +0530,
104,0,105,s,1.0591506999917328,None,105,0,104,364.2678465000354,,,,,,,,,,,,,,,,,,,,,,,,,,,,,,,,,,,,,,,,,,,,,,,,,,364.252049600007,364.2678465000354,364.7530621000333,364.77653020003345,364.78635200008284,364.78635200008284,364.78635200008284,365.8575244001113,Objects\013b.jpg,post,s,1.0591506999917328,None,,,,,,,,00029,001,2026-01-21_11h42.53.652,MST_test,2024.2.0,59.80256778920867,2026-01-21 11h43.07.928920 +0530,
105,0,106,o,1.1994093999965116,None,106,0,105,365.8734758000355,,,,,,,,,,,,,,,,,,,,,,,,,,,,,,,,,,,,,,,,,,,,,,,,,,365.85761710000224,365.8734758000355,366.3587993000401,366.3824045000365,366.39190560008865,366.39190560008865,366.39190560008865,367.5971921000164,Objects\147b.jpg,pre,o,1.1994093999965116,None,,,,,,,,00029,001,2026-01-21_11h42.53.652,MST_test,2024.2.0,59.80256778920867,2026-01-21 11h43.07.928920 +0530,
106,0,107,o,1.6102130999788642,None,107,0,106,367.6130096000852,,,,,,,,,,,,,,,,,,,,,,,,,,,,,,,,,,,,,,,,,,,,,,,,,,367.59728930005804,367.6130096000852,368.09800070000347,368.12027010007296,368.1315680000698,368.1315680000698,368.1315680000698,369.75456040003337,Foils\065a.jpg,none,o,1.6102130999788642,None,,,,,,,,00029,001,2026-01-21_11h42.53.652,MST_test,2024.2.0,59.80256778920867,2026-01-21 11h43.07.928920 +0530,
107,0,108,o,0.772702099988237,None,108,0,107,369.77057230006903,,,,,,,,,,,,,,,,,,,,,,,,,,,,,,,,,,,,,,,,,,,,,,,,,,369.7546553000575,369.77057230006903,370.25555860006716,370.2714870000491,370.28913020004984,370.28913020004984,370.28913020004984,371.07574430003297,Objects\148a.jpg,pre,o,0.772702099988237,None,,,,,,,,00029,001,2026-01-21_11h42.53.652,MST_test,2024.2.0,59.80256778920867,2026-01-21 11h43.07.928920 +0530,
108,0,109,o,0.7960036000004038,None,109,0,108,371.0918781000655,,,,,,,,,,,,,,,,,,,,,,,,,,,,,,,,,,,,,,,,,,,,,,,,,,371.07584370009135,371.0918781000655,371.57685220008716,371.5905498000793,371.61031230003573,371.61031230003573,371.61031230003573,372.4138374000322,Objects\052a.jpg,pre,o,0.7960036000004038,None,,,,,,,,00029,001,2026-01-21_11h42.53.652,MST_test,2024.2.0,59.80256778920867,2026-01-21 11h43.07.928920 +0530,
109,0,110,s,0.9689153999788687,None,110,0,109,372.429761000094,,,,,,,,,,,,,,,,,,,,,,,,,,,,,,,,,,,,,,,,,,,,,,,,,,372.41393610008527,372.429761000094,372.9151510000229,372.93432510003913,372.9490061000688,372.9490061000688,372.9490061000688,373.9190303001087,Foils\scenes11.jpg,none,s,0.9689153999788687,None,,,,,,,,00029,001,2026-01-21_11h42.53.652,MST_test,2024.2.0,59.80256778920867,2026-01-21 11h43.07.928920 +0530,
110,0,111,n,1.400292499922216,None,111,0,110,373.9351562000811,,,,,,,,,,,,,,,,,,,,,,,,,,,,,,,,,,,,,,,,,,,,,,,,,,373.919125800021,373.9351562000811,374.42014790000394,374.4374452000484,374.4535804000916,374.4535804000916,374.4535804000916,375.85900600010063,Foils\scenes20.jpg,none,n,1.400292499922216,None,,,,,,,,00029,001,2026-01-21_11h42.53.652,MST_test,2024.2.0,59.80256778920867,2026-01-21 11h43.07.928920 +0530,
111,0,112,s,1.5239257999928668,None,112,0,111,375.8754370000679,,,,,,,,,,,,,,,,,,,,,,,,,,,,,,,,,,,,,,,,,,,,,,,,,,375.8591060000472,375.8754370000679,376.3604297999991,376.3772152001038,376.3938914000755,376.3938914000755,376.3938914000755,377.93297220009845,Objects\138a.jpg,post,s,1.5239257999928668,None,,,,,,,,00029,001,2026-01-21_11h42.53.652,MST_test,2024.2.0,59.80256778920867,2026-01-21 11h43.07.928920 +0530,
112,0,113,s,1.1546452000038698,None,113,0,112,377.94924990006257,,,,,,,,,,,,,,,,,,,,,,,,,,,,,,,,,,,,,,,,,,,,,,,,,,377.93308370001614,377.94924990006257,378.43446920008864,378.4485045000911,378.4676911000861,378.4676911000861,378.4676911000861,379.6231230000267,Objects\136a.jpg,mid,s,1.1546452000038698,None,,,,,,,,00029,001,2026-01-21_11h42.53.652,MST_test,2024.2.0,59.80256778920867,2026-01-21 11h43.07.928920 +0530,
113,0,114,n,2.095046399976127,None,114,0,113,379.6389642000431,,,,,,,,,,,,,,,,,,,,,,,,,,,,,,,,,,,,,,,,,,,,,,,,,,379.6232360000722,379.6389642000431,380.123627700028,380.1647217000136,380.17452840006445,380.17452840006445,380.17452840006445,382.2820179000264,Scenes\003b.jpg,post,n,2.095046399976127,None,,,,,,,,00029,001,2026-01-21_11h42.53.652,MST_test,2024.2.0,59.80256778920867,2026-01-21 11h43.07.928920 +0530,
114,0,115,n,1.245850299950689,None,115,0,114,382.2985055000754,,,,,,,,,,,,,,,,,,,,,,,,,,,,,,,,,,,,,,,,,,,,,,,,,,382.28211720008403,382.2985055000754,382.78296189999674,382.8069989000214,382.8162260000827,382.8162260000827,382.8162260000827,384.07148370007053,Foils\058a.jpg,none,n,1.245850299950689,None,,,,,,,,00029,001,2026-01-21_11h42.53.652,MST_test,2024.2.0,59.80256778920867,2026-01-21 11h43.07.928920 +0530,
115,0,116,n,1.9841675000498071,None,116,0,115,384.0874236000236,,,,,,,,,,,,,,,,,,,,,,,,,,,,,,,,,,,,,,,,,,,,,,,,,,384.0715815000003,384.0874236000236,384.57323990005534,384.59712290007155,384.60613329999615,384.60613329999615,384.60613329999615,386.59677490009926,Objects\153b.jpg,post,n,1.9841675000498071,None,,,,,,,,00029,001,2026-01-21_11h42.53.652,MST_test,2024.2.0,59.80256778920867,2026-01-21 11h43.07.928920 +0530,
116,0,117,s,2.1542232999345288,None,117,0,116,386.61278379999567,,,,,,,,,,,,,,,,,,,,,,,,,,,,,,,,,,,,,,,,,,,,,,,,,,386.59687350003514,386.61278379999567,387.09798160009086,387.1138272000244,387.1320447000908,387.1320447000908,387.1320447000908,389.28960240003653,Scenes\016a.jpg,mid,s,2.1542232999345288,None,,,,,,,,00029,001,2026-01-21_11h42.53.652,MST_test,2024.2.0,59.80256778920867,2026-01-21 11h43.07.928920 +0530,
117,0,118,s,1.3664432000368834,None,118,0,117,389.30551580002066,,,,,,,,,,,,,,,,,,,,,,,,,,,,,,,,,,,,,,,,,,,,,,,,,,389.2896988000721,389.30551580002066,389.79091640003026,389.80594190000556,389.8240966000594,389.8240966000594,389.8240966000594,391.1960638000164,Objects\088a.jpg,mid,s,1.3664432000368834,None,,,,,,,,00029,001,2026-01-21_11h42.53.652,MST_test,2024.2.0,59.80256778920867,2026-01-21 11h43.07.928920 +0530,
118,0,119,o,4.586695600068197,None,119,0,118,391.2123176000314,,,,,,,,,,,,,,,,,,,,,,,,,,,,,,,,,,,,,,,,,,,,,,,,,,391.1961619000649,391.2123176000314,391.69755240005907,391.71190480003133,391.73075240000617,391.73075240000617,391.73075240000617,396.3309123000363,Objects\082a.jpg,post,o,4.586695600068197,None,,,,,,,,00029,001,2026-01-21_11h42.53.652,MST_test,2024.2.0,59.80256778920867,2026-01-21 11h43.07.928920 +0530,
119,0,120,s,1.2521056000841781,None,120,0,119,396.34695860010106,,,,,,,,,,,,,,,,,,,,,,,,,,,,,,,,,,,,,,,,,,,,,,,,,,396.33100580004975,396.34695860010106,396.83194110007025,396.85299260006286,396.8653989000013,396.8653989000013,396.8653989000013,398.1206017000368,Objects\026b.jpg,post,s,1.2521056000841781,None,,,,,,,,00029,001,2026-01-21_11h42.53.652,MST_test,2024.2.0,59.80256778920867,2026-01-21 11h43.07.928920 +0530,
120,0,121,s,1.8064969999250025,None,121,0,120,398.13674070010893,,,,,,,,,,,,,,,,,,,,,,,,,,,,,,,,,,,,,,,,,,,,,,,,,,398.12070600001607,398.13674070010893,398.62171560002025,398.6390768000856,398.65548330009915,398.65548330009915,398.65548330009915,400.4789526000386,Foils\scenes1.jpg,none,s,1.8064969999250025,None,,,,,,,,00029,001,2026-01-21_11h42.53.652,MST_test,2024.2.0,59.80256778920867,2026-01-21 11h43.07.928920 +0530,
121,0,122,s,1.242159100016579,None,122,0,121,400.4948160001077,,,,,,,,,,,,,,,,,,,,,,,,,,,,,,,,,,,,,,,,,,,,,,,,,,400.4790486000711,400.4948160001077,400.97995090007316,401.003351500025,401.0132044000784,401.0132044000784,401.0132044000784,402.2685525000561,Objects\009b.jpg,pre,s,1.242159100016579,None,,,,,,,,00029,001,2026-01-21_11h42.53.652,MST_test,2024.2.0,59.80256778920867,2026-01-21 11h43.07.928920 +0530,
122,0,123,s,1.0837031999835745,None,123,0,122,402.284274600097,,,,,,,,,,,,,,,,,,,,,,,,,,,,,,,,,,,,,,,,,,,,,,,,,,402.26865590002853,402.284274600097,402.7695020000683,402.78394940006547,402.8027440001024,402.8027440001024,402.8027440001024,403.8908240000019,Objects\068a.jpg,pre,s,1.0837031999835745,None,,,,,,,,00029,001,2026-01-21_11h42.53.652,MST_test,2024.2.0,59.80256778920867,2026-01-21 11h43.07.928920 +0530,
123,0,124,n,2.8107544999802485,None,124,0,123,403.90666770003736,,,,,,,,,,,,,,,,,,,,,,,,,,,,,,,,,,,,,,,,,,,,,,,,,,403.8909205000382,403.90666770003736,404.39203780004755,404.42444329999853,404.44256290001795,404.44256290001795,404.44256290001795,407.2695202000905,Scenes\185b.jpg,post,n,2.8107544999802485,None,,,,,,,,00029,001,2026-01-21_11h42.53.652,MST_test,2024.2.0,59.80256778920867,2026-01-21 11h43.07.928920 +0530,
124,0,125,o,1.691314100055024,None,125,0,124,407.28528470010497,,,,,,,,,,,,,,,,,,,,,,,,,,,,,,,,,,,,,,,,,,,,,,,,,,407.26961570000276,407.28528470010497,407.7704810000723,407.7869841000065,407.8037160000531,407.8037160000531,407.8037160000531,409.51022290007677,Objects\016a.jpg,post,o,1.691314100055024,None,,,,,,,,00029,001,2026-01-21_11h42.53.652,MST_test,2024.2.0,59.80256778920867,2026-01-21 11h43.07.928920 +0530,
125,0,126,s,3.4557496999623254,None,126,0,125,409.52645650005434,,,,,,,,,,,,,,,,,,,,,,,,,,,,,,,,,,,,,,,,,,,,,,,,,,409.5103522000136,409.52645650005434,410.0114189001033,410.03654390003067,410.0463493000716,410.0463493000716,410.0463493000716,413.5077183000976,Scenes\067a.jpg,post,s,3.4557496999623254,None,,,,,,,,00029,001,2026-01-21_11h42.53.652,MST_test,2024.2.0,59.80256778920867,2026-01-21 11h43.07.928920 +0530,
126,0,127,s,2.491969999973662,None,127,0,126,413.52377349999733,,,,,,,,,,,,,,,,,,,,,,,,,,,,,,,,,,,,,,,,,,,,,,,,,,413.50781030009966,413.52377349999733,414.00885740004014,414.05067970009986,414.05892840004526,414.05892840004526,414.05892840004526,416.55165490007494,Scenes\024b.jpg,mid,s,2.491969999973662,None,,,,,,,,00029,001,2026-01-21_11h42.53.652,MST_test,2024.2.0,59.80256778920867,2026-01-21 11h43.07.928920 +0530,
127,0,128,s,1.1436333999736235,None,128,0,127,416.56790160003584,,,,,,,,,,,,,,,,,,,,,,,,,,,,,,,,,,,,,,,,,,,,,,,,,,416.5517626000801,416.56790160003584,417.0527412000811,417.07736320002005,417.086219000048,417.086219000048,417.086219000048,418.2412497000769,Objects\081b.jpg,post,s,1.1436333999736235,None,,,,,,,,00029,001,2026-01-21_11h42.53.652,MST_test,2024.2.0,59.80256778920867,2026-01-21 11h43.07.928920 +0530,
128,0,129,s,0.88598959997762,None,129,0,128,418.2570177000016,,,,,,,,,,,,,,,,,,,,,,,,,,,,,,,,,,,,,,,,,,,,,,,,,,418.24134390009567,418.2570177000016,418.74223630002234,418.76435280009173,418.7753539000405,418.7753539000405,418.7753539000405,419.6625068000285,Objects\179b.jpg,post,s,0.88598959997762,None,,,,,,,,00029,001,2026-01-21_11h42.53.652,MST_test,2024.2.0,59.80256778920867,2026-01-21 11h43.07.928920 +0530,
129,0,130,s,1.0327292999718338,None,130,0,129,419.6786744000856,,,,,,,,,,,,,,,,,,,,,,,,,,,,,,,,,,,,,,,,,,,,,,,,,,419.6626020000549,419.6786744000856,420.1637603000272,420.1869046000065,420.1970344000729,420.1970344000729,420.1970344000729,421.2347765000304,Objects\063b.jpg,pre,s,1.0327292999718338,None,,,,,,,,00029,001,2026-01-21_11h42.53.652,MST_test,2024.2.0,59.80256778920867,2026-01-21 11h43.07.928920 +0530,
130,0,131,o,1.7642698999261484,None,131,0,130,421.2508518000832,,,,,,,,,,,,,,,,,,,,,,,,,,,,,,,,,,,,,,,,,,,,,,,,,,421.2348743000766,421.2508518000832,421.7358071000781,421.75025530008134,421.7692772001028,421.7692772001028,421.7692772001028,423.5428200000897,Objects\145a.jpg,mid,o,1.7642698999261484,None,,,,,,,,00029,001,2026-01-21_11h42.53.652,MST_test,2024.2.0,59.80256778920867,2026-01-21 11h43.07.928920 +0530,
131,0,132,s,0.9203047000337392,None,132,0,131,423.5587950000772,,,,,,,,,,,,,,,,,,,,,,,,,,,,,,,,,,,,,,,,,,,,,,,,,,423.54291280009784,423.5587950000772,424.0440187000204,424.08085890009534,424.0939692000393,424.0939692000393,424.0939692000393,425.031521200086,Scenes\133b.jpg,mid,s,0.9203047000337392,None,,,,,,,,00029,001,2026-01-21_11h42.53.652,MST_test,2024.2.0,59.80256778920867,2026-01-21 11h43.07.928920 +0530,
132,0,133,s,0.807013800018467,None,133,0,132,425.04747520003,,,,,,,,,,,,,,,,,,,,,,,,,,,,,,,,,,,,,,,,,,,,,,,,,,425.0316187000135,425.04747520003,425.53242840000894,425.57195480004884,425.58356670010835,425.58356670010835,425.58356670010835,426.4027093000477,Scenes\031b.jpg,pre,s,0.807013800018467,None,,,,,,,,00029,001,2026-01-21_11h42.53.652,MST_test,2024.2.0,59.80256778920867,2026-01-21 11h43.07.928920 +0530,
133,0,134,s,1.0836704999674112,None,134,0,133,426.4188089000527,,,,,,,,,,,,,,,,,,,,,,,,,,,,,,,,,,,,,,,,,,,,,,,,,,426.4028087001061,426.4188089000527,426.90401660010684,426.9203948000213,426.9382216000231,426.9382216000231,426.9382216000231,428.02574569999706,Objects\071a.jpg,pre,s,1.0836704999674112,None,,,,,,,,00029,001,2026-01-21_11h42.53.652,MST_test,2024.2.0,59.80256778920867,2026-01-21 11h43.07.928920 +0530,
134,0,135,n,1.3648150999797508,None,135,0,134,428.0414304001024,,,,,,,,,,,,,,,,,,,,,,,,,,,,,,,,,,,,,,,,,,,,,,,,,,428.02585360000376,428.0414304001024,428.5263500000583,428.54541020002216,428.56077810004354,428.56077810004354,428.56077810004354,429.9321271000663,Scenes\014a.jpg,pre,n,1.3648150999797508,None,,,,,,,,00029,001,2026-01-21_11h42.53.652,MST_test,2024.2.0,59.80256778920867,2026-01-21 11h43.07.928920 +0530,
135,0,136,s,1.4835983999073505,None,136,0,135,429.94856020004954,,,,,,,,,,,,,,,,,,,,,,,,,,,,,,,,,,,,,,,,,,,,,,,,,,429.9322223000927,429.94856020004954,430.43292540009134,430.455824600067,430.4663925000932,430.4663925000932,430.4663925000932,431.9555902000284,Foils\086a.jpg,none,s,1.4835983999073505,None,,,,,,,,00029,001,2026-01-21_11h42.53.652,MST_test,2024.2.0,59.80256778920867,2026-01-21 11h43.07.928920 +0530,
136,0,137,s,1.0663526999996975,None,137,0,136,431.9717096000677,,,,,,,,,,,,,,,,,,,,,,,,,,,,,,,,,,,,,,,,,,,,,,,,,,431.9556869000662,431.9717096000677,432.4566823000787,432.4944718000479,432.5079789001029,432.5079789001029,432.5079789001029,433.5778337001102,Scenes\187b.jpg,mid,s,1.0663526999996975,None,,,,,,,,00029,001,2026-01-21_11h42.53.652,MST_test,2024.2.0,59.80256778920867,2026-01-21 11h43.07.928920 +0530,
137,0,138,s,1.373042399995029,None,138,0,137,433.5941360000288,,,,,,,,,,,,,,,,,,,,,,,,,,,,,,,,,,,,,,,,,,,,,,,,,,433.5779289000202,433.5941360000288,434.07915880007204,434.11675330006983,434.1290881000459,434.1290881000459,434.1290881000459,435.51795010000933,Scenes\145b.jpg,mid,s,1.373042399995029,None,,,,,,,,00029,001,2026-01-21_11h42.53.652,MST_test,2024.2.0,59.80256778920867,2026-01-21 11h43.07.928920 +0530,
138,0,139,n,1.304226899985224,None,139,0,138,435.53424800001085,,,,,,,,,,,,,,,,,,,,,,,,,,,,,,,,,,,,,,,,,,,,,,,,,,435.51804450002965,435.53424800001085,436.0195972000947,436.03683370002545,436.053771100007,436.053771100007,436.053771100007,437.37437920004595,Foils\scenes30.jpg,none,n,1.304226899985224,None,,,,,,,,00029,001,2026-01-21_11h42.53.652,MST_test,2024.2.0,59.80256778920867,2026-01-21 11h43.07.928920 +0530,
139,0,140,s,1.4958669999614358,None,140,0,139,437.39085080008954,,,,,,,,,,,,,,,,,,,,,,,,,,,,,,,,,,,,,,,,,,,,,,,,,,437.37448240001686,437.39085080008954,437.8758249001112,437.8972994000651,437.9104308000533,437.9104308000533,437.9104308000533,439.41497490007896,Foils\066a.jpg,none,s,1.4958669999614358,None,,,,,,,,00029,001,2026-01-21_11h42.53.652,MST_test,2024.2.0,59.80256778920867,2026-01-21 11h43.07.928920 +0530,
140,0,141,n,1.1364536000182852,None,141,0,140,439.4312085000565,,,,,,,,,,,,,,,,,,,,,,,,,,,,,,,,,,,,,,,,,,,,,,,,,,439.4150685000932,439.4312085000565,439.9164242000552,439.93886019999627,439.9496549000032,439.9496549000032,439.9496549000032,441.0877033000579,Scenes\069a.jpg,pre,n,1.1364536000182852,None,,,,,,,,00029,001,2026-01-21_11h42.53.652,MST_test,2024.2.0,59.80256778920867,2026-01-21 11h43.07.928920 +0530,
141,0,142,s,1.0379178998991847,None,142,0,141,441.1036910000257,,,,,,,,,,,,,,,,,,,,,,,,,,,,,,,,,,,,,,,,,,,,,,,,,,441.08779710007366,441.1036910000257,441.5886994000757,441.63254150003195,441.65570970007684,441.65570970007684,441.65570970007684,442.7099122001091,Scenes\072b.jpg,post,s,1.0379178998991847,None,,,,,,,,00029,001,2026-01-21_11h42.53.652,MST_test,2024.2.0,59.80256778920867,2026-01-21 11h43.07.928920 +0530,
142,0,143,s,2.383793200016953,None,143,0,142,442.7261824000161,,,,,,,,,,,,,,,,,,,,,,,,,,,,,,,,,,,,,,,,,,,,,,,,,,442.7100058000069,442.7261824000161,443.2110200000461,443.2439926000079,443.2620173000032,443.2620173000032,443.2620173000032,445.654317800072,Scenes\155b.jpg,pre,s,2.383793200016953,None,,,,,,,,00029,001,2026-01-21_11h42.53.652,MST_test,2024.2.0,59.80256778920867,2026-01-21 11h43.07.928920 +0530,
143,0,144,n,0.7929846999468282,None,144,0,143,445.66967050009407,,,,,,,,,,,,,,,,,,,,,,,,,,,,,,,,,,,,,,,,,,,,,,,,,,445.6544107000809,445.66967050009407,446.1546495000366,446.17414080002345,446.18905670009553,446.18905670009553,446.18905670009553,446.9913907001028,Foils\scenes12.jpg,none,n,0.7929846999468282,None,,,,,,,,00029,001,2026-01-21_11h42.53.652,MST_test,2024.2.0,59.80256778920867,2026-01-21 11h43.07.928920 +0530,
144,0,145,s,1.8139778999611735,None,145,0,144,447.0078477000352,,,,,,,,,,,,,,,,,,,,,,,,,,,,,,,,,,,,,,,,,,,,,,,,,,446.9914877000265,447.0078477000352,447.49278140009847,447.5212218000088,447.5439757000422,447.5439757000422,447.5439757000422,449.36668470001314,Scenes\174a.jpg,mid,s,1.8139778999611735,None,,,,,,,,00029,001,2026-01-21_11h42.53.652,MST_test,2024.2.0,59.80256778920867,2026-01-21 11h43.07.928920 +0530,
145,0,146,n,1.3245244999416173,None,146,0,145,449.3827316000825,,,,,,,,,,,,,,,,,,,,,,,,,,,,,,,,,,,,,,,,,,,,,,,,,,449.3667837000685,449.3827316000825,449.8679065000033,449.9400042000925,449.96906680008397,449.96906680008397,449.96906680008397,451.30675070011057,Foils\scenes15.jpg,none,n,1.3245244999416173,None,,,,,,,,00029,001,2026-01-21_11h42.53.652,MST_test,2024.2.0,59.80256778920867,2026-01-21 11h43.07.928920 +0530,
146,0,147,s,1.5081522000255063,None,147,0,146,451.3228496001102,,,,,,,,,,,,,,,,,,,,,,,,,,,,,,,,,,,,,,,,,,,,,,,,,,451.30684980005026,451.3228496001102,451.80811390001327,451.82662480010185,451.8425200000638,451.8425200000638,451.8425200000638,453.3640342000872,Objects\192a.jpg,mid,s,1.5081522000255063,None,,,,,,,,00029,001,2026-01-21_11h42.53.652,MST_test,2024.2.0,59.80256778920867,2026-01-21 11h43.07.928920 +0530,
147,0,148,s,2.7143883000826463,None,148,0,147,453.38006080000196,,,,,,,,,,,,,,,,,,,,,,,,,,,,,,,,,,,,,,,,,,,,,,,,,,453.36413230001926,453.38006080000196,453.8652830000501,453.90493840002455,453.91642920009326,453.91642920009326,453.91642920009326,456.64232550002635,Scenes\002b.jpg,post,s,2.7143883000826463,None,,,,,,,,00029,001,2026-01-21_11h42.53.652,MST_test,2024.2.0,59.80256778920867,2026-01-21 11h43.07.928920 +0530,
148,0,149,s,1.6134008000371978,None,149,0,148,456.658055900014,,,,,,,,,,,,,,,,,,,,,,,,,,,,,,,,,,,,,,,,,,,,,,,,,,456.64242800010834,456.658055900014,457.1440485001076,457.1600955000613,457.1770227000816,457.1770227000816,457.1770227000816,458.7999221000355,Objects\078a.jpg,mid,s,1.6134008000371978,None,,,,,,,,00029,001,2026-01-21_11h42.53.652,MST_test,2024.2.0,59.80256778920867,2026-01-21 11h43.07.928920 +0530,
149,0,150,o,1.2471923000412062,None,150,0,149,458.8206859000493,,,,,,,,,,,,,,,,,,,,,,,,,,,,,,,,,,,,,,,,,,,,,,,,,,458.8000333000673,458.8206859000493,459.3008252000436,459.3234721000772,459.33424640004523,459.33424640004523,459.33424640004523,460.58925840002485,Objects\027b.jpg,mid,o,1.2471923000412062,None,,,,,,,,00029,001,2026-01-21_11h42.53.652,MST_test,2024.2.0,59.80256778920867,2026-01-21 11h43.07.928920 +0530,
,,,,,,,,,,,,,,,,,,,,,,,,,,,,,,,,,,,,,,,,,,,,,,,,,,,,,,,,,,,,,,,,,,,,,,,,460.5893217000412,460.6052905000979,460.6052905000979,464.3027253000764,space,3.6880577999399975,None,00029,001,2026-01-21_11h42.53.652,MST_test,2024.2.0,59.80256778920867,2026-01-21 11h43.07.928920 +0530,
