thisN,thisTrialN,thisRepN,key_resp_3.keys,key_resp_3.rt,key_resp_3.duration,trials.thisRepN,trials.thisTrialN,trials.thisN,thisRow.t,notes,intro_page.started,text.started,key_resp.started,intro_page.stopped,key_resp.keys,key_resp.rt,key_resp.duration,instructions.started,text_2.started,key_resp_2.started,instructions.stopped,key_resp_2.keys,key_resp_2.rt,key_resp_2.duration,demo1.started,image_1.started,image_2.started,text_7.started,key_resp_6.started,text_9.started,demo1.stopped,key_resp_6.keys,key_resp_6.rt,key_resp_6.duration,demo2.started,image_5.started,image_6.started,text_11.started,text_12.started,key_resp_8.started,demo2.stopped,key_resp_8.keys,key_resp_8.rt,key_resp_8.duration,demo_conclusion.started,text_13.started,key_resp_9.started,demo_conclusion.stopped,key_resp_9.keys,key_resp_9.rt,key_resp_9.duration,start_test.started,text_6.started,key_resp_5.started,start_test.stopped,key_resp_5.keys,key_resp_5.rt,key_resp_5.duration,ISI.started,text_4.started,text_4.stopped,ISI.stopped,routine_1.started,image.started,text_3.started,key_resp_3.started,routine_1.stopped,image_path,position_of_stimuli,trials.key_resp_3.keys,trials.key_resp_3.rt,trials.key_resp_3.duration,End_page.started,text_5.started,key_resp_4.started,End_page.stopped,key_resp_4.keys,key_resp_4.rt,key_resp_4.duration,participant,session,date,expName,psychopyVersion,frameRate,expStart,
,,,,,,,,,,,0.001241300007677637,0.002898800012189895,0.002898800012189895,4.084885700009181,space,4.070036299992353,None,,,,,,,,,,,,,,,,,,,,,,,,,,,,,,,,,,,,,,,,,,,,,,,,,,,,,,,,,,,,,,,00028,001,2026-01-20_22h09.36.854,MST_test,2024.2.0,60.02894595976657,2026-01-20 22h09.44.941525 +0530,
,,,,,,,,,,,,,,,,,,4.084962200009613,4.096321100005298,4.096321100005298,12.311699900004896,space,8.209252300002845,None,,,,,,,,,,,,,,,,,,,,,,,,,,,,,,,,,,,,,,,,,,,,,,,,,,,,,,,,00028,001,2026-01-20_22h09.36.854,MST_test,2024.2.0,60.02894595976657,2026-01-20 22h09.44.941525 +0530,
,,,,,,,,,,,,,,,,,,,,,,,,,12.311753100002534,12.350061600009212,12.350061600009212,12.350061600009212,12.350061600009212,12.350061600009212,31.245542400007253,space,18.88353440001083,None,,,,,,,,,,,,,,,,,,,,,,,,,,,,,,,,,,,,,,,,,,,,,,00028,001,2026-01-20_22h09.36.854,MST_test,2024.2.0,60.02894595976657,2026-01-20 22h09.44.941525 +0530,
,,,,,,,,,,,,,,,,,,,,,,,,,,,,,,,,,,,31.245665599999484,31.261484900009236,31.261484900009236,31.261484900009236,31.261484900009236,31.261484900009236,35.0621189000085,space,3.787959699999192,None,,,,,,,,,,,,,,,,,,,,,,,,,,,,,,,,,,,,00028,001,2026-01-20_22h09.36.854,MST_test,2024.2.0,60.02894595976657,2026-01-20 22h09.44.941525 +0530,
,,,,,,,,,,,,,,,,,,,,,,,,,,,,,,,,,,,,,,,,,,,,,35.06221709999954,35.077953300002264,35.077953300002264,116.678367600005,space,81.59519959999307,None,,,,,,,,,,,,,,,,,,,,,,,,,,,,,00028,001,2026-01-20_22h09.36.854,MST_test,2024.2.0,60.02894595976657,2026-01-20 22h09.44.941525 +0530,
,,,,,,,,,,,,,,,,,,,,,,,,,,,,,,,,,,,,,,,,,,,,,,,,,,,,116.67850340000587,116.69447870001022,116.69447870001022,132.74497440000414,space,16.034262999994098,None,,,,,,,,,,,,,,,,,,,,,,00028,001,2026-01-20_22h09.36.854,MST_test,2024.2.0,60.02894595976657,2026-01-20 22h09.44.941525 +0530,
0,0,1,n,6.2921180999983335,None,1,0,0,132.76099750000867,,,,,,,,,,,,,,,,,,,,,,,,,,,,,,,,,,,,,,,,,,,,,,,,,,132.75371870001254,132.76099750000867,133.2768389999983,133.2449278999993,133.27438670000993,133.2768389999983,133.2768389999983,133.2768389999983,139.5784330000024,Foils\scenes23.jpg,none,n,6.2921180999983335,None,,,,,,,,00028,001,2026-01-20_22h09.36.854,MST_test,2024.2.0,60.02894595976657,2026-01-20 22h09.44.941525 +0530,
1,0,2,o,6.5915251999977045,None,2,0,1,139.59437970000727,,,,,,,,,,,,,,,,,,,,,,,,,,,,,,,,,,,,,,,,,,,,,,,,,,139.57882080000127,139.59437970000727,140.10531090000586,140.0783642000024,140.10308250000526,140.10531090000586,140.10531090000586,140.10531090000586,146.71194470000046,Scenes\071a.jpg,mid,o,6.5915251999977045,None,,,,,,,,00028,001,2026-01-20_22h09.36.854,MST_test,2024.2.0,60.02894595976657,2026-01-20 22h09.44.941525 +0530,
2,0,3,o,4.317127899994375,None,3,0,2,146.727947700012,,,,,,,,,,,,,,,,,,,,,,,,,,,,,,,,,,,,,,,,,,,,,,,,,,146.71231430000626,146.727947700012,147.22784469999897,147.211758800011,147.22312390001025,147.22784469999897,147.22784469999897,147.22784469999897,151.56203440000536,Objects\134a.jpg,pre,o,4.317127899994375,None,,,,,,,,00028,001,2026-01-20_22h09.36.854,MST_test,2024.2.0,60.02894595976657,2026-01-20 22h09.44.941525 +0530,
3,0,4,s,4.027247999998508,None,4,0,3,151.57769360000384,,,,,,,,,,,,,,,,,,,,,,,,,,,,,,,,,,,,,,,,,,,,,,,,,,151.56243330000143,151.57769360000384,152.07815690001007,152.06172450000304,152.07015450000472,152.07815690001007,152.07815690001007,152.07815690001007,156.11191400000826,Objects\124b.jpg,pre,s,4.027247999998508,None,,,,,,,,00028,001,2026-01-20_22h09.36.854,MST_test,2024.2.0,60.02894595976657,2026-01-20 22h09.44.941525 +0530,
4,0,5,s,2.713755899996613,None,5,0,4,156.12794869999925,,,,,,,,,,,,,,,,,,,,,,,,,,,,,,,,,,,,,,,,,,,,,,,,,,156.11232060000475,156.12794869999925,156.65559819999908,156.61146130000998,156.65292710000358,156.65559819999908,156.65559819999908,156.65559819999908,159.37840630000574,Scenes\052b.jpg,post,s,2.713755899996613,None,,,,,,,,00028,001,2026-01-20_22h09.36.854,MST_test,2024.2.0,60.02894595976657,2026-01-20 22h09.44.941525 +0530,
5,0,6,o,4.546389600000111,None,6,0,5,159.3943108000094,,,,,,,,,,,,,,,,,,,,,,,,,,,,,,,,,,,,,,,,,,,,,,,,,,159.3787672000035,159.3943108000094,159.89501440001186,159.87833500000124,159.8925772000075,159.89501440001186,159.89501440001186,159.89501440001186,164.44536090000474,Scenes\116b.jpg,pre,o,4.546389600000111,None,,,,,,,,00028,001,2026-01-20_22h09.36.854,MST_test,2024.2.0,60.02894595976657,2026-01-20 22h09.44.941525 +0530,
6,0,7,o,2.0384954000037396,None,7,0,6,164.4613618000003,,,,,,,,,,,,,,,,,,,,,,,,,,,,,,,,,,,,,,,,,,,,,,,,,,164.4458139000053,164.4613618000003,164.9628714999999,164.94466430001194,164.9604044000007,164.9628714999999,164.9628714999999,164.9628714999999,167.01190720000886,Scenes\175a.jpg,pre,o,2.0384954000037396,None,,,,,,,,00028,001,2026-01-20_22h09.36.854,MST_test,2024.2.0,60.02894595976657,2026-01-20 22h09.44.941525 +0530,
7,0,8,o,6.704389499995159,None,8,0,7,167.02792330000375,,,,,,,,,,,,,,,,,,,,,,,,,,,,,,,,,,,,,,,,,,,,,,,,,,167.01226800000586,167.02792330000375,167.5283114000049,167.51167250001163,167.52363320000586,167.5283114000049,167.5283114000049,167.5283114000049,174.24532090000866,Objects\063b.jpg,mid,o,6.704389499995159,None,,,,,,,,00028,001,2026-01-20_22h09.36.854,MST_test,2024.2.0,60.02894595976657,2026-01-20 22h09.44.941525 +0530,
8,0,9,s,1.696071900005336,None,9,0,8,174.26137220000965,,,,,,,,,,,,,,,,,,,,,,,,,,,,,,,,,,,,,,,,,,,,,,,,,,174.24567040000693,174.26137220000965,174.76129700000456,174.7448480000021,174.75259509999887,174.76129700000456,174.76129700000456,174.76129700000456,176.46202760000597,Objects\136a.jpg,mid,s,1.696071900005336,None,,,,,,,,00028,001,2026-01-20_22h09.36.854,MST_test,2024.2.0,60.02894595976657,2026-01-20 22h09.44.941525 +0530,
9,0,10,s,1.9594629000057466,None,10,0,9,176.47793520000414,,,,,,,,,,,,,,,,,,,,,,,,,,,,,,,,,,,,,,,,,,,,,,,,,,176.46241230001033,176.47793520000414,176.97784040000988,176.96174260000407,176.96986270000343,176.97784040000988,176.97784040000988,176.97784040000988,178.94533339999907,Objects\171a.jpg,post,s,1.9594629000057466,None,,,,,,,,00028,001,2026-01-20_22h09.36.854,MST_test,2024.2.0,60.02894595976657,2026-01-20 22h09.44.941525 +0530,
10,0,11,s,3.4832096000027377,None,11,0,10,178.96135440000216,,,,,,,,,,,,,,,,,,,,,,,,,,,,,,,,,,,,,,,,,,,,,,,,,,178.945681600002,178.96135440000216,179.4615940000076,179.44509550000657,179.4536805000098,179.4615940000076,179.4615940000076,179.4615940000076,182.94549290000577,Objects\164b.jpg,post,s,3.4832096000027377,None,,,,,,,,00028,001,2026-01-20_22h09.36.854,MST_test,2024.2.0,60.02894595976657,2026-01-20 22h09.44.941525 +0530,
11,0,12,s,3.1400958000012906,None,12,0,11,182.96134840000013,,,,,,,,,,,,,,,,,,,,,,,,,,,,,,,,,,,,,,,,,,,,,,,,,,182.94584600000235,182.96134840000013,183.46124119999877,183.44461750000482,183.45209410000825,183.46124119999877,183.46124119999877,183.46124119999877,186.61204230001022,Objects\038a.jpg,mid,s,3.1400958000012906,None,,,,,,,,00028,001,2026-01-20_22h09.36.854,MST_test,2024.2.0,60.02894595976657,2026-01-20 22h09.44.941525 +0530,
12,0,13,o,1.6297011999995448,None,13,0,12,186.62795090000145,,,,,,,,,,,,,,,,,,,,,,,,,,,,,,,,,,,,,,,,,,,,,,,,,,186.61241900001187,186.62795090000145,187.13114770001266,187.11178859999927,187.12890630000038,187.13114770001266,187.13114770001266,187.13114770001266,188.76191840000683,Scenes\122a.jpg,pre,o,1.6297011999995448,None,,,,,,,,00028,001,2026-01-20_22h09.36.854,MST_test,2024.2.0,60.02894595976657,2026-01-20 22h09.44.941525 +0530,
13,0,14,n,4.3712165000033565,None,14,0,13,188.77762610001082,,,,,,,,,,,,,,,,,,,,,,,,,,,,,,,,,,,,,,,,,,,,,,,,,,188.76229810000223,188.77762610001082,189.2781216000003,189.26149750000332,189.26859940000577,189.2781216000003,189.2781216000003,189.2781216000003,193.662067199999,Foils\scenes3.jpg,none,n,4.3712165000033565,None,,,,,,,,00028,001,2026-01-20_22h09.36.854,MST_test,2024.2.0,60.02894595976657,2026-01-20 22h09.44.941525 +0530,
14,0,15,n,1.5262805999955162,None,15,0,14,193.67932130000554,,,,,,,,,,,,,,,,,,,,,,,,,,,,,,,,,,,,,,,,,,,,,,,,,,193.66251660000125,193.67932130000554,,194.17795050000132,194.19070310000097,194.19504810000944,194.19504810000944,194.19504810000944,195.72863520000828,Foils\009a.jpg,none,n,1.5262805999955162,None,,,,,,,,00028,001,2026-01-20_22h09.36.854,MST_test,2024.2.0,60.02894595976657,2026-01-20 22h09.44.941525 +0530,
15,0,16,o,2.9082041999936337,None,16,0,15,195.74469980000868,,,,,,,,,,,,,,,,,,,,,,,,,,,,,,,,,,,,,,,,,,,,,,,,,,195.72902389999945,195.74469980000868,196.24472450000758,196.2283679000102,196.23711280000862,196.24472450000758,196.24472450000758,196.24472450000758,199.16203060001135,Objects\132a.jpg,pre,o,2.9082041999936337,None,,,,,,,,00028,001,2026-01-20_22h09.36.854,MST_test,2024.2.0,60.02894595976657,2026-01-20 22h09.44.941525 +0530,
16,0,17,n,1.9792214000044623,None,17,0,16,199.1779591000086,,,,,,,,,,,,,,,,,,,,,,,,,,,,,,,,,,,,,,,,,,,,,,,,,,199.16240700001072,199.1779591000086,199.67814800000633,199.66145939999842,199.6702390999999,199.67814800000633,199.67814800000633,199.67814800000633,201.66202260000864,Foils\113a.jpg,none,n,1.9792214000044623,None,,,,,,,,00028,001,2026-01-20_22h09.36.854,MST_test,2024.2.0,60.02894595976657,2026-01-20 22h09.44.941525 +0530,
17,0,18,o,1.9663970999972662,None,18,0,17,201.67796010000166,,,,,,,,,,,,,,,,,,,,,,,,,,,,,,,,,,,,,,,,,,,,,,,,,,201.66240950000065,201.67796010000166,202.1783135000005,202.16182030001073,202.17480140000407,202.1783135000005,202.1783135000005,202.1783135000005,204.14543000000413,Scenes\051a.jpg,post,o,1.9663970999972662,None,,,,,,,,00028,001,2026-01-20_22h09.36.854,MST_test,2024.2.0,60.02894595976657,2026-01-20 22h09.44.941525 +0530,
18,0,19,s,7.313838800007943,None,19,0,18,204.16126290000102,,,,,,,,,,,,,,,,,,,,,,,,,,,,,,,,,,,,,,,,,,,,,,,,,,204.1457839000068,204.16126290000102,204.66349930000433,204.645703400005,204.6607914000051,204.66349930000433,204.66349930000433,204.66349930000433,211.97881230000348,Scenes\030a.jpg,pre,s,7.313838800007943,None,,,,,,,,00028,001,2026-01-20_22h09.36.854,MST_test,2024.2.0,60.02894595976657,2026-01-20 22h09.44.941525 +0530,
19,0,20,o,2.682216099987272,None,20,0,19,211.99468390000402,,,,,,,,,,,,,,,,,,,,,,,,,,,,,,,,,,,,,,,,,,,,,,,,,,211.97920650000742,211.99468390000402,212.49505450000288,212.47905150000588,212.49031190000824,212.49505450000288,212.49505450000288,212.49505450000288,215.17887170000176,Objects\108a.jpg,post,o,2.682216099987272,None,,,,,,,,00028,001,2026-01-20_22h09.36.854,MST_test,2024.2.0,60.02894595976657,2026-01-20 22h09.44.941525 +0530,
20,0,21,o,2.4984101000009105,None,21,0,20,215.1950879000069,,,,,,,,,,,,,,,,,,,,,,,,,,,,,,,,,,,,,,,,,,,,,,,,,,215.17925590000232,215.1950879000069,215.69474640001135,215.6782247000083,215.68618870001228,215.69474640001135,215.69474640001135,215.69474640001135,218.1949808000063,Objects\047a.jpg,post,o,2.4984101000009105,None,,,,,,,,00028,001,2026-01-20_22h09.36.854,MST_test,2024.2.0,60.02894595976657,2026-01-20 22h09.44.941525 +0530,
21,0,22,n,2.2410709999967366,None,22,0,21,218.21125830001256,,,,,,,,,,,,,,,,,,,,,,,,,,,,,,,,,,,,,,,,,,,,,,,,,,218.19536070000322,218.21125830001256,218.7119112000073,218.6950465000118,218.70184580000932,218.7119112000073,218.7119112000073,218.7119112000073,220.96204920001037,Foils\scenes4.jpg,none,n,2.2410709999967366,None,,,,,,,,00028,001,2026-01-20_22h09.36.854,MST_test,2024.2.0,60.02894595976657,2026-01-20 22h09.44.941525 +0530,
22,0,23,o,2.378357199995662,None,23,0,22,220.9779578000016,,,,,,,,,,,,,,,,,,,,,,,,,,,,,,,,,,,,,,,,,,,,,,,,,,220.9624535000039,220.9779578000016,221.47834520001197,221.46160920000693,221.4705113000091,221.47834520001197,221.47834520001197,221.47834520001197,223.8621458000125,Objects\173b.jpg,pre,o,2.378357199995662,None,,,,,,,,00028,001,2026-01-20_22h09.36.854,MST_test,2024.2.0,60.02894595976657,2026-01-20 22h09.44.941525 +0530,
23,0,24,s,2.4629817999957595,None,24,0,23,223.87795840000035,,,,,,,,,,,,,,,,,,,,,,,,,,,,,,,,,,,,,,,,,,,,,,,,,,223.8625461000047,223.87795840000035,224.41034210000362,224.36164210000425,224.40826710000692,224.41034210000362,224.41034210000362,224.41034210000362,226.87863960000686,Objects\002b.jpg,mid,s,2.4629817999957595,None,,,,,,,,00028,001,2026-01-20_22h09.36.854,MST_test,2024.2.0,60.02894595976657,2026-01-20 22h09.44.941525 +0530,
24,0,25,s,3.931034000008367,None,25,0,24,226.89436470001237,,,,,,,,,,,,,,,,,,,,,,,,,,,,,,,,,,,,,,,,,,,,,,,,,,226.87899120000657,226.89436470001237,227.39795060000324,227.37845709999965,227.39563110000745,227.39795060000324,227.39795060000324,227.39795060000324,231.3450901000033,Scenes\145b.jpg,post,s,3.931034000008367,None,,,,,,,,00028,001,2026-01-20_22h09.36.854,MST_test,2024.2.0,60.02894595976657,2026-01-20 22h09.44.941525 +0530,
25,0,26,o,2.0187439000001177,None,26,0,25,231.36133700000937,,,,,,,,,,,,,,,,,,,,,,,,,,,,,,,,,,,,,,,,,,,,,,,,,,231.3454541000101,231.36133700000937,231.86192570001003,231.8449726000108,231.8564211000048,231.86192570001003,231.86192570001003,231.86192570001003,233.89523560000816,Objects\042b.jpg,post,o,2.0187439000001177,None,,,,,,,,00028,001,2026-01-20_22h09.36.854,MST_test,2024.2.0,60.02894595976657,2026-01-20 22h09.44.941525 +0530,
26,0,27,o,2.892189000005601,None,27,0,26,233.9113398000045,,,,,,,,,,,,,,,,,,,,,,,,,,,,,,,,,,,,,,,,,,,,,,,,,,233.89560190000338,233.9113398000045,234.41312160000962,234.39504950000264,234.4047955999995,234.41312160000962,234.41312160000962,234.41312160000962,237.31199700001162,Scenes\033b.jpg,mid,o,2.892189000005601,None,,,,,,,,00028,001,2026-01-20_22h09.36.854,MST_test,2024.2.0,60.02894595976657,2026-01-20 22h09.44.941525 +0530,
27,0,28,n,1.8608437000075355,None,28,0,27,237.32800380000845,,,,,,,,,,,,,,,,,,,,,,,,,,,,,,,,,,,,,,,,,,,,,,,,,,237.31234889999905,237.32800380000845,237.82847950000723,237.8116946000082,237.81867639999837,237.82847950000723,237.82847950000723,237.82847950000723,239.69562530000985,Foils\scenes20.jpg,none,n,1.8608437000075355,None,,,,,,,,00028,001,2026-01-20_22h09.36.854,MST_test,2024.2.0,60.02894595976657,2026-01-20 22h09.44.941525 +0530,
28,0,29,o,2.1608973999973387,None,29,0,28,239.71101620000263,,,,,,,,,,,,,,,,,,,,,,,,,,,,,,,,,,,,,,,,,,,,,,,,,,239.6960262000066,239.71101620000263,240.23247950000223,240.1948190000112,240.23025880000205,240.23247950000223,240.23247950000223,240.23247950000223,242.39497670000128,Objects\123b.jpg,mid,o,2.1608973999973387,None,,,,,,,,00028,001,2026-01-20_22h09.36.854,MST_test,2024.2.0,60.02894595976657,2026-01-20 22h09.44.941525 +0530,
29,0,30,o,1.369040399993537,None,30,0,29,242.41135520000535,,,,,,,,,,,,,,,,,,,,,,,,,,,,,,,,,,,,,,,,,,,,,,,,,,242.39535600000818,242.41135520000535,242.9116028999997,242.89503130000958,242.90437910000037,242.9116028999997,242.9116028999997,242.9116028999997,244.29531830000633,Objects\118b.jpg,mid,o,1.369040399993537,None,,,,,,,,00028,001,2026-01-20_22h09.36.854,MST_test,2024.2.0,60.02894595976657,2026-01-20 22h09.44.941525 +0530,
30,0,31,n,1.763775599989458,None,31,0,30,244.31136580000748,,,,,,,,,,,,,,,,,,,,,,,,,,,,,,,,,,,,,,,,,,,,,,,,,,244.29569600000104,244.31136580000748,244.81354790000478,244.79501170000003,244.81044929999916,244.81354790000478,244.81354790000478,244.81354790000478,246.57887130000745,Scenes\121b.jpg,post,n,1.763775599989458,None,,,,,,,,00028,001,2026-01-20_22h09.36.854,MST_test,2024.2.0,60.02894595976657,2026-01-20 22h09.44.941525 +0530,
31,0,32,o,1.6495961000036914,None,32,0,31,246.5946016000089,,,,,,,,,,,,,,,,,,,,,,,,,,,,,,,,,,,,,,,,,,,,,,,,,,246.57925090000208,246.5946016000089,247.09516680000525,247.07843460000004,247.08722720001242,247.09516680000525,247.09516680000525,247.09516680000525,248.7618466999993,Objects\150a.jpg,mid,o,1.6495961000036914,None,,,,,,,,00028,001,2026-01-20_22h09.36.854,MST_test,2024.2.0,60.02894595976657,2026-01-20 22h09.44.941525 +0530,
32,0,33,o,1.8344991999911144,None,33,0,32,248.77804460001062,,,,,,,,,,,,,,,,,,,,,,,,,,,,,,,,,,,,,,,,,,,,,,,,,,248.76219890000357,248.77804460001062,249.27820290000818,249.2617384000041,249.27552500000456,249.27820290000818,249.27820290000818,249.27820290000818,251.12867760000518,Scenes\160a.jpg,pre,o,1.8344991999911144,None,,,,,,,,00028,001,2026-01-20_22h09.36.854,MST_test,2024.2.0,60.02894595976657,2026-01-20 22h09.44.941525 +0530,
33,0,34,o,2.1277766000130214,None,34,0,33,251.14460400000098,,,,,,,,,,,,,,,,,,,,,,,,,,,,,,,,,,,,,,,,,,,,,,,,,,251.129027700008,251.14460400000098,251.64951010000368,251.6280834000063,251.64671530001215,251.64951010000368,251.64951010000368,251.64951010000368,253.7788128000102,Scenes\043b.jpg,post,o,2.1277766000130214,None,,,,,,,,00028,001,2026-01-20_22h09.36.854,MST_test,2024.2.0,60.02894595976657,2026-01-20 22h09.44.941525 +0530,
34,0,35,n,1.7138015999953495,None,35,0,34,253.7946219000005,,,,,,,,,,,,,,,,,,,,,,,,,,,,,,,,,,,,,,,,,,,,,,,,,,253.7791903000034,253.7946219000005,254.29527729999973,254.27830180000456,254.29115220000676,254.29527729999973,254.29527729999973,254.29527729999973,256.0120203000115,Scenes\162b.jpg,pre,n,1.7138015999953495,None,,,,,,,,00028,001,2026-01-20_22h09.36.854,MST_test,2024.2.0,60.02894595976657,2026-01-20 22h09.44.941525 +0530,
35,0,36,o,2.464426699996693,None,36,0,35,256.027880300011,,,,,,,,,,,,,,,,,,,,,,,,,,,,,,,,,,,,,,,,,,,,,,,,,,256.01241030001256,256.027880300011,256.52855120001186,256.5117517000035,256.520634600005,256.52855120001186,256.52855120001186,256.52855120001186,258.99498990000575,Objects\165b.jpg,mid,o,2.464426699996693,None,,,,,,,,00028,001,2026-01-20_22h09.36.854,MST_test,2024.2.0,60.02894595976657,2026-01-20 22h09.44.941525 +0530,
36,0,37,o,1.4223608000029344,None,37,0,36,259.0110482000018,,,,,,,,,,,,,,,,,,,,,,,,,,,,,,,,,,,,,,,,,,,,,,,,,,258.99534010000934,259.0110482000018,,259.4956419000082,259.5121025000117,259.5145207000023,259.5145207000023,259.5145207000023,260.9450351000123,Scenes\021b.jpg,mid,o,1.4223608000029344,None,,,,,,,,00028,001,2026-01-20_22h09.36.854,MST_test,2024.2.0,60.02894595976657,2026-01-20 22h09.44.941525 +0530,
37,0,38,n,1.4508079000079306,None,38,0,37,260.96112300000095,,,,,,,,,,,,,,,,,,,,,,,,,,,,,,,,,,,,,,,,,,,,,,,,,,260.94532590000017,260.96112300000095,261.4618507999985,261.444982800007,261.45187260000966,261.4618507999985,261.4618507999985,261.4618507999985,262.9285635000124,Foils\scenes18.jpg,none,n,1.4508079000079306,None,,,,,,,,00028,001,2026-01-20_22h09.36.854,MST_test,2024.2.0,60.02894595976657,2026-01-20 22h09.44.941525 +0530,
38,0,39,o,3.2835470999998506,None,39,0,38,262.94429850000597,,,,,,,,,,,,,,,,,,,,,,,,,,,,,,,,,,,,,,,,,,,,,,,,,,262.92893449999974,262.94429850000597,263.4454373000044,263.42840360000264,263.4430318000086,263.4454373000044,263.4454373000044,263.4454373000044,266.74529859999893,Scenes\126a.jpg,mid,o,3.2835470999998506,None,,,,,,,,00028,001,2026-01-20_22h09.36.854,MST_test,2024.2.0,60.02894595976657,2026-01-20 22h09.44.941525 +0530,
39,0,40,o,1.3152103000029456,None,40,0,39,266.7613771000033,,,,,,,,,,,,,,,,,,,,,,,,,,,,,,,,,,,,,,,,,,,,,,,,,,266.74564980001014,266.7613771000033,267.2620853000117,267.2450039000105,267.25953540000774,267.2620853000117,267.2620853000117,267.2620853000117,268.5788472999993,Scenes\109a.jpg,post,o,1.3152103000029456,None,,,,,,,,00028,001,2026-01-20_22h09.36.854,MST_test,2024.2.0,60.02894595976657,2026-01-20 22h09.44.941525 +0530,
40,0,41,o,1.7538304000045173,None,41,0,40,268.59464290000324,,,,,,,,,,,,,,,,,,,,,,,,,,,,,,,,,,,,,,,,,,,,,,,,,,268.5792310000106,268.59464290000324,269.0949709999986,269.07829910000146,269.0875276000006,269.0949709999986,269.0949709999986,269.0949709999986,270.8618820999982,Objects\097b.jpg,mid,o,1.7538304000045173,None,,,,,,,,00028,001,2026-01-20_22h09.36.854,MST_test,2024.2.0,60.02894595976657,2026-01-20 22h09.44.941525 +0530,
41,0,42,o,1.7258387000038056,None,42,0,41,270.8778186999989,,,,,,,,,,,,,,,,,,,,,,,,,,,,,,,,,,,,,,,,,,,,,,,,,,270.86223920001066,270.8778186999989,271.3785659999994,271.3617344000086,271.37030570000934,271.3785659999994,271.3785659999994,271.3785659999994,273.11137900000904,Scenes\139a.jpg,post,o,1.7258387000038056,None,,,,,,,,00028,001,2026-01-20_22h09.36.854,MST_test,2024.2.0,60.02894595976657,2026-01-20 22h09.44.941525 +0530,
42,0,43,o,3.132139000008465,None,43,0,42,273.12769170000684,,,,,,,,,,,,,,,,,,,,,,,,,,,,,,,,,,,,,,,,,,,,,,,,,,273.1114898000087,273.12769170000684,,273.6115248999995,273.6206877000077,273.62856840000313,273.62856840000313,273.62856840000313,276.76184680000006,Objects\007b.jpg,post,o,3.132139000008465,None,,,,,,,,00028,001,2026-01-20_22h09.36.854,MST_test,2024.2.0,60.02894595976657,2026-01-20 22h09.44.941525 +0530,
43,0,44,o,1.807567600000766,None,44,0,43,276.77803570000106,,,,,,,,,,,,,,,,,,,,,,,,,,,,,,,,,,,,,,,,,,,,,,,,,,276.76224750000983,276.77803570000106,277.281765000007,277.26158679999935,277.2794453000097,277.281765000007,277.281765000007,277.281765000007,279.09531460001017,Scenes\003a.jpg,mid,o,1.807567600000766,None,,,,,,,,00028,001,2026-01-20_22h09.36.854,MST_test,2024.2.0,60.02894595976657,2026-01-20 22h09.44.941525 +0530,
44,0,45,n,1.7328077999991365,None,45,0,44,279.1113508000126,,,,,,,,,,,,,,,,,,,,,,,,,,,,,,,,,,,,,,,,,,,,,,,,,,279.0956944000063,279.1113508000126,279.61190020000504,279.5949957999983,279.60254170000553,279.61190020000504,279.61190020000504,279.61190020000504,281.3453343000001,Foils\scenes30.jpg,none,n,1.7328077999991365,None,,,,,,,,00028,001,2026-01-20_22h09.36.854,MST_test,2024.2.0,60.02894595976657,2026-01-20 22h09.44.941525 +0530,
45,0,46,s,3.266252000001259,None,46,0,45,281.3613008000102,,,,,,,,,,,,,,,,,,,,,,,,,,,,,,,,,,,,,,,,,,,,,,,,,,281.3457219999982,281.3613008000102,281.8870683999994,281.8449970000074,281.88476739999896,281.8870683999994,281.8870683999994,281.8870683999994,285.162467800008,Scenes\110b.jpg,mid,s,3.266252000001259,None,,,,,,,,00028,001,2026-01-20_22h09.36.854,MST_test,2024.2.0,60.02894595976657,2026-01-20 22h09.44.941525 +0530,
46,0,47,n,1.8589088000007905,None,47,0,46,285.1776985000033,,,,,,,,,,,,,,,,,,,,,,,,,,,,,,,,,,,,,,,,,,,,,,,,,,285.1628480000072,285.1776985000033,285.6783337000088,285.66156330000376,285.67063210000924,285.6783337000088,285.6783337000088,285.6783337000088,287.5453103000036,Foils\081a.jpg,none,n,1.8589088000007905,None,,,,,,,,00028,001,2026-01-20_22h09.36.854,MST_test,2024.2.0,60.02894595976657,2026-01-20 22h09.44.941525 +0530,
47,0,48,o,5.376484200009145,None,48,0,47,287.56134590000147,,,,,,,,,,,,,,,,,,,,,,,,,,,,,,,,,,,,,,,,,,,,,,,,,,287.54569210000045,287.56134590000147,288.1523728000029,288.0450068000064,288.150278400004,288.1523728000029,288.1523728000029,288.1523728000029,293.5452268000081,Objects\191b.jpg,mid,o,5.376484200009145,None,,,,,,,,00028,001,2026-01-20_22h09.36.854,MST_test,2024.2.0,60.02894595976657,2026-01-20 22h09.44.941525 +0530,
48,0,49,o,4.171065499991528,None,49,0,48,293.5611164000002,,,,,,,,,,,,,,,,,,,,,,,,,,,,,,,,,,,,,,,,,,,,,,,,,,293.5456237000035,293.5611164000002,294.06161150000116,294.04512610001257,294.05831740000576,294.06161150000116,294.06161150000116,294.06161150000116,298.2453853000043,Scenes\180b.jpg,pre,o,4.171065499991528,None,,,,,,,,00028,001,2026-01-20_22h09.36.854,MST_test,2024.2.0,60.02894595976657,2026-01-20 22h09.44.941525 +0530,
49,0,50,o,1.9670593999908306,None,50,0,49,298.2613027000043,,,,,,,,,,,,,,,,,,,,,,,,,,,,,,,,,,,,,,,,,,,,,,,,,,298.24587150001025,298.2613027000043,298.7616116999998,298.7450320000062,298.7550845000078,298.7616116999998,298.7616116999998,298.7616116999998,300.74538480000047,Objects\062a.jpg,pre,o,1.9670593999908306,None,,,,,,,,00028,001,2026-01-20_22h09.36.854,MST_test,2024.2.0,60.02894595976657,2026-01-20 22h09.44.941525 +0530,
50,0,51,n,1.4917313000041759,None,51,0,50,300.7612901000102,,,,,,,,,,,,,,,,,,,,,,,,,,,,,,,,,,,,,,,,,,,,,,,,,,300.74577160000626,300.7612901000102,301.26153160000104,301.24509290000424,301.25061980000464,301.26153160000104,301.26153160000104,301.26153160000104,302.7620040000038,Foils\002a.jpg,none,n,1.4917313000041759,None,,,,,,,,00028,001,2026-01-20_22h09.36.854,MST_test,2024.2.0,60.02894595976657,2026-01-20 22h09.44.941525 +0530,
51,0,52,o,2.21854170000006,None,52,0,51,302.7780475000036,,,,,,,,,,,,,,,,,,,,,,,,,,,,,,,,,,,,,,,,,,,,,,,,,,302.76238700000977,302.7780475000036,303.2780306000059,303.26151219999883,303.270045199999,303.2780306000059,303.2780306000059,303.2780306000059,305.51196830000845,Objects\027a.jpg,post,o,2.21854170000006,None,,,,,,,,00028,001,2026-01-20_22h09.36.854,MST_test,2024.2.0,60.02894595976657,2026-01-20 22h09.44.941525 +0530,
52,0,53,n,3.1082870999962324,None,53,0,52,305.52802410000004,,,,,,,,,,,,,,,,,,,,,,,,,,,,,,,,,,,,,,,,,,,,,,,,,,305.5123690000037,305.52802410000004,306.0282877999998,306.0117020000034,306.0201778000046,306.0282877999998,306.0282877999998,306.0282877999998,309.14508330001263,Foils\020b.jpg,none,n,3.1082870999962324,None,,,,,,,,00028,001,2026-01-20_22h09.36.854,MST_test,2024.2.0,60.02894595976657,2026-01-20 22h09.44.941525 +0530,
53,0,54,o,2.6099761000077706,None,54,0,53,309.16094500001054,,,,,,,,,,,,,,,,,,,,,,,,,,,,,,,,,,,,,,,,,,,,,,,,,,309.14545850000286,309.16094500001054,309.6948037000111,309.64486240000406,309.6924093000125,309.6948037000111,309.6948037000111,309.6948037000111,312.31187740000314,Scenes\102b.jpg,post,o,2.6099761000077706,None,,,,,,,,00028,001,2026-01-20_22h09.36.854,MST_test,2024.2.0,60.02894595976657,2026-01-20 22h09.44.941525 +0530,
54,0,55,o,2.49261810000462,None,55,0,54,312.3277838000067,,,,,,,,,,,,,,,,,,,,,,,,,,,,,,,,,,,,,,,,,,,,,,,,,,312.31226140000217,312.3277838000067,312.8286350999988,312.81164400000125,312.82414090000384,312.8286350999988,312.8286350999988,312.8286350999988,315.3288825000054,Scenes\117a.jpg,post,o,2.49261810000462,None,,,,,,,,00028,001,2026-01-20_22h09.36.854,MST_test,2024.2.0,60.02894595976657,2026-01-20 22h09.44.941525 +0530,
55,0,56,s,4.731571999989683,None,56,0,55,315.34440140001243,,,,,,,,,,,,,,,,,,,,,,,,,,,,,,,,,,,,,,,,,,,,,,,,,,315.32927670000936,315.34440140001243,315.8448475000041,315.82838570000604,315.8360646000074,315.8448475000041,315.8448475000041,315.8448475000041,320.5778563000058,Foils\scenes12.jpg,none,s,4.731571999989683,None,,,,,,,,00028,001,2026-01-20_22h09.36.854,MST_test,2024.2.0,60.02894595976657,2026-01-20 22h09.44.941525 +0530,
56,0,57,o,2.3622596000059275,None,57,0,56,320.5943702000077,,,,,,,,,,,,,,,,,,,,,,,,,,,,,,,,,,,,,,,,,,,,,,,,,,320.578167700005,320.5943702000077,321.0949830000027,321.077907400002,321.0912385999982,321.0949830000027,321.0949830000027,321.0949830000027,323.4620678000065,Scenes\147a.jpg,pre,o,2.3622596000059275,None,,,,,,,,00028,001,2026-01-20_22h09.36.854,MST_test,2024.2.0,60.02894595976657,2026-01-20 22h09.44.941525 +0530,
57,0,58,n,1.8148013000027277,None,58,0,57,323.4779508000065,,,,,,,,,,,,,,,,,,,,,,,,,,,,,,,,,,,,,,,,,,,,,,,,,,323.4624475000019,323.4779508000065,323.9784253000107,323.9616634999984,323.96825410000747,323.9784253000107,323.9784253000107,323.9784253000107,325.79499829999986,Foils\scenes19.jpg,none,n,1.8148013000027277,None,,,,,,,,00028,001,2026-01-20_22h09.36.854,MST_test,2024.2.0,60.02894595976657,2026-01-20 22h09.44.941525 +0530,
58,0,59,o,1.9688325000024633,None,59,0,58,325.81098049999855,,,,,,,,,,,,,,,,,,,,,,,,,,,,,,,,,,,,,,,,,,,,,,,,,,325.7953478999989,325.81098049999855,326.3117332000111,326.29508850000275,326.3067671000026,326.3117332000111,326.3117332000111,326.3117332000111,328.2953186000086,Objects\105a.jpg,post,o,1.9688325000024633,None,,,,,,,,00028,001,2026-01-20_22h09.36.854,MST_test,2024.2.0,60.02894595976657,2026-01-20 22h09.44.941525 +0530,
59,0,60,n,1.437843099993188,None,60,0,59,328.31232500000624,,,,,,,,,,,,,,,,,,,,,,,,,,,,,,,,,,,,,,,,,,,,,,,,,,328.2956717000052,328.31232500000624,328.8114537000074,328.79509240000334,328.8082199000055,328.8114537000074,328.8114537000074,328.8114537000074,330.2619992000109,Scenes\050b.jpg,post,n,1.437843099993188,None,,,,,,,,00028,001,2026-01-20_22h09.36.854,MST_test,2024.2.0,60.02894595976657,2026-01-20 22h09.44.941525 +0530,
60,0,61,n,1.2462165000033565,None,61,0,60,330.2779803000012,,,,,,,,,,,,,,,,,,,,,,,,,,,,,,,,,,,,,,,,,,,,,,,,,,330.26237630000105,330.2779803000012,330.7783749000082,330.7614795000118,330.7701251000108,330.7783749000082,330.7783749000082,330.7783749000082,332.02813920000335,Foils\098a.jpg,none,n,1.2462165000033565,None,,,,,,,,00028,001,2026-01-20_22h09.36.854,MST_test,2024.2.0,60.02894595976657,2026-01-20 22h09.44.941525 +0530,
61,0,62,n,1.031473700000788,None,62,0,61,332.04470930001116,,,,,,,,,,,,,,,,,,,,,,,,,,,,,,,,,,,,,,,,,,,,,,,,,,332.02825050000683,332.04470930001116,332.54494550000527,332.5283949000004,332.5359313000081,332.54494550000527,332.54494550000527,332.54494550000527,333.5779978000064,Foils\057a.jpg,none,n,1.031473700000788,None,,,,,,,,00028,001,2026-01-20_22h09.36.854,MST_test,2024.2.0,60.02894595976657,2026-01-20 22h09.44.941525 +0530,
62,0,63,n,1.0497392999968724,None,63,0,62,333.5942303000047,,,,,,,,,,,,,,,,,,,,,,,,,,,,,,,,,,,,,,,,,,,,,,,,,,333.57829650001077,333.5942303000047,334.0948960000096,334.0777194000111,334.08589900001243,334.0948960000096,334.0948960000096,334.0948960000096,335.14525280000817,Foils\049a.jpg,none,n,1.0497392999968724,None,,,,,,,,00028,001,2026-01-20_22h09.36.854,MST_test,2024.2.0,60.02894595976657,2026-01-20 22h09.44.941525 +0530,
63,0,64,o,2.195677399999113,None,64,0,63,335.1613526000001,,,,,,,,,,,,,,,,,,,,,,,,,,,,,,,,,,,,,,,,,,,,,,,,,,335.14567080000415,335.1613526000001,335.66156000000774,335.6451006999996,335.6535883000033,335.66156000000774,335.66156000000774,335.66156000000774,337.8620891000028,Objects\111a.jpg,pre,o,2.195677399999113,None,,,,,,,,00028,001,2026-01-20_22h09.36.854,MST_test,2024.2.0,60.02894595976657,2026-01-20 22h09.44.941525 +0530,
64,0,65,o,1.0550390999997035,None,65,0,64,337.87773740000557,,,,,,,,,,,,,,,,,,,,,,,,,,,,,,,,,,,,,,,,,,,,,,,,,,337.86249100000714,337.87773740000557,338.3781797999982,338.3614196000126,338.3708694000088,338.3781797999982,338.3781797999982,338.3781797999982,339.4454090000072,Objects\189a.jpg,pre,o,1.0550390999997035,None,,,,,,,,00028,001,2026-01-20_22h09.36.854,MST_test,2024.2.0,60.02894595976657,2026-01-20 22h09.44.941525 +0530,
65,0,66,s,4.814958700007992,None,66,0,65,339.46141889999853,,,,,,,,,,,,,,,,,,,,,,,,,,,,,,,,,,,,,,,,,,,,,,,,,,339.4457709999988,339.46141889999853,339.961478600002,339.94513160000497,339.95772740000393,339.961478600002,339.961478600002,339.961478600002,344.7780574000062,Scenes\118b.jpg,mid,s,4.814958700007992,None,,,,,,,,00028,001,2026-01-20_22h09.36.854,MST_test,2024.2.0,60.02894595976657,2026-01-20 22h09.44.941525 +0530,
66,0,67,o,1.697972399997525,None,67,0,66,344.7941101000033,,,,,,,,,,,,,,,,,,,,,,,,,,,,,,,,,,,,,,,,,,,,,,,,,,344.77840580001066,344.7941101000033,345.29526940001233,345.27834400000575,345.28721570000926,345.29526940001233,345.29526940001233,345.29526940001233,346.99508870000136,Objects\061a.jpg,post,o,1.697972399997525,None,,,,,,,,00028,001,2026-01-20_22h09.36.854,MST_test,2024.2.0,60.02894595976657,2026-01-20 22h09.44.941525 +0530,
67,0,68,o,1.4892882999993162,None,68,0,67,347.01113540001097,,,,,,,,,,,,,,,,,,,,,,,,,,,,,,,,,,,,,,,,,,,,,,,,,,346.99555400000827,347.01113540001097,347.5115733999992,347.4949866000097,347.50332970000454,347.5115733999992,347.5115733999992,347.5115733999992,349.01199780000024,Objects\020a.jpg,pre,o,1.4892882999993162,None,,,,,,,,00028,001,2026-01-20_22h09.36.854,MST_test,2024.2.0,60.02894595976657,2026-01-20 22h09.44.941525 +0530,
68,0,69,o,1.689089600011357,None,69,0,68,349.0279647999996,,,,,,,,,,,,,,,,,,,,,,,,,,,,,,,,,,,,,,,,,,,,,,,,,,349.0123639000085,349.0279647999996,349.5280887000117,349.5116531000094,349.52087420001044,349.5280887000117,349.5280887000117,349.5280887000117,351.2284828999982,Objects\084a.jpg,pre,o,1.689089600011357,None,,,,,,,,00028,001,2026-01-20_22h09.36.854,MST_test,2024.2.0,60.02894595976657,2026-01-20 22h09.44.941525 +0530,
69,0,70,n,1.0796184999926481,None,70,0,69,351.2444223000057,,,,,,,,,,,,,,,,,,,,,,,,,,,,,,,,,,,,,,,,,,,,,,,,,,351.22883590000856,351.2444223000057,351.74515080000856,351.72835970000597,351.7387710000039,351.74515080000856,351.74515080000856,351.74515080000856,352.82829800000763,Scenes\016b.jpg,pre,n,1.0796184999926481,None,,,,,,,,00028,001,2026-01-20_22h09.36.854,MST_test,2024.2.0,60.02894595976657,2026-01-20 22h09.44.941525 +0530,
70,0,71,n,4.335432599997148,None,71,0,70,352.8447160000069,,,,,,,,,,,,,,,,,,,,,,,,,,,,,,,,,,,,,,,,,,,,,,,,,,352.8286649000074,352.8447160000069,353.3451339000021,353.32835130000603,353.3372221000027,353.3451339000021,353.3451339000021,353.3451339000021,357.69542050000746,Foils\093b.jpg,none,n,4.335432599997148,None,,,,,,,,00028,001,2026-01-20_22h09.36.854,MST_test,2024.2.0,60.02894595976657,2026-01-20 22h09.44.941525 +0530,
71,0,72,o,1.4928810999990674,None,72,0,71,357.7114012000093,,,,,,,,,,,,,,,,,,,,,,,,,,,,,,,,,,,,,,,,,,,,,,,,,,357.69580800000404,357.7114012000093,358.2116936000093,358.1950935000059,358.2082051000034,358.2116936000093,358.2116936000093,358.2116936000093,359.7120258000068,Scenes\095a.jpg,pre,o,1.4928810999990674,None,,,,,,,,00028,001,2026-01-20_22h09.36.854,MST_test,2024.2.0,60.02894595976657,2026-01-20 22h09.44.941525 +0530,
72,0,73,o,0.9831242999935057,None,73,0,72,359.7279564000055,,,,,,,,,,,,,,,,,,,,,,,,,,,,,,,,,,,,,,,,,,,,,,,,,,359.71237760000804,359.7279564000055,360.2336448999995,360.2117823000008,360.2311283000017,360.2336448999995,360.2336448999995,360.2336448999995,361.22853370000666,Scenes\089a.jpg,mid,o,0.9831242999935057,None,,,,,,,,00028,001,2026-01-20_22h09.36.854,MST_test,2024.2.0,60.02894595976657,2026-01-20 22h09.44.941525 +0530,
73,0,74,o,1.007627400002093,None,74,0,73,361.2446040000068,,,,,,,,,,,,,,,,,,,,,,,,,,,,,,,,,,,,,,,,,,,,,,,,,,361.22892030001094,361.2446040000068,361.7449506000121,361.72837470000377,361.7412292000081,361.7449506000121,361.7449506000121,361.7449506000121,362.7619691,Objects\066a.jpg,pre,o,1.007627400002093,None,,,,,,,,00028,001,2026-01-20_22h09.36.854,MST_test,2024.2.0,60.02894595976657,2026-01-20 22h09.44.941525 +0530,
74,0,75,o,1.8688371000025654,None,75,0,74,362.77797400001145,,,,,,,,,,,,,,,,,,,,,,,,,,,,,,,,,,,,,,,,,,,,,,,,,,362.76232040001196,362.77797400001145,363.2843620000058,363.2617152000021,363.2816371000081,363.2843620000058,363.2843620000058,363.2843620000058,365.16180980000354,Scenes\129b.jpg,pre,o,1.8688371000025654,None,,,,,,,,00028,001,2026-01-20_22h09.36.854,MST_test,2024.2.0,60.02894595976657,2026-01-20 22h09.44.941525 +0530,
75,0,76,s,4.369289499998558,None,76,0,75,365.1779561000003,,,,,,,,,,,,,,,,,,,,,,,,,,,,,,,,,,,,,,,,,,,,,,,,,,365.16218610000215,365.1779561000003,365.67923780001,365.6615182000096,365.6700935000117,365.67923780001,365.67923780001,365.67923780001,370.06199170000036,Objects\115a.jpg,pre,s,4.369289499998558,None,,,,,,,,00028,001,2026-01-20_22h09.36.854,MST_test,2024.2.0,60.02894595976657,2026-01-20 22h09.44.941525 +0530,
76,0,77,o,1.6543112000072142,None,77,0,76,370.077975600012,,,,,,,,,,,,,,,,,,,,,,,,,,,,,,,,,,,,,,,,,,,,,,,,,,370.0623401000048,370.077975600012,370.5782407000079,370.56180600001244,370.57173590001184,370.5782407000079,370.5782407000079,370.5782407000079,372.2454129000107,Objects\144a.jpg,mid,o,1.6543112000072142,None,,,,,,,,00028,001,2026-01-20_22h09.36.854,MST_test,2024.2.0,60.02894595976657,2026-01-20 22h09.44.941525 +0530,
77,0,78,o,1.1719894999987446,None,78,0,77,372.2612522999989,,,,,,,,,,,,,,,,,,,,,,,,,,,,,,,,,,,,,,,,,,,,,,,,,,372.2457953999983,372.2612522999989,372.7647520000028,372.7447906000016,372.7623700000113,372.7647520000028,372.7647520000028,372.7647520000028,373.9453913000034,Scenes\012a.jpg,mid,o,1.1719894999987446,None,,,,,,,,00028,001,2026-01-20_22h09.36.854,MST_test,2024.2.0,60.02894595976657,2026-01-20 22h09.44.941525 +0530,
78,0,79,s,1.8014022999996087,None,79,0,78,373.9610812000028,,,,,,,,,,,,,,,,,,,,,,,,,,,,,,,,,,,,,,,,,,,,,,,,,,373.9457695000019,373.9610812000028,374.46332419999817,374.44508590000623,374.46082740000566,374.46332419999817,374.46332419999817,374.46332419999817,376.27866989999893,Scenes\150b.jpg,post,s,1.8014022999996087,None,,,,,,,,00028,001,2026-01-20_22h09.36.854,MST_test,2024.2.0,60.02894595976657,2026-01-20 22h09.44.941525 +0530,
79,0,80,o,1.6409534999984317,None,80,0,79,376.2947226000106,,,,,,,,,,,,,,,,,,,,,,,,,,,,,,,,,,,,,,,,,,,,,,,,,,376.27912210000795,376.2947226000106,376.8317180000013,376.7783794999996,376.82919380000385,376.8317180000013,376.8317180000013,376.8317180000013,378.47868000000017,Objects\120b.jpg,pre,o,1.6409534999984317,None,,,,,,,,00028,001,2026-01-20_22h09.36.854,MST_test,2024.2.0,60.02894595976657,2026-01-20 22h09.44.941525 +0530,
80,0,81,o,2.190345700000762,None,81,0,80,378.49467020000156,,,,,,,,,,,,,,,,,,,,,,,,,,,,,,,,,,,,,,,,,,,,,,,,,,378.47902330000943,378.49467020000156,378.994837700011,378.9784786000091,378.98715150001226,378.994837700011,378.994837700011,378.994837700011,381.1953158000106,Objects\091a.jpg,post,o,2.190345700000762,None,,,,,,,,00028,001,2026-01-20_22h09.36.854,MST_test,2024.2.0,60.02894595976657,2026-01-20 22h09.44.941525 +0530,
81,0,82,o,1.641591099993093,None,82,0,81,381.2113849000016,,,,,,,,,,,,,,,,,,,,,,,,,,,,,,,,,,,,,,,,,,,,,,,,,,381.19575199999963,381.2113849000016,381.7115855000011,381.6950347000093,381.7032315000106,381.7115855000011,381.7115855000011,381.7115855000011,383.36203440000827,Objects\187b.jpg,pre,o,1.641591099993093,None,,,,,,,,00028,001,2026-01-20_22h09.36.854,MST_test,2024.2.0,60.02894595976657,2026-01-20 22h09.44.941525 +0530,
82,0,83,o,1.2042063999979291,None,83,0,82,383.37807040000916,,,,,,,,,,,,,,,,,,,,,,,,,,,,,,,,,,,,,,,,,,,,,,,,,,383.3623796000029,383.37807040000916,383.8923200999998,383.86170290000155,383.8903144000069,383.8923200999998,383.8923200999998,383.8923200999998,385.1120094000071,Objects\182b.jpg,post,o,1.2042063999979291,None,,,,,,,,00028,001,2026-01-20_22h09.36.854,MST_test,2024.2.0,60.02894595976657,2026-01-20 22h09.44.941525 +0530,
83,0,84,s,2.3513343000086024,None,84,0,83,385.1280287000118,,,,,,,,,,,,,,,,,,,,,,,,,,,,,,,,,,,,,,,,,,,,,,,,,,385.1123588000046,385.1280287000118,385.65784350001195,385.61184910000884,385.6552154000092,385.65784350001195,385.65784350001195,385.65784350001195,388.01179990000674,Scenes\058b.jpg,pre,s,2.3513343000086024,None,,,,,,,,00028,001,2026-01-20_22h09.36.854,MST_test,2024.2.0,60.02894595976657,2026-01-20 22h09.44.941525 +0530,
84,0,85,o,1.2001428000075975,None,85,0,84,388.02804450000986,,,,,,,,,,,,,,,,,,,,,,,,,,,,,,,,,,,,,,,,,,,,,,,,,,388.0121446999983,388.02804450000986,388.5284379000077,388.5116068000061,388.52575260000594,388.5284379000077,388.5284379000077,388.5284379000077,389.7291991000093,Scenes\174a.jpg,pre,o,1.2001428000075975,None,,,,,,,,00028,001,2026-01-20_22h09.36.854,MST_test,2024.2.0,60.02894595976657,2026-01-20 22h09.44.941525 +0530,
85,0,86,o,1.0182566000003135,None,86,0,85,389.74464910000097,,,,,,,,,,,,,,,,,,,,,,,,,,,,,,,,,,,,,,,,,,,,,,,,,,389.72959970000375,389.74464910000097,390.24634380001226,390.22843490001105,390.2439604000101,390.24634380001226,390.24634380001226,390.24634380001226,391.2787592000095,Scenes\063a.jpg,post,o,1.0182566000003135,None,,,,,,,,00028,001,2026-01-20_22h09.36.854,MST_test,2024.2.0,60.02894595976657,2026-01-20 22h09.44.941525 +0530,
86,0,87,n,1.2286439000017708,None,87,0,86,391.29554160000407,,,,,,,,,,,,,,,,,,,,,,,,,,,,,,,,,,,,,,,,,,,,,,,,,,391.2791081000032,391.29554160000407,,391.7948490999988,391.841181900003,391.84391609999875,391.84391609999875,391.84391609999875,393.078096000012,Scenes\073b.jpg,pre,n,1.2286439000017708,None,,,,,,,,00028,001,2026-01-20_22h09.36.854,MST_test,2024.2.0,60.02894595976657,2026-01-20 22h09.44.941525 +0530,
87,0,88,n,1.1213715000048978,None,88,0,87,393.0946915000095,,,,,,,,,,,,,,,,,,,,,,,,,,,,,,,,,,,,,,,,,,,,,,,,,,393.0784469000064,393.0946915000095,393.599839100003,393.5781619000045,393.59700530000555,393.599839100003,393.599839100003,393.599839100003,394.7287801000057,Scenes\001b.jpg,pre,n,1.1213715000048978,None,,,,,,,,00028,001,2026-01-20_22h09.36.854,MST_test,2024.2.0,60.02894595976657,2026-01-20 22h09.44.941525 +0530,
88,0,89,s,1.6490329999942333,None,89,0,88,394.74450280000747,,,,,,,,,,,,,,,,,,,,,,,,,,,,,,,,,,,,,,,,,,,,,,,,,,394.7291741000081,394.74450280000747,395.2635103000066,395.2282705000107,395.26091460000316,395.2635103000066,395.2635103000066,395.2635103000066,396.92873580000014,Objects\176b.jpg,mid,s,1.6490329999942333,None,,,,,,,,00028,001,2026-01-20_22h09.36.854,MST_test,2024.2.0,60.02894595976657,2026-01-20 22h09.44.941525 +0530,
89,0,90,o,2.5884458999935305,None,90,0,89,396.9447072000039,,,,,,,,,,,,,,,,,,,,,,,,,,,,,,,,,,,,,,,,,,,,,,,,,,396.9291089000035,396.9447072000039,397.4447316000005,397.42834140000923,397.4371807999996,397.4447316000005,397.4447316000005,397.4447316000005,400.04539600000135,Objects\122a.jpg,mid,o,2.5884458999935305,None,,,,,,,,00028,001,2026-01-20_22h09.36.854,MST_test,2024.2.0,60.02894595976657,2026-01-20 22h09.44.941525 +0530,
90,0,91,o,2.485867600000347,None,91,0,90,400.06132200000866,,,,,,,,,,,,,,,,,,,,,,,,,,,,,,,,,,,,,,,,,,,,,,,,,,400.04586640000343,400.06132200000866,400.56332820000534,400.54479290000745,400.5609292000008,400.56332820000534,400.56332820000534,400.56332820000534,403.06200660001196,Scenes\115b.jpg,pre,o,2.485867600000347,None,,,,,,,,00028,001,2026-01-20_22h09.36.854,MST_test,2024.2.0,60.02894595976657,2026-01-20 22h09.44.941525 +0530,
91,0,92,o,1.2306590999942273,None,92,0,91,403.0778660000069,,,,,,,,,,,,,,,,,,,,,,,,,,,,,,,,,,,,,,,,,,,,,,,,,,403.0623796,403.0778660000069,403.5781444000022,403.56156570000167,403.57072530000005,403.5781444000022,403.5781444000022,403.5781444000022,404.8120520000084,Objects\175a.jpg,pre,o,1.2306590999942273,None,,,,,,,,00028,001,2026-01-20_22h09.36.854,MST_test,2024.2.0,60.02894595976657,2026-01-20 22h09.44.941525 +0530,
92,0,93,n,1.2003623000055086,None,93,0,92,404.82786900000065,,,,,,,,,,,,,,,,,,,,,,,,,,,,,,,,,,,,,,,,,,,,,,,,,,404.8124233999988,404.82786900000065,405.32844530000875,405.31172890000744,405.318809400007,405.32844530000875,405.32844530000875,405.32844530000875,406.54634310000984,Foils\scenes16.jpg,none,n,1.2003623000055086,None,,,,,,,,00028,001,2026-01-20_22h09.36.854,MST_test,2024.2.0,60.02894595976657,2026-01-20 22h09.44.941525 +0530,
93,0,94,o,2.659073700007866,None,94,0,93,406.5612756000046,,,,,,,,,,,,,,,,,,,,,,,,,,,,,,,,,,,,,,,,,,,,,,,,,,406.54672420000134,406.5612756000046,407.06164090000675,407.04509870000766,407.05448920000345,407.06164090000675,407.06164090000675,407.06164090000675,409.72846220000065,Objects\181b.jpg,post,o,2.659073700007866,None,,,,,,,,00028,001,2026-01-20_22h09.36.854,MST_test,2024.2.0,60.02894595976657,2026-01-20 22h09.44.941525 +0530,
94,0,95,o,1.187599600001704,None,95,0,94,409.7445465000055,,,,,,,,,,,,,,,,,,,,,,,,,,,,,,,,,,,,,,,,,,,,,,,,,,409.72889670000586,409.7445465000055,410.24492060000193,410.2283701999986,410.2370224000042,410.24492060000193,410.24492060000193,410.24492060000193,411.44508050000877,Objects\024a.jpg,post,o,1.187599600001704,None,,,,,,,,00028,001,2026-01-20_22h09.36.854,MST_test,2024.2.0,60.02894595976657,2026-01-20 22h09.44.941525 +0530,
95,0,96,s,2.007304099999601,None,96,0,95,411.4610074000084,,,,,,,,,,,,,,,,,,,,,,,,,,,,,,,,,,,,,,,,,,,,,,,,,,411.4454465000017,411.4610074000084,411.96157450000464,411.9449946000095,411.9532270000054,411.96157450000464,411.96157450000464,411.96157450000464,413.9781675999984,Foils\scenes2.jpg,none,s,2.007304099999601,None,,,,,,,,00028,001,2026-01-20_22h09.36.854,MST_test,2024.2.0,60.02894595976657,2026-01-20 22h09.44.941525 +0530,
96,0,97,n,5.209456199998385,None,97,0,96,413.99469930000487,,,,,,,,,,,,,,,,,,,,,,,,,,,,,,,,,,,,,,,,,,,,,,,,,,413.9784534000064,413.99469930000487,414.49501210000017,414.4782201000053,414.48206310000387,414.49501210000017,414.49501210000017,414.49501210000017,419.7116859000089,Foils\scenes1.jpg,none,n,5.209456199998385,None,,,,,,,,00028,001,2026-01-20_22h09.36.854,MST_test,2024.2.0,60.02894595976657,2026-01-20 22h09.44.941525 +0530,
97,0,98,o,2.765130300002056,None,98,0,97,419.7279178000026,,,,,,,,,,,,,,,,,,,,,,,,,,,,,,,,,,,,,,,,,,,,,,,,,,419.71206670001266,419.7279178000026,420.22805080001126,420.2116953000077,420.2226926000003,420.22805080001126,420.22805080001126,420.22805080001126,422.9950206000067,Objects\035a.jpg,mid,o,2.765130300002056,None,,,,,,,,00028,001,2026-01-20_22h09.36.854,MST_test,2024.2.0,60.02894595976657,2026-01-20 22h09.44.941525 +0530,
98,0,99,s,2.073840900004143,None,99,0,98,423.0112901000102,,,,,,,,,,,,,,,,,,,,,,,,,,,,,,,,,,,,,,,,,,,,,,,,,,422.99525300000096,423.0112901000102,423.51130840000405,423.49481180000294,423.5043130999984,423.51130840000405,423.51130840000405,423.51130840000405,425.5953952999989,Objects\021b.jpg,pre,s,2.073840900004143,None,,,,,,,,00028,001,2026-01-20_22h09.36.854,MST_test,2024.2.0,60.02894595976657,2026-01-20 22h09.44.941525 +0530,
99,0,100,o,2.3257327000028454,None,100,0,99,425.61118030000944,,,,,,,,,,,,,,,,,,,,,,,,,,,,,,,,,,,,,,,,,,,,,,,,,,425.5957702000014,425.61118030000944,426.1389446000103,426.0950961000053,426.13634399999864,426.1389446000103,426.1389446000103,426.1389446000103,428.47874109999975,Scenes\010b.jpg,mid,o,2.3257327000028454,None,,,,,,,,00028,001,2026-01-20_22h09.36.854,MST_test,2024.2.0,60.02894595976657,2026-01-20 22h09.44.941525 +0530,
100,0,101,o,1.0299707999947714,None,101,0,100,428.49471850000555,,,,,,,,,,,,,,,,,,,,,,,,,,,,,,,,,,,,,,,,,,,,,,,,,,428.47918480000226,428.49471850000555,428.99514890000864,428.9785039999988,428.98990330001106,428.99514890000864,428.99514890000864,428.99514890000864,430.0284404999984,Scenes\186a.jpg,mid,o,1.0299707999947714,None,,,,,,,,00028,001,2026-01-20_22h09.36.854,MST_test,2024.2.0,60.02894595976657,2026-01-20 22h09.44.941525 +0530,
101,0,102,n,4.533536200004164,None,102,0,101,430.04637029999867,,,,,,,,,,,,,,,,,,,,,,,,,,,,,,,,,,,,,,,,,,,,,,,,,,430.0287800000078,430.04637029999867,,430.5448553000024,430.5608546000003,430.56327050000255,430.56327050000255,430.56327050000255,435.112031800003,Scenes\168b.jpg,post,n,4.533536200004164,None,,,,,,,,00028,001,2026-01-20_22h09.36.854,MST_test,2024.2.0,60.02894595976657,2026-01-20 22h09.44.941525 +0530,
102,0,103,n,1.1416102000075625,None,103,0,102,435.12806270000874,,,,,,,,,,,,,,,,,,,,,,,,,,,,,,,,,,,,,,,,,,,,,,,,,,435.11241770000197,435.12806270000874,435.6995536000031,435.6113747000054,435.695563900008,435.6995536000031,435.6995536000031,435.6995536000031,436.84548509999877,Foils\scenes25.jpg,none,n,1.1416102000075625,None,,,,,,,,00028,001,2026-01-20_22h09.36.854,MST_test,2024.2.0,60.02894595976657,2026-01-20 22h09.44.941525 +0530,
103,0,104,s,2.7968980000005104,None,104,0,103,436.8611344000092,,,,,,,,,,,,,,,,,,,,,,,,,,,,,,,,,,,,,,,,,,,,,,,,,,436.84585140000854,436.8611344000092,437.36373390001245,437.34499080000387,437.35866860000533,437.36373390001245,437.36373390001245,437.36373390001245,440.16204780001135,Scenes\069a.jpg,pre,s,2.7968980000005104,None,,,,,,,,00028,001,2026-01-20_22h09.36.854,MST_test,2024.2.0,60.02894595976657,2026-01-20 22h09.44.941525 +0530,
104,0,105,o,1.6342373999941628,None,105,0,104,440.17795480000495,,,,,,,,,,,,,,,,,,,,,,,,,,,,,,,,,,,,,,,,,,,,,,,,,,440.1624410000077,440.17795480000495,440.67834440000297,440.6614991000097,440.66964120000193,440.67834440000297,440.67834440000297,440.67834440000297,442.3287857000105,Scenes\053a.jpg,pre,o,1.6342373999941628,None,,,,,,,,00028,001,2026-01-20_22h09.36.854,MST_test,2024.2.0,60.02894595976657,2026-01-20 22h09.44.941525 +0530,
105,0,106,o,1.6331388000107836,None,106,0,105,442.34471450001,,,,,,,,,,,,,,,,,,,,,,,,,,,,,,,,,,,,,,,,,,,,,,,,,,442.32917300000554,442.34471450001,442.84739740000805,442.82844870000554,442.84508880000794,442.84739740000805,442.84739740000805,442.84739740000805,444.49544500000775,Scenes\013b.jpg,mid,o,1.6331388000107836,None,,,,,,,,00028,001,2026-01-20_22h09.36.854,MST_test,2024.2.0,60.02894595976657,2026-01-20 22h09.44.941525 +0530,
106,0,107,n,0.9572645999869565,None,107,0,106,444.51129780001065,,,,,,,,,,,,,,,,,,,,,,,,,,,,,,,,,,,,,,,,,,,,,,,,,,444.4958910999994,444.51129780001065,445.01189000000886,444.9950954000087,445.0037177000049,445.01189000000886,445.01189000000886,445.01189000000886,445.9784639999998,Foils\097a.jpg,none,n,0.9572645999869565,None,,,,,,,,00028,001,2026-01-20_22h09.36.854,MST_test,2024.2.0,60.02894595976657,2026-01-20 22h09.44.941525 +0530,
107,0,108,s,1.8261876000033226,None,108,0,107,445.99470570000994,,,,,,,,,,,,,,,,,,,,,,,,,,,,,,,,,,,,,,,,,,,,,,,,,,445.9788244000083,445.99470570000994,446.4949539000081,446.478431200012,446.4863936000038,446.4949539000081,446.4949539000081,446.4949539000081,448.32873370000743,Objects\177b.jpg,pre,s,1.8261876000033226,None,,,,,,,,00028,001,2026-01-20_22h09.36.854,MST_test,2024.2.0,60.02894595976657,2026-01-20 22h09.44.941525 +0530,
108,0,109,o,1.9546902000001865,None,109,0,108,448.34472220001044,,,,,,,,,,,,,,,,,,,,,,,,,,,,,,,,,,,,,,,,,,,,,,,,,,448.3291104000091,448.34472220001044,448.8459554000001,448.82842060000985,448.8365611000045,448.8459554000001,448.8459554000001,448.8459554000001,450.8118145000044,Objects\050a.jpg,mid,o,1.9546902000001865,None,,,,,,,,00028,001,2026-01-20_22h09.36.854,MST_test,2024.2.0,60.02894595976657,2026-01-20 22h09.44.941525 +0530,
109,0,110,s,2.808808500005398,None,110,0,109,450.8278629000124,,,,,,,,,,,,,,,,,,,,,,,,,,,,,,,,,,,,,,,,,,,,,,,,,,450.81219700000656,450.8278629000124,451.32833210000535,451.3116846000048,451.32531369999924,451.32833210000535,451.32833210000535,451.32833210000535,454.1454994000087,Scenes\166b.jpg,mid,s,2.808808500005398,None,,,,,,,,00028,001,2026-01-20_22h09.36.854,MST_test,2024.2.0,60.02894595976657,2026-01-20 22h09.44.941525 +0530,
110,0,111,n,2.379642199986847,None,111,0,110,454.16107070000726,,,,,,,,,,,,,,,,,,,,,,,,,,,,,,,,,,,,,,,,,,,,,,,,,,454.14587140000367,454.16107070000726,454.66148360000807,454.6449578000029,454.6528588000074,454.66148360000807,454.66148360000807,454.66148360000807,457.04545670001244,Foils\scenes5.jpg,none,n,2.379642199986847,None,,,,,,,,00028,001,2026-01-20_22h09.36.854,MST_test,2024.2.0,60.02894595976657,2026-01-20 22h09.44.941525 +0530,
111,0,112,o,1.9546059000131208,None,112,0,111,457.0613058000017,,,,,,,,,,,,,,,,,,,,,,,,,,,,,,,,,,,,,,,,,,,,,,,,,,457.0458257999999,457.0613058000017,457.56595790000574,457.5451478000032,457.5637698000064,457.56595790000574,457.56595790000574,457.56595790000574,459.5283250000066,Scenes\114b.jpg,post,o,1.9546059000131208,None,,,,,,,,00028,001,2026-01-20_22h09.36.854,MST_test,2024.2.0,60.02894595976657,2026-01-20 22h09.44.941525 +0530,
112,0,113,o,1.8914873000030639,None,113,0,112,459.54429479999817,,,,,,,,,,,,,,,,,,,,,,,,,,,,,,,,,,,,,,,,,,,,,,,,,,459.5286650000053,459.54429479999817,460.0452925999998,460.0284481000126,460.03677390000666,460.0452925999998,460.0452925999998,460.0452925999998,461.9454087000049,Objects\147a.jpg,mid,o,1.8914873000030639,None,,,,,,,,00028,001,2026-01-20_22h09.36.854,MST_test,2024.2.0,60.02894595976657,2026-01-20 22h09.44.941525 +0530,
113,0,114,o,1.9231873999960953,None,114,0,113,461.9613157999993,,,,,,,,,,,,,,,,,,,,,,,,,,,,,,,,,,,,,,,,,,,,,,,,,,461.9457778000069,461.9613157999993,462.4615114000044,462.44516440000734,462.45317730000534,462.4615114000044,462.4615114000044,462.4615114000044,464.3953718000121,Objects\186a.jpg,post,o,1.9231873999960953,None,,,,,,,,00028,001,2026-01-20_22h09.36.854,MST_test,2024.2.0,60.02894595976657,2026-01-20 22h09.44.941525 +0530,
114,0,115,n,2.1775629999901867,None,115,0,114,464.4112332000077,,,,,,,,,,,,,,,,,,,,,,,,,,,,,,,,,,,,,,,,,,,,,,,,,,464.39574930000526,464.4112332000077,464.91154880000977,464.894666600012,464.90153510001255,464.91154880000977,464.91154880000977,464.91154880000977,467.09512050000194,Objects\082b.jpg,post,n,2.1775629999901867,None,,,,,,,,00028,001,2026-01-20_22h09.36.854,MST_test,2024.2.0,60.02894595976657,2026-01-20 22h09.44.941525 +0530,
115,0,116,n,1.9491024000017205,None,116,0,115,467.11099440000544,,,,,,,,,,,,,,,,,,,,,,,,,,,,,,,,,,,,,,,,,,,,,,,,,,467.09546120000596,467.11099440000544,467.6115293000039,467.59514760000457,467.6015583000117,467.6115293000039,467.6115293000039,467.6115293000039,469.5621509000048,Foils\073a.jpg,none,n,1.9491024000017205,None,,,,,,,,00028,001,2026-01-20_22h09.36.854,MST_test,2024.2.0,60.02894595976657,2026-01-20 22h09.44.941525 +0530,
116,0,117,o,1.2899786999914795,None,117,0,116,469.5780892000039,,,,,,,,,,,,,,,,,,,,,,,,,,,,,,,,,,,,,,,,,,,,,,,,,,469.5625422000012,469.5780892000039,470.07853470000555,470.0614588000026,470.0754067000089,470.07853470000555,470.07853470000555,470.07853470000555,471.3786828000011,Scenes\136a.jpg,mid,o,1.2899786999914795,None,,,,,,,,00028,001,2026-01-20_22h09.36.854,MST_test,2024.2.0,60.02894595976657,2026-01-20 22h09.44.941525 +0530,
117,0,118,o,1.2386053999944124,None,118,0,117,471.39471340000455,,,,,,,,,,,,,,,,,,,,,,,,,,,,,,,,,,,,,,,,,,,,,,,,,,471.3790236000059,471.39471340000455,471.92205130000366,471.8784367000044,471.91958790000353,471.92205130000366,471.92205130000366,471.92205130000366,473.162092700004,Scenes\018b.jpg,pre,o,1.2386053999944124,None,,,,,,,,00028,001,2026-01-20_22h09.36.854,MST_test,2024.2.0,60.02894595976657,2026-01-20 22h09.44.941525 +0530,
118,0,119,s,3.7653541000036057,None,119,0,118,473.17805250000674,,,,,,,,,,,,,,,,,,,,,,,,,,,,,,,,,,,,,,,,,,,,,,,,,,473.16245560000243,473.17805250000674,473.71516469999915,473.66171400000167,473.71276260000013,473.71516469999915,473.71516469999915,473.71516469999915,477.49519110000983,Objects\145b.jpg,pre,s,3.7653541000036057,None,,,,,,,,00028,001,2026-01-20_22h09.36.854,MST_test,2024.2.0,60.02894595976657,2026-01-20 22h09.44.941525 +0530,
119,0,120,o,2.2409378999873297,None,120,0,119,477.51139660000626,,,,,,,,,,,,,,,,,,,,,,,,,,,,,,,,,,,,,,,,,,,,,,,,,,477.4956302000064,477.51139660000626,478.01583329999994,477.9948945000069,478.01347800000804,478.01583329999994,478.01583329999994,478.01583329999994,480.26208290000795,Scenes\046a.jpg,mid,o,2.2409378999873297,None,,,,,,,,00028,001,2026-01-20_22h09.36.854,MST_test,2024.2.0,60.02894595976657,2026-01-20 22h09.44.941525 +0530,
120,0,121,o,1.8777835000073537,None,121,0,120,480.27798020000046,,,,,,,,,,,,,,,,,,,,,,,,,,,,,,,,,,,,,,,,,,,,,,,,,,480.2625243000075,480.27798020000046,480.7786169000028,480.7617806000053,480.7710397000046,480.7786169000028,480.7786169000028,480.7786169000028,482.661660400001,Objects\030a.jpg,mid,o,1.8777835000073537,None,,,,,,,,00028,001,2026-01-20_22h09.36.854,MST_test,2024.2.0,60.02894595976657,2026-01-20 22h09.44.941525 +0530,
121,0,122,n,1.7699786000011954,None,122,0,121,482.67743000001065,,,,,,,,,,,,,,,,,,,,,,,,,,,,,,,,,,,,,,,,,,,,,,,,,,482.66201020000153,482.67743000001065,483.1985103000043,483.1614757000061,483.1961197000055,483.1985103000043,483.1985103000043,483.1985103000043,484.9786254000064,Objects\059b.jpg,post,n,1.7699786000011954,None,,,,,,,,00028,001,2026-01-20_22h09.36.854,MST_test,2024.2.0,60.02894595976657,2026-01-20 22h09.44.941525 +0530,
122,0,123,s,1.9937304000050062,None,123,0,122,484.9947497000103,,,,,,,,,,,,,,,,,,,,,,,,,,,,,,,,,,,,,,,,,,,,,,,,,,484.97896860000037,484.9947497000103,485.4949522000097,485.4783926000091,485.4921827000071,485.4949522000097,485.4949522000097,485.4949522000097,487.49502870001015,Scenes\037b.jpg,post,s,1.9937304000050062,None,,,,,,,,00028,001,2026-01-20_22h09.36.854,MST_test,2024.2.0,60.02894595976657,2026-01-20 22h09.44.941525 +0530,
123,0,124,o,2.356054400006542,None,124,0,123,487.5112134000083,,,,,,,,,,,,,,,,,,,,,,,,,,,,,,,,,,,,,,,,,,,,,,,,,,487.4953990000067,487.5112134000083,488.0126070000115,487.9948019000003,488.0101185000094,488.0126070000115,488.0126070000115,488.0126070000115,490.378457800005,Scenes\060a.jpg,post,o,2.356054400006542,None,,,,,,,,00028,001,2026-01-20_22h09.36.854,MST_test,2024.2.0,60.02894595976657,2026-01-20 22h09.44.941525 +0530,
124,0,125,s,5.041898100011167,None,125,0,124,490.3947169000021,,,,,,,,,,,,,,,,,,,,,,,,,,,,,,,,,,,,,,,,,,,,,,,,,,490.37884309999936,490.3947169000021,490.90268600000127,490.878363900003,490.9002255000087,490.90268600000127,490.90268600000127,490.90268600000127,495.9455678000086,Objects\179b.jpg,mid,s,5.041898100011167,None,,,,,,,,00028,001,2026-01-20_22h09.36.854,MST_test,2024.2.0,60.02894595976657,2026-01-20 22h09.44.941525 +0530,
125,0,126,o,1.9874674000020605,None,126,0,125,495.96140190000006,,,,,,,,,,,,,,,,,,,,,,,,,,,,,,,,,,,,,,,,,,,,,,,,,,495.94597130001057,495.96140190000006,496.461615799999,496.4451246000099,496.4538617000071,496.461615799999,496.461615799999,496.461615799999,498.46170900001016,Objects\077a.jpg,post,o,1.9874674000020605,None,,,,,,,,00028,001,2026-01-20_22h09.36.854,MST_test,2024.2.0,60.02894595976657,2026-01-20 22h09.44.941525 +0530,
126,0,127,o,1.406418999991729,None,127,0,126,498.47800230000576,,,,,,,,,,,,,,,,,,,,,,,,,,,,,,,,,,,,,,,,,,,,,,,,,,498.46208240000124,498.47800230000576,498.9782211999991,498.9617736000073,498.97596920000797,498.9782211999991,498.9782211999991,498.9782211999991,500.39535109999997,Scenes\101b.jpg,pre,o,1.406418999991729,None,,,,,,,,00028,001,2026-01-20_22h09.36.854,MST_test,2024.2.0,60.02894595976657,2026-01-20 22h09.44.941525 +0530,
127,0,128,o,2.0291776999947615,None,128,0,127,500.41139010000916,,,,,,,,,,,,,,,,,,,,,,,,,,,,,,,,,,,,,,,,,,,,,,,,,,500.395700500012,500.41139010000916,500.9314680000098,500.89514350000536,500.92734780001047,500.9314680000098,500.9314680000098,500.9314680000098,502.96219720000227,Objects\153b.jpg,pre,o,2.0291776999947615,None,,,,,,,,00028,001,2026-01-20_22h09.36.854,MST_test,2024.2.0,60.02894595976657,2026-01-20 22h09.44.941525 +0530,
128,0,129,o,1.969616100002895,None,129,0,128,502.9779936999985,,,,,,,,,,,,,,,,,,,,,,,,,,,,,,,,,,,,,,,,,,,,,,,,,,502.9625958000106,502.9779936999985,503.47945400000026,503.46164080000017,503.4771763000026,503.47945400000026,503.47945400000026,503.47945400000026,505.4618579000089,Scenes\083b.jpg,mid,o,1.969616100002895,None,,,,,,,,00028,001,2026-01-20_22h09.36.854,MST_test,2024.2.0,60.02894595976657,2026-01-20 22h09.44.941525 +0530,
129,0,130,o,1.6065095999947516,None,130,0,129,505.4778010000009,,,,,,,,,,,,,,,,,,,,,,,,,,,,,,,,,,,,,,,,,,,,,,,,,,505.46210670001165,505.4778010000009,505.97856590000447,505.9618150000024,505.971317500007,505.97856590000447,505.97856590000447,505.97856590000447,507.5953484000056,Objects\099a.jpg,post,o,1.6065095999947516,None,,,,,,,,00028,001,2026-01-20_22h09.36.854,MST_test,2024.2.0,60.02894595976657,2026-01-20 22h09.44.941525 +0530,
130,0,131,s,6.505480100007844,None,131,0,130,507.61136710000574,,,,,,,,,,,,,,,,,,,,,,,,,,,,,,,,,,,,,,,,,,,,,,,,,,507.59569040000497,507.61136710000574,508.11158660000365,508.0951345000067,508.10388429999875,508.11158660000365,508.11158660000365,508.11158660000365,514.628641000003,Objects\079b.jpg,mid,s,6.505480100007844,None,,,,,,,,00028,001,2026-01-20_22h09.36.854,MST_test,2024.2.0,60.02894595976657,2026-01-20 22h09.44.941525 +0530,
131,0,132,n,1.2721457000006922,None,132,0,131,514.6447409000102,,,,,,,,,,,,,,,,,,,,,,,,,,,,,,,,,,,,,,,,,,,,,,,,,,514.6289939999988,514.6447409000102,515.1449431000074,515.128143400012,515.135964000001,515.1449431000074,515.1449431000074,515.1449431000074,516.4287009000109,Foils\scenes29.jpg,none,n,1.2721457000006922,None,,,,,,,,00028,001,2026-01-20_22h09.36.854,MST_test,2024.2.0,60.02894595976657,2026-01-20 22h09.44.941525 +0530,
132,0,133,n,1.8368622999987565,None,133,0,132,516.4443750000064,,,,,,,,,,,,,,,,,,,,,,,,,,,,,,,,,,,,,,,,,,,,,,,,,,516.4290880000044,516.4443750000064,516.9482461000007,516.928368000008,516.945715599999,516.9482461000007,516.9482461000007,516.9482461000007,518.7954278000107,Scenes\035b.jpg,post,n,1.8368622999987565,None,,,,,,,,00028,001,2026-01-20_22h09.36.854,MST_test,2024.2.0,60.02894595976657,2026-01-20 22h09.44.941525 +0530,
133,0,134,o,1.94510270000319,None,134,0,133,518.8114122000115,,,,,,,,,,,,,,,,,,,,,,,,,,,,,,,,,,,,,,,,,,,,,,,,,,518.7958262000029,518.8114122000115,519.3119980000047,519.2951248000027,519.3075061000127,519.3119980000047,519.3119980000047,519.3119980000047,521.2620903000061,Objects\034a.jpg,mid,o,1.94510270000319,None,,,,,,,,00028,001,2026-01-20_22h09.36.854,MST_test,2024.2.0,60.02894595976657,2026-01-20 22h09.44.941525 +0530,
134,0,135,n,2.3824912999989465,None,135,0,134,521.278009200003,,,,,,,,,,,,,,,,,,,,,,,,,,,,,,,,,,,,,,,,,,,,,,,,,,521.2624634000094,521.278009200003,521.7781847000006,521.7617948000116,521.7698560999997,521.7781847000006,521.7781847000006,521.7781847000006,524.1621313000069,Foils\065a.jpg,none,n,2.3824912999989465,None,,,,,,,,00028,001,2026-01-20_22h09.36.854,MST_test,2024.2.0,60.02894595976657,2026-01-20 22h09.44.941525 +0530,
135,0,136,o,1.4450388999975985,None,136,0,135,524.1779937000101,,,,,,,,,,,,,,,,,,,,,,,,,,,,,,,,,,,,,,,,,,,,,,,,,,524.1624787000037,524.1779937000101,,524.6626033000066,524.6812786000082,524.6836876000016,524.6836876000016,524.6836876000016,526.1453675000084,Scenes\106a.jpg,post,o,1.4450388999975985,None,,,,,,,,00028,001,2026-01-20_22h09.36.854,MST_test,2024.2.0,60.02894595976657,2026-01-20 22h09.44.941525 +0530,
136,0,137,o,2.092212899995502,None,137,0,136,526.1613739000022,,,,,,,,,,,,,,,,,,,,,,,,,,,,,,,,,,,,,,,,,,,,,,,,,,526.1457127000031,526.1613739000022,526.6684661000036,526.6450526000117,526.6659059000085,526.6684661000036,526.6684661000036,526.6684661000036,528.7622227000102,Scenes\023a.jpg,mid,o,2.092212899995502,None,,,,,,,,00028,001,2026-01-20_22h09.36.854,MST_test,2024.2.0,60.02894595976657,2026-01-20 22h09.44.941525 +0530,
137,0,138,n,3.3143770000024233,None,138,0,137,528.7779944000067,,,,,,,,,,,,,,,,,,,,,,,,,,,,,,,,,,,,,,,,,,,,,,,,,,528.762604500007,528.7779944000067,529.278705100005,529.2618071000034,529.2719749000098,529.278705100005,529.278705100005,529.278705100005,532.5950852000096,Foils\033a.jpg,none,n,3.3143770000024233,None,,,,,,,,00028,001,2026-01-20_22h09.36.854,MST_test,2024.2.0,60.02894595976657,2026-01-20 22h09.44.941525 +0530,
138,0,139,o,1.3980470999958925,None,139,0,138,532.6113973000029,,,,,,,,,,,,,,,,,,,,,,,,,,,,,,,,,,,,,,,,,,,,,,,,,,532.595486700011,532.6113973000029,533.1144187000027,533.095118600002,533.1121803999995,533.1144187000027,533.1144187000027,533.1144187000027,534.5295711000072,Scenes\085a.jpg,mid,o,1.3980470999958925,None,,,,,,,,00028,001,2026-01-20_22h09.36.854,MST_test,2024.2.0,60.02894595976657,2026-01-20 22h09.44.941525 +0530,
139,0,140,n,3.976462699996773,None,140,0,139,534.544842000003,,,,,,,,,,,,,,,,,,,,,,,,,,,,,,,,,,,,,,,,,,,,,,,,,,534.5299178999994,534.544842000003,535.2962833000056,535.0283764000051,535.2894327000104,535.2962833000056,535.2962833000056,535.2962833000056,539.2791242000094,Foils\scenes26.jpg,none,n,3.976462699996773,None,,,,,,,,00028,001,2026-01-20_22h09.36.854,MST_test,2024.2.0,60.02894595976657,2026-01-20 22h09.44.941525 +0530,
140,0,141,s,2.0082473999937065,None,141,0,140,539.2945064000087,,,,,,,,,,,,,,,,,,,,,,,,,,,,,,,,,,,,,,,,,,,,,,,,,,539.2794988000096,539.2945064000087,539.8162264999992,539.7784497000102,539.8141875000001,539.8162264999992,539.8162264999992,539.8162264999992,541.8287390000041,Objects\025b.jpg,pre,s,2.0082473999937065,None,,,,,,,,00028,001,2026-01-20_22h09.36.854,MST_test,2024.2.0,60.02894595976657,2026-01-20 22h09.44.941525 +0530,
141,0,142,s,5.137837000002037,None,142,0,141,541.8447431000095,,,,,,,,,,,,,,,,,,,,,,,,,,,,,,,,,,,,,,,,,,,,,,,,,,541.8291076000023,541.8447431000095,,542.3300470000104,542.3491232000088,542.3515834999998,542.3515834999998,542.3515834999998,547.4954396000103,Scenes\005b.jpg,mid,s,5.137837000002037,None,,,,,,,,00028,001,2026-01-20_22h09.36.854,MST_test,2024.2.0,60.02894595976657,2026-01-20 22h09.44.941525 +0530,
142,0,143,s,2.557160500000464,None,143,0,142,547.5113347000006,,,,,,,,,,,,,,,,,,,,,,,,,,,,,,,,,,,,,,,,,,,,,,,,,,547.4958151000028,547.5113347000006,548.0119208000106,547.9948257000069,548.002985900006,548.0119208000106,548.0119208000106,548.0119208000106,550.5784886000038,Objects\106b.jpg,post,s,2.557160500000464,None,,,,,,,,00028,001,2026-01-20_22h09.36.854,MST_test,2024.2.0,60.02894595976657,2026-01-20 22h09.44.941525 +0530,
143,0,144,o,2.8658444000029704,None,144,0,143,550.5947436999995,,,,,,,,,,,,,,,,,,,,,,,,,,,,,,,,,,,,,,,,,,,,,,,,,,550.5788962000079,550.5947436999995,551.0948380000045,551.0784527000069,551.0880887000094,551.0948380000045,551.0948380000045,551.0948380000045,553.962194000007,Objects\094a.jpg,post,o,2.8658444000029704,None,,,,,,,,00028,001,2026-01-20_22h09.36.854,MST_test,2024.2.0,60.02894595976657,2026-01-20 22h09.44.941525 +0530,
144,0,145,o,2.071761899991543,None,145,0,144,553.9780618000077,,,,,,,,,,,,,,,,,,,,,,,,,,,,,,,,,,,,,,,,,,,,,,,,,,553.962599800012,553.9780618000077,554.4806271000125,554.4615450999991,554.4779788000014,554.4806271000125,554.4806271000125,554.4806271000125,556.562024400002,Scenes\143a.jpg,post,o,2.071761899991543,None,,,,,,,,00028,001,2026-01-20_22h09.36.854,MST_test,2024.2.0,60.02894595976657,2026-01-20 22h09.44.941525 +0530,
145,0,146,s,2.4498477000015555,None,146,0,145,556.5779953000019,,,,,,,,,,,,,,,,,,,,,,,,,,,,,,,,,,,,,,,,,,,,,,,,,,556.5623985999991,556.5779953000019,557.0786532000056,557.061767200008,557.0765972000081,557.0786532000056,557.0786532000056,557.0786532000056,559.5454333000089,Scenes\093b.jpg,mid,s,2.4498477000015555,None,,,,,,,,00028,001,2026-01-20_22h09.36.854,MST_test,2024.2.0,60.02894595976657,2026-01-20 22h09.44.941525 +0530,
146,0,147,o,2.9791732000012416,None,147,0,146,559.5614027999982,,,,,,,,,,,,,,,,,,,,,,,,,,,,,,,,,,,,,,,,,,,,,,,,,,559.5458083999984,559.5614027999982,560.0615325000108,560.0452562999999,560.0532995000103,560.0615325000108,560.0615325000108,560.0615325000108,563.0454473999998,Objects\039a.jpg,pre,o,2.9791732000012416,None,,,,,,,,00028,001,2026-01-20_22h09.36.854,MST_test,2024.2.0,60.02894595976657,2026-01-20 22h09.44.941525 +0530,
147,0,148,n,1.7107888000027742,None,148,0,147,563.0614778000017,,,,,,,,,,,,,,,,,,,,,,,,,,,,,,,,,,,,,,,,,,,,,,,,,,563.0458388000116,563.0614778000017,563.5615902999998,563.5448077000037,563.5536397000105,563.5615902999998,563.5615902999998,563.5615902999998,565.2784213000123,Foils\050a.jpg,none,n,1.7107888000027742,None,,,,,,,,00028,001,2026-01-20_22h09.36.854,MST_test,2024.2.0,60.02894595976657,2026-01-20 22h09.44.941525 +0530,
148,0,149,s,1.7335804000031203,None,149,0,148,565.2947152000124,,,,,,,,,,,,,,,,,,,,,,,,,,,,,,,,,,,,,,,,,,,,,,,,,,565.2785776000092,565.2947152000124,565.7948569,565.7784430000029,565.7912050000014,565.7948569,565.7948569,565.7948569,567.5453724000108,Scenes\151b.jpg,post,s,1.7335804000031203,None,,,,,,,,00028,001,2026-01-20_22h09.36.854,MST_test,2024.2.0,60.02894595976657,2026-01-20 22h09.44.941525 +0530,
149,0,150,n,1.8351053999940632,None,150,0,149,567.5613375000103,,,,,,,,,,,,,,,,,,,,,,,,,,,,,,,,,,,,,,,,,,,,,,,,,,567.5457192000031,567.5613375000103,568.0615191000106,568.0451246000011,568.0583434,568.0615191000106,568.0615191000106,568.0615191000106,569.9119539000094,Foils\026a.jpg,none,n,1.8351053999940632,None,,,,,,,,00028,001,2026-01-20_22h09.36.854,MST_test,2024.2.0,60.02894595976657,2026-01-20 22h09.44.941525 +0530,
,,,,,,,,,,,,,,,,,,,,,,,,,,,,,,,,,,,,,,,,,,,,,,,,,,,,,,,,,,,,,,,,,,,,,,,,,569.9121784000017,569.9280890000082,569.9280890000082,573.5615038000105,space,3.6161919000005582,None,00028,001,2026-01-20_22h09.36.854,MST_test,2024.2.0,60.02894595976657,2026-01-20 22h09.44.941525 +0530,
