Sl_no,image_path,thisN,thisTrialN,thisRepN,key_resp_5.keys,key_resp_7.keys,key_resp_7.rt,key_resp_7.duration,key_resp_5.rt,key_resp_5.duration,key_resp_9.keys,key_resp_9.rt,key_resp_9.duration,key_resp_8.keys,key_resp_8.rt,key_resp_8.duration,practice.thisRepN,practice.thisTrialN,practice.thisN,trials.thisRepN,trials.thisTrialN,trials.thisN,thisRow.t,notes,welcome_page.started,text.started,key_resp.started,welcome_page.stopped,key_resp.keys,key_resp.rt,key_resp.duration,instructions.started,ins.started,key_resp_2.started,instructions.stopped,key_resp_2.keys,key_resp_2.rt,key_resp_2.duration,objects_only_instruction.started,text_3.started,key_resp_3.started,objects_only_instruction.stopped,key_resp_3.keys,key_resp_3.rt,key_resp_3.duration,ISI.started,text_4.started,ISI.stopped,practice_block.started,image.started,text_5.started,key_resp_5.started,practice_block.stopped,practice.key_resp_5.keys,indoor_outdoor.started,text_7.started,key_resp_7.started,indoor_outdoor.stopped,practice.key_resp_7.keys,practice.key_resp_7.rt,practice.key_resp_7.duration,practice.key_resp_5.rt,practice.key_resp_5.duration,practice_to_main.started,text_2.started,key_resp_4.started,practice_to_main.stopped,key_resp_4.keys,key_resp_4.rt,key_resp_4.duration,objects.started,image_2.started,text_9.started,key_resp_9.started,objects.stopped,trials.key_resp_9.keys,trials.key_resp_9.rt,trials.key_resp_9.duration,encoding_task.started,encoding_task.stopped,trials.key_resp_8.keys,text_8.started,key_resp_8.started,trials.key_resp_8.rt,trials.key_resp_8.duration,end_experiment.started,text_6.started,key_resp_6.started,end_experiment.stopped,key_resp_6.keys,key_resp_6.rt,key_resp_6.duration,list_of_stimuli,encoding_task_accuracy,participant,session,date,expName,psychopyVersion,frameRate,expStart,
,,,,,,,,,,,,,,,,,,,,,,,,,0.01623270008713007,0.032529400079511106,0.032529400079511106,16.25707080005668,space,16.163988400017843,None,,,,,,,,,,,,,,,,,,,,,,,,,,,,,,,,,,,,,,,,,,,,,,,,,,,,,,,,,,,,,,,,00029,001,2026-01-21_11h19.06.023,MST_task,2024.2.0,59.80449909372449,2026-01-21 11h19.18.490725 +0530,
,,,,,,,,,,,,,,,,,,,,,,,,,,,,,,,,16.257111000013538,16.273631200077944,16.273631200077944,53.57172550004907,space,37.28391469991766,None,,,,,,,,,,,,,,,,,,,,,,,,,,,,,,,,,,,,,,,,,,,,,,,,,,,,,,,,,00029,001,2026-01-21_11h19.06.023,MST_task,2024.2.0,59.80449909372449,2026-01-21 11h19.18.490725 +0530,
,,,,,,,,,,,,,,,,,,,,,,,,,,,,,,,,,,,,,,,53.57175870006904,53.58703110006172,53.58703110006172,84.66391420003492,space,31.07354909996502,None,,,,,,,,,,,,,,,,,,,,,,,,,,,,,,,,,,,,,,,,,,,,,,,,,,00029,001,2026-01-21_11h19.06.023,MST_task,2024.2.0,59.80449909372449,2026-01-21 11h19.18.490725 +0530,
2,practice_images/031a.jpg,0,0,1,None,f,2.5090953999897465,None,,,,,,,,,1,0,0,,,,84.69667229999322,,,,,,,,,,,,,,,,,,,,,,,84.68214689998422,84.69667229999322,85.1650185000617,85.18296110001393,85.19867610000074,85.19867610000074,85.19867610000074,88.17556280002464,None,88.17733330000192,88.19224820006639,88.19224820006639,90.7183415000327,f,2.5090953999897465,None,,,,,,,,,,,,,,,,,,,,,,,,,,,,,,,,,,00029,001,2026-01-21_11h19.06.023,MST_task,2024.2.0,59.80449909372449,2026-01-21 11h19.18.490725 +0530,
3,practice_images/037a.jpg,1,1,1,f,None,,,1.7362256998894736,0.1435690000653267,,,,,,,1,1,1,,,,90.73436680005398,,,,,,,,,,,,,,,,,,,,,,,90.71843160002027,90.73436680005398,91.21984819998033,91.22821630002,91.25285270006862,91.25285270006862,91.25285270006862,94.2300001999829,f,94.23006420000456,,,94.2300777999917,None,,,1.7362256998894736,0.1435690000653267,,,,,,,,,,,,,,,,,,,,,,,,,,,,,,,,00029,001,2026-01-21_11h19.06.023,MST_task,2024.2.0,59.80449909372449,2026-01-21 11h19.18.490725 +0530,
10,practice_images/182a.jpg,2,2,1,f,None,,,1.4488649999257177,0.1443967999657616,,,,,,,1,2,2,,,,94.24679470004048,,,,,,,,,,,,,,,,,,,,,,,94.23014750005677,94.24679470004048,94.73186250007711,94.74039599997923,94.74783790006768,94.74783790006768,94.74783790006768,97.74235840002075,f,97.74241800000891,,,97.74243220000062,None,,,1.4488649999257177,0.1443967999657616,,,,,,,,,,,,,,,,,,,,,,,,,,,,,,,,00029,001,2026-01-21_11h19.06.023,MST_task,2024.2.0,59.80449909372449,2026-01-21 11h19.18.490725 +0530,
8,practice_images/178a.jpg,3,3,1,j,None,,,1.4392812000587583,0.1530526999849826,,,,,,,1,3,3,,,,97.7591002000263,,,,,,,,,,,,,,,,,,,,,,,97.74264770001173,97.7591002000263,98.24437390000094,98.25294710008893,98.27803060004953,98.27803060004953,98.27803060004953,101.255021900055,j,101.25508929998614,,,101.2551043999847,None,,,1.4392812000587583,0.1530526999849826,,,,,,,,,,,,,,,,,,,,,,,,,,,,,,,,00029,001,2026-01-21_11h19.06.023,MST_task,2024.2.0,59.80449909372449,2026-01-21 11h19.18.490725 +0530,
9,practice_images/180a.jpg,4,4,1,f,None,,,0.9192595999920741,0.12767539999913424,,,,,,,1,4,4,,,,101.27141980000306,,,,,,,,,,,,,,,,,,,,,,,101.25518039998133,101.27141980000306,101.75668300001416,101.76548880001064,101.79005220008548,101.79005220008548,101.79005220008548,104.76691440003924,f,104.76698810001835,,,104.76700500003062,None,,,0.9192595999920741,0.12767539999913424,,,,,,,,,,,,,,,,,,,,,,,,,,,,,,,,00029,001,2026-01-21_11h19.06.023,MST_task,2024.2.0,59.80449909372449,2026-01-21 11h19.18.490725 +0530,
1,practice_images/013a.jpg,5,5,1,j,None,,,1.2964727999642491,0.1357846000464633,,,,,,,1,5,5,,,,104.78370280005038,,,,,,,,,,,,,,,,,,,,,,,104.76708120002877,104.78370280005038,105.26874259999022,105.2773901000619,105.28500100004021,105.28500100004021,105.28500100004021,108.2796432999894,j,108.27970210008789,,,108.27972700004466,None,,,1.2964727999642491,0.1357846000464633,,,,,,,,,,,,,,,,,,,,,,,,,,,,,,,,00029,001,2026-01-21_11h19.06.023,MST_task,2024.2.0,59.80449909372449,2026-01-21 11h19.18.490725 +0530,
6,practice_images/158a.jpg,6,6,1,j,None,,,1.2637165000196546,0.14439319993834943,,,,,,,1,6,6,,,,108.29591880005319,,,,,,,,,,,,,,,,,,,,,,,108.27979800000321,108.29591880005319,108.78123800002504,108.78980110003613,108.79709480004385,108.79709480004385,108.79709480004385,111.79163770005107,j,111.79169440001715,,,111.79173220007215,None,,,1.2637165000196546,0.14439319993834943,,,,,,,,,,,,,,,,,,,,,,,,,,,,,,,,00029,001,2026-01-21_11h19.06.023,MST_task,2024.2.0,59.80449909372449,2026-01-21 11h19.18.490725 +0530,
4,practice_images/002b.jpg,7,7,1,None,f,1.1977509999414906,None,,,,,,,,,1,7,7,,,,111.80820139998104,,,,,,,,,,,,,,,,,,,,,,,111.79180160001852,111.80820139998104,112.2935923000332,112.30233740003314,112.30990130000282,112.30990130000282,112.30990130000282,115.30394040001556,None,115.30416659999173,115.32049329997972,115.32049329997972,116.52547710004728,f,1.1977509999414906,None,,,,,,,,,,,,,,,,,,,,,,,,,,,,,,,,,,00029,001,2026-01-21_11h19.06.023,MST_task,2024.2.0,59.80449909372449,2026-01-21 11h19.18.490725 +0530,
5,practice_images/139a.jpg,8,8,1,j,None,,,1.1314070000080392,0.1582872000290081,,,,,,,1,8,8,,,,116.54155060008634,,,,,,,,,,,,,,,,,,,,,,,116.52560759999324,116.54155060008634,117.02652600000147,117.03485130006447,117.0426583000226,117.0426583000226,117.0426583000226,120.03707449999638,j,120.03716920001898,,,120.03718540002592,None,,,1.1314070000080392,0.1582872000290081,,,,,,,,,,,,,,,,,,,,,,,,,,,,,,,,00029,001,2026-01-21_11h19.06.023,MST_task,2024.2.0,59.80449909372449,2026-01-21 11h19.18.490725 +0530,
7,practice_images/166a.jpg,9,9,1,None,f,1.6303442000644282,None,,,,,,,,,1,9,9,,,,120.05383930006064,,,,,,,,,,,,,,,,,,,,,,,120.03725679998752,120.05383930006064,120.53881290007848,120.54693980002776,120.55487860005815,120.55487860005815,120.55487860005815,123.54940470005386,None,123.54946610005572,123.56616709998343,123.56616709998343,125.2065226000268,f,1.6303442000644282,None,,,,,,,,,,,,,,,,,,,,,,,,,,,,,,,,,,00029,001,2026-01-21_11h19.06.023,MST_task,2024.2.0,59.80449909372449,2026-01-21 11h19.18.490725 +0530,
,,,,,,,,,,,,,,,,,,,,,,,,,,,,,,,,,,,,,,,,,,,,,,,,,,,,,,,,,,,,,,,,125.20659610000439,125.22196860006079,125.22196860006079,140.20837940007914,space,14.982622000039555,None,,,,,,,,,,,,,,,,,,,,,,,,,00029,001,2026-01-21_11h19.06.023,MST_task,2024.2.0,59.80449909372449,2026-01-21 11h19.18.490725 +0530,
,Objects\140a.jpg,0,0,1,,,,,,,j,1.708727699937299,0.1352028000401333,None,,,,,,1,0,0,140.22450220002793,,,,,,,,,,,,,,,,,,,,,,,140.20903130003717,140.22450220002793,140.70950060000177,,,,,,,,,,,,,,,,,,,,,,,140.73481699998956,140.76054020004813,140.76054020004813,140.76054020004813,143.72005930007435,j,1.708727699937299,0.1352028000401333,143.72154749999754,143.7215665000258,None,,,,,,,,,,,,,,00029,001,2026-01-21_11h19.06.023,MST_task,2024.2.0,59.80449909372449,2026-01-21 11h19.18.490725 +0530,
,Objects\143a.jpg,1,0,2,,,,,,,f,1.6061872999416664,0.14361470006406307,None,,,,,,2,0,1,143.73679840005934,,,,,,,,,,,,,,,,,,,,,,,143.72205199999735,143.73679840005934,144.22181640006602,,,,,,,,,,,,,,,,,,,,,,,144.23160669999197,144.2552858000854,144.2552858000854,144.2552858000854,147.232348700054,f,1.6061872999416664,0.14361470006406307,147.23242200003006,147.23243520001415,None,,,,,,,,,,,,,,00029,001,2026-01-21_11h19.06.023,MST_task,2024.2.0,59.80449909372449,2026-01-21 11h19.18.490725 +0530,
,Objects\117a.jpg,2,0,3,,,,,,,j,1.4052875000052154,0.16808869992382824,None,,,,,,3,0,2,147.24909830000252,,,,,,,,,,,,,,,,,,,,,,,147.23278479999863,147.24909830000252,147.73407120001502,,,,,,,,,,,,,,,,,,,,,,,147.7437004999956,147.7675766000757,147.7675766000757,147.7675766000757,150.74475359998178,j,1.4052875000052154,0.16808869992382824,150.74496999999974,150.7449837999884,None,,,,,,,,,,,,,,00029,001,2026-01-21_11h19.06.023,MST_task,2024.2.0,59.80449909372449,2026-01-21 11h19.18.490725 +0530,
,Objects\145a.jpg,3,0,4,,,,,,,f,1.781725899898447,0.1515606000320986,None,,,,,,4,0,3,150.7612872000318,,,,,,,,,,,,,,,,,,,,,,,150.7450598999858,150.7612872000318,151.24649819999468,,,,,,,,,,,,,,,,,,,,,,,151.25729209999554,151.27977380005177,151.27977380005177,151.27977380005177,154.2569419000065,f,1.781725899898447,0.1515606000320986,154.25699949997943,154.25701260007918,None,,,,,,,,,,,,,,00029,001,2026-01-21_11h19.06.023,MST_task,2024.2.0,59.80449909372449,2026-01-21 11h19.18.490725 +0530,
,Objects\044a.jpg,4,0,5,,,,,,,j,2.940955700003542,None,None,,,,,,5,0,4,154.27381899999455,,,,,,,,,,,,,,,,,,,,,,,154.25710030004848,154.27381899999455,154.7586777000688,,,,,,,,,,,,,,,,,,,,,,,154.76794000004884,154.79218760004733,154.79218760004733,154.79218760004733,157.76950070005842,j,2.940955700003542,None,157.76955500000622,157.7695671999827,None,,,,,,,,,,,,,,00029,001,2026-01-21_11h19.06.023,MST_task,2024.2.0,59.80449909372449,2026-01-21 11h19.18.490725 +0530,
,Objects\161a.jpg,5,0,6,,,,,,,j,1.0365148999262601,0.12788360007107258,None,,,,,,6,0,5,157.7858951999806,,,,,,,,,,,,,,,,,,,,,,,157.7696900999872,157.7858951999806,158.2715857999865,,,,,,,,,,,,,,,,,,,,,,,158.2811675000703,158.30438890005462,158.30438890005462,158.30438890005462,161.2815452000359,j,1.0365148999262601,0.12788360007107258,161.2816055000294,161.28161930001806,None,,,,,,,,,,,,,,00029,001,2026-01-21_11h19.06.023,MST_task,2024.2.0,59.80449909372449,2026-01-21 11h19.18.490725 +0530,
,Objects\097a.jpg,6,0,7,,,,,,,j,0.8839645999250934,0.16810470004566014,None,,,,,,7,0,6,161.29830999998376,,,,,,,,,,,,,,,,,,,,,,,161.28199619997758,161.29830999998376,161.78355819999706,,,,,,,,,,,,,,,,,,,,,,,161.79323429998476,161.8169540000381,161.8169540000381,161.8169540000381,164.79382190003525,j,0.8839645999250934,0.16810470004566014,164.79388140002266,164.79389490000904,None,,,,,,,,,,,,,,00029,001,2026-01-21_11h19.06.023,MST_task,2024.2.0,59.80449909372449,2026-01-21 11h19.18.490725 +0530,
,Scenes\027a.jpg,7,0,8,,,,,,,f,1.6819832000182942,0.10399639990646392,None,,,,,,8,0,7,164.8106179999886,,,,,,,,,,,,,,,,,,,,,,,164.79398329998367,164.8106179999886,165.2957177000353,,,,,,,,,,,,,,,,,,,,,,,165.32510580006056,165.3468537000008,165.3468537000008,165.3468537000008,168.30628370004706,f,1.6819832000182942,0.10399639990646392,168.3063408000162,168.30635389999952,None,,,,,,,,,,,,,,00029,001,2026-01-21_11h19.06.023,MST_task,2024.2.0,59.80449909372449,2026-01-21 11h19.18.490725 +0530,
,Scenes\088a.jpg,8,0,9,,,,,,,j,0.7534984999801964,0.11952239996753633,None,,,,,,9,0,8,168.32292449998204,,,,,,,,,,,,,,,,,,,,,,,168.3064426999772,168.32292449998204,168.80815390008502,,,,,,,,,,,,,,,,,,,,,,,168.83983429998625,168.85942710004747,168.85942710004747,168.85942710004747,171.8185943000717,j,0.7534984999801964,0.11952239996753633,171.8186520000454,171.81867050006986,None,,,,,,,,,,,,,,00029,001,2026-01-21_11h19.06.023,MST_task,2024.2.0,59.80449909372449,2026-01-21 11h19.18.490725 +0530,
,Scenes\032a.jpg,9,0,10,,,,,,,j,1.8901886999374256,0.15986500005237758,None,,,,,,10,0,9,171.8353670000797,,,,,,,,,,,,,,,,,,,,,,,171.81881720002275,171.8353670000797,172.32105710008182,,,,,,,,,,,,,,,,,,,,,,,172.35089790006168,172.37115470005665,172.37115470005665,172.37115470005665,175.33107830001973,j,1.8901886999374256,0.15986500005237758,175.33114879997447,175.33116200007498,None,,,,,,,,,,,,,,00029,001,2026-01-21_11h19.06.023,MST_task,2024.2.0,59.80449909372449,2026-01-21 11h19.18.490725 +0530,
,Scenes\141a.jpg,10,0,11,,,,,,,j,1.0431947000324726,0.15117249998729676,None,,,,,,11,0,10,175.3477049000794,,,,,,,,,,,,,,,,,,,,,,,175.33123480004724,175.3477049000794,175.8327632000437,,,,,,,,,,,,,,,,,,,,,,,175.85326410003472,175.8670716000488,175.8670716000488,175.8670716000488,178.8434530000668,j,1.0431947000324726,0.15117249998729676,178.84350960003212,178.84352270001546,None,,,,,,,,,,,,,,00029,001,2026-01-21_11h19.06.023,MST_task,2024.2.0,59.80449909372449,2026-01-21 11h19.18.490725 +0530,
,Scenes\051a.jpg,11,0,12,,,,,,,j,1.082120200037025,0.15962280007079244,None,,,,,,12,0,11,178.85969379998278,,,,,,,,,,,,,,,,,,,,,,,178.84362210007384,178.85969379998278,179.34498960000928,,,,,,,,,,,,,,,,,,,,,,,179.36550259997603,179.3793523000786,179.3793523000786,179.3793523000786,182.35532900004182,j,1.082120200037025,0.15962280007079244,182.35539779998362,182.35541090008337,None,,,,,,,,,,,,,,00029,001,2026-01-21_11h19.06.023,MST_task,2024.2.0,59.80449909372449,2026-01-21 11h19.18.490725 +0530,
,Scenes\078a.jpg,12,0,13,,,,,,,j,2.433064299984835,0.1760293000843376,None,,,,,,13,0,12,182.37212670000736,,,,,,,,,,,,,,,,,,,,,,,182.35550930001773,182.37212670000736,182.85728080000263,,,,,,,,,,,,,,,,,,,,,,,182.88387610006612,182.90826300007757,182.90826300007757,182.90826300007757,185.86753100005444,j,2.433064299984835,0.1760293000843376,185.8676001999993,185.86761299998034,None,,,,,,,,,,,,,,00029,001,2026-01-21_11h19.06.023,MST_task,2024.2.0,59.80449909372449,2026-01-21 11h19.18.490725 +0530,
,Scenes\069a.jpg,13,0,14,,,,,,,j,1.5058192999567837,0.16048469999805093,None,,,,,,14,0,13,185.88401630008593,,,,,,,,,,,,,,,,,,,,,,,185.86782050004695,185.88401630008593,186.36932699999306,,,,,,,,,,,,,,,,,,,,,,,186.38887040002737,186.40255470003467,186.40255470003467,186.40255470003467,189.37999919999857,j,1.5058192999567837,0.16048469999805093,189.38006480003241,189.3800791000249,None,,,,,,,,,,,,,,00029,001,2026-01-21_11h19.06.023,MST_task,2024.2.0,59.80449909372449,2026-01-21 11h19.18.490725 +0530,
,Objects\114a.jpg,14,0,15,,,,,,,f,1.1617662000935525,0.14308899990282953,None,,,,,,15,0,14,189.39686440001242,,,,,,,,,,,,,,,,,,,,,,,189.38018169999123,189.39686440001242,189.88252019998617,,,,,,,,,,,,,,,,,,,,,,,189.90747990005184,189.91560290008783,189.91560290008783,189.91560290008783,192.89201950002462,f,1.1617662000935525,0.14308899990282953,192.89208380004857,192.8920969000319,None,,,,,,,,,,,,,,00029,001,2026-01-21_11h19.06.023,MST_task,2024.2.0,59.80449909372449,2026-01-21 11h19.18.490725 +0530,
,Objects\065a.jpg,15,0,16,,,,,,,f,1.1298083999427035,0.13658570009283721,None,,,,,,16,0,15,192.90860159997828,,,,,,,,,,,,,,,,,,,,,,,192.89216769998893,192.90860159997828,193.39382500003558,,,,,,,,,,,,,,,,,,,,,,,193.4161718999967,193.4270472000353,193.4270472000353,193.4270472000353,196.40428930008784,f,1.1298083999427035,0.13658570009283721,196.40434600005392,196.4043590000365,None,,,,,,,,,,,,,,00029,001,2026-01-21_11h19.06.023,MST_task,2024.2.0,59.80449909372449,2026-01-21 11h19.18.490725 +0530,
,Objects\100a.jpg,16,0,17,,,,,,,j,1.6791986000025645,0.15871529991272837,None,,,,,,17,0,16,196.42101970000658,,,,,,,,,,,,,,,,,,,,,,,196.40445580007508,196.42101970000658,196.90604440006427,,,,,,,,,,,,,,,,,,,,,,,196.9284754000837,196.9424140000483,196.9424140000483,196.9424140000483,199.91649149998557,j,1.6791986000025645,0.15871529991272837,199.91654690005817,199.9165595000377,None,,,,,,,,,,,,,,00029,001,2026-01-21_11h19.06.023,MST_task,2024.2.0,59.80449909372449,2026-01-21 11h19.18.490725 +0530,
,Objects\088a.jpg,17,0,18,,,,,,,f,1.161339999991469,0.15971290005836636,None,,,,,,18,0,17,199.93344980000984,,,,,,,,,,,,,,,,,,,,,,,199.91662989999168,199.93344980000984,200.41832410008647,,,,,,,,,,,,,,,,,,,,,,,200.44159080006648,200.45195160002913,200.45195160002913,200.45195160002913,203.4290844000643,f,1.161339999991469,0.15971290005836636,203.42914700007532,203.42916960001457,None,,,,,,,,,,,,,,00029,001,2026-01-21_11h19.06.023,MST_task,2024.2.0,59.80449909372449,2026-01-21 11h19.18.490725 +0530,
,Objects\106a.jpg,18,0,19,,,,,,,f,1.249218099983409,0.1120558000402525,None,,,,,,19,0,18,203.44550959998742,,,,,,,,,,,,,,,,,,,,,,,203.4292914000107,203.44550959998742,203.93085580004845,,,,,,,,,,,,,,,,,,,,,,,203.9536897999933,203.96396449999884,203.96396449999884,203.96396449999884,206.94110370008275,f,1.249218099983409,0.1120558000402525,206.9411657000892,206.9411794000771,None,,,,,,,,,,,,,,00029,001,2026-01-21_11h19.06.023,MST_task,2024.2.0,59.80449909372449,2026-01-21 11h19.18.490725 +0530,
,Objects\050a.jpg,19,0,20,,,,,,,j,2.5212499999906868,0.031067300005815923,None,,,,,,20,0,19,206.9579227999784,,,,,,,,,,,,,,,,,,,,,,,206.94128330005333,206.9579227999784,207.4429249999812,,,,,,,,,,,,,,,,,,,,,,,207.46715759998187,207.47637270006817,207.47637270006817,207.47637270006817,210.45352330000605,j,2.5212499999906868,0.031067300005815923,210.45357890008017,210.45359190006275,None,,,,,,,,,,,,,,00029,001,2026-01-21_11h19.06.023,MST_task,2024.2.0,59.80449909372449,2026-01-21 11h19.18.490725 +0530,
,Objects\147a.jpg,20,0,21,,,,,,,f,1.3523274000035599,0.13545930001419038,None,,,,,,21,0,20,210.47010280005634,,,,,,,,,,,,,,,,,,,,,,,210.45367509999778,210.47010280005634,210.95540640002582,,,,,,,,,,,,,,,,,,,,,,,210.97661590005737,210.98854599997867,210.98854599997867,210.98854599997867,213.9657202999806,f,1.3523274000035599,0.13545930001419038,213.96578119997866,213.96579490008298,None,,,,,,,,,,,,,,00029,001,2026-01-21_11h19.06.023,MST_task,2024.2.0,59.80449909372449,2026-01-21 11h19.18.490725 +0530,
,Scenes\192a.jpg,21,0,22,,,,,,,j,1.1038189000682905,0.13518199999816716,None,,,,,,22,0,21,213.9825976000866,,,,,,,,,,,,,,,,,,,,,,,213.96587070007809,213.9825976000866,214.46763990004547,,,,,,,,,,,,,,,,,,,,,,,214.48987799999304,214.5016048999969,214.5016048999969,214.5016048999969,217.4779881000286,j,1.1038189000682905,0.13518199999816716,217.47806190000847,217.4780754999956,None,,,,,,,,,,,,,,00029,001,2026-01-21_11h19.06.023,MST_task,2024.2.0,59.80449909372449,2026-01-21 11h19.18.490725 +0530,
,Scenes\138a.jpg,22,0,23,,,,,,,j,0.886893599992618,0.12752009998075664,None,,,,,,23,0,22,217.4948356000241,,,,,,,,,,,,,,,,,,,,,,,217.47815069998614,217.4948356000241,217.97979780007154,,,,,,,,,,,,,,,,,,,,,,,218.0056188000599,218.0302045000717,218.0302045000717,218.0302045000717,220.99059439997654,j,0.886893599992618,0.12752009998075664,220.99066580005456,220.9906794000417,None,,,,,,,,,,,,,,00029,001,2026-01-21_11h19.06.023,MST_task,2024.2.0,59.80449909372449,2026-01-21 11h19.18.490725 +0530,
,Scenes\119a.jpg,23,0,24,,,,,,,j,1.4288522000424564,0.11999569996260107,None,,,,,,24,0,23,221.00702460005414,,,,,,,,,,,,,,,,,,,,,,,220.9907715000445,221.00702460005414,221.49232580000535,,,,,,,,,,,,,,,,,,,,,,,221.5186449000612,221.54400500003248,221.54400500003248,221.54400500003248,224.50274600007106,j,1.4288522000424564,0.11999569996260107,224.50283820007462,224.50285440008156,None,,,,,,,,,,,,,,00029,001,2026-01-21_11h19.06.023,MST_task,2024.2.0,59.80449909372449,2026-01-21 11h19.18.490725 +0530,
,Scenes\179a.jpg,24,0,25,,,,,,,j,0.7733515999279916,0.14412209996953607,None,,,,,,25,0,24,224.51944960001856,,,,,,,,,,,,,,,,,,,,,,,224.50328110007104,224.51944960001856,225.00456939998548,,,,,,,,,,,,,,,,,,,,,,,225.0281621000031,225.05536920006853,225.05536920006853,225.05536920006853,228.01574669999536,j,0.7733515999279916,0.14412209996953607,228.01581600005738,228.01583010004833,None,,,,,,,,,,,,,,00029,001,2026-01-21_11h19.06.023,MST_task,2024.2.0,59.80449909372449,2026-01-21 11h19.18.490725 +0530,
,Scenes\130a.jpg,25,0,26,,,,,,,j,1.157344299950637,0.11965610005427152,None,,,,,,26,0,25,228.03175600001123,,,,,,,,,,,,,,,,,,,,,,,228.0159249000717,228.03175600001123,228.516835300019,,,,,,,,,,,,,,,,,,,,,,,228.5465625000652,228.56798619998153,228.56798619998153,228.56798619998153,231.5272250000853,j,1.157344299950637,0.11965610005427152,231.52728100004606,231.5272941000294,None,,,,,,,,,,,,,,00029,001,2026-01-21_11h19.06.023,MST_task,2024.2.0,59.80449909372449,2026-01-21 11h19.18.490725 +0530,
,Scenes\019a.jpg,26,0,27,,,,,,,f,2.87662860006094,None,None,,,,,,27,0,26,231.5442932000151,,,,,,,,,,,,,,,,,,,,,,,231.52739130007103,231.5442932000151,232.02901870000642,,,,,,,,,,,,,,,,,,,,,,,232.05374230002053,232.08043820003513,232.08043820003513,232.08043820003513,235.03962850000244,f,2.87662860006094,None,235.03968639997765,235.03969940007664,None,,,,,,,,,,,,,,00029,001,2026-01-21_11h19.06.023,MST_task,2024.2.0,59.80449909372449,2026-01-21 11h19.18.490725 +0530,
,Scenes\177a.jpg,27,0,28,,,,,,,j,1.1497524000005797,0.11235419998411089,None,,,,,,28,0,27,235.05634340003598,,,,,,,,,,,,,,,,,,,,,,,235.03976840001997,235.05634340003598,235.54169380001258,,,,,,,,,,,,,,,,,,,,,,,235.56464190001134,235.57472080003936,235.57472080003936,235.57472080003936,238.551947100088,j,1.1497524000005797,0.11235419998411089,238.55200510006398,238.5520180000458,None,,,,,,,,,,,,,,00029,001,2026-01-21_11h19.06.023,MST_task,2024.2.0,59.80449909372449,2026-01-21 11h19.18.490725 +0530,
,Objects\026a.jpg,28,0,29,,,,,,,f,2.41321120003704,0.08817469992209226,None,,,,,,29,0,28,238.5686401000712,,,,,,,,,,,,,,,,,,,,,,,238.5520920000272,238.5686401000712,239.0536273000762,,,,,,,,,,,,,,,,,,,,,,,239.07814320002217,239.08800480002537,239.08800480002537,239.08800480002537,242.06430079997517,f,2.41321120003704,0.08817469992209226,242.06435960007366,242.064372700057,None,,,,,,,,,,,,,,00029,001,2026-01-21_11h19.06.023,MST_task,2024.2.0,59.80449909372449,2026-01-21 11h19.18.490725 +0530,
,Objects\149a.jpg,29,0,30,,,,,,,f,1.9899813000811264,0.12808689998928457,None,,,,,,30,0,29,242.08111310005188,,,,,,,,,,,,,,,,,,,,,,,242.06446919997688,242.08111310005188,242.56591450003907,,,,,,,,,,,,,,,,,,,,,,,242.5871146999998,242.59952450008132,242.59952450008132,242.59952450008132,245.57664470002055,f,1.9899813000811264,0.12808689998928457,245.5767027999973,245.57671639998443,None,,,,,,,,,,,,,,00029,001,2026-01-21_11h19.06.023,MST_task,2024.2.0,59.80449909372449,2026-01-21 11h19.18.490725 +0530,
,Objects\077a.jpg,30,0,31,,,,,,,j,1.7727806000038981,0.129200299968943,None,,,,,,31,0,30,245.59312149998732,,,,,,,,,,,,,,,,,,,,,,,245.5768098999979,245.59312149998732,246.07834760006517,,,,,,,,,,,,,,,,,,,,,,,246.09863390005194,246.1115729000885,246.1115729000885,246.1115729000885,249.0889001999749,j,1.7727806000038981,0.129200299968943,249.08897480007727,249.08898860006593,None,,,,,,,,,,,,,,00029,001,2026-01-21_11h19.06.023,MST_task,2024.2.0,59.80449909372449,2026-01-21 11h19.18.490725 +0530,
,Objects\086a.jpg,31,0,32,,,,,,,None,,,j,0.22718729998450726,None,,,,32,0,31,249.10571340005845,,,,,,,,,,,,,,,,,,,,,,,249.08908509998582,249.10571340005845,249.59078299999237,,,,,,,,,,,,,,,,,,,,,,,249.61423509998713,249.62396110000554,249.62396110000554,249.62396110000554,252.6010250999825,None,,,252.601085399976,252.8526049000211,j,252.61802000005264,252.61802000005264,0.22718729998450726,None,,,,,,,,,,00029,001,2026-01-21_11h19.06.023,MST_task,2024.2.0,59.80449909372449,2026-01-21 11h19.18.490725 +0530,
,Objects\064a.jpg,32,0,33,,,,,,,j,2.32126190001145,0.13634140009526163,None,,,,,,33,0,32,252.86861950007733,,,,,,,,,,,,,,,,,,,,,,,252.85273010004312,252.86861950007733,253.3538550999947,,,,,,,,,,,,,,,,,,,,,,,253.37722000002395,253.3870567000704,253.3870567000704,253.3870567000704,256.3642411000328,j,2.32126190001145,0.13634140009526163,256.36430600006133,256.36431990005076,None,,,,,,,,,,,,,,00029,001,2026-01-21_11h19.06.023,MST_task,2024.2.0,59.80449909372449,2026-01-21 11h19.18.490725 +0530,
,Objects\159a.jpg,33,0,34,,,,,,,f,1.2896377000724897,0.12780689995270222,None,,,,,,34,0,33,256.3811331000179,,,,,,,,,,,,,,,,,,,,,,,256.3644241000293,256.3811331000179,256.86598610004876,,,,,,,,,,,,,,,,,,,,,,,256.8877130000619,256.8994594999822,256.8994594999822,256.8994594999822,259.8766235000221,f,1.2896377000724897,0.12780689995270222,259.8766811999958,259.87669399997685,None,,,,,,,,,,,,,,00029,001,2026-01-21_11h19.06.023,MST_task,2024.2.0,59.80449909372449,2026-01-21 11h19.18.490725 +0530,
,Objects\053a.jpg,34,0,35,,,,,,,f,2.2172401000279933,0.1362781000789255,None,,,,,,35,0,34,259.89321680006105,,,,,,,,,,,,,,,,,,,,,,,259.87681540008634,259.89321680006105,260.37842850002926,,,,,,,,,,,,,,,,,,,,,,,260.4015009000432,260.41165650007315,260.41165650007315,260.41165650007315,263.3889642000431,f,2.2172401000279933,0.1362781000789255,263.3890206000069,263.3890327999834,None,,,,,,,,,,,,,,00029,001,2026-01-21_11h19.06.023,MST_task,2024.2.0,59.80449909372449,2026-01-21 11h19.18.490725 +0530,
,Scenes\125a.jpg,35,0,36,,,,,,,j,1.0570226999698207,0.13494959997478873,None,,,,,,36,0,35,263.40578320005443,,,,,,,,,,,,,,,,,,,,,,,263.38915040006395,263.40578320005443,263.8907588000875,,,,,,,,,,,,,,,,,,,,,,,263.9154991999967,263.94095700001344,263.94095700001344,263.94095700001344,266.90111179999076,j,1.0570226999698207,0.13494959997478873,266.901203299989,266.9012189999921,None,,,,,,,,,,,,,,00029,001,2026-01-21_11h19.06.023,MST_task,2024.2.0,59.80449909372449,2026-01-21 11h19.18.490725 +0530,
,Scenes\191a.jpg,36,0,37,,,,,,,j,2.008928900002502,0.15144149994011968,None,,,,,,37,0,36,266.917930399999,,,,,,,,,,,,,,,,,,,,,,,266.90160109999124,266.917930399999,267.4029297999805,,,,,,,,,,,,,,,,,,,,,,,267.42495430004783,267.4367148000747,267.4367148000747,267.4367148000747,270.41339490003884,j,2.008928900002502,0.15144149994011968,270.4134514000034,270.41346339997835,None,,,,,,,,,,,,,,00029,001,2026-01-21_11h19.06.023,MST_task,2024.2.0,59.80449909372449,2026-01-21 11h19.18.490725 +0530,
,Scenes\063a.jpg,37,0,38,,,,,,,j,0.9117886999156326,0.11145530000794679,None,,,,,,38,0,37,270.4302517999895,,,,,,,,,,,,,,,,,,,,,,,270.41354800004046,270.4302517999895,270.9151945000049,,,,,,,,,,,,,,,,,,,,,,,270.9387339000823,270.9652859000489,270.9652859000489,270.9652859000489,273.92603289999533,j,0.9117886999156326,0.11145530000794679,273.9261042000726,273.92611670005135,None,,,,,,,,,,,,,,00029,001,2026-01-21_11h19.06.023,MST_task,2024.2.0,59.80449909372449,2026-01-21 11h19.18.490725 +0530,
,Scenes\098a.jpg,38,0,39,,,,,,,f,2.4473908999934793,0.1523241000249982,None,,,,,,39,0,38,273.9425835000584,,,,,,,,,,,,,,,,,,,,,,,273.9262108000694,273.9425835000584,274.42762009997386,,,,,,,,,,,,,,,,,,,,,,,274.45005510002375,274.4612640000414,274.4612640000414,274.4612640000414,277.4384337000083,f,2.4473908999934793,0.1523241000249982,277.43849359999876,277.4385071999859,None,,,,,,,,,,,,,,00029,001,2026-01-21_11h19.06.023,MST_task,2024.2.0,59.80449909372449,2026-01-21 11h19.18.490725 +0530,
,Scenes\113a.jpg,39,0,40,,,,,,,j,2.031485899933614,0.183548100059852,None,,,,,,40,0,39,277.4547058000462,,,,,,,,,,,,,,,,,,,,,,,277.4385826999787,277.4547058000462,277.9399141999893,,,,,,,,,,,,,,,,,,,,,,,277.9662413999904,277.9733554000268,277.9733554000268,277.9733554000268,280.9502576000523,j,2.031485899933614,0.183548100059852,280.95034560002387,280.9503598000156,None,,,,,,,,,,,,,,00029,001,2026-01-21_11h19.06.023,MST_task,2024.2.0,59.80449909372449,2026-01-21 11h19.18.490725 +0530,
,Scenes\129a.jpg,40,0,41,,,,,,,j,2.3751892000436783,0.16897979995701462,None,,,,,,41,0,40,280.9668892000336,,,,,,,,,,,,,,,,,,,,,,,280.95046540000476,280.9668892000336,281.4522316000657,,,,,,,,,,,,,,,,,,,,,,,281.47431690001395,281.4854282999877,281.4854282999877,281.4854282999877,284.4627460000338,j,2.3751892000436783,0.16897979995701462,284.462814400089,284.46282710006926,None,,,,,,,,,,,,,,00029,001,2026-01-21_11h19.06.023,MST_task,2024.2.0,59.80449909372449,2026-01-21 11h19.18.490725 +0530,
,Scenes\155a.jpg,41,0,42,,,,,,,j,0.8702231000643224,0.17622829996980727,None,,,,,,42,0,41,284.4794383000117,,,,,,,,,,,,,,,,,,,,,,,284.4630489000119,284.4794383000117,284.9643964000279,,,,,,,,,,,,,,,,,,,,,,,284.9901522999862,285.0145029000705,285.0145029000705,285.0145029000705,287.9750167999882,j,0.8702231000643224,0.17622829996980727,287.9750735000707,287.97508560004644,None,,,,,,,,,,,,,,00029,001,2026-01-21_11h19.06.023,MST_task,2024.2.0,59.80449909372449,2026-01-21 11h19.18.490725 +0530,
,Objects\016a.jpg,42,0,43,,,,,,,f,1.759474000078626,0.1367413999978453,None,,,,,,43,0,42,287.9918669000035,,,,,,,,,,,,,,,,,,,,,,,287.9752117000753,287.9918669000035,288.4768492000876,,,,,,,,,,,,,,,,,,,,,,,288.499452500022,288.51017919997685,288.51017919997685,288.51017919997685,291.4877441000426,f,1.759474000078626,0.1367413999978453,291.4878141999943,291.48782699997537,None,,,,,,,,,,,,,,00029,001,2026-01-21_11h19.06.023,MST_task,2024.2.0,59.80449909372449,2026-01-21 11h19.18.490725 +0530,
,Objects\164a.jpg,43,0,44,,,,,,,f,2.4379275999963284,0.12903449998702854,None,,,,,,44,0,43,291.50392779998947,,,,,,,,,,,,,,,,,,,,,,,291.4880560000893,291.50392779998947,291.9891253000824,,,,,,,,,,,,,,,,,,,,,,,292.0101879000431,292.02235980005935,292.02235980005935,292.02235980005935,294.99952479999047,f,2.4379275999963284,0.12903449998702854,294.99958230007906,294.9995954000624,None,,,,,,,,,,,,,,00029,001,2026-01-21_11h19.06.023,MST_task,2024.2.0,59.80449909372449,2026-01-21 11h19.18.490725 +0530,
,Objects\155a.jpg,44,0,45,,,,,,,f,0.8380926999961957,0.18388580007012933,None,,,,,,45,0,44,295.0163352000527,,,,,,,,,,,,,,,,,,,,,,,294.99969329999294,295.0163352000527,295.50147440005094,,,,,,,,,,,,,,,,,,,,,,,295.52453390008304,295.53492040000856,295.53492040000856,295.53492040000856,298.51195870002266,f,0.8380926999961957,0.18388580007012933,298.5120248000603,298.5120478000026,None,,,,,,,,,,,,,,00029,001,2026-01-21_11h19.06.023,MST_task,2024.2.0,59.80449909372449,2026-01-21 11h19.18.490725 +0530,
,Objects\176a.jpg,45,0,46,,,,,,,j,1.205915099941194,0.1120305999647826,None,,,,,,46,0,45,298.52872010006104,,,,,,,,,,,,,,,,,,,,,,,298.5122106000781,298.52872010006104,299.0137446000008,,,,,,,,,,,,,,,,,,,,,,,299.035794800031,299.0469619000796,299.0469619000796,299.0469619000796,302.0242880000733,j,1.205915099941194,0.1120305999647826,302.02434650005307,302.02436030004174,None,,,,,,,,,,,,,,00029,001,2026-01-21_11h19.06.023,MST_task,2024.2.0,59.80449909372449,2026-01-21 11h19.18.490725 +0530,
,Objects\112a.jpg,46,0,47,,,,,,,f,1.4853672999888659,0.10415129992179573,None,,,,,,47,0,46,302.0409282000037,,,,,,,,,,,,,,,,,,,,,,,302.0244559000712,302.0409282000037,302.5259153000079,,,,,,,,,,,,,,,,,,,,,,,302.5489792000735,302.55939080007374,302.55939080007374,302.55939080007374,305.53704199998174,f,1.4853672999888659,0.10415129992179573,305.5371130000567,305.53712630004156,None,,,,,,,,,,,,,,00029,001,2026-01-21_11h19.06.023,MST_task,2024.2.0,59.80449909372449,2026-01-21 11h19.18.490725 +0530,
,Objects\127a.jpg,47,0,48,,,,,,,f,1.781242600060068,0.12008300004526973,None,,,,,,48,0,47,305.5531284000026,,,,,,,,,,,,,,,,,,,,,,,305.5371987000108,305.5531284000026,306.03832579997834,,,,,,,,,,,,,,,,,,,,,,,306.0592096999753,306.07157809997443,306.07157809997443,306.07157809997443,309.04882440005895,f,1.781242600060068,0.12008300004526973,309.0488822000334,309.04892010008916,None,,,,,,,,,,,,,,00029,001,2026-01-21_11h19.06.023,MST_task,2024.2.0,59.80449909372449,2026-01-21 11h19.18.490725 +0530,
,Objects\052a.jpg,48,0,49,,,,,,,f,1.9577817000681534,0.13487950002308935,None,,,,,,49,0,48,309.0655404999852,,,,,,,,,,,,,,,,,,,,,,,309.0491432000417,309.0655404999852,309.5505021000281,,,,,,,,,,,,,,,,,,,,,,,309.5719647000078,309.58397829998285,309.58397829998285,309.58397829998285,312.56119200005196,f,1.9577817000681534,0.13487950002308935,312.5612512000371,312.5612638000166,None,,,,,,,,,,,,,,00029,001,2026-01-21_11h19.06.023,MST_task,2024.2.0,59.80449909372449,2026-01-21 11h19.18.490725 +0530,
,Scenes\109a.jpg,49,0,50,,,,,,,j,1.243548099999316,0.16727430000901222,None,,,,,,50,0,49,312.57772489998024,,,,,,,,,,,,,,,,,,,,,,,312.56133719999343,312.57772489998024,313.06295420008246,,,,,,,,,,,,,,,,,,,,,,,313.08752110006753,313.11366540007293,313.11366540007293,313.11366540007293,316.0734341000207,j,1.243548099999316,0.16727430000901222,316.0734940000111,316.0735064999899,None,,,,,,,,,,,,,,00029,001,2026-01-21_11h19.06.023,MST_task,2024.2.0,59.80449909372449,2026-01-21 11h19.18.490725 +0530,
,Scenes\142a.jpg,50,0,51,,,,,,,j,1.1625902999658138,0.1757598000112921,None,,,,,,51,0,50,316.0901567999972,,,,,,,,,,,,,,,,,,,,,,,316.0735782000702,316.0901567999972,316.57534930005204,,,,,,,,,,,,,,,,,,,,,,,316.6008260999806,316.62628890003543,316.62628890003543,316.62628890003543,319.5856219000416,j,1.1625902999658138,0.1757598000112921,319.58568230003584,319.58569500001613,None,,,,,,,,,,,,,,00029,001,2026-01-21_11h19.06.023,MST_task,2024.2.0,59.80449909372449,2026-01-21 11h19.18.490725 +0530,
,Scenes\094a.jpg,51,0,52,,,,,,,f,1.7796458000084385,0.15169839991722256,None,,,,,,52,0,51,319.6024433000712,,,,,,,,,,,,,,,,,,,,,,,319.586081400048,319.6024433000712,320.08742190001067,,,,,,,,,,,,,,,,,,,,,,,320.1057188999839,320.1211548000574,320.1211548000574,320.1211548000574,323.0979013000615,f,1.7796458000084385,0.15169839991722256,323.09797070000786,323.0979837999912,None,,,,,,,,,,,,,,00029,001,2026-01-21_11h19.06.023,MST_task,2024.2.0,59.80449909372449,2026-01-21 11h19.18.490725 +0530,
,Scenes\111a.jpg,52,0,53,,,,,,,j,2.523480899981223,0.16865170001983643,None,,,,,,53,0,52,323.1146955000004,,,,,,,,,,,,,,,,,,,,,,,323.0980563000776,323.1146955000004,323.59971430001315,,,,,,,,,,,,,,,,,,,,,,,323.6195225000847,323.6332935000537,323.6332935000537,323.6332935000537,326.61021210008767,j,2.523480899981223,0.16865170001983643,326.61030629999004,326.6103210999863,None,,,,,,,,,,,,,,00029,001,2026-01-21_11h19.06.023,MST_task,2024.2.0,59.80449909372449,2026-01-21 11h19.18.490725 +0530,
,Scenes\189a.jpg,53,0,54,,,,,,,j,0.9628155999816954,0.19219249999150634,None,,,,,,54,0,53,326.6270362000214,,,,,,,,,,,,,,,,,,,,,,,326.61081620003097,326.6270362000214,327.112066200003,,,,,,,,,,,,,,,,,,,,,,,327.13768480008,327.1621521000052,327.1621521000052,327.1621521000052,330.12265989999287,j,0.9628155999816954,0.19219249999150634,330.12272079999093,330.1227333000861,None,,,,,,,,,,,,,,00029,001,2026-01-21_11h19.06.023,MST_task,2024.2.0,59.80449909372449,2026-01-21 11h19.18.490725 +0530,
,Scenes\055a.jpg,54,0,55,,,,,,,j,1.234820600016974,0.15229470003396273,None,,,,,,55,0,54,330.13922600005753,,,,,,,,,,,,,,,,,,,,,,,330.12281600001734,330.13922600005753,330.62447000003885,,,,,,,,,,,,,,,,,,,,,,,330.6383650000207,330.65765319997445,330.65765319997445,330.65765319997445,333.63494300004095,j,1.234820600016974,0.15229470003396273,333.63500480004586,333.6350179000292,None,,,,,,,,,,,,,,00029,001,2026-01-21_11h19.06.023,MST_task,2024.2.0,59.80449909372449,2026-01-21 11h19.18.490725 +0530,
,Scenes\167a.jpg,55,0,56,,,,,,,f,2.8899341999785975,None,None,,,,,,56,0,55,333.6517334000673,,,,,,,,,,,,,,,,,,,,,,,333.6350961000426,333.6517334000673,334.1366980000166,,,,,,,,,,,,,,,,,,,,,,,334.16720899997745,334.1872847999912,334.1872847999912,334.1872847999912,337.1471126000397,f,2.8899341999785975,None,337.1472197000403,337.1472347000381,None,,,,,,,,,,,,,,00029,001,2026-01-21_11h19.06.023,MST_task,2024.2.0,59.80449909372449,2026-01-21 11h19.18.490725 +0530,
,Objects\081a.jpg,56,0,57,,,,,,,j,1.1214474000735208,0.16032879997510463,None,,,,,,57,0,56,337.1639379999833,,,,,,,,,,,,,,,,,,,,,,,337.14774839999154,337.1639379999833,337.6490172999911,,,,,,,,,,,,,,,,,,,,,,,337.67329920001794,337.68315330008045,337.68315330008045,337.68315330008045,340.65956469997764,j,1.1214474000735208,0.16032879997510463,340.6596273999894,340.65964020008687,None,,,,,,,,,,,,,,00029,001,2026-01-21_11h19.06.023,MST_task,2024.2.0,59.80449909372449,2026-01-21 11h19.18.490725 +0530,
,Objects\189a.jpg,57,0,58,,,,,,,f,1.3300686000147834,0.1526068999664858,None,,,,,,58,0,57,340.67624729999807,,,,,,,,,,,,,,,,,,,,,,,340.6597120000515,340.67624729999807,341.1612088000402,,,,,,,,,,,,,,,,,,,,,,,341.1836569000734,341.19480040005874,341.19480040005874,341.19480040005874,344.1718339000363,f,1.3300686000147834,0.1526068999664858,344.1718901999993,344.17190259997733,None,,,,,,,,,,,,,,00029,001,2026-01-21_11h19.06.023,MST_task,2024.2.0,59.80449909372449,2026-01-21 11h19.18.490725 +0530,
,Objects\091a.jpg,58,0,59,,,,,,,f,1.60186169994995,0.14429490000475198,None,,,,,,59,0,58,344.1884249000577,,,,,,,,,,,,,,,,,,,,,,,344.17199719999917,344.1884249000577,344.673766800086,,,,,,,,,,,,,,,,,,,,,,,344.6967157999752,344.70687230001204,344.70687230001204,344.70687230001204,347.6840215000557,f,1.60186169994995,0.14429490000475198,347.68421510001644,347.6842315000249,None,,,,,,,,,,,,,,00029,001,2026-01-21_11h19.06.023,MST_task,2024.2.0,59.80449909372449,2026-01-21 11h19.18.490725 +0530,
,Objects\165a.jpg,59,0,60,,,,,,,f,2.881160999997519,None,None,,,,,,60,0,59,347.7009602000471,,,,,,,,,,,,,,,,,,,,,,,347.68432610004675,347.7009602000471,348.1858303999761,,,,,,,,,,,,,,,,,,,,,,,348.2068600000348,348.21929190005176,348.21929190005176,348.21929190005176,351.19658790004905,f,2.881160999997519,None,351.1966512000654,351.1966644000495,None,,,,,,,,,,,,,,00029,001,2026-01-21_11h19.06.023,MST_task,2024.2.0,59.80449909372449,2026-01-21 11h19.18.490725 +0530,
,Objects\014a.jpg,60,0,61,,,,,,,f,2.04973530001007,0.1279600999550894,None,,,,,,61,0,60,351.21322869998403,,,,,,,,,,,,,,,,,,,,,,,351.1967575000599,351.21322869998403,351.698655800079,,,,,,,,,,,,,,,,,,,,,,,351.72138270002324,351.73147410003,351.73147410003,351.73147410003,354.7086356000509,f,2.04973530001007,0.1279600999550894,354.7086907000048,354.7087028999813,None,,,,,,,,,,,,,,00029,001,2026-01-21_11h19.06.023,MST_task,2024.2.0,59.80449909372449,2026-01-21 11h19.18.490725 +0530,
,Objects\040a.jpg,61,0,62,,,,,,,f,1.3217271000612527,0.12717859994154423,None,,,,,,62,0,61,354.7255768000614,,,,,,,,,,,,,,,,,,,,,,,354.70879310008604,354.7255768000614,355.2104053000221,,,,,,,,,,,,,,,,,,,,,,,355.2325853999937,355.243899299996,355.243899299996,355.243899299996,358.2210473000305,f,1.3217271000612527,0.12717859994154423,358.22110169997904,358.22111440007575,None,,,,,,,,,,,,,,00029,001,2026-01-21_11h19.06.023,MST_task,2024.2.0,59.80449909372449,2026-01-21 11h19.18.490725 +0530,
,Objects\139a.jpg,62,0,63,,,,,,,f,2.6724289999110624,0.16000010003335774,None,,,,,,63,0,62,358.23776430008,,,,,,,,,,,,,,,,,,,,,,,358.2211839000229,358.23776430008,358.72300510003697,,,,,,,,,,,,,,,,,,,,,,,358.7458211000776,358.75608020008076,358.75608020008076,358.75608020008076,361.7333660000004,f,2.6724289999110624,0.16000010003335774,361.73342920001596,361.7334431000054,None,,,,,,,,,,,,,,00029,001,2026-01-21_11h19.06.023,MST_task,2024.2.0,59.80449909372449,2026-01-21 11h19.18.490725 +0530,
,Scenes\158a.jpg,63,0,64,,,,,,,j,1.2706145000411198,0.14411150000523776,None,,,,,,64,0,63,361.7500607999973,,,,,,,,,,,,,,,,,,,,,,,361.73352080001496,361.7500607999973,362.23532340000384,,,,,,,,,,,,,,,,,,,,,,,362.2591975000687,362.2862755000824,362.2862755000824,362.2862755000824,365.24557979998644,j,1.2706145000411198,0.14411150000523776,365.2456350000575,365.24564710003324,None,,,,,,,,,,,,,,00029,001,2026-01-21_11h19.06.023,MST_task,2024.2.0,59.80449909372449,2026-01-21 11h19.18.490725 +0530,
,Scenes\038a.jpg,64,0,65,,,,,,,j,1.0144799000117928,0.14447209995705634,None,,,,,,65,0,64,365.2623426000355,,,,,,,,,,,,,,,,,,,,,,,365.2457327999873,365.2623426000355,365.74753629998304,,,,,,,,,,,,,,,,,,,,,,,365.77524590003304,365.79864839999937,365.79864839999937,365.79864839999937,368.7579201000044,j,1.0144799000117928,0.14447209995705634,368.7581957000075,368.7582190000685,None,,,,,,,,,,,,,,00029,001,2026-01-21_11h19.06.023,MST_task,2024.2.0,59.80449909372449,2026-01-21 11h19.18.490725 +0530,
,Scenes\018a.jpg,65,0,66,,,,,,,f,2.1289394000777975,0.12722559995017946,None,,,,,,66,0,65,368.77466350002214,,,,,,,,,,,,,,,,,,,,,,,368.758318600012,368.77466350002214,369.2597355999751,,,,,,,,,,,,,,,,,,,,,,,369.2810333999805,369.29297100007534,369.29297100007534,369.29297100007534,372.2701166999759,f,2.1289394000777975,0.12722559995017946,372.2702092999825,372.2702251999872,None,,,,,,,,,,,,,,00029,001,2026-01-21_11h19.06.023,MST_task,2024.2.0,59.80449909372449,2026-01-21 11h19.18.490725 +0530,
,Scenes\115a.jpg,66,0,67,,,,,,,j,1.806765199988149,0.1601122000720352,None,,,,,,67,0,66,372.2869431000436,,,,,,,,,,,,,,,,,,,,,,,372.27058030001353,372.2869431000436,372.77246350003406,,,,,,,,,,,,,,,,,,,,,,,372.7976118000224,372.82214260008186,372.82214260008186,372.82214260008186,375.7828595000319,j,1.806765199988149,0.1601122000720352,375.7829274000833,375.7829418000765,None,,,,,,,,,,,,,,00029,001,2026-01-21_11h19.06.023,MST_task,2024.2.0,59.80449909372449,2026-01-21 11h19.18.490725 +0530,
,Scenes\175a.jpg,67,0,68,,,,,,,j,1.0131475999951363,0.18448069994337857,None,,,,,,68,0,67,375.799301900086,,,,,,,,,,,,,,,,,,,,,,,375.7830182000762,375.799301900086,376.28435900004115,,,,,,,,,,,,,,,,,,,,,,,376.30553760007024,376.3190976000624,376.3190976000624,376.3190976000624,379.2948378000874,j,1.0131475999951363,0.18448069994337857,379.29490490001626,379.2949311999837,None,,,,,,,,,,,,,,00029,001,2026-01-21_11h19.06.023,MST_task,2024.2.0,59.80449909372449,2026-01-21 11h19.18.490725 +0530,
,Scenes\108a.jpg,68,0,69,,,,,,,j,0.5729328999295831,0.14298290002625436,None,,,,,,69,0,68,379.31144429999404,,,,,,,,,,,,,,,,,,,,,,,379.29500270006247,379.31144429999404,379.79670150007587,,,,,,,,,,,,,,,,,,,,,,,379.8239169000881,379.8483956999844,379.8483956999844,379.8483956999844,382.8070240999805,j,0.5729328999295831,0.14298290002625436,382.8070805000607,382.8070924000349,None,,,,,,,,,,,,,,00029,001,2026-01-21_11h19.06.023,MST_task,2024.2.0,59.80449909372449,2026-01-21 11h19.18.490725 +0530,
,Scenes\100a.jpg,69,0,70,,,,,,,j,1.74212150007952,0.17646759992931038,None,,,,,,70,0,69,382.8238509000512,,,,,,,,,,,,,,,,,,,,,,,382.8071626999881,382.8238509000512,383.30882500007283,,,,,,,,,,,,,,,,,,,,,,,383.33364139997866,383.35961600008886,383.35961600008886,383.35961600008886,386.31943530007266,j,1.74212150007952,0.17646759992931038,386.31948830001056,386.3195003999863,None,,,,,,,,,,,,,,00029,001,2026-01-21_11h19.06.023,MST_task,2024.2.0,59.80449909372449,2026-01-21 11h19.18.490725 +0530,
,Objects\022a.jpg,70,0,71,,,,,,,f,2.765468099969439,0.14424579998012632,None,,,,,,71,0,70,386.3360277999891,,,,,,,,,,,,,,,,,,,,,,,386.31960679998156,386.3360277999891,386.8212535000639,,,,,,,,,,,,,,,,,,,,,,,386.84480259998236,386.855444899993,386.855444899993,386.855444899993,389.8320419000229,f,2.765468099969439,0.14424579998012632,389.83211339998525,389.8321263000835,None,,,,,,,,,,,,,,00029,001,2026-01-21_11h19.06.023,MST_task,2024.2.0,59.80449909372449,2026-01-21 11h19.18.490725 +0530,
,Objects\083a.jpg,71,0,72,,,,,,,f,1.7579478000989184,0.1197379999794066,None,,,,,,72,0,71,389.8483411000343,,,,,,,,,,,,,,,,,,,,,,,389.832196900039,389.8483411000343,390.33373399998527,,,,,,,,,,,,,,,,,,,,,,,390.35635140002705,390.3667871999787,390.3667871999787,390.3667871999787,393.3441552000586,f,1.7579478000989184,0.1197379999794066,393.3442201000871,393.34423350007273,None,,,,,,,,,,,,,,00029,001,2026-01-21_11h19.06.023,MST_task,2024.2.0,59.80449909372449,2026-01-21 11h19.18.490725 +0530,
,Objects\150a.jpg,72,0,73,,,,,,,j,2.6451278999447823,0.11225080001167953,None,,,,,,73,0,72,393.36076120007783,,,,,,,,,,,,,,,,,,,,,,,393.3443055000389,393.36076120007783,393.8459458000725,,,,,,,,,,,,,,,,,,,,,,,393.86676120001357,393.8791991000762,393.8791991000762,393.8791991000762,396.8563521000324,j,2.6451278999447823,0.11225080001167953,396.85640879999846,396.85642099997494,None,,,,,,,,,,,,,,00029,001,2026-01-21_11h19.06.023,MST_task,2024.2.0,59.80449909372449,2026-01-21 11h19.18.490725 +0530,
,Objects\181a.jpg,73,0,74,,,,,,,j,1.277250500046648,0.15157759992871433,None,,,,,,74,0,73,396.8730722999899,,,,,,,,,,,,,,,,,,,,,,,396.85650590003934,396.8730722999899,397.3582822000608,,,,,,,,,,,,,,,,,,,,,,,397.3802297000075,397.39138889999595,397.39138889999595,397.39138889999595,400.3685800000094,j,1.277250500046648,0.15157759992871433,400.36863630008884,400.3686486000661,None,,,,,,,,,,,,,,00029,001,2026-01-21_11h19.06.023,MST_task,2024.2.0,59.80449909372449,2026-01-21 11h19.18.490725 +0530,
,Objects\158a.jpg,74,0,75,,,,,,,f,1.1493789999512956,0.12747579999268055,None,,,,,,75,0,74,400.3853522000136,,,,,,,,,,,,,,,,,,,,,,,400.36871930002235,400.3853522000136,400.87034310004674,,,,,,,,,,,,,,,,,,,,,,,400.89192010008264,400.90391700004693,400.90391700004693,400.90391700004693,403.88159980007913,f,1.1493789999512956,0.12747579999268055,403.88167170004454,403.88168770004995,None,,,,,,,,,,,,,,00029,001,2026-01-21_11h19.06.023,MST_task,2024.2.0,59.80449909372449,2026-01-21 11h19.18.490725 +0530,
,Objects\062a.jpg,75,0,76,,,,,,,f,0.8612473000539467,0.11198449996300042,None,,,,,,76,0,75,403.8981193000218,,,,,,,,,,,,,,,,,,,,,,,403.8818048000103,403.8981193000218,404.3827843000181,,,,,,,,,,,,,,,,,,,,,,,404.40510109998286,404.415974500007,404.415974500007,404.415974500007,407.39325169997755,f,0.8612473000539467,0.11198449996300042,407.3933106000768,407.39332470006775,None,,,,,,,,,,,,,,00029,001,2026-01-21_11h19.06.023,MST_task,2024.2.0,59.80449909372449,2026-01-21 11h19.18.490725 +0530,
,Objects\018a.jpg,76,0,77,,,,,,,j,2.516884599928744,0.16795570007525384,None,,,,,,77,0,76,407.40985080006067,,,,,,,,,,,,,,,,,,,,,,,407.3933998000575,407.40985080006067,407.89518210000824,,,,,,,,,,,,,,,,,,,,,,,407.91749650007114,407.92828740004916,407.92828740004916,407.92828740004916,410.9054482000647,j,2.516884599928744,0.16795570007525384,410.90550350002013,410.9055165000027,None,,,,,,,,,,,,,,00029,001,2026-01-21_11h19.06.023,MST_task,2024.2.0,59.80449909372449,2026-01-21 11h19.18.490725 +0530,
,Scenes\003a.jpg,77,0,78,,,,,,,j,1.2995581000577658,0.16782710002735257,None,,,,,,78,0,77,410.9222530000843,,,,,,,,,,,,,,,,,,,,,,,410.90573530003894,410.9222530000843,411.4073800999904,,,,,,,,,,,,,,,,,,,,,,,411.43290830007754,411.4575577999931,411.4575577999931,411.4575577999931,414.4182649999857,j,1.2995581000577658,0.16782710002735257,414.41833470005076,414.41834950004704,None,,,,,,,,,,,,,,00029,001,2026-01-21_11h19.06.023,MST_task,2024.2.0,59.80449909372449,2026-01-21 11h19.18.490725 +0530,
,Scenes\047a.jpg,78,0,79,,,,,,,j,1.1162088999990374,0.15983989997766912,None,,,,,,79,0,78,414.43471679999493,,,,,,,,,,,,,,,,,,,,,,,414.4184593000682,414.43471679999493,414.919528300059,,,,,,,,,,,,,,,,,,,,,,,414.93740539997816,414.95316370006185,414.95316370006185,414.95316370006185,417.93063070008066,j,1.1162088999990374,0.15983989997766912,417.93068480002694,417.9306979000103,None,,,,,,,,,,,,,,00029,001,2026-01-21_11h19.06.023,MST_task,2024.2.0,59.80449909372449,2026-01-21 11h19.18.490725 +0530,
,Scenes\173a.jpg,79,0,80,,,,,,,j,0.7796234999550506,0.13575020001735538,None,,,,,,80,0,79,417.94674829998985,,,,,,,,,,,,,,,,,,,,,,,417.93081260006875,417.94674829998985,418.4319532000227,,,,,,,,,,,,,,,,,,,,,,,418.45388170005754,418.4653185000643,418.4653185000643,418.4653185000643,421.4425462000072,j,0.7796234999550506,0.13575020001735538,421.44260220008437,421.44261470006313,None,,,,,,,,,,,,,,00029,001,2026-01-21_11h19.06.023,MST_task,2024.2.0,59.80449909372449,2026-01-21 11h19.18.490725 +0530,
,Scenes\058a.jpg,80,0,81,,,,,,,f,1.0502666999818757,0.16816770005971193,None,,,,,,81,0,80,421.45903000002727,,,,,,,,,,,,,,,,,,,,,,,421.44268500001635,421.45903000002727,421.9442402999848,,,,,,,,,,,,,,,,,,,,,,,421.96819769998547,421.9943716999842,421.9943716999842,421.9943716999842,424.9547716000816,f,1.0502666999818757,0.16816770005971193,424.95485910004936,424.9548724000342,None,,,,,,,,,,,,,,00029,001,2026-01-21_11h19.06.023,MST_task,2024.2.0,59.80449909372449,2026-01-21 11h19.18.490725 +0530,
,Scenes\120a.jpg,81,0,82,,,,,,,j,1.0820814000908285,0.13615399994887412,None,,,,,,82,0,81,424.971457800013,,,,,,,,,,,,,,,,,,,,,,,424.95497269998305,424.971457800013,425.4564265999943,,,,,,,,,,,,,,,,,,,,,,,425.48869640007615,425.5073023000732,425.5073023000732,425.5073023000732,428.4670456000604,j,1.0820814000908285,0.13615399994887412,428.4672651999863,428.46727830008604,None,,,,,,,,,,,,,,00029,001,2026-01-21_11h19.06.023,MST_task,2024.2.0,59.80449909372449,2026-01-21 11h19.18.490725 +0530,
,Scenes\117a.jpg,82,0,83,,,,,,,j,0.7764220000244677,0.16782570001669228,None,,,,,,83,0,82,428.48378660005983,,,,,,,,,,,,,,,,,,,,,,,428.46737550001126,428.48378660005983,428.9691176000051,,,,,,,,,,,,,,,,,,,,,,,428.99345950002316,429.0200445000082,429.0200445000082,429.0200445000082,431.97933440003544,j,0.7764220000244677,0.16782570001669228,431.97940040007234,431.9794132000534,None,,,,,,,,,,,,,,00029,001,2026-01-21_11h19.06.023,MST_task,2024.2.0,59.80449909372449,2026-01-21 11h19.18.490725 +0530,
,Scenes\121a.jpg,83,0,84,,,,,,,j,0.6326899999985471,0.08848729997407645,None,,,,,,84,0,83,431.99594180006534,,,,,,,,,,,,,,,,,,,,,,,431.97950380004477,431.99594180006534,432.4811639999971,,,,,,,,,,,,,,,,,,,,,,,432.50816010008566,432.5319861000171,432.5319861000171,432.5319861000171,435.49151490000077,j,0.6326899999985471,0.08848729997407645,435.49158140004147,435.49159390002023,None,,,,,,,,,,,,,,00029,001,2026-01-21_11h19.06.023,MST_task,2024.2.0,59.80449909372449,2026-01-21 11h19.18.490725 +0530,
,Objects\013a.jpg,84,0,85,,,,,,,j,2.057465600082651,0.14430299995001405,None,,,,,,85,0,84,435.50835520005785,,,,,,,,,,,,,,,,,,,,,,,435.4916890000459,435.50835520005785,435.993333099992,,,,,,,,,,,,,,,,,,,,,,,436.0191290000221,436.02757779997773,436.02757779997773,436.02757779997773,439.0038194999797,j,2.057465600082651,0.14430299995001405,439.0038757000584,439.0038876000326,None,,,,,,,,,,,,,,00029,001,2026-01-21_11h19.06.023,MST_task,2024.2.0,59.80449909372449,2026-01-21 11h19.18.490725 +0530,
,Objects\056a.jpg,85,0,86,,,,,,,f,2.473602000041865,0.13646309997420758,None,,,,,,86,0,85,439.02068299998064,,,,,,,,,,,,,,,,,,,,,,,439.0039566999767,439.02068299998064,439.5056351000676,,,,,,,,,,,,,,,,,,,,,,,439.5294284999836,439.5391107000178,439.5391107000178,439.5391107000178,442.5163440000033,f,2.473602000041865,0.13646309997420758,442.5164149000775,442.51642750005703,None,,,,,,,,,,,,,,00029,001,2026-01-21_11h19.06.023,MST_task,2024.2.0,59.80449909372449,2026-01-21 11h19.18.490725 +0530,
,Objects\021a.jpg,86,0,87,,,,,,,f,2.697622300009243,0.09696680004708469,None,,,,,,87,0,86,442.5329700000584,,,,,,,,,,,,,,,,,,,,,,,442.5167592000216,442.5329700000584,443.0179070000304,,,,,,,,,,,,,,,,,,,,,,,443.04080930002965,443.0514012000058,443.0514012000058,443.0514012000058,446.0286120000528,f,2.697622300009243,0.09696680004708469,446.02867300005164,446.02868570003193,None,,,,,,,,,,,,,,00029,001,2026-01-21_11h19.06.023,MST_task,2024.2.0,59.80449909372449,2026-01-21 11h19.18.490725 +0530,
,Objects\163a.jpg,87,0,88,,,,,,,j,1.0015953000402078,0.14392569998744875,None,,,,,,88,0,87,446.0451410000678,,,,,,,,,,,,,,,,,,,,,,,446.02877019997686,446.0451410000678,446.53048349998426,,,,,,,,,,,,,,,,,,,,,,,446.55130709998775,446.56358010007534,446.56358010007534,446.56358010007534,449.5412486999994,j,1.0015953000402078,0.14392569998744875,449.5413153000409,449.5413334000623,None,,,,,,,,,,,,,,00029,001,2026-01-21_11h19.06.023,MST_task,2024.2.0,59.80449909372449,2026-01-21 11h19.18.490725 +0530,
,Objects\085a.jpg,88,0,89,,,,,,,f,1.583706000004895,0.13613620004616678,None,,,,,,89,0,88,449.5577893999871,,,,,,,,,,,,,,,,,,,,,,,449.5414042000193,449.5577893999871,450.0430798000889,,,,,,,,,,,,,,,,,,,,,,,450.0641505999956,450.0773133999901,450.0773133999901,450.0773133999901,453.05332160007674,f,1.583706000004895,0.13613620004616678,453.0533915000269,453.05340430000797,None,,,,,,,,,,,,,,00029,001,2026-01-21_11h19.06.023,MST_task,2024.2.0,59.80449909372449,2026-01-21 11h19.18.490725 +0530,
,Objects\007a.jpg,89,0,90,,,,,,,f,1.1373887000372633,0.11912369995843619,None,,,,,,90,0,89,453.069742300082,,,,,,,,,,,,,,,,,,,,,,,453.0535043000709,453.069742300082,453.55504750006367,,,,,,,,,,,,,,,,,,,,,,,453.57674460008275,453.5881839999929,453.5881839999929,453.5881839999929,456.5653220000677,f,1.1373887000372633,0.11912369995843619,456.56538929999806,456.56540199997835,None,,,,,,,,,,,,,,00029,001,2026-01-21_11h19.06.023,MST_task,2024.2.0,59.80449909372449,2026-01-21 11h19.18.490725 +0530,
,Objects\068a.jpg,90,0,91,,,,,,,j,2.9598017999669537,None,None,,,,,,91,0,90,456.58214630000293,,,,,,,,,,,,,,,,,,,,,,,456.5660570000764,456.58214630000293,457.06740770000033,,,,,,,,,,,,,,,,,,,,,,,457.08799800009,457.1006919000065,457.1006919000065,457.1006919000065,460.07799090002663,j,2.9598017999669537,None,460.078056700062,460.07806980004534,None,,,,,,,,,,,,,,00029,001,2026-01-21_11h19.06.023,MST_task,2024.2.0,59.80449909372449,2026-01-21 11h19.18.490725 +0530,
,Scenes\005a.jpg,91,0,92,,,,,,,f,1.744431099970825,0.1042435000417754,None,,,,,,92,0,91,460.0943352000322,,,,,,,,,,,,,,,,,,,,,,,460.07813939999323,460.0943352000322,460.57954250008333,,,,,,,,,,,,,,,,,,,,,,,460.60687820008025,460.6294951000018,460.6294951000018,460.6294951000018,463.5900539000286,f,1.744431099970825,0.1042435000417754,463.59011270001065,463.59012619999703,None,,,,,,,,,,,,,,00029,001,2026-01-21_11h19.06.023,MST_task,2024.2.0,59.80449909372449,2026-01-21 11h19.18.490725 +0530,
,Scenes\073a.jpg,92,0,93,,,,,,,j,2.0560732999583706,0.12023190001491457,None,,,,,,93,0,92,463.6069047000492,,,,,,,,,,,,,,,,,,,,,,,463.5901985000819,463.6069047000492,464.0918381999945,,,,,,,,,,,,,,,,,,,,,,,464.1120611000806,464.1251923000673,464.1251923000673,464.1251923000673,467.10234610002954,j,2.0560732999583706,0.12023190001491457,467.1025712999981,467.10258409997914,None,,,,,,,,,,,,,,00029,001,2026-01-21_11h19.06.023,MST_task,2024.2.0,59.80449909372449,2026-01-21 11h19.18.490725 +0530,
,Scenes\015a.jpg,93,0,94,,,,,,,j,1.197250899975188,0.10416129999794066,None,,,,,,94,0,93,467.11892809998244,,,,,,,,,,,,,,,,,,,,,,,467.10268340003677,467.11892809998244,467.6041389000602,,,,,,,,,,,,,,,,,,,,,,,467.63531679997686,467.6551194000058,467.6551194000058,467.6551194000058,470.61451470002066,j,1.197250899975188,0.10416129999794066,470.614604900009,470.6146175999893,None,,,,,,,,,,,,,,00029,001,2026-01-21_11h19.06.023,MST_task,2024.2.0,59.80449909372449,2026-01-21 11h19.18.490725 +0530,
,Scenes\118a.jpg,94,0,95,,,,,,,None,,,j,0.2849980000173673,None,,,,95,0,94,470.6313566999743,,,,,,,,,,,,,,,,,,,,,,,470.61471390002407,470.6313566999743,471.1163152999943,,,,,,,,,,,,,,,,,,,,,,,471.13676630007103,471.1496734999819,471.1496734999819,471.1496734999819,474.12685620004777,None,,,474.1269218000816,474.44537370000035,j,474.14366110006813,474.14366110006813,0.2849980000173673,None,,,,,,,,,,00029,001,2026-01-21_11h19.06.023,MST_task,2024.2.0,59.80449909372449,2026-01-21 11h19.18.490725 +0530,
,Scenes\009a.jpg,95,0,96,,,,,,,f,2.6398261999711394,0.08771550003439188,None,,,,,,96,0,95,474.461306400015,,,,,,,,,,,,,,,,,,,,,,,474.4454930999782,474.461306400015,474.9466862999834,,,,,,,,,,,,,,,,,,,,,,,474.9804591999855,474.9975000000559,474.9975000000559,474.9975000000559,477.9572837000014,f,2.6398261999711394,0.08771550003439188,477.95734060008544,477.957353600068,None,,,,,,,,,,,,,,00029,001,2026-01-21_11h19.06.023,MST_task,2024.2.0,59.80449909372449,2026-01-21 11h19.18.490725 +0530,
,Scenes\132a.jpg,96,0,97,,,,,,,j,0.7685044000390917,0.12840459996368736,None,,,,,,97,0,96,477.97379840002395,,,,,,,,,,,,,,,,,,,,,,,477.95747100003064,477.97379840002395,478.45880420005415,,,,,,,,,,,,,,,,,,,,,,,478.4792075000005,478.4921754000243,478.4921754000243,478.4921754000243,481.4694992000004,j,0.7685044000390917,0.12840459996368736,481.4695565000875,481.4695697000716,None,,,,,,,,,,,,,,00029,001,2026-01-21_11h19.06.023,MST_task,2024.2.0,59.80449909372449,2026-01-21 11h19.18.490725 +0530,
,Scenes\106a.jpg,97,0,98,,,,,,,j,0.6795916999690235,0.15201730001717806,None,,,,,,98,0,97,481.4859161999775,,,,,,,,,,,,,,,,,,,,,,,481.4696434000507,481.4859161999775,481.97143370006233,,,,,,,,,,,,,,,,,,,,,,,481.995242999983,482.0211943000322,482.0211943000322,482.0211943000322,484.9816317000659,j,0.6795916999690235,0.15201730001717806,484.98169030004647,484.98170250002295,None,,,,,,,,,,,,,,00029,001,2026-01-21_11h19.06.023,MST_task,2024.2.0,59.80449909372449,2026-01-21 11h19.18.490725 +0530,
,Objects\093a.jpg,98,0,99,,,,,,,j,0.8719685999676585,0.11900840001180768,None,,,,,,99,0,98,484.99832880008034,,,,,,,,,,,,,,,,,,,,,,,484.9817973000463,484.99832880008034,485.4832943000365,,,,,,,,,,,,,,,,,,,,,,,485.5068284000736,485.5181649000151,485.5181649000151,485.5181649000151,488.4938157000579,j,0.8719685999676585,0.11900840001180768,488.4938723000232,488.49388409999665,None,,,,,,,,,,,,,,00029,001,2026-01-21_11h19.06.023,MST_task,2024.2.0,59.80449909372449,2026-01-21 11h19.18.490725 +0530,
,Objects\180a.jpg,99,0,100,,,,,,,f,1.047837599995546,0.1199975999770686,None,,,,,,100,0,99,488.51083040004596,,,,,,,,,,,,,,,,,,,,,,,488.4939544000663,488.51083040004596,488.99560520006344,,,,,,,,,,,,,,,,,,,,,,,489.0189263999928,489.02907300007064,489.02907300007064,489.02907300007064,492.0062314000679,f,1.047837599995546,0.1199975999770686,492.006286000018,492.00629879999906,None,,,,,,,,,,,,,,00029,001,2026-01-21_11h19.06.023,MST_task,2024.2.0,59.80449909372449,2026-01-21 11h19.18.490725 +0530,
,Objects\079a.jpg,100,0,101,,,,,,,f,0.9355875999899581,0.15199409995693713,None,,,,,,101,0,100,492.0228161000414,,,,,,,,,,,,,,,,,,,,,,,492.0063691000687,492.0228161000414,492.5081807000097,,,,,,,,,,,,,,,,,,,,,,,492.5323787999805,492.5414984000381,492.5414984000381,492.5414984000381,495.5186502999859,f,0.9355875999899581,0.15199409995693713,495.5188549000304,495.51886900002137,None,,,,,,,,,,,,,,00029,001,2026-01-21_11h19.06.023,MST_task,2024.2.0,59.80449909372449,2026-01-21 11h19.18.490725 +0530,
,Objects\136a.jpg,101,0,102,,,,,,,f,1.1270542000420392,0.11999999999534339,None,,,,,,102,0,101,495.53511519997846,,,,,,,,,,,,,,,,,,,,,,,495.5189696000889,495.53511519997846,496.0206432000268,,,,,,,,,,,,,,,,,,,,,,,496.0454261000268,496.05376789998263,496.05376789998263,496.05376789998263,499.03073860006407,f,1.1270542000420392,0.11999999999534339,499.03080509998836,499.03082119999453,None,,,,,,,,,,,,,,00029,001,2026-01-21_11h19.06.023,MST_task,2024.2.0,59.80449909372449,2026-01-21 11h19.18.490725 +0530,
,Objects\019a.jpg,102,0,103,,,,,,,f,2.0068271999480203,0.10489469999447465,None,,,,,,103,0,102,499.04754759999923,,,,,,,,,,,,,,,,,,,,,,,499.0309369000606,499.04754759999923,499.53253259998746,,,,,,,,,,,,,,,,,,,,,,,499.55494559998624,499.5660136999795,499.5660136999795,499.5660136999795,502.5432330999756,f,2.0068271999480203,0.10489469999447465,502.54330190003384,502.54331400000956,None,,,,,,,,,,,,,,00029,001,2026-01-21_11h19.06.023,MST_task,2024.2.0,59.80449909372449,2026-01-21 11h19.18.490725 +0530,
,Objects\036a.jpg,103,0,104,,,,,,,f,2.5026330000255257,0.1359693999402225,None,,,,,,104,0,103,502.5597207000246,,,,,,,,,,,,,,,,,,,,,,,502.543384800083,502.5597207000246,503.0449390000431,,,,,,,,,,,,,,,,,,,,,,,503.0688841000665,503.07815830002073,503.07815830002073,503.07815830002073,506.05530260002706,f,2.5026330000255257,0.1359693999402225,506.0554000000702,506.05541780008934,None,,,,,,,,,,,,,,00029,001,2026-01-21_11h19.06.023,MST_task,2024.2.0,59.80449909372449,2026-01-21 11h19.18.490725 +0530,
,Objects\037a.jpg,104,0,105,,,,,,,j,2.7342387000098825,0.12893490004353225,None,,,,,,105,0,104,506.0722755000461,,,,,,,,,,,,,,,,,,,,,,,506.055495699984,506.0722755000461,506.5570871999953,,,,,,,,,,,,,,,,,,,,,,,506.5797743999865,506.59058080008253,506.59058080008253,506.59058080008253,509.56780760001857,j,2.7342387000098825,0.12893490004353225,509.567861800082,509.56793860008474,None,,,,,,,,,,,,,,00029,001,2026-01-21_11h19.06.023,MST_task,2024.2.0,59.80449909372449,2026-01-21 11h19.18.490725 +0530,
,Scenes\067a.jpg,105,0,106,,,,,,,None,,,f,0.2373336999444291,None,,,,106,0,105,509.5845624000067,,,,,,,,,,,,,,,,,,,,,,,509.56804340006784,509.5845624000067,510.0700093000196,,,,,,,,,,,,,,,,,,,,,,,510.09280760004185,510.10284459998365,510.10284459998365,510.10284459998365,513.0800337999826,None,,,513.0800843000179,513.348371900036,f,513.0966146000428,513.0966146000428,0.2373336999444291,None,,,,,,,,,,00029,001,2026-01-21_11h19.06.023,MST_task,2024.2.0,59.80449909372449,2026-01-21 11h19.18.490725 +0530,
,Scenes\124a.jpg,106,0,107,,,,,,,j,2.017739100032486,0.09611359995324165,None,,,,,,107,0,106,513.3642481000861,,,,,,,,,,,,,,,,,,,,,,,513.3485057000071,513.3642481000861,513.8494992000051,,,,,,,,,,,,,,,,,,,,,,,513.8630479000276,513.8829205000075,513.8829205000075,513.8829205000075,516.8600795000093,j,2.017739100032486,0.09611359995324165,516.8601668999763,516.8601879000198,None,,,,,,,,,,,,,,00029,001,2026-01-21_11h19.06.023,MST_task,2024.2.0,59.80449909372449,2026-01-21 11h19.18.490725 +0530,
,Scenes\039a.jpg,107,0,108,,,,,,,j,0.7458005999214947,0.1358809000812471,None,,,,,,108,0,107,516.8766387000214,,,,,,,,,,,,,,,,,,,,,,,516.8603256000206,516.8766387000214,517.3616854000138,,,,,,,,,,,,,,,,,,,,,,,517.374820600031,517.3950802000472,517.3950802000472,517.3950802000472,520.3722099000588,j,0.7458005999214947,0.1358809000812471,520.3724282999756,520.3724443999818,None,,,,,,,,,,,,,,00029,001,2026-01-21_11h19.06.023,MST_task,2024.2.0,59.80449909372449,2026-01-21 11h19.18.490725 +0530,
,Scenes\016a.jpg,108,0,109,,,,,,,j,0.7533046000171453,0.1595336999744177,None,,,,,,109,0,108,520.3888478000881,,,,,,,,,,,,,,,,,,,,,,,520.3725393000059,520.3888478000881,520.873916600016,,,,,,,,,,,,,,,,,,,,,,,520.897947599995,520.9082376000006,520.9082376000006,520.9082376000006,523.8846714000683,j,0.7533046000171453,0.1595336999744177,523.8847275000298,523.8847396000056,None,,,,,,,,,,,,,,00029,001,2026-01-21_11h19.06.023,MST_task,2024.2.0,59.80449909372449,2026-01-21 11h19.18.490725 +0530,
,Scenes\096a.jpg,109,0,110,,,,,,,j,2.120462599908933,0.09564680000767112,None,,,,,,110,0,109,523.9013021000428,,,,,,,,,,,,,,,,,,,,,,,523.8848598999903,523.9013021000428,524.3863163000206,,,,,,,,,,,,,,,,,,,,,,,524.4126277000178,524.4200785000576,524.4200785000576,524.4200785000576,527.3967096999986,j,2.120462599908933,0.09564680000767112,527.3968013999984,527.3968167999992,None,,,,,,,,,,,,,,00029,001,2026-01-21_11h19.06.023,MST_task,2024.2.0,59.80449909372449,2026-01-21 11h19.18.490725 +0530,
,Scenes\025a.jpg,110,0,111,,,,,,,j,0.8794335999991745,0.14344790007453412,None,,,,,,111,0,110,527.4136763000861,,,,,,,,,,,,,,,,,,,,,,,527.3969381999923,527.4136763000861,527.898517100024,,,,,,,,,,,,,,,,,,,,,,,527.9298172000563,527.9496059999801,527.9496059999801,527.9496059999801,530.9092917999951,j,0.8794335999991745,0.14344790007453412,530.9093493000837,530.9093627000693,None,,,,,,,,,,,,,,00029,001,2026-01-21_11h19.06.023,MST_task,2024.2.0,59.80449909372449,2026-01-21 11h19.18.490725 +0530,
,Scenes\128a.jpg,111,0,112,,,,,,,j,0.8154716000426561,0.0877240999834612,None,,,,,,112,0,111,530.9257211000659,,,,,,,,,,,,,,,,,,,,,,,530.9094629000174,530.9257211000659,531.4109059000621,,,,,,,,,,,,,,,,,,,,,,,531.4384188000113,531.4617305999855,531.4617305999855,531.4617305999855,534.4213007000508,j,0.8154716000426561,0.0877240999834612,534.4213566000108,534.421368899988,None,,,,,,,,,,,,,,00029,001,2026-01-21_11h19.06.023,MST_task,2024.2.0,59.80449909372449,2026-01-21 11h19.18.490725 +0530,
,Objects\049a.jpg,112,0,113,,,,,,,f,1.039410899975337,0.14440700004342943,None,,,,,,113,0,112,534.4382611999754,,,,,,,,,,,,,,,,,,,,,,,534.4214763999917,534.4382611999754,534.9232487999834,,,,,,,,,,,,,,,,,,,,,,,534.9475244000787,534.9574731000466,534.9574731000466,534.9574731000466,537.9336010999978,f,1.039410899975337,0.14440700004342943,537.9336577000795,537.9336702000583,None,,,,,,,,,,,,,,00029,001,2026-01-21_11h19.06.023,MST_task,2024.2.0,59.80449909372449,2026-01-21 11h19.18.490725 +0530,
,Objects\005a.jpg,113,0,114,,,,,,,f,1.1113327000057325,0.16915420000441372,None,,,,,,114,0,113,537.9505430000136,,,,,,,,,,,,,,,,,,,,,,,537.9342187000439,537.9505430000136,538.4355343000498,,,,,,,,,,,,,,,,,,,,,,,538.4592249999987,538.4688692999771,538.4688692999771,538.4688692999771,541.4462765000062,f,1.1113327000057325,0.16915420000441372,541.4464439000003,541.446486699977,None,,,,,,,,,,,,,,00029,001,2026-01-21_11h19.06.023,MST_task,2024.2.0,59.80449909372449,2026-01-21 11h19.18.490725 +0530,
,Objects\035a.jpg,114,0,115,,,,,,,f,2.279564299969934,0.15249310003127903,None,,,,,,115,0,114,541.462608300033,,,,,,,,,,,,,,,,,,,,,,,541.4466091999784,541.462608300033,541.9478800999932,,,,,,,,,,,,,,,,,,,,,,,541.9702268000692,541.9810646000551,541.9810646000551,541.9810646000551,544.9582588999765,f,2.279564299969934,0.15249310003127903,544.9583124000346,544.9583256000187,None,,,,,,,,,,,,,,00029,001,2026-01-21_11h19.06.023,MST_task,2024.2.0,59.80449909372449,2026-01-21 11h19.18.490725 +0530,
,Objects\111a.jpg,115,0,116,,,,,,,f,2.0718914000317454,0.11944189993664622,None,,,,,,116,0,115,544.9750276000705,,,,,,,,,,,,,,,,,,,,,,,544.9586595000001,544.9750276000705,545.460098600015,,,,,,,,,,,,,,,,,,,,,,,545.4816171000712,545.4937008999987,545.4937008999987,545.4937008999987,548.4705681999912,f,2.0718914000317454,0.11944189993664622,548.4706286999863,548.470641800086,None,,,,,,,,,,,,,,00029,001,2026-01-21_11h19.06.023,MST_task,2024.2.0,59.80449909372449,2026-01-21 11h19.18.490725 +0530,
,Objects\174a.jpg,116,0,117,,,,,,,f,0.8392005000496283,0.1280643999343738,None,,,,,,117,0,116,548.487330700038,,,,,,,,,,,,,,,,,,,,,,,548.4707362999907,548.487330700038,548.9722974000033,,,,,,,,,,,,,,,,,,,,,,,548.9949234999949,549.005767100025,549.005767100025,549.005767100025,551.983651000075,f,0.8392005000496283,0.1280643999343738,551.9837270000717,551.983742600074,None,,,,,,,,,,,,,,00029,001,2026-01-21_11h19.06.023,MST_task,2024.2.0,59.80449909372449,2026-01-21 11h19.18.490725 +0530,
,Objects\010a.jpg,117,0,118,,,,,,,f,1.182498999987729,0.14449039997998625,None,,,,,,118,0,117,552.0002343000378,,,,,,,,,,,,,,,,,,,,,,,551.9838578000199,552.0002343000378,552.4847249999875,,,,,,,,,,,,,,,,,,,,,,,552.5039728999836,552.5180727000115,552.5180727000115,552.5180727000115,555.4953364999965,f,1.182498999987729,0.14449039997998625,555.4954137000022,555.4954267999856,None,,,,,,,,,,,,,,00029,001,2026-01-21_11h19.06.023,MST_task,2024.2.0,59.80449909372449,2026-01-21 11h19.18.490725 +0530,
,Objects\071a.jpg,118,0,119,,,,,,,j,2.647279900033027,0.1192582999356091,None,,,,,,119,0,118,555.5119477000553,,,,,,,,,,,,,,,,,,,,,,,555.4954992000712,555.5119477000553,555.9968885000562,,,,,,,,,,,,,,,,,,,,,,,556.0202046000632,556.0303692000452,556.0303692000452,556.0303692000452,559.0075063999975,j,2.647279900033027,0.1192582999356091,559.0075775000732,559.0075901000528,None,,,,,,,,,,,,,,00029,001,2026-01-21_11h19.06.023,MST_task,2024.2.0,59.80449909372449,2026-01-21 11h19.18.490725 +0530,
,Scenes\162a.jpg,119,0,120,,,,,,,None,,,j,1.044169900007546,None,,,,120,0,119,559.0241089999909,,,,,,,,,,,,,,,,,,,,,,,559.0076855000807,559.0241089999909,559.5093230999773,,,,,,,,,,,,,,,,,,,,,,,559.5322949000401,559.5426974000875,559.5426974000875,559.5426974000875,562.5198779000202,None,,,562.5199298000662,563.5908230000641,j,562.5364138000878,562.5364138000878,1.044169900007546,None,,,,,,,,,,00029,001,2026-01-21_11h19.06.023,MST_task,2024.2.0,59.80449909372449,2026-01-21 11h19.18.490725 +0530,
,Scenes\077a.jpg,120,0,121,,,,,,,j,2.3104115000460297,0.10395739995874465,None,,,,,,121,0,120,563.6069504000479,,,,,,,,,,,,,,,,,,,,,,,563.5909540000139,563.6069504000479,564.0920268000336,,,,,,,,,,,,,,,,,,,,,,,564.1160261000041,564.141987400013,564.141987400013,564.141987400013,567.1027822999749,j,2.3104115000460297,0.10395739995874465,567.1028405000689,567.1028552000644,None,,,,,,,,,,,,,,00029,001,2026-01-21_11h19.06.023,MST_task,2024.2.0,59.80449909372449,2026-01-21 11h19.18.490725 +0530,
,Scenes\037a.jpg,121,0,122,,,,,,,j,1.1985647999681532,0.10337210004217923,None,,,,,,122,0,121,567.119251199998,,,,,,,,,,,,,,,,,,,,,,,567.102930800058,567.119251199998,567.604332500021,,,,,,,,,,,,,,,,,,,,,,,567.6336334000807,567.6551563000539,567.6551563000539,567.6551563000539,570.6149165000534,j,1.1985647999681532,0.10337210004217923,570.6149726000149,570.6149848999921,None,,,,,,,,,,,,,,00029,001,2026-01-21_11h19.06.023,MST_task,2024.2.0,59.80449909372449,2026-01-21 11h19.18.490725 +0530,
,Scenes\174a.jpg,122,0,123,,,,,,,j,1.4940366999944672,0.12000120000448078,None,,,,,,123,0,122,570.6315483000362,,,,,,,,,,,,,,,,,,,,,,,570.6150554000633,570.6315483000362,571.1164947000798,,,,,,,,,,,,,,,,,,,,,,,571.1418258000631,571.1668307000073,571.1668307000073,571.1668307000073,574.1273232999956,j,1.4940366999944672,0.12000120000448078,574.1273864000104,574.1274000999983,None,,,,,,,,,,,,,,00029,001,2026-01-21_11h19.06.023,MST_task,2024.2.0,59.80449909372449,2026-01-21 11h19.18.490725 +0530,
,Scenes\026a.jpg,123,0,124,,,,,,,j,0.916791999945417,0.12869419995695353,None,,,,,,124,0,123,574.1438544000266,,,,,,,,,,,,,,,,,,,,,,,574.1275144000538,574.1438544000266,574.6288234000094,,,,,,,,,,,,,,,,,,,,,,,574.6605867000762,574.6793600000674,574.6793600000674,574.6793600000674,577.6394147999818,j,0.916791999945417,0.12869419995695353,577.6394892000826,577.6395063999807,None,,,,,,,,,,,,,,00029,001,2026-01-21_11h19.06.023,MST_task,2024.2.0,59.80449909372449,2026-01-21 11h19.18.490725 +0530,
,Scenes\044a.jpg,124,0,125,,,,,,,j,2.9414372999453917,None,None,,,,,,125,0,124,577.6560314000817,,,,,,,,,,,,,,,,,,,,,,,577.639590100036,577.6560314000817,578.1418102000607,,,,,,,,,,,,,,,,,,,,,,,578.1669716000324,578.1917337999912,578.1917337999912,578.1917337999912,581.1524097999791,j,2.9414372999453917,None,581.1525998000288,581.1526173000457,None,,,,,,,,,,,,,,00029,001,2026-01-21_11h19.06.023,MST_task,2024.2.0,59.80449909372449,2026-01-21 11h19.18.490725 +0530,
,Scenes\171a.jpg,125,0,126,,,,,,,f,1.1398038000334054,0.11995109997224063,None,,,,,,126,0,125,581.1695332999807,,,,,,,,,,,,,,,,,,,,,,,581.1526927000377,581.1695332999807,581.6535179000348,,,,,,,,,,,,,,,,,,,,,,,581.683078299975,581.7048365999945,581.7048365999945,581.7048365999945,584.6639403000008,f,1.1398038000334054,0.11995109997224063,584.6640070000431,584.6640199000249,None,,,,,,,,,,,,,,00029,001,2026-01-21_11h19.06.023,MST_task,2024.2.0,59.80449909372449,2026-01-21 11h19.18.490725 +0530,
,Objects\061a.jpg,126,0,127,,,,,,,f,0.9650782000971958,0.07200259994715452,None,,,,,,127,0,126,584.680812900071,,,,,,,,,,,,,,,,,,,,,,,584.664116900065,584.680812900071,585.1658654999919,,,,,,,,,,,,,,,,,,,,,,,585.1917135000695,585.2000506999902,585.2000506999902,585.2000506999902,588.1767411000328,f,0.9650782000971958,0.07200259994715452,588.1767955999821,588.1768089000834,None,,,,,,,,,,,,,,00029,001,2026-01-21_11h19.06.023,MST_task,2024.2.0,59.80449909372449,2026-01-21 11h19.18.490725 +0530,
,Objects\124a.jpg,127,0,128,,,,,,,j,2.5102117999922484,0.15051460009999573,None,,,,,,128,0,127,588.194085999974,,,,,,,,,,,,,,,,,,,,,,,588.1769331999822,588.194085999974,588.6781846000813,,,,,,,,,,,,,,,,,,,,,,,588.700071600033,588.7116527999751,588.7116527999751,588.7116527999751,591.6888063000515,j,2.5102117999922484,0.15051460009999573,591.6888611000031,591.6888735999819,None,,,,,,,,,,,,,,00029,001,2026-01-21_11h19.06.023,MST_task,2024.2.0,59.80449909372449,2026-01-21 11h19.18.490725 +0530,
,Objects\034a.jpg,128,0,129,,,,,,,f,1.7091328999958932,0.11201939999591559,None,,,,,,129,0,128,591.7054004999809,,,,,,,,,,,,,,,,,,,,,,,591.6889679000014,591.7054004999809,592.1906020999886,,,,,,,,,,,,,,,,,,,,,,,592.2112539000809,592.2238393999869,592.2238393999869,592.2238393999869,595.2008121000836,f,1.7091328999958932,0.11201939999591559,595.200906299986,595.2009226999944,None,,,,,,,,,,,,,,00029,001,2026-01-21_11h19.06.023,MST_task,2024.2.0,59.80449909372449,2026-01-21 11h19.18.490725 +0530,
,Objects\029a.jpg,129,0,130,,,,,,,f,1.5326043999521062,0.13640770001802593,None,,,,,,130,0,129,595.217625600053,,,,,,,,,,,,,,,,,,,,,,,595.2011828999966,595.217625600053,595.702731700032,,,,,,,,,,,,,,,,,,,,,,,595.723444400006,595.7360768000362,595.7360768000362,595.7360768000362,598.7132672000444,f,1.5326043999521062,0.13640770001802593,598.71331989998,598.7133322000736,None,,,,,,,,,,,,,,00029,001,2026-01-21_11h19.06.023,MST_task,2024.2.0,59.80449909372449,2026-01-21 11h19.18.490725 +0530,
,Objects\160a.jpg,130,0,131,,,,,,,None,,,j,0.05814689991530031,None,,,,131,0,130,598.729953299975,,,,,,,,,,,,,,,,,,,,,,,598.7134214000544,598.729953299975,599.2150230000261,,,,,,,,,,,,,,,,,,,,,,,599.2383031999925,599.2482525000814,599.2482525000814,599.2482525000814,602.2254046000307,None,,,602.2254544000607,602.3095794999972,j,602.2422453999752,602.2422453999752,0.05814689991530031,None,,,,,,,,,,00029,001,2026-01-21_11h19.06.023,MST_task,2024.2.0,59.80449909372449,2026-01-21 11h19.18.490725 +0530,
,Objects\104a.jpg,131,0,132,,,,,,,None,,,f,0.07883530005346984,None,,,,132,0,131,602.3258637000108,,,,,,,,,,,,,,,,,,,,,,,602.3097937999992,602.3258637000108,602.8109713000013,,,,,,,,,,,,,,,,,,,,,,,602.8331186000723,602.8441901999759,602.8441901999759,602.8441901999759,605.8213423000416,None,,,605.8214093000861,605.9224422000116,f,605.838328700047,605.838328700047,0.07883530005346984,None,,,,,,,,,,00029,001,2026-01-21_11h19.06.023,MST_task,2024.2.0,59.80449909372449,2026-01-21 11h19.18.490725 +0530,
,Objects\148a.jpg,132,0,133,,,,,,,f,1.4436733999755234,0.15218129998538643,None,,,,,,133,0,132,605.9385257000104,,,,,,,,,,,,,,,,,,,,,,,605.9225673000328,605.9385257000104,606.4234839000273,,,,,,,,,,,,,,,,,,,,,,,606.4468898000196,606.4570613000542,606.4570613000542,606.4570613000542,609.4340976000531,f,1.4436733999755234,0.15218129998538643,609.4341524000047,609.4341656999895,None,,,,,,,,,,,,,,00029,001,2026-01-21_11h19.06.023,MST_task,2024.2.0,59.80449909372449,2026-01-21 11h19.18.490725 +0530,
,Scenes\070a.jpg,133,0,134,,,,,,,None,,,j,0.07372510002460331,None,,,,134,0,133,609.4508304999908,,,,,,,,,,,,,,,,,,,,,,,609.4342509000562,609.4508304999908,609.9360304999864,,,,,,,,,,,,,,,,,,,,,,,609.9624001000775,609.9870102000423,609.9870102000423,609.9870102000423,612.9465744000627,None,,,612.9466256999876,613.0475704000564,j,612.963156200014,612.963156200014,0.07372510002460331,None,,,,,,,,,,00029,001,2026-01-21_11h19.06.023,MST_task,2024.2.0,59.80449909372449,2026-01-21 11h19.18.490725 +0530,
,Scenes\046a.jpg,134,0,135,,,,,,,j,1.2209802999859676,0.13542780000716448,None,,,,,,135,0,134,613.0635286000324,,,,,,,,,,,,,,,,,,,,,,,613.0476910000434,613.0635286000324,613.5487223999808,,,,,,,,,,,,,,,,,,,,,,,613.5836306000128,613.5998420000542,613.5998420000542,613.5998420000542,616.5590886999853,j,1.2209802999859676,0.13542780000716448,616.5591982000042,616.559215700021,None,,,,,,,,,,,,,,00029,001,2026-01-21_11h19.06.023,MST_task,2024.2.0,59.80449909372449,2026-01-21 11h19.18.490725 +0530,
,Scenes\008a.jpg,135,0,136,,,,,,,j,2.2299069999717176,0.1359130999771878,None,,,,,,136,0,135,616.5764259999851,,,,,,,,,,,,,,,,,,,,,,,616.5593412000453,616.5764259999851,617.060917600058,,,,,,,,,,,,,,,,,,,,,,,617.0842022000579,617.1112586000236,617.1112586000236,617.1112586000236,620.0713585000485,j,2.2299069999717176,0.1359130999771878,620.0716756000184,620.0716916000238,None,,,,,,,,,,,,,,00029,001,2026-01-21_11h19.06.023,MST_task,2024.2.0,59.80449909372449,2026-01-21 11h19.18.490725 +0530,
,Scenes\188a.jpg,136,0,137,,,,,,,j,0.9321038000052795,0.1523141999496147,None,,,,,,137,0,136,620.0879448000342,,,,,,,,,,,,,,,,,,,,,,,620.0717641999945,620.0879448000342,620.5733346000779,,,,,,,,,,,,,,,,,,,,,,,620.5986000000266,620.6248928999994,620.6248928999994,620.6248928999994,623.5836644000374,j,0.9321038000052795,0.1523141999496147,623.58372590004,623.5837386000203,None,,,,,,,,,,,,,,00029,001,2026-01-21_11h19.06.023,MST_task,2024.2.0,59.80449909372449,2026-01-21 11h19.18.490725 +0530,
,Scenes\101a.jpg,137,0,138,,,,,,,j,0.8767166000325233,0.11291599995456636,None,,,,,,138,0,137,623.6004624000052,,,,,,,,,,,,,,,,,,,,,,,623.5838101999834,623.6004624000052,624.0853702999884,,,,,,,,,,,,,,,,,,,,,,,624.1113565000705,624.1361193000339,624.1361193000339,624.1361193000339,627.09607040009,j,0.8767166000325233,0.11291599995456636,627.0961411000462,627.0961543000303,None,,,,,,,,,,,,,,00029,001,2026-01-21_11h19.06.023,MST_task,2024.2.0,59.80449909372449,2026-01-21 11h19.18.490725 +0530,
,Scenes\095a.jpg,138,0,139,,,,,,,f,2.373357699951157,0.13629819999914616,None,,,,,,139,0,138,627.1125448000384,,,,,,,,,,,,,,,,,,,,,,,627.0962334000506,627.1125448000384,627.5977728000144,,,,,,,,,,,,,,,,,,,,,,,627.620620700065,627.6317283000099,627.6317283000099,627.6317283000099,630.6082715999801,f,2.373357699951157,0.13629819999914616,630.6083258000435,630.6083379000193,None,,,,,,,,,,,,,,00029,001,2026-01-21_11h19.06.023,MST_task,2024.2.0,59.80449909372449,2026-01-21 11h19.18.490725 +0530,
,Scenes\033a.jpg,139,0,140,,,,,,,j,1.1804923000745475,0.16044919996056706,None,,,,,,140,0,139,630.6249575000256,,,,,,,,,,,,,,,,,,,,,,,630.6085688000312,630.6249575000256,631.1100599999772,,,,,,,,,,,,,,,,,,,,,,,631.1318958000047,631.1441731000086,631.1441731000086,631.1441731000086,634.120425100089,j,1.1804923000745475,0.16044919996056706,634.1204803000437,634.120493400027,None,,,,,,,,,,,,,,00029,001,2026-01-21_11h19.06.023,MST_task,2024.2.0,59.80449909372449,2026-01-21 11h19.18.490725 +0530,
,Objects\011a.jpg,140,0,141,,,,,,,f,1.3638769999379292,0.15987019997555763,None,,,,,,141,0,140,634.1372630000114,,,,,,,,,,,,,,,,,,,,,,,634.1205896000611,634.1372630000114,634.6223794000689,,,,,,,,,,,,,,,,,,,,,,,634.6466741000768,634.6564725000644,634.6564725000644,634.6564725000644,637.6331684000324,f,1.3638769999379292,0.15987019997555763,637.6332234999863,637.6332365000853,None,,,,,,,,,,,,,,00029,001,2026-01-21_11h19.06.023,MST_task,2024.2.0,59.80449909372449,2026-01-21 11h19.18.490725 +0530,
,Objects\110a.jpg,141,0,142,,,,,,,f,2.756653800024651,0.19214069994632155,None,,,,,,142,0,141,637.6494383000536,,,,,,,,,,,,,,,,,,,,,,,637.6333086000523,637.6494383000536,638.1346921999939,,,,,,,,,,,,,,,,,,,,,,,638.1580519999843,638.1678889000323,638.1678889000323,638.1678889000323,641.1450376000721,f,2.756653800024651,0.19214069994632155,641.1450955000473,641.1451084000291,None,,,,,,,,,,,,,,00029,001,2026-01-21_11h19.06.023,MST_task,2024.2.0,59.80449909372449,2026-01-21 11h19.18.490725 +0530,
,Objects\057a.jpg,142,0,143,,,,,,,f,2.23671359999571,0.07169100001920015,None,,,,,,143,0,142,641.1618596999906,,,,,,,,,,,,,,,,,,,,,,,641.1454758000327,641.1618596999906,641.6468252000632,,,,,,,,,,,,,,,,,,,,,,,641.6691924000625,641.6804794999771,641.6804794999771,641.6804794999771,644.6576107000001,f,2.23671359999571,0.07169100001920015,644.657672100002,644.6576923000393,None,,,,,,,,,,,,,,00029,001,2026-01-21_11h19.06.023,MST_task,2024.2.0,59.80449909372449,2026-01-21 11h19.18.490725 +0530,
,Objects\115a.jpg,143,0,144,,,,,,,f,1.4356994999106973,0.12083620007615536,None,,,,,,144,0,143,644.6740454999963,,,,,,,,,,,,,,,,,,,,,,,644.6577636000002,644.6740454999963,645.1595961999847,,,,,,,,,,,,,,,,,,,,,,,645.1815624000737,645.1924791000783,645.1924791000783,645.1924791000783,648.1696499000536,f,1.4356994999106973,0.12083620007615536,648.1697063000174,648.1697200000053,None,,,,,,,,,,,,,,00029,001,2026-01-21_11h19.06.023,MST_task,2024.2.0,59.80449909372449,2026-01-21 11h19.18.490725 +0530,
,Objects\001a.jpg,144,0,145,,,,,,,f,0.8835032000206411,0.14449099998455495,None,,,,,,145,0,144,648.186466800049,,,,,,,,,,,,,,,,,,,,,,,648.1700818000827,648.186466800049,648.6715743000386,,,,,,,,,,,,,,,,,,,,,,,648.6937026000815,648.7052063000156,648.7052063000156,648.7052063000156,651.6820660000667,f,0.8835032000206411,0.14449099998455495,651.6821217000252,651.6821343000047,None,,,,,,,,,,,,,,00029,001,2026-01-21_11h19.06.023,MST_task,2024.2.0,59.80449909372449,2026-01-21 11h19.18.490725 +0530,
,Objects\020a.jpg,145,0,146,,,,,,,f,0.8115618000738323,0.13658259995281696,None,,,,,,146,0,145,651.6986372000538,,,,,,,,,,,,,,,,,,,,,,,651.682226200006,651.6986372000538,652.1838425000897,,,,,,,,,,,,,,,,,,,,,,,652.2069568000734,652.2172071000095,652.2172071000095,652.2172071000095,655.1943697000388,f,0.8115618000738323,0.13658259995281696,655.1944246999919,655.1944371000864,None,,,,,,,,,,,,,,00029,001,2026-01-21_11h19.06.023,MST_task,2024.2.0,59.80449909372449,2026-01-21 11h19.18.490725 +0530,
,Objects\135a.jpg,146,0,147,,,,,,,f,1.0426866000052541,0.30408769997302443,None,,,,,,147,0,146,655.2111661999952,,,,,,,,,,,,,,,,,,,,,,,655.1945440000854,655.2111661999952,655.6960791000165,,,,,,,,,,,,,,,,,,,,,,,655.718852500082,655.7295003000181,655.7295003000181,655.7295003000181,658.7067821000237,f,1.0426866000052541,0.30408769997302443,658.7068383999867,658.7068507000804,None,,,,,,,,,,,,,,00029,001,2026-01-21_11h19.06.023,MST_task,2024.2.0,59.80449909372449,2026-01-21 11h19.18.490725 +0530,
,Scenes\072a.jpg,147,0,148,,,,,,,j,1.2026871000416577,0.11819499998819083,None,,,,,,148,0,147,658.7232230000664,,,,,,,,,,,,,,,,,,,,,,,658.7069462999934,658.7232230000664,659.2085912000621,,,,,,,,,,,,,,,,,,,,,,,659.2344366000034,659.2593824000796,659.2593824000796,659.2593824000796,662.2189324999927,j,1.2026871000416577,0.11819499998819083,662.2191610999871,662.2191750999773,None,,,,,,,,,,,,,,00029,001,2026-01-21_11h19.06.023,MST_task,2024.2.0,59.80449909372449,2026-01-21 11h19.18.490725 +0530,
,Scenes\123a.jpg,148,0,149,,,,,,,j,1.1296511000255123,0.11998499999754131,None,,,,,,149,0,148,662.2355295000598,,,,,,,,,,,,,,,,,,,,,,,662.2192713000113,662.2355295000598,662.7207353999838,,,,,,,,,,,,,,,,,,,,,,,662.7422011999879,662.7549224999966,662.7549224999966,662.7549224999966,665.7312434000196,j,1.1296511000255123,0.11998499999754131,665.7312997999834,665.7313123000786,None,,,,,,,,,,,,,,00029,001,2026-01-21_11h19.06.023,MST_task,2024.2.0,59.80449909372449,2026-01-21 11h19.18.490725 +0530,
,Scenes\127a.jpg,149,0,150,,,,,,,j,1.7451270000310615,0.11320929997600615,None,,,,,,150,0,149,665.7480988000752,,,,,,,,,,,,,,,,,,,,,,,665.7314336000709,665.7480988000752,666.2333322999766,,,,,,,,,,,,,,,,,,,,,,,666.2588961999863,666.2831066000508,666.2831066000508,666.2831066000508,669.2437586000888,j,1.7451270000310615,0.11320929997600615,669.2440525999991,669.2440695000114,None,,,,,,,,,,,,,,00029,001,2026-01-21_11h19.06.023,MST_task,2024.2.0,59.80449909372449,2026-01-21 11h19.18.490725 +0530,
,Scenes\076a.jpg,150,0,151,,,,,,,j,1.1523879000451416,0.14284879993647337,None,,,,,,151,0,150,669.2608988999855,,,,,,,,,,,,,,,,,,,,,,,669.244177000015,669.2608988999855,669.7455748000648,,,,,,,,,,,,,,,,,,,,,,,669.775591099984,669.7970704999752,669.7970704999752,669.7970704999752,672.7557284000795,j,1.1523879000451416,0.14284879993647337,672.7557911999756,672.7558036000701,None,,,,,,,,,,,,,,00029,001,2026-01-21_11h19.06.023,MST_task,2024.2.0,59.80449909372449,2026-01-21 11h19.18.490725 +0530,
,Scenes\023a.jpg,151,0,152,,,,,,,f,1.4797292000148445,0.17599390004761517,None,,,,,,152,0,151,672.7725620000856,,,,,,,,,,,,,,,,,,,,,,,672.7558981999755,672.7725620000856,673.2575317000737,,,,,,,,,,,,,,,,,,,,,,,673.2879412000766,673.3084353000158,673.3084353000158,673.3084353000158,676.2681327000028,f,1.4797292000148445,0.17599390004761517,676.2681888000807,676.2682010000572,None,,,,,,,,,,,,,,00029,001,2026-01-21_11h19.06.023,MST_task,2024.2.0,59.80449909372449,2026-01-21 11h19.18.490725 +0530,
,Scenes\001a.jpg,152,0,153,,,,,,,f,0.975442299968563,0.13656750007066876,None,,,,,,153,0,152,676.2847291000653,,,,,,,,,,,,,,,,,,,,,,,676.2682941000676,676.2847291000653,676.7699360999977,,,,,,,,,,,,,,,,,,,,,,,676.8032787999837,676.8209110000171,676.8209110000171,676.8209110000171,679.7803174000001,f,0.975442299968563,0.13656750007066876,679.780371400062,679.7803839000408,None,,,,,,,,,,,,,,00029,001,2026-01-21_11h19.06.023,MST_task,2024.2.0,59.80449909372449,2026-01-21 11h19.18.490725 +0530,
,Scenes\014a.jpg,153,0,154,,,,,,,f,2.241215700050816,0.11907599994447082,None,,,,,,154,0,153,679.7971547000343,,,,,,,,,,,,,,,,,,,,,,,679.7806624000659,679.7971547000343,680.2821077000117,,,,,,,,,,,,,,,,,,,,,,,680.308301000041,680.3163432000438,680.3163432000438,680.3163432000438,683.2928415000206,f,2.241215700050816,0.11907599994447082,683.2929135999875,683.2929280999815,None,,,,,,,,,,,,,,00029,001,2026-01-21_11h19.06.023,MST_task,2024.2.0,59.80449909372449,2026-01-21 11h19.18.490725 +0530,
,Objects\073a.jpg,154,0,155,,,,,,,f,2.239683900028467,0.1283843000419438,None,,,,,,155,0,154,683.3099504000274,,,,,,,,,,,,,,,,,,,,,,,683.2930309000658,683.3099504000274,683.7945895000594,,,,,,,,,,,,,,,,,,,,,,,683.8161629000679,683.8290582000045,683.8290582000045,683.8290582000045,686.8051913999952,f,2.239683900028467,0.1283843000419438,686.8052618000656,686.8052755000535,None,,,,,,,,,,,,,,00029,001,2026-01-21_11h19.06.023,MST_task,2024.2.0,59.80449909372449,2026-01-21 11h19.18.490725 +0530,
,Objects\154a.jpg,155,0,156,,,,,,,f,0.6420223999302834,0.1515269000083208,None,,,,,,156,0,155,686.821624299977,,,,,,,,,,,,,,,,,,,,,,,686.8053685000632,686.821624299977,687.3070168000413,,,,,,,,,,,,,,,,,,,,,,,687.3297774000093,687.340057900059,687.340057900059,687.340057900059,690.3172239999985,f,0.6420223999302834,0.1515269000083208,690.3172772000544,690.3172895000316,None,,,,,,,,,,,,,,00029,001,2026-01-21_11h19.06.023,MST_task,2024.2.0,59.80449909372449,2026-01-21 11h19.18.490725 +0530,
,Objects\030a.jpg,156,0,157,,,,,,,f,0.87989209999796,0.12069749995134771,None,,,,,,157,0,156,690.3342025000602,,,,,,,,,,,,,,,,,,,,,,,690.3174103000201,690.3342025000602,690.8190257999813,,,,,,,,,,,,,,,,,,,,,,,690.840658799978,690.8524897000752,690.8524897000752,690.8524897000752,693.8296397000086,f,0.87989209999796,0.12069749995134771,693.8296962000895,693.8297094000736,None,,,,,,,,,,,,,,00029,001,2026-01-21_11h19.06.023,MST_task,2024.2.0,59.80449909372449,2026-01-21 11h19.18.490725 +0530,
,Objects\126a.jpg,157,0,158,,,,,,,None,,,j,0.7196664999937639,None,,,,158,0,157,693.8463522000238,,,,,,,,,,,,,,,,,,,,,,,693.8300732000498,693.8463522000238,694.3312794000376,,,,,,,,,,,,,,,,,,,,,,,694.3551727000158,694.3651916000526,694.3651916000526,694.3651916000526,697.3419727000874,None,,,697.3420402000193,698.0786139999982,j,697.3584924000315,697.3584924000315,0.7196664999937639,None,,,,,,,,,,00029,001,2026-01-21_11h19.06.023,MST_task,2024.2.0,59.80449909372449,2026-01-21 11h19.18.490725 +0530,
,Objects\108a.jpg,158,0,159,,,,,,,f,0.8893060999689624,0.12611080007627606,None,,,,,,159,0,158,698.0944325000746,,,,,,,,,,,,,,,,,,,,,,,698.0787072000094,698.0944325000746,698.5799808000447,,,,,,,,,,,,,,,,,,,,,,,698.6025649000658,698.6131651999895,698.6131651999895,698.6131651999895,701.5900364000117,f,0.8893060999689624,0.12611080007627606,701.5900980000151,701.5901122000068,None,,,,,,,,,,,,,,00029,001,2026-01-21_11h19.06.023,MST_task,2024.2.0,59.80449909372449,2026-01-21 11h19.18.490725 +0530,
,Objects\187a.jpg,159,0,160,,,,,,,f,1.264550199965015,0.12658499996177852,None,,,,,,160,0,159,701.6068487000884,,,,,,,,,,,,,,,,,,,,,,,701.5906364000402,701.6068487000884,702.0918396000052,,,,,,,,,,,,,,,,,,,,,,,702.1131987000117,702.1254364000633,702.1254364000633,702.1254364000633,705.102314400021,f,1.264550199965015,0.12658499996177852,705.1024002999766,705.1024132000748,None,,,,,,,,,,,,,,00029,001,2026-01-21_11h19.06.023,MST_task,2024.2.0,59.80449909372449,2026-01-21 11h19.18.490725 +0530,
,Objects\123a.jpg,160,0,161,,,,,,,None,,,j,0.7902785999467596,None,,,,161,0,160,705.1191623000195,,,,,,,,,,,,,,,,,,,,,,,705.1025086999871,705.1191623000195,705.6043740999885,,,,,,,,,,,,,,,,,,,,,,,705.6261277000885,705.6376164000249,705.6376164000249,705.6376164000249,708.6147515000775,None,,,708.6148036000086,709.4349828000413,j,708.6313386000693,708.6313386000693,0.7902785999467596,None,,,,,,,,,,00029,001,2026-01-21_11h19.06.023,MST_task,2024.2.0,59.80449909372449,2026-01-21 11h19.18.490725 +0530,
,Scenes\185a.jpg,161,0,162,,,,,,,j,1.7775310999713838,0.1358933000592515,None,,,,,,162,0,161,709.450980600086,,,,,,,,,,,,,,,,,,,,,,,709.4350756000495,709.450980600086,709.9359767000424,,,,,,,,,,,,,,,,,,,,,,,709.9596350999782,709.9872935999883,709.9872935999883,709.9872935999883,712.9464411999797,j,1.7775310999713838,0.1358933000592515,712.9465217000106,712.9465375000145,None,,,,,,,,,,,,,,00029,001,2026-01-21_11h19.06.023,MST_task,2024.2.0,59.80449909372449,2026-01-21 11h19.18.490725 +0530,
,Scenes\172a.jpg,162,0,163,,,,,,,j,1.6737390999915078,0.13629840000066906,None,,,,,,163,0,162,712.9632835000521,,,,,,,,,,,,,,,,,,,,,,,712.9468975000782,712.9632835000521,713.4482595000882,,,,,,,,,,,,,,,,,,,,,,,713.4712757000234,713.4988814999815,713.4988814999815,713.4988814999815,716.4589126000647,j,1.6737390999915078,0.13629840000066906,716.4589753000764,716.4589874000521,None,,,,,,,,,,,,,,00029,001,2026-01-21_11h19.06.023,MST_task,2024.2.0,59.80449909372449,2026-01-21 11h19.18.490725 +0530,
,Scenes\182a.jpg,163,0,164,,,,,,,None,,,j,0.31313329993281513,None,,,,164,0,163,716.4754743999802,,,,,,,,,,,,,,,,,,,,,,,716.4590666000731,716.4754743999802,716.9606557000661,,,,,,,,,,,,,,,,,,,,,,,716.9841051000403,716.9936501000775,716.9936501000775,716.9936501000775,719.9711696000304,None,,,719.9712446000194,720.3062611999922,j,719.9877765000565,719.9877765000565,0.31313329993281513,None,,,,,,,,,,00029,001,2026-01-21_11h19.06.023,MST_task,2024.2.0,59.80449909372449,2026-01-21 11h19.18.490725 +0530,
,Scenes\145a.jpg,164,0,165,,,,,,,j,1.2431390000274405,0.1598431000020355,None,,,,,,165,0,164,720.3224762000609,,,,,,,,,,,,,,,,,,,,,,,720.3063530999934,720.3224762000609,720.808434800012,,,,,,,,,,,,,,,,,,,,,,,720.8333730000304,720.857554599992,720.857554599992,720.857554599992,723.8188021000242,j,1.2431390000274405,0.1598431000020355,723.8188718000893,723.8188859000802,None,,,,,,,,,,,,,,00029,001,2026-01-21_11h19.06.023,MST_task,2024.2.0,59.80449909372449,2026-01-21 11h19.18.490725 +0530,
,Scenes\183a.jpg,165,0,166,,,,,,,f,2.451738499919884,0.13591640000231564,None,,,,,,166,0,165,723.8347093000775,,,,,,,,,,,,,,,,,,,,,,,723.8189895000542,723.8347093000775,724.319768800051,,,,,,,,,,,,,,,,,,,,,,,724.3348359999945,724.3530086000683,724.3530086000683,724.3530086000683,727.3301458000205,f,2.451738499919884,0.13591640000231564,727.3301985000726,727.3302115000552,None,,,,,,,,,,,,,,00029,001,2026-01-21_11h19.06.023,MST_task,2024.2.0,59.80449909372449,2026-01-21 11h19.18.490725 +0530,
,Scenes\102a.jpg,166,0,167,,,,,,,None,,,f,0.23359260009601712,None,,,,167,0,166,727.3471034000395,,,,,,,,,,,,,,,,,,,,,,,727.330414300086,727.3471034000395,727.8319590999745,,,,,,,,,,,,,,,,,,,,,,,727.8528092000633,727.8654359000502,727.8654359000502,727.8654359000502,730.8427496000659,None,,,730.8428369000321,731.0940950000659,f,730.859162400011,730.859162400011,0.23359260009601712,None,,,,,,,,,,00029,001,2026-01-21_11h19.06.023,MST_task,2024.2.0,59.80449909372449,2026-01-21 11h19.18.490725 +0530,
,Scenes\028a.jpg,167,0,168,,,,,,,j,0.9199317999882624,0.08696270000655204,None,,,,,,168,0,167,731.1101671999786,,,,,,,,,,,,,,,,,,,,,,,731.0942214999814,731.1101671999786,731.5951405999949,,,,,,,,,,,,,,,,,,,,,,,731.6200255000731,731.6453214000212,731.6453214000212,731.6453214000212,734.6058935000328,j,0.9199317999882624,0.08696270000655204,734.605971800047,734.6059878000524,None,,,,,,,,,,,,,,00029,001,2026-01-21_11h19.06.023,MST_task,2024.2.0,59.80449909372449,2026-01-21 11h19.18.490725 +0530,
,Objects\003a.jpg,168,0,169,,,,,,,j,1.8618289000587538,0.15221789991483092,None,,,,,,169,0,168,734.622348700068,,,,,,,,,,,,,,,,,,,,,,,734.6060841000872,734.622348700068,735.1075520000886,,,,,,,,,,,,,,,,,,,,,,,735.1304535000818,735.1422393000685,735.1422393000685,735.1422393000685,738.1180657000514,j,1.8618289000587538,0.15221789991483092,738.1182899000123,738.1183044000063,None,,,,,,,,,,,,,,00029,001,2026-01-21_11h19.06.023,MST_task,2024.2.0,59.80449909372449,2026-01-21 11h19.18.490725 +0530,
,Objects\183a.jpg,169,0,170,,,,,,,f,2.462944700033404,0.1201762999407947,None,,,,,,170,0,169,738.1347366999835,,,,,,,,,,,,,,,,,,,,,,,738.1183859000448,738.1347366999835,738.6199856000021,,,,,,,,,,,,,,,,,,,,,,,738.6458107000217,738.6531952000223,738.6531952000223,738.6531952000223,741.6303540000226,f,2.462944700033404,0.1201762999407947,741.6308043000754,741.6308306000428,None,,,,,,,,,,,,,,00029,001,2026-01-21_11h19.06.023,MST_task,2024.2.0,59.80449909372449,2026-01-21 11h19.18.490725 +0530,
,Objects\130a.jpg,170,0,171,,,,,,,f,2.1989717000396922,0.19213749992195517,None,,,,,,171,0,170,741.6471769000636,,,,,,,,,,,,,,,,,,,,,,,741.6309252000647,741.6471769000636,742.1328514000634,,,,,,,,,,,,,,,,,,,,,,,742.1572019000305,742.1653489000164,742.1653489000164,742.1653489000164,745.1426773000276,f,2.1989717000396922,0.19213749992195517,745.1427308000857,745.1427427000599,None,,,,,,,,,,,,,,00029,001,2026-01-21_11h19.06.023,MST_task,2024.2.0,59.80449909372449,2026-01-21 11h19.18.490725 +0530,
,Objects\177a.jpg,171,0,172,,,,,,,j,1.2305723000317812,0.1279468999709934,None,,,,,,172,0,171,745.1595314000733,,,,,,,,,,,,,,,,,,,,,,,745.1428120000055,745.1595314000733,745.6444716000697,,,,,,,,,,,,,,,,,,,,,,,745.6652490000706,745.677963300026,745.677963300026,745.677963300026,748.6550964000635,j,1.2305723000317812,0.1279468999709934,748.6551682000281,748.6551805000054,None,,,,,,,,,,,,,,00029,001,2026-01-21_11h19.06.023,MST_task,2024.2.0,59.80449909372449,2026-01-21 11h19.18.490725 +0530,
,Objects\121a.jpg,172,0,173,,,,,,,f,1.4470175999449566,0.17594810004811734,None,,,,,,173,0,172,748.6716496000299,,,,,,,,,,,,,,,,,,,,,,,748.655270599993,748.6716496000299,749.1569219999947,,,,,,,,,,,,,,,,,,,,,,,749.1786632000003,749.1901403000811,749.1901403000811,749.1901403000811,752.167288800003,f,1.4470175999449566,0.17594810004811734,752.1673438000726,752.1673568000551,None,,,,,,,,,,,,,,00029,001,2026-01-21_11h19.06.023,MST_task,2024.2.0,59.80449909372449,2026-01-21 11h19.18.490725 +0530,
,Objects\129a.jpg,173,0,174,,,,,,,f,1.102615800104104,0.12725589994806796,None,,,,,,174,0,173,752.184211499989,,,,,,,,,,,,,,,,,,,,,,,752.1674342000624,752.184211499989,752.6693705000216,,,,,,,,,,,,,,,,,,,,,,,752.6900565000251,752.7024252000265,752.7024252000265,752.7024252000265,755.6795632999856,f,1.102615800104104,0.12725589994806796,755.6796223000856,755.6796579000074,None,,,,,,,,,,,,,,00029,001,2026-01-21_11h19.06.023,MST_task,2024.2.0,59.80449909372449,2026-01-21 11h19.18.490725 +0530,
,Objects\098a.jpg,174,0,175,,,,,,,f,1.9659310999559239,0.11998670001048595,None,,,,,,175,0,174,755.696139800013,,,,,,,,,,,,,,,,,,,,,,,755.6797537000384,755.696139800013,756.1816645000363,,,,,,,,,,,,,,,,,,,,,,,756.2024512999924,756.2145855000708,756.2145855000708,756.2145855000708,759.1917203000048,f,1.9659310999559239,0.11998670001048595,759.1917989000212,759.1918137000175,None,,,,,,,,,,,,,,00029,001,2026-01-21_11h19.06.023,MST_task,2024.2.0,59.80449909372449,2026-01-21 11h19.18.490725 +0530,
,Scenes\160a.jpg,175,0,176,,,,,,,j,2.9172433000057936,None,None,,,,,,176,0,175,759.2085417000344,,,,,,,,,,,,,,,,,,,,,,,759.1919222000288,759.2085417000344,759.6939360999968,,,,,,,,,,,,,,,,,,,,,,,759.7183766000671,759.7437166000018,759.7437166000018,759.7437166000018,762.7040163000347,j,2.9172433000057936,None,762.7040697999764,762.7040824000724,None,,,,,,,,,,,,,,00029,001,2026-01-21_11h19.06.023,MST_task,2024.2.0,59.80449909372449,2026-01-21 11h19.18.490725 +0530,
,Scenes\104a.jpg,176,0,177,,,,,,,j,1.5078697999706492,0.13570380001328886,None,,,,,,177,0,176,762.7208402000833,,,,,,,,,,,,,,,,,,,,,,,762.7042068000883,762.7208402000833,763.2058448999887,,,,,,,,,,,,,,,,,,,,,,,763.2315600999864,763.2568845000351,763.2568845000351,763.2568845000351,766.2172320000827,j,1.5078697999706492,0.13570380001328886,766.2172881000442,766.2173248999752,None,,,,,,,,,,,,,,00029,001,2026-01-21_11h19.06.023,MST_task,2024.2.0,59.80449909372449,2026-01-21 11h19.18.490725 +0530,
,Scenes\105a.jpg,177,0,178,,,,,,,j,0.7238432000158355,0.14482249994762242,None,,,,,,178,0,177,766.2331994000124,,,,,,,,,,,,,,,,,,,,,,,766.2173961000517,766.2331994000124,766.7185645999853,,,,,,,,,,,,,,,,,,,,,,,766.7458255999954,766.7684090000112,766.7684090000112,766.7684090000112,769.7286306000315,j,0.7238432000158355,0.14482249994762242,769.7286895000143,769.7287027999992,None,,,,,,,,,,,,,,00029,001,2026-01-21_11h19.06.023,MST_task,2024.2.0,59.80449909372449,2026-01-21 11h19.18.490725 +0530,
,Scenes\187a.jpg,178,0,179,,,,,,,j,0.7964243999449536,0.11964689998421818,None,,,,,,179,0,178,769.7455706000328,,,,,,,,,,,,,,,,,,,,,,,769.7288295000326,769.7455706000328,770.230395700084,,,,,,,,,,,,,,,,,,,,,,,770.2544040000066,770.2805672000395,770.2805672000395,770.2805672000395,773.2412094000028,j,0.7964243999449536,0.11964689998421818,773.2412852999987,773.241298399982,None,,,,,,,,,,,,,,00029,001,2026-01-21_11h19.06.023,MST_task,2024.2.0,59.80449909372449,2026-01-21 11h19.18.490725 +0530,
,Scenes\114a.jpg,179,0,180,,,,,,,f,1.5555088999681175,0.1517285000300035,None,,,,,,180,0,179,773.2579076000256,,,,,,,,,,,,,,,,,,,,,,,773.2413701000623,773.2579076000256,773.7430270999903,,,,,,,,,,,,,,,,,,,,,,,773.7680790000595,773.7929168000119,773.7929168000119,773.7929168000119,776.7534875000129,f,1.5555088999681175,0.1517285000300035,776.7535432000877,776.753555500065,None,,,,,,,,,,,,,,00029,001,2026-01-21_11h19.06.023,MST_task,2024.2.0,59.80449909372449,2026-01-21 11h19.18.490725 +0530,
,Scenes\053a.jpg,180,0,181,,,,,,,j,0.8264782000333071,0.10407759994268417,None,,,,,,181,0,180,776.7701166999759,,,,,,,,,,,,,,,,,,,,,,,776.7536465000594,776.7701166999759,777.2563193000387,,,,,,,,,,,,,,,,,,,,,,,777.2746202000417,777.2901375000365,777.2901375000365,777.2901375000365,780.265642000013,j,0.8264782000333071,0.10407759994268417,780.2657087000553,780.2657210000325,None,,,,,,,,,,,,,,00029,001,2026-01-21_11h19.06.023,MST_task,2024.2.0,59.80449909372449,2026-01-21 11h19.18.490725 +0530,
,Scenes\031a.jpg,181,0,182,,,,,,,j,2.0438355000223964,0.12798360001761466,None,,,,,,182,0,181,780.282221200061,,,,,,,,,,,,,,,,,,,,,,,780.2659335000208,780.282221200061,780.7675886000507,,,,,,,,,,,,,,,,,,,,,,,780.7942037000321,780.8173930000048,780.8173930000048,780.8173930000048,783.778115699999,j,2.0438355000223964,0.12798360001761466,783.7781705000671,783.7781828000443,None,,,,,,,,,,,,,,00029,001,2026-01-21_11h19.06.023,MST_task,2024.2.0,59.80449909372449,2026-01-21 11h19.18.490725 +0530,
,Objects\153a.jpg,182,0,183,,,,,,,f,1.8026636000722647,0.12025079992599785,None,,,,,,183,0,182,783.7949079000391,,,,,,,,,,,,,,,,,,,,,,,783.7782979999902,783.7949079000391,784.2797345999861,,,,,,,,,,,,,,,,,,,,,,,784.3030192999868,784.3142094999785,784.3142094999785,784.3142094999785,787.290474700043,f,1.8026636000722647,0.12025079992599785,787.2905468000099,787.2905591999879,None,,,,,,,,,,,,,,00029,001,2026-01-21_11h19.06.023,MST_task,2024.2.0,59.80449909372449,2026-01-21 11h19.18.490725 +0530,
,Objects\102a.jpg,183,0,184,,,,,,,f,1.7875276000704616,0.13599809992592782,None,,,,,,184,0,183,787.3068248999771,,,,,,,,,,,,,,,,,,,,,,,787.2907280999934,787.3068248999771,787.7920332000358,,,,,,,,,,,,,,,,,,,,,,,787.813556500012,787.8252776000882,787.8252776000882,787.8252776000882,790.802490800037,f,1.7875276000704616,0.13599809992592782,790.8025616999948,790.8025746999774,None,,,,,,,,,,,,,,00029,001,2026-01-21_11h19.06.023,MST_task,2024.2.0,59.80449909372449,2026-01-21 11h19.18.490725 +0530,
