Sl_no,image_path,thisN,thisTrialN,thisRepN,key_resp_5.keys,key_resp_5.rt,key_resp_5.duration,key_resp_7.keys,key_resp_9.keys,key_resp_9.rt,key_resp_9.duration,key_resp_8.keys,key_resp_8.rt,key_resp_8.duration,practice.thisRepN,practice.thisTrialN,practice.thisN,trials.thisRepN,trials.thisTrialN,trials.thisN,thisRow.t,notes,welcome_page.started,text.started,key_resp.started,welcome_page.stopped,key_resp.keys,key_resp.rt,key_resp.duration,instructions.started,ins.started,key_resp_2.started,instructions.stopped,key_resp_2.keys,key_resp_2.rt,key_resp_2.duration,objects_only_instruction.started,text_3.started,key_resp_3.started,objects_only_instruction.stopped,key_resp_3.keys,key_resp_3.rt,key_resp_3.duration,ISI.started,text_4.started,text_4.stopped,ISI.stopped,practice_block.started,image.started,text_5.started,key_resp_5.started,practice_block.stopped,practice.key_resp_5.keys,practice.key_resp_5.rt,practice.key_resp_5.duration,indoor_outdoor.started,indoor_outdoor.stopped,practice.key_resp_7.keys,image.stopped,text_5.stopped,key_resp_5.stopped,practice_to_main.started,text_2.started,key_resp_4.started,practice_to_main.stopped,key_resp_4.keys,key_resp_4.rt,key_resp_4.duration,objects.started,image_2.started,text_9.started,key_resp_9.started,objects.stopped,trials.key_resp_9.keys,trials.key_resp_9.rt,trials.key_resp_9.duration,encoding_task.started,encoding_task.stopped,trials.key_resp_8.keys,image_2.stopped,text_9.stopped,key_resp_9.stopped,text_8.started,key_resp_8.started,trials.key_resp_8.rt,trials.key_resp_8.duration,end_experiment.started,text_6.started,key_resp_6.started,end_experiment.stopped,key_resp_6.keys,key_resp_6.rt,key_resp_6.duration,list_of_stimuli,encoding_task_accuracy,participant,session,date,expName,psychopyVersion,frameRate,expStart,
,,,,,,,,,,,,,,,,,,,,,,,0.002117800002451986,0.005418700005975552,0.005418700005975552,5.990263200001209,space,5.974545400007628,None,,,,,,,,,,,,,,,,,,,,,,,,,,,,,,,,,,,,,,,,,,,,,,,,,,,,,,,,,,,,,,,,,,,00020,001,2026-01-20_16h14.02.894,MST_task,2024.2.0,59.7236705203345,2026-01-20 16h14.17.842730 +0530,
,,,,,,,,,,,,,,,,,,,,,,,,,,,,,,5.990424000003259,6.006020799992257,6.006020799992257,28.35178559999622,space,22.333347199994023,None,,,,,,,,,,,,,,,,,,,,,,,,,,,,,,,,,,,,,,,,,,,,,,,,,,,,,,,,,,,,00020,001,2026-01-20_16h14.02.894,MST_task,2024.2.0,59.7236705203345,2026-01-20 16h14.17.842730 +0530,
,,,,,,,,,,,,,,,,,,,,,,,,,,,,,,,,,,,,,28.351907300006133,28.374435799996718,28.374435799996718,67.5181753999932,space,39.13389260000258,None,,,,,,,,,,,,,,,,,,,,,,,,,,,,,,,,,,,,,,,,,,,,,,,,,,,,,00020,001,2026-01-20_16h14.02.894,MST_task,2024.2.0,59.7236705203345,2026-01-20 16h14.17.842730 +0530,
7,practice_images/166a.jpg,0,0,1,f,2.522411400001147,0.12062950000108685,None,,,,,,,1,0,0,,,,67.53322389999812,,,,,,,,,,,,,,,,,,,,,,,67.52699389999907,67.53322389999812,68.06543099999544,68.01786930000526,68.02808609999192,68.06543099999544,68.06543099999544,68.06543099999544,71.03340469999239,f,2.522411400001147,0.12062950000108685,71.03946919999726,71.03952389999176,None,,,,,,,,,,,,,,,,,,,,,,,,,,,,,,,,,,,,,,00020,001,2026-01-20_16h14.02.894,MST_task,2024.2.0,59.7236705203345,2026-01-20 16h14.17.842730 +0530,
5,practice_images/139a.jpg,1,1,1,j,1.6303360999881988,0.16790310000942554,None,,,,,,,1,1,1,,,,71.04968480000389,,,,,,,,,,,,,,,,,,,,,,,71.03972139999678,71.04968480000389,71.54988609999418,71.53428619999613,71.53947459999472,71.54988609999418,71.54988609999418,71.54988609999418,74.53435050000553,j,1.6303360999881988,0.16790310000942554,74.53458720000344,74.5346572999988,None,74.54966279999644,74.54966279999644,74.54966279999644,,,,,,,,,,,,,,,,,,,,,,,,,,,,,,,,,,,00020,001,2026-01-20_16h14.02.894,MST_task,2024.2.0,59.7236705203345,2026-01-20 16h14.17.842730 +0530,
3,practice_images/037a.jpg,2,2,1,f,1.825076099994476,0.16891799999575596,None,,,,,,,1,2,2,,,,74.54966279999644,,,,,,,,,,,,,,,,,,,,,,,74.53494409999985,74.54966279999644,75.05014160000428,75.03500479999639,75.03855040000053,75.05014160000428,75.05014160000428,75.05014160000428,78.03441469999962,f,1.825076099994476,0.16891799999575596,78.03455949999625,78.03460389999964,None,78.0496381999983,78.0496381999983,78.0496381999983,,,,,,,,,,,,,,,,,,,,,,,,,,,,,,,,,,,00020,001,2026-01-20_16h14.02.894,MST_task,2024.2.0,59.7236705203345,2026-01-20 16h14.17.842730 +0530,
10,practice_images/182a.jpg,3,3,1,f,2.526283599989256,0.1271363999985624,None,,,,,,,1,3,3,,,,78.0496381999983,,,,,,,,,,,,,,,,,,,,,,,78.03479320000042,78.0496381999983,78.54972209999687,78.53427859999647,78.5391571999935,78.54972209999687,78.54972209999687,78.54972209999687,81.53457239999261,f,2.526283599989256,0.1271363999985624,81.5347374999983,81.5347868999961,None,81.54955880000489,81.54955880000489,81.54955880000489,,,,,,,,,,,,,,,,,,,,,,,,,,,,,,,,,,,00020,001,2026-01-20_16h14.02.894,MST_task,2024.2.0,59.7236705203345,2026-01-20 16h14.17.842730 +0530,
8,practice_images/178a.jpg,4,4,1,f,1.594525499996962,0.11992529999406543,None,,,,,,,1,4,4,,,,81.54955880000489,,,,,,,,,,,,,,,,,,,,,,,81.535005800004,81.54955880000489,82.04986959999951,82.03435360000003,82.03924199999892,82.04986959999951,82.04986959999951,82.04986959999951,85.03432500000054,f,1.594525499996962,0.11992529999406543,85.03448380000191,85.03453160000208,None,85.05028880000464,85.05028880000464,85.05028880000464,,,,,,,,,,,,,,,,,,,,,,,,,,,,,,,,,,,00020,001,2026-01-20_16h14.02.894,MST_task,2024.2.0,59.7236705203345,2026-01-20 16h14.17.842730 +0530,
9,practice_images/180a.jpg,5,5,1,f,0.8294429000088712,0.15230209998844657,None,,,,,,,1,5,5,,,,85.05028880000464,,,,,,,,,,,,,,,,,,,,,,,85.03473169999779,85.05028880000464,85.54998349999369,85.53412979999848,85.53739019999921,85.54998349999369,85.54998349999369,85.54998349999369,88.53407650000008,f,0.8294429000088712,0.15230209998844657,88.53420589999587,88.53424459999951,None,88.55009299999801,88.55009299999801,88.55009299999801,,,,,,,,,,,,,,,,,,,,,,,,,,,,,,,,,,,00020,001,2026-01-20_16h14.02.894,MST_task,2024.2.0,59.7236705203345,2026-01-20 16h14.17.842730 +0530,
4,practice_images/002b.jpg,6,6,1,j,2.3698634000029415,0.17658200000005309,None,,,,,,,1,6,6,,,,88.55009299999801,,,,,,,,,,,,,,,,,,,,,,,88.53441259999818,88.55009299999801,89.05031439999584,89.0343228999991,89.03954939999676,89.05031439999584,89.05031439999584,89.05031439999584,92.034295999998,j,2.3698634000029415,0.17658200000005309,92.03447009999945,92.03454259999853,None,92.04966780000541,92.04966780000541,92.04966780000541,,,,,,,,,,,,,,,,,,,,,,,,,,,,,,,,,,,00020,001,2026-01-20_16h14.02.894,MST_task,2024.2.0,59.7236705203345,2026-01-20 16h14.17.842730 +0530,
2,practice_images/031a.jpg,7,7,1,f,0.797630000000936,0.1848104999953648,None,,,,,,,1,7,7,,,,92.04966780000541,,,,,,,,,,,,,,,,,,,,,,,92.03485039999941,92.04966780000541,92.5497883999924,92.53426590000163,92.53813620000437,92.5497883999924,92.5497883999924,92.5497883999924,95.53448519999802,f,0.797630000000936,0.1848104999953648,95.53468929999508,95.53474469999492,None,95.54962890000024,95.54962890000024,95.54962890000024,,,,,,,,,,,,,,,,,,,,,,,,,,,,,,,,,,,00020,001,2026-01-20_16h14.02.894,MST_task,2024.2.0,59.7236705203345,2026-01-20 16h14.17.842730 +0530,
1,practice_images/013a.jpg,8,8,1,j,1.2426599000027636,0.18408110000018496,None,,,,,,,1,8,8,,,,95.54962890000024,,,,,,,,,,,,,,,,,,,,,,,95.53496439999435,95.54962890000024,96.04992209999182,96.034373100003,96.03968560000067,96.04992209999182,96.04992209999182,96.04992209999182,99.03412080000271,j,1.2426599000027636,0.18408110000018496,99.03425979999884,99.03432520000206,None,99.04966340000101,99.04966340000101,99.04966340000101,,,,,,,,,,,,,,,,,,,,,,,,,,,,,,,,,,,00020,001,2026-01-20_16h14.02.894,MST_task,2024.2.0,59.7236705203345,2026-01-20 16h14.17.842730 +0530,
6,practice_images/158a.jpg,9,9,1,j,1.358436200011056,0.16804389999015257,None,,,,,,,1,9,9,,,,99.04966340000101,,,,,,,,,,,,,,,,,,,,,,,99.03461139999854,99.04966340000101,99.54982729999756,99.53410550000262,99.53872260000207,99.54982729999756,99.54982729999756,99.54982729999756,102.53467419999652,j,1.358436200011056,0.16804389999015257,102.53482089999306,102.53486400000111,None,102.54967320000287,102.54967320000287,102.54967320000287,,,,,,,,,,,,,,,,,,,,,,,,,,,,,,,,,,,00020,001,2026-01-20_16h14.02.894,MST_task,2024.2.0,59.7236705203345,2026-01-20 16h14.17.842730 +0530,
,,,,,,,,,,,,,,,,,,,,,,,,,,,,,,,,,,,,,,,,,,,,,,,,,,,,,,,,,,,,,,102.53500639999402,102.54967320000287,102.54967320000287,120.4516772999923,space,17.89471130000311,None,,,,,,,,,,,,,,,,,,,,,,,,,,,,00020,001,2026-01-20_16h14.02.894,MST_task,2024.2.0,59.7236705203345,2026-01-20 16h14.17.842730 +0530,
,Scenes\171a.jpg,0,0,1,,,,,f,0.8347544999996899,0.16765689999738242,None,,,,,,1,0,0,120.46659229999932,,,,,,,,,,,,,,,,,,,,,,,120.45385869999882,120.46659229999932,120.97751250000147,120.9508899999928,,,,,,,,,,,,,,,,,,,,,,120.97274800000014,120.97751250000147,120.97751250000147,120.97751250000147,123.96690240000316,f,0.8347544999996899,0.16765689999738242,123.97273019999557,123.97277710000344,None,,,,,,,,,,,,,,,,,00020,001,2026-01-20_16h14.02.894,MST_task,2024.2.0,59.7236705203345,2026-01-20 16h14.17.842730 +0530,
,Scenes\185a.jpg,1,0,2,,,,,j,1.5062034000002313,0.25634579999314155,None,,,,,,2,0,1,123.98303259999375,,,,,,,,,,,,,,,,,,,,,,,123.97300680000626,123.98303259999375,124.48966769999242,124.46723680000287,,,,,,,,,,,,,,,,,,,,,,124.48632070000167,124.48966769999242,124.48966769999242,124.48966769999242,127.48336919999565,j,1.5062034000002313,0.25634579999314155,127.48362929999712,127.48369449999882,None,,,,,,,,,,,,,,,,,00020,001,2026-01-20_16h14.02.894,MST_task,2024.2.0,59.7236705203345,2026-01-20 16h14.17.842730 +0530,
,Scenes\050a.jpg,2,0,3,,,,,j,1.1008817999972962,0.17586740000115242,None,,,,,,3,0,2,127.49970739999844,,,,,,,,,,,,,,,,,,,,,,,127.48400909999327,127.49970739999844,128.03103779999947,127.98426909999398,,,,,,,,,,,,,,,,,,,,,,128.0279287000012,128.03103779999947,128.03103779999947,128.03103779999947,131.00016219999816,j,1.1008817999972962,0.17586740000115242,131.0003774999932,131.00044249999337,None,,,,,,,,,,,,,,,,,00020,001,2026-01-20_16h14.02.894,MST_task,2024.2.0,59.7236705203345,2026-01-20 16h14.17.842730 +0530,
,Scenes\101a.jpg,3,0,4,,,,,j,1.8672633999958634,0.17545690000406466,None,,,,,,4,0,3,131.0164933000051,,,,,,,,,,,,,,,,,,,,,,,131.00083740000264,131.0164933000051,131.544739200006,131.50088799999503,,,,,,,,,,,,,,,,,,,,,,131.54167079999752,131.544739200006,131.544739200006,131.544739200006,134.51774909999222,j,1.8672633999958634,0.17545690000406466,134.51794209999207,134.51798140000028,None,,,,,,,,,,,,,,,,,00020,001,2026-01-20_16h14.02.894,MST_task,2024.2.0,59.7236705203345,2026-01-20 16h14.17.842730 +0530,
,Scenes\029a.jpg,4,0,5,,,,,j,1.9509646999940742,0.1530442000075709,None,,,,,,5,0,4,134.53304949999438,,,,,,,,,,,,,,,,,,,,,,,134.51817529999244,134.53304949999438,135.03627359999518,135.01725570000417,,,,,,,,,,,,,,,,,,,,,,135.03272960000322,135.03627359999518,135.03627359999518,135.03627359999518,138.03327070000523,j,1.9509646999940742,0.1530442000075709,138.0334135000012,138.03345299999637,None,,,,,,,,,,,,,,,,,00020,001,2026-01-20_16h14.02.894,MST_task,2024.2.0,59.7236705203345,2026-01-20 16h14.17.842730 +0530,
,Scenes\124a.jpg,5,0,6,,,,,j,1.7012175999989267,0.2004023000044981,None,,,,,,6,0,5,138.04961449999246,,,,,,,,,,,,,,,,,,,,,,,138.03369840000232,138.04961449999246,138.5502584999922,138.53424110000196,,,,,,,,,,,,,,,,,,,,,,138.54740710000624,138.5502584999922,138.5502584999922,138.5502584999922,141.53367590000562,j,1.7012175999989267,0.2004023000044981,141.53386189999583,141.53390330000548,None,,,,,,,,,,,,,,,,,00020,001,2026-01-20_16h14.02.894,MST_task,2024.2.0,59.7236705203345,2026-01-20 16h14.17.842730 +0530,
,Scenes\046a.jpg,6,0,7,,,,,j,1.8522038999944925,0.15851819999807049,None,,,,,,7,0,6,141.54976039999747,,,,,,,,,,,,,,,,,,,,,,,141.53416049999942,141.54976039999747,142.05665769999905,142.03431669999554,,,,,,,,,,,,,,,,,,,,,,142.05326590000186,142.05665769999905,142.05665769999905,142.05665769999905,145.05102729999635,j,1.8522038999944925,0.15851819999807049,145.0511864,145.05122359999223,None,,,,,,,,,,,,,,,,,00020,001,2026-01-20_16h14.02.894,MST_task,2024.2.0,59.7236705203345,2026-01-20 16h14.17.842730 +0530,
,Objects\167a.jpg,7,0,8,,,,,f,1.1653827000118326,0.2155612999922596,None,,,,,,8,0,7,145.0663501999952,,,,,,,,,,,,,,,,,,,,,,,145.0514578000002,145.0663501999952,145.56680889999552,145.55070989999513,,,,,,,,,,,,,,,,,,,,,,145.55897359999653,145.56680889999552,145.56680889999552,145.56680889999552,148.55136490000586,f,1.1653827000118326,0.2155612999922596,148.5515924999927,148.5516260000004,None,148.5663285000046,148.5663285000046,148.5663285000046,,,,,,,,,,,,,,00020,001,2026-01-20_16h14.02.894,MST_task,2024.2.0,59.7236705203345,2026-01-20 16h14.17.842730 +0530,
,Objects\164a.jpg,8,0,9,,,,,f,2.176069199995254,0.22430300000996795,None,,,,,,9,0,8,148.5663285000046,,,,,,,,,,,,,,,,,,,,,,,148.55180210000253,148.5663285000046,149.06739549999475,149.0510998999962,,,,,,,,,,,,,,,,,,,,,,149.0570424000034,149.06739549999475,149.06739549999475,149.06739549999475,152.0664337000053,f,2.176069199995254,0.22430300000996795,152.06661110000277,152.0666590000037,None,,,,,,,,,,,,,,,,,00020,001,2026-01-20_16h14.02.894,MST_task,2024.2.0,59.7236705203345,2026-01-20 16h14.17.842730 +0530,
,Objects\004a.jpg,9,0,10,,,,,None,,,f,2.388186099997256,None,,,,10,0,9,152.08279060000496,,,,,,,,,,,,,,,,,,,,,,,152.06695140000375,152.08279060000496,152.5832717000012,152.56696250000095,,,,,,,,,,,,,,,,,,,,,,152.5706133000058,152.5832717000012,152.5832717000012,152.5832717000012,155.5676572999946,None,,,155.5678329999937,157.98484109999845,f,155.58365420000337,155.58365420000337,155.58365420000337,155.58365420000337,155.58365420000337,2.388186099997256,None,,,,,,,,,,00020,001,2026-01-20_16h14.02.894,MST_task,2024.2.0,59.7236705203345,2026-01-20 16h14.17.842730 +0530,
,Objects\184a.jpg,10,0,11,,,,,j,2.1839329000067664,0.09495260000403505,None,,,,,,11,0,10,157.99968700000318,,,,,,,,,,,,,,,,,,,,,,,157.98508610000135,157.99968700000318,158.50038029999996,158.48329319999903,,,,,,,,,,,,,,,,,,,,,,158.49269970000023,158.50038029999996,158.50038029999996,158.50038029999996,161.48466210000333,j,2.1839329000067664,0.09495260000403505,161.48489110000082,161.48495489999186,None,161.49967210000614,161.49967210000614,161.49967210000614,,,,,,,,,,,,,,00020,001,2026-01-20_16h14.02.894,MST_task,2024.2.0,59.7236705203345,2026-01-20 16h14.17.842730 +0530,
,Objects\046a.jpg,11,0,12,,,,,f,1.5638355999981286,0.1443559000035748,None,,,,,,12,0,11,161.49967210000614,,,,,,,,,,,,,,,,,,,,,,,161.48535289999563,161.49967210000614,161.99991100000625,161.98415479999676,,,,,,,,,,,,,,,,,,,,,,161.99001039999712,161.99991100000625,161.99991100000625,161.99991100000625,164.9849608999939,f,1.5638355999981286,0.1443559000035748,164.985107600005,164.9851381000044,None,164.99968359999184,164.99968359999184,164.99968359999184,,,,,,,,,,,,,,00020,001,2026-01-20_16h14.02.894,MST_task,2024.2.0,59.7236705203345,2026-01-20 16h14.17.842730 +0530,
,Objects\027a.jpg,12,0,13,,,,,f,0.7192836000031093,0.12910780000675004,None,,,,,,13,0,12,164.99968359999184,,,,,,,,,,,,,,,,,,,,,,,164.98529070000222,164.99968359999184,165.49981789999583,165.4844424000039,,,,,,,,,,,,,,,,,,,,,,165.48936320000212,165.49981789999583,165.49981789999583,165.49981789999583,168.48489880000125,f,0.7192836000031093,0.12910780000675004,168.48507910000626,168.48512060000212,None,168.4996206999931,168.4996206999931,168.4996206999931,,,,,,,,,,,,,,00020,001,2026-01-20_16h14.02.894,MST_task,2024.2.0,59.7236705203345,2026-01-20 16h14.17.842730 +0530,
,Objects\091a.jpg,13,0,14,,,,,j,1.476345200004289,0.19089169999642763,None,,,,,,14,0,13,168.4996206999931,,,,,,,,,,,,,,,,,,,,,,,168.48541809999733,168.4996206999931,168.99988879999728,168.98402809999243,,,,,,,,,,,,,,,,,,,,,,168.9922513000056,168.99988879999728,168.99988879999728,168.99988879999728,171.98487610000302,j,1.476345200004289,0.19089169999642763,171.98513839999214,171.98518210000475,None,171.99964919999184,171.99964919999184,171.99964919999184,,,,,,,,,,,,,,00020,001,2026-01-20_16h14.02.894,MST_task,2024.2.0,59.7236705203345,2026-01-20 16h14.17.842730 +0530,
,Scenes\074a.jpg,14,0,15,,,,,j,0.8803101000085007,0.1514556000038283,None,,,,,,15,0,14,171.99964919999184,,,,,,,,,,,,,,,,,,,,,,,171.9854650000052,171.99964919999184,172.50024629999825,172.48364890000084,,,,,,,,,,,,,,,,,,,,,,172.49522179999622,172.50024629999825,172.50024629999825,172.50024629999825,175.4849991999945,j,0.8803101000085007,0.1514556000038283,175.4852482999995,175.48528459999943,None,175.49967819999438,175.49967819999438,175.49967819999438,,,,,,,,,,,,,,00020,001,2026-01-20_16h14.02.894,MST_task,2024.2.0,59.7236705203345,2026-01-20 16h14.17.842730 +0530,
,Scenes\173a.jpg,15,0,16,,,,,j,0.6920079999981681,0.16788830001314636,None,,,,,,16,0,15,175.49967819999438,,,,,,,,,,,,,,,,,,,,,,,175.48552960000234,175.49967819999438,176.00015269999858,175.98399290000089,,,,,,,,,,,,,,,,,,,,,,175.9971368999977,176.00015269999858,176.00015269999858,176.00015269999858,178.9854364000057,j,0.6920079999981681,0.16788830001314636,178.98561709999922,178.9856615000026,None,178.99960510000528,178.99960510000528,178.99960510000528,,,,,,,,,,,,,,00020,001,2026-01-20_16h14.02.894,MST_task,2024.2.0,59.7236705203345,2026-01-20 16h14.17.842730 +0530,
,Scenes\027a.jpg,16,0,17,,,,,f,1.351561200004653,0.14447060000384226,None,,,,,,17,0,16,178.99960510000528,,,,,,,,,,,,,,,,,,,,,,,178.98589070000162,178.99960510000528,179.5002686999942,179.483879899999,,,,,,,,,,,,,,,,,,,,,,179.49726259999443,179.5002686999942,179.5002686999942,179.5002686999942,182.48428639999474,f,1.351561200004653,0.14447060000384226,182.48435109999264,182.48436519999814,None,182.4998642999999,182.4998642999999,182.4998642999999,,,,,,,,,,,,,,00020,001,2026-01-20_16h14.02.894,MST_task,2024.2.0,59.7236705203345,2026-01-20 16h14.17.842730 +0530,
,Scenes\025a.jpg,17,0,18,,,,,j,0.8011701999930665,0.16786529999808408,None,,,,,,18,0,17,182.4998642999999,,,,,,,,,,,,,,,,,,,,,,,182.48444299999392,182.4998642999999,183.042380400002,182.9840067000041,,,,,,,,,,,,,,,,,,,,,,183.039351600004,183.042380400002,183.042380400002,183.042380400002,186.00009050000517,j,0.8011701999930665,0.16786529999808408,186.00024480000138,186.00028629999724,None,,,,,,,,,,,,,,,,,00020,001,2026-01-20_16h14.02.894,MST_task,2024.2.0,59.7236705203345,2026-01-20 16h14.17.842730 +0530,
,Scenes\164a.jpg,18,0,19,,,,,j,0.8135110000002896,0.18325889999687206,None,,,,,,19,0,18,186.0162588999956,,,,,,,,,,,,,,,,,,,,,,,186.00049320000107,186.0162588999956,186.51900190000015,186.50127609999618,,,,,,,,,,,,,,,,,,,,,,186.51549209999212,186.51900190000015,186.51900190000015,186.51900190000015,189.51670900000317,j,0.8135110000002896,0.18325889999687206,189.51692270000058,189.51698600000236,None,,,,,,,,,,,,,,,,,00020,001,2026-01-20_16h14.02.894,MST_task,2024.2.0,59.7236705203345,2026-01-20 16h14.17.842730 +0530,
,Scenes\139a.jpg,19,0,20,,,,,j,0.9060663999989629,0.255934700006037,None,,,,,,20,0,19,189.5330294000014,,,,,,,,,,,,,,,,,,,,,,,189.51721649999672,189.5330294000014,190.03392440000607,190.01745830000436,,,,,,,,,,,,,,,,,,,,,,190.03029320000496,190.03392440000607,190.03392440000607,190.03392440000607,193.01832329999888,j,0.9060663999989629,0.255934700006037,193.01847310000448,193.01853509999637,None,193.03311580000445,193.03311580000445,193.03311580000445,,,,,,,,,,,,,,00020,001,2026-01-20_16h14.02.894,MST_task,2024.2.0,59.7236705203345,2026-01-20 16h14.17.842730 +0530,
,Scenes\117a.jpg,20,0,21,,,,,j,1.5500733999942895,0.19245250000676606,None,,,,,,21,0,20,193.03311580000445,,,,,,,,,,,,,,,,,,,,,,,193.01892059999227,193.03311580000445,193.53329920000397,193.5178780999995,,,,,,,,,,,,,,,,,,,,,,193.52998310000112,193.53329920000397,193.53329920000397,193.53329920000397,196.5181878000003,j,1.5500733999942895,0.19245250000676606,196.518324699995,196.51840000000084,None,196.53364229999715,196.53364229999715,196.53364229999715,,,,,,,,,,,,,,00020,001,2026-01-20_16h14.02.894,MST_task,2024.2.0,59.7236705203345,2026-01-20 16h14.17.842730 +0530,
,Objects\041a.jpg,21,0,22,,,,,j,1.009289900001022,0.16100310000183526,None,,,,,,22,0,21,196.53364229999715,,,,,,,,,,,,,,,,,,,,,,,196.5188244000019,196.53364229999715,197.03373549999378,197.0175922000053,,,,,,,,,,,,,,,,,,,,,,197.02383859999827,197.03373549999378,197.03373549999378,197.03373549999378,200.0186224999925,j,1.009289900001022,0.16100310000183526,200.0188780000026,200.0189398999937,None,200.03321100000176,200.03321100000176,200.03321100000176,,,,,,,,,,,,,,00020,001,2026-01-20_16h14.02.894,MST_task,2024.2.0,59.7236705203345,2026-01-20 16h14.17.842730 +0530,
,Objects\162a.jpg,22,0,23,,,,,f,1.27845850000449,0.1682810999918729,None,,,,,,23,0,22,200.03321100000176,,,,,,,,,,,,,,,,,,,,,,,200.01933850000205,200.03321100000176,200.5333571999945,200.51744609999878,,,,,,,,,,,,,,,,,,,,,,200.52580259999377,200.5333571999945,200.5333571999945,200.5333571999945,203.5181816999975,f,1.27845850000449,0.1682810999918729,203.51832410000497,203.51839470000414,None,203.53312130000268,203.53312130000268,203.53312130000268,,,,,,,,,,,,,,00020,001,2026-01-20_16h14.02.894,MST_task,2024.2.0,59.7236705203345,2026-01-20 16h14.17.842730 +0530,
,Objects\099a.jpg,23,0,24,,,,,f,1.9467341999989003,0.19106349999492522,None,,,,,,24,0,23,203.53312130000268,,,,,,,,,,,,,,,,,,,,,,,203.51872360000561,203.53312130000268,204.03324540000176,204.01734969999234,,,,,,,,,,,,,,,,,,,,,,204.02574800000002,204.03324540000176,204.03324540000176,204.03324540000176,207.0184922000044,f,1.9467341999989003,0.19106349999492522,207.01872239999648,207.01875570000266,None,207.03324869999778,207.03324869999778,207.03324869999778,,,,,,,,,,,,,,00020,001,2026-01-20_16h14.02.894,MST_task,2024.2.0,59.7236705203345,2026-01-20 16h14.17.842730 +0530,
,Objects\143a.jpg,24,0,25,,,,,j,2.8323941999988165,None,None,,,,,,25,0,24,207.03324869999778,,,,,,,,,,,,,,,,,,,,,,,207.01893609999388,207.03324869999778,207.54665709999972,207.5172373999958,,,,,,,,,,,,,,,,,,,,,,207.54320440000447,207.54665709999972,207.54665709999972,207.54665709999972,210.53360369999427,j,2.8323941999988165,None,210.53375909999886,210.53380200000538,None,,,,,,,,,,,,,,,,,00020,001,2026-01-20_16h14.02.894,MST_task,2024.2.0,59.7236705203345,2026-01-20 16h14.17.842730 +0530,
,Objects\011a.jpg,25,0,26,,,,,f,2.898601900000358,None,None,,,,,,26,0,25,210.54988229999435,,,,,,,,,,,,,,,,,,,,,,,210.5340256000054,210.54988229999435,211.0497897000023,211.03428130000248,,,,,,,,,,,,,,,,,,,,,,211.04033619999245,211.0497897000023,211.0497897000023,211.0497897000023,214.03451300000597,f,2.898601900000358,None,214.03463270000066,214.0346978000016,None,214.04985820000002,214.04985820000002,214.04985820000002,,,,,,,,,,,,,,00020,001,2026-01-20_16h14.02.894,MST_task,2024.2.0,59.7236705203345,2026-01-20 16h14.17.842730 +0530,
,Objects\072a.jpg,26,0,27,,,,,f,1.6063258000067435,0.12690119999751914,None,,,,,,27,0,26,214.04985820000002,,,,,,,,,,,,,,,,,,,,,,,214.0350072000001,214.04985820000002,214.54997300000105,214.5340489999944,,,,,,,,,,,,,,,,,,,,,,214.5405163999967,214.54997300000105,214.54997300000105,214.54997300000105,217.53457699999854,f,1.6063258000067435,0.12690119999751914,217.53470289999677,217.53473420000228,None,217.54998359999445,217.54998359999445,217.54998359999445,,,,,,,,,,,,,,00020,001,2026-01-20_16h14.02.894,MST_task,2024.2.0,59.7236705203345,2026-01-20 16h14.17.842730 +0530,
,Objects\180a.jpg,27,0,28,,,,,f,0.8416950000100769,0.1438019999914104,None,,,,,,28,0,27,217.54998359999445,,,,,,,,,,,,,,,,,,,,,,,217.53489850000187,217.54998359999445,218.05005789999268,218.03396729999804,,,,,,,,,,,,,,,,,,,,,,218.04261410000618,218.05005789999268,218.05005789999268,218.05005789999268,221.034373100003,f,0.8416950000100769,0.1438019999914104,221.0345010000019,221.03453340000124,None,221.04968219999864,221.04968219999864,221.04968219999864,,,,,,,,,,,,,,00020,001,2026-01-20_16h14.02.894,MST_task,2024.2.0,59.7236705203345,2026-01-20 16h14.17.842730 +0530,
,Scenes\170a.jpg,28,0,29,,,,,j,1.3080281000002287,0.14392199998837896,None,,,,,,29,0,28,221.04968219999864,,,,,,,,,,,,,,,,,,,,,,,221.0347025999945,221.04968219999864,221.55150010000216,221.53412399999797,,,,,,,,,,,,,,,,,,,,,,221.54868900000292,221.55150010000216,221.55150010000216,221.55150010000216,224.5506682999985,j,1.3080281000002287,0.14392199998837896,224.5509100000054,224.55097280000336,None,,,,,,,,,,,,,,,,,00020,001,2026-01-20_16h14.02.894,MST_task,2024.2.0,59.7236705203345,2026-01-20 16h14.17.842730 +0530,
,Scenes\137a.jpg,29,0,30,,,,,j,0.7379536000080407,0.16809769999235868,None,,,,,,30,0,29,224.56618130000425,,,,,,,,,,,,,,,,,,,,,,,224.5512938000029,224.56618130000425,225.09703360000276,225.05087340000318,,,,,,,,,,,,,,,,,,,,,,225.0937608999957,225.09703360000276,225.09703360000276,225.09703360000276,228.066624900006,j,0.7379536000080407,0.16809769999235868,228.06675529999484,228.06679139999324,None,,,,,,,,,,,,,,,,,00020,001,2026-01-20_16h14.02.894,MST_task,2024.2.0,59.7236705203345,2026-01-20 16h14.17.842730 +0530,
,Scenes\044a.jpg,30,0,31,,,,,j,2.243348399992101,0.17595190000429284,None,,,,,,31,0,30,228.0835447999998,,,,,,,,,,,,,,,,,,,,,,,228.0670323999948,228.0835447999998,228.58368510000582,228.56719349999912,,,,,,,,,,,,,,,,,,,,,,228.57828630000586,228.58368510000582,228.58368510000582,228.58368510000582,231.5677410000062,j,2.243348399992101,0.17595190000429284,231.5678498000052,231.56787630000326,None,231.58306299999822,231.58306299999822,231.58306299999822,,,,,,,,,,,,,,00020,001,2026-01-20_16h14.02.894,MST_task,2024.2.0,59.7236705203345,2026-01-20 16h14.17.842730 +0530,
,Scenes\002a.jpg,31,0,32,,,,,j,1.0352278000063961,0.17591299999912735,None,,,,,,32,0,31,231.58306299999822,,,,,,,,,,,,,,,,,,,,,,,231.56803229999787,231.58306299999822,232.08906499999284,232.067340900001,,,,,,,,,,,,,,,,,,,,,,232.0855620999937,232.08906499999284,232.08906499999284,232.08906499999284,235.083830699994,j,1.0352278000063961,0.17591299999912735,235.08403189999808,235.08407860000443,None,,,,,,,,,,,,,,,,,00020,001,2026-01-20_16h14.02.894,MST_task,2024.2.0,59.7236705203345,2026-01-20 16h14.17.842730 +0530,
,Scenes\138a.jpg,32,0,33,,,,,j,1.6827958000067156,0.16743119999591727,None,,,,,,33,0,32,235.0997728999937,,,,,,,,,,,,,,,,,,,,,,,235.08438159999787,235.0997728999937,235.60081419999187,235.5842174999998,,,,,,,,,,,,,,,,,,,,,,235.59522269999434,235.60081419999187,235.60081419999187,235.60081419999187,238.58482819999335,j,1.6827958000067156,0.16743119999591727,238.58501290000277,238.5850458000059,None,238.59967840000172,238.59967840000172,238.59967840000172,,,,,,,,,,,,,,00020,001,2026-01-20_16h14.02.894,MST_task,2024.2.0,59.7236705203345,2026-01-20 16h14.17.842730 +0530,
,Scenes\159a.jpg,33,0,34,,,,,j,1.1850364999991143,0.16862850000325125,None,,,,,,34,0,33,238.59967840000172,,,,,,,,,,,,,,,,,,,,,,,238.58543819999613,238.59967840000172,239.10627229999227,239.0844259000005,,,,,,,,,,,,,,,,,,,,,,239.1032794000057,239.10627229999227,239.10627229999227,239.10627229999227,242.1003037000046,j,1.1850364999991143,0.16862850000325125,242.10053569999582,242.10057549999328,None,,,,,,,,,,,,,,,,,00020,001,2026-01-20_16h14.02.894,MST_task,2024.2.0,59.7236705203345,2026-01-20 16h14.17.842730 +0530,
,Scenes\024a.jpg,34,0,35,,,,,j,0.7755972000013571,0.16012400000181515,None,,,,,,35,0,34,242.1163166000042,,,,,,,,,,,,,,,,,,,,,,,242.1008398999984,242.1163166000042,242.6597807999933,242.60072040000523,,,,,,,,,,,,,,,,,,,,,,242.6563829999941,242.6597807999933,242.6597807999933,242.6597807999933,245.61693590000505,j,0.7755972000013571,0.16012400000181515,245.61708719999297,245.61712029999762,None,,,,,,,,,,,,,,,,,00020,001,2026-01-20_16h14.02.894,MST_task,2024.2.0,59.7236705203345,2026-01-20 16h14.17.842730 +0530,
,Objects\028a.jpg,35,0,36,,,,,f,1.3831171000056202,0.15950290000182576,None,,,,,,36,0,35,245.63299579999875,,,,,,,,,,,,,,,,,,,,,,,245.61733330000425,245.63299579999875,246.13345090000075,246.11737219999486,,,,,,,,,,,,,,,,,,,,,,246.127593600002,246.13345090000075,246.13345090000075,246.13345090000075,249.11808830000518,f,1.3831171000056202,0.15950290000182576,249.11831409999286,249.11837519999244,None,249.13301249999495,249.13301249999495,249.13301249999495,,,,,,,,,,,,,,00020,001,2026-01-20_16h14.02.894,MST_task,2024.2.0,59.7236705203345,2026-01-20 16h14.17.842730 +0530,
,Objects\057a.jpg,36,0,37,,,,,None,,,f,0.626081599999452,None,,,,37,0,36,249.13301249999495,,,,,,,,,,,,,,,,,,,,,,,249.11878360000264,249.13301249999495,249.7334220000048,249.61756949999835,,,,,,,,,,,,,,,,,,,,,,249.73034009999537,249.7334220000048,249.7334220000048,249.7334220000048,252.63376729999436,None,,,252.63394840000547,253.28479229999357,f,,,,252.64998279999418,252.64998279999418,0.626081599999452,None,,,,,,,,,,00020,001,2026-01-20_16h14.02.894,MST_task,2024.2.0,59.7236705203345,2026-01-20 16h14.17.842730 +0530,
,Objects\039a.jpg,37,0,38,,,,,j,1.139396200000192,0.14325239999743644,None,,,,,,38,0,37,253.29971599999408,,,,,,,,,,,,,,,,,,,,,,,253.28504129999783,253.29971599999408,253.81693149999774,253.78396359999897,,,,,,,,,,,,,,,,,,,,,,253.81382670000312,253.81693149999774,253.81693149999774,253.81693149999774,256.800044100004,j,1.139396200000192,0.14325239999743644,256.80019140000513,256.8002287999989,None,,,,,,,,,,,,,,,,,00020,001,2026-01-20_16h14.02.894,MST_task,2024.2.0,59.7236705203345,2026-01-20 16h14.17.842730 +0530,
,Objects\053a.jpg,38,0,39,,,,,f,1.4549524000030942,0.18439340000622906,None,,,,,,39,0,38,256.8162258999946,,,,,,,,,,,,,,,,,,,,,,,256.80047499999637,256.8162258999946,257.31725029999507,257.3008126000059,,,,,,,,,,,,,,,,,,,,,,257.307301199995,257.31725029999507,257.31725029999507,257.31725029999507,260.30171359999804,f,1.4549524000030942,0.18439340000622906,260.30187979999755,260.301942399994,None,260.3163976999931,260.3163976999931,260.3163976999931,,,,,,,,,,,,,,00020,001,2026-01-20_16h14.02.894,MST_task,2024.2.0,59.7236705203345,2026-01-20 16h14.17.842730 +0530,
,Objects\049a.jpg,39,0,40,,,,,f,2.53164580000157,0.11882199998944998,None,,,,,,40,0,39,260.3163976999931,,,,,,,,,,,,,,,,,,,,,,,260.30233579999185,260.3163976999931,260.81665330000396,260.8018149999989,,,,,,,,,,,,,,,,,,,,,,260.8095825000055,260.81665330000396,260.81665330000396,260.81665330000396,263.80134309999994,f,2.53164580000157,0.11882199998944998,263.8015551999997,263.8016183,None,263.816075499999,263.816075499999,263.816075499999,,,,,,,,,,,,,,00020,001,2026-01-20_16h14.02.894,MST_task,2024.2.0,59.7236705203345,2026-01-20 16h14.17.842730 +0530,
,Objects\015a.jpg,40,0,41,,,,,j,0.8304808999964735,0.16710069999680854,None,,,,,,41,0,40,263.816075499999,,,,,,,,,,,,,,,,,,,,,,,263.801827400006,263.816075499999,264.350423099997,264.30094040000404,,,,,,,,,,,,,,,,,,,,,,264.3474828000035,264.350423099997,264.350423099997,264.350423099997,267.31678769999417,j,0.8304808999964735,0.16710069999680854,267.31700130000536,267.3170675000001,None,,,,,,,,,,,,,,,,,00020,001,2026-01-20_16h14.02.894,MST_task,2024.2.0,59.7236705203345,2026-01-20 16h14.17.842730 +0530,
,Objects\097a.jpg,41,0,42,,,,,j,0.8504118999990169,0.13533160000224598,None,,,,,,42,0,41,267.3331498000043,,,,,,,,,,,,,,,,,,,,,,,267.31737520000024,267.3331498000043,267.83315809999476,267.8176717000024,,,,,,,,,,,,,,,,,,,,,,267.82601859999704,267.83315809999476,267.83315809999476,267.83315809999476,270.81822719999764,j,0.8504118999990169,0.13533160000224598,270.818362799997,270.8183973999985,None,270.83332819999487,270.83332819999487,270.83332819999487,,,,,,,,,,,,,,00020,001,2026-01-20_16h14.02.894,MST_task,2024.2.0,59.7236705203345,2026-01-20 16h14.17.842730 +0530,
,Scenes\186a.jpg,42,0,43,,,,,None,,,j,0.15031650000310037,None,,,,43,0,42,270.83332819999487,,,,,,,,,,,,,,,,,,,,,,,270.8185764999944,270.83332819999487,271.3336199000041,271.31743840000127,,,,,,,,,,,,,,,,,,,,,,271.32701700000325,271.3336199000041,271.3336199000041,271.3336199000041,274.3182477999944,None,,,274.3184567999997,274.48502839999855,j,274.33299270000134,274.33299270000134,274.33299270000134,274.33299270000134,274.33299270000134,0.15031650000310037,None,,,,,,,,,,00020,001,2026-01-20_16h14.02.894,MST_task,2024.2.0,59.7236705203345,2026-01-20 16h14.17.842730 +0530,
,Scenes\073a.jpg,43,0,44,,,,,j,1.1706246999965515,0.14516850000654813,None,,,,,,44,0,43,274.4996184000047,,,,,,,,,,,,,,,,,,,,,,,274.48527370000375,274.4996184000047,275.0006830999919,274.98454910000146,,,,,,,,,,,,,,,,,,,,,,274.99546310000005,275.0006830999919,275.0006830999919,275.0006830999919,277.9848769999953,j,1.1706246999965515,0.14516850000654813,277.98501340000075,277.9850488999946,None,278.00033909999183,278.00033909999183,278.00033909999183,,,,,,,,,,,,,,00020,001,2026-01-20_16h14.02.894,MST_task,2024.2.0,59.7236705203345,2026-01-20 16h14.17.842730 +0530,
,Scenes\183a.jpg,44,0,45,,,,,f,1.3562034999922616,0.16789070000231732,None,,,,,,45,0,44,278.00033909999183,,,,,,,,,,,,,,,,,,,,,,,277.98527599999215,278.00033909999183,278.5271330999967,278.48445699999866,,,,,,,,,,,,,,,,,,,,,,278.5240252999938,278.5271330999967,278.5271330999967,278.5271330999967,281.5003132999991,f,1.3562034999922616,0.16789070000231732,281.5005133999948,281.5005553999945,None,,,,,,,,,,,,,,,,,00020,001,2026-01-20_16h14.02.894,MST_task,2024.2.0,59.7236705203345,2026-01-20 16h14.17.842730 +0530,
,Scenes\003a.jpg,45,0,46,,,,,j,0.8873135000030743,0.15976880000380334,None,,,,,,46,0,45,281.5163592000026,,,,,,,,,,,,,,,,,,,,,,,281.5008200000011,281.5163592000026,282.0527313000057,282.00076029999764,,,,,,,,,,,,,,,,,,,,,,282.0490929999942,282.0527313000057,282.0527313000057,282.0527313000057,285.01678049999464,j,0.8873135000030743,0.15976880000380334,285.0170306999935,285.01709429999755,None,,,,,,,,,,,,,,,,,00020,001,2026-01-20_16h14.02.894,MST_task,2024.2.0,59.7236705203345,2026-01-20 16h14.17.842730 +0530,
,Scenes\061a.jpg,46,0,47,,,,,j,1.7387348000047496,0.17608769999060314,None,,,,,,47,0,46,285.03299649999826,,,,,,,,,,,,,,,,,,,,,,,285.0174890000053,285.03299649999826,285.5613175000035,285.51769209999475,,,,,,,,,,,,,,,,,,,,,,285.5577839000034,285.5613175000035,285.5613175000035,285.5613175000035,288.5337154000008,j,1.7387348000047496,0.17608769999060314,288.53390619999846,288.5339534999948,None,,,,,,,,,,,,,,,,,00020,001,2026-01-20_16h14.02.894,MST_task,2024.2.0,59.7236705203345,2026-01-20 16h14.17.842730 +0530,
,Scenes\022a.jpg,47,0,48,,,,,j,2.0248985000071116,0.16894519999914337,None,,,,,,48,0,47,288.55050110000593,,,,,,,,,,,,,,,,,,,,,,,288.53425690000586,288.55050110000593,289.0503702999995,289.03416009999637,,,,,,,,,,,,,,,,,,,,,,289.0431108000048,289.0503702999995,289.0503702999995,289.0503702999995,292.03473820000363,j,2.0248985000071116,0.16894519999914337,292.0349655000027,292.03500370000256,None,292.0498440999945,292.0498440999945,292.0498440999945,,,,,,,,,,,,,,00020,001,2026-01-20_16h14.02.894,MST_task,2024.2.0,59.7236705203345,2026-01-20 16h14.17.842730 +0530,
,Scenes\018a.jpg,48,0,49,,,,,f,0.8770630000071833,0.2081383999902755,None,,,,,,49,0,48,292.0498440999945,,,,,,,,,,,,,,,,,,,,,,,292.0352535999991,292.0498440999945,292.5501468000002,292.5340228999994,,,,,,,,,,,,,,,,,,,,,,292.54633040000044,292.5501468000002,292.5501468000002,292.5501468000002,295.5351851000014,f,0.8770630000071833,0.2081383999902755,295.535412199999,295.53545579999627,None,295.54987339999934,295.54987339999934,295.54987339999934,,,,,,,,,,,,,,00020,001,2026-01-20_16h14.02.894,MST_task,2024.2.0,59.7236705203345,2026-01-20 16h14.17.842730 +0530,
,Objects\082a.jpg,49,0,50,,,,,f,1.4740559999918332,0.19982940000772942,None,,,,,,50,0,49,295.54987339999934,,,,,,,,,,,,,,,,,,,,,,,295.53567009999824,295.54987339999934,296.0504613999947,296.0343800999981,,,,,,,,,,,,,,,,,,,,,,296.04101889999583,296.0504613999947,296.0504613999947,296.0504613999947,299.03497730000527,f,1.4740559999918332,0.19982940000772942,299.0351712999982,299.03523409999616,None,299.04958869999973,299.04958869999973,299.04958869999973,,,,,,,,,,,,,,00020,001,2026-01-20_16h14.02.894,MST_task,2024.2.0,59.7236705203345,2026-01-20 16h14.17.842730 +0530,
,Objects\092a.jpg,50,0,51,,,,,j,2.388771700003417,0.15298680000705644,None,,,,,,51,0,50,299.04958869999973,,,,,,,,,,,,,,,,,,,,,,,299.0356483999931,299.04958869999973,299.55024409999896,299.53494549999596,,,,,,,,,,,,,,,,,,,,,,299.5435754999926,299.55024409999896,299.55024409999896,299.55024409999896,302.53467540000565,j,2.388771700003417,0.15298680000705644,302.53481589999865,302.5348464999988,None,302.5495591999934,302.5495591999934,302.5495591999934,,,,,,,,,,,,,,00020,001,2026-01-20_16h14.02.894,MST_task,2024.2.0,59.7236705203345,2026-01-20 16h14.17.842730 +0530,
,Objects\117a.jpg,51,0,52,,,,,j,1.9316828000009991,0.1268765999993775,None,,,,,,52,0,51,302.5495591999934,,,,,,,,,,,,,,,,,,,,,,,302.535057400004,302.5495591999934,303.06449239999347,303.0341378000012,,,,,,,,,,,,,,,,,,,,,,303.06141530000605,303.06449239999347,303.06449239999347,303.06449239999347,306.04996380000375,j,1.9316828000009991,0.1268765999993775,306.0501005999977,306.05013819999294,None,,,,,,,,,,,,,,,,,00020,001,2026-01-20_16h14.02.894,MST_task,2024.2.0,59.7236705203345,2026-01-20 16h14.17.842730 +0530,
,Objects\100a.jpg,52,0,53,,,,,f,1.164981900001294,0.21633969999675173,None,,,,,,53,0,52,306.0663782000047,,,,,,,,,,,,,,,,,,,,,,,306.05033040000126,306.0663782000047,306.56660120000015,306.55082689999836,,,,,,,,,,,,,,,,,,,,,,306.55644659999234,306.56660120000015,306.56660120000015,306.56660120000015,309.5515385000035,f,1.164981900001294,0.21633969999675173,309.551724200006,309.55175569999847,None,309.56625899999926,309.56625899999926,309.56625899999926,,,,,,,,,,,,,,00020,001,2026-01-20_16h14.02.894,MST_task,2024.2.0,59.7236705203345,2026-01-20 16h14.17.842730 +0530,
,Objects\113a.jpg,53,0,54,,,,,j,1.4618301000009524,0.17599170000175945,None,,,,,,54,0,53,309.56625899999926,,,,,,,,,,,,,,,,,,,,,,,309.55191249999916,309.56625899999926,310.0862214999943,310.05079229999683,,,,,,,,,,,,,,,,,,,,,,310.0828674999939,310.0862214999943,310.0862214999943,310.0862214999943,313.0669052000012,j,1.4618301000009524,0.17599170000175945,313.06704130000435,313.0670772000012,None,,,,,,,,,,,,,,,,,00020,001,2026-01-20_16h14.02.894,MST_task,2024.2.0,59.7236705203345,2026-01-20 16h14.17.842730 +0530,
,Objects\071a.jpg,54,0,55,,,,,f,1.664987599986489,0.19321920000948012,None,,,,,,55,0,54,313.08314030000474,,,,,,,,,,,,,,,,,,,,,,,313.0672588000016,313.08314030000474,313.6020569999964,313.5673842999968,,,,,,,,,,,,,,,,,,,,,,313.5988018999924,313.6020569999964,313.6020569999964,313.6020569999964,316.5832642000023,f,1.664987599986489,0.19321920000948012,316.58340089999547,316.5834388999938,None,,,,,,,,,,,,,,,,,00020,001,2026-01-20_16h14.02.894,MST_task,2024.2.0,59.7236705203345,2026-01-20 16h14.17.842730 +0530,
,Objects\096a.jpg,55,0,56,,,,,j,2.015912599992589,0.19235690000641625,None,,,,,,56,0,55,316.59996419999516,,,,,,,,,,,,,,,,,,,,,,,316.58367069999804,316.59996419999516,317.099787500003,317.0843423000042,,,,,,,,,,,,,,,,,,,,,,317.0932638999948,317.099787500003,317.099787500003,317.099787500003,320.0849980000057,j,2.015912599992589,0.19235690000641625,320.08521839999594,320.08527880000474,None,320.0997200999991,320.0997200999991,320.0997200999991,,,,,,,,,,,,,,00020,001,2026-01-20_16h14.02.894,MST_task,2024.2.0,59.7236705203345,2026-01-20 16h14.17.842730 +0530,
,Scenes\157a.jpg,56,0,57,,,,,None,,,j,1.8596986000047764,None,,,,57,0,56,320.0997200999991,,,,,,,,,,,,,,,,,,,,,,,320.08558430000267,320.0997200999991,320.6207099000021,320.5842105000047,,,,,,,,,,,,,,,,,,,,,,320.61776320000354,320.6207099000021,320.6207099000021,320.6207099000021,323.60023450000153,None,,,323.60035829999833,325.4849375000049,j,,,,323.6164134999999,323.6164134999999,1.8596986000047764,None,,,,,,,,,,00020,001,2026-01-20_16h14.02.894,MST_task,2024.2.0,59.7236705203345,2026-01-20 16h14.17.842730 +0530,
,Scenes\096a.jpg,57,0,58,,,,,j,1.2506493999972008,0.14389500000106636,None,,,,,,58,0,57,325.49980429999414,,,,,,,,,,,,,,,,,,,,,,,325.48537589999614,325.49980429999414,326.0003512999974,325.9841102999926,,,,,,,,,,,,,,,,,,,,,,325.99522250000155,326.0003512999974,326.0003512999974,326.0003512999974,328.9848025999963,j,1.2506493999972008,0.14389500000106636,328.98502569999255,328.98508830000355,None,328.9998693999951,328.9998693999951,328.9998693999951,,,,,,,,,,,,,,00020,001,2026-01-20_16h14.02.894,MST_task,2024.2.0,59.7236705203345,2026-01-20 16h14.17.842730 +0530,
,Scenes\174a.jpg,58,0,59,,,,,j,0.9535081999929389,0.1276789999974426,None,,,,,,59,0,58,328.9998693999951,,,,,,,,,,,,,,,,,,,,,,,328.98549579999235,328.9998693999951,329.5068750999926,329.4841529999976,,,,,,,,,,,,,,,,,,,,,,329.5026993999927,329.5068750999926,329.5068750999926,329.5068750999926,332.5001934000029,j,0.9535081999929389,0.1276789999974426,332.5003899000003,332.5004306000046,None,,,,,,,,,,,,,,,,,00020,001,2026-01-20_16h14.02.894,MST_task,2024.2.0,59.7236705203345,2026-01-20 16h14.17.842730 +0530,
,Scenes\176a.jpg,59,0,60,,,,,j,1.2871223000111058,0.12725419999333099,None,,,,,,60,0,59,332.5164483999979,,,,,,,,,,,,,,,,,,,,,,,332.5006330000033,332.5164483999979,333.0208532999968,333.0008908000018,,,,,,,,,,,,,,,,,,,,,,333.0179425999959,333.0208532999968,333.0208532999968,333.0208532999968,336.01681659999304,j,1.2871223000111058,0.12725419999333099,336.01692910000565,336.0169595000043,None,,,,,,,,,,,,,,,,,00020,001,2026-01-20_16h14.02.894,MST_task,2024.2.0,59.7236705203345,2026-01-20 16h14.17.842730 +0530,
,Scenes\121a.jpg,60,0,61,,,,,j,0.5415084999985993,0.09554260000004433,None,,,,,,61,0,60,336.03326569999626,,,,,,,,,,,,,,,,,,,,,,,336.01711509999586,336.03326569999626,336.5338667000033,336.51760300000024,,,,,,,,,,,,,,,,,,,,,,336.53116969999974,336.5338667000033,336.5338667000033,336.5338667000033,339.517113599999,j,0.5415084999985993,0.09554260000004433,339.5173324000061,339.51739599999564,None,,,,,,,,,,,,,,,,,00020,001,2026-01-20_16h14.02.894,MST_task,2024.2.0,59.7236705203345,2026-01-20 16h14.17.842730 +0530,
,Scenes\128a.jpg,61,0,62,,,,,j,0.9202691000100458,0.15192259999457747,None,,,,,,62,0,61,339.53306099999463,,,,,,,,,,,,,,,,,,,,,,,339.517809099998,339.53306099999463,340.0600642999925,340.0170865999971,,,,,,,,,,,,,,,,,,,,,,340.0561139999918,340.0600642999925,340.0600642999925,340.0600642999925,343.03367699999944,j,0.9202691000100458,0.15192259999457747,343.0338209000038,343.0338585999998,None,,,,,,,,,,,,,,,,,00020,001,2026-01-20_16h14.02.894,MST_task,2024.2.0,59.7236705203345,2026-01-20 16h14.17.842730 +0530,
,Scenes\182a.jpg,62,0,63,,,,,j,1.1247083000052953,0.17510639999818522,None,,,,,,63,0,62,343.04966689999856,,,,,,,,,,,,,,,,,,,,,,,343.03408870000567,343.04966689999856,343.55173150000337,343.5341389999958,,,,,,,,,,,,,,,,,,,,,,343.5474542000011,343.55173150000337,343.55173150000337,343.55173150000337,346.5504232999956,j,1.1247083000052953,0.17510639999818522,346.5506322000001,346.55067280000367,None,,,,,,,,,,,,,,,,,00020,001,2026-01-20_16h14.02.894,MST_task,2024.2.0,59.7236705203345,2026-01-20 16h14.17.842730 +0530,
,Objects\043a.jpg,63,0,64,,,,,f,2.47425359999761,0.08804780000355095,None,,,,,,64,0,63,346.5664445000002,,,,,,,,,,,,,,,,,,,,,,,346.5508675000019,346.5664445000002,347.1298798999924,347.0510082999972,,,,,,,,,,,,,,,,,,,,,,347.1268560000026,347.1298798999924,347.1298798999924,347.1298798999924,350.06708350000554,f,2.47425359999761,0.08804780000355095,350.067303200005,350.0673550999927,None,,,,,,,,,,,,,,,,,00020,001,2026-01-20_16h14.02.894,MST_task,2024.2.0,59.7236705203345,2026-01-20 16h14.17.842730 +0530,
,Objects\010a.jpg,64,0,65,,,,,f,1.194017800007714,0.14483499999914784,None,,,,,,65,0,64,350.0830242999946,,,,,,,,,,,,,,,,,,,,,,,350.06760749999376,350.0830242999946,350.59315879999485,350.56713840000157,,,,,,,,,,,,,,,,,,,,,,350.590240000005,350.59315879999485,350.59315879999485,350.59315879999485,353.58360990000074,f,1.194017800007714,0.14483499999914784,353.58381719999306,353.58387960000255,None,,,,,,,,,,,,,,,,,00020,001,2026-01-20_16h14.02.894,MST_task,2024.2.0,59.7236705203345,2026-01-20 16h14.17.842730 +0530,
,Objects\044a.jpg,65,0,66,,,,,f,2.805791599996155,0.14398500000243075,None,,,,,,66,0,65,353.5996684999991,,,,,,,,,,,,,,,,,,,,,,,353.58418609999353,353.5996684999991,354.1176904000022,354.0841611999931,,,,,,,,,,,,,,,,,,,,,,354.11413950000133,354.1176904000022,354.1176904000022,354.1176904000022,357.09989759999735,f,2.805791599996155,0.14398500000243075,357.10002680000616,357.1000581999979,None,,,,,,,,,,,,,,,,,00020,001,2026-01-20_16h14.02.894,MST_task,2024.2.0,59.7236705203345,2026-01-20 16h14.17.842730 +0530,
,Objects\080a.jpg,66,0,67,,,,,f,1.1945311999879777,0.09681450000789482,None,,,,,,67,0,66,357.1163755000016,,,,,,,,,,,,,,,,,,,,,,,357.10022360000585,357.1163755000016,357.6167618000036,357.60088850000466,,,,,,,,,,,,,,,,,,,,,,357.60697350000555,357.6167618000036,357.6167618000036,357.6167618000036,360.60023369999544,f,1.1945311999879777,0.09681450000789482,360.60040929999377,360.6004532999941,None,,,,,,,,,,,,,,,,,00020,001,2026-01-20_16h14.02.894,MST_task,2024.2.0,59.7236705203345,2026-01-20 16h14.17.842730 +0530,
,Objects\034a.jpg,67,0,68,,,,,f,0.9593131999863544,0.14477710000937805,None,,,,,,68,0,67,360.6165423999919,,,,,,,,,,,,,,,,,,,,,,,360.6006793999986,360.6165423999919,361.12394700000004,361.1008533999993,,,,,,,,,,,,,,,,,,,,,,361.1211079999921,361.12394700000004,361.12394700000004,361.12394700000004,364.1168905999948,f,0.9593131999863544,0.14477710000937805,364.1170437999972,364.11708779999753,None,,,,,,,,,,,,,,,,,00020,001,2026-01-20_16h14.02.894,MST_task,2024.2.0,59.7236705203345,2026-01-20 16h14.17.842730 +0530,
,Objects\075a.jpg,68,0,69,,,,,j,1.8658486000058474,0.15194109998992644,None,,,,,,69,0,68,364.1329737000051,,,,,,,,,,,,,,,,,,,,,,,364.11737160000484,364.1329737000051,364.633355900005,364.6175565000012,,,,,,,,,,,,,,,,,,,,,,364.62558540000464,364.633355900005,364.633355900005,364.633355900005,367.6179342999967,j,1.8658486000058474,0.15194109998992644,367.6181654999964,367.6182231999992,None,367.6329398999951,367.6329398999951,367.6329398999951,,,,,,,,,,,,,,00020,001,2026-01-20_16h14.02.894,MST_task,2024.2.0,59.7236705203345,2026-01-20 16h14.17.842730 +0530,
,Objects\115a.jpg,69,0,70,,,,,f,1.1878953999985242,0.1275249000027543,None,,,,,,70,0,69,367.6329398999951,,,,,,,,,,,,,,,,,,,,,,,367.61860380000144,367.6329398999951,368.1443431999942,368.1176533999969,,,,,,,,,,,,,,,,,,,,,,368.14129099999263,368.1443431999942,368.1443431999942,368.1443431999942,371.1337308999937,f,1.1878953999985242,0.1275249000027543,371.13394879999396,371.134012399998,None,,,,,,,,,,,,,,,,,00020,001,2026-01-20_16h14.02.894,MST_task,2024.2.0,59.7236705203345,2026-01-20 16h14.17.842730 +0530,
,Scenes\175a.jpg,70,0,71,,,,,j,1.2653204999951413,0.2324981999990996,None,,,,,,71,0,70,371.1497478999954,,,,,,,,,,,,,,,,,,,,,,,371.13461379999353,371.1497478999954,371.65024239999184,371.633854899992,,,,,,,,,,,,,,,,,,,,,,371.6463597999973,371.65024239999184,371.65024239999184,371.65024239999184,374.6351083000045,j,1.2653204999951413,0.2324981999990996,374.6353226999927,374.6353570999927,None,374.65041859999474,374.65041859999474,374.65041859999474,,,,,,,,,,,,,,00020,001,2026-01-20_16h14.02.894,MST_task,2024.2.0,59.7236705203345,2026-01-20 16h14.17.842730 +0530,
,Scenes\032a.jpg,71,0,72,,,,,j,0.9188466000050539,0.1749472999945283,None,,,,,,72,0,71,374.65041859999474,,,,,,,,,,,,,,,,,,,,,,,374.63553200000024,374.65041859999474,375.15706969999883,375.13422459999856,,,,,,,,,,,,,,,,,,,,,,375.1536887999973,375.15706969999883,375.15706969999883,375.15706969999883,378.1502029999974,j,0.9188466000050539,0.1749472999945283,378.15040689999296,378.150470099994,None,,,,,,,,,,,,,,,,,00020,001,2026-01-20_16h14.02.894,MST_task,2024.2.0,59.7236705203345,2026-01-20 16h14.17.842730 +0530,
,Scenes\155a.jpg,72,0,73,,,,,j,0.5743499999953201,0.09565000000293367,None,,,,,,73,0,72,378.16642619999766,,,,,,,,,,,,,,,,,,,,,,,378.15071010000247,378.16642619999766,378.669198100004,378.6512023999967,,,,,,,,,,,,,,,,,,,,,,378.66559309999866,378.669198100004,378.669198100004,378.669198100004,381.66695020000043,j,0.5743499999953201,0.09565000000293367,381.66714109999884,381.6671842999931,None,,,,,,,,,,,,,,,,,00020,001,2026-01-20_16h14.02.894,MST_task,2024.2.0,59.7236705203345,2026-01-20 16h14.17.842730 +0530,
,Scenes\191a.jpg,73,0,74,,,,,j,2.3506020000058925,0.1440805000020191,None,,,,,,74,0,73,381.68319789999805,,,,,,,,,,,,,,,,,,,,,,,381.66746549999516,381.68319789999805,382.2052127000061,382.167618499996,,,,,,,,,,,,,,,,,,,,,,382.20177030000195,382.2052127000061,382.2052127000061,382.2052127000061,385.1837078999961,j,2.3506020000058925,0.1440805000020191,385.18391910000355,385.18398159999924,None,,,,,,,,,,,,,,,,,00020,001,2026-01-20_16h14.02.894,MST_task,2024.2.0,59.7236705203345,2026-01-20 16h14.17.842730 +0530,
,Scenes\069a.jpg,74,0,75,,,,,j,1.0936426999978721,0.13625999999931082,None,,,,,,75,0,74,385.200121899994,,,,,,,,,,,,,,,,,,,,,,,385.1842300999997,385.200121899994,385.70238170000084,385.68474029999925,,,,,,,,,,,,,,,,,,,,,,385.69797059999837,385.70238170000084,385.70238170000084,385.70238170000084,388.7005191999924,j,1.0936426999978721,0.13625999999931082,388.7006549999933,388.7006929000054,None,,,,,,,,,,,,,,,,,00020,001,2026-01-20_16h14.02.894,MST_task,2024.2.0,59.7236705203345,2026-01-20 16h14.17.842730 +0530,
,Scenes\075a.jpg,75,0,76,,,,,j,1.099707400004263,0.1193516999919666,None,,,,,,76,0,75,388.7166605999955,,,,,,,,,,,,,,,,,,,,,,,388.7009343999962,388.7166605999955,389.21670319999976,389.2008069000003,,,,,,,,,,,,,,,,,,,,,,389.2129625999951,389.21670319999976,389.21670319999976,389.21670319999976,392.20136930000444,j,1.099707400004263,0.1193516999919666,392.20159100000456,392.2016255000053,None,392.2166309000022,392.2166309000022,392.2166309000022,,,,,,,,,,,,,,00020,001,2026-01-20_16h14.02.894,MST_task,2024.2.0,59.7236705203345,2026-01-20 16h14.17.842730 +0530,
,Scenes\052a.jpg,76,0,77,,,,,j,2.630874099995708,0.12855280000076164,None,,,,,,77,0,76,392.2166309000022,,,,,,,,,,,,,,,,,,,,,,,392.2018657000008,392.2166309000022,392.7485044999921,392.70144530000107,,,,,,,,,,,,,,,,,,,,,,392.74497719999636,392.7485044999921,392.7485044999921,392.7485044999921,395.717063300006,j,2.630874099995708,0.12855280000076164,395.7172003000014,395.7172397999966,None,,,,,,,,,,,,,,,,,00020,001,2026-01-20_16h14.02.894,MST_task,2024.2.0,59.7236705203345,2026-01-20 16h14.17.842730 +0530,
,Objects\083a.jpg,77,0,78,,,,,f,1.0492118999973172,0.13693110000167508,None,,,,,,78,0,77,395.7329461000045,,,,,,,,,,,,,,,,,,,,,,,395.7174309999973,395.7329461000045,396.2336565000005,396.2179788999929,,,,,,,,,,,,,,,,,,,,,,396.22642619999533,396.2336565000005,396.2336565000005,396.2336565000005,399.218117299999,f,1.0492118999973172,0.13693110000167508,399.2183546000015,399.2184147999942,None,399.2330623000016,399.2330623000016,399.2330623000016,,,,,,,,,,,,,,00020,001,2026-01-20_16h14.02.894,MST_task,2024.2.0,59.7236705203345,2026-01-20 16h14.17.842730 +0530,
,Objects\126a.jpg,78,0,79,,,,,j,2.3111846999963745,0.14343540000845678,None,,,,,,79,0,78,399.2330623000016,,,,,,,,,,,,,,,,,,,,,,,399.21873150000465,399.2330623000016,399.73323070000333,399.71826569999394,,,,,,,,,,,,,,,,,,,,,,399.7243206999992,399.73323070000333,399.73323070000333,399.73323070000333,402.7185097000038,j,2.3111846999963745,0.14343540000845678,402.7186764999933,402.718718499993,None,402.73316109999723,402.73316109999723,402.73316109999723,,,,,,,,,,,,,,00020,001,2026-01-20_16h14.02.894,MST_task,2024.2.0,59.7236705203345,2026-01-20 16h14.17.842730 +0530,
,Objects\002a.jpg,79,0,80,,,,,f,1.0909954999951879,0.14280060000601225,None,,,,,,80,0,79,402.73316109999723,,,,,,,,,,,,,,,,,,,,,,,402.7189356000017,402.73316109999723,403.2332963999943,403.2175620000053,,,,,,,,,,,,,,,,,,,,,,403.2232309999963,403.2332963999943,403.2332963999943,403.2332963999943,406.2184286999982,f,1.0909954999951879,0.14280060000601225,406.2186317000014,406.2186775000009,None,406.23332590000064,406.23332590000064,406.23332590000064,,,,,,,,,,,,,,00020,001,2026-01-20_16h14.02.894,MST_task,2024.2.0,59.7236705203345,2026-01-20 16h14.17.842730 +0530,
,Objects\128a.jpg,80,0,81,,,,,f,2.50174250001146,0.12006729999848176,None,,,,,,81,0,80,406.23332590000064,,,,,,,,,,,,,,,,,,,,,,,406.2189986000012,406.23332590000064,406.73318209999707,406.7173860000039,,,,,,,,,,,,,,,,,,,,,,406.7227821999986,406.73318209999707,406.73318209999707,406.73318209999707,409.7173913000006,f,2.50174250001146,0.12006729999848176,409.71745339999325,409.717467399998,None,409.7333213999955,409.7333213999955,409.7333213999955,,,,,,,,,,,,,,00020,001,2026-01-20_16h14.02.894,MST_task,2024.2.0,59.7236705203345,2026-01-20 16h14.17.842730 +0530,
,Objects\190a.jpg,81,0,82,,,,,f,1.9136809000046924,0.20047229999909177,None,,,,,,82,0,81,409.7333213999955,,,,,,,,,,,,,,,,,,,,,,,409.71754460000375,409.7333213999955,410.24995549999585,410.2175042000017,,,,,,,,,,,,,,,,,,,,,,410.24638139999297,410.24995549999585,410.24995549999585,410.24995549999585,413.23349009999947,f,1.9136809000046924,0.20047229999909177,413.233639500002,413.233682399994,None,,,,,,,,,,,,,,,,,00020,001,2026-01-20_16h14.02.894,MST_task,2024.2.0,59.7236705203345,2026-01-20 16h14.17.842730 +0530,
,Objects\022a.jpg,82,0,83,,,,,f,0.8220065000059549,0.14432330000272486,None,,,,,,83,0,82,413.2498348999943,,,,,,,,,,,,,,,,,,,,,,,413.2338951999991,413.2498348999943,413.7500310000032,413.7341615000041,,,,,,,,,,,,,,,,,,,,,,413.7415144999977,413.7500310000032,413.7500310000032,413.7500310000032,416.7347931999975,f,0.8220065000059549,0.14432330000272486,416.7349558999995,416.7349896999949,None,416.7498845999944,416.7498845999944,416.7498845999944,,,,,,,,,,,,,,00020,001,2026-01-20_16h14.02.894,MST_task,2024.2.0,59.7236705203345,2026-01-20 16h14.17.842730 +0530,
,Objects\003a.jpg,83,0,84,,,,,f,1.145152599987341,0.2081594000046607,None,,,,,,84,0,83,416.7498845999944,,,,,,,,,,,,,,,,,,,,,,,416.73516100000415,416.7498845999944,417.25009610000416,417.23401299999387,,,,,,,,,,,,,,,,,,,,,,417.23940859999857,417.25009610000416,417.25009610000416,417.25009610000416,420.2350069999957,f,1.145152599987341,0.2081594000046607,420.2352058999968,420.2352447000012,None,420.2498562999972,420.2498562999972,420.2498562999972,,,,,,,,,,,,,,00020,001,2026-01-20_16h14.02.894,MST_task,2024.2.0,59.7236705203345,2026-01-20 16h14.17.842730 +0530,
,Scenes\040a.jpg,84,0,85,,,,,f,2.2288898000115296,0.12002139999822248,None,,,,,,85,0,84,420.2498562999972,,,,,,,,,,,,,,,,,,,,,,,420.2354469999991,420.2498562999972,420.75127039999643,420.7341049999959,,,,,,,,,,,,,,,,,,,,,,420.74814049999986,420.75127039999643,420.75127039999643,420.75127039999643,423.7499680000037,f,2.2288898000115296,0.12002139999822248,423.7501257999975,423.7501623999997,None,,,,,,,,,,,,,,,,,00020,001,2026-01-20_16h14.02.894,MST_task,2024.2.0,59.7236705203345,2026-01-20 16h14.17.842730 +0530,
,Scenes\071a.jpg,85,0,86,,,,,j,0.9829002000042237,0.15318629999819677,None,,,,,,86,0,85,423.7665244999953,,,,,,,,,,,,,,,,,,,,,,,423.75039149999793,423.7665244999953,424.2679575999937,424.2509377999959,,,,,,,,,,,,,,,,,,,,,,424.2650455999974,424.2679575999937,424.2679575999937,424.2679575999937,427.26703329999873,j,0.9829002000042237,0.15318629999819677,427.267245199997,427.2673097999941,None,,,,,,,,,,,,,,,,,00020,001,2026-01-20_16h14.02.894,MST_task,2024.2.0,59.7236705203345,2026-01-20 16h14.17.842730 +0530,
,Scenes\014a.jpg,86,0,87,,,,,j,1.0515947999956552,0.16869320000114385,None,,,,,,87,0,86,427.2828637999919,,,,,,,,,,,,,,,,,,,,,,,427.26757219999854,427.2828637999919,427.78365060000215,427.7675007999933,,,,,,,,,,,,,,,,,,,,,,427.77614069999254,427.78365060000215,427.78365060000215,427.78365060000215,430.768244699997,j,1.0515947999956552,0.16869320000114385,430.7684827000048,430.76854390000517,None,430.78318689999287,430.78318689999287,430.78318689999287,,,,,,,,,,,,,,00020,001,2026-01-20_16h14.02.894,MST_task,2024.2.0,59.7236705203345,2026-01-20 16h14.17.842730 +0530,
,Scenes\080a.jpg,87,0,88,,,,,j,1.8393709000083618,0.17563779999909457,None,,,,,,88,0,87,430.78318689999287,,,,,,,,,,,,,,,,,,,,,,,430.76886979999836,430.78318689999287,431.2844139999943,431.2677563000034,,,,,,,,,,,,,,,,,,,,,,431.2813739999983,431.2844139999943,431.2844139999943,431.2844139999943,434.28338999999687,j,1.8393709000083618,0.17563779999909457,434.2835272999946,434.2835664000013,None,,,,,,,,,,,,,,,,,00020,001,2026-01-20_16h14.02.894,MST_task,2024.2.0,59.7236705203345,2026-01-20 16h14.17.842730 +0530,
,Scenes\085a.jpg,88,0,89,,,,,j,1.9221525000029942,0.15223760000662878,None,,,,,,89,0,88,434.29964309999195,,,,,,,,,,,,,,,,,,,,,,,434.28380930000276,434.29964309999195,434.8013421999931,434.784373100003,,,,,,,,,,,,,,,,,,,,,,434.7980884999997,434.8013421999931,434.8013421999931,434.8013421999931,437.8002409000037,j,1.9221525000029942,0.15223760000662878,437.8004282000038,437.80047279999417,None,,,,,,,,,,,,,,,,,00020,001,2026-01-20_16h14.02.894,MST_task,2024.2.0,59.7236705203345,2026-01-20 16h14.17.842730 +0530,
,Scenes\095a.jpg,89,0,90,,,,,j,2.061007800002699,0.14339250000193715,None,,,,,,90,0,89,437.8163593999925,,,,,,,,,,,,,,,,,,,,,,,437.8007565000007,437.8163593999925,438.31922970000596,438.30079079999996,,,,,,,,,,,,,,,,,,,,,,438.3148496999929,438.31922970000596,438.31922970000596,438.31922970000596,441.31679680000525,j,2.061007800002699,0.14339250000193715,441.31699999999546,441.31706430000486,None,,,,,,,,,,,,,,,,,00020,001,2026-01-20_16h14.02.894,MST_task,2024.2.0,59.7236705203345,2026-01-20 16h14.17.842730 +0530,
,Scenes\169a.jpg,90,0,91,,,,,j,2.089139999996405,0.12015300001075957,None,,,,,,91,0,90,441.3331432999985,,,,,,,,,,,,,,,,,,,,,,,441.3174494999985,441.3331432999985,441.83384880000085,441.8174977000017,,,,,,,,,,,,,,,,,,,,,,441.830185800005,441.83384880000085,441.83384880000085,441.83384880000085,444.81807929999195,j,2.089139999996405,0.12015300001075957,444.8182843999966,444.818314499993,None,444.833186200005,444.833186200005,444.833186200005,,,,,,,,,,,,,,00020,001,2026-01-20_16h14.02.894,MST_task,2024.2.0,59.7236705203345,2026-01-20 16h14.17.842730 +0530,
,Objects\079a.jpg,91,0,92,,,,,f,1.6056663999916054,0.13592790000257082,None,,,,,,92,0,91,444.833186200005,,,,,,,,,,,,,,,,,,,,,,,444.81846339999174,444.833186200005,445.3337257999956,445.31776599999284,,,,,,,,,,,,,,,,,,,,,,445.3267952000024,445.3337257999956,445.3337257999956,445.3337257999956,448.3181685000018,f,1.6056663999916054,0.13592790000257082,448.31829929999367,448.31833310000366,None,448.3329828999995,448.3329828999995,448.3329828999995,,,,,,,,,,,,,,00020,001,2026-01-20_16h14.02.894,MST_task,2024.2.0,59.7236705203345,2026-01-20 16h14.17.842730 +0530,
,Objects\158a.jpg,92,0,93,,,,,None,,,f,0.07385230000363663,None,,,,93,0,92,448.3329828999995,,,,,,,,,,,,,,,,,,,,,,,448.3185511000047,448.3329828999995,448.83325440000044,448.817618999994,,,,,,,,,,,,,,,,,,,,,,448.82332500000484,448.83325440000044,448.83325440000044,448.83325440000044,451.81788669999514,None,,,451.8180063000036,451.91880479999236,f,451.83302599999297,451.83302599999297,451.83302599999297,451.83302599999297,451.83302599999297,0.07385230000363663,None,,,,,,,,,,00020,001,2026-01-20_16h14.02.894,MST_task,2024.2.0,59.7236705203345,2026-01-20 16h14.17.842730 +0530,
,Objects\037a.jpg,93,0,94,,,,,f,1.4828627000097185,0.11874059999536257,None,,,,,,94,0,93,451.93300889999955,,,,,,,,,,,,,,,,,,,,,,,451.91921029999503,451.93300889999955,452.43326720000186,452.41742460000387,,,,,,,,,,,,,,,,,,,,,,452.42414709999866,452.43326720000186,452.43326720000186,452.43326720000186,455.41849009999714,f,1.4828627000097185,0.11874059999536257,455.4187480999972,455.4188109999959,None,455.4331194999977,455.4331194999977,455.4331194999977,,,,,,,,,,,,,,00020,001,2026-01-20_16h14.02.894,MST_task,2024.2.0,59.7236705203345,2026-01-20 16h14.17.842730 +0530,
,Objects\055a.jpg,94,0,95,,,,,f,2.573787999994238,0.16841420000127982,None,,,,,,95,0,94,455.4331194999977,,,,,,,,,,,,,,,,,,,,,,,455.41915499999595,455.4331194999977,455.93348429999605,455.9174265000038,,,,,,,,,,,,,,,,,,,,,,455.923386399998,455.93348429999605,455.93348429999605,455.93348429999605,458.9185503000044,f,2.573787999994238,0.16841420000127982,458.9187810000003,458.91881669999566,None,458.9334654999984,458.9334654999984,458.9334654999984,,,,,,,,,,,,,,00020,001,2026-01-20_16h14.02.894,MST_task,2024.2.0,59.7236705203345,2026-01-20 16h14.17.842730 +0530,
,Objects\111a.jpg,95,0,96,,,,,f,1.6820790999918245,0.16761330000008456,None,,,,,,96,0,95,458.9334654999984,,,,,,,,,,,,,,,,,,,,,,,458.9190044999996,458.9334654999984,459.4332418999984,459.41746240000066,,,,,,,,,,,,,,,,,,,,,,459.42379970000184,459.4332418999984,459.4332418999984,459.4332418999984,462.4182778999966,f,1.6820790999918245,0.16761330000008456,462.418468399992,462.4185085000063,None,462.43294590000005,462.43294590000005,462.43294590000005,,,,,,,,,,,,,,00020,001,2026-01-20_16h14.02.894,MST_task,2024.2.0,59.7236705203345,2026-01-20 16h14.17.842730 +0530,
,Objects\175a.jpg,96,0,97,,,,,f,2.245615700012422,0.14511990000028163,None,,,,,,97,0,96,462.43294590000005,,,,,,,,,,,,,,,,,,,,,,,462.41876640000555,462.43294590000005,462.93368600000395,462.91747460000624,,,,,,,,,,,,,,,,,,,,,,462.9229928999994,462.93368600000395,462.93368600000395,462.93368600000395,465.91827919999196,f,2.245615700012422,0.14511990000028163,465.9184912000055,465.91856499999994,None,465.93296399999235,465.93296399999235,465.93296399999235,,,,,,,,,,,,,,00020,001,2026-01-20_16h14.02.894,MST_task,2024.2.0,59.7236705203345,2026-01-20 16h14.17.842730 +0530,
,Objects\047a.jpg,97,0,98,,,,,f,1.5546128999994835,0.19211849999555852,None,,,,,,98,0,97,465.93296399999235,,,,,,,,,,,,,,,,,,,,,,,465.9187557999976,465.93296399999235,466.4571653000021,466.41755899999407,,,,,,,,,,,,,,,,,,,,,,466.4537768000009,466.4571653000021,466.4571653000021,466.4571653000021,469.43354589999944,f,1.5546128999994835,0.19211849999555852,469.4337286999944,469.43376420000277,None,,,,,,,,,,,,,,,,,00020,001,2026-01-20_16h14.02.894,MST_task,2024.2.0,59.7236705203345,2026-01-20 16h14.17.842730 +0530,
,Scenes\104a.jpg,98,0,99,,,,,j,0.6290341999992961,0.16790559999935795,None,,,,,,99,0,98,469.4498531999998,,,,,,,,,,,,,,,,,,,,,,,469.43398909999814,469.4498531999998,469.95092819999263,469.93425639999623,,,,,,,,,,,,,,,,,,,,,,469.9481222000031,469.95092819999263,469.95092819999263,469.95092819999263,472.9501683999988,j,0.6290341999992961,0.16790559999935795,472.95031450000533,472.95035479999206,None,,,,,,,,,,,,,,,,,00020,001,2026-01-20_16h14.02.894,MST_task,2024.2.0,59.7236705203345,2026-01-20 16h14.17.842730 +0530,
,Scenes\021a.jpg,99,0,100,,,,,j,1.4736381999973673,0.1768623999960255,None,,,,,,100,0,99,472.96645379999245,,,,,,,,,,,,,,,,,,,,,,,472.95055819999834,472.96645379999245,473.4896116000018,473.45097999999416,,,,,,,,,,,,,,,,,,,,,,473.4863062999939,473.4896116000018,473.4896116000018,473.4896116000018,476.4509007000015,j,1.4736381999973673,0.1768623999960255,476.4511100999953,476.451172999994,None,,,,,,,,,,,,,,,,,00020,001,2026-01-20_16h14.02.894,MST_task,2024.2.0,59.7236705203345,2026-01-20 16h14.17.842730 +0530,
,Scenes\143a.jpg,100,0,101,,,,,j,0.9691877000004752,0.17640880000544712,None,,,,,,101,0,100,476.46651420000126,,,,,,,,,,,,,,,,,,,,,,,476.4514982999972,476.46651420000126,476.9707989000017,476.95102969999425,,,,,,,,,,,,,,,,,,,,,,476.9677837000054,476.9707989000017,476.9707989000017,476.9707989000017,479.9667754999973,j,0.9691877000004752,0.17640880000544712,479.9669564999931,479.96699010000157,None,,,,,,,,,,,,,,,,,00020,001,2026-01-20_16h14.02.894,MST_task,2024.2.0,59.7236705203345,2026-01-20 16h14.17.842730 +0530,
,Scenes\100a.jpg,101,0,102,,,,,f,1.0158378000051016,0.16772849998960737,None,,,,,,102,0,101,479.98302319999493,,,,,,,,,,,,,,,,,,,,,,,479.9672101000033,479.98302319999493,480.48360619999585,480.46745149999333,,,,,,,,,,,,,,,,,,,,,,480.4802345999924,480.48360619999585,480.48360619999585,480.48360619999585,483.4683726999938,f,1.0158378000051016,0.16772849998960737,483.4685843000043,483.46862610000244,None,483.48301789999823,483.48301789999823,483.48301789999823,,,,,,,,,,,,,,00020,001,2026-01-20_16h14.02.894,MST_task,2024.2.0,59.7236705203345,2026-01-20 16h14.17.842730 +0530,
,Scenes\145a.jpg,102,0,103,,,,,j,0.9617514999990817,0.11320759999216534,None,,,,,,103,0,102,483.48301789999823,,,,,,,,,,,,,,,,,,,,,,,483.46899710000434,483.48301789999823,483.9850773999933,483.96781329999794,,,,,,,,,,,,,,,,,,,,,,483.9821018999937,483.9850773999933,483.9850773999933,483.9850773999933,486.9833068000007,j,0.9617514999990817,0.11320759999216534,486.98345469999185,486.983493599997,None,,,,,,,,,,,,,,,,,00020,001,2026-01-20_16h14.02.894,MST_task,2024.2.0,59.7236705203345,2026-01-20 16h14.17.842730 +0530,
,Scenes\161a.jpg,103,0,104,,,,,j,0.8424461000104202,0.28015700000105426,None,,,,,,104,0,103,487.00020439999935,,,,,,,,,,,,,,,,,,,,,,,486.98373300000094,487.00020439999935,487.5051248999953,487.4840852000052,,,,,,,,,,,,,,,,,,,,,,487.50116790000175,487.5051248999953,487.5051248999953,487.5051248999953,490.48393889999716,j,0.8424461000104202,0.28015700000105426,490.48414709999633,490.48421059999964,None,,,,,,,,,,,,,,,,,00020,001,2026-01-20_16h14.02.894,MST_task,2024.2.0,59.7236705203345,2026-01-20 16h14.17.842730 +0530,
,Scenes\120a.jpg,104,0,105,,,,,j,1.8106669999979204,0.1673614000028465,None,,,,,,105,0,104,490.4997774999938,,,,,,,,,,,,,,,,,,,,,,,490.48449580000306,490.4997774999938,491.00177289999556,490.98372410000593,,,,,,,,,,,,,,,,,,,,,,490.99751000000106,491.00177289999556,491.00177289999556,491.00177289999556,494.00011330000416,j,1.8106669999979204,0.1673614000028465,494.0002400999947,494.00027730000147,None,,,,,,,,,,,,,,,,,00020,001,2026-01-20_16h14.02.894,MST_task,2024.2.0,59.7236705203345,2026-01-20 16h14.17.842730 +0530,
,Objects\029a.jpg,105,0,106,,,,,f,2.173836800007848,0.16918169999553356,None,,,,,,106,0,105,494.0164466999995,,,,,,,,,,,,,,,,,,,,,,,494.00051650000387,494.0164466999995,494.51720190000196,494.5007734999963,,,,,,,,,,,,,,,,,,,,,,494.5067859999981,494.51720190000196,494.51720190000196,494.51720190000196,497.50172010000097,f,2.173836800007848,0.16918169999553356,497.501949700003,497.5019910999981,None,497.5166171000019,497.5166171000019,497.5166171000019,,,,,,,,,,,,,,00020,001,2026-01-20_16h14.02.894,MST_task,2024.2.0,59.7236705203345,2026-01-20 16h14.17.842730 +0530,
,Objects\059a.jpg,106,0,107,,,,,f,1.73088450000796,0.1680906999972649,None,,,,,,107,0,106,497.5166171000019,,,,,,,,,,,,,,,,,,,,,,,497.5022656999936,497.5166171000019,498.01669279999624,498.0010445999942,,,,,,,,,,,,,,,,,,,,,,498.0098117000016,498.01669279999624,498.01669279999624,498.01669279999624,501.00149819999933,f,1.73088450000796,0.1680906999972649,501.0016988999996,501.0017460999952,None,501.01643469999544,501.01643469999544,501.01643469999544,,,,,,,,,,,,,,00020,001,2026-01-20_16h14.02.894,MST_task,2024.2.0,59.7236705203345,2026-01-20 16h14.17.842730 +0530,
,Objects\020a.jpg,107,0,108,,,,,j,1.7343767999991542,0.21574729999701958,None,,,,,,108,0,107,501.01643469999544,,,,,,,,,,,,,,,,,,,,,,,501.00200849999965,501.01643469999544,501.5166002000042,501.5009426000033,,,,,,,,,,,,,,,,,,,,,,501.50723659999494,501.5166002000042,501.5166002000042,501.5166002000042,504.50101910000376,j,1.7343767999991542,0.21574729999701958,504.501148299998,504.50118039999506,None,504.51699910000025,504.51699910000025,504.51699910000025,,,,,,,,,,,,,,00020,001,2026-01-20_16h14.02.894,MST_task,2024.2.0,59.7236705203345,2026-01-20 16h14.17.842730 +0530,
,Objects\066a.jpg,108,0,109,,,,,j,1.474954399993294,0.2165372000017669,None,,,,,,109,0,108,504.51699910000025,,,,,,,,,,,,,,,,,,,,,,,504.501393700004,504.51699910000025,505.01669859999674,505.0008009000012,,,,,,,,,,,,,,,,,,,,,,505.00964580000436,505.01669859999674,505.01669859999674,505.01669859999674,508.00173150000046,j,1.474954399993294,0.2165372000017669,508.0019392999966,508.0019714999944,None,508.0162080000009,508.0162080000009,508.0162080000009,,,,,,,,,,,,,,00020,001,2026-01-20_16h14.02.894,MST_task,2024.2.0,59.7236705203345,2026-01-20 16h14.17.842730 +0530,
,Objects\101a.jpg,109,0,110,,,,,f,2.6076049999974202,0.16685660000075586,None,,,,,,110,0,109,508.0162080000009,,,,,,,,,,,,,,,,,,,,,,,508.00215830000525,508.0162080000009,508.51710709999315,508.50096940000367,,,,,,,,,,,,,,,,,,,,,,508.5072699000011,508.51710709999315,508.51710709999315,508.51710709999315,511.5016844999918,f,2.6076049999974202,0.16685660000075586,511.50192339999194,511.50196989999677,None,511.517219500005,511.517219500005,511.517219500005,,,,,,,,,,,,,,00020,001,2026-01-20_16h14.02.894,MST_task,2024.2.0,59.7236705203345,2026-01-20 16h14.17.842730 +0530,
,Objects\188a.jpg,110,0,111,,,,,f,1.4014288000034867,0.6245209999906365,None,,,,,,111,0,110,511.517219500005,,,,,,,,,,,,,,,,,,,,,,,511.502195699999,511.517219500005,512.0175571,512.0010973000026,,,,,,,,,,,,,,,,,,,,,,512.0093663000007,512.0175571,512.0175571,512.0175571,515.0169821000018,f,1.4014288000034867,0.6245209999906365,515.0171898999979,515.0172526999959,None,,,,,,,,,,,,,,,,,00020,001,2026-01-20_16h14.02.894,MST_task,2024.2.0,59.7236705203345,2026-01-20 16h14.17.842730 +0530,
,Objects\013a.jpg,111,0,112,,,,,f,1.133699699988938,0.19184930001210887,None,,,,,,112,0,111,515.0330208999949,,,,,,,,,,,,,,,,,,,,,,,515.0176367999957,515.0330208999949,515.5339234999992,515.5181564999948,,,,,,,,,,,,,,,,,,,,,,515.5253175999969,515.5339234999992,515.5339234999992,515.5339234999992,518.5184771000058,f,1.133699699988938,0.19184930001210887,518.5186936999962,518.5187535000005,None,518.5330319000059,518.5330319000059,518.5330319000059,,,,,,,,,,,,,,00020,001,2026-01-20_16h14.02.894,MST_task,2024.2.0,59.7236705203345,2026-01-20 16h14.17.842730 +0530,
,Scenes\111a.jpg,112,0,113,,,,,j,2.5282359000120778,0.13623550000193063,None,,,,,,113,0,112,518.5330319000059,,,,,,,,,,,,,,,,,,,,,,,518.5190544999932,518.5330319000059,519.0350597999932,519.0174353000039,,,,,,,,,,,,,,,,,,,,,,519.0316873999982,519.0350597999932,519.0350597999932,519.0350597999932,522.0335938999924,j,2.5282359000120778,0.13623550000193063,522.0337474999978,522.0337858999992,None,,,,,,,,,,,,,,,,,00020,001,2026-01-20_16h14.02.894,MST_task,2024.2.0,59.7236705203345,2026-01-20 16h14.17.842730 +0530,
,Scenes\033a.jpg,113,0,114,,,,,j,1.7245868000027258,0.09546460000274237,None,,,,,,114,0,113,522.0497405999922,,,,,,,,,,,,,,,,,,,,,,,522.0339726999955,522.0497405999922,522.5510857000045,522.5340346000012,,,,,,,,,,,,,,,,,,,,,,522.5420294999931,522.5510857000045,522.5510857000045,522.5510857000045,525.5500768000056,j,1.7245868000027258,0.09546460000274237,525.5502283999958,525.5502855999948,None,,,,,,,,,,,,,,,,,00020,001,2026-01-20_16h14.02.894,MST_task,2024.2.0,59.7236705203345,2026-01-20 16h14.17.842730 +0530,
,Scenes\181a.jpg,114,0,115,,,,,f,1.5005022999976063,0.13666180000291206,None,,,,,,115,0,114,525.5663055000041,,,,,,,,,,,,,,,,,,,,,,,525.5505013999937,525.5663055000041,526.070835999999,526.0508083000022,,,,,,,,,,,,,,,,,,,,,,526.0672025999957,526.070835999999,526.070835999999,526.070835999999,529.0669598999957,f,1.5005022999976063,0.13666180000291206,529.0671817999973,529.0672455000022,None,,,,,,,,,,,,,,,,,00020,001,2026-01-20_16h14.02.894,MST_task,2024.2.0,59.7236705203345,2026-01-20 16h14.17.842730 +0530,
,Scenes\127a.jpg,115,0,116,,,,,j,1.6593047000060324,0.11969629999657627,None,,,,,,116,0,115,529.0830788000021,,,,,,,,,,,,,,,,,,,,,,,529.0674643999955,529.0830788000021,529.5847718000005,529.5675016000023,,,,,,,,,,,,,,,,,,,,,,529.579983100004,529.5847718000005,529.5847718000005,529.5847718000005,532.5835208999924,j,1.6593047000060324,0.11969629999657627,532.5836512999958,532.5836871999927,None,,,,,,,,,,,,,,,,,00020,001,2026-01-20_16h14.02.894,MST_task,2024.2.0,59.7236705203345,2026-01-20 16h14.17.842730 +0530,
,Scenes\023a.jpg,116,0,117,,,,,None,,,f,1.0076919999992242,None,,,,117,0,116,532.5998610999959,,,,,,,,,,,,,,,,,,,,,,,532.5839109999943,532.5998610999959,533.1064218999963,533.0842433999933,,,,,,,,,,,,,,,,,,,,,,533.1025108000031,533.1064218999963,533.1064218999963,533.1064218999963,536.1001991999947,None,,,536.1003750999953,537.134610699999,f,,,,536.1165126999986,536.1165126999986,1.0076919999992242,None,,,,,,,,,,00020,001,2026-01-20_16h14.02.894,MST_task,2024.2.0,59.7236705203345,2026-01-20 16h14.17.842730 +0530,
,Scenes\118a.jpg,117,0,118,,,,,j,1.8732290000043577,0.11899020000419114,None,,,,,,118,0,117,537.1497819999931,,,,,,,,,,,,,,,,,,,,,,,537.1350196999992,537.1497819999931,537.6506104,537.6341606999922,,,,,,,,,,,,,,,,,,,,,,537.6467676000029,537.6506104,537.6506104,537.6506104,540.6353663000045,j,1.8732290000043577,0.11899020000419114,540.6355903999938,540.6356282000052,None,540.6498137000017,540.6498137000017,540.6498137000017,,,,,,,,,,,,,,00020,001,2026-01-20_16h14.02.894,MST_task,2024.2.0,59.7236705203345,2026-01-20 16h14.17.842730 +0530,
,Scenes\130a.jpg,118,0,119,,,,,j,1.6187544999993406,0.0953332000062801,None,,,,,,119,0,118,540.6498137000017,,,,,,,,,,,,,,,,,,,,,,,540.6358737999981,540.6498137000017,541.1772966999997,541.1337439000054,,,,,,,,,,,,,,,,,,,,,,541.1737142999918,541.1772966999997,541.1772966999997,541.1772966999997,544.150355299993,j,1.6187544999993406,0.0953332000062801,544.1505159999942,544.1505634999921,None,,,,,,,,,,,,,,,,,00020,001,2026-01-20_16h14.02.894,MST_task,2024.2.0,59.7236705203345,2026-01-20 16h14.17.842730 +0530,
,Objects\089a.jpg,119,0,120,,,,,f,0.8810495000070659,0.14316799999505747,None,,,,,,120,0,119,544.1663793000043,,,,,,,,,,,,,,,,,,,,,,,544.1507939000003,544.1663793000043,544.6671960999956,544.6513981000026,,,,,,,,,,,,,,,,,,,,,,544.6604509000026,544.6671960999956,544.6671960999956,544.6671960999956,547.6516032999934,f,0.8810495000070659,0.14316799999505747,547.6518180999992,547.6518783999927,None,547.6664740999986,547.6664740999986,547.6664740999986,,,,,,,,,,,,,,00020,001,2026-01-20_16h14.02.894,MST_task,2024.2.0,59.7236705203345,2026-01-20 16h14.17.842730 +0530,
,Objects\182a.jpg,120,0,121,,,,,None,,,f,0.028937600000062957,None,,,,121,0,120,547.6664740999986,,,,,,,,,,,,,,,,,,,,,,,547.6522583000042,547.6664740999986,548.1669854999927,548.1508361000015,,,,,,,,,,,,,,,,,,,,,,548.1566010999959,548.1669854999927,548.1669854999927,548.1669854999927,551.1513017999969,None,,,551.1514242999983,551.2015128000057,f,551.1667759999982,551.1667759999982,551.1667759999982,551.1667759999982,551.1667759999982,0.028937600000062957,None,,,,,,,,,,00020,001,2026-01-20_16h14.02.894,MST_task,2024.2.0,59.7236705203345,2026-01-20 16h14.17.842730 +0530,
,Objects\032a.jpg,121,0,122,,,,,j,0.8948232999973698,0.15264729999762494,None,,,,,,122,0,121,551.2165788999991,,,,,,,,,,,,,,,,,,,,,,,551.2017336999997,551.2165788999991,551.7324351999996,551.7009049000044,,,,,,,,,,,,,,,,,,,,,,551.7293647000042,551.7324351999996,551.7324351999996,551.7324351999996,554.7168065000005,j,0.8948232999973698,0.15264729999762494,554.717063899996,554.7171292999992,None,,,,,,,,,,,,,,,,,00020,001,2026-01-20_16h14.02.894,MST_task,2024.2.0,59.7236705203345,2026-01-20 16h14.17.842730 +0530,
,Objects\051a.jpg,122,0,123,,,,,j,2.8908338000037475,None,None,,,,,,123,0,122,554.7330227999919,,,,,,,,,,,,,,,,,,,,,,,554.717515700002,554.7330227999919,555.2333740000031,555.2180616999976,,,,,,,,,,,,,,,,,,,,,,555.2257583000028,555.2333740000031,555.2333740000031,555.2333740000031,558.2183933000051,j,2.8908338000037475,None,558.2186202000012,558.218655299992,None,558.2331062000012,558.2331062000012,558.2331062000012,,,,,,,,,,,,,,00020,001,2026-01-20_16h14.02.894,MST_task,2024.2.0,59.7236705203345,2026-01-20 16h14.17.842730 +0530,
,Objects\129a.jpg,123,0,124,,,,,f,0.9026215000048978,0.15124759999162052,None,,,,,,124,0,123,558.2331062000012,,,,,,,,,,,,,,,,,,,,,,,558.2188314999948,558.2331062000012,558.7332481000049,558.7176891999989,,,,,,,,,,,,,,,,,,,,,,558.7260524000012,558.7332481000049,558.7332481000049,558.7332481000049,561.7184991999966,f,0.9026215000048978,0.15124759999162052,561.7187505000038,561.7188142999948,None,561.7329792999953,561.7329792999953,561.7329792999953,,,,,,,,,,,,,,00020,001,2026-01-20_16h14.02.894,MST_task,2024.2.0,59.7236705203345,2026-01-20 16h14.17.842730 +0530,
,Objects\093a.jpg,124,0,125,,,,,j,1.4025439999968512,0.11179870000341907,None,,,,,,125,0,124,561.7329792999953,,,,,,,,,,,,,,,,,,,,,,,561.719139599998,561.7329792999953,562.2335425999918,562.2175453999953,,,,,,,,,,,,,,,,,,,,,,562.2232772999996,562.2335425999918,562.2335425999918,562.2335425999918,565.2181466000038,j,1.4025439999968512,0.11179870000341907,565.2183843999956,565.2184470999928,None,565.2329941000062,565.2329941000062,565.2329941000062,,,,,,,,,,,,,,00020,001,2026-01-20_16h14.02.894,MST_task,2024.2.0,59.7236705203345,2026-01-20 16h14.17.842730 +0530,
,Objects\168a.jpg,125,0,126,,,,,f,2.390702600008808,0.1426589999900898,None,,,,,,126,0,125,565.2329941000062,,,,,,,,,,,,,,,,,,,,,,,565.218778399998,565.2329941000062,565.7333547000017,565.7174805999966,,,,,,,,,,,,,,,,,,,,,,565.7252619999927,565.7333547000017,565.7333547000017,565.7333547000017,568.7193232999998,f,2.390702600008808,0.1426589999900898,568.7194963999937,568.7195382999926,None,568.7332173000032,568.7332173000032,568.7332173000032,,,,,,,,,,,,,,00020,001,2026-01-20_16h14.02.894,MST_task,2024.2.0,59.7236705203345,2026-01-20 16h14.17.842730 +0530,
,Scenes\192a.jpg,126,0,127,,,,,j,1.53025150000758,0.0960579999955371,None,,,,,,127,0,126,568.7332173000032,,,,,,,,,,,,,,,,,,,,,,,568.7198228000052,568.7332173000032,569.2337178000016,569.2174936999945,,,,,,,,,,,,,,,,,,,,,,569.2276867000037,569.2337178000016,569.2337178000016,569.2337178000016,572.218506499994,j,1.53025150000758,0.0960579999955371,572.2187329000008,572.2187696000037,None,572.2334048000048,572.2334048000048,572.2334048000048,,,,,,,,,,,,,,00020,001,2026-01-20_16h14.02.894,MST_task,2024.2.0,59.7236705203345,2026-01-20 16h14.17.842730 +0530,
,Scenes\188a.jpg,127,0,128,,,,,j,1.5541138999979012,0.09665640001185238,None,,,,,,128,0,127,572.2334048000048,,,,,,,,,,,,,,,,,,,,,,,572.2189750999969,572.2334048000048,572.7612305999937,572.7180055999925,,,,,,,,,,,,,,,,,,,,,,572.757663299999,572.7612305999937,572.7612305999937,572.7612305999937,575.7334965000045,j,1.5541138999979012,0.09665640001185238,575.7336801999918,575.7337215000007,None,,,,,,,,,,,,,,,,,00020,001,2026-01-20_16h14.02.894,MST_task,2024.2.0,59.7236705203345,2026-01-20 16h14.17.842730 +0530,
,Scenes\184a.jpg,128,0,129,,,,,j,1.25382919999538,0.09675229999993462,None,,,,,,129,0,128,575.749734099998,,,,,,,,,,,,,,,,,,,,,,,575.7339265000046,575.749734099998,576.2771573999926,576.2337369000015,,,,,,,,,,,,,,,,,,,,,,576.2729433999921,576.2771573999926,576.2771573999926,576.2771573999926,579.2500946999935,j,1.25382919999538,0.09675229999993462,579.2502378999925,579.2502778000053,None,,,,,,,,,,,,,,,,,00020,001,2026-01-20_16h14.02.894,MST_task,2024.2.0,59.7236705203345,2026-01-20 16h14.17.842730 +0530,
,Scenes\006a.jpg,129,0,130,,,,,f,1.7129749999876367,0.239974500000244,None,,,,,,130,0,129,579.2663390999951,,,,,,,,,,,,,,,,,,,,,,,579.2504820000031,579.2663390999951,579.7950029000058,579.7509915999981,,,,,,,,,,,,,,,,,,,,,,579.7909309999959,579.7950029000058,579.7950029000058,579.7950029000058,582.7669409999944,f,1.7129749999876367,0.239974500000244,582.767116300005,582.7671553999971,None,,,,,,,,,,,,,,,,,00020,001,2026-01-20_16h14.02.894,MST_task,2024.2.0,59.7236705203345,2026-01-20 16h14.17.842730 +0530,
,Scenes\133a.jpg,130,0,131,,,,,None,,,j,0.23026359999494161,None,,,,131,0,130,582.7833049000037,,,,,,,,,,,,,,,,,,,,,,,582.7673464999971,582.7833049000037,583.2853529999993,583.2677477999969,,,,,,,,,,,,,,,,,,,,,,583.2825083999924,583.2853529999993,583.2853529999993,583.2853529999993,586.2834147999965,None,,,586.2836097999971,586.5347051999997,j,,,,586.3006234999921,586.3006234999921,0.23026359999494161,None,,,,,,,,,,00020,001,2026-01-20_16h14.02.894,MST_task,2024.2.0,59.7236705203345,2026-01-20 16h14.17.842730 +0530,
,Scenes\008a.jpg,131,0,132,,,,,j,0.9533181000006152,0.1592473000055179,None,,,,,,132,0,131,586.5496928999928,,,,,,,,,,,,,,,,,,,,,,,586.5350910999987,586.5496928999928,587.075185099995,587.034063500003,,,,,,,,,,,,,,,,,,,,,,587.0706422999938,587.075185099995,587.075185099995,587.075185099995,590.0502183000062,j,0.9533181000006152,0.1592473000055179,590.0504274999985,590.0504928000009,None,,,,,,,,,,,,,,,,,00020,001,2026-01-20_16h14.02.894,MST_task,2024.2.0,59.7236705203345,2026-01-20 16h14.17.842730 +0530,
,Scenes\132a.jpg,132,0,133,,,,,j,1.9724806999875,0.11981180000293534,None,,,,,,133,0,132,590.0665173000016,,,,,,,,,,,,,,,,,,,,,,,590.050802400001,590.0665173000016,590.5675683000009,590.5507883999962,,,,,,,,,,,,,,,,,,,,,,590.5603021999996,590.5675683000009,590.5675683000009,590.5675683000009,593.5506719999976,j,1.9724806999875,0.11981180000293534,593.5508602000045,593.5508981000021,None,,,,,,,,,,,,,,,,,00020,001,2026-01-20_16h14.02.894,MST_task,2024.2.0,59.7236705203345,2026-01-20 16h14.17.842730 +0530,
,Objects\154a.jpg,133,0,134,,,,,f,0.8240846999979112,0.16852120000112336,None,,,,,,134,0,133,593.5663601999986,,,,,,,,,,,,,,,,,,,,,,,593.5510895000043,593.5663601999986,594.0675525999977,594.050808800006,,,,,,,,,,,,,,,,,,,,,,594.0598164999974,594.0675525999977,594.0675525999977,594.0675525999977,597.051538899992,f,0.8240846999979112,0.16852120000112336,597.0517060999991,597.0517382999969,None,597.0667355000041,597.0667355000041,597.0667355000041,,,,,,,,,,,,,,00020,001,2026-01-20_16h14.02.894,MST_task,2024.2.0,59.7236705203345,2026-01-20 16h14.17.842730 +0530,
,Objects\036a.jpg,134,0,135,,,,,f,1.7016307000012603,0.14406330000201706,None,,,,,,135,0,134,597.0667355000041,,,,,,,,,,,,,,,,,,,,,,,597.0519458000053,597.0667355000041,597.5739618999942,597.5509840000013,,,,,,,,,,,,,,,,,,,,,,597.5714152,597.5739618999942,597.5739618999942,597.5739618999942,600.566591099996,f,1.7016307000012603,0.14406330000201706,600.566770999998,600.5668182999943,None,,,,,,,,,,,,,,,,,00020,001,2026-01-20_16h14.02.894,MST_task,2024.2.0,59.7236705203345,2026-01-20 16h14.17.842730 +0530,
,Objects\060a.jpg,135,0,136,,,,,j,1.3606683999969391,0.2156717000034405,None,,,,,,136,0,135,600.5831385000056,,,,,,,,,,,,,,,,,,,,,,,600.5670183000038,600.5831385000056,601.0995922000002,601.0674639999925,,,,,,,,,,,,,,,,,,,,,,601.0967568000051,601.0995922000002,601.0995922000002,601.0995922000002,604.0834557000053,j,1.3606683999969391,0.2156717000034405,604.0836866000027,604.0837254999933,None,,,,,,,,,,,,,,,,,00020,001,2026-01-20_16h14.02.894,MST_task,2024.2.0,59.7236705203345,2026-01-20 16h14.17.842730 +0530,
,Objects\070a.jpg,136,0,137,,,,,f,1.282974000001559,0.1513598000019556,None,,,,,,137,0,136,604.1006019000051,,,,,,,,,,,,,,,,,,,,,,,604.0839267999982,604.1006019000051,604.6002960000042,604.584240199998,,,,,,,,,,,,,,,,,,,,,,604.5915290999983,604.6002960000042,604.6002960000042,604.6002960000042,607.5847081999964,f,1.282974000001559,0.1513598000019556,607.5848543000029,607.5848932999943,None,607.5998546000046,607.5998546000046,607.5998546000046,,,,,,,,,,,,,,00020,001,2026-01-20_16h14.02.894,MST_task,2024.2.0,59.7236705203345,2026-01-20 16h14.17.842730 +0530,
,Objects\181a.jpg,137,0,138,,,,,j,0.7201395999873057,0.15856920000805985,None,,,,,,138,0,137,607.5998546000046,,,,,,,,,,,,,,,,,,,,,,,607.5851181000035,607.5998546000046,608.1001066000026,608.0840230000031,,,,,,,,,,,,,,,,,,,,,,608.0900179000018,608.1001066000026,608.1001066000026,608.1001066000026,611.084915600004,j,0.7201395999873057,0.15856920000805985,611.0851366999996,611.0851980000007,None,611.0998372000031,611.0998372000031,611.0998372000031,,,,,,,,,,,,,,00020,001,2026-01-20_16h14.02.894,MST_task,2024.2.0,59.7236705203345,2026-01-20 16h14.17.842730 +0530,
,Objects\122a.jpg,138,0,139,,,,,j,2.42813610000303,0.15847090000170283,None,,,,,,139,0,138,611.0998372000031,,,,,,,,,,,,,,,,,,,,,,,611.0855325000011,611.0998372000031,611.6002178000053,611.584151300005,,,,,,,,,,,,,,,,,,,,,,611.5905250999931,611.6002178000053,611.6002178000053,611.6002178000053,614.5848745999974,j,2.42813610000303,0.15847090000170283,614.5850864999957,614.5851153999974,None,614.5998296000034,614.5998296000034,614.5998296000034,,,,,,,,,,,,,,00020,001,2026-01-20_16h14.02.894,MST_task,2024.2.0,59.7236705203345,2026-01-20 16h14.17.842730 +0530,
,Objects\163a.jpg,139,0,140,,,,,j,1.975428900012048,0.11126789999252651,None,,,,,,140,0,139,614.5998296000034,,,,,,,,,,,,,,,,,,,,,,,614.5852579000057,614.5998296000034,615.1003498999926,615.0841932000039,,,,,,,,,,,,,,,,,,,,,,615.0926178999944,615.1003498999926,615.1003498999926,615.1003498999926,618.0852063000057,j,1.975428900012048,0.11126789999252651,618.0854317000048,618.0854920999991,None,618.1001649999962,618.1001649999962,618.1001649999962,,,,,,,,,,,,,,00020,001,2026-01-20_16h14.02.894,MST_task,2024.2.0,59.7236705203345,2026-01-20 16h14.17.842730 +0530,
,Scenes\162a.jpg,140,0,141,,,,,j,1.0424258999992162,0.10514669999247417,None,,,,,,141,0,140,618.1001649999962,,,,,,,,,,,,,,,,,,,,,,,618.0857435999933,618.1001649999962,618.6003189000039,618.584562899996,,,,,,,,,,,,,,,,,,,,,,618.5937707999983,618.6003189000039,618.6003189000039,618.6003189000039,621.5850076999923,j,1.0424258999992162,0.10514669999247417,621.5852436999994,621.5852747000026,None,621.5997375000006,621.5997375000006,621.5997375000006,,,,,,,,,,,,,,00020,001,2026-01-20_16h14.02.894,MST_task,2024.2.0,59.7236705203345,2026-01-20 16h14.17.842730 +0530,
,Scenes\039a.jpg,141,0,142,,,,,j,0.8093042999971658,0.15142290000221692,None,,,,,,142,0,141,621.5997375000006,,,,,,,,,,,,,,,,,,,,,,,621.5854951999936,621.5997375000006,622.1220374999975,622.0842186999944,,,,,,,,,,,,,,,,,,,,,,622.1191070999921,622.1220374999975,622.1220374999975,622.1220374999975,625.1002278999949,j,0.8093042999971658,0.15142290000221692,625.100368600004,625.1004098999983,None,,,,,,,,,,,,,,,,,00020,001,2026-01-20_16h14.02.894,MST_task,2024.2.0,59.7236705203345,2026-01-20 16h14.17.842730 +0530,
,Scenes\094a.jpg,142,0,143,,,,,j,1.7542813000036404,0.13472269999329,None,,,,,,143,0,142,625.1164653000014,,,,,,,,,,,,,,,,,,,,,,,625.1006665000023,625.1164653000014,625.6508955000027,625.6008843000018,,,,,,,,,,,,,,,,,,,,,,625.6471431999962,625.6508955000027,625.6508955000027,625.6508955000027,628.6171512000001,j,1.7542813000036404,0.13472269999329,628.6173554999987,628.6174175000051,None,,,,,,,,,,,,,,,,,00020,001,2026-01-20_16h14.02.894,MST_task,2024.2.0,59.7236705203345,2026-01-20 16h14.17.842730 +0530,
,Scenes\126a.jpg,143,0,144,,,,,j,0.6912779999984195,0.13467470000614412,None,,,,,,144,0,143,628.6334289999941,,,,,,,,,,,,,,,,,,,,,,,628.6177196000062,628.6334289999941,629.1369567999936,629.1174233000056,,,,,,,,,,,,,,,,,,,,,,629.1323586999933,629.1369567999936,629.1369567999936,629.1369567999936,632.1335508000047,j,0.6912779999984195,0.13467470000614412,632.1337022999942,632.133746099993,None,,,,,,,,,,,,,,,,,00020,001,2026-01-20_16h14.02.894,MST_task,2024.2.0,59.7236705203345,2026-01-20 16h14.17.842730 +0530,
,Scenes\125a.jpg,144,0,145,,,,,j,0.6698899999901187,0.14291720000619534,None,,,,,,145,0,144,632.1498970999965,,,,,,,,,,,,,,,,,,,,,,,632.1340234999952,632.1498970999965,632.6540849000012,632.6342631000007,,,,,,,,,,,,,,,,,,,,,,632.6507107999932,632.6540849000012,632.6540849000012,632.6540849000012,635.6504729000008,j,0.6698899999901187,0.14291720000619534,635.6506223000033,635.650664700006,None,,,,,,,,,,,,,,,,,00020,001,2026-01-20_16h14.02.894,MST_task,2024.2.0,59.7236705203345,2026-01-20 16h14.17.842730 +0530,
,Scenes\113a.jpg,145,0,146,,,,,j,0.9959969999908935,0.12026979999791365,None,,,,,,146,0,145,635.6664636999922,,,,,,,,,,,,,,,,,,,,,,,635.6509355000017,635.6664636999922,636.1672932999936,636.1505464999937,,,,,,,,,,,,,,,,,,,,,,636.159917099998,636.1672932999936,636.1672932999936,636.1672932999936,639.1521122999984,j,0.9959969999908935,0.12026979999791365,639.1522867000022,639.1523479000025,None,639.1669412000047,639.1669412000047,639.1669412000047,,,,,,,,,,,,,,00020,001,2026-01-20_16h14.02.894,MST_task,2024.2.0,59.7236705203345,2026-01-20 16h14.17.842730 +0530,
,Scenes\151a.jpg,146,0,147,,,,,j,1.830735800002003,0.12848689999373164,None,,,,,,147,0,146,639.1669412000047,,,,,,,,,,,,,,,,,,,,,,,639.1527359000029,639.1669412000047,639.684974799995,639.6507297000062,,,,,,,,,,,,,,,,,,,,,,639.6815645000024,639.684974799995,639.684974799995,639.684974799995,642.666939200004,j,1.830735800002003,0.12848689999373164,642.667074099998,642.6671124999993,None,,,,,,,,,,,,,,,,,00020,001,2026-01-20_16h14.02.894,MST_task,2024.2.0,59.7236705203345,2026-01-20 16h14.17.842730 +0530,
,Objects\153a.jpg,147,0,148,,,,,f,1.2593677999975625,0.20036960000288673,None,,,,,,148,0,147,642.683070900006,,,,,,,,,,,,,,,,,,,,,,,642.6673030999955,642.683070900006,643.1836691000062,643.1674568000017,,,,,,,,,,,,,,,,,,,,,,643.1775473000016,643.1836691000062,643.1836691000062,643.1836691000062,646.1682593000005,f,1.2593677999975625,0.20036960000288673,646.1685256000055,646.1685907999927,None,646.1837367999979,646.1837367999979,646.1837367999979,,,,,,,,,,,,,,00020,001,2026-01-20_16h14.02.894,MST_task,2024.2.0,59.7236705203345,2026-01-20 16h14.17.842730 +0530,
,Objects\148a.jpg,148,0,149,,,,,f,1.4563257999980124,0.1920379000075627,None,,,,,,149,0,148,646.1837367999979,,,,,,,,,,,,,,,,,,,,,,,646.1689040000056,646.1837367999979,646.6836043999938,646.667600899993,,,,,,,,,,,,,,,,,,,,,,646.6737964000058,646.6836043999938,646.6836043999938,646.6836043999938,649.6682841000002,f,1.4563257999980124,0.1920379000075627,649.6685140000045,649.6685505999922,None,649.6830913000013,649.6830913000013,649.6830913000013,,,,,,,,,,,,,,00020,001,2026-01-20_16h14.02.894,MST_task,2024.2.0,59.7236705203345,2026-01-20 16h14.17.842730 +0530,
,Objects\009a.jpg,149,0,150,,,,,f,1.1676804000017,0.17517980000411626,None,,,,,,150,0,149,649.6830913000013,,,,,,,,,,,,,,,,,,,,,,,649.6687549000053,649.6830913000013,650.2118200999976,650.1675557999988,,,,,,,,,,,,,,,,,,,,,,650.2086792000046,650.2118200999976,650.2118200999976,650.2118200999976,653.1842195999925,f,1.1676804000017,0.17517980000411626,653.1843676999997,653.1844088999933,None,,,,,,,,,,,,,,,,,00020,001,2026-01-20_16h14.02.894,MST_task,2024.2.0,59.7236705203345,2026-01-20 16h14.17.842730 +0530,
,Objects\172a.jpg,150,0,151,,,,,None,,,j,0.07935179999913089,None,,,,151,0,150,653.1997515999974,,,,,,,,,,,,,,,,,,,,,,,653.1846124000003,653.1997515999974,653.7002765999932,653.6841738999938,,,,,,,,,,,,,,,,,,,,,,653.6900274999934,653.7002765999932,653.7002765999932,653.7002765999932,656.6849246999918,None,,,656.6850832000055,656.7844976000051,j,656.6999950000027,656.6999950000027,656.6999950000027,656.6999950000027,656.6999950000027,0.07935179999913089,None,,,,,,,,,,00020,001,2026-01-20_16h14.02.894,MST_task,2024.2.0,59.7236705203345,2026-01-20 16h14.17.842730 +0530,
,Objects\061a.jpg,151,0,152,,,,,j,2.3343322000000626,0.17742900000303052,None,,,,,,152,0,151,656.7996515999985,,,,,,,,,,,,,,,,,,,,,,,656.7849127999943,656.7996515999985,657.3002588999952,657.2841594000056,,,,,,,,,,,,,,,,,,,,,,657.2902566999983,657.3002588999952,657.3002588999952,657.3002588999952,660.2851714999997,j,2.3343322000000626,0.17742900000303052,660.2853295999957,660.2853678999963,None,660.3002363999985,660.3002363999985,660.3002363999985,,,,,,,,,,,,,,00020,001,2026-01-20_16h14.02.894,MST_task,2024.2.0,59.7236705203345,2026-01-20 16h14.17.842730 +0530,
,Objects\021a.jpg,152,0,153,,,,,f,2.0596401000075275,0.16701479999755975,None,,,,,,153,0,152,660.3002363999985,,,,,,,,,,,,,,,,,,,,,,,660.2856081999926,660.3002363999985,660.7999750000017,660.7844594000053,,,,,,,,,,,,,,,,,,,,,,660.793019100005,660.7999750000017,660.7999750000017,660.7999750000017,663.7852199000044,f,2.0596401000075275,0.16701479999755975,663.7854517999949,663.7854934999923,None,663.7995942999987,663.7995942999987,663.7995942999987,,,,,,,,,,,,,,00020,001,2026-01-20_16h14.02.894,MST_task,2024.2.0,59.7236705203345,2026-01-20 16h14.17.842730 +0530,
,Objects\178a.jpg,153,0,154,,,,,j,0.7596839000034379,0.1279588000033982,None,,,,,,154,0,153,663.7995942999987,,,,,,,,,,,,,,,,,,,,,,,663.7857025999983,663.7995942999987,664.2999449000054,664.2844951000006,,,,,,,,,,,,,,,,,,,,,,664.2905135000037,664.2999449000054,664.2999449000054,664.2999449000054,667.2848346999963,j,0.7596839000034379,0.1279588000033982,667.2850565999979,667.2850872999988,None,667.3000408999942,667.3000408999942,667.3000408999942,,,,,,,,,,,,,,00020,001,2026-01-20_16h14.02.894,MST_task,2024.2.0,59.7236705203345,2026-01-20 16h14.17.842730 +0530,
,Scenes\112a.jpg,154,0,155,,,,,j,1.5552019000024302,0.14419889998680446,None,,,,,,155,0,154,667.3000408999942,,,,,,,,,,,,,,,,,,,,,,,667.2852448000049,667.3000408999942,667.8006802000018,667.7841942999949,,,,,,,,,,,,,,,,,,,,,,667.7957548999984,667.8006802000018,667.8006802000018,667.8006802000018,670.7849810000043,j,1.5552019000024302,0.14419889998680446,670.7852077999996,670.7852691000007,None,670.7997391999961,670.7997391999961,670.7997391999961,,,,,,,,,,,,,,00020,001,2026-01-20_16h14.02.894,MST_task,2024.2.0,59.7236705203345,2026-01-20 16h14.17.842730 +0530,
,Scenes\108a.jpg,155,0,156,,,,,j,0.5730581999960123,0.1682896999991499,None,,,,,,156,0,155,670.7997391999961,,,,,,,,,,,,,,,,,,,,,,,670.7855612999992,670.7997391999961,671.3024022000027,671.2841729999927,,,,,,,,,,,,,,,,,,,,,,671.2993633000006,671.3024022000027,671.3024022000027,671.3024022000027,674.3001632999949,j,0.5730581999960123,0.1682896999991499,674.3002899999992,674.300327399993,None,,,,,,,,,,,,,,,,,00020,001,2026-01-20_16h14.02.894,MST_task,2024.2.0,59.7236705203345,2026-01-20 16h14.17.842730 +0530,
,Scenes\142a.jpg,156,0,157,,,,,j,1.8626370999991195,0.12012069999764208,None,,,,,,157,0,156,674.3164909000043,,,,,,,,,,,,,,,,,,,,,,,674.3005043000012,674.3164909000043,674.8202606999985,674.8008877999964,,,,,,,,,,,,,,,,,,,,,,674.8149275000033,674.8202606999985,674.8202606999985,674.8202606999985,677.8171240999945,j,1.8626370999991195,0.12012069999764208,677.8172996999929,677.8173622000031,None,,,,,,,,,,,,,,,,,00020,001,2026-01-20_16h14.02.894,MST_task,2024.2.0,59.7236705203345,2026-01-20 16h14.17.842730 +0530,
,Scenes\053a.jpg,157,0,158,,,,,j,0.6849307000084082,0.1851740999991307,None,,,,,,158,0,157,677.8331770999939,,,,,,,,,,,,,,,,,,,,,,,677.8177545999933,677.8331770999939,678.3336788000015,678.3181045999954,,,,,,,,,,,,,,,,,,,,,,678.3252930000017,678.3336788000015,678.3336788000015,678.3336788000015,681.3178986999992,j,0.6849307000084082,0.1851740999991307,681.318022899999,681.3180557000014,None,681.3331850999966,681.3331850999966,681.3331850999966,,,,,,,,,,,,,,00020,001,2026-01-20_16h14.02.894,MST_task,2024.2.0,59.7236705203345,2026-01-20 16h14.17.842730 +0530,
,Scenes\004a.jpg,158,0,159,,,,,j,2.03228250000393,0.1604998999973759,None,,,,,,159,0,158,681.3331850999966,,,,,,,,,,,,,,,,,,,,,,,681.3182842999959,681.3331850999966,681.8353193999938,681.8176884999993,,,,,,,,,,,,,,,,,,,,,,681.8323581000004,681.8353193999938,681.8353193999938,681.8353193999938,684.8338839999924,j,2.03228250000393,0.1604998999973759,684.8340575000038,684.8340983999951,None,,,,,,,,,,,,,,,,,00020,001,2026-01-20_16h14.02.894,MST_task,2024.2.0,59.7236705203345,2026-01-20 16h14.17.842730 +0530,
,Scenes\165a.jpg,159,0,160,,,,,f,2.395381299997098,0.16690310000558384,None,,,,,,160,0,159,684.8496961000055,,,,,,,,,,,,,,,,,,,,,,,684.8343554000021,684.8496961000055,685.3526140000031,685.3344632999942,,,,,,,,,,,,,,,,,,,,,,685.3493804000027,685.3526140000031,685.3526140000031,685.3526140000031,688.3501714000013,f,2.395381299997098,0.16690310000558384,688.3503024999955,688.3503408999968,None,,,,,,,,,,,,,,,,,00020,001,2026-01-20_16h14.02.894,MST_task,2024.2.0,59.7236705203345,2026-01-20 16h14.17.842730 +0530,
,Scenes\036a.jpg,160,0,161,,,,,j,1.5440627000061795,0.15212199999950826,None,,,,,,161,0,160,688.3664277000062,,,,,,,,,,,,,,,,,,,,,,,688.3505319999967,688.3664277000062,688.8675843999954,688.8508060000022,,,,,,,,,,,,,,,,,,,,,,688.8581756000058,688.8675843999954,688.8675843999954,688.8675843999954,691.8670148999954,j,1.5440627000061795,0.15212199999950826,691.8672196999978,691.8672666999919,None,,,,,,,,,,,,,,,,,00020,001,2026-01-20_16h14.02.894,MST_task,2024.2.0,59.7236705203345,2026-01-20 16h14.17.842730 +0530,
,Objects\169a.jpg,161,0,162,,,,,j,1.3965423999907216,0.12019420000433456,None,,,,,,162,0,161,691.8833913999988,,,,,,,,,,,,,,,,,,,,,,,691.8674986999977,691.8833913999988,692.3833837999991,692.3672794000013,,,,,,,,,,,,,,,,,,,,,,692.3744032999966,692.3833837999991,692.3833837999991,692.3833837999991,695.3684117999946,j,1.3965423999907216,0.12019420000433456,695.3686076000013,695.3686446999927,None,695.3832400999963,695.3832400999963,695.3832400999963,,,,,,,,,,,,,,00020,001,2026-01-20_16h14.02.894,MST_task,2024.2.0,59.7236705203345,2026-01-20 16h14.17.842730 +0530,
,Objects\031a.jpg,162,0,163,,,,,j,1.808050399995409,0.1270560000120895,None,,,,,,163,0,162,695.3832400999963,,,,,,,,,,,,,,,,,,,,,,,695.368830899999,695.3832400999963,695.8836409999931,695.8673884000018,,,,,,,,,,,,,,,,,,,,,,695.8750682999962,695.8836409999931,695.8836409999931,695.8836409999931,698.8677905999939,j,1.808050399995409,0.1270560000120895,698.8679086000047,698.8679787000001,None,698.8833239999949,698.8833239999949,698.8833239999949,,,,,,,,,,,,,,00020,001,2026-01-20_16h14.02.894,MST_task,2024.2.0,59.7236705203345,2026-01-20 16h14.17.842730 +0530,
,Objects\048a.jpg,163,0,164,,,,,j,0.8599738999910187,0.14439310001034755,None,,,,,,164,0,163,698.8833239999949,,,,,,,,,,,,,,,,,,,,,,,698.8683775999962,698.8833239999949,699.383373100005,699.367763599992,,,,,,,,,,,,,,,,,,,,,,699.3739946999995,699.383373100005,699.383373100005,699.383373100005,702.3681130000041,j,0.8599738999910187,0.14439310001034755,702.3683291000052,702.3683796999976,None,702.3830317999964,702.3830317999964,702.3830317999964,,,,,,,,,,,,,,00020,001,2026-01-20_16h14.02.894,MST_task,2024.2.0,59.7236705203345,2026-01-20 16h14.17.842730 +0530,
,Objects\094a.jpg,164,0,165,,,,,f,1.179906999997911,0.21639580000191927,None,,,,,,165,0,164,702.3830317999964,,,,,,,,,,,,,,,,,,,,,,,702.3686043000052,702.3830317999964,702.9029437999998,702.8678559999971,,,,,,,,,,,,,,,,,,,,,,702.8998126999941,702.9029437999998,702.9029437999998,702.9029437999998,705.8835834999918,f,1.179906999997911,0.21639580000191927,705.8837681000005,705.8838039999973,None,,,,,,,,,,,,,,,,,00020,001,2026-01-20_16h14.02.894,MST_task,2024.2.0,59.7236705203345,2026-01-20 16h14.17.842730 +0530,
,Objects\140a.jpg,165,0,166,,,,,f,2.635463200000231,0.15179950000310782,None,,,,,,166,0,165,705.899715099993,,,,,,,,,,,,,,,,,,,,,,,705.8840277999989,705.899715099993,706.4001539000019,706.3841994999966,,,,,,,,,,,,,,,,,,,,,,706.3918410000042,706.4001539000019,706.4001539000019,706.4001539000019,709.3850999999995,f,2.635463200000231,0.15179950000310782,709.3853385999973,709.3853778000048,None,709.3997583000018,709.3997583000018,709.3997583000018,,,,,,,,,,,,,,00020,001,2026-01-20_16h14.02.894,MST_task,2024.2.0,59.7236705203345,2026-01-20 16h14.17.842730 +0530,
,Objects\138a.jpg,166,0,167,,,,,j,0.7431568000029074,0.12045360000047367,None,,,,,,167,0,166,709.3997583000018,,,,,,,,,,,,,,,,,,,,,,,709.385571699997,709.3997583000018,709.8999848999956,709.8844793000026,,,,,,,,,,,,,,,,,,,,,,709.8926647000044,709.8999848999956,709.8999848999956,709.8999848999956,712.8850124000019,j,0.7431568000029074,0.12045360000047367,712.8852402000048,712.8852852999989,None,712.9001178000035,712.9001178000035,712.9001178000035,,,,,,,,,,,,,,00020,001,2026-01-20_16h14.02.894,MST_task,2024.2.0,59.7236705203345,2026-01-20 16h14.17.842730 +0530,
,Objects\186a.jpg,167,0,168,,,,,f,0.8355662999965716,0.1514928999968106,None,,,,,,168,0,167,712.9001178000035,,,,,,,,,,,,,,,,,,,,,,,712.8855845999933,712.9001178000035,713.3999043999938,713.384172399994,,,,,,,,,,,,,,,,,,,,,,713.3898438000033,713.3999043999938,713.3999043999938,713.3999043999938,716.3851832999935,f,0.8355662999965716,0.1514928999968106,716.3854008000053,716.3854539000022,None,716.3997836000053,716.3997836000053,716.3997836000053,,,,,,,,,,,,,,00020,001,2026-01-20_16h14.02.894,MST_task,2024.2.0,59.7236705203345,2026-01-20 16h14.17.842730 +0530,
