thisN,thisTrialN,thisRepN,key_resp_3.keys,key_resp_3.rt,key_resp_3.duration,trials.thisRepN,trials.thisTrialN,trials.thisN,thisRow.t,notes,intro_page.started,text.started,key_resp.started,intro_page.stopped,key_resp.keys,key_resp.rt,key_resp.duration,instructions.started,text_2.started,key_resp_2.started,instructions.stopped,key_resp_2.keys,key_resp_2.rt,key_resp_2.duration,demo1.started,image_1.started,image_2.started,text_7.started,key_resp_6.started,text_9.started,demo1.stopped,key_resp_6.keys,key_resp_6.rt,key_resp_6.duration,demo2.started,image_5.started,image_6.started,text_11.started,text_12.started,key_resp_8.started,demo2.stopped,key_resp_8.keys,key_resp_8.rt,key_resp_8.duration,demo_conclusion.started,text_13.started,key_resp_9.started,demo_conclusion.stopped,key_resp_9.keys,key_resp_9.rt,key_resp_9.duration,start_test.started,text_6.started,key_resp_5.started,start_test.stopped,key_resp_5.keys,key_resp_5.rt,key_resp_5.duration,ISI.started,text_4.started,text_4.stopped,ISI.stopped,routine_1.started,image.started,text_3.started,key_resp_3.started,routine_1.stopped,image_path,position_of_stimuli,trials.key_resp_3.keys,trials.key_resp_3.rt,trials.key_resp_3.duration,End_page.started,text_5.started,key_resp_4.started,End_page.stopped,key_resp_4.keys,key_resp_4.rt,key_resp_4.duration,participant,session,date,expName,psychopyVersion,frameRate,expStart,
,,,,,,,,,,,0.0011089000036008656,0.002825399991706945,0.002825399991706945,4.7500312000047415,space,4.735703600003035,None,,,,,,,,,,,,,,,,,,,,,,,,,,,,,,,,,,,,,,,,,,,,,,,,,,,,,,,,,,,,,,,00024,001,2026-01-20_18h09.57.673,MST_test,2024.2.0,60.22677791332188,2026-01-20 18h10.05.387400 +0530,
,,,,,,,,,,,,,,,,,,4.750097199997981,4.761283899992122,4.761283899992122,24.177258900002926,space,19.401860099998885,None,,,,,,,,,,,,,,,,,,,,,,,,,,,,,,,,,,,,,,,,,,,,,,,,,,,,,,,,00024,001,2026-01-20_18h09.57.673,MST_test,2024.2.0,60.22677791332188,2026-01-20 18h10.05.387400 +0530,
,,,,,,,,,,,,,,,,,,,,,,,,,24.1773622000037,24.215540999997756,24.215540999997756,24.215540999997756,24.215540999997756,24.215540999997756,29.444742299994687,space,5.227470699988771,None,,,,,,,,,,,,,,,,,,,,,,,,,,,,,,,,,,,,,,,,,,,,,,00024,001,2026-01-20_18h09.57.673,MST_test,2024.2.0,60.22677791332188,2026-01-20 18h10.05.387400 +0530,
,,,,,,,,,,,,,,,,,,,,,,,,,,,,,,,,,,,29.444850300002145,29.460415499997907,29.460415499997907,29.460415499997907,29.460415499997907,29.460415499997907,33.812121700000716,space,4.350256100005936,None,,,,,,,,,,,,,,,,,,,,,,,,,,,,,,,,,,,,00024,001,2026-01-20_18h09.57.673,MST_test,2024.2.0,60.22677791332188,2026-01-20 18h10.05.387400 +0530,
,,,,,,,,,,,,,,,,,,,,,,,,,,,,,,,,,,,,,,,,,,,,,33.812218099992606,33.826766700003645,33.826766700003645,64.8606931999966,space,31.031744799998705,None,,,,,,,,,,,,,,,,,,,,,,,,,,,,,00024,001,2026-01-20_18h09.57.673,MST_test,2024.2.0,60.22677791332188,2026-01-20 18h10.05.387400 +0530,
,,,,,,,,,,,,,,,,,,,,,,,,,,,,,,,,,,,,,,,,,,,,,,,,,,,,64.86081290000584,64.876852100002,64.876852100002,116.9602573000011,space,52.06967969999823,None,,,,,,,,,,,,,,,,,,,,,,00024,001,2026-01-20_18h09.57.673,MST_test,2024.2.0,60.22677791332188,2026-01-20 18h10.05.387400 +0530,
0,0,1,s,8.12652329998673,None,1,0,0,116.97635470000387,,,,,,,,,,,,,,,,,,,,,,,,,,,,,,,,,,,,,,,,,,,,,,,,,,116.96516609999526,116.97635470000387,117.50811539999268,117.45979579999403,117.50528899999335,117.50811539999268,117.50811539999268,117.50811539999268,125.6447393999988,Scenes\128b.jpg,pre,s,8.12652329998673,None,,,,,,,,00024,001,2026-01-20_18h09.57.673,MST_test,2024.2.0,60.22677791332188,2026-01-20 18h10.05.387400 +0530,
1,0,2,o,1.5967282000056002,None,2,0,1,125.66021849999379,,,,,,,,,,,,,,,,,,,,,,,,,,,,,,,,,,,,,,,,,,,,,,,,,,125.64513049999368,125.66021849999379,126.16577700000198,126.14407910000591,126.16285409999546,126.16577700000198,126.16577700000198,126.16577700000198,127.7776739999972,Scenes\009b.jpg,mid,o,1.5967282000056002,None,,,,,,,,00024,001,2026-01-20_18h09.57.673,MST_test,2024.2.0,60.22677791332188,2026-01-20 18h10.05.387400 +0530,
2,0,3,n,2.868919599990477,None,3,0,2,127.79375769999751,,,,,,,,,,,,,,,,,,,,,,,,,,,,,,,,,,,,,,,,,,,,,,,,,,127.77802569999767,127.79375769999751,,128.27845050000178,128.2907006000023,128.2935126999946,128.2935126999946,128.2935126999946,131.17743999999948,Foils\scenes4.jpg,none,n,2.868919599990477,None,,,,,,,,00024,001,2026-01-20_18h09.57.673,MST_test,2024.2.0,60.22677791332188,2026-01-20 18h10.05.387400 +0530,
3,0,4,n,3.8528243000037037,None,4,0,3,131.19376710000506,,,,,,,,,,,,,,,,,,,,,,,,,,,,,,,,,,,,,,,,,,,,,,,,,,131.17785239999648,131.19376710000506,,131.67820209999627,131.69036350000533,131.69374439999228,131.69374439999228,131.69374439999228,135.56112280000525,Objects\189a.jpg,post,n,3.8528243000037037,None,,,,,,,,00024,001,2026-01-20_18h09.57.673,MST_test,2024.2.0,60.22677791332188,2026-01-20 18h10.05.387400 +0530,
4,0,5,n,1.7574137999908999,None,5,0,4,135.5769880000007,,,,,,,,,,,,,,,,,,,,,,,,,,,,,,,,,,,,,,,,,,,,,,,,,,135.56147529999726,135.5769880000007,136.07710080000106,136.06079679999675,136.0712191000057,136.07710080000106,136.07710080000106,136.07710080000106,137.84447929999442,Foils\scenes13.jpg,none,n,1.7574137999908999,None,,,,,,,,00024,001,2026-01-20_18h09.57.673,MST_test,2024.2.0,60.22677791332188,2026-01-20 18h10.05.387400 +0530,
5,0,6,n,1.033800200006226,None,6,0,5,137.86043630000495,,,,,,,,,,,,,,,,,,,,,,,,,,,,,,,,,,,,,,,,,,,,,,,,,,137.84483479999471,137.86043630000495,138.3607187000016,138.34411039999395,138.3536105999956,138.3607187000016,138.3607187000016,138.3607187000016,139.4110093000054,Foils\121a.jpg,none,n,1.033800200006226,None,,,,,,,,00024,001,2026-01-20_18h09.57.673,MST_test,2024.2.0,60.22677791332188,2026-01-20 18h10.05.387400 +0530,
6,0,7,s,4.339332099989406,None,7,0,6,139.42740869999398,,,,,,,,,,,,,,,,,,,,,,,,,,,,,,,,,,,,,,,,,,,,,,,,,,139.41136040000129,139.42740869999398,139.92727139999624,139.91085909999674,139.92385130000184,139.92727139999624,139.92727139999624,139.92727139999624,144.2777322000038,Scenes\071b.jpg,mid,s,4.339332099989406,None,,,,,,,,00024,001,2026-01-20_18h09.57.673,MST_test,2024.2.0,60.22677791332188,2026-01-20 18h10.05.387400 +0530,
7,0,8,o,1.678605699999025,None,8,0,7,144.29356269999698,,,,,,,,,,,,,,,,,,,,,,,,,,,,,,,,,,,,,,,,,,,,,,,,,,144.2781585000048,144.29356269999698,144.82052320000366,144.7774219999992,144.8180302999972,144.82052320000366,144.82052320000366,144.82052320000366,146.51086539999233,Objects\034b.jpg,post,o,1.678605699999025,None,,,,,,,,00024,001,2026-01-20_18h09.57.673,MST_test,2024.2.0,60.22677791332188,2026-01-20 18h10.05.387400 +0530,
8,0,9,o,2.9911381999991136,None,9,0,8,146.52667150000343,,,,,,,,,,,,,,,,,,,,,,,,,,,,,,,,,,,,,,,,,,,,,,,,,,146.5112184000027,146.52667150000343,,147.01144839999324,147.02085489999445,147.02736199999345,147.02736199999345,147.02736199999345,150.02773770000204,Objects\147a.jpg,pre,o,2.9911381999991136,None,,,,,,,,00024,001,2026-01-20_18h09.57.673,MST_test,2024.2.0,60.22677791332188,2026-01-20 18h10.05.387400 +0530,
9,0,10,n,2.361569300002884,None,10,0,9,150.04375159999472,,,,,,,,,,,,,,,,,,,,,,,,,,,,,,,,,,,,,,,,,,,,,,,,,,150.02809439999692,150.04375159999472,150.54514610000479,150.527883200004,150.54238590000023,150.54514610000479,150.54514610000479,150.54514610000479,152.9120086000039,Scenes\004a.jpg,post,n,2.361569300002884,None,,,,,,,,00024,001,2026-01-20_18h09.57.673,MST_test,2024.2.0,60.22677791332188,2026-01-20 18h10.05.387400 +0530,
10,0,11,o,1.3230020000046352,None,11,0,10,152.9269798000023,,,,,,,,,,,,,,,,,,,,,,,,,,,,,,,,,,,,,,,,,,,,,,,,,,152.91236780000327,152.9269798000023,153.43155229999684,153.41058320000593,153.42903739999747,153.43155229999684,153.43155229999684,153.43155229999684,154.76098039999488,Scenes\062a.jpg,mid,o,1.3230020000046352,None,,,,,,,,00024,001,2026-01-20_18h09.57.673,MST_test,2024.2.0,60.22677791332188,2026-01-20 18h10.05.387400 +0530,
11,0,12,o,1.7097362999920733,None,12,0,11,154.77702720000525,,,,,,,,,,,,,,,,,,,,,,,,,,,,,,,,,,,,,,,,,,,,,,,,,,154.76135000000068,154.77702720000525,155.2848737000022,155.26063330000034,155.28206769999815,155.2848737000022,155.2848737000022,155.2848737000022,157.01104009999835,Scenes\032b.jpg,mid,o,1.7097362999920733,None,,,,,,,,00024,001,2026-01-20_18h09.57.673,MST_test,2024.2.0,60.22677791332188,2026-01-20 18h10.05.387400 +0530,
12,0,13,o,1.771571799996309,None,13,0,12,157.0270268000022,,,,,,,,,,,,,,,,,,,,,,,,,,,,,,,,,,,,,,,,,,,,,,,,,,157.01140499999747,157.0270268000022,157.527531300002,157.51083339999605,157.52103580000403,157.527531300002,157.527531300002,157.527531300002,159.31106039999577,Scenes\117a.jpg,mid,o,1.771571799996309,None,,,,,,,,00024,001,2026-01-20_18h09.57.673,MST_test,2024.2.0,60.22677791332188,2026-01-20 18h10.05.387400 +0530,
13,0,14,s,2.633332600002177,None,14,0,13,159.32696239999495,,,,,,,,,,,,,,,,,,,,,,,,,,,,,,,,,,,,,,,,,,,,,,,,,,159.31143760000123,159.32696239999495,159.8574188999919,159.81039359999704,159.85477219999302,159.8574188999919,159.8574188999919,159.8574188999919,162.49415090000548,Scenes\165b.jpg,pre,s,2.633332600002177,None,,,,,,,,00024,001,2026-01-20_18h09.57.673,MST_test,2024.2.0,60.22677791332188,2026-01-20 18h10.05.387400 +0530,
14,0,15,n,2.351238100003684,None,15,0,14,162.5102964999969,,,,,,,,,,,,,,,,,,,,,,,,,,,,,,,,,,,,,,,,,,,,,,,,,,162.49458179999783,162.5102964999969,163.0110774000059,162.99416519999795,163.003057599999,163.0110774000059,163.0110774000059,163.0110774000059,165.37739280000096,Objects\021a.jpg,pre,n,2.351238100003684,None,,,,,,,,00024,001,2026-01-20_18h09.57.673,MST_test,2024.2.0,60.22677791332188,2026-01-20 18h10.05.387400 +0530,
15,0,16,n,1.468338999999105,None,16,0,15,165.39341920000152,,,,,,,,,,,,,,,,,,,,,,,,,,,,,,,,,,,,,,,,,,,,,,,,,,165.37774619999982,165.39341920000152,165.89412539999466,165.87737590000324,165.88657780000358,165.89412539999466,165.89412539999466,165.89412539999466,167.3776455000043,Foils\034a.jpg,none,n,1.468338999999105,None,,,,,,,,00024,001,2026-01-20_18h09.57.673,MST_test,2024.2.0,60.22677791332188,2026-01-20 18h10.05.387400 +0530,
16,0,17,n,1.6520774999953574,None,17,0,16,167.39345350000076,,,,,,,,,,,,,,,,,,,,,,,,,,,,,,,,,,,,,,,,,,,,,,,,,,167.37806639999326,167.39345350000076,167.8943816999963,167.877164000005,167.8836764000007,167.8943816999963,167.8943816999963,167.8943816999963,169.56104770000093,Objects\185b.jpg,post,n,1.6520774999953574,None,,,,,,,,00024,001,2026-01-20_18h09.57.673,MST_test,2024.2.0,60.22677791332188,2026-01-20 18h10.05.387400 +0530,
17,0,18,n,2.2693942000041716,None,18,0,17,169.57697989999724,,,,,,,,,,,,,,,,,,,,,,,,,,,,,,,,,,,,,,,,,,,,,,,,,,169.56139919999987,169.57697989999724,170.07713530000183,170.06081959999574,170.07409650000045,170.07713530000183,170.07713530000183,170.07713530000183,172.36085519999324,Scenes\069a.jpg,post,n,2.2693942000041716,None,,,,,,,,00024,001,2026-01-20_18h09.57.673,MST_test,2024.2.0,60.22677791332188,2026-01-20 18h10.05.387400 +0530,
18,0,19,n,0.8611188999930164,None,19,0,18,172.37683429999743,,,,,,,,,,,,,,,,,,,,,,,,,,,,,,,,,,,,,,,,,,,,,,,,,,172.36121020000428,172.37683429999743,,172.86155259999214,172.8708966999984,172.87745869999344,172.87745869999344,172.87745869999344,173.74459750000096,Foils\082a.jpg,none,n,0.8611188999930164,None,,,,,,,,00024,001,2026-01-20_18h09.57.673,MST_test,2024.2.0,60.22677791332188,2026-01-20 18h10.05.387400 +0530,
19,0,20,s,2.6888977000053274,None,20,0,19,173.76038219999464,,,,,,,,,,,,,,,,,,,,,,,,,,,,,,,,,,,,,,,,,,,,,,,,,,173.7449476000038,173.76038219999464,174.29828380000254,174.24411210000108,174.29570069999318,174.29828380000254,174.29828380000254,174.29828380000254,176.99441909999587,Scenes\115b.jpg,pre,s,2.6888977000053274,None,,,,,,,,00024,001,2026-01-20_18h09.57.673,MST_test,2024.2.0,60.22677791332188,2026-01-20 18h10.05.387400 +0530,
20,0,21,o,1.6836811000102898,None,21,0,20,177.01039359999413,,,,,,,,,,,,,,,,,,,,,,,,,,,,,,,,,,,,,,,,,,,,,,,,,,176.99478649999946,177.01039359999413,177.51082919999317,177.493948000003,177.50379249999241,177.51082919999317,177.51082919999317,177.51082919999317,179.21108530000492,Objects\176a.jpg,mid,o,1.6836811000102898,None,,,,,,,,00024,001,2026-01-20_18h09.57.673,MST_test,2024.2.0,60.22677791332188,2026-01-20 18h10.05.387400 +0530,
21,0,22,o,1.0523767999984557,None,22,0,21,179.2271111000009,,,,,,,,,,,,,,,,,,,,,,,,,,,,,,,,,,,,,,,,,,,,,,,,,,179.21143599999778,179.2271111000009,179.77414140000474,179.7107868000021,179.7717044000019,179.77414140000474,179.77414140000474,179.77414140000474,180.8280153999949,Scenes\125b.jpg,mid,o,1.0523767999984557,None,,,,,,,,00024,001,2026-01-20_18h09.57.673,MST_test,2024.2.0,60.22677791332188,2026-01-20 18h10.05.387400 +0530,
22,0,23,o,1.520905400000629,None,23,0,22,180.8437219000043,,,,,,,,,,,,,,,,,,,,,,,,,,,,,,,,,,,,,,,,,,,,,,,,,,180.8283650999947,180.8437219000043,181.34579180000583,181.32727239999804,181.3430120999983,181.34579180000583,181.34579180000583,181.34579180000583,182.87905069999397,Scenes\103b.jpg,post,o,1.520905400000629,None,,,,,,,,00024,001,2026-01-20_18h09.57.673,MST_test,2024.2.0,60.22677791332188,2026-01-20 18h10.05.387400 +0530,
23,0,24,o,0.9988325999875087,None,24,0,23,182.89377239999885,,,,,,,,,,,,,,,,,,,,,,,,,,,,,,,,,,,,,,,,,,,,,,,,,,182.8794021999929,182.89377239999885,183.39568089999375,183.37747079999826,183.38628779999272,183.39568089999375,183.39568089999375,183.39568089999375,184.4110068000009,Objects\125a.jpg,mid,o,0.9988325999875087,None,,,,,,,,00024,001,2026-01-20_18h09.57.673,MST_test,2024.2.0,60.22677791332188,2026-01-20 18h10.05.387400 +0530,
24,0,25,n,1.3075266999949235,None,25,0,24,184.42707259999588,,,,,,,,,,,,,,,,,,,,,,,,,,,,,,,,,,,,,,,,,,,,,,,,,,184.41135989999748,184.42707259999588,184.92753990000347,184.91065360000357,184.92249019999872,184.92753990000347,184.92753990000347,184.92753990000347,186.2444325999968,Scenes\139b.jpg,pre,n,1.3075266999949235,None,,,,,,,,00024,001,2026-01-20_18h09.57.673,MST_test,2024.2.0,60.22677791332188,2026-01-20 18h10.05.387400 +0530,
25,0,26,n,0.8577363999938825,None,26,0,25,186.26030769999488,,,,,,,,,,,,,,,,,,,,,,,,,,,,,,,,,,,,,,,,,,,,,,,,,,186.24478239999735,186.26030769999488,186.78493880000315,186.74411289999261,186.7824491999927,186.78493880000315,186.78493880000315,186.78493880000315,187.64426309999544,Foils\scenes16.jpg,none,n,0.8577363999938825,None,,,,,,,,00024,001,2026-01-20_18h09.57.673,MST_test,2024.2.0,60.22677791332188,2026-01-20 18h10.05.387400 +0530,
26,0,27,n,1.1940885999938473,None,27,0,26,187.66037260000303,,,,,,,,,,,,,,,,,,,,,,,,,,,,,,,,,,,,,,,,,,,,,,,,,,187.6446122000052,187.66037260000303,188.1605084000039,188.14400479999313,188.15764279999712,188.1605084000039,188.1605084000039,188.1605084000039,189.3607617999951,Scenes\044a.jpg,pre,n,1.1940885999938473,None,,,,,,,,00024,001,2026-01-20_18h09.57.673,MST_test,2024.2.0,60.22677791332188,2026-01-20 18h10.05.387400 +0530,
27,0,28,o,1.2691257999977097,None,28,0,27,189.37715329999628,,,,,,,,,,,,,,,,,,,,,,,,,,,,,,,,,,,,,,,,,,,,,,,,,,189.36117649999505,189.37715329999628,189.90162799999234,189.8607966999989,189.89899719999812,189.90162799999234,189.90162799999234,189.90162799999234,191.17776399999275,Objects\006b.jpg,pre,o,1.2691257999977097,None,,,,,,,,00024,001,2026-01-20_18h09.57.673,MST_test,2024.2.0,60.22677791332188,2026-01-20 18h10.05.387400 +0530,
28,0,29,n,1.6130488000053447,None,29,0,28,191.19371249999676,,,,,,,,,,,,,,,,,,,,,,,,,,,,,,,,,,,,,,,,,,,,,,,,,,191.17818980000447,191.19371249999676,191.69401229999494,191.67747260000033,191.68544739999925,191.69401229999494,191.69401229999494,191.69401229999494,193.31099769999855,Objects\029a.jpg,post,n,1.6130488000053447,None,,,,,,,,00024,001,2026-01-20_18h09.57.673,MST_test,2024.2.0,60.22677791332188,2026-01-20 18h10.05.387400 +0530,
29,0,30,o,1.9137527999992017,None,30,0,29,193.32674309999857,,,,,,,,,,,,,,,,,,,,,,,,,,,,,,,,,,,,,,,,,,,,,,,,,,193.31137280000257,193.32674309999857,193.8413886000053,193.81036619999213,193.83930979999423,193.8413886000053,193.8413886000053,193.8413886000053,195.7609417000058,Objects\017b.jpg,post,o,1.9137527999992017,None,,,,,,,,00024,001,2026-01-20_18h09.57.673,MST_test,2024.2.0,60.22677791332188,2026-01-20 18h10.05.387400 +0530,
30,0,31,n,1.690534099994693,None,31,0,30,195.7767773999949,,,,,,,,,,,,,,,,,,,,,,,,,,,,,,,,,,,,,,,,,,,,,,,,,,195.7612999999983,195.7767773999949,196.28057610000542,196.26091690000612,196.27815749999718,196.28057610000542,196.28057610000542,196.28057610000542,197.9773678999918,Scenes\174b.jpg,pre,n,1.690534099994693,None,,,,,,,,00024,001,2026-01-20_18h09.57.673,MST_test,2024.2.0,60.22677791332188,2026-01-20 18h10.05.387400 +0530,
31,0,32,n,1.628677799992147,None,32,0,31,197.99364960000094,,,,,,,,,,,,,,,,,,,,,,,,,,,,,,,,,,,,,,,,,,,,,,,,,,197.97773759999836,197.99364960000094,198.49436609999975,198.47748430000502,198.48651139999856,198.49436609999975,198.49436609999975,198.49436609999975,200.12781439999526,Objects\169b.jpg,pre,n,1.628677799992147,None,,,,,,,,00024,001,2026-01-20_18h09.57.673,MST_test,2024.2.0,60.22677791332188,2026-01-20 18h10.05.387400 +0530,
32,0,33,o,1.8751877000031527,None,33,0,32,200.14386450000165,,,,,,,,,,,,,,,,,,,,,,,,,,,,,,,,,,,,,,,,,,,,,,,,,,200.12818060000427,200.14386450000165,200.64754340000218,200.62781160000304,200.64512299999478,200.64754340000218,200.64754340000218,200.64754340000218,202.52764899999602,Scenes\003a.jpg,pre,o,1.8751877000031527,None,,,,,,,,00024,001,2026-01-20_18h09.57.673,MST_test,2024.2.0,60.22677791332188,2026-01-20 18h10.05.387400 +0530,
33,0,34,o,0.990730599995004,None,34,0,33,202.54373119999946,,,,,,,,,,,,,,,,,,,,,,,,,,,,,,,,,,,,,,,,,,,,,,,,,,202.52803800000402,202.54373119999946,203.0443088000029,203.02759709999373,203.03488969999307,203.0443088000029,203.0443088000029,203.0443088000029,204.04429570000502,Objects\173a.jpg,pre,o,0.990730599995004,None,,,,,,,,00024,001,2026-01-20_18h09.57.673,MST_test,2024.2.0,60.22677791332188,2026-01-20 18h10.05.387400 +0530,
34,0,35,n,1.930167500002426,None,35,0,34,204.06032059999416,,,,,,,,,,,,,,,,,,,,,,,,,,,,,,,,,,,,,,,,,,,,,,,,,,204.04464459999872,204.06032059999416,,204.5451527999976,204.55199300000095,204.56045079999603,204.56045079999603,204.56045079999603,206.494105699996,Objects\139b.jpg,mid,n,1.930167500002426,None,,,,,,,,00024,001,2026-01-20_18h09.57.673,MST_test,2024.2.0,60.22677791332188,2026-01-20 18h10.05.387400 +0530,
35,0,36,s,3.3315824999881443,None,36,0,35,206.5102074000024,,,,,,,,,,,,,,,,,,,,,,,,,,,,,,,,,,,,,,,,,,,,,,,,,,206.4944553999958,206.5102074000024,207.01497410000593,206.99409350000496,207.01265449999482,207.01497410000593,207.01497410000593,207.01497410000593,210.36221079999814,Scenes\084b.jpg,mid,s,3.3315824999881443,None,,,,,,,,00024,001,2026-01-20_18h09.57.673,MST_test,2024.2.0,60.22677791332188,2026-01-20 18h10.05.387400 +0530,
36,0,37,o,1.389146499990602,None,37,0,36,210.37687449999794,,,,,,,,,,,,,,,,,,,,,,,,,,,,,,,,,,,,,,,,,,,,,,,,,,210.36257100000512,210.37687449999794,210.8776199999993,210.86077240000304,210.86933719999797,210.8776199999993,210.8776199999993,210.8776199999993,212.27881259999413,Objects\038a.jpg,pre,o,1.389146499990602,None,,,,,,,,00024,001,2026-01-20_18h09.57.673,MST_test,2024.2.0,60.22677791332188,2026-01-20 18h10.05.387400 +0530,
37,0,38,s,4.11165869999968,None,38,0,37,212.29343459999654,,,,,,,,,,,,,,,,,,,,,,,,,,,,,,,,,,,,,,,,,,,,,,,,,,212.27916930000356,212.29343459999654,212.79479189999984,212.77745039999718,212.78659519999928,212.79479189999984,212.79479189999984,212.79479189999984,216.91089250000368,Objects\105a.jpg,pre,s,4.11165869999968,None,,,,,,,,00024,001,2026-01-20_18h09.57.673,MST_test,2024.2.0,60.22677791332188,2026-01-20 18h10.05.387400 +0530,
38,0,39,o,1.8253473000077065,None,39,0,38,216.926819100001,,,,,,,,,,,,,,,,,,,,,,,,,,,,,,,,,,,,,,,,,,,,,,,,,,216.9112579999928,216.926819100001,217.45739100000355,217.41074659999867,217.45471479999833,217.45739100000355,217.45739100000355,217.45739100000355,219.2943452000036,Scenes\078b.jpg,pre,o,1.8253473000077065,None,,,,,,,,00024,001,2026-01-20_18h09.57.673,MST_test,2024.2.0,60.22677791332188,2026-01-20 18h10.05.387400 +0530,
39,0,40,o,2.9980359000037424,None,40,0,39,219.3103673000005,,,,,,,,,,,,,,,,,,,,,,,,,,,,,,,,,,,,,,,,,,,,,,,,,,219.29473720000533,219.3103673000005,219.84511609999754,219.79391559999203,219.84215139999287,219.84511609999754,219.84511609999754,219.84511609999754,222.84469759999774,Scenes\086b.jpg,post,o,2.9980359000037424,None,,,,,,,,00024,001,2026-01-20_18h09.57.673,MST_test,2024.2.0,60.22677791332188,2026-01-20 18h10.05.387400 +0530,
40,0,41,o,1.8068768000084674,None,41,0,40,222.86041009999462,,,,,,,,,,,,,,,,,,,,,,,,,,,,,,,,,,,,,,,,,,,,,,,,,,222.84511949999433,222.86041009999462,223.36413249999168,223.3438529999985,223.36202679999406,223.36413249999168,223.36413249999168,223.36413249999168,225.17763520000153,Scenes\094a.jpg,mid,o,1.8068768000084674,None,,,,,,,,00024,001,2026-01-20_18h09.57.673,MST_test,2024.2.0,60.22677791332188,2026-01-20 18h10.05.387400 +0530,
41,0,42,o,0.7151102999923751,None,42,0,41,225.193729000006,,,,,,,,,,,,,,,,,,,,,,,,,,,,,,,,,,,,,,,,,,,,,,,,,,225.17798649999895,225.193729000006,225.69565019999573,225.6773150999943,225.68738889999804,225.69565019999573,225.69565019999573,225.69565019999573,226.42768540000543,Objects\099a.jpg,post,o,0.7151102999923751,None,,,,,,,,00024,001,2026-01-20_18h09.57.673,MST_test,2024.2.0,60.22677791332188,2026-01-20 18h10.05.387400 +0530,
42,0,43,n,1.2642964999977266,None,43,0,42,226.44370689999778,,,,,,,,,,,,,,,,,,,,,,,,,,,,,,,,,,,,,,,,,,,,,,,,,,226.42814129999897,226.44370689999778,226.97036059999664,226.92750589999196,226.9682940000057,226.97036059999664,226.97036059999664,226.97036059999664,228.24398179999844,Objects\102b.jpg,pre,n,1.2642964999977266,None,,,,,,,,00024,001,2026-01-20_18h09.57.673,MST_test,2024.2.0,60.22677791332188,2026-01-20 18h10.05.387400 +0530,
43,0,44,n,1.5824542999907862,None,44,0,43,228.26146629999857,,,,,,,,,,,,,,,,,,,,,,,,,,,,,,,,,,,,,,,,,,,,,,,,,,228.24433459999273,228.26146629999857,,228.76042649999727,228.78592059999937,228.78858599999512,228.78858599999512,228.78858599999512,230.3776474000042,Foils\scenes23.jpg,none,n,1.5824542999907862,None,,,,,,,,00024,001,2026-01-20_18h09.57.673,MST_test,2024.2.0,60.22677791332188,2026-01-20 18h10.05.387400 +0530,
44,0,45,o,1.3006945999950403,None,45,0,44,230.39369880000595,,,,,,,,,,,,,,,,,,,,,,,,,,,,,,,,,,,,,,,,,,,,,,,,,,230.37803449999774,230.39369880000595,230.9179191000003,230.87745270000596,230.91495789999317,230.9179191000003,230.9179191000003,230.9179191000003,232.2274524999957,Objects\005b.jpg,mid,o,1.3006945999950403,None,,,,,,,,00024,001,2026-01-20_18h09.57.673,MST_test,2024.2.0,60.22677791332188,2026-01-20 18h10.05.387400 +0530,
45,0,46,o,1.018918500005384,None,46,0,45,232.24334630000521,,,,,,,,,,,,,,,,,,,,,,,,,,,,,,,,,,,,,,,,,,,,,,,,,,232.2278113999928,232.24334630000521,232.74370449999697,232.72726669999247,232.73547790000157,232.74370449999697,232.74370449999697,232.74370449999697,233.777534199995,Objects\067a.jpg,post,o,1.018918500005384,None,,,,,,,,00024,001,2026-01-20_18h09.57.673,MST_test,2024.2.0,60.22677791332188,2026-01-20 18h10.05.387400 +0530,
46,0,47,n,1.2685964999982389,None,47,0,46,233.79380729999684,,,,,,,,,,,,,,,,,,,,,,,,,,,,,,,,,,,,,,,,,,,,,,,,,,233.77786499999638,233.79380729999684,234.29383640000015,234.27748210000573,234.28545139999187,234.29383640000015,234.29383640000015,234.29383640000015,235.5779765000043,Objects\094a.jpg,post,n,1.2685964999982389,None,,,,,,,,00024,001,2026-01-20_18h09.57.673,MST_test,2024.2.0,60.22677791332188,2026-01-20 18h10.05.387400 +0530,
47,0,48,o,5.556837600001018,None,48,0,47,235.59386839999934,,,,,,,,,,,,,,,,,,,,,,,,,,,,,,,,,,,,,,,,,,,,,,,,,,235.57843510000384,235.59386839999934,236.0942473000032,236.07738649999374,236.08451519999653,236.0942473000032,236.0942473000032,236.0942473000032,241.66105280000193,Foils\scenes19.jpg,none,o,5.556837600001018,None,,,,,,,,00024,001,2026-01-20_18h09.57.673,MST_test,2024.2.0,60.22677791332188,2026-01-20 18h10.05.387400 +0530,
48,0,49,n,0.9585846999980276,None,49,0,48,241.6778895000025,,,,,,,,,,,,,,,,,,,,,,,,,,,,,,,,,,,,,,,,,,,,,,,,,,241.66140799999994,241.6778895000025,242.18772410000383,242.16090160000022,242.18516769999405,242.18772410000383,242.18772410000383,242.18772410000383,243.16104589999304,Foils\scenes28.jpg,none,n,0.9585846999980276,None,,,,,,,,00024,001,2026-01-20_18h09.57.673,MST_test,2024.2.0,60.22677791332188,2026-01-20 18h10.05.387400 +0530,
49,0,50,o,0.8218365000066115,None,50,0,49,243.1770017999952,,,,,,,,,,,,,,,,,,,,,,,,,,,,,,,,,,,,,,,,,,,,,,,,,,243.16141679999419,243.1770017999952,243.69319439999526,243.6611993999977,243.690268499995,243.69319439999526,243.69319439999526,243.69319439999526,244.52765639999416,Objects\175b.jpg,mid,o,0.8218365000066115,None,,,,,,,,00024,001,2026-01-20_18h09.57.673,MST_test,2024.2.0,60.22677791332188,2026-01-20 18h10.05.387400 +0530,
50,0,51,n,1.3092142999958014,None,51,0,50,244.54405789999873,,,,,,,,,,,,,,,,,,,,,,,,,,,,,,,,,,,,,,,,,,,,,,,,,,244.5280083999969,244.54405789999873,245.07745440000144,245.02743580000242,245.07532340000034,245.07745440000144,245.07745440000144,245.07745440000144,246.39409400000295,Foils\086a.jpg,none,n,1.3092142999958014,None,,,,,,,,00024,001,2026-01-20_18h09.57.673,MST_test,2024.2.0,60.22677791332188,2026-01-20 18h10.05.387400 +0530,
51,0,52,o,1.0323786999942968,None,52,0,51,246.4103846999933,,,,,,,,,,,,,,,,,,,,,,,,,,,,,,,,,,,,,,,,,,,,,,,,,,246.39444629999343,246.4103846999933,246.91400520000025,246.8940988999966,246.91159109999717,246.91400520000025,246.91400520000025,246.91400520000025,247.96191919999546,Scenes\070a.jpg,mid,o,1.0323786999942968,None,,,,,,,,00024,001,2026-01-20_18h09.57.673,MST_test,2024.2.0,60.22677791332188,2026-01-20 18h10.05.387400 +0530,
52,0,53,n,1.0422884999861708,None,53,0,52,247.97706180000387,,,,,,,,,,,,,,,,,,,,,,,,,,,,,,,,,,,,,,,,,,,,,,,,,,247.96228110000084,247.97706180000387,248.4962940999976,248.46060199999192,248.4938286999968,248.4962940999976,248.4962940999976,248.4962940999976,249.54440810000233,Objects\069b.jpg,pre,n,1.0422884999861708,None,,,,,,,,00024,001,2026-01-20_18h09.57.673,MST_test,2024.2.0,60.22677791332188,2026-01-20 18h10.05.387400 +0530,
53,0,54,n,1.632514800003264,None,54,0,53,249.56035430000338,,,,,,,,,,,,,,,,,,,,,,,,,,,,,,,,,,,,,,,,,,,,,,,,,,249.5447669999994,249.56035430000338,250.10590090000187,250.04411410000466,250.1032217000029,250.10590090000187,250.10590090000187,250.10590090000187,251.74446430000535,Foils\074a.jpg,none,n,1.632514800003264,None,,,,,,,,00024,001,2026-01-20_18h09.57.673,MST_test,2024.2.0,60.22677791332188,2026-01-20 18h10.05.387400 +0530,
54,0,55,o,1.0610752999928081,None,55,0,54,251.76038819999667,,,,,,,,,,,,,,,,,,,,,,,,,,,,,,,,,,,,,,,,,,,,,,,,,,251.74479369999608,251.76038819999667,252.38207209999382,252.24435310000263,252.37974410000606,252.38207209999382,252.38207209999382,252.38207209999382,253.44466120000288,Scenes\021b.jpg,post,o,1.0610752999928081,None,,,,,,,,00024,001,2026-01-20_18h09.57.673,MST_test,2024.2.0,60.22677791332188,2026-01-20 18h10.05.387400 +0530,
55,0,56,n,1.2820205000025453,None,56,0,55,253.46038309999858,,,,,,,,,,,,,,,,,,,,,,,,,,,,,,,,,,,,,,,,,,,,,,,,,,253.44501880000462,253.46038309999858,253.96101009999984,253.94392499999958,253.9506534999964,253.96101009999984,253.96101009999984,253.96101009999984,255.24462759999733,Foils\scenes7.jpg,none,n,1.2820205000025453,None,,,,,,,,00024,001,2026-01-20_18h09.57.673,MST_test,2024.2.0,60.22677791332188,2026-01-20 18h10.05.387400 +0530,
56,0,57,n,2.3573215999931563,None,57,0,56,255.25998839999374,,,,,,,,,,,,,,,,,,,,,,,,,,,,,,,,,,,,,,,,,,,,,,,,,,255.24497919999703,255.25998839999374,255.7892162999924,255.74412800000573,255.78691520000575,255.7892162999924,255.7892162999924,255.7892162999924,258.16098970000166,Scenes\178b.jpg,post,n,2.3573215999931563,None,,,,,,,,00024,001,2026-01-20_18h09.57.673,MST_test,2024.2.0,60.22677791332188,2026-01-20 18h10.05.387400 +0530,
57,0,58,o,1.0376143000030424,None,58,0,57,258.17709070000274,,,,,,,,,,,,,,,,,,,,,,,,,,,,,,,,,,,,,,,,,,,,,,,,,,258.16136830000323,258.17709070000274,258.6775220999989,258.6611092999956,258.6696130000055,258.6775220999989,258.6775220999989,258.6775220999989,259.72780639999837,Objects\075b.jpg,mid,o,1.0376143000030424,None,,,,,,,,00024,001,2026-01-20_18h09.57.673,MST_test,2024.2.0,60.22677791332188,2026-01-20 18h10.05.387400 +0530,
58,0,59,o,1.4137557000067318,None,59,0,58,259.7437343000056,,,,,,,,,,,,,,,,,,,,,,,,,,,,,,,,,,,,,,,,,,,,,,,,,,259.72816699999385,259.7437343000056,260.2450314000016,260.2279666999966,260.23645129999204,260.2450314000016,260.2450314000016,260.2450314000016,261.66077139999834,Objects\154a.jpg,mid,o,1.4137557000067318,None,,,,,,,,00024,001,2026-01-20_18h09.57.673,MST_test,2024.2.0,60.22677791332188,2026-01-20 18h10.05.387400 +0530,
59,0,60,o,0.934687799992389,None,60,0,59,261.676816399995,,,,,,,,,,,,,,,,,,,,,,,,,,,,,,,,,,,,,,,,,,,,,,,,,,261.66113239999686,261.676816399995,262.21161509999365,262.16075369999453,262.20914029999403,262.21161509999365,262.21161509999365,262.21161509999365,263.1621778999979,Scenes\173b.jpg,mid,o,0.934687799992389,None,,,,,,,,00024,001,2026-01-20_18h09.57.673,MST_test,2024.2.0,60.22677791332188,2026-01-20 18h10.05.387400 +0530,
60,0,61,o,1.3688308999990113,None,61,0,60,263.1768288000021,,,,,,,,,,,,,,,,,,,,,,,,,,,,,,,,,,,,,,,,,,,,,,,,,,263.1625316999998,263.1768288000021,263.69775940000545,263.6610030000011,263.6953605000017,263.69775940000545,263.69775940000545,263.69775940000545,265.0776928999985,Objects\165b.jpg,post,o,1.3688308999990113,None,,,,,,,,00024,001,2026-01-20_18h09.57.673,MST_test,2024.2.0,60.22677791332188,2026-01-20 18h10.05.387400 +0530,
61,0,62,s,2.8979095999966376,None,62,0,61,265.0937183999922,,,,,,,,,,,,,,,,,,,,,,,,,,,,,,,,,,,,,,,,,,,,,,,,,,265.07804629999737,265.0937183999922,265.6090509999922,265.5775821999996,265.6069351000042,265.6090509999922,265.6090509999922,265.6090509999922,268.51091359999555,Objects\084b.jpg,pre,s,2.8979095999966376,None,,,,,,,,00024,001,2026-01-20_18h09.57.673,MST_test,2024.2.0,60.22677791332188,2026-01-20 18h10.05.387400 +0530,
62,0,63,o,2.143812499998603,None,63,0,62,268.52693189999263,,,,,,,,,,,,,,,,,,,,,,,,,,,,,,,,,,,,,,,,,,,,,,,,,,268.511284799999,268.52693189999263,269.0271886999981,269.0108772999956,269.02026629999455,269.0271886999981,269.0271886999981,269.0271886999981,271.17753169999924,Objects\089b.jpg,mid,o,2.143812499998603,None,,,,,,,,00024,001,2026-01-20_18h09.57.673,MST_test,2024.2.0,60.22677791332188,2026-01-20 18h10.05.387400 +0530,
63,0,64,s,1.7711923000024399,None,64,0,63,271.1934567999997,,,,,,,,,,,,,,,,,,,,,,,,,,,,,,,,,,,,,,,,,,,,,,,,,,271.1779128000053,271.1934567999997,271.69581829999515,271.6772721000016,271.69304810000176,271.69581829999515,271.69581829999515,271.69581829999515,273.4776611999987,Scenes\131a.jpg,post,s,1.7711923000024399,None,,,,,,,,00024,001,2026-01-20_18h09.57.673,MST_test,2024.2.0,60.22677791332188,2026-01-20 18h10.05.387400 +0530,
64,0,65,n,1.584212200003094,None,65,0,64,273.4935516999976,,,,,,,,,,,,,,,,,,,,,,,,,,,,,,,,,,,,,,,,,,,,,,,,,,273.4781279000017,273.4935516999976,273.99409059999743,273.9773026000039,273.98579930000415,273.99409059999743,273.99409059999743,273.99409059999743,275.5945720000018,Foils\scenes5.jpg,none,n,1.584212200003094,None,,,,,,,,00024,001,2026-01-20_18h09.57.673,MST_test,2024.2.0,60.22677791332188,2026-01-20 18h10.05.387400 +0530,
65,0,66,s,1.9928378999902634,None,66,0,65,275.61060489999363,,,,,,,,,,,,,,,,,,,,,,,,,,,,,,,,,,,,,,,,,,,,,,,,,,275.59504030000244,275.61060489999363,276.1376486999943,276.0939500999957,276.13538490000064,276.1376486999943,276.1376486999943,276.1376486999943,278.1443276999926,Scenes\184b.jpg,post,s,1.9928378999902634,None,,,,,,,,00024,001,2026-01-20_18h09.57.673,MST_test,2024.2.0,60.22677791332188,2026-01-20 18h10.05.387400 +0530,
66,0,67,o,1.4943555000063498,None,67,0,66,278.1602531999961,,,,,,,,,,,,,,,,,,,,,,,,,,,,,,,,,,,,,,,,,,,,,,,,,,278.1447691999929,278.1602531999961,278.6606318999984,278.643834100003,278.65142840000044,278.6606318999984,278.6606318999984,278.6606318999984,280.1610655999975,Objects\146a.jpg,pre,o,1.4943555000063498,None,,,,,,,,00024,001,2026-01-20_18h09.57.673,MST_test,2024.2.0,60.22677791332188,2026-01-20 18h10.05.387400 +0530,
67,0,68,n,1.3015145999961533,None,68,0,67,280.17700189999596,,,,,,,,,,,,,,,,,,,,,,,,,,,,,,,,,,,,,,,,,,,,,,,,,,280.1614161000034,280.17700189999596,280.67713959999674,280.6609904999932,280.6706680000061,280.67713959999674,280.67713959999674,280.67713959999674,281.99571030000516,Objects\070b.jpg,post,n,1.3015145999961533,None,,,,,,,,00024,001,2026-01-20_18h09.57.673,MST_test,2024.2.0,60.22677791332188,2026-01-20 18h10.05.387400 +0530,
68,0,69,s,1.9436556000000564,None,69,0,68,282.0103974999947,,,,,,,,,,,,,,,,,,,,,,,,,,,,,,,,,,,,,,,,,,,,,,,,,,281.9960798999964,282.0103974999947,282.5466618999926,282.4939633000031,282.5438995000004,282.5466618999926,282.5466618999926,282.5466618999926,284.4943159999966,Scenes\133b.jpg,pre,s,1.9436556000000564,None,,,,,,,,00024,001,2026-01-20_18h09.57.673,MST_test,2024.2.0,60.22677791332188,2026-01-20 18h10.05.387400 +0530,
69,0,70,s,1.8619132000021636,None,70,0,69,284.5104464000033,,,,,,,,,,,,,,,,,,,,,,,,,,,,,,,,,,,,,,,,,,,,,,,,,,284.4947325999965,284.5104464000033,285.0370047000033,284.9941819999949,285.0342779999919,285.0370047000033,285.0370047000033,285.0370047000033,286.9110259000008,Objects\037b.jpg,post,s,1.8619132000021636,None,,,,,,,,00024,001,2026-01-20_18h09.57.673,MST_test,2024.2.0,60.22677791332188,2026-01-20 18h10.05.387400 +0530,
70,0,71,o,4.871261599997524,None,71,0,70,286.9270508000045,,,,,,,,,,,,,,,,,,,,,,,,,,,,,,,,,,,,,,,,,,,,,,,,,,286.91140019999875,286.9270508000045,287.42697469999257,287.4106935000018,287.419865799995,287.42697469999257,287.42697469999257,287.42697469999257,292.31077890000597,Objects\128b.jpg,pre,o,4.871261599997524,None,,,,,,,,00024,001,2026-01-20_18h09.57.673,MST_test,2024.2.0,60.22677791332188,2026-01-20 18h10.05.387400 +0530,
71,0,72,n,1.2912383000075351,None,72,0,71,292.32700010000553,,,,,,,,,,,,,,,,,,,,,,,,,,,,,,,,,,,,,,,,,,,,,,,,,,292.31114360000356,292.32700010000553,292.84736580000026,292.8108926999994,292.8453484999918,292.84736580000026,292.84736580000026,292.84736580000026,294.14412650000304,Objects\023b.jpg,post,n,1.2912383000075351,None,,,,,,,,00024,001,2026-01-20_18h09.57.673,MST_test,2024.2.0,60.22677791332188,2026-01-20 18h10.05.387400 +0530,
72,0,73,o,2.045988899990334,None,73,0,72,294.16008459999284,,,,,,,,,,,,,,,,,,,,,,,,,,,,,,,,,,,,,,,,,,,,,,,,,,294.14455470000394,294.16008459999284,294.660421099994,294.6436665999936,294.651500699998,294.660421099994,294.660421099994,294.660421099994,296.71103259999654,Objects\143a.jpg,pre,o,2.045988899990334,None,,,,,,,,00024,001,2026-01-20_18h09.57.673,MST_test,2024.2.0,60.22677791332188,2026-01-20 18h10.05.387400 +0530,
73,0,74,s,3.86651009999332,None,74,0,73,296.72705210000277,,,,,,,,,,,,,,,,,,,,,,,,,,,,,,,,,,,,,,,,,,,,,,,,,,296.71138280000014,296.72705210000277,297.2565651000041,297.21087320000515,297.25315799999225,297.2565651000041,297.2565651000041,297.2565651000041,301.12772770000447,Scenes\097b.jpg,pre,s,3.86651009999332,None,,,,,,,,00024,001,2026-01-20_18h09.57.673,MST_test,2024.2.0,60.22677791332188,2026-01-20 18h10.05.387400 +0530,
74,0,75,n,2.3824237000080757,None,75,0,74,301.1436924000009,,,,,,,,,,,,,,,,,,,,,,,,,,,,,,,,,,,,,,,,,,,,,,,,,,301.1281646999996,301.1436924000009,301.643754299992,301.62739500000316,301.6323268999986,301.643754299992,301.643754299992,301.643754299992,304.027181700003,Objects\061b.jpg,mid,n,2.3824237000080757,None,,,,,,,,00024,001,2026-01-20_18h09.57.673,MST_test,2024.2.0,60.22677791332188,2026-01-20 18h10.05.387400 +0530,
75,0,76,s,1.2683676000015112,None,76,0,75,304.04316099999414,,,,,,,,,,,,,,,,,,,,,,,,,,,,,,,,,,,,,,,,,,,,,,,,,,304.02753959999245,304.04316099999414,304.5666129000019,304.52744520000124,304.56406920000154,304.5666129000019,304.5666129000019,304.5666129000019,305.8443724999961,Foils\scenes17.jpg,none,s,1.2683676000015112,None,,,,,,,,00024,001,2026-01-20_18h09.57.673,MST_test,2024.2.0,60.22677791332188,2026-01-20 18h10.05.387400 +0530,
76,0,77,s,1.7501606000005268,None,77,0,76,305.86073440000473,,,,,,,,,,,,,,,,,,,,,,,,,,,,,,,,,,,,,,,,,,,,,,,,,,305.844740600005,305.86073440000473,,306.3451861999929,306.3626860999939,306.36483540000336,306.36483540000336,306.36483540000336,308.1277192999987,Scenes\090a.jpg,post,s,1.7501606000005268,None,,,,,,,,00024,001,2026-01-20_18h09.57.673,MST_test,2024.2.0,60.22677791332188,2026-01-20 18h10.05.387400 +0530,
77,0,78,n,1.213855499998317,None,78,0,77,308.1439318000048,,,,,,,,,,,,,,,,,,,,,,,,,,,,,,,,,,,,,,,,,,,,,,,,,,308.12808100000257,308.1439318000048,,308.62797970000247,308.67301929999667,308.6766101999965,308.6766101999965,308.6766101999965,309.89427160000196,Scenes\142b.jpg,pre,n,1.213855499998317,None,,,,,,,,00024,001,2026-01-20_18h09.57.673,MST_test,2024.2.0,60.22677791332188,2026-01-20 18h10.05.387400 +0530,
78,0,79,o,1.2884525999979815,None,79,0,78,309.9101545000012,,,,,,,,,,,,,,,,,,,,,,,,,,,,,,,,,,,,,,,,,,,,,,,,,,309.8946423000016,309.9101545000012,310.4104965000006,310.3946377999964,310.406293299995,310.4104965000006,310.4104965000006,310.4104965000006,311.71108160000585,Objects\083a.jpg,mid,o,1.2884525999979815,None,,,,,,,,00024,001,2026-01-20_18h09.57.673,MST_test,2024.2.0,60.22677791332188,2026-01-20 18h10.05.387400 +0530,
79,0,80,o,0.8306563000078313,None,80,0,79,311.7266646999924,,,,,,,,,,,,,,,,,,,,,,,,,,,,,,,,,,,,,,,,,,,,,,,,,,311.7114389000053,311.7266646999924,312.2278745999938,312.2107248999964,312.2189001999941,312.2278745999938,312.2278745999938,312.2278745999938,313.06064490000426,Objects\001a.jpg,pre,o,0.8306563000078313,None,,,,,,,,00024,001,2026-01-20_18h09.57.673,MST_test,2024.2.0,60.22677791332188,2026-01-20 18h10.05.387400 +0530,
80,0,81,o,2.4100047999963863,None,81,0,80,313.07716469999286,,,,,,,,,,,,,,,,,,,,,,,,,,,,,,,,,,,,,,,,,,,,,,,,,,313.06099969999923,313.07716469999286,313.57748459999857,313.5607740999985,313.57519400000456,313.57748459999857,313.57748459999857,313.57748459999857,315.99437699999544,Scenes\075a.jpg,mid,o,2.4100047999963863,None,,,,,,,,00024,001,2026-01-20_18h09.57.673,MST_test,2024.2.0,60.22677791332188,2026-01-20 18h10.05.387400 +0530,
81,0,82,o,0.8683671000035247,None,82,0,81,316.0101419999992,,,,,,,,,,,,,,,,,,,,,,,,,,,,,,,,,,,,,,,,,,,,,,,,,,315.9947242000053,316.0101419999992,316.5424894000025,316.49419409999973,316.53901239999686,316.5424894000025,316.5424894000025,316.5424894000025,317.4277254000044,Scenes\065b.jpg,pre,o,0.8683671000035247,None,,,,,,,,00024,001,2026-01-20_18h09.57.673,MST_test,2024.2.0,60.22677791332188,2026-01-20 18h10.05.387400 +0530,
82,0,83,s,1.8577890000015032,None,83,0,82,317.4435112999927,,,,,,,,,,,,,,,,,,,,,,,,,,,,,,,,,,,,,,,,,,,,,,,,,,317.4281620999973,317.4435112999927,317.977226899995,317.92752470000414,317.9747248000058,317.977226899995,317.977226899995,317.977226899995,319.8448047999991,Objects\050b.jpg,mid,s,1.8577890000015032,None,,,,,,,,00024,001,2026-01-20_18h09.57.673,MST_test,2024.2.0,60.22677791332188,2026-01-20 18h10.05.387400 +0530,
83,0,84,s,3.402071699994849,None,84,0,83,319.860394000003,,,,,,,,,,,,,,,,,,,,,,,,,,,,,,,,,,,,,,,,,,,,,,,,,,319.8451369999966,319.860394000003,320.3606284999987,320.34383179999713,320.3525968000031,320.3606284999987,320.3606284999987,320.3606284999987,323.7785695999919,Objects\107a.jpg,mid,s,3.402071699994849,None,,,,,,,,00024,001,2026-01-20_18h09.57.673,MST_test,2024.2.0,60.22677791332188,2026-01-20 18h10.05.387400 +0530,
84,0,85,s,2.2079675999993924,None,85,0,84,323.7934788999992,,,,,,,,,,,,,,,,,,,,,,,,,,,,,,,,,,,,,,,,,,,,,,,,,,323.7788064000051,323.7934788999992,324.2989873000042,324.2769855999941,324.2965092999948,324.2989873000042,324.2989873000042,324.2989873000042,326.5122205999942,Scenes\124a.jpg,pre,s,2.2079675999993924,None,,,,,,,,00024,001,2026-01-20_18h09.57.673,MST_test,2024.2.0,60.22677791332188,2026-01-20 18h10.05.387400 +0530,
85,0,86,o,1.0968862999870908,None,86,0,85,326.5267785000033,,,,,,,,,,,,,,,,,,,,,,,,,,,,,,,,,,,,,,,,,,,,,,,,,,326.512627300006,326.5267785000033,327.0335468999983,327.0113030999928,327.03098739999405,327.0335468999983,327.0335468999983,327.0335468999983,328.1444441000058,Scenes\102a.jpg,mid,o,1.0968862999870908,None,,,,,,,,00024,001,2026-01-20_18h09.57.673,MST_test,2024.2.0,60.22677791332188,2026-01-20 18h10.05.387400 +0530,
86,0,87,o,1.0697320000035688,None,87,0,86,328.16088900000614,,,,,,,,,,,,,,,,,,,,,,,,,,,,,,,,,,,,,,,,,,,,,,,,,,328.14479530000244,328.16088900000614,328.6608819999965,328.6439437999943,328.6538530999969,328.6608819999965,328.6608819999965,328.6608819999965,329.7444252999994,Scenes\018a.jpg,post,o,1.0697320000035688,None,,,,,,,,00024,001,2026-01-20_18h09.57.673,MST_test,2024.2.0,60.22677791332188,2026-01-20 18h10.05.387400 +0530,
87,0,88,o,0.9334640000015497,None,88,0,87,329.7601069999946,,,,,,,,,,,,,,,,,,,,,,,,,,,,,,,,,,,,,,,,,,,,,,,,,,329.7447711999994,329.7601069999946,330.26075459999265,330.2441368,330.25557090000075,330.26075459999265,330.26075459999265,330.26075459999265,331.2111380999995,Objects\157b.jpg,mid,o,0.9334640000015497,None,,,,,,,,00024,001,2026-01-20_18h09.57.673,MST_test,2024.2.0,60.22677791332188,2026-01-20 18h10.05.387400 +0530,
88,0,89,o,0.9070053999894299,None,89,0,88,331.2271156000061,,,,,,,,,,,,,,,,,,,,,,,,,,,,,,,,,,,,,,,,,,,,,,,,,,331.2114811999927,331.2271156000061,331.7273384,331.71115109999664,331.72465669999656,331.7273384,331.7273384,331.7273384,332.6441327999928,Scenes\149a.jpg,pre,o,0.9070053999894299,None,,,,,,,,00024,001,2026-01-20_18h09.57.673,MST_test,2024.2.0,60.22677791332188,2026-01-20 18h10.05.387400 +0530,
89,0,90,o,0.8367300999962026,None,90,0,89,332.66012509999564,,,,,,,,,,,,,,,,,,,,,,,,,,,,,,,,,,,,,,,,,,,,,,,,,,332.64447509999445,332.66012509999564,333.18971330000204,333.14415480000025,333.18767410000146,333.18971330000204,333.18971330000204,333.18971330000204,334.02797719999216,Scenes\106b.jpg,pre,o,0.8367300999962026,None,,,,,,,,00024,001,2026-01-20_18h09.57.673,MST_test,2024.2.0,60.22677791332188,2026-01-20 18h10.05.387400 +0530,
90,0,91,n,1.2801742999872658,None,91,0,90,334.0437799999927,,,,,,,,,,,,,,,,,,,,,,,,,,,,,,,,,,,,,,,,,,,,,,,,,,334.0283200999984,334.0437799999927,334.546268399994,334.5275423999992,334.54375260000234,334.546268399994,334.546268399994,334.546268399994,335.8279048999975,Scenes\129b.jpg,mid,n,1.2801742999872658,None,,,,,,,,00024,001,2026-01-20_18h09.57.673,MST_test,2024.2.0,60.22677791332188,2026-01-20 18h10.05.387400 +0530,
91,0,92,o,0.9751009000028716,None,92,0,91,335.8435075000016,,,,,,,,,,,,,,,,,,,,,,,,,,,,,,,,,,,,,,,,,,,,,,,,,,335.82824360000086,335.8435075000016,336.37925139999425,336.32739890000084,336.3764972999925,336.37925139999425,336.37925139999425,336.37925139999425,337.36079950000567,Scenes\092b.jpg,post,o,0.9751009000028716,None,,,,,,,,00024,001,2026-01-20_18h09.57.673,MST_test,2024.2.0,60.22677791332188,2026-01-20 18h10.05.387400 +0530,
92,0,93,n,1.1638792000012472,None,93,0,92,337.3779973000055,,,,,,,,,,,,,,,,,,,,,,,,,,,,,,,,,,,,,,,,,,,,,,,,,,337.3612246999983,337.3779973000055,337.9664109000005,337.86093280000205,337.963631599996,337.9664109000005,337.9664109000005,337.9664109000005,339.144604400004,Objects\011b.jpg,mid,n,1.1638792000012472,None,,,,,,,,00024,001,2026-01-20_18h09.57.673,MST_test,2024.2.0,60.22677791332188,2026-01-20 18h10.05.387400 +0530,
93,0,94,n,1.0058123000053456,None,94,0,93,339.1599941000022,,,,,,,,,,,,,,,,,,,,,,,,,,,,,,,,,,,,,,,,,,,,,,,,,,339.1449825000018,339.1599941000022,339.66043839999475,339.6448528000037,339.65564129999257,339.66043839999475,339.66043839999475,339.66043839999475,340.67775420000544,Scenes\016a.jpg,pre,n,1.0058123000053456,None,,,,,,,,00024,001,2026-01-20_18h09.57.673,MST_test,2024.2.0,60.22677791332188,2026-01-20 18h10.05.387400 +0530,
94,0,95,o,1.3734370000020135,None,95,0,94,340.69386820000364,,,,,,,,,,,,,,,,,,,,,,,,,,,,,,,,,,,,,,,,,,,,,,,,,,340.6781592000043,340.69386820000364,341.2212620999926,341.1772052000015,341.2187133999978,341.2212620999926,341.2212620999926,341.2212620999926,342.610706499996,Scenes\023b.jpg,pre,o,1.3734370000020135,None,,,,,,,,00024,001,2026-01-20_18h09.57.673,MST_test,2024.2.0,60.22677791332188,2026-01-20 18h10.05.387400 +0530,
95,0,96,n,1.8387692000105744,None,96,0,95,342.62694689999626,,,,,,,,,,,,,,,,,,,,,,,,,,,,,,,,,,,,,,,,,,,,,,,,,,342.61104879999766,342.62694689999626,343.1317280999938,343.11063470000227,343.12873769999715,343.1317280999938,343.1317280999938,343.1317280999938,344.9800458999962,Foils\scenes22.jpg,none,n,1.8387692000105744,None,,,,,,,,00024,001,2026-01-20_18h09.57.673,MST_test,2024.2.0,60.22677791332188,2026-01-20 18h10.05.387400 +0530,
96,0,97,o,1.8444140999927185,None,97,0,96,344.9935155999992,,,,,,,,,,,,,,,,,,,,,,,,,,,,,,,,,,,,,,,,,,,,,,,,,,344.9803957999975,344.9935155999992,345.4945129999978,345.47754229999555,345.485986700005,345.4945129999978,345.4945129999978,345.4945129999978,347.3443883,Objects\184a.jpg,mid,o,1.8444140999927185,None,,,,,,,,00024,001,2026-01-20_18h09.57.673,MST_test,2024.2.0,60.22677791332188,2026-01-20 18h10.05.387400 +0530,
97,0,98,o,1.6463970000040717,None,98,0,97,347.3603621999937,,,,,,,,,,,,,,,,,,,,,,,,,,,,,,,,,,,,,,,,,,,,,,,,,,347.3447271000041,347.3603621999937,347.86061699999846,347.84420419999515,347.8526319999946,347.86061699999846,347.86061699999846,347.86061699999846,349.51074539999536,Objects\130a.jpg,mid,o,1.6463970000040717,None,,,,,,,,00024,001,2026-01-20_18h09.57.673,MST_test,2024.2.0,60.22677791332188,2026-01-20 18h10.05.387400 +0530,
98,0,99,n,1.2949480999959633,None,99,0,98,349.5271555999934,,,,,,,,,,,,,,,,,,,,,,,,,,,,,,,,,,,,,,,,,,,,,,,,,,349.51111229999515,349.5271555999934,350.0273528999969,350.01077059999807,350.02046430000337,350.0273528999969,350.0273528999969,350.0273528999969,351.32794429999194,Foils\105a.jpg,none,n,1.2949480999959633,None,,,,,,,,00024,001,2026-01-20_18h09.57.673,MST_test,2024.2.0,60.22677791332188,2026-01-20 18h10.05.387400 +0530,
99,0,100,n,0.7331375999929151,None,100,0,99,351.34378739999374,,,,,,,,,,,,,,,,,,,,,,,,,,,,,,,,,,,,,,,,,,,,,,,,,,351.32829580000544,351.34378739999374,351.8452207999944,351.8274797000049,351.83479100000113,351.8452207999944,351.8452207999944,351.8452207999944,352.5944230000023,Foils\113a.jpg,none,n,0.7331375999929151,None,,,,,,,,00024,001,2026-01-20_18h09.57.673,MST_test,2024.2.0,60.22677791332188,2026-01-20 18h10.05.387400 +0530,
100,0,101,n,1.443198000008124,None,101,0,100,352.61018909999984,,,,,,,,,,,,,,,,,,,,,,,,,,,,,,,,,,,,,,,,,,,,,,,,,,352.59488439999404,352.61018909999984,353.13515119999647,353.09421609999845,353.1326695000025,353.13515119999647,353.13515119999647,353.13515119999647,354.59418580000056,Scenes\156b.jpg,mid,n,1.443198000008124,None,,,,,,,,00024,001,2026-01-20_18h09.57.673,MST_test,2024.2.0,60.22677791332188,2026-01-20 18h10.05.387400 +0530,
101,0,102,n,1.5473242000007303,None,102,0,101,354.6101553000044,,,,,,,,,,,,,,,,,,,,,,,,,,,,,,,,,,,,,,,,,,,,,,,,,,354.5945331999974,354.6101553000044,355.1116777999996,355.09416330000386,355.1095853000006,355.1116777999996,355.1116777999996,355.1116777999996,356.6607079999958,Scenes\143b.jpg,mid,n,1.5473242000007303,None,,,,,,,,00024,001,2026-01-20_18h09.57.673,MST_test,2024.2.0,60.22677791332188,2026-01-20 18h10.05.387400 +0530,
102,0,103,n,2.4090059000009205,None,103,0,102,356.6770122000016,,,,,,,,,,,,,,,,,,,,,,,,,,,,,,,,,,,,,,,,,,,,,,,,,,356.661050900002,356.6770122000016,357.1773976999975,357.16088019999734,357.17434919999505,357.1773976999975,357.1773976999975,357.1773976999975,359.5944567999977,Scenes\039a.jpg,mid,n,2.4090059000009205,None,,,,,,,,00024,001,2026-01-20_18h09.57.673,MST_test,2024.2.0,60.22677791332188,2026-01-20 18h10.05.387400 +0530,
103,0,104,o,1.7153789000003599,None,104,0,103,359.6103063000046,,,,,,,,,,,,,,,,,,,,,,,,,,,,,,,,,,,,,,,,,,,,,,,,,,359.59490569999616,359.6103063000046,360.1109163999936,360.09414169999945,360.10519089999434,360.1109163999936,360.1109163999936,360.1109163999936,361.82771889999276,Scenes\036a.jpg,post,o,1.7153789000003599,None,,,,,,,,00024,001,2026-01-20_18h09.57.673,MST_test,2024.2.0,60.22677791332188,2026-01-20 18h10.05.387400 +0530,
104,0,105,n,1.267184800002724,None,105,0,104,361.8437547999929,,,,,,,,,,,,,,,,,,,,,,,,,,,,,,,,,,,,,,,,,,,,,,,,,,361.8281322999974,361.8437547999929,362.3517087999935,362.3277323999937,362.34922659999575,362.3517087999935,362.3517087999935,362.3517087999935,363.6277440999984,Scenes\038a.jpg,mid,n,1.267184800002724,None,,,,,,,,00024,001,2026-01-20_18h09.57.673,MST_test,2024.2.0,60.22677791332188,2026-01-20 18h10.05.387400 +0530,
105,0,106,n,1.1780662999954075,None,106,0,105,363.64378460000444,,,,,,,,,,,,,,,,,,,,,,,,,,,,,,,,,,,,,,,,,,,,,,,,,,363.62812300000223,363.64378460000444,364.1443227999989,364.127404999992,364.13678909999726,364.1443227999989,364.1443227999989,364.1443227999989,365.32747799999197,Foils\065a.jpg,none,n,1.1780662999954075,None,,,,,,,,00024,001,2026-01-20_18h09.57.673,MST_test,2024.2.0,60.22677791332188,2026-01-20 18h10.05.387400 +0530,
106,0,107,o,1.1108306999958586,None,107,0,106,365.34380119999696,,,,,,,,,,,,,,,,,,,,,,,,,,,,,,,,,,,,,,,,,,,,,,,,,,365.3278231000004,365.34380119999696,365.8674969999993,365.82740910000575,365.86496310000075,365.8674969999993,365.8674969999993,365.8674969999993,366.9943944999977,Objects\078b.jpg,mid,o,1.1108306999958586,None,,,,,,,,00024,001,2026-01-20_18h09.57.673,MST_test,2024.2.0,60.22677791332188,2026-01-20 18h10.05.387400 +0530,
107,0,108,o,1.6756418000004487,None,108,0,107,367.0103451000032,,,,,,,,,,,,,,,,,,,,,,,,,,,,,,,,,,,,,,,,,,,,,,,,,,366.9947472000058,367.0103451000032,367.51058750000084,367.4942474999989,367.50344739999855,367.51058750000084,367.51058750000084,367.51058750000084,369.1944117999956,Objects\027a.jpg,mid,o,1.6756418000004487,None,,,,,,,,00024,001,2026-01-20_18h09.57.673,MST_test,2024.2.0,60.22677791332188,2026-01-20 18h10.05.387400 +0530,
108,0,109,n,4.132825099994079,None,109,0,108,369.2100486999989,,,,,,,,,,,,,,,,,,,,,,,,,,,,,,,,,,,,,,,,,,,,,,,,,,369.1947583000001,369.2100486999989,369.7101804999984,369.69391339999856,369.7027686999936,369.7101804999984,369.7101804999984,369.7101804999984,373.84452549999696,Foils\020b.jpg,none,n,4.132825099994079,None,,,,,,,,00024,001,2026-01-20_18h09.57.673,MST_test,2024.2.0,60.22677791332188,2026-01-20 18h10.05.387400 +0530,
109,0,110,o,2.3219969000056153,None,110,0,109,373.86036259999673,,,,,,,,,,,,,,,,,,,,,,,,,,,,,,,,,,,,,,,,,,,,,,,,,,373.8449464000005,373.86036259999673,374.36025109999173,374.3442551000044,374.352816300001,374.36025109999173,374.36025109999173,374.36025109999173,376.69449789999635,Objects\028b.jpg,post,o,2.3219969000056153,None,,,,,,,,00024,001,2026-01-20_18h09.57.673,MST_test,2024.2.0,60.22677791332188,2026-01-20 18h10.05.387400 +0530,
110,0,111,n,1.1044132999959402,None,111,0,110,376.71016030000465,,,,,,,,,,,,,,,,,,,,,,,,,,,,,,,,,,,,,,,,,,,,,,,,,,376.69492829999945,376.71016030000465,377.21053250000114,377.19403719999536,377.2074794999935,377.21053250000114,377.21053250000114,377.21053250000114,378.3278031999944,Scenes\116b.jpg,post,n,1.1044132999959402,None,,,,,,,,00024,001,2026-01-20_18h09.57.673,MST_test,2024.2.0,60.22677791332188,2026-01-20 18h10.05.387400 +0530,
111,0,112,o,1.0548979000013787,None,112,0,111,378.3437475999963,,,,,,,,,,,,,,,,,,,,,,,,,,,,,,,,,,,,,,,,,,,,,,,,,,378.3281766,378.3437475999963,378.84405759999936,378.8272142999922,378.8416289000015,378.84405759999936,378.84405759999936,378.84405759999936,379.91068849999283,Foils\scenes27.jpg,none,o,1.0548979000013787,None,,,,,,,,00024,001,2026-01-20_18h09.57.673,MST_test,2024.2.0,60.22677791332188,2026-01-20 18h10.05.387400 +0530,
112,0,113,o,1.774376500005019,None,113,0,112,379.92782199999783,,,,,,,,,,,,,,,,,,,,,,,,,,,,,,,,,,,,,,,,,,,,,,,,,,379.9110299000022,379.92782199999783,380.42786830000114,380.41093679999176,380.41824800000177,380.42786830000114,380.42786830000114,380.42786830000114,382.2107279000047,Objects\066b.jpg,pre,o,1.774376500005019,None,,,,,,,,00024,001,2026-01-20_18h09.57.673,MST_test,2024.2.0,60.22677791332188,2026-01-20 18h10.05.387400 +0530,
113,0,114,s,7.491046799987089,None,114,0,113,382.2271252999926,,,,,,,,,,,,,,,,,,,,,,,,,,,,,,,,,,,,,,,,,,,,,,,,,,382.2111361999996,382.2271252999926,382.72797409999475,382.7106904999964,382.71761989999504,382.72797409999475,382.72797409999475,382.72797409999475,390.22782440000447,Objects\085a.jpg,mid,s,7.491046799987089,None,,,,,,,,00024,001,2026-01-20_18h09.57.673,MST_test,2024.2.0,60.22677791332188,2026-01-20 18h10.05.387400 +0530,
114,0,115,n,0.9697370999929262,None,115,0,114,390.24447180000425,,,,,,,,,,,,,,,,,,,,,,,,,,,,,,,,,,,,,,,,,,,,,,,,,,390.2281689999945,390.24447180000425,,390.74384239999927,390.75106490000326,390.7605842000048,390.7605842000048,390.7605842000048,391.74485339999956,Foils\009a.jpg,none,n,0.9697370999929262,None,,,,,,,,00024,001,2026-01-20_18h09.57.673,MST_test,2024.2.0,60.22677791332188,2026-01-20 18h10.05.387400 +0530,
115,0,116,o,1.4380791000003228,None,116,0,115,391.7602506999974,,,,,,,,,,,,,,,,,,,,,,,,,,,,,,,,,,,,,,,,,,,,,,,,,,391.74519509999664,391.7602506999974,392.2607643999945,392.2445044000051,392.2563502999983,392.2607643999945,392.2607643999945,392.2607643999945,393.7106434000016,Scenes\049a.jpg,post,o,1.4380791000003228,None,,,,,,,,00024,001,2026-01-20_18h09.57.673,MST_test,2024.2.0,60.22677791332188,2026-01-20 18h10.05.387400 +0530,
116,0,117,o,1.3028617999952985,None,117,0,116,393.7266951000056,,,,,,,,,,,,,,,,,,,,,,,,,,,,,,,,,,,,,,,,,,,,,,,,,,393.71098699999857,393.7266951000056,394.2274550000002,394.21036519999325,394.21859020000556,394.2274550000002,394.2274550000002,394.2274550000002,395.54443330000504,Objects\115a.jpg,pre,o,1.3028617999952985,None,,,,,,,,00024,001,2026-01-20_18h09.57.673,MST_test,2024.2.0,60.22677791332188,2026-01-20 18h10.05.387400 +0530,
117,0,118,o,2.3741872000100557,None,118,0,117,395.56035780000093,,,,,,,,,,,,,,,,,,,,,,,,,,,,,,,,,,,,,,,,,,,,,,,,,,395.5448019000032,395.56035780000093,396.06070439999166,396.04415469999367,396.0512288000027,396.06070439999166,396.06070439999166,396.06070439999166,398.4445246999967,Objects\161a.jpg,post,o,2.3741872000100557,None,,,,,,,,00024,001,2026-01-20_18h09.57.673,MST_test,2024.2.0,60.22677791332188,2026-01-20 18h10.05.387400 +0530,
118,0,119,n,1.3010751000110758,None,119,0,118,398.46039920000476,,,,,,,,,,,,,,,,,,,,,,,,,,,,,,,,,,,,,,,,,,,,,,,,,,398.44495609999285,398.46039920000476,398.965346099998,398.944124200003,398.96271340000385,398.965346099998,398.965346099998,398.965346099998,400.27763440000126,Scenes\082a.jpg,pre,n,1.3010751000110758,None,,,,,,,,00024,001,2026-01-20_18h09.57.673,MST_test,2024.2.0,60.22677791332188,2026-01-20 18h10.05.387400 +0530,
119,0,120,o,1.5836893000087002,None,120,0,119,400.2949429,,,,,,,,,,,,,,,,,,,,,,,,,,,,,,,,,,,,,,,,,,,,,,,,,,400.27798379999876,400.2949429,,400.79389079999237,400.80306770000607,400.81091559999913,400.81091559999913,400.81091559999913,402.410824599996,Objects\091a.jpg,post,o,1.5836893000087002,None,,,,,,,,00024,001,2026-01-20_18h09.57.673,MST_test,2024.2.0,60.22677791332188,2026-01-20 18h10.05.387400 +0530,
120,0,121,n,1.0255988999997498,None,121,0,120,402.426879599996,,,,,,,,,,,,,,,,,,,,,,,,,,,,,,,,,,,,,,,,,,,,,,,,,,402.41117930000473,402.426879599996,402.9526784000045,402.9107338000031,402.94955689999915,402.9526784000045,402.9526784000045,402.9526784000045,403.9948824000021,Objects\164b.jpg,mid,n,1.0255988999997498,None,,,,,,,,00024,001,2026-01-20_18h09.57.673,MST_test,2024.2.0,60.22677791332188,2026-01-20 18h10.05.387400 +0530,
121,0,122,s,1.4520032000000356,None,122,0,121,404.00991619999695,,,,,,,,,,,,,,,,,,,,,,,,,,,,,,,,,,,,,,,,,,,,,,,,,,403.99525690000155,404.00991619999695,404.52666390000377,404.4941250999982,404.524476999999,404.52666390000377,404.52666390000377,404.52666390000377,405.9943845999951,Objects\100b.jpg,pre,s,1.4520032000000356,None,,,,,,,,00024,001,2026-01-20_18h09.57.673,MST_test,2024.2.0,60.22677791332188,2026-01-20 18h10.05.387400 +0530,
122,0,123,o,1.0999280999967596,None,123,0,122,406.01038069999777,,,,,,,,,,,,,,,,,,,,,,,,,,,,,,,,,,,,,,,,,,,,,,,,,,405.99472620000597,406.01038069999777,406.51065939999535,406.4942905999924,406.5072317000013,406.51065939999535,406.51065939999535,406.51065939999535,407.62738259999605,Scenes\080a.jpg,mid,o,1.0999280999967596,None,,,,,,,,00024,001,2026-01-20_18h09.57.673,MST_test,2024.2.0,60.22677791332188,2026-01-20 18h10.05.387400 +0530,
123,0,124,o,1.0742882000049576,None,124,0,123,407.6436202000041,,,,,,,,,,,,,,,,,,,,,,,,,,,,,,,,,,,,,,,,,,,,,,,,,,407.6277032999933,407.6436202000041,408.14419059999636,408.1274921000004,408.13658900000155,408.14419059999636,408.14419059999636,408.14419059999636,409.22819520000485,Scenes\022b.jpg,post,o,1.0742882000049576,None,,,,,,,,00024,001,2026-01-20_18h09.57.673,MST_test,2024.2.0,60.22677791332188,2026-01-20 18h10.05.387400 +0530,
124,0,125,o,0.9712631000002148,None,125,0,124,409.2437401999923,,,,,,,,,,,,,,,,,,,,,,,,,,,,,,,,,,,,,,,,,,,,,,,,,,409.2285383999988,409.2437401999923,409.7437720000016,409.72748760000104,409.7378624999983,409.7437720000016,409.7437720000016,409.7437720000016,410.7277808999934,Objects\076a.jpg,post,o,0.9712631000002148,None,,,,,,,,00024,001,2026-01-20_18h09.57.673,MST_test,2024.2.0,60.22677791332188,2026-01-20 18h10.05.387400 +0530,
125,0,126,n,0.9512316000036662,None,126,0,125,410.7445258999942,,,,,,,,,,,,,,,,,,,,,,,,,,,,,,,,,,,,,,,,,,,,,,,,,,410.7281248999934,410.7445258999942,411.2751619000046,411.22751110000536,411.27177560000564,411.2751619000046,411.2751619000046,411.2751619000046,412.2280708000035,Scenes\151b.jpg,post,n,0.9512316000036662,None,,,,,,,,00024,001,2026-01-20_18h09.57.673,MST_test,2024.2.0,60.22677791332188,2026-01-20 18h10.05.387400 +0530,
126,0,127,o,1.6103670000011334,None,127,0,126,412.2436078000028,,,,,,,,,,,,,,,,,,,,,,,,,,,,,,,,,,,,,,,,,,,,,,,,,,412.22849609999685,412.2436078000028,412.743993600001,412.7275006999989,412.73999220000405,412.743993600001,412.743993600001,412.743993600001,414.3607849999971,Scenes\141a.jpg,pre,o,1.6103670000011334,None,,,,,,,,00024,001,2026-01-20_18h09.57.673,MST_test,2024.2.0,60.22677791332188,2026-01-20 18h10.05.387400 +0530,
127,0,128,n,1.2737538000073982,None,128,0,127,414.37674039999547,,,,,,,,,,,,,,,,,,,,,,,,,,,,,,,,,,,,,,,,,,,,,,,,,,414.36112299999513,414.37674039999547,414.88071379999747,414.8607411999983,414.8776954000059,414.88071379999747,414.88071379999747,414.88071379999747,416.1610507000005,Scenes\166a.jpg,post,n,1.2737538000073982,None,,,,,,,,00024,001,2026-01-20_18h09.57.673,MST_test,2024.2.0,60.22677791332188,2026-01-20 18h10.05.387400 +0530,
128,0,129,s,2.741502099990612,None,129,0,128,416.17768569999316,,,,,,,,,,,,,,,,,,,,,,,,,,,,,,,,,,,,,,,,,,,,,,,,,,416.1613950000028,416.17768569999316,416.6773358999926,416.66062680000323,416.67249670000456,416.6773358999926,416.6773358999926,416.6773358999926,419.4274637000053,Scenes\051a.jpg,pre,s,2.741502099990612,None,,,,,,,,00024,001,2026-01-20_18h09.57.673,MST_test,2024.2.0,60.22677791332188,2026-01-20 18h10.05.387400 +0530,
129,0,130,o,1.7612934000062523,None,130,0,129,419.44379520000075,,,,,,,,,,,,,,,,,,,,,,,,,,,,,,,,,,,,,,,,,,,,,,,,,,419.4278450999991,419.44379520000075,419.94568750000326,419.9274793999939,419.94323469999654,419.94568750000326,419.94568750000326,419.94568750000326,421.71103979999316,Scenes\063a.jpg,mid,o,1.7612934000062523,None,,,,,,,,00024,001,2026-01-20_18h09.57.673,MST_test,2024.2.0,60.22677791332188,2026-01-20 18h10.05.387400 +0530,
130,0,131,o,0.9671226999926148,None,131,0,130,421.7271239999973,,,,,,,,,,,,,,,,,,,,,,,,,,,,,,,,,,,,,,,,,,,,,,,,,,421.71138690000225,421.7271239999973,422.2274577999924,422.2107293000008,422.22104129999934,422.2274577999924,422.2274577999924,422.2274577999924,423.2108859,Objects\033a.jpg,post,o,0.9671226999926148,None,,,,,,,,00024,001,2026-01-20_18h09.57.673,MST_test,2024.2.0,60.22677791332188,2026-01-20 18h10.05.387400 +0530,
131,0,132,n,1.6028326999949059,None,132,0,131,423.2270789000031,,,,,,,,,,,,,,,,,,,,,,,,,,,,,,,,,,,,,,,,,,,,,,,,,,423.2112565999996,423.2270789000031,423.7273716000054,423.7107337000052,423.7192733999982,423.7273716000054,423.7273716000054,423.7273716000054,425.344402799994,Foils\093b.jpg,none,n,1.6028326999949059,None,,,,,,,,00024,001,2026-01-20_18h09.57.673,MST_test,2024.2.0,60.22677791332188,2026-01-20 18h10.05.387400 +0530,
132,0,133,o,1.605916200001957,None,133,0,132,425.36035000000265,,,,,,,,,,,,,,,,,,,,,,,,,,,,,,,,,,,,,,,,,,,,,,,,,,425.34474839999166,425.36035000000265,425.860620499996,425.84415330000047,425.8529058999993,425.860620499996,425.860620499996,425.860620499996,427.4789479000028,Objects\013a.jpg,pre,o,1.605916200001957,None,,,,,,,,00024,001,2026-01-20_18h09.57.673,MST_test,2024.2.0,60.22677791332188,2026-01-20 18h10.05.387400 +0530,
133,0,134,n,3.5830137000011746,None,134,0,133,427.49381919999723,,,,,,,,,,,,,,,,,,,,,,,,,,,,,,,,,,,,,,,,,,,,,,,,,,427.4793145000003,427.49381919999723,427.99513870000374,427.9775198999996,427.9841817999986,427.99513870000374,427.99513870000374,427.99513870000374,431.59449970000423,Foils\106a.jpg,none,n,3.5830137000011746,None,,,,,,,,00024,001,2026-01-20_18h09.57.673,MST_test,2024.2.0,60.22677791332188,2026-01-20 18h10.05.387400 +0530,
134,0,135,o,1.0196372000064002,None,135,0,134,431.6103727000009,,,,,,,,,,,,,,,,,,,,,,,,,,,,,,,,,,,,,,,,,,,,,,,,,,431.5948422999936,431.6103727000009,432.1106371999922,432.09387029999925,432.1029908999917,432.1106371999922,432.1106371999922,432.1106371999922,433.1443728000013,Foils\066a.jpg,none,o,1.0196372000064002,None,,,,,,,,00024,001,2026-01-20_18h09.57.673,MST_test,2024.2.0,60.22677791332188,2026-01-20 18h10.05.387400 +0530,
135,0,136,o,1.0932202999974834,None,136,0,135,433.16041609999957,,,,,,,,,,,,,,,,,,,,,,,,,,,,,,,,,,,,,,,,,,,,,,,,,,433.1447334999975,433.16041609999957,433.6609577000054,433.6442931000056,433.6583721999923,433.6609577000054,433.6609577000054,433.6609577000054,434.76070549999713,Scenes\122a.jpg,mid,o,1.0932202999974834,None,,,,,,,,00024,001,2026-01-20_18h09.57.673,MST_test,2024.2.0,60.22677791332188,2026-01-20 18h10.05.387400 +0530,
136,0,137,s,1.0845570999954361,None,137,0,136,434.7766683999944,,,,,,,,,,,,,,,,,,,,,,,,,,,,,,,,,,,,,,,,,,,,,,,,,,434.76097469999513,434.7766683999944,435.2775490000058,435.2600855000055,435.26529529999243,435.2775490000058,435.2775490000058,435.2775490000058,436.3770947000012,Foils\scenes6.jpg,none,s,1.0845570999954361,None,,,,,,,,00024,001,2026-01-20_18h09.57.673,MST_test,2024.2.0,60.22677791332188,2026-01-20 18h10.05.387400 +0530,
137,0,138,o,1.5326537000073586,None,138,0,137,436.3934331999917,,,,,,,,,,,,,,,,,,,,,,,,,,,,,,,,,,,,,,,,,,,,,,,,,,436.37732400000095,436.3934331999917,,436.8773307999945,436.8867200999957,436.89453890000004,436.89453890000004,436.89453890000004,438.4284797,Objects\112a.jpg,pre,o,1.5326537000073586,None,,,,,,,,00024,001,2026-01-20_18h09.57.673,MST_test,2024.2.0,60.22677791332188,2026-01-20 18h10.05.387400 +0530,
138,0,139,n,2.195116800008691,None,139,0,138,438.4436490999942,,,,,,,,,,,,,,,,,,,,,,,,,,,,,,,,,,,,,,,,,,,,,,,,,,438.42882180000015,438.4436490999942,438.94380579999415,438.92746940000507,438.93588839999575,438.94380579999415,438.94380579999415,438.94380579999415,441.14444649999496,Objects\064a.jpg,post,n,2.195116800008691,None,,,,,,,,00024,001,2026-01-20_18h09.57.673,MST_test,2024.2.0,60.22677791332188,2026-01-20 18h10.05.387400 +0530,
139,0,140,n,1.1737127999949735,None,140,0,139,441.1604376000032,,,,,,,,,,,,,,,,,,,,,,,,,,,,,,,,,,,,,,,,,,,,,,,,,,441.1448066000012,441.1604376000032,441.6606580999942,441.6442015999928,441.65092529999674,441.6606580999942,441.6606580999942,441.6606580999942,442.84429510000336,Foils\033a.jpg,none,n,1.1737127999949735,None,,,,,,,,00024,001,2026-01-20_18h09.57.673,MST_test,2024.2.0,60.22677791332188,2026-01-20 18h10.05.387400 +0530,
140,0,141,s,1.7306395000050543,None,141,0,140,442.8602765999967,,,,,,,,,,,,,,,,,,,,,,,,,,,,,,,,,,,,,,,,,,,,,,,,,,442.8446399999957,442.8602765999967,443.3601173000061,443.343621299995,443.35244099999545,443.3601173000061,443.3601173000061,443.3601173000061,445.09439509999356,Objects\030a.jpg,pre,s,1.7306395000050543,None,,,,,,,,00024,001,2026-01-20_18h09.57.673,MST_test,2024.2.0,60.22677791332188,2026-01-20 18h10.05.387400 +0530,
141,0,142,n,1.3359748999937437,None,142,0,141,445.110451799992,,,,,,,,,,,,,,,,,,,,,,,,,,,,,,,,,,,,,,,,,,,,,,,,,,445.09475580000435,445.110451799992,445.6101947999996,445.5942215999967,445.6024638999952,445.6101947999996,445.6101947999996,445.6101947999996,446.96099479999975,Foils\049a.jpg,none,n,1.3359748999937437,None,,,,,,,,00024,001,2026-01-20_18h09.57.673,MST_test,2024.2.0,60.22677791332188,2026-01-20 18h10.05.387400 +0530,
142,0,143,o,1.1646798000001581,None,143,0,142,446.9771164999984,,,,,,,,,,,,,,,,,,,,,,,,,,,,,,,,,,,,,,,,,,,,,,,,,,446.9613403999974,446.9771164999984,447.4942168999987,447.46024970000144,447.4920046000043,447.4942168999987,447.4942168999987,447.4942168999987,448.6609250000038,Objects\007b.jpg,post,o,1.1646798000001581,None,,,,,,,,00024,001,2026-01-20_18h09.57.673,MST_test,2024.2.0,60.22677791332188,2026-01-20 18h10.05.387400 +0530,
143,0,144,o,1.5218688999884762,None,144,0,143,448.6768601999938,,,,,,,,,,,,,,,,,,,,,,,,,,,,,,,,,,,,,,,,,,,,,,,,,,448.66128359999857,448.6768601999938,449.1776047000021,449.16078779999225,449.1708918999939,449.1776047000021,449.1776047000021,449.1776047000021,450.71099789999425,Scenes\112b.jpg,post,o,1.5218688999884762,None,,,,,,,,00024,001,2026-01-20_18h09.57.673,MST_test,2024.2.0,60.22677791332188,2026-01-20 18h10.05.387400 +0530,
144,0,145,n,1.0802576999994926,None,145,0,144,450.72712260000117,,,,,,,,,,,,,,,,,,,,,,,,,,,,,,,,,,,,,,,,,,,,,,,,,,450.71134140000504,450.72712260000117,451.2979997999937,451.2105583999946,451.29364319999877,451.2979997999937,451.2979997999937,451.2979997999937,452.3946938000008,Foils\scenes25.jpg,none,n,1.0802576999994926,None,,,,,,,,00024,001,2026-01-20_18h09.57.673,MST_test,2024.2.0,60.22677791332188,2026-01-20 18h10.05.387400 +0530,
145,0,146,o,1.5046895999985281,None,146,0,145,452.4101711999974,,,,,,,,,,,,,,,,,,,,,,,,,,,,,,,,,,,,,,,,,,,,,,,,,,452.39506339999207,452.4101711999974,452.9137260999996,452.8940444000036,452.9090425000031,452.9137260999996,452.9137260999996,452.9137260999996,454.42892809999466,Scenes\172a.jpg,post,o,1.5046895999985281,None,,,,,,,,00024,001,2026-01-20_18h09.57.673,MST_test,2024.2.0,60.22677791332188,2026-01-20 18h10.05.387400 +0530,
146,0,147,o,0.7860611000069184,None,147,0,146,454.4436115999997,,,,,,,,,,,,,,,,,,,,,,,,,,,,,,,,,,,,,,,,,,,,,,,,,,454.4293630000029,454.4436115999997,455.04028250000556,454.92748450000363,455.0374768000038,455.04028250000556,455.04028250000556,455.04028250000556,455.8278003000014,Scenes\013b.jpg,post,o,0.7860611000069184,None,,,,,,,,00024,001,2026-01-20_18h09.57.673,MST_test,2024.2.0,60.22677791332188,2026-01-20 18h10.05.387400 +0530,
147,0,148,o,0.8663199000002351,None,148,0,147,455.8438184999977,,,,,,,,,,,,,,,,,,,,,,,,,,,,,,,,,,,,,,,,,,,,,,,,,,455.82802630000515,455.8438184999977,456.34424249999574,456.32686770000146,456.3346482000052,456.34424249999574,456.34424249999574,456.34424249999574,457.22785589999694,Objects\042a.jpg,post,o,0.8663199000002351,None,,,,,,,,00024,001,2026-01-20_18h09.57.673,MST_test,2024.2.0,60.22677791332188,2026-01-20 18h10.05.387400 +0530,
148,0,149,n,1.074856200008071,None,149,0,148,457.24379199999385,,,,,,,,,,,,,,,,,,,,,,,,,,,,,,,,,,,,,,,,,,,,,,,,,,457.2282051999937,457.24379199999385,,457.728211499998,457.73714779999864,457.7439788000047,457.7439788000047,457.7439788000047,458.8293605999934,Foils\057a.jpg,none,n,1.074856200008071,None,,,,,,,,00024,001,2026-01-20_18h09.57.673,MST_test,2024.2.0,60.22677791332188,2026-01-20 18h10.05.387400 +0530,
149,0,150,n,0.7863533000054304,None,150,0,149,458.84405040000274,,,,,,,,,,,,,,,,,,,,,,,,,,,,,,,,,,,,,,,,,,,,,,,,,,458.82971000000543,458.84405040000274,459.34397249999165,459.3275493999972,459.33549359999597,459.34397249999165,459.34397249999165,459.34397249999165,460.14445059999707,Foils\042a.jpg,none,n,0.7863533000054304,None,,,,,,,,00024,001,2026-01-20_18h09.57.673,MST_test,2024.2.0,60.22677791332188,2026-01-20 18h10.05.387400 +0530,
,,,,,,,,,,,,,,,,,,,,,,,,,,,,,,,,,,,,,,,,,,,,,,,,,,,,,,,,,,,,,,,,,,,,,,,,,460.14469069999177,460.1602883000014,460.1602883000014,461.7442121000058,space,1.5781600000045728,None,00024,001,2026-01-20_18h09.57.673,MST_test,2024.2.0,60.22677791332188,2026-01-20 18h10.05.387400 +0530,
