Sl_no,image_path,thisN,thisTrialN,thisRepN,key_resp_5.keys,key_resp_5.rt,key_resp_5.duration,key_resp_7.keys,key_resp_7.rt,key_resp_7.duration,key_resp_9.keys,key_resp_9.rt,key_resp_9.duration,key_resp_8.keys,key_resp_8.rt,key_resp_8.duration,practice.thisRepN,practice.thisTrialN,practice.thisN,trials.thisRepN,trials.thisTrialN,trials.thisN,thisRow.t,notes,welcome_page.started,text.started,key_resp.started,welcome_page.stopped,key_resp.keys,key_resp.rt,key_resp.duration,instructions.started,ins.started,key_resp_2.started,instructions.stopped,key_resp_2.keys,key_resp_2.rt,key_resp_2.duration,objects_only_instruction.started,text_3.started,key_resp_3.started,objects_only_instruction.stopped,key_resp_3.keys,key_resp_3.rt,key_resp_3.duration,ISI.started,text_4.started,text_4.stopped,ISI.stopped,practice_block.started,image.started,text_5.started,key_resp_5.started,practice_block.stopped,practice.key_resp_5.keys,practice.key_resp_5.rt,practice.key_resp_5.duration,indoor_outdoor.started,indoor_outdoor.stopped,practice.key_resp_7.keys,image.stopped,text_5.stopped,key_resp_5.stopped,text_7.started,key_resp_7.started,practice.key_resp_7.rt,practice.key_resp_7.duration,practice_to_main.started,text_2.started,key_resp_4.started,practice_to_main.stopped,key_resp_4.keys,key_resp_4.rt,key_resp_4.duration,objects.started,image_2.started,text_9.started,key_resp_9.started,objects.stopped,trials.key_resp_9.keys,trials.key_resp_9.rt,trials.key_resp_9.duration,encoding_task.started,encoding_task.stopped,trials.key_resp_8.keys,image_2.stopped,text_9.stopped,key_resp_9.stopped,text_8.started,key_resp_8.started,trials.key_resp_8.rt,trials.key_resp_8.duration,end_experiment.started,text_6.started,key_resp_6.started,end_experiment.stopped,key_resp_6.keys,key_resp_6.rt,key_resp_6.duration,list_of_stimuli,encoding_task_accuracy,participant,session,date,expName,psychopyVersion,frameRate,expStart,
,,,,,,,,,,,,,,,,,,,,,,,,,0.0014344999945024028,0.004397600001539104,0.004397600001539104,23.609879299998283,space,23.583997200010344,None,,,,,,,,,,,,,,,,,,,,,,,,,,,,,,,,,,,,,,,,,,,,,,,,,,,,,,,,,,,,,,,,,,,,,,,00024,001,2026-01-20_17h45.28.652,MST_task,2024.2.0,59.941904310574905,2026-01-20 17h45.49.330966 +0530,
,,,,,,,,,,,,,,,,,,,,,,,,,,,,,,,,23.609934299995075,23.62171930000477,23.62171930000477,58.82154889999947,space,35.18307330000971,None,,,,,,,,,,,,,,,,,,,,,,,,,,,,,,,,,,,,,,,,,,,,,,,,,,,,,,,,,,,,,,,,00024,001,2026-01-20_17h45.28.652,MST_task,2024.2.0,59.941904310574905,2026-01-20 17h45.49.330966 +0530,
,,,,,,,,,,,,,,,,,,,,,,,,,,,,,,,,,,,,,,,58.821673099999316,58.844243200001074,58.844243200001074,71.104508599994,space,12.256218499998795,None,,,,,,,,,,,,,,,,,,,,,,,,,,,,,,,,,,,,,,,,,,,,,,,,,,,,,,,,,00024,001,2026-01-20_17h45.28.652,MST_task,2024.2.0,59.941904310574905,2026-01-20 17h45.49.330966 +0530,
5,practice_images/139a.jpg,0,0,1,j,2.9150848999997834,None,None,,,,,,,,,1,0,0,,,,71.12052339999354,,,,,,,,,,,,,,,,,,,,,,,71.11490929999854,71.12052339999354,71.65003160000197,71.60459669999545,71.61784779999289,71.65003160000197,71.65003160000197,71.65003160000197,74.62099929999385,j,2.9150848999997834,None,74.62696920000599,74.6270036999922,None,,,,,,,,,,,,,,,,,,,,,,,,,,,,,,,,,,,,,,,,,,00024,001,2026-01-20_17h45.28.652,MST_task,2024.2.0,59.941904310574905,2026-01-20 17h45.49.330966 +0530,
3,practice_images/037a.jpg,1,1,1,None,,,f,19.427731000003405,None,,,,,,,1,1,1,,,,74.63728130000527,,,,,,,,,,,,,,,,,,,,,,,74.6271196000016,74.63728130000527,75.13761279999744,75.12201679999998,75.127888300005,75.13761279999744,75.13761279999744,75.13761279999744,78.12117450000369,None,,,78.12135689999559,97.57116409999435,f,78.13713289999578,78.13713289999578,78.13713289999578,78.13713289999578,78.13713289999578,19.427731000003405,None,,,,,,,,,,,,,,,,,,,,,,,,,,,,,,,,,,,00024,001,2026-01-20_17h45.28.652,MST_task,2024.2.0,59.941904310574905,2026-01-20 17h45.49.330966 +0530,
1,practice_images/013a.jpg,2,2,1,j,2.437321899997187,0.11940949999552686,None,,,,,,,,,1,2,2,,,,97.58733219999704,,,,,,,,,,,,,,,,,,,,,,,97.57154409999202,97.58733219999704,98.08758750000561,98.07121840000036,98.07691099999647,98.08758750000561,98.08758750000561,98.08758750000561,101.07137720000173,j,2.437321899997187,0.11940949999552686,101.07155510000302,101.07162129999779,None,101.08747779999976,101.08747779999976,101.08747779999976,,,,,,,,,,,,,,,,,,,,,,,,,,,,,,,,,,,,,,,00024,001,2026-01-20_17h45.28.652,MST_task,2024.2.0,59.941904310574905,2026-01-20 17h45.49.330966 +0530,
7,practice_images/166a.jpg,3,3,1,None,,,j,2.8651928000035696,None,,,,,,,1,3,3,,,,101.08747779999976,,,,,,,,,,,,,,,,,,,,,,,101.07196960000147,101.08747779999976,101.58763789999648,101.57124799999292,101.57697890000418,101.58763789999648,101.58763789999648,101.58763789999648,104.57104059999983,None,,,104.57119909999892,107.4550595000037,j,104.58757469999546,104.58757469999546,104.58757469999546,104.58757469999546,104.58757469999546,2.8651928000035696,None,,,,,,,,,,,,,,,,,,,,,,,,,,,,,,,,,,,00024,001,2026-01-20_17h45.28.652,MST_task,2024.2.0,59.941904310574905,2026-01-20 17h45.49.330966 +0530,
6,practice_images/158a.jpg,4,4,1,j,1.7694536000053631,0.1440994999866234,None,,,,,,,,,1,4,4,,,,107.47063630000048,,,,,,,,,,,,,,,,,,,,,,,107.45540099999926,107.47063630000048,107.97089339999366,107.95455130000482,107.96035599999595,107.97089339999366,107.97089339999366,107.97089339999366,110.95440339999914,j,1.7694536000053631,0.1440994999866234,110.95458510000026,110.9546510999935,None,110.97052269999404,110.97052269999404,110.97052269999404,,,,,,,,,,,,,,,,,,,,,,,,,,,,,,,,,,,,,,,00024,001,2026-01-20_17h45.28.652,MST_task,2024.2.0,59.941904310574905,2026-01-20 17h45.49.330966 +0530,
4,practice_images/002b.jpg,5,5,1,f,1.8460540999949444,0.14422270000795834,None,,,,,,,,,1,5,5,,,,110.97052269999404,,,,,,,,,,,,,,,,,,,,,,,110.95492669999658,110.97052269999404,111.47065279999515,111.45456670000567,111.46070870000403,111.47065279999515,111.47065279999515,111.47065279999515,114.45474040000408,f,1.8460540999949444,0.14422270000795834,114.454917199997,114.45498349999252,None,114.47070900000108,114.47070900000108,114.47070900000108,,,,,,,,,,,,,,,,,,,,,,,,,,,,,,,,,,,,,,,00024,001,2026-01-20_17h45.28.652,MST_task,2024.2.0,59.941904310574905,2026-01-20 17h45.49.330966 +0530,
2,practice_images/031a.jpg,6,6,1,f,1.497474300005706,0.1837072999915108,None,,,,,,,,,1,6,6,,,,114.47070900000108,,,,,,,,,,,,,,,,,,,,,,,114.45525499999349,114.47070900000108,,114.95532829999865,114.96059760000207,114.97123759999522,114.97123759999522,114.97123759999522,117.95485520000511,f,1.497474300005706,0.1837072999915108,117.95510760000616,117.95520589999796,None,117.97061109999777,117.97061109999777,117.97061109999777,,,,,,,,,,,,,,,,,,,,,,,,,,,,,,,,,,,,,,,00024,001,2026-01-20_17h45.28.652,MST_task,2024.2.0,59.941904310574905,2026-01-20 17h45.49.330966 +0530,
10,practice_images/182a.jpg,7,7,1,f,1.1581487999937963,0.19127700000535697,None,,,,,,,,,1,7,7,,,,117.97061109999777,,,,,,,,,,,,,,,,,,,,,,,117.95560159999877,117.97061109999777,118.47092039999552,118.45467789999384,118.45950040000025,118.47092039999552,118.47092039999552,118.47092039999552,121.45463930000551,f,1.1581487999937963,0.19127700000535697,121.45481559999462,121.45488130000012,None,121.47072800000024,121.47072800000024,121.47072800000024,,,,,,,,,,,,,,,,,,,,,,,,,,,,,,,,,,,,,,,00024,001,2026-01-20_17h45.28.652,MST_task,2024.2.0,59.941904310574905,2026-01-20 17h45.49.330966 +0530,
8,practice_images/178a.jpg,8,8,1,j,1.3942228999949293,0.21682010000222363,None,,,,,,,,,1,8,8,,,,121.47072800000024,,,,,,,,,,,,,,,,,,,,,,,121.45517600000312,121.47072800000024,121.97072050000133,121.95468310000433,121.96048720000545,121.97072050000133,121.97072050000133,121.97072050000133,124.95466669999587,j,1.3942228999949293,0.21682010000222363,124.95484469999792,124.95491040000343,None,124.97083229999407,124.97083229999407,124.97083229999407,,,,,,,,,,,,,,,,,,,,,,,,,,,,,,,,,,,,,,,00024,001,2026-01-20_17h45.28.652,MST_task,2024.2.0,59.941904310574905,2026-01-20 17h45.49.330966 +0530,
9,practice_images/180a.jpg,9,9,1,f,1.0856001999927685,0.16792990000976715,None,,,,,,,,,1,9,9,,,,124.97083229999407,,,,,,,,,,,,,,,,,,,,,,,124.95527449999645,124.97083229999407,125.4709162999934,125.45449799999187,125.46019719999458,125.4709162999934,125.4709162999934,125.4709162999934,128.45466459999443,f,1.0856001999927685,0.16792990000976715,128.454842799998,128.45490739999514,None,128.4714176999987,128.4714176999987,128.4714176999987,,,,,,,,,,,,,,,,,,,,,,,,,,,,,,,,,,,,,,,00024,001,2026-01-20_17h45.28.652,MST_task,2024.2.0,59.941904310574905,2026-01-20 17h45.49.330966 +0530,
,,,,,,,,,,,,,,,,,,,,,,,,,,,,,,,,,,,,,,,,,,,,,,,,,,,,,,,,,,,,,,,,,,,,128.45508830000472,128.4714176999987,128.4714176999987,139.55527640000219,space,11.069702399996459,None,,,,,,,,,,,,,,,,,,,,,,,,,,,,00024,001,2026-01-20_17h45.28.652,MST_task,2024.2.0,59.941904310574905,2026-01-20 17h45.49.330966 +0530,
,Scenes\184a.jpg,0,0,1,,,,,,,j,1.2506280999950832,0.1686628000024939,None,,,,,,1,0,0,139.57243369999924,,,,,,,,,,,,,,,,,,,,,,,139.56920040000114,139.57243369999924,,140.0707207999949,,,,,,,,,,,,,,,,,,,,,,,,,,140.08615499999723,140.08966519999376,140.08966519999376,140.08966519999376,143.071374799998,j,1.2506280999950832,0.1686628000024939,143.07722760000615,143.0772517000005,None,,,,,,,,,,,,,,,,,00024,001,2026-01-20_17h45.28.652,MST_task,2024.2.0,59.941904310574905,2026-01-20 17h45.49.330966 +0530,
,Scenes\137a.jpg,1,0,2,,,,,,,j,1.1686203999997815,0.1840686000068672,None,,,,,,2,0,1,143.0872634999978,,,,,,,,,,,,,,,,,,,,,,,143.0773329999938,143.0872634999978,143.5878143000009,143.57123069999216,,,,,,,,,,,,,,,,,,,,,,,,,,143.58518969999568,143.5878143000009,143.5878143000009,143.5878143000009,146.5726743999985,j,1.1686203999997815,0.1840686000068672,146.57287629999337,146.57294009999896,None,146.58844769999268,146.58844769999268,146.58844769999268,,,,,,,,,,,,,,00024,001,2026-01-20_17h45.28.652,MST_task,2024.2.0,59.941904310574905,2026-01-20 17h45.49.330966 +0530,
,Scenes\035a.jpg,2,0,3,,,,,,,j,2.5134651999978814,0.20001990000309888,None,,,,,,3,0,2,146.58844769999268,,,,,,,,,,,,,,,,,,,,,,,146.57332060000044,146.58844769999268,,147.08768490000512,,,,,,,,,,,,,,,,,,,,,,,,,,147.11250800000562,147.1154749999987,147.1154749999987,147.1154749999987,150.08786309999414,j,2.5134651999978814,0.20001990000309888,150.08814389999316,150.0882130999962,None,,,,,,,,,,,,,,,,,00024,001,2026-01-20_17h45.28.652,MST_task,2024.2.0,59.941904310574905,2026-01-20 17h45.49.330966 +0530,
,Scenes\039a.jpg,3,0,4,,,,,,,j,0.9624834999995073,0.17676830000709742,None,,,,,,4,0,3,150.10389569999825,,,,,,,,,,,,,,,,,,,,,,,150.08851400000276,150.10389569999825,150.60978660000546,150.58783439999388,,,,,,,,,,,,,,,,,,,,,,,,,,150.60656620000373,150.60978660000546,150.60978660000546,150.60978660000546,153.60494550000294,j,0.9624834999995073,0.17676830000709742,153.60515069999383,153.60521969999536,None,,,,,,,,,,,,,,,,,00024,001,2026-01-20_17h45.28.652,MST_task,2024.2.0,59.941904310574905,2026-01-20 17h45.49.330966 +0530,
,Scenes\170a.jpg,4,0,5,,,,,,,j,1.402157200005604,0.14434099999198224,None,,,,,,5,0,4,153.6207235000038,,,,,,,,,,,,,,,,,,,,,,,153.60559829999693,153.6207235000038,154.13043960000505,154.1045723999996,,,,,,,,,,,,,,,,,,,,,,,,,,154.127444800004,154.13043960000505,154.13043960000505,154.13043960000505,157.12076779999188,j,1.402157200005604,0.14434099999198224,157.12097069999436,157.12103929999284,None,,,,,,,,,,,,,,,,,00024,001,2026-01-20_17h45.28.652,MST_task,2024.2.0,59.941904310574905,2026-01-20 17h45.49.330966 +0530,
,Scenes\031a.jpg,5,0,6,,,,,,,j,2.2546389999915846,0.19199099999968894,None,,,,,,6,0,5,157.1374094000057,,,,,,,,,,,,,,,,,,,,,,,157.1213315000059,157.1374094000057,157.64579959999537,157.62116830000014,,,,,,,,,,,,,,,,,,,,,,,,,,157.64300009999715,157.64579959999537,157.64579959999537,157.64579959999537,160.63815780000004,j,2.2546389999915846,0.19199099999968894,160.6383618999971,160.63842819999263,None,,,,,,,,,,,,,,,,,00024,001,2026-01-20_17h45.28.652,MST_task,2024.2.0,59.941904310574905,2026-01-20 17h45.49.330966 +0530,
,Scenes\174a.jpg,6,0,7,,,,,,,j,1.2228519000054803,0.16832440000143833,None,,,,,,7,0,6,160.6539449999982,,,,,,,,,,,,,,,,,,,,,,,160.63880220000283,160.6539449999982,161.1577263999934,161.13754500000505,,,,,,,,,,,,,,,,,,,,,,,,,,161.15495830000145,161.1577263999934,161.1577263999934,161.1577263999934,164.1543876999931,j,1.2228519000054803,0.16832440000143833,164.15458560000116,164.15465470000345,None,,,,,,,,,,,,,,,,,00024,001,2026-01-20_17h45.28.652,MST_task,2024.2.0,59.941904310574905,2026-01-20 17h45.49.330966 +0530,
,Objects\042a.jpg,7,0,8,,,,,,,f,0.979589999988093,0.16730040000402369,None,,,,,,8,0,7,164.1708151000057,,,,,,,,,,,,,,,,,,,,,,,164.1549503999995,164.1708151000057,164.6734543000057,164.65440519999538,,,,,,,,,,,,,,,,,,,,,,,,,,164.6701757999981,164.6734543000057,164.6734543000057,164.6734543000057,167.67102179999347,f,0.979589999988093,0.16730040000402369,167.67129549999663,167.67136369999207,None,,,,,,,,,,,,,,,,,00024,001,2026-01-20_17h45.28.652,MST_task,2024.2.0,59.941904310574905,2026-01-20 17h45.49.330966 +0530,
,Objects\109a.jpg,8,0,9,,,,,,,f,1.1768756999954348,0.19183120000525378,None,,,,,,9,0,8,167.68745689999196,,,,,,,,,,,,,,,,,,,,,,,167.6716652000032,167.68745689999196,168.18750040000305,168.17082869999285,,,,,,,,,,,,,,,,,,,,,,,,,,168.180191499996,168.18750040000305,168.18750040000305,168.18750040000305,171.1721455999941,f,1.1768756999954348,0.19183120000525378,171.17234659999667,171.17240989999846,None,171.18745990000025,171.18745990000025,171.18745990000025,,,,,,,,,,,,,,00024,001,2026-01-20_17h45.28.652,MST_task,2024.2.0,59.941904310574905,2026-01-20 17h45.49.330966 +0530,
,Objects\088a.jpg,9,0,10,,,,,,,f,1.7407681000040611,0.18406499999400694,None,,,,,,10,0,9,171.18745990000025,,,,,,,,,,,,,,,,,,,,,,,171.17278789999546,171.18745990000025,171.68772770000214,171.6711881999945,,,,,,,,,,,,,,,,,,,,,,,,,,171.68071699999564,171.68772770000214,171.68772770000214,171.68772770000214,174.67192510000314,f,1.7407681000040611,0.18406499999400694,174.6721203000052,174.67224780000106,None,174.6874611999956,174.6874611999956,174.6874611999956,,,,,,,,,,,,,,00024,001,2026-01-20_17h45.28.652,MST_task,2024.2.0,59.941904310574905,2026-01-20 17h45.49.330966 +0530,
,Objects\154a.jpg,10,0,11,,,,,,,f,2.6256992999988142,0.19127609999850392,None,,,,,,11,0,10,174.6874611999956,,,,,,,,,,,,,,,,,,,,,,,174.6726295999979,174.6874611999956,175.1873401000048,175.17113509999763,,,,,,,,,,,,,,,,,,,,,,,,,,175.1801856999955,175.1873401000048,175.1873401000048,175.1873401000048,178.17190370000026,f,2.6256992999988142,0.19127609999850392,178.17209629999707,178.17215689999284,None,178.18718969999463,178.18718969999463,178.18718969999463,,,,,,,,,,,,,,00024,001,2026-01-20_17h45.28.652,MST_task,2024.2.0,59.941904310574905,2026-01-20 17h45.49.330966 +0530,
,Objects\123a.jpg,11,0,12,,,,,,,j,2.1643960000074003,0.09704469999996945,None,,,,,,12,0,11,178.18718969999463,,,,,,,,,,,,,,,,,,,,,,,178.17257729999255,178.18718969999463,178.68784860000596,178.67159349999565,,,,,,,,,,,,,,,,,,,,,,,,,,178.68042689999857,178.68784860000596,178.68784860000596,178.68784860000596,181.67210680000426,j,2.1643960000074003,0.09704469999996945,181.67230249999557,181.67236430000048,None,181.68745290000516,181.68745290000516,181.68745290000516,,,,,,,,,,,,,,00024,001,2026-01-20_17h45.28.652,MST_task,2024.2.0,59.941904310574905,2026-01-20 17h45.49.330966 +0530,
,Objects\008a.jpg,12,0,13,,,,,,,f,1.3691675000009127,0.1758616000006441,None,,,,,,13,0,12,181.68745290000516,,,,,,,,,,,,,,,,,,,,,,,181.6726639999979,181.68745290000516,182.18743279999762,182.17132120000315,,,,,,,,,,,,,,,,,,,,,,,,,,182.1810625999933,182.18743279999762,182.18743279999762,182.18743279999762,185.1718935999961,f,1.3691675000009127,0.1758616000006441,185.17209809999622,185.17216040000494,None,185.1874930000049,185.1874930000049,185.1874930000049,,,,,,,,,,,,,,00024,001,2026-01-20_17h45.28.652,MST_task,2024.2.0,59.941904310574905,2026-01-20 17h45.49.330966 +0530,
,Objects\006a.jpg,13,0,14,,,,,,,f,2.6676896999997552,0.19969080000009853,None,,,,,,14,0,13,185.1874930000049,,,,,,,,,,,,,,,,,,,,,,,185.17258670000592,185.1874930000049,185.68882549999398,185.67115670000203,,,,,,,,,,,,,,,,,,,,,,,,,,185.67922869999893,185.68882549999398,185.68882549999398,185.68882549999398,188.68760360000306,f,2.6676896999997552,0.19969080000009853,188.68781780000427,188.68788640000275,None,,,,,,,,,,,,,,,,,00024,001,2026-01-20_17h45.28.652,MST_task,2024.2.0,59.941904310574905,2026-01-20 17h45.49.330966 +0530,
,Scenes\166a.jpg,14,0,15,,,,,,,j,0.904309599995031,0.1756827999925008,None,,,,,,15,0,14,188.7041171000019,,,,,,,,,,,,,,,,,,,,,,,188.6882506999973,188.7041171000019,,189.18809850000252,,,,,,,,,,,,,,,,,,,,,,,,,,189.20202450000215,189.20461169999908,189.20461169999908,189.20461169999908,192.18867920000048,j,0.904309599995031,0.1756827999925008,192.18888980000338,192.1889530000044,None,192.2037963000039,192.2037963000039,192.2037963000039,,,,,,,,,,,,,,00024,001,2026-01-20_17h45.28.652,MST_task,2024.2.0,59.941904310574905,2026-01-20 17h45.49.330966 +0530,
,Scenes\001a.jpg,15,0,16,,,,,,,f,2.6310564000013983,0.1994635000010021,None,,,,,,16,0,15,192.2037963000039,,,,,,,,,,,,,,,,,,,,,,,192.18925510000554,192.2037963000039,192.71784080000361,192.68786989999353,,,,,,,,,,,,,,,,,,,,,,,,,,192.71505220000108,192.71784080000361,192.71784080000361,192.71784080000361,195.70452040000237,f,2.6310564000013983,0.1994635000010021,195.70473499999207,195.7048017000052,None,,,,,,,,,,,,,,,,,00024,001,2026-01-20_17h45.28.652,MST_task,2024.2.0,59.941904310574905,2026-01-20 17h45.49.330966 +0530,
,Scenes\017a.jpg,16,0,17,,,,,,,f,1.5250484999996843,0.19999310000275727,None,,,,,,17,0,16,195.72078249999322,,,,,,,,,,,,,,,,,,,,,,,195.70518889999948,195.72078249999322,196.2238905999984,196.2042558999965,,,,,,,,,,,,,,,,,,,,,,,,,,196.22090460000618,196.2238905999984,196.2238905999984,196.2238905999984,199.2051505999989,f,1.5250484999996843,0.19999310000275727,199.2053709000029,199.20543869999528,None,,,,,,,,,,,,,,,,,00024,001,2026-01-20_17h45.28.652,MST_task,2024.2.0,59.941904310574905,2026-01-20 17h45.49.330966 +0530,
,Scenes\063a.jpg,17,0,18,,,,,,,j,2.060470600001281,0.1682035999983782,None,,,,,,18,0,17,199.22074029999203,,,,,,,,,,,,,,,,,,,,,,,199.20581729999685,199.22074029999203,199.72788350000337,199.70414519999758,,,,,,,,,,,,,,,,,,,,,,,,,,199.72476329999336,199.72788350000337,199.72788350000337,199.72788350000337,202.7209245999984,j,2.060470600001281,0.1682035999983782,202.72106799999892,202.72110019999673,None,,,,,,,,,,,,,,,,,00024,001,2026-01-20_17h45.28.652,MST_task,2024.2.0,59.941904310574905,2026-01-20 17h45.49.330966 +0530,
,Scenes\175a.jpg,18,0,19,,,,,,,j,1.6449205999961123,0.16807920001156162,None,,,,,,19,0,18,202.73745220000274,,,,,,,,,,,,,,,,,,,,,,,202.72127799999726,202.73745220000274,203.23948829999426,203.22112339999876,,,,,,,,,,,,,,,,,,,,,,,,,,203.23610769999505,203.23948829999426,203.23948829999426,203.23948829999426,206.23807799999486,j,1.6449205999961123,0.16807920001156162,206.23828119999962,206.23835080000572,None,,,,,,,,,,,,,,,,,00024,001,2026-01-20_17h45.28.652,MST_task,2024.2.0,59.941904310574905,2026-01-20 17h45.49.330966 +0530,
,Scenes\153a.jpg,19,0,20,,,,,,,j,1.1631850999983726,0.18397539999568835,None,,,,,,20,0,19,206.2541302000027,,,,,,,,,,,,,,,,,,,,,,,206.23872340000526,206.2541302000027,206.7610721999954,206.73773280000023,,,,,,,,,,,,,,,,,,,,,,,,,,206.75807320000604,206.7610721999954,206.7610721999954,206.7610721999954,209.75417759999982,j,1.1631850999983726,0.18397539999568835,209.75439289999485,209.7544607000018,None,,,,,,,,,,,,,,,,,00024,001,2026-01-20_17h45.28.652,MST_task,2024.2.0,59.941904310574905,2026-01-20 17h45.49.330966 +0530,
,Scenes\124a.jpg,20,0,21,,,,,,,j,1.6776347999984864,0.20747590000974014,None,,,,,,21,0,20,209.77056710000033,,,,,,,,,,,,,,,,,,,,,,,209.7548514999944,209.77056710000033,210.2713315000001,210.25422859999526,,,,,,,,,,,,,,,,,,,,,,,,,,210.26902710000286,210.2713315000001,210.2713315000001,210.2713315000001,213.25536049999937,j,1.6776347999984864,0.20747590000974014,213.25555810000515,213.25561870000092,None,213.27074459999858,213.27074459999858,213.27074459999858,,,,,,,,,,,,,,00024,001,2026-01-20_17h45.28.652,MST_task,2024.2.0,59.941904310574905,2026-01-20 17h45.49.330966 +0530,
,Objects\037a.jpg,21,0,22,,,,,,,j,0.9766669999953592,0.15172429999802262,None,,,,,,22,0,21,213.27074459999858,,,,,,,,,,,,,,,,,,,,,,,213.25599180000427,213.27074459999858,213.77211979999265,213.75515610000002,,,,,,,,,,,,,,,,,,,,,,,,,,213.76827159999812,213.77211979999265,213.77211979999265,213.77211979999265,216.75594580000325,j,0.9766669999953592,0.15172429999802262,216.75615560000006,216.75622440000006,None,216.77056129999983,216.77056129999983,216.77056129999983,,,,,,,,,,,,,,00024,001,2026-01-20_17h45.28.652,MST_task,2024.2.0,59.941904310574905,2026-01-20 17h45.49.330966 +0530,
,Objects\093a.jpg,22,0,23,,,,,,,j,1.5651609000051394,0.19226649998745415,None,,,,,,23,0,22,216.77056129999983,,,,,,,,,,,,,,,,,,,,,,,216.75663570000324,216.77056129999983,217.271021499997,217.25461679999717,,,,,,,,,,,,,,,,,,,,,,,,,,217.26009919999342,217.271021499997,217.271021499997,217.271021499997,220.25470360000327,j,1.5651609000051394,0.19226649998745415,220.25476559999515,220.25479039999482,None,220.27063080000516,220.27063080000516,220.27063080000516,,,,,,,,,,,,,,00024,001,2026-01-20_17h45.28.652,MST_task,2024.2.0,59.941904310574905,2026-01-20 17h45.49.330966 +0530,
,Objects\142a.jpg,23,0,24,,,,,,,f,2.3219995999970706,0.2084035000007134,None,,,,,,24,0,23,220.27063080000516,,,,,,,,,,,,,,,,,,,,,,,220.25487930000236,220.27063080000516,220.77086049999343,220.75448069999402,,,,,,,,,,,,,,,,,,,,,,,,,,220.76280159999442,220.77086049999343,220.77086049999343,220.77086049999343,223.7552805000014,f,2.3219995999970706,0.2084035000007134,223.7554822999955,223.75554539999575,None,223.77107380000234,223.77107380000234,223.77107380000234,,,,,,,,,,,,,,00024,001,2026-01-20_17h45.28.652,MST_task,2024.2.0,59.941904310574905,2026-01-20 17h45.49.330966 +0530,
,Objects\083a.jpg,24,0,25,,,,,,,f,2.1004676000011386,0.19237090001115575,None,,,,,,25,0,24,223.77107380000234,,,,,,,,,,,,,,,,,,,,,,,223.7559237999958,223.77107380000234,224.27162569999928,224.25451240000257,,,,,,,,,,,,,,,,,,,,,,,,,,224.26332990000083,224.27162569999928,224.27162569999928,224.27162569999928,227.25554539999575,f,2.1004676000011386,0.19237090001115575,227.25575260000187,227.25582009999198,None,227.27074710000306,227.27074710000306,227.27074710000306,,,,,,,,,,,,,,00024,001,2026-01-20_17h45.28.652,MST_task,2024.2.0,59.941904310574905,2026-01-20 17h45.49.330966 +0530,
,Objects\065a.jpg,25,0,26,,,,,,,f,1.9855711000127485,0.21586369999567978,None,,,,,,26,0,25,227.27074710000306,,,,,,,,,,,,,,,,,,,,,,,227.25614660000429,227.27074710000306,227.77071159999468,227.75430800000322,,,,,,,,,,,,,,,,,,,,,,,,,,227.76311780000106,227.77071159999468,227.77071159999468,227.77071159999468,230.75499679999484,f,1.9855711000127485,0.21586369999567978,230.75518459999876,230.7552422000008,None,230.77050109999254,230.77050109999254,230.77050109999254,,,,,,,,,,,,,,00024,001,2026-01-20_17h45.28.652,MST_task,2024.2.0,59.941904310574905,2026-01-20 17h45.49.330966 +0530,
,Objects\068a.jpg,26,0,27,,,,,,,j,1.3419934999983525,0.20735250000143424,None,,,,,,27,0,26,230.77050109999254,,,,,,,,,,,,,,,,,,,,,,,230.75559950000024,230.77050109999254,231.27085380000062,231.25459709999268,,,,,,,,,,,,,,,,,,,,,,,,,,231.2631349000003,231.27085380000062,231.27085380000062,231.27085380000062,234.25560419999238,j,1.3419934999983525,0.20735250000143424,234.25582350000332,234.25589400000172,None,234.27059650000592,234.27059650000592,234.27059650000592,,,,,,,,,,,,,,00024,001,2026-01-20_17h45.28.652,MST_task,2024.2.0,59.941904310574905,2026-01-20 17h45.49.330966 +0530,
,Objects\105a.jpg,27,0,28,,,,,,,f,1.2174792000005255,0.19235899999330286,None,,,,,,28,0,27,234.27059650000592,,,,,,,,,,,,,,,,,,,,,,,234.25622880000446,234.27059650000592,234.77097860000504,234.75464739999734,,,,,,,,,,,,,,,,,,,,,,,,,,234.76353389999713,234.77097860000504,234.77097860000504,234.77097860000504,237.75505589999375,f,1.2174792000005255,0.19235899999330286,237.75525560000096,237.75531730000512,None,237.77071949999663,237.77071949999663,237.77071949999663,,,,,,,,,,,,,,00024,001,2026-01-20_17h45.28.652,MST_task,2024.2.0,59.941904310574905,2026-01-20 17h45.49.330966 +0530,
,Scenes\151a.jpg,28,0,29,,,,,,,j,0.9331355000031181,0.20790140000462998,None,,,,,,29,0,28,237.77071949999663,,,,,,,,,,,,,,,,,,,,,,,237.7556595999922,237.77071949999663,238.27185029999237,238.25462490000064,,,,,,,,,,,,,,,,,,,,,,,,,,238.26770480000414,238.27185029999237,238.27185029999237,238.27185029999237,241.25544130000344,j,0.9331355000031181,0.20790140000462998,241.25569140000152,241.25575409999874,None,241.27055430000473,241.27055430000473,241.27055430000473,,,,,,,,,,,,,,00024,001,2026-01-20_17h45.28.652,MST_task,2024.2.0,59.941904310574905,2026-01-20 17h45.49.330966 +0530,
,Scenes\186a.jpg,29,0,30,,,,,,,j,1.3835765000112588,0.16797260000021197,None,,,,,,30,0,29,241.27055430000473,,,,,,,,,,,,,,,,,,,,,,,241.25605329999235,241.27055430000473,241.77263900000253,241.7546299999958,,,,,,,,,,,,,,,,,,,,,,,,,,241.7696575000009,241.77263900000253,241.77263900000253,241.77263900000253,244.7711086000054,j,1.3835765000112588,0.16797260000021197,244.77131189999636,244.77138019999256,None,,,,,,,,,,,,,,,,,00024,001,2026-01-20_17h45.28.652,MST_task,2024.2.0,59.941904310574905,2026-01-20 17h45.49.330966 +0530,
,Scenes\066a.jpg,30,0,31,,,,,,,j,0.7083912999951281,0.15239109999674838,None,,,,,,31,0,30,244.78737669999828,,,,,,,,,,,,,,,,,,,,,,,244.7716756000009,244.78737669999828,245.28806079999777,245.2709521999932,,,,,,,,,,,,,,,,,,,,,,,,,,245.2824280999921,245.28806079999777,245.28806079999777,245.28806079999777,248.2720416999946,j,0.7083912999951281,0.15239109999674838,248.2722666000045,248.2723299999925,None,248.2876319000061,248.2876319000061,248.2876319000061,,,,,,,,,,,,,,00024,001,2026-01-20_17h45.28.652,MST_task,2024.2.0,59.941904310574905,2026-01-20 17h45.49.330966 +0530,
,Scenes\122a.jpg,31,0,32,,,,,,,f,1.3808971000107704,0.19225619999633636,None,,,,,,32,0,31,248.2876319000061,,,,,,,,,,,,,,,,,,,,,,,248.27271720000135,248.2876319000061,248.79132109999773,248.77100849999988,,,,,,,,,,,,,,,,,,,,,,,,,,248.78869830000622,248.79132109999773,248.79132109999773,248.79132109999773,251.7877223999967,f,1.3808971000107704,0.19225619999633636,251.78795389999868,251.78802369999175,None,,,,,,,,,,,,,,,,,00024,001,2026-01-20_17h45.28.652,MST_task,2024.2.0,59.941904310574905,2026-01-20 17h45.49.330966 +0530,
,Scenes\073a.jpg,32,0,33,,,,,,,j,1.4744864999956917,0.2075089999998454,None,,,,,,33,0,32,251.80416430000332,,,,,,,,,,,,,,,,,,,,,,,251.78849920000357,251.80416430000332,252.3064153000014,252.2879169999942,,,,,,,,,,,,,,,,,,,,,,,,,,252.30372589999752,252.3064153000014,252.3064153000014,252.3064153000014,255.30458769999677,j,1.4744864999956917,0.2075089999998454,255.30479300000297,255.30486049999308,None,,,,,,,,,,,,,,,,,00024,001,2026-01-20_17h45.28.652,MST_task,2024.2.0,59.941904310574905,2026-01-20 17h45.49.330966 +0530,
,Scenes\168a.jpg,33,0,34,,,,,,,j,1.9915291000070283,0.15128229999390896,None,,,,,,34,0,33,255.32054240000434,,,,,,,,,,,,,,,,,,,,,,,255.30528109999432,255.32054240000434,255.82132000000274,255.80464489999576,,,,,,,,,,,,,,,,,,,,,,,,,,255.81491479999386,255.82132000000274,255.82132000000274,255.82132000000274,258.8052072999999,j,1.9915291000070283,0.15128229999390896,258.80540440000186,258.805466299993,None,258.82059899999877,258.82059899999877,258.82059899999877,,,,,,,,,,,,,,00024,001,2026-01-20_17h45.28.652,MST_task,2024.2.0,59.941904310574905,2026-01-20 17h45.49.330966 +0530,
,Scenes\128a.jpg,34,0,35,,,,,,,j,0.837797899992438,0.17531670001335442,None,,,,,,35,0,34,258.82059899999877,,,,,,,,,,,,,,,,,,,,,,,258.8057786999998,258.82059899999877,259.32707099999243,259.3047438999929,,,,,,,,,,,,,,,,,,,,,,,,,,259.32440709999355,259.32707099999243,259.32707099999243,259.32707099999243,262.32103639999696,j,0.837797899992438,0.17531670001335442,262.32124089999706,262.3213074999949,None,,,,,,,,,,,,,,,,,00024,001,2026-01-20_17h45.28.652,MST_task,2024.2.0,59.941904310574905,2026-01-20 17h45.49.330966 +0530,
,Objects\033a.jpg,35,0,36,,,,,,,f,0.8550529000058305,0.19124519999604672,None,,,,,,36,0,35,262.3372107000032,,,,,,,,,,,,,,,,,,,,,,,262.3216732000001,262.3372107000032,262.837764099997,262.8209867999976,,,,,,,,,,,,,,,,,,,,,,,,,,262.83133950000047,262.837764099997,262.837764099997,262.837764099997,265.8219795000041,f,0.8550529000058305,0.19124519999604672,265.822185099998,265.8222470000037,None,265.8379978000012,265.8379978000012,265.8379978000012,,,,,,,,,,,,,,00024,001,2026-01-20_17h45.28.652,MST_task,2024.2.0,59.941904310574905,2026-01-20 17h45.49.330966 +0530,
,Objects\191a.jpg,36,0,37,,,,,,,j,1.2184550999954809,0.12007289999746718,None,,,,,,37,0,36,265.8379978000012,,,,,,,,,,,,,,,,,,,,,,,265.8225502999994,265.8379978000012,266.337729699997,266.3211814999959,,,,,,,,,,,,,,,,,,,,,,,,,,266.32991559999937,266.337729699997,266.337729699997,266.337729699997,269.32185449999815,j,1.2184550999954809,0.12007289999746718,269.32206039999437,269.3221221999993,None,269.3374646000011,269.3374646000011,269.3374646000011,,,,,,,,,,,,,,00024,001,2026-01-20_17h45.28.652,MST_task,2024.2.0,59.941904310574905,2026-01-20 17h45.49.330966 +0530,
,Objects\141a.jpg,37,0,38,,,,,,,f,1.9589400000113528,0.16782479999528732,None,,,,,,38,0,37,269.3374646000011,,,,,,,,,,,,,,,,,,,,,,,269.3225256000005,269.3374646000011,269.83770340000046,269.8212089000008,,,,,,,,,,,,,,,,,,,,,,,,,,269.829905599996,269.83770340000046,269.83770340000046,269.83770340000046,272.8220280999958,f,1.9589400000113528,0.16782479999528732,272.82222630000615,272.8222892000049,None,272.8375478999951,272.8375478999951,272.8375478999951,,,,,,,,,,,,,,00024,001,2026-01-20_17h45.28.652,MST_task,2024.2.0,59.941904310574905,2026-01-20 17h45.49.330966 +0530,
,Objects\157a.jpg,38,0,39,,,,,,,f,1.3786629999958677,0.16799440000613686,None,,,,,,39,0,38,272.8375478999951,,,,,,,,,,,,,,,,,,,,,,,272.82258989999536,272.8375478999951,273.3377343000029,273.321300399999,,,,,,,,,,,,,,,,,,,,,,,,,,273.32765550000477,273.3377343000029,273.3377343000029,273.3377343000029,276.32120540000324,f,1.3786629999958677,0.16799440000613686,276.3212673999951,276.32129419999546,None,276.3371724000026,276.3371724000026,276.3371724000026,,,,,,,,,,,,,,00024,001,2026-01-20_17h45.28.652,MST_task,2024.2.0,59.941904310574905,2026-01-20 17h45.49.330966 +0530,
,Objects\149a.jpg,39,0,40,,,,,,,f,0.9585989999904996,0.20787160001054872,None,,,,,,40,0,39,276.3371724000026,,,,,,,,,,,,,,,,,,,,,,,276.32165339999483,276.3371724000026,276.83761430000595,276.8209458000056,,,,,,,,,,,,,,,,,,,,,,,,,,276.82941000000574,276.83761430000595,276.83761430000595,276.83761430000595,279.8220203999954,f,0.9585989999904996,0.20787160001054872,279.82222859999456,279.8222914999933,None,279.83713349999744,279.83713349999744,279.83713349999744,,,,,,,,,,,,,,00024,001,2026-01-20_17h45.28.652,MST_task,2024.2.0,59.941904310574905,2026-01-20 17h45.49.330966 +0530,
,Objects\018a.jpg,40,0,41,,,,,,,f,1.1631147000007331,0.18404559999180492,None,,,,,,41,0,40,279.83713349999744,,,,,,,,,,,,,,,,,,,,,,,279.82271550000587,279.83713349999744,280.33775000000605,280.3211362000002,,,,,,,,,,,,,,,,,,,,,,,,,,280.3301810999983,280.33775000000605,280.33775000000605,280.33775000000605,283.3225878999947,f,1.1631147000007331,0.18404559999180492,283.3227843999921,283.3228456999932,None,283.33718339999905,283.33718339999905,283.33718339999905,,,,,,,,,,,,,,00024,001,2026-01-20_17h45.28.652,MST_task,2024.2.0,59.941904310574905,2026-01-20 17h45.49.330966 +0530,
,Objects\084a.jpg,41,0,42,,,,,,,f,1.4542862000089372,0.19199439999647439,None,,,,,,42,0,41,283.33718339999905,,,,,,,,,,,,,,,,,,,,,,,283.3231483999989,283.33718339999905,283.83851079999295,283.8208961999917,,,,,,,,,,,,,,,,,,,,,,,,,,283.83053890000156,283.83851079999295,283.83851079999295,283.83851079999295,286.82211739999184,f,1.4542862000089372,0.19199439999647439,286.82232269999804,286.8224554000044,None,286.8371699999989,286.8371699999989,286.8371699999989,,,,,,,,,,,,,,00024,001,2026-01-20_17h45.28.652,MST_task,2024.2.0,59.941904310574905,2026-01-20 17h45.49.330966 +0530,
,Scenes\116a.jpg,42,0,43,,,,,,,j,1.0910905999917304,0.19141790000139736,None,,,,,,43,0,42,286.8371699999989,,,,,,,,,,,,,,,,,,,,,,,286.82285409999895,286.8371699999989,287.33773729999666,287.3209201999998,,,,,,,,,,,,,,,,,,,,,,,,,,287.3346256999939,287.33773729999666,287.33773729999666,287.33773729999666,290.3219864999992,j,1.0910905999917304,0.19141790000139736,290.32218580000335,290.32224660000065,None,290.3375257000007,290.3375257000007,290.3375257000007,,,,,,,,,,,,,,00024,001,2026-01-20_17h45.28.652,MST_task,2024.2.0,59.941904310574905,2026-01-20 17h45.49.330966 +0530,
,Scenes\120a.jpg,43,0,44,,,,,,,j,1.2976231000066036,0.1924968999956036,None,,,,,,44,0,43,290.3375257000007,,,,,,,,,,,,,,,,,,,,,,,290.3226277999929,290.3375257000007,290.8425748000009,290.8209979999956,,,,,,,,,,,,,,,,,,,,,,,,,,290.8396844999952,290.8425748000009,290.8425748000009,290.8425748000009,293.83761499999673,j,1.2976231000066036,0.1924968999956036,293.8378197999991,293.83788969999296,None,,,,,,,,,,,,,,,,,00024,001,2026-01-20_17h45.28.652,MST_task,2024.2.0,59.941904310574905,2026-01-20 17h45.49.330966 +0530,
,Scenes\108a.jpg,44,0,45,,,,,,,None,,,j,0.09773779999522958,None,,,,45,0,44,293.8549686000042,,,,,,,,,,,,,,,,,,,,,,,293.83828310000536,293.8549686000042,294.362676299992,294.33789710000565,,,,,,,,,,,,,,,,,,,,,,,,,,294.3597523000062,294.362676299992,294.362676299992,294.362676299992,297.35463630000595,None,,,297.3548238999938,297.4710754999978,j,,,,297.3709632999962,297.3709632999962,0.09773779999522958,None,,,,,,,,,,00024,001,2026-01-20_17h45.28.652,MST_task,2024.2.0,59.941904310574905,2026-01-20 17h45.49.330966 +0530,
,Scenes\009a.jpg,45,0,46,,,,,,,j,1.6368939999956638,0.19134510000003502,None,,,,,,46,0,45,297.4878335999965,,,,,,,,,,,,,,,,,,,,,,,297.4714738000039,297.4878335999965,297.99199809999845,297.9708998999995,,,,,,,,,,,,,,,,,,,,,,,,,,297.9892043,297.99199809999845,297.99199809999845,297.99199809999845,300.9713522999955,j,1.6368939999956638,0.19134510000003502,300.971581699996,300.97164849999535,None,,,,,,,,,,,,,,,,,00024,001,2026-01-20_17h45.28.652,MST_task,2024.2.0,59.941904310574905,2026-01-20 17h45.49.330966 +0530,
,Scenes\019a.jpg,46,0,47,,,,,,,j,0.8382680999930017,0.20013420000032056,None,,,,,,47,0,46,300.9876183000015,,,,,,,,,,,,,,,,,,,,,,,300.97194540000055,300.9876183000015,301.4943029999995,301.4711842999968,,,,,,,,,,,,,,,,,,,,,,,,,,301.49129239999456,301.4943029999995,301.4943029999995,301.4943029999995,304.4876341000054,j,0.8382680999930017,0.20013420000032056,304.48783719999483,304.48790429999644,None,,,,,,,,,,,,,,,,,00024,001,2026-01-20_17h45.28.652,MST_task,2024.2.0,59.941904310574905,2026-01-20 17h45.49.330966 +0530,
,Scenes\154a.jpg,47,0,48,,,,,,,j,2.27936430000409,0.2004499000031501,None,,,,,,48,0,47,304.50396380000166,,,,,,,,,,,,,,,,,,,,,,,304.48819970000477,304.50396380000166,305.0049532999983,304.98786649999965,,,,,,,,,,,,,,,,,,,,,,,,,,305.00227789999917,305.0049532999983,305.0049532999983,305.0049532999983,307.98882280000544,j,2.27936430000409,0.2004499000031501,307.98904879999463,307.98911110000336,None,308.0041435000021,308.0041435000021,308.0041435000021,,,,,,,,,,,,,,00024,001,2026-01-20_17h45.28.652,MST_task,2024.2.0,59.941904310574905,2026-01-20 17h45.49.330966 +0530,
,Scenes\065a.jpg,48,0,49,,,,,,,j,0.9219481000036467,0.24029489999520592,None,,,,,,49,0,48,308.0041435000021,,,,,,,,,,,,,,,,,,,,,,,307.98953849999816,308.0041435000021,308.50683559999743,308.48778130000574,,,,,,,,,,,,,,,,,,,,,,,,,,308.50407739999355,308.50683559999743,308.50683559999743,308.50683559999743,311.50440679999883,j,0.9219481000036467,0.24029489999520592,311.504609399999,311.504675499993,None,,,,,,,,,,,,,,,,,00024,001,2026-01-20_17h45.28.652,MST_task,2024.2.0,59.941904310574905,2026-01-20 17h45.49.330966 +0530,
,Objects\034a.jpg,49,0,50,,,,,,,f,1.5572301999927731,0.21637860000191722,None,,,,,,50,0,49,311.52053819999855,,,,,,,,,,,,,,,,,,,,,,,311.50498230000085,311.52053819999855,312.02309299999615,312.00468620000174,,,,,,,,,,,,,,,,,,,,,,,,,,312.0181770000054,312.02309299999615,312.02309299999615,312.02309299999615,315.0216892000026,f,1.5572301999927731,0.21637860000191722,315.02198849999695,315.0220612999983,None,,,,,,,,,,,,,,,,,00024,001,2026-01-20_17h45.28.652,MST_task,2024.2.0,59.941904310574905,2026-01-20 17h45.49.330966 +0530,
,Objects\129a.jpg,50,0,51,,,,,,,f,2.1704446999938227,0.2406637999956729,None,,,,,,51,0,50,315.03756120000617,,,,,,,,,,,,,,,,,,,,,,,315.0224351999932,315.03756120000617,315.5376452000055,315.52122789999703,,,,,,,,,,,,,,,,,,,,,,,,,,315.53054589999374,315.5376452000055,315.5376452000055,315.5376452000055,318.52198799999314,f,2.1704446999938227,0.2406637999956729,318.52225749999343,318.52231929999834,None,318.53752610000083,318.53752610000083,318.53752610000083,,,,,,,,,,,,,,00024,001,2026-01-20_17h45.28.652,MST_task,2024.2.0,59.941904310574905,2026-01-20 17h45.49.330966 +0530,
,Objects\135a.jpg,51,0,52,,,,,,,f,0.6389571000036085,0.22406219999538735,None,,,,,,52,0,51,318.53752610000083,,,,,,,,,,,,,,,,,,,,,,,318.52269559999695,318.53752610000083,319.0377293999918,319.0208375999937,,,,,,,,,,,,,,,,,,,,,,,,,,319.0300342999981,319.0377293999918,319.0377293999918,319.0377293999918,322.02217630000087,f,0.6389571000036085,0.22406219999538735,322.02237209999294,322.0224343000009,None,322.0372492000024,322.0372492000024,322.0372492000024,,,,,,,,,,,,,,00024,001,2026-01-20_17h45.28.652,MST_task,2024.2.0,59.941904310574905,2026-01-20 17h45.49.330966 +0530,
,Objects\089a.jpg,52,0,53,,,,,,,f,1.4657589999987977,0.19226979999803007,None,,,,,,53,0,52,322.0372492000024,,,,,,,,,,,,,,,,,,,,,,,322.02281100000255,322.0372492000024,322.53872100000444,322.52081430000544,,,,,,,,,,,,,,,,,,,,,,,,,,322.5288192000007,322.53872100000444,322.53872100000444,322.53872100000444,325.52243660000386,f,1.4657589999987977,0.19226979999803007,325.5226923000009,325.52275770000415,None,325.538341099993,325.538341099993,325.538341099993,,,,,,,,,,,,,,00024,001,2026-01-20_17h45.28.652,MST_task,2024.2.0,59.941904310574905,2026-01-20 17h45.49.330966 +0530,
,Objects\155a.jpg,53,0,54,,,,,,,f,0.9260049000004074,0.21633480000309646,None,,,,,,54,0,53,325.538341099993,,,,,,,,,,,,,,,,,,,,,,,325.52313600000343,325.538341099993,,326.03743779999786,,,,,,,,,,,,,,,,,,,,,,,,,,326.044410699993,326.0543941999931,326.0543941999931,326.0543941999931,329.03802569999243,f,0.9260049000004074,0.21633480000309646,329.0382380999945,329.0383065999922,None,,,,,,,,,,,,,,,,,00024,001,2026-01-20_17h45.28.652,MST_task,2024.2.0,59.941904310574905,2026-01-20 17h45.49.330966 +0530,
,Objects\144a.jpg,54,0,55,,,,,,,f,0.9055503999989014,0.23149599999305792,None,,,,,,55,0,54,329.0542051999946,,,,,,,,,,,,,,,,,,,,,,,329.03867389999505,329.0542051999946,329.55520930000057,329.5376033999928,,,,,,,,,,,,,,,,,,,,,,,,,,329.5483072000061,329.55520930000057,329.55520930000057,329.55520930000057,332.55459529999644,f,0.9055503999989014,0.23149599999305792,332.5547427999991,332.55478979999316,None,,,,,,,,,,,,,,,,,00024,001,2026-01-20_17h45.28.652,MST_task,2024.2.0,59.941904310574905,2026-01-20 17h45.49.330966 +0530,
,Objects\173a.jpg,55,0,56,,,,,,,f,1.213204300001962,0.21620710000570398,None,,,,,,56,0,55,332.5708375999966,,,,,,,,,,,,,,,,,,,,,,,332.555056600002,332.5708375999966,333.0708816999977,333.0545426000026,,,,,,,,,,,,,,,,,,,,,,,,,,333.06462889999966,333.0708816999977,333.0708816999977,333.0708816999977,336.05544470000314,f,1.213204300001962,0.21620710000570398,336.0556816000026,336.0557446000021,None,336.0711162999942,336.0711162999942,336.0711162999942,,,,,,,,,,,,,,00024,001,2026-01-20_17h45.28.652,MST_task,2024.2.0,59.941904310574905,2026-01-20 17h45.49.330966 +0530,
,Scenes\049a.jpg,56,0,57,,,,,,,None,,,f,1.31420480000088,None,,,,57,0,56,336.0711162999942,,,,,,,,,,,,,,,,,,,,,,,336.05611439999484,336.0711162999942,336.57065650000004,336.5545242999942,,,,,,,,,,,,,,,,,,,,,,,,,,336.56598879999365,336.57065650000004,336.57065650000004,336.57065650000004,339.55524570000125,None,,,339.5553979999968,340.8876805000036,f,339.57042780000484,339.57042780000484,339.57042780000484,339.57042780000484,339.57042780000484,1.31420480000088,None,,,,,,,,,,00024,001,2026-01-20_17h45.28.652,MST_task,2024.2.0,59.941904310574905,2026-01-20 17h45.49.330966 +0530,
,Scenes\006a.jpg,57,0,58,,,,,,,f,1.4953462999983458,0.21613449999131262,None,,,,,,58,0,57,340.9041331000044,,,,,,,,,,,,,,,,,,,,,,,340.88821299999836,340.9041331000044,341.4050717999926,341.3876980000059,,,,,,,,,,,,,,,,,,,,,,,,,,341.40274879999924,341.4050717999926,341.4050717999926,341.4050717999926,344.38879389999784,f,1.4953462999983458,0.21613449999131262,344.3888789000048,344.3889025999961,None,344.404125400004,344.404125400004,344.404125400004,,,,,,,,,,,,,,00024,001,2026-01-20_17h45.28.652,MST_task,2024.2.0,59.941904310574905,2026-01-20 17h45.49.330966 +0530,
,Scenes\043a.jpg,58,0,59,,,,,,,f,2.1502859000029275,0.2324679000012111,None,,,,,,59,0,58,344.404125400004,,,,,,,,,,,,,,,,,,,,,,,344.38902240000607,344.404125400004,344.9099736000062,344.8878781999956,,,,,,,,,,,,,,,,,,,,,,,,,,344.90689349999593,344.9099736000062,344.9099736000062,344.9099736000062,347.90447710000444,f,2.1502859000029275,0.2324679000012111,347.90470749999804,347.9047988999955,None,,,,,,,,,,,,,,,,,00024,001,2026-01-20_17h45.28.652,MST_task,2024.2.0,59.941904310574905,2026-01-20 17h45.49.330966 +0530,
,Scenes\062a.jpg,59,0,60,,,,,,,j,1.2065781000128482,0.2167860999907134,None,,,,,,60,0,59,347.9205621000001,,,,,,,,,,,,,,,,,,,,,,,347.9052398000058,347.9205621000001,348.4215084000025,348.4042649000039,,,,,,,,,,,,,,,,,,,,,,,,,,348.4190918999957,348.4215084000025,348.4215084000025,348.4215084000025,351.40531109999574,j,1.2065781000128482,0.2167860999907134,351.4055842999951,351.4056469000061,None,351.4205746999942,351.4205746999942,351.4205746999942,,,,,,,,,,,,,,00024,001,2026-01-20_17h45.28.652,MST_task,2024.2.0,59.941904310574905,2026-01-20 17h45.49.330966 +0530,
,Scenes\012a.jpg,60,0,61,,,,,,,j,2.43874820000201,0.19272959999216255,None,,,,,,61,0,60,351.4205746999942,,,,,,,,,,,,,,,,,,,,,,,351.40598179999506,351.4205746999942,351.9332902000024,351.9047056999989,,,,,,,,,,,,,,,,,,,,,,,,,,351.93046719999984,351.9332902000024,351.9332902000024,351.9332902000024,354.921141800005,j,2.43874820000201,0.19272959999216255,354.9213399,354.9214069000009,None,,,,,,,,,,,,,,,,,00024,001,2026-01-20_17h45.28.652,MST_task,2024.2.0,59.941904310574905,2026-01-20 17h45.49.330966 +0530,
,Scenes\105a.jpg,61,0,62,,,,,,,j,0.9557721000019228,0.20793449999473523,None,,,,,,62,0,61,354.9373010999989,,,,,,,,,,,,,,,,,,,,,,,354.92176939999626,354.9373010999989,355.4405224999937,355.42102209999575,,,,,,,,,,,,,,,,,,,,,,,,,,355.43793479999295,355.4405224999937,355.4405224999937,355.4405224999937,358.43789580000157,j,0.9557721000019228,0.20793449999473523,358.43811709999864,358.43821779999416,None,,,,,,,,,,,,,,,,,00024,001,2026-01-20_17h45.28.652,MST_task,2024.2.0,59.941904310574905,2026-01-20 17h45.49.330966 +0530,
,Scenes\016a.jpg,62,0,63,,,,,,,j,2.0984621999959927,0.191350400011288,None,,,,,,63,0,62,358.45416110000224,,,,,,,,,,,,,,,,,,,,,,,358.438762100006,358.45416110000224,358.954339399992,358.9377824999974,,,,,,,,,,,,,,,,,,,,,,,,,,358.9514066999982,358.954339399992,358.954339399992,358.954339399992,361.9385176999931,j,2.0984621999959927,0.191350400011288,361.9387086999923,361.9387706999987,None,361.9541759999993,361.9541759999993,361.9541759999993,,,,,,,,,,,,,,00024,001,2026-01-20_17h45.28.652,MST_task,2024.2.0,59.941904310574905,2026-01-20 17h45.49.330966 +0530,
,Objects\029a.jpg,63,0,64,,,,,,,f,1.7174621999874944,0.15195130000938661,None,,,,,,64,0,63,361.9541759999993,,,,,,,,,,,,,,,,,,,,,,,361.9391503999941,361.9541759999993,362.4546272000007,362.43777829999453,,,,,,,,,,,,,,,,,,,,,,,,,,362.4457325999974,362.4546272000007,362.4546272000007,362.4546272000007,365.43892659999256,f,1.7174621999874944,0.15195130000938661,365.43908029999875,365.43912419999833,None,365.45387339999434,365.45387339999434,365.45387339999434,,,,,,,,,,,,,,00024,001,2026-01-20_17h45.28.652,MST_task,2024.2.0,59.941904310574905,2026-01-20 17h45.49.330966 +0530,
,Objects\058a.jpg,64,0,65,,,,,,,f,1.602001699997345,0.2636657999973977,None,,,,,,65,0,64,365.45387339999434,,,,,,,,,,,,,,,,,,,,,,,365.43944430000556,365.45387339999434,365.95438890000514,365.937657500006,,,,,,,,,,,,,,,,,,,,,,,,,,365.94653030000336,365.95438890000514,365.95438890000514,365.95438890000514,368.9396579000022,f,1.602001699997345,0.2636657999973977,368.939858800004,368.93991950000054,None,368.95454219999374,368.95454219999374,368.95454219999374,,,,,,,,,,,,,,00024,001,2026-01-20_17h45.28.652,MST_task,2024.2.0,59.941904310574905,2026-01-20 17h45.49.330966 +0530,
,Objects\110a.jpg,65,0,66,,,,,,,f,0.7897451000026194,0.22465639999427367,None,,,,,,66,0,65,368.95454219999374,,,,,,,,,,,,,,,,,,,,,,,368.9402229999978,368.95454219999374,369.454387699996,369.43799330000184,,,,,,,,,,,,,,,,,,,,,,,,,,369.44695699999284,369.454387699996,369.454387699996,369.454387699996,372.43856969999615,f,0.7897451000026194,0.22465639999427367,372.43876340000133,372.43882300000405,None,372.45420579999336,372.45420579999336,372.45420579999336,,,,,,,,,,,,,,00024,001,2026-01-20_17h45.28.652,MST_task,2024.2.0,59.941904310574905,2026-01-20 17h45.49.330966 +0530,
,Objects\005a.jpg,66,0,67,,,,,,,f,0.9467139000043971,0.23922099999617785,None,,,,,,67,0,66,372.45420579999336,,,,,,,,,,,,,,,,,,,,,,,372.4391193000047,372.45420579999336,372.95431729999837,372.93759149999823,,,,,,,,,,,,,,,,,,,,,,,,,,372.9444954999926,372.95431729999837,372.95431729999837,372.95431729999837,375.9384187999967,f,0.9467139000043971,0.23922099999617785,375.9386142000003,375.9386914999923,None,375.95458010000584,375.95458010000584,375.95458010000584,,,,,,,,,,,,,,00024,001,2026-01-20_17h45.28.652,MST_task,2024.2.0,59.941904310574905,2026-01-20 17h45.49.330966 +0530,
,Objects\160a.jpg,67,0,68,,,,,,,j,1.789973300008569,0.26395349999074824,None,,,,,,68,0,67,375.95458010000584,,,,,,,,,,,,,,,,,,,,,,,375.9391161999956,375.95458010000584,376.4539943999989,376.43777760000376,,,,,,,,,,,,,,,,,,,,,,,,,,376.44658920000074,376.4539943999989,376.4539943999989,376.4539943999989,379.4386672999972,j,1.789973300008569,0.26395349999074824,379.43886019999627,379.43891939999594,None,379.454150199992,379.454150199992,379.454150199992,,,,,,,,,,,,,,00024,001,2026-01-20_17h45.28.652,MST_task,2024.2.0,59.941904310574905,2026-01-20 17h45.49.330966 +0530,
,Objects\082a.jpg,68,0,69,,,,,,,f,1.9125540999957593,0.24817210000765044,None,,,,,,69,0,68,379.454150199992,,,,,,,,,,,,,,,,,,,,,,,379.43922960000054,379.454150199992,379.9555279000051,379.937881299993,,,,,,,,,,,,,,,,,,,,,,,,,,379.94680429999426,379.9555279000051,379.9555279000051,379.9555279000051,382.95428209999227,f,1.9125540999957593,0.24817210000765044,382.95448109999415,382.95454679999966,None,,,,,,,,,,,,,,,,,00024,001,2026-01-20_17h45.28.652,MST_task,2024.2.0,59.941904310574905,2026-01-20 17h45.49.330966 +0530,
,Objects\066a.jpg,69,0,70,,,,,,,f,1.0448518999910448,0.23285390000091866,None,,,,,,70,0,69,382.9707834000001,,,,,,,,,,,,,,,,,,,,,,,382.95491060000495,382.9707834000001,383.47099329999764,383.4546393000055,,,,,,,,,,,,,,,,,,,,,,,,,,383.46340860000055,383.47099329999764,383.47099329999764,383.47099329999764,386.4555076999968,f,1.0448518999910448,0.23285390000091866,386.4557189000043,386.4557799000031,None,386.4708204000053,386.4708204000053,386.4708204000053,,,,,,,,,,,,,,00024,001,2026-01-20_17h45.28.652,MST_task,2024.2.0,59.941904310574905,2026-01-20 17h45.49.330966 +0530,
,Scenes\022a.jpg,70,0,71,,,,,,,j,1.1455147999949986,0.22324620001018047,None,,,,,,71,0,70,386.4708204000053,,,,,,,,,,,,,,,,,,,,,,,386.45610339999257,386.4708204000053,386.9712403000012,386.9546721999941,,,,,,,,,,,,,,,,,,,,,,,,,,386.96202799999446,386.9712403000012,386.9712403000012,386.9712403000012,389.9550311000057,j,1.1455147999949986,0.22324620001018047,389.95522479999636,389.9552849000029,None,389.97079989999474,389.97079989999474,389.97079989999474,,,,,,,,,,,,,,00024,001,2026-01-20_17h45.28.652,MST_task,2024.2.0,59.941904310574905,2026-01-20 17h45.49.330966 +0530,
,Scenes\111a.jpg,71,0,72,,,,,,,j,1.2280671000044094,0.9283557000017026,None,,,,,,72,0,71,389.97079989999474,,,,,,,,,,,,,,,,,,,,,,,389.9556567999971,389.97079989999474,390.4720601000008,390.45454930000415,,,,,,,,,,,,,,,,,,,,,,,,,,390.469379999995,390.4720601000008,390.4720601000008,390.4720601000008,393.455799000003,j,1.2280671000044094,0.9283557000017026,393.4560080999945,393.45612839999376,None,393.47063749999506,393.47063749999506,393.47063749999506,,,,,,,,,,,,,,00024,001,2026-01-20_17h45.28.652,MST_task,2024.2.0,59.941904310574905,2026-01-20 17h45.49.330966 +0530,
,Scenes\091a.jpg,72,0,73,,,,,,,j,0.6767970999935642,0.1850364999991143,None,,,,,,73,0,72,393.47063749999506,,,,,,,,,,,,,,,,,,,,,,,393.45642499999667,393.47063749999506,393.97530720000213,393.9543119000009,,,,,,,,,,,,,,,,,,,,,,,,,,393.97262459999183,393.97530720000213,393.97530720000213,393.97530720000213,396.97114870000223,j,0.6767970999935642,0.1850364999991143,396.97135799999523,396.97142459999304,None,,,,,,,,,,,,,,,,,00024,001,2026-01-20_17h45.28.652,MST_task,2024.2.0,59.941904310574905,2026-01-20 17h45.49.330966 +0530,
,Scenes\156a.jpg,73,0,74,,,,,,,j,2.4842801000049803,0.16792700000223704,None,,,,,,74,0,73,396.9875272999925,,,,,,,,,,,,,,,,,,,,,,,396.97178740000527,396.9875272999925,397.48782549999305,397.4712331000046,,,,,,,,,,,,,,,,,,,,,,,,,,397.4829483999929,397.48782549999305,397.48782549999305,397.48782549999305,400.47213080000074,j,2.4842801000049803,0.16792700000223704,400.4723276000004,400.4723865999986,None,400.48752650000097,400.48752650000097,400.48752650000097,,,,,,,,,,,,,,00024,001,2026-01-20_17h45.28.652,MST_task,2024.2.0,59.941904310574905,2026-01-20 17h45.49.330966 +0530,
,Scenes\191a.jpg,74,0,75,,,,,,,j,1.0646781000104966,0.1920071999920765,None,,,,,,75,0,74,400.48752650000097,,,,,,,,,,,,,,,,,,,,,,,400.47276799999236,400.48752650000097,400.9876512000046,400.97119440000097,,,,,,,,,,,,,,,,,,,,,,,,,,400.9849702999927,400.9876512000046,400.9876512000046,400.9876512000046,403.9718059000006,j,1.0646781000104966,0.1920071999920765,403.9719987999997,403.97205969999777,None,403.9872736999969,403.9872736999969,403.9872736999969,,,,,,,,,,,,,,00024,001,2026-01-20_17h45.28.652,MST_task,2024.2.0,59.941904310574905,2026-01-20 17h45.49.330966 +0530,
,Scenes\067a.jpg,75,0,76,,,,,,,j,0.7300742999941576,0.20863069999904837,None,,,,,,76,0,75,403.9872736999969,,,,,,,,,,,,,,,,,,,,,,,403.97237550000136,403.9872736999969,404.4900811999978,404.47115509999276,,,,,,,,,,,,,,,,,,,,,,,,,,404.4874071999948,404.4900811999978,404.4900811999978,404.4900811999978,407.4877839999972,j,0.7300742999941576,0.20863069999904837,407.48798619999434,407.4880550999951,None,,,,,,,,,,,,,,,,,00024,001,2026-01-20_17h45.28.652,MST_task,2024.2.0,59.941904310574905,2026-01-20 17h45.49.330966 +0530,
,Scenes\078a.jpg,76,0,77,,,,,,,j,0.6924660999939078,0.19194079999579117,None,,,,,,77,0,76,407.5040425000043,,,,,,,,,,,,,,,,,,,,,,,407.48856339999475,407.5040425000043,,407.9884640999953,,,,,,,,,,,,,,,,,,,,,,,,,,408.00508000000264,408.0076803999982,408.0076803999982,408.0076803999982,411.0045361999946,j,0.6924660999939078,0.19194079999579117,411.00473309999506,411.00480080000125,None,,,,,,,,,,,,,,,,,00024,001,2026-01-20_17h45.28.652,MST_task,2024.2.0,59.941904310574905,2026-01-20 17h45.49.330966 +0530,
,Objects\094a.jpg,77,0,78,,,,,,,j,0.8189847000030568,0.12830939999548718,None,,,,,,78,0,77,411.0207731999981,,,,,,,,,,,,,,,,,,,,,,,411.0051711999986,411.0207731999981,411.5214011000062,411.50424080000084,,,,,,,,,,,,,,,,,,,,,,,,,,411.51404910000565,411.5214011000062,411.5214011000062,411.5214011000062,414.5054861999961,j,0.8189847000030568,0.12830939999548718,414.505677299996,414.5057533999934,None,414.5204245000059,414.5204245000059,414.5204245000059,,,,,,,,,,,,,,00024,001,2026-01-20_17h45.28.652,MST_task,2024.2.0,59.941904310574905,2026-01-20 17h45.49.330966 +0530,
,Objects\172a.jpg,78,0,79,,,,,,,j,1.1760947000002488,0.19124669999291655,None,,,,,,79,0,78,414.5204245000059,,,,,,,,,,,,,,,,,,,,,,,414.50612649999675,414.5204245000059,415.0210403999954,415.00463039999886,,,,,,,,,,,,,,,,,,,,,,,,,,415.0130308999942,415.0210403999954,415.0210403999954,415.0210403999954,418.0050005999947,j,1.1760947000002488,0.19124669999291655,418.0051892000047,418.00524959999893,None,418.0203853999992,418.0203853999992,418.0203853999992,,,,,,,,,,,,,,00024,001,2026-01-20_17h45.28.652,MST_task,2024.2.0,59.941904310574905,2026-01-20 17h45.49.330966 +0530,
,Objects\117a.jpg,79,0,80,,,,,,,j,2.8582339999993565,None,None,,,,,,80,0,79,418.0203853999992,,,,,,,,,,,,,,,,,,,,,,,418.005682300005,418.0203853999992,418.5216817000037,418.50454629999876,,,,,,,,,,,,,,,,,,,,,,,,,,418.51274649999687,418.5216817000037,418.5216817000037,418.5216817000037,421.50534610000614,j,2.8582339999993565,None,421.5055405000021,421.5056016000017,None,421.521960500002,421.521960500002,421.521960500002,,,,,,,,,,,,,,00024,001,2026-01-20_17h45.28.652,MST_task,2024.2.0,59.941904310574905,2026-01-20 17h45.49.330966 +0530,
,Objects\085a.jpg,80,0,81,,,,,,,f,0.830333799996879,0.2560805000102846,None,,,,,,81,0,80,421.521960500002,,,,,,,,,,,,,,,,,,,,,,,421.50589899999613,421.521960500002,,422.0210117999959,,,,,,,,,,,,,,,,,,,,,,,,,,422.0302662000031,422.0376464000001,422.0376464000001,422.0376464000001,425.0208313000039,f,0.830333799996879,0.2560805000102846,425.0210317000019,425.0210982999997,None,,,,,,,,,,,,,,,,,00024,001,2026-01-20_17h45.28.652,MST_task,2024.2.0,59.941904310574905,2026-01-20 17h45.49.330966 +0530,
,Objects\158a.jpg,81,0,82,,,,,,,f,0.7151965999946697,0.20769660000223666,None,,,,,,82,0,81,425.03787820000434,,,,,,,,,,,,,,,,,,,,,,,425.0214641999919,425.03787820000434,425.53776669999934,425.5212154000037,,,,,,,,,,,,,,,,,,,,,,,,,,425.53071950000594,425.53776669999934,425.53776669999934,425.53776669999934,428.52196019999974,f,0.7151965999946697,0.20769660000223666,428.52215940000315,428.5222231999942,None,428.53734909999184,428.53734909999184,428.53734909999184,,,,,,,,,,,,,,00024,001,2026-01-20_17h45.28.652,MST_task,2024.2.0,59.941904310574905,2026-01-20 17h45.49.330966 +0530,
,Objects\101a.jpg,82,0,83,,,,,,,j,1.7578985000000102,0.18430769999395125,None,,,,,,83,0,82,428.53734909999184,,,,,,,,,,,,,,,,,,,,,,,428.52259789999516,428.53734909999184,429.03845680000086,429.02102359999844,,,,,,,,,,,,,,,,,,,,,,,,,,429.03019580000546,429.03845680000086,429.03845680000086,429.03845680000086,432.022034900001,j,1.7578985000000102,0.18430769999395125,432.0222494000045,432.0223108999926,None,432.03741580000496,432.03741580000496,432.03741580000496,,,,,,,,,,,,,,00024,001,2026-01-20_17h45.28.652,MST_task,2024.2.0,59.941904310574905,2026-01-20 17h45.49.330966 +0530,
,Objects\169a.jpg,83,0,84,,,,,,,None,,,j,0.6825346999976318,None,,,,84,0,83,432.03741580000496,,,,,,,,,,,,,,,,,,,,,,,432.0226309999998,432.03741580000496,432.537556700001,432.5209080999921,,,,,,,,,,,,,,,,,,,,,,,,,,432.5300583000062,432.537556700001,432.537556700001,432.537556700001,435.5225640999997,None,,,435.52274139999645,436.2214434000052,j,435.537599999996,435.537599999996,435.537599999996,435.537599999996,435.537599999996,0.6825346999976318,None,,,,,,,,,,00024,001,2026-01-20_17h45.28.652,MST_task,2024.2.0,59.941904310574905,2026-01-20 17h45.49.330966 +0530,
,Scenes\013a.jpg,84,0,85,,,,,,,j,0.7889746000000741,0.2001658000081079,None,,,,,,85,0,84,436.2375286000024,,,,,,,,,,,,,,,,,,,,,,,436.22177940000256,436.2375286000024,436.74289449999924,436.72112010000274,,,,,,,,,,,,,,,,,,,,,,,,,,436.73950300000433,436.74289449999924,436.74289449999924,436.74289449999924,439.73786700000346,j,0.7889746000000741,0.2001658000081079,439.73807180000586,439.73814129999664,None,,,,,,,,,,,,,,,,,00024,001,2026-01-20_17h45.28.652,MST_task,2024.2.0,59.941904310574905,2026-01-20 17h45.49.330966 +0530,
,Scenes\150a.jpg,85,0,86,,,,,,,j,1.1721086999896215,0.19927090000419412,None,,,,,,86,0,85,439.7541777000006,,,,,,,,,,,,,,,,,,,,,,,439.73850890000176,439.7541777000006,440.2566494000057,440.2380012999929,,,,,,,,,,,,,,,,,,,,,,,,,,440.2536836999934,440.2566494000057,440.2566494000057,440.2566494000057,443.2545448000019,j,1.1721086999896215,0.19927090000419412,443.2547451999999,443.25480999999854,None,,,,,,,,,,,,,,,,,00024,001,2026-01-20_17h45.28.652,MST_task,2024.2.0,59.941904310574905,2026-01-20 17h45.49.330966 +0530,
,Scenes\037a.jpg,86,0,87,,,,,,,j,1.3846761000022525,0.1601682000036817,None,,,,,,87,0,86,443.2706152000028,,,,,,,,,,,,,,,,,,,,,,,443.2553218999965,443.2706152000028,443.77147700000205,443.7546091999975,,,,,,,,,,,,,,,,,,,,,,,,,,443.76521630000207,443.77147700000205,443.77147700000205,443.77147700000205,446.7553263000009,j,1.3846761000022525,0.1601682000036817,446.75551659999473,446.7555777999951,None,446.7710450000013,446.7710450000013,446.7710450000013,,,,,,,,,,,,,,00024,001,2026-01-20_17h45.28.652,MST_task,2024.2.0,59.941904310574905,2026-01-20 17h45.49.330966 +0530,
,Scenes\080a.jpg,87,0,88,,,,,,,j,0.8520313000044553,0.17685159998654854,None,,,,,,88,0,87,446.7710450000013,,,,,,,,,,,,,,,,,,,,,,,446.75587480000104,446.7710450000013,447.27194900000177,447.2549693000037,,,,,,,,,,,,,,,,,,,,,,,,,,447.269306599992,447.27194900000177,447.27194900000177,447.27194900000177,450.27084519999335,j,0.8520313000044553,0.17685159998654854,450.2711210999987,450.27119010000024,None,,,,,,,,,,,,,,,,,00024,001,2026-01-20_17h45.28.652,MST_task,2024.2.0,59.941904310574905,2026-01-20 17h45.49.330966 +0530,
,Scenes\060a.jpg,88,0,89,,,,,,,j,2.364257399996859,0.2320043999934569,None,,,,,,89,0,88,450.2870705999958,,,,,,,,,,,,,,,,,,,,,,,450.2715983999951,450.2870705999958,450.79205649999494,450.7711350000027,,,,,,,,,,,,,,,,,,,,,,,,,,450.78923589999613,450.79205649999494,450.79205649999494,450.79205649999494,453.78868379999767,j,2.364257399996859,0.2320043999934569,453.788893799996,453.7889520000026,None,,,,,,,,,,,,,,,,,00024,001,2026-01-20_17h45.28.652,MST_task,2024.2.0,59.941904310574905,2026-01-20 17h45.49.330966 +0530,
,Scenes\167a.jpg,89,0,90,,,,,,,j,0.6368806999962544,0.19999040001130197,None,,,,,,90,0,89,453.80403270000534,,,,,,,,,,,,,,,,,,,,,,,453.789334999994,453.80403270000534,454.3118525000027,454.28802160000487,,,,,,,,,,,,,,,,,,,,,,,,,,454.30894659999467,454.3118525000027,454.3118525000027,454.3118525000027,457.30524739999964,j,0.6368806999962544,0.19999040001130197,457.3054480999999,457.3055139000062,None,,,,,,,,,,,,,,,,,00024,001,2026-01-20_17h45.28.652,MST_task,2024.2.0,59.941904310574905,2026-01-20 17h45.49.330966 +0530,
,Scenes\139a.jpg,90,0,91,,,,,,,j,0.7267887000052724,0.19192959999782033,None,,,,,,91,0,90,457.3208186999982,,,,,,,,,,,,,,,,,,,,,,,457.30588200000057,457.3208186999982,457.82122090000485,457.8042959000013,,,,,,,,,,,,,,,,,,,,,,,,,,457.8167719000048,457.82122090000485,457.82122090000485,457.82122090000485,460.80512330000056,j,0.7267887000052724,0.19192959999782033,460.80531599999813,460.80537560000084,None,460.8207328999997,460.8207328999997,460.8207328999997,,,,,,,,,,,,,,00024,001,2026-01-20_17h45.28.652,MST_task,2024.2.0,59.941904310574905,2026-01-20 17h45.49.330966 +0530,
,Objects\017a.jpg,91,0,92,,,,,,,j,0.6271798999950988,0.3123755999986315,None,,,,,,92,0,91,460.8207328999997,,,,,,,,,,,,,,,,,,,,,,,460.8057970999944,460.8207328999997,461.3211176000041,461.30467680000584,,,,,,,,,,,,,,,,,,,,,,,,,,461.3168103999924,461.3211176000041,461.3211176000041,461.3211176000041,464.3055282999994,j,0.6271798999950988,0.3123755999986315,464.3057234000007,464.30578379999497,None,464.3204945000034,464.3204945000034,464.3204945000034,,,,,,,,,,,,,,00024,001,2026-01-20_17h45.28.652,MST_task,2024.2.0,59.941904310574905,2026-01-20 17h45.49.330966 +0530,
,Objects\124a.jpg,92,0,93,,,,,,,j,0.847397399993497,0.2321080000110669,None,,,,,,93,0,92,464.3204945000034,,,,,,,,,,,,,,,,,,,,,,,464.3061325000017,464.3204945000034,464.8207915999956,464.80440359999193,,,,,,,,,,,,,,,,,,,,,,,,,,464.8132118999929,464.8207915999956,464.8207915999956,464.8207915999956,467.8053896000056,j,0.847397399993497,0.2321080000110669,467.8055852999969,467.80564429999504,None,467.8210301999934,467.8210301999934,467.8210301999934,,,,,,,,,,,,,,00024,001,2026-01-20_17h45.28.652,MST_task,2024.2.0,59.941904310574905,2026-01-20 17h45.49.330966 +0530,
,Objects\073a.jpg,93,0,94,,,,,,,f,0.9392323999927612,0.24842780000471976,None,,,,,,94,0,93,467.8210301999934,,,,,,,,,,,,,,,,,,,,,,,467.8060054999951,467.8210301999934,468.32101149999653,468.30466939999314,,,,,,,,,,,,,,,,,,,,,,,,,,468.31362600000284,468.32101149999653,468.32101149999653,468.32101149999653,471.3052832999965,f,0.9392323999927612,0.24842780000471976,471.30548409999756,471.3055442000041,None,471.32081550000294,471.32081550000294,471.32081550000294,,,,,,,,,,,,,,00024,001,2026-01-20_17h45.28.652,MST_task,2024.2.0,59.941904310574905,2026-01-20 17h45.49.330966 +0530,
,Objects\176a.jpg,94,0,95,,,,,,,j,0.9028718000045046,0.17678719999094028,None,,,,,,95,0,94,471.32081550000294,,,,,,,,,,,,,,,,,,,,,,,471.30592149999575,471.32081550000294,471.82105030000093,471.8044590999925,,,,,,,,,,,,,,,,,,,,,,,,,,471.81135350000113,471.82105030000093,471.82105030000093,471.82105030000093,474.80525130000024,j,0.9028718000045046,0.17678719999094028,474.80545270000584,474.8055136000039,None,474.82042560000264,474.82042560000264,474.82042560000264,,,,,,,,,,,,,,00024,001,2026-01-20_17h45.28.652,MST_task,2024.2.0,59.941904310574905,2026-01-20 17h45.49.330966 +0530,
,Objects\096a.jpg,95,0,96,,,,,,,f,0.9312608000036562,0.22391780000180006,None,,,,,,96,0,95,474.82042560000264,,,,,,,,,,,,,,,,,,,,,,,474.80589509999845,474.82042560000264,475.32091989999753,475.30440959999396,,,,,,,,,,,,,,,,,,,,,,,,,,475.30992620000325,475.32091989999753,475.32091989999753,475.32091989999753,478.3051487000048,f,0.9312608000036562,0.22391780000180006,478.3053416000039,478.30540029999975,None,478.3208022000035,478.3208022000035,478.3208022000035,,,,,,,,,,,,,,00024,001,2026-01-20_17h45.28.652,MST_task,2024.2.0,59.941904310574905,2026-01-20 17h45.49.330966 +0530,
,Objects\121a.jpg,96,0,97,,,,,,,j,2.5509834999975283,None,None,,,,,,97,0,96,478.3208022000035,,,,,,,,,,,,,,,,,,,,,,,478.3057659000042,478.3208022000035,478.8210815000057,478.8047144000011,,,,,,,,,,,,,,,,,,,,,,,,,,478.8143001999997,478.8210815000057,478.8210815000057,478.8210815000057,481.8053418000054,j,2.5509834999975283,None,481.8055347000045,481.80559479999647,None,481.8207545000041,481.8207545000041,481.8207545000041,,,,,,,,,,,,,,00024,001,2026-01-20_17h45.28.652,MST_task,2024.2.0,59.941904310574905,2026-01-20 17h45.49.330966 +0530,
,Objects\100a.jpg,97,0,98,,,,,,,j,1.4034180000016931,0.11985799999092706,None,,,,,,98,0,97,481.8207545000041,,,,,,,,,,,,,,,,,,,,,,,481.80588949999947,481.8207545000041,482.3207054999948,482.3044164000021,,,,,,,,,,,,,,,,,,,,,,,,,,482.3137774999923,482.3207054999948,482.3207054999948,482.3207054999948,485.30546439999307,j,1.4034180000016931,0.11985799999092706,485.3056626000034,485.30572210000537,None,485.3205178000062,485.3205178000062,485.3205178000062,,,,,,,,,,,,,,00024,001,2026-01-20_17h45.28.652,MST_task,2024.2.0,59.941904310574905,2026-01-20 17h45.49.330966 +0530,
,Scenes\092a.jpg,98,0,99,,,,,,,j,0.7311120999947889,0.1763580999977421,None,,,,,,99,0,98,485.3205178000062,,,,,,,,,,,,,,,,,,,,,,,485.30606329999864,485.3205178000062,485.8252041999949,485.804395500003,,,,,,,,,,,,,,,,,,,,,,,,,,485.8222667999944,485.8252041999949,485.8252041999949,485.8252041999949,488.8211919000023,j,0.7311120999947889,0.1763580999977421,488.82147900000564,488.82154989999253,None,,,,,,,,,,,,,,,,,00024,001,2026-01-20_17h45.28.652,MST_task,2024.2.0,59.941904310574905,2026-01-20 17h45.49.330966 +0530,
,Scenes\029a.jpg,99,0,100,,,,,,,j,0.8944189000030747,0.1434783000004245,None,,,,,,100,0,99,488.83742480000365,,,,,,,,,,,,,,,,,,,,,,,488.8218429999979,488.83742480000365,489.34236090000195,489.32103469999856,,,,,,,,,,,,,,,,,,,,,,,,,,489.3393599999981,489.34236090000195,489.34236090000195,489.34236090000195,492.3377061999927,j,0.8944189000030747,0.1434783000004245,492.3379045000038,492.33797480000067,None,,,,,,,,,,,,,,,,,00024,001,2026-01-20_17h45.28.652,MST_task,2024.2.0,59.941904310574905,2026-01-20 17h45.49.330966 +0530,
,Scenes\030a.jpg,100,0,101,,,,,,,j,0.6180502000061097,0.19137649999174755,None,,,,,,101,0,100,492.35418769999524,,,,,,,,,,,,,,,,,,,,,,,492.3383409999951,492.35418769999524,492.85863449999306,492.83768759999657,,,,,,,,,,,,,,,,,,,,,,,,,,492.85638270000345,492.85863449999306,492.85863449999306,492.85863449999306,495.8542624999973,j,0.6180502000061097,0.19137649999174755,495.85446430000593,495.85453149999375,None,,,,,,,,,,,,,,,,,00024,001,2026-01-20_17h45.28.652,MST_task,2024.2.0,59.941904310574905,2026-01-20 17h45.49.330966 +0530,
,Scenes\075a.jpg,101,0,102,,,,,,,j,0.7231683999998495,0.2476792000088608,None,,,,,,102,0,101,495.87083440000424,,,,,,,,,,,,,,,,,,,,,,,495.85488669999177,495.87083440000424,496.37711839999247,496.354685600003,,,,,,,,,,,,,,,,,,,,,,,,,,496.37392620000173,496.37711839999247,496.37711839999247,496.37711839999247,499.37117990000115,j,0.7231683999998495,0.2476792000088608,499.37140190000355,499.3715302000055,None,,,,,,,,,,,,,,,,,00024,001,2026-01-20_17h45.28.652,MST_task,2024.2.0,59.941904310574905,2026-01-20 17h45.49.330966 +0530,
,Scenes\126a.jpg,102,0,103,,,,,,,j,1.1455314000049839,0.1677966999995988,None,,,,,,103,0,102,499.38807509999606,,,,,,,,,,,,,,,,,,,,,,,499.3719182999921,499.38807509999606,499.8907595000055,499.87122600000293,,,,,,,,,,,,,,,,,,,,,,,,,,499.88811949999945,499.8907595000055,499.8907595000055,499.8907595000055,502.8878207999951,j,1.1455314000049839,0.1677966999995988,502.8880358000024,502.88810559999547,None,,,,,,,,,,,,,,,,,00024,001,2026-01-20_17h45.28.652,MST_task,2024.2.0,59.941904310574905,2026-01-20 17h45.49.330966 +0530,
,Scenes\014a.jpg,103,0,104,,,,,,,j,2.438312500002212,0.27998769999248907,None,,,,,,104,0,103,502.9042024999944,,,,,,,,,,,,,,,,,,,,,,,502.888546999995,502.9042024999944,503.40565659999265,503.3879936000012,,,,,,,,,,,,,,,,,,,,,,,,,,503.4031046000018,503.40565659999265,503.40565659999265,503.40565659999265,506.4048430999974,j,2.438312500002212,0.27998769999248907,506.4049718000024,506.4050139000028,None,,,,,,,,,,,,,,,,,00024,001,2026-01-20_17h45.28.652,MST_task,2024.2.0,59.941904310574905,2026-01-20 17h45.49.330966 +0530,
,Scenes\023a.jpg,104,0,105,,,,,,,None,,,f,0.95394920000399,None,,,,105,0,104,506.42079000000376,,,,,,,,,,,,,,,,,,,,,,,506.40519970000605,506.42079000000376,506.92848570000206,506.9046091000055,,,,,,,,,,,,,,,,,,,,,,,,,,506.9253583999962,506.92848570000206,506.92848570000206,506.92848570000206,509.9215963000024,None,,,509.9217761000036,510.9046712999989,f,,,,509.93833029999223,509.93833029999223,0.95394920000399,None,,,,,,,,,,00024,001,2026-01-20_17h45.28.652,MST_task,2024.2.0,59.941904310574905,2026-01-20 17h45.49.330966 +0530,
,Objects\165a.jpg,105,0,106,,,,,,,f,0.6624343000003137,0.19287379999877885,None,,,,,,106,0,105,510.9208337000018,,,,,,,,,,,,,,,,,,,,,,,510.905187700002,510.9208337000018,511.42134149999765,511.4042880000052,,,,,,,,,,,,,,,,,,,,,,,,,,511.4167483999918,511.42134149999765,511.42134149999765,511.42134149999765,514.405079300006,f,0.6624343000003137,0.19287379999877885,514.4053190999985,514.4053814999934,None,514.4203689999995,514.4203689999995,514.4203689999995,,,,,,,,,,,,,,00024,001,2026-01-20_17h45.28.652,MST_task,2024.2.0,59.941904310574905,2026-01-20 17h45.49.330966 +0530,
,Objects\072a.jpg,106,0,107,,,,,,,f,1.0270585999969626,0.17583680000097957,None,,,,,,107,0,106,514.4203689999995,,,,,,,,,,,,,,,,,,,,,,,514.4055915999925,514.4203689999995,514.9210407999926,514.904672299992,,,,,,,,,,,,,,,,,,,,,,,,,,514.9112309000047,514.9210407999926,514.9210407999926,514.9210407999926,517.9054897000024,f,1.0270585999969626,0.17583680000097957,517.9056852999929,517.9057445999933,None,517.9207580999937,517.9207580999937,517.9207580999937,,,,,,,,,,,,,,00024,001,2026-01-20_17h45.28.652,MST_task,2024.2.0,59.941904310574905,2026-01-20 17h45.49.330966 +0530,
,Objects\026a.jpg,107,0,108,,,,,,,f,0.6792011000070488,0.22369259998959024,None,,,,,,108,0,107,517.9207580999937,,,,,,,,,,,,,,,,,,,,,,,517.9060424000054,517.9207580999937,518.421051199999,518.404647599993,,,,,,,,,,,,,,,,,,,,,,,,,,518.4133924000053,518.421051199999,518.421051199999,518.421051199999,521.4051831999968,f,0.6792011000070488,0.22369259998959024,521.4053203999938,521.4053596000012,None,521.421265500001,521.421265500001,521.421265500001,,,,,,,,,,,,,,00024,001,2026-01-20_17h45.28.652,MST_task,2024.2.0,59.941904310574905,2026-01-20 17h45.49.330966 +0530,
,Objects\078a.jpg,108,0,109,,,,,,,f,0.6126156999962404,0.863293699992937,None,,,,,,109,0,108,521.421265500001,,,,,,,,,,,,,,,,,,,,,,,521.4056034999958,521.421265500001,521.9521070000046,521.9046889000019,,,,,,,,,,,,,,,,,,,,,,,,,,521.9490384999954,521.9521070000046,521.9521070000046,521.9521070000046,524.9211265000049,f,0.6126156999962404,0.863293699992937,524.9213268000021,524.9213940000045,None,,,,,,,,,,,,,,,,,00024,001,2026-01-20_17h45.28.652,MST_task,2024.2.0,59.941904310574905,2026-01-20 17h45.49.330966 +0530,
,Objects\148a.jpg,109,0,110,,,,,,,f,0.8468080999882659,0.1915039000014076,None,,,,,,110,0,109,524.9374946000025,,,,,,,,,,,,,,,,,,,,,,,524.9216892999975,524.9374946000025,525.4377898999956,525.4212723999954,,,,,,,,,,,,,,,,,,,,,,,,,,525.4298956999992,525.4377898999956,525.4377898999956,525.4377898999956,528.4221829000016,f,0.8468080999882659,0.1915039000014076,528.4223819000035,528.4224426000001,None,528.4375392999937,528.4375392999937,528.4375392999937,,,,,,,,,,,,,,00024,001,2026-01-20_17h45.28.652,MST_task,2024.2.0,59.941904310574905,2026-01-20 17h45.49.330966 +0530,
,Objects\047a.jpg,110,0,111,,,,,,,f,0.7066062999947462,0.16842780000297353,None,,,,,,111,0,110,528.4375392999937,,,,,,,,,,,,,,,,,,,,,,,528.4227850000025,528.4375392999937,528.9376216999954,528.9215437999956,,,,,,,,,,,,,,,,,,,,,,,,,,528.9291155999963,528.9376216999954,528.9376216999954,528.9376216999954,531.9216772999935,f,0.7066062999947462,0.16842780000297353,531.9218739999924,531.9219512999989,None,531.9375287000003,531.9375287000003,531.9375287000003,,,,,,,,,,,,,,00024,001,2026-01-20_17h45.28.652,MST_task,2024.2.0,59.941904310574905,2026-01-20 17h45.49.330966 +0530,
,Objects\021a.jpg,111,0,112,,,,,,,f,1.2621705000055954,0.27153359999647364,None,,,,,,112,0,111,531.9375287000003,,,,,,,,,,,,,,,,,,,,,,,531.922371099994,531.9375287000003,532.4381933999975,532.4213064999931,,,,,,,,,,,,,,,,,,,,,,,,,,532.430351899995,532.4381933999975,532.4381933999975,532.4381933999975,535.4217337000009,f,1.2621705000055954,0.27153359999647364,535.4219256999932,535.4219878000004,None,535.4387132999982,535.4387132999982,535.4387132999982,,,,,,,,,,,,,,00024,001,2026-01-20_17h45.28.652,MST_task,2024.2.0,59.941904310574905,2026-01-20 17h45.49.330966 +0530,
,Scenes\172a.jpg,112,0,113,,,,,,,j,0.746611299997312,0.20800500000768807,None,,,,,,113,0,112,535.4387132999982,,,,,,,,,,,,,,,,,,,,,,,535.4222835999972,535.4387132999982,,535.9375290000025,,,,,,,,,,,,,,,,,,,,,,,,,,535.9585171999934,535.9615133000043,535.9615133000043,535.9615133000043,538.9379544999974,j,0.746611299997312,0.20800500000768807,538.938218299998,538.9382869999972,None,,,,,,,,,,,,,,,,,00024,001,2026-01-20_17h45.28.652,MST_task,2024.2.0,59.941904310574905,2026-01-20 17h45.49.330966 +0530,
,Scenes\146a.jpg,113,0,114,,,,,,,j,0.7401251999981469,0.20742520000203513,None,,,,,,114,0,113,538.9542197999981,,,,,,,,,,,,,,,,,,,,,,,538.938576799992,538.9542197999981,539.4565384000016,539.4378390000056,,,,,,,,,,,,,,,,,,,,,,,,,,539.4539976999949,539.4565384000016,539.4565384000016,539.4565384000016,542.4545598999975,j,0.7401251999981469,0.20742520000203513,542.4547768000048,542.4548579999973,None,,,,,,,,,,,,,,,,,00024,001,2026-01-20_17h45.28.652,MST_task,2024.2.0,59.941904310574905,2026-01-20 17h45.49.330966 +0530,
,Scenes\050a.jpg,114,0,115,,,,,,,j,1.425231300003361,0.14324579999083653,None,,,,,,115,0,114,542.4707889999991,,,,,,,,,,,,,,,,,,,,,,,542.455329000004,542.4707889999991,542.9714327999973,542.9544000000024,,,,,,,,,,,,,,,,,,,,,,,,,,542.9667364000052,542.9714327999973,542.9714327999973,542.9714327999973,545.9552823999984,j,1.425231300003361,0.14324579999083653,545.9555181000032,545.9556062000047,None,545.9705839999951,545.9705839999951,545.9705839999951,,,,,,,,,,,,,,00024,001,2026-01-20_17h45.28.652,MST_task,2024.2.0,59.941904310574905,2026-01-20 17h45.49.330966 +0530,
,Scenes\102a.jpg,115,0,116,,,,,,,j,0.7996543999906862,0.21585190000769217,None,,,,,,116,0,115,545.9705839999951,,,,,,,,,,,,,,,,,,,,,,,545.956028200002,545.9705839999951,546.4765182999981,546.454685299992,,,,,,,,,,,,,,,,,,,,,,,,,,546.4739011999918,546.4765182999981,546.4765182999981,546.4765182999981,549.4712085999927,j,0.7996543999906862,0.21585190000769217,549.4714056999946,549.4714708999963,None,,,,,,,,,,,,,,,,,00024,001,2026-01-20_17h45.28.652,MST_task,2024.2.0,59.941904310574905,2026-01-20 17h45.49.330966 +0530,
,Scenes\093a.jpg,116,0,117,,,,,,,f,0.9270656000007875,0.20020130000193603,None,,,,,,117,0,116,549.4874004000012,,,,,,,,,,,,,,,,,,,,,,,549.4718648999988,549.4874004000012,549.988989599995,549.9711418999941,,,,,,,,,,,,,,,,,,,,,,,,,,549.986607800005,549.988989599995,549.988989599995,549.988989599995,552.9879914000048,f,0.9270656000007875,0.20020130000193603,552.9882754999999,552.9883436999953,None,,,,,,,,,,,,,,,,,00024,001,2026-01-20_17h45.28.652,MST_task,2024.2.0,59.941904310574905,2026-01-20 17h45.49.330966 +0530,
,Scenes\024a.jpg,117,0,118,,,,,,,j,1.5715219999983674,0.16773660000762902,None,,,,,,118,0,117,553.0041660999996,,,,,,,,,,,,,,,,,,,,,,,552.9887980000058,553.0041660999996,553.5048212999973,553.4879702000035,,,,,,,,,,,,,,,,,,,,,,,,,,553.5001613999921,553.5048212999973,553.5048212999973,553.5048212999973,556.4888618999976,j,1.5715219999983674,0.16773660000762902,556.4890645999985,556.4891333999985,None,,,,,,,,,,,,,,,,,00024,001,2026-01-20_17h45.28.652,MST_task,2024.2.0,59.941904310574905,2026-01-20 17h45.49.330966 +0530,
,Scenes\044a.jpg,118,0,119,,,,,,,j,2.9416247000044677,None,None,,,,,,119,0,118,556.5042408000008,,,,,,,,,,,,,,,,,,,,,,,556.4895121000009,556.5042408000008,557.0063587000041,556.9879195999965,,,,,,,,,,,,,,,,,,,,,,,,,,557.0015183999931,557.0063587000041,557.0063587000041,557.0063587000041,560.0043637000053,j,2.9416247000044677,None,560.004578299995,560.0046476999996,None,,,,,,,,,,,,,,,,,00024,001,2026-01-20_17h45.28.652,MST_task,2024.2.0,59.941904310574905,2026-01-20 17h45.49.330966 +0530,
,Objects\161a.jpg,119,0,120,,,,,,,j,0.9717115000094054,0.20732779998797923,None,,,,,,120,0,119,560.0206285000022,,,,,,,,,,,,,,,,,,,,,,,560.0049376999959,560.0206285000022,560.5211999000021,560.5046816999966,,,,,,,,,,,,,,,,,,,,,,,,,,560.5132617000054,560.5211999000021,560.5211999000021,560.5211999000021,563.5053724000027,j,0.9717115000094054,0.20732779998797923,563.5055715000053,563.5056315999973,None,563.5218125999963,563.5218125999963,563.5218125999963,,,,,,,,,,,,,,00024,001,2026-01-20_17h45.28.652,MST_task,2024.2.0,59.941904310574905,2026-01-20 17h45.49.330966 +0530,
,Objects\045a.jpg,120,0,121,,,,,,,j,1.901696400003857,0.12840429999050684,None,,,,,,121,0,120,563.5218125999963,,,,,,,,,,,,,,,,,,,,,,,563.5059439000033,563.5218125999963,564.0463509999972,564.0046607999975,,,,,,,,,,,,,,,,,,,,,,,,,,564.043980100003,564.0463509999972,564.0463509999972,564.0463509999972,567.020795000004,j,1.901696400003857,0.12840429999050684,567.0209945999959,567.021061499996,None,,,,,,,,,,,,,,,,,00024,001,2026-01-20_17h45.28.652,MST_task,2024.2.0,59.941904310574905,2026-01-20 17h45.49.330966 +0530,
,Objects\188a.jpg,121,0,122,,,,,,,f,1.2824111999943852,0.23204500001156703,None,,,,,,122,0,121,567.0372251999943,,,,,,,,,,,,,,,,,,,,,,,567.0214268999989,567.0372251999943,567.5375717999996,567.5209468999965,,,,,,,,,,,,,,,,,,,,,,,,,,567.5280992000044,567.5375717999996,567.5375717999996,567.5375717999996,570.5214661999926,f,1.2824111999943852,0.23204500001156703,570.5216714999988,570.5217394999927,None,,,,,,,,,,,,,,,,,00024,001,2026-01-20_17h45.28.652,MST_task,2024.2.0,59.941904310574905,2026-01-20 17h45.49.330966 +0530,
,Objects\139a.jpg,122,0,123,,,,,,,f,1.1901481999957468,0.16027930000564083,None,,,,,,123,0,122,570.537167500006,,,,,,,,,,,,,,,,,,,,,,,570.5221158000058,570.537167500006,571.0377317999955,571.0211696000042,,,,,,,,,,,,,,,,,,,,,,,,,,571.0302856000053,571.0377317999955,571.0377317999955,571.0377317999955,574.0217787000001,f,1.1901481999957468,0.16027930000564083,574.0220189999964,574.0220818999951,None,574.0371990999993,574.0371990999993,574.0371990999993,,,,,,,,,,,,,,00024,001,2026-01-20_17h45.28.652,MST_task,2024.2.0,59.941904310574905,2026-01-20 17h45.49.330966 +0530,
,Objects\095a.jpg,123,0,124,,,,,,,f,0.8268313999869861,0.19943970000895206,None,,,,,,124,0,123,574.0371990999993,,,,,,,,,,,,,,,,,,,,,,,574.022371900006,574.0371990999993,574.5377505999932,574.5209441000043,,,,,,,,,,,,,,,,,,,,,,,,,,574.5308574999945,574.5377505999932,574.5377505999932,574.5377505999932,577.5220686999965,f,0.8268313999869861,0.19943970000895206,577.5222652999946,577.5223249999981,None,577.537439599997,577.537439599997,577.537439599997,,,,,,,,,,,,,,00024,001,2026-01-20_17h45.28.652,MST_task,2024.2.0,59.941904310574905,2026-01-20 17h45.49.330966 +0530,
,Objects\019a.jpg,124,0,125,,,,,,,f,1.4136748000018997,0.20001699999556877,None,,,,,,125,0,124,577.537439599997,,,,,,,,,,,,,,,,,,,,,,,577.5227570999996,577.537439599997,578.0386289000016,578.0212564999965,,,,,,,,,,,,,,,,,,,,,,,,,,578.0310426999931,578.0386289000016,578.0386289000016,578.0386289000016,581.0378918999922,f,1.4136748000018997,0.20001699999556877,581.0380848999921,581.0381530000013,None,,,,,,,,,,,,,,,,,00024,001,2026-01-20_17h45.28.652,MST_task,2024.2.0,59.941904310574905,2026-01-20 17h45.49.330966 +0530,
,Objects\147a.jpg,125,0,126,,,,,,,f,0.9939324000006309,0.17539150000084192,None,,,,,,126,0,125,581.0542255000037,,,,,,,,,,,,,,,,,,,,,,,581.0384447999968,581.0542255000037,581.5546252000058,581.537905899997,,,,,,,,,,,,,,,,,,,,,,,,,,581.5449269999954,581.5546252000058,581.5546252000058,581.5546252000058,584.5384340000019,f,0.9939324000006309,0.17539150000084192,584.5386925000057,584.5387596999935,None,,,,,,,,,,,,,,,,,00024,001,2026-01-20_17h45.28.652,MST_task,2024.2.0,59.941904310574905,2026-01-20 17h45.49.330966 +0530,
,Scenes\069a.jpg,126,0,127,,,,,,,j,0.9671454000053927,0.17609470000024885,None,,,,,,127,0,126,584.5539298999938,,,,,,,,,,,,,,,,,,,,,,,584.5390556000057,584.5539298999938,585.0608743000048,585.0380256999924,,,,,,,,,,,,,,,,,,,,,,,,,,585.0580139999947,585.0608743000048,585.0608743000048,585.0608743000048,588.0545744999981,j,0.9671454000053927,0.17609470000024885,588.0548948999931,588.0549623999977,None,,,,,,,,,,,,,,,,,00024,001,2026-01-20_17h45.28.652,MST_task,2024.2.0,59.941904310574905,2026-01-20 17h45.49.330966 +0530,
,Scenes\079a.jpg,127,0,128,,,,,,,j,0.712952599991695,0.09580660000210628,None,,,,,,128,0,127,588.0707865000004,,,,,,,,,,,,,,,,,,,,,,,588.0553360000049,588.0707865000004,588.5712152000051,588.5545889999921,,,,,,,,,,,,,,,,,,,,,,,,,,588.5674728000013,588.5712152000051,588.5712152000051,588.5712152000051,591.5554172999982,j,0.712952599991695,0.09580660000210628,591.5556106000004,591.5556698,None,591.570672899994,591.570672899994,591.570672899994,,,,,,,,,,,,,,00024,001,2026-01-20_17h45.28.652,MST_task,2024.2.0,59.941904310574905,2026-01-20 17h45.49.330966 +0530,
,Scenes\068a.jpg,128,0,129,,,,,,,j,1.0694973000063328,0.13661249999131542,None,,,,,,129,0,128,591.570672899994,,,,,,,,,,,,,,,,,,,,,,,591.5561167999986,591.570672899994,592.0784430000058,592.0546245000005,,,,,,,,,,,,,,,,,,,,,,,,,,592.0755803999928,592.0784430000058,592.0784430000058,592.0784430000058,595.0709759000019,j,1.0694973000063328,0.13661249999131542,595.0712225000025,595.0712939999939,None,,,,,,,,,,,,,,,,,00024,001,2026-01-20_17h45.28.652,MST_task,2024.2.0,59.941904310574905,2026-01-20 17h45.49.330966 +0530,
,Scenes\070a.jpg,129,0,130,,,,,,,j,0.7225888999964809,0.35255270000197925,None,,,,,,130,0,129,595.0872205000051,,,,,,,,,,,,,,,,,,,,,,,595.0716630999959,595.0872205000051,595.5934695000033,595.5712108000007,,,,,,,,,,,,,,,,,,,,,,,,,,595.5906682000059,595.5934695000033,595.5934695000033,595.5934695000033,598.5879602999921,j,0.7225888999964809,0.35255270000197925,598.5881640000007,598.5882314000046,None,,,,,,,,,,,,,,,,,00024,001,2026-01-20_17h45.28.652,MST_task,2024.2.0,59.941904310574905,2026-01-20 17h45.49.330966 +0530,
,Scenes\107a.jpg,130,0,131,,,,,,,j,0.6429836000024807,0.20008149999193847,None,,,,,,131,0,130,598.604210000005,,,,,,,,,,,,,,,,,,,,,,,598.588751400006,598.604210000005,599.1049604,599.0878902999975,,,,,,,,,,,,,,,,,,,,,,,,,,599.102278899998,599.1049604,599.1049604,599.1049604,602.1043292999966,j,0.6429836000024807,0.20008149999193847,602.1045382000011,602.1046034000028,None,,,,,,,,,,,,,,,,,00024,001,2026-01-20_17h45.28.652,MST_task,2024.2.0,59.941904310574905,2026-01-20 17h45.49.330966 +0530,
,Scenes\118a.jpg,131,0,132,,,,,,,j,0.8750221999944188,0.19257300000754185,None,,,,,,132,0,131,602.120777499993,,,,,,,,,,,,,,,,,,,,,,,602.1049637999968,602.120777499993,602.6249325999961,602.6047175999993,,,,,,,,,,,,,,,,,,,,,,,,,,602.6218074999924,602.6249325999961,602.6249325999961,602.6249325999961,605.6216603999928,j,0.8750221999944188,0.19257300000754185,605.6219411999919,605.6220035000006,None,,,,,,,,,,,,,,,,,00024,001,2026-01-20_17h45.28.652,MST_task,2024.2.0,59.941904310574905,2026-01-20 17h45.49.330966 +0530,
,Scenes\165a.jpg,132,0,133,,,,,,,j,0.9828426000021864,0.19270179999875836,None,,,,,,133,0,132,605.637476200005,,,,,,,,,,,,,,,,,,,,,,,605.6223501999921,605.637476200005,606.1410346000048,606.1213117000007,,,,,,,,,,,,,,,,,,,,,,,,,,606.1380493000033,606.1410346000048,606.1410346000048,606.1410346000048,609.1378732000012,j,0.9828426000021864,0.19270179999875836,609.138068100001,609.138197399996,None,,,,,,,,,,,,,,,,,00024,001,2026-01-20_17h45.28.652,MST_task,2024.2.0,59.941904310574905,2026-01-20 17h45.49.330966 +0530,
,Objects\028a.jpg,133,0,134,,,,,,,f,2.3976158000004943,0.16754799999762326,None,,,,,,134,0,133,609.1542050999997,,,,,,,,,,,,,,,,,,,,,,,609.1384933999943,609.1542050999997,609.6549173999956,609.6379166999977,,,,,,,,,,,,,,,,,,,,,,,,,,609.6468335999962,609.6549173999956,609.6549173999956,609.6549173999956,612.6389087999996,f,2.3976158000004943,0.16754799999762326,612.6391296999936,612.6391956000007,None,,,,,,,,,,,,,,,,,00024,001,2026-01-20_17h45.28.652,MST_task,2024.2.0,59.941904310574905,2026-01-20 17h45.49.330966 +0530,
,Objects\055a.jpg,134,0,135,,,,,,,f,0.9617165999952704,0.20775810000486672,None,,,,,,135,0,134,612.6540951000061,,,,,,,,,,,,,,,,,,,,,,,612.6395660999988,612.6540951000061,613.154429000002,613.1378936999972,,,,,,,,,,,,,,,,,,,,,,,,,,613.1426260000007,613.154429000002,613.154429000002,613.154429000002,616.1387694000005,f,0.9617165999952704,0.20775810000486672,616.1389640999987,616.1390234999999,None,616.1541911999957,616.1541911999957,616.1541911999957,,,,,,,,,,,,,,00024,001,2026-01-20_17h45.28.652,MST_task,2024.2.0,59.941904310574905,2026-01-20 17h45.49.330966 +0530,
,Objects\166a.jpg,135,0,136,,,,,,,f,2.4293079000053694,0.11931650000042282,None,,,,,,136,0,135,616.1541911999957,,,,,,,,,,,,,,,,,,,,,,,616.1393205999921,616.1541911999957,616.6552840999939,616.6379294999933,,,,,,,,,,,,,,,,,,,,,,,,,,616.6469017000054,616.6552840999939,616.6552840999939,616.6552840999939,619.6392086999986,f,2.4293079000053694,0.11931650000042282,619.6394491999963,619.6395110000012,None,619.6539118999935,619.6539118999935,619.6539118999935,,,,,,,,,,,,,,00024,001,2026-01-20_17h45.28.652,MST_task,2024.2.0,59.941904310574905,2026-01-20 17h45.49.330966 +0530,
,Objects\130a.jpg,136,0,137,,,,,,,j,1.5934165000071516,0.19197129999520257,None,,,,,,137,0,136,619.6539118999935,,,,,,,,,,,,,,,,,,,,,,,619.6398912000004,619.6539118999935,620.1544333000056,620.1387250999978,,,,,,,,,,,,,,,,,,,,,,,,,,620.1470218000031,620.1544333000056,620.1544333000056,620.1544333000056,623.1384395000059,j,1.5934165000071516,0.19197129999520257,623.1386313999974,623.1386913000024,None,623.1541848000052,623.1541848000052,623.1541848000052,,,,,,,,,,,,,,00024,001,2026-01-20_17h45.28.652,MST_task,2024.2.0,59.941904310574905,2026-01-20 17h45.49.330966 +0530,
,Objects\097a.jpg,137,0,138,,,,,,,j,0.9494297000055667,0.14464070000394713,None,,,,,,138,0,137,623.1541848000052,,,,,,,,,,,,,,,,,,,,,,,623.1389943999966,623.1541848000052,,623.6388800999994,,,,,,,,,,,,,,,,,,,,,,,,,,623.6475032000017,623.6544235000038,623.6544235000038,623.6544235000038,626.6388510999968,j,0.9494297000055667,0.14464070000394713,626.6390423999983,626.639102000001,None,626.6542762000026,626.6542762000026,626.6542762000026,,,,,,,,,,,,,,00024,001,2026-01-20_17h45.28.652,MST_task,2024.2.0,59.941904310574905,2026-01-20 17h45.49.330966 +0530,
,Objects\015a.jpg,138,0,139,,,,,,,f,2.122121899999911,0.1838317000074312,None,,,,,,139,0,138,626.6542762000026,,,,,,,,,,,,,,,,,,,,,,,626.6393962000002,626.6542762000026,627.1544721999962,627.1380492000026,,,,,,,,,,,,,,,,,,,,,,,,,,627.1453054000012,627.1544721999962,627.1544721999962,627.1544721999962,630.1385609999998,f,2.122121899999911,0.1838317000074312,630.1388002000022,630.1388521000044,None,630.1542729999928,630.1542729999928,630.1542729999928,,,,,,,,,,,,,,00024,001,2026-01-20_17h45.28.652,MST_task,2024.2.0,59.941904310574905,2026-01-20 17h45.49.330966 +0530,
,Objects\112a.jpg,139,0,140,,,,,,,f,1.829374299995834,0.19265460000315215,None,,,,,,140,0,139,630.1542729999928,,,,,,,,,,,,,,,,,,,,,,,630.139185699998,630.1542729999928,630.6544695000048,630.6380091000028,,,,,,,,,,,,,,,,,,,,,,,,,,630.6467413999926,630.6544695000048,630.6544695000048,630.6544695000048,633.6387630999961,f,1.829374299995834,0.19265460000315215,633.6389549000014,633.6390137999988,None,633.6540013000049,633.6540013000049,633.6540013000049,,,,,,,,,,,,,,00024,001,2026-01-20_17h45.28.652,MST_task,2024.2.0,59.941904310574905,2026-01-20 17h45.49.330966 +0530,
,Scenes\021a.jpg,140,0,141,,,,,,,j,2.513505700000678,0.1927365000010468,None,,,,,,141,0,140,633.6540013000049,,,,,,,,,,,,,,,,,,,,,,,633.6393083000003,633.6540013000049,634.1544120000035,634.1380305999919,,,,,,,,,,,,,,,,,,,,,,,,,,634.151729499994,634.1544120000035,634.1544120000035,634.1544120000035,637.1388721999974,j,2.513505700000678,0.1927365000010468,637.1390633999981,637.1391235000046,None,637.1542862999922,637.1542862999922,637.1542862999922,,,,,,,,,,,,,,00024,001,2026-01-20_17h45.28.652,MST_task,2024.2.0,59.941904310574905,2026-01-20 17h45.49.330966 +0530,
,Scenes\007a.jpg,141,0,142,,,,,,,f,1.6235672000038903,0.22386519999417942,None,,,,,,142,0,141,637.1542862999922,,,,,,,,,,,,,,,,,,,,,,,637.1394218999922,637.1542862999922,637.6604169000057,637.637739800004,,,,,,,,,,,,,,,,,,,,,,,,,,637.6575947999954,637.6604169000057,637.6604169000057,637.6604169000057,640.654583800002,f,1.6235672000038903,0.22386519999417942,640.6547770000034,640.6548428999959,None,,,,,,,,,,,,,,,,,00024,001,2026-01-20_17h45.28.652,MST_task,2024.2.0,59.941904310574905,2026-01-20 17h45.49.330966 +0530,
,Scenes\095a.jpg,142,0,143,,,,,,,j,1.0723725999996532,0.20832030000747181,None,,,,,,143,0,142,640.670933500005,,,,,,,,,,,,,,,,,,,,,,,640.6551354999974,640.670933500005,641.1718118999997,641.154435599994,,,,,,,,,,,,,,,,,,,,,,,,,,641.1684769999993,641.1718118999997,641.1718118999997,641.1718118999997,644.1554041000054,j,1.0723725999996532,0.20832030000747181,644.1556098000001,644.1556691000005,None,644.1707906999945,644.1707906999945,644.1707906999945,,,,,,,,,,,,,,00024,001,2026-01-20_17h45.28.652,MST_task,2024.2.0,59.941904310574905,2026-01-20 17h45.49.330966 +0530,
,Scenes\094a.jpg,143,0,144,,,,,,,j,1.4008713999937754,0.15219630001229234,None,,,,,,144,0,143,644.1707906999945,,,,,,,,,,,,,,,,,,,,,,,644.1560679999966,644.1707906999945,644.6751431000012,644.6542976000055,,,,,,,,,,,,,,,,,,,,,,,,,,644.6723631000059,644.6751431000012,644.6751431000012,644.6751431000012,647.6710357999982,j,1.4008713999937754,0.15219630001229234,647.6712379999954,647.6713055,None,,,,,,,,,,,,,,,,,00024,001,2026-01-20_17h45.28.652,MST_task,2024.2.0,59.941904310574905,2026-01-20 17h45.49.330966 +0530,
,Scenes\177a.jpg,144,0,145,,,,,,,j,0.7678871999960393,0.17662749999726657,None,,,,,,145,0,144,647.6872726000001,,,,,,,,,,,,,,,,,,,,,,,647.6716803000018,647.6872726000001,648.1880094999942,648.1708804999944,,,,,,,,,,,,,,,,,,,,,,,,,,648.1854706000013,648.1880094999942,648.1880094999942,648.1880094999942,651.1718045000016,j,0.7678871999960393,0.17662749999726657,651.1720171000052,651.1720923999965,None,651.1871482999995,651.1871482999995,651.1871482999995,,,,,,,,,,,,,,00024,001,2026-01-20_17h45.28.652,MST_task,2024.2.0,59.941904310574905,2026-01-20 17h45.49.330966 +0530,
,Scenes\088a.jpg,145,0,146,,,,,,,j,1.8113148999982513,0.2085473000042839,None,,,,,,146,0,145,651.1871482999995,,,,,,,,,,,,,,,,,,,,,,,651.1724009000027,651.1871482999995,651.6966170999949,651.6713388999924,,,,,,,,,,,,,,,,,,,,,,,,,,651.6936849000049,651.6966170999949,651.6966170999949,651.6966170999949,654.6877512999927,j,1.8113148999982513,0.2085473000042839,654.6880359000061,654.6881051999953,None,,,,,,,,,,,,,,,,,00024,001,2026-01-20_17h45.28.652,MST_task,2024.2.0,59.941904310574905,2026-01-20 17h45.49.330966 +0530,
,Scenes\097a.jpg,146,0,147,,,,,,,j,0.6312724000017624,0.1926309999980731,None,,,,,,147,0,146,654.7044456000003,,,,,,,,,,,,,,,,,,,,,,,654.6885692999931,654.7044456000003,655.2045828999981,655.1880359999923,,,,,,,,,,,,,,,,,,,,,,,,,,655.1989908999967,655.2045828999981,655.2045828999981,655.2045828999981,658.1889403999958,j,0.6312724000017624,0.1926309999980731,658.1891344000032,658.1891938000044,None,658.2040660999919,658.2040660999919,658.2040660999919,,,,,,,,,,,,,,00024,001,2026-01-20_17h45.28.652,MST_task,2024.2.0,59.941904310574905,2026-01-20 17h45.49.330966 +0530,
,Objects\070a.jpg,147,0,148,,,,,,,f,1.8594519999896875,0.2644648999994388,None,,,,,,148,0,147,658.2040660999919,,,,,,,,,,,,,,,,,,,,,,,658.1895731999975,658.2040660999919,658.704691299994,658.6876383000053,,,,,,,,,,,,,,,,,,,,,,,,,,658.699850399993,658.704691299994,658.704691299994,658.704691299994,661.6884752000042,f,1.8594519999896875,0.2644648999994388,661.6886609999929,661.6887202999933,None,661.7039998999971,661.7039998999971,661.7039998999971,,,,,,,,,,,,,,00024,001,2026-01-20_17h45.28.652,MST_task,2024.2.0,59.941904310574905,2026-01-20 17h45.49.330966 +0530,
,Objects\024a.jpg,148,0,149,,,,,,,f,0.7355442000116454,0.22408049998921342,None,,,,,,149,0,148,661.7039998999971,,,,,,,,,,,,,,,,,,,,,,,661.6890571999975,661.7039998999971,662.2044451999973,662.1875989999971,,,,,,,,,,,,,,,,,,,,,,,,,,662.1973201999936,662.2044451999973,662.2044451999973,662.2044451999973,665.1888025999942,f,0.7355442000116454,0.22408049998921342,665.1889930000034,665.1890583000059,None,665.2041975000029,665.2041975000029,665.2041975000029,,,,,,,,,,,,,,00024,001,2026-01-20_17h45.28.652,MST_task,2024.2.0,59.941904310574905,2026-01-20 17h45.49.330966 +0530,
,Objects\120a.jpg,149,0,150,,,,,,,f,0.9884674000059022,0.15997280000010505,None,,,,,,150,0,149,665.2041975000029,,,,,,,,,,,,,,,,,,,,,,,665.1894443000056,665.2041975000029,665.7040592999983,665.687509299998,,,,,,,,,,,,,,,,,,,,,,,,,,665.6940309000056,665.7040592999983,665.7040592999983,665.7040592999983,668.6886074999929,f,0.9884674000059022,0.15997280000010505,668.6888441000046,668.6889069000026,None,668.7042049000011,668.7042049000011,668.7042049000011,,,,,,,,,,,,,,00024,001,2026-01-20_17h45.28.652,MST_task,2024.2.0,59.941904310574905,2026-01-20 17h45.49.330966 +0530,
,Objects\175a.jpg,150,0,151,,,,,,,f,1.2955840999929933,0.17643520000274293,None,,,,,,151,0,150,668.7042049000011,,,,,,,,,,,,,,,,,,,,,,,668.689203300004,668.7042049000011,669.204462499998,669.1879950000002,,,,,,,,,,,,,,,,,,,,,,,,,,669.1965760000021,669.204462499998,669.204462499998,669.204462499998,672.1888229000033,f,1.2955840999929933,0.17643520000274293,672.1890170999977,672.1891193000047,None,672.2044373999961,672.2044373999961,672.2044373999961,,,,,,,,,,,,,,00024,001,2026-01-20_17h45.28.652,MST_task,2024.2.0,59.941904310574905,2026-01-20 17h45.49.330966 +0530,
,Objects\152a.jpg,151,0,152,,,,,,,f,0.657182399998419,0.17566409999562893,None,,,,,,152,0,151,672.2044373999961,,,,,,,,,,,,,,,,,,,,,,,672.1894141999946,672.2044373999961,672.7308785000059,672.6889224000042,,,,,,,,,,,,,,,,,,,,,,,,,,672.728039900001,672.7308785000059,672.7308785000059,672.7308785000059,675.7045879999932,f,0.657182399998419,0.17566409999562893,675.7047845000052,675.7048521999968,None,,,,,,,,,,,,,,,,,00024,001,2026-01-20_17h45.28.652,MST_task,2024.2.0,59.941904310574905,2026-01-20 17h45.49.330966 +0530,
,Objects\081a.jpg,152,0,153,,,,,,,j,0.8626485999993747,0.15263159999449272,None,,,,,,153,0,152,675.7207701000007,,,,,,,,,,,,,,,,,,,,,,,675.7052221000049,675.7207701000007,676.2212844000023,676.2047609000001,,,,,,,,,,,,,,,,,,,,,,,,,,676.2129990999965,676.2212844000023,676.2212844000023,676.2212844000023,679.2054405999952,j,0.8626485999993747,0.15263159999449272,679.2056339999981,679.2057084999979,None,679.2209460000013,679.2209460000013,679.2209460000013,,,,,,,,,,,,,,00024,001,2026-01-20_17h45.28.652,MST_task,2024.2.0,59.941904310574905,2026-01-20 17h45.49.330966 +0530,
,Objects\115a.jpg,153,0,154,,,,,,,f,1.586775799994939,0.16872940000030212,None,,,,,,154,0,153,679.2209460000013,,,,,,,,,,,,,,,,,,,,,,,679.2060037000047,679.2209460000013,679.7210171000042,679.7052332000021,,,,,,,,,,,,,,,,,,,,,,,,,,679.7140928000008,679.7210171000042,679.7210171000042,679.7210171000042,682.705137900004,f,1.586775799994939,0.16872940000030212,682.7054199999984,682.7054803999927,None,682.7208221000037,682.7208221000037,682.7208221000037,,,,,,,,,,,,,,00024,001,2026-01-20_17h45.28.652,MST_task,2024.2.0,59.941904310574905,2026-01-20 17h45.49.330966 +0530,
,Scenes\004a.jpg,154,0,155,,,,,,,j,1.6881194000015967,0.16847839999536518,None,,,,,,155,0,154,682.7208221000037,,,,,,,,,,,,,,,,,,,,,,,682.7058574999974,682.7208221000037,683.2278681000025,683.2046911999932,,,,,,,,,,,,,,,,,,,,,,,,,,683.2250896000041,683.2278681000025,683.2278681000025,683.2278681000025,686.2213394999999,j,1.6881194000015967,0.16847839999536518,686.2215403000009,686.2216081999941,None,,,,,,,,,,,,,,,,,00024,001,2026-01-20_17h45.28.652,MST_task,2024.2.0,59.941904310574905,2026-01-20 17h45.49.330966 +0530,
,Scenes\113a.jpg,155,0,156,,,,,,,j,0.8973737000051187,0.15976909999153577,None,,,,,,156,0,155,686.2376015000045,,,,,,,,,,,,,,,,,,,,,,,686.2220020999957,686.2376015000045,686.7386364999984,686.720822999996,,,,,,,,,,,,,,,,,,,,,,,,,,686.730773599993,686.7386364999984,686.7386364999984,686.7386364999984,689.7379251999955,j,0.8973737000051187,0.15976909999153577,689.7382267999928,689.7382952000044,None,,,,,,,,,,,,,,,,,00024,001,2026-01-20_17h45.28.652,MST_task,2024.2.0,59.941904310574905,2026-01-20 17h45.49.330966 +0530,
,Scenes\189a.jpg,156,0,157,,,,,,,j,1.074486799989245,0.18357750000723172,None,,,,,,157,0,156,689.7542878999957,,,,,,,,,,,,,,,,,,,,,,,689.738660300005,689.7542878999957,690.258118400001,690.2377012999932,,,,,,,,,,,,,,,,,,,,,,,,,,690.2554735000012,690.258118400001,690.258118400001,690.258118400001,693.254437800002,j,1.074486799989245,0.18357750000723172,693.254635499994,693.2547029999987,None,,,,,,,,,,,,,,,,,00024,001,2026-01-20_17h45.28.652,MST_task,2024.2.0,59.941904310574905,2026-01-20 17h45.49.330966 +0530,
,Scenes\117a.jpg,157,0,158,,,,,,,j,1.225313000002643,0.1521470000006957,None,,,,,,158,0,157,693.2708194000006,,,,,,,,,,,,,,,,,,,,,,,693.2549986999948,693.2708194000006,693.7710796000028,693.7543322999991,,,,,,,,,,,,,,,,,,,,,,,,,,693.7658257000003,693.7710796000028,693.7710796000028,693.7710796000028,696.7554840999946,j,1.225313000002643,0.1521470000006957,696.7557242000039,696.7557874000049,None,696.7704847999994,696.7704847999994,696.7704847999994,,,,,,,,,,,,,,00024,001,2026-01-20_17h45.28.652,MST_task,2024.2.0,59.941904310574905,2026-01-20 17h45.49.330966 +0530,
,Scenes\072a.jpg,158,0,159,,,,,,,j,1.240820299994084,0.18414969999867026,None,,,,,,159,0,158,696.7704847999994,,,,,,,,,,,,,,,,,,,,,,,696.7561629999982,696.7704847999994,697.2752097000048,697.2546387000039,,,,,,,,,,,,,,,,,,,,,,,,,,697.2727283999993,697.2752097000048,697.2752097000048,697.2752097000048,700.2711708999996,j,1.240820299994084,0.18414969999867026,700.2713688999938,700.2714380999969,None,,,,,,,,,,,,,,,,,00024,001,2026-01-20_17h45.28.652,MST_task,2024.2.0,59.941904310574905,2026-01-20 17h45.49.330966 +0530,
,Scenes\074a.jpg,159,0,160,,,,,,,j,0.5682754000008572,0.09539319999748841,None,,,,,,160,0,159,700.2874033999979,,,,,,,,,,,,,,,,,,,,,,,700.2718069999974,700.2874033999979,700.7961876000045,700.7708435999957,,,,,,,,,,,,,,,,,,,,,,,,,,700.7933153000049,700.7961876000045,700.7961876000045,700.7961876000045,703.7878277999989,j,0.5682754000008572,0.09539319999748841,703.7880380999995,703.7881060999935,None,,,,,,,,,,,,,,,,,00024,001,2026-01-20_17h45.28.652,MST_task,2024.2.0,59.941904310574905,2026-01-20 17h45.49.330966 +0530,
,Scenes\133a.jpg,160,0,161,,,,,,,j,0.6650678000005428,0.18413520000467543,None,,,,,,161,0,160,703.803905599998,,,,,,,,,,,,,,,,,,,,,,,703.7884810999967,703.803905599998,704.3067273000052,704.2880332000059,,,,,,,,,,,,,,,,,,,,,,,,,,704.3040764000034,704.3067273000052,704.3067273000052,704.3067273000052,707.3047315000003,j,0.6650678000005428,0.18413520000467543,707.304927899997,707.3049945999956,None,,,,,,,,,,,,,,,,,00024,001,2026-01-20_17h45.28.652,MST_task,2024.2.0,59.941904310574905,2026-01-20 17h45.49.330966 +0530,
,Objects\067a.jpg,161,0,162,,,,,,,j,2.5505964000039967,0.17666929999541026,None,,,,,,162,0,161,707.3205202999961,,,,,,,,,,,,,,,,,,,,,,,707.3054370000027,707.3205202999961,707.821191199997,707.804733500001,,,,,,,,,,,,,,,,,,,,,,,,,,707.8171542000055,707.821191199997,707.821191199997,707.821191199997,710.8055082999927,j,2.5505964000039967,0.17666929999541026,710.8057007000025,710.805760400006,None,710.8208717999951,710.8208717999951,710.8208717999951,,,,,,,,,,,,,,00024,001,2026-01-20_17h45.28.652,MST_task,2024.2.0,59.941904310574905,2026-01-20 17h45.49.330966 +0530,
,Objects\010a.jpg,162,0,163,,,,,,,f,1.2590775000135181,0.1438369999959832,None,,,,,,163,0,162,710.8208717999951,,,,,,,,,,,,,,,,,,,,,,,710.8060560000013,710.8208717999951,711.3208606999979,711.3042665999965,,,,,,,,,,,,,,,,,,,,,,,,,,711.3093376000033,711.3208606999979,711.3208606999979,711.3208606999979,714.3053138999967,f,1.2590775000135181,0.1438369999959832,714.3055022000044,714.3055616000056,None,714.3206019999925,714.3206019999925,714.3206019999925,,,,,,,,,,,,,,00024,001,2026-01-20_17h45.28.652,MST_task,2024.2.0,59.941904310574905,2026-01-20 17h45.49.330966 +0530,
,Objects\003a.jpg,163,0,164,,,,,,,j,0.935041500008083,0.16791979999106843,None,,,,,,164,0,163,714.3206019999925,,,,,,,,,,,,,,,,,,,,,,,714.3058535000018,714.3206019999925,714.8208328000037,714.8044673999975,,,,,,,,,,,,,,,,,,,,,,,,,,714.814509799995,714.8208328000037,714.8208328000037,714.8208328000037,717.8050801999925,j,0.935041500008083,0.16791979999106843,717.8052828999935,717.8053424999962,None,717.8206726000062,717.8206726000062,717.8206726000062,,,,,,,,,,,,,,00024,001,2026-01-20_17h45.28.652,MST_task,2024.2.0,59.941904310574905,2026-01-20 17h45.49.330966 +0530,
,Objects\164a.jpg,164,0,165,,,,,,,f,1.0104323999985354,0.2160652000020491,None,,,,,,165,0,164,717.8206726000062,,,,,,,,,,,,,,,,,,,,,,,717.805643899992,717.8206726000062,718.321363199997,718.3047093000059,,,,,,,,,,,,,,,,,,,,,,,,,,718.3132833999989,718.321363199997,718.321363199997,718.321363199997,721.3062787999952,f,1.0104323999985354,0.2160652000020491,721.3064681999967,721.3065281000017,None,721.3206521999964,721.3206521999964,721.3206521999964,,,,,,,,,,,,,,00024,001,2026-01-20_17h45.28.652,MST_task,2024.2.0,59.941904310574905,2026-01-20 17h45.49.330966 +0530,
