thisN,thisTrialN,thisRepN,key_resp_3.keys,key_resp_3.rt,key_resp_3.duration,trials.thisRepN,trials.thisTrialN,trials.thisN,thisRow.t,notes,intro_page.started,text.started,key_resp.started,intro_page.stopped,key_resp.keys,key_resp.rt,key_resp.duration,instructions.started,text_2.started,key_resp_2.started,instructions.stopped,key_resp_2.keys,key_resp_2.rt,key_resp_2.duration,demo1.started,image_1.started,image_2.started,text_7.started,key_resp_6.started,text_9.started,demo1.stopped,key_resp_6.keys,key_resp_6.rt,key_resp_6.duration,demo2.started,image_5.started,image_6.started,text_11.started,text_12.started,key_resp_8.started,demo2.stopped,key_resp_8.keys,key_resp_8.rt,key_resp_8.duration,demo_conclusion.started,text_13.started,key_resp_9.started,demo_conclusion.stopped,key_resp_9.keys,key_resp_9.rt,key_resp_9.duration,start_test.started,text_6.started,key_resp_5.started,start_test.stopped,key_resp_5.keys,key_resp_5.rt,key_resp_5.duration,ISI.started,text_4.started,text_4.stopped,ISI.stopped,routine_1.started,image.started,text_3.started,key_resp_3.started,routine_1.stopped,image_path,position_of_stimuli,trials.key_resp_3.keys,trials.key_resp_3.rt,trials.key_resp_3.duration,End_page.started,text_5.started,key_resp_4.started,End_page.stopped,key_resp_4.keys,key_resp_4.rt,key_resp_4.duration,participant,session,date,expName,psychopyVersion,frameRate,expStart,
,,,,,,,,,,,0.0012009999918518588,0.0028562999941641465,0.0028562999941641465,2.4647280999924988,space,2.4401500999956625,None,,,,,,,,,,,,,,,,,,,,,,,,,,,,,,,,,,,,,,,,,,,,,,,,,,,,,,,,,,,,,,,00027,001,2026-01-20_20h11.54.094,MST_test,2024.2.0,59.966131129539875,2026-01-20 20h12.03.030514 +0530,
,,,,,,,,,,,,,,,,,,2.4647638999886112,2.475114199987729,2.475114199987729,13.792842800001381,space,11.312243500011391,None,,,,,,,,,,,,,,,,,,,,,,,,,,,,,,,,,,,,,,,,,,,,,,,,,,,,,,,,00027,001,2026-01-20_20h11.54.094,MST_test,2024.2.0,59.966131129539875,2026-01-20 20h12.03.030514 +0530,
,,,,,,,,,,,,,,,,,,,,,,,,,13.792947099995217,13.832115099998191,13.832115099998191,13.832115099998191,13.832115099998191,13.832115099998191,22.792961899991496,space,8.946939100002055,None,,,,,,,,,,,,,,,,,,,,,,,,,,,,,,,,,,,,,,,,,,,,,,00027,001,2026-01-20_20h11.54.094,MST_test,2024.2.0,59.966131129539875,2026-01-20 20h12.03.030514 +0530,
,,,,,,,,,,,,,,,,,,,,,,,,,,,,,,,,,,,22.793079399998533,22.80961369999568,22.80961369999568,22.80961369999568,22.80961369999568,22.80961369999568,24.99322299999767,space,2.177892100007739,None,,,,,,,,,,,,,,,,,,,,,,,,,,,,,,,,,,,,00027,001,2026-01-20_20h11.54.094,MST_test,2024.2.0,59.966131129539875,2026-01-20 20h12.03.030514 +0530,
,,,,,,,,,,,,,,,,,,,,,,,,,,,,,,,,,,,,,,,,,,,,,24.99332819999836,25.009107999998378,25.009107999998378,124.45941689999017,space,99.44265490000544,None,,,,,,,,,,,,,,,,,,,,,,,,,,,,,00027,001,2026-01-20_20h11.54.094,MST_test,2024.2.0,59.966131129539875,2026-01-20 20h12.03.030514 +0530,
,,,,,,,,,,,,,,,,,,,,,,,,,,,,,,,,,,,,,,,,,,,,,,,,,,,,124.45955559999857,124.47571230000176,124.47571230000176,142.5593557999964,space,18.079379099988728,None,,,,,,,,,,,,,,,,,,,,,,00027,001,2026-01-20_20h11.54.094,MST_test,2024.2.0,59.966131129539875,2026-01-20 20h12.03.030514 +0530,
0,0,1,s,4.445871899995836,None,1,0,0,142.57515099999728,,,,,,,,,,,,,,,,,,,,,,,,,,,,,,,,,,,,,,,,,,,,,,,,,,142.57037299999502,142.57515099999728,143.10918189999938,143.05947969999397,143.1067570999876,143.10918189999938,143.10918189999938,143.10918189999938,147.55958770000143,Scenes\177b.jpg,mid,s,4.445871899995836,None,,,,,,,,00027,001,2026-01-20_20h11.54.094,MST_test,2024.2.0,59.966131129539875,2026-01-20 20h12.03.030514 +0530,
1,0,2,s,7.894049099995755,None,2,0,1,147.5754300999979,,,,,,,,,,,,,,,,,,,,,,,,,,,,,,,,,,,,,,,,,,,,,,,,,,147.5599899999943,147.5754300999979,148.09309769999527,148.05948299999,148.0911083999963,148.09309769999527,148.09309769999527,148.09309769999527,155.99288789999264,Objects\080b.jpg,mid,s,7.894049099995755,None,,,,,,,,00027,001,2026-01-20_20h11.54.094,MST_test,2024.2.0,59.966131129539875,2026-01-20 20h12.03.030514 +0530,
2,0,3,s,6.3174181999929715,None,3,0,2,156.00909619999584,,,,,,,,,,,,,,,,,,,,,,,,,,,,,,,,,,,,,,,,,,,,,,,,,,155.99328239999886,156.00909619999584,156.50929389998782,156.49270350000006,156.5060225999914,156.50929389998782,156.50929389998782,156.50929389998782,162.84304059999704,Scenes\116b.jpg,pre,s,6.3174181999929715,None,,,,,,,,00027,001,2026-01-20_20h11.54.094,MST_test,2024.2.0,59.966131129539875,2026-01-20 20h12.03.030514 +0530,
3,0,4,n,4.795178400003351,None,4,0,3,162.85884989998885,,,,,,,,,,,,,,,,,,,,,,,,,,,,,,,,,,,,,,,,,,,,,,,,,,162.84341299999505,162.85884989998885,163.3602557999984,163.34274829999777,163.35118749999674,163.3602557999984,163.3602557999984,163.3602557999984,168.15981509999256,Foils\042a.jpg,none,n,4.795178400003351,None,,,,,,,,00027,001,2026-01-20_20h11.54.094,MST_test,2024.2.0,59.966131129539875,2026-01-20 20h12.03.030514 +0530,
4,0,5,s,2.3319443999935174,None,5,0,4,168.17565079999622,,,,,,,,,,,,,,,,,,,,,,,,,,,,,,,,,,,,,,,,,,,,,,,,,,168.1602089999942,168.17565079999622,168.72727119999763,168.65919739998935,168.72505419999652,168.72727119999763,168.72727119999763,168.72727119999763,171.06069399999978,Objects\171b.jpg,mid,s,2.3319443999935174,None,,,,,,,,00027,001,2026-01-20_20h11.54.094,MST_test,2024.2.0,59.966131129539875,2026-01-20 20h12.03.030514 +0530,
5,0,6,n,1.6859646999946563,None,6,0,5,171.07574029998796,,,,,,,,,,,,,,,,,,,,,,,,,,,,,,,,,,,,,,,,,,,,,,,,,,171.061091399999,171.07574029998796,171.8288678999961,171.55919479999284,171.82211249999818,171.8288678999961,171.8288678999961,171.8288678999961,173.52694319999136,Foils\scenes26.jpg,none,n,1.6859646999946563,None,,,,,,,,00027,001,2026-01-20_20h11.54.094,MST_test,2024.2.0,59.966131129539875,2026-01-20 20h12.03.030514 +0530,
6,0,7,s,5.854224199996679,None,7,0,6,173.54241479998745,,,,,,,,,,,,,,,,,,,,,,,,,,,,,,,,,,,,,,,,,,,,,,,,,,173.52731429999403,173.54241479998745,174.09279479998804,174.0262470999878,174.0904778999975,174.09279479998804,174.09279479998804,174.09279479998804,179.9596229000017,Scenes\001b.jpg,pre,s,5.854224199996679,None,,,,,,,,00027,001,2026-01-20_20h11.54.094,MST_test,2024.2.0,59.966131129539875,2026-01-20 20h12.03.030514 +0530,
7,0,8,o,1.5183682000060799,None,8,0,7,179.9760968999908,,,,,,,,,,,,,,,,,,,,,,,,,,,,,,,,,,,,,,,,,,,,,,,,,,179.96000849999837,179.9760968999908,180.47639489998983,180.45951989998866,180.46945959998993,180.47639489998983,180.47639489998983,180.47639489998983,182.00918689998798,Objects\075b.jpg,pre,o,1.5183682000060799,None,,,,,,,,00027,001,2026-01-20_20h11.54.094,MST_test,2024.2.0,59.966131129539875,2026-01-20 20h12.03.030514 +0530,
8,0,9,s,2.644011500000488,None,9,0,8,182.0254469999927,,,,,,,,,,,,,,,,,,,,,,,,,,,,,,,,,,,,,,,,,,,,,,,,,,182.00932079998893,182.0254469999927,182.5666468999989,182.5089783000003,182.5641128999996,182.5666468999989,182.5666468999989,182.5666468999989,185.2258129999973,Scenes\059b.jpg,pre,s,2.644011500000488,None,,,,,,,,00027,001,2026-01-20_20h11.54.094,MST_test,2024.2.0,59.966131129539875,2026-01-20 20h12.03.030514 +0530,
9,0,10,o,1.8508422000013525,None,10,0,9,185.2419627999916,,,,,,,,,,,,,,,,,,,,,,,,,,,,,,,,,,,,,,,,,,,,,,,,,,185.22614559999784,185.2419627999916,185.74393939999572,185.72577859999728,185.74103939998895,185.74393939999572,185.74393939999572,185.74393939999572,187.60911869999836,Scenes\139a.jpg,pre,o,1.8508422000013525,None,,,,,,,,00027,001,2026-01-20_20h11.54.094,MST_test,2024.2.0,59.966131129539875,2026-01-20 20h12.03.030514 +0530,
10,0,11,s,2.172615200004657,None,11,0,10,187.62537639999937,,,,,,,,,,,,,,,,,,,,,,,,,,,,,,,,,,,,,,,,,,,,,,,,,,187.60934919999272,187.62537639999937,188.12660599999072,188.1089279000007,188.11707559999195,188.12660599999072,188.12660599999072,188.12660599999072,190.30988159999833,Foils\026a.jpg,none,s,2.172615200004657,None,,,,,,,,00027,001,2026-01-20_20h11.54.094,MST_test,2024.2.0,59.966131129539875,2026-01-20 20h12.03.030514 +0530,
11,0,12,n,2.6888236999948276,None,12,0,11,190.32543889999215,,,,,,,,,,,,,,,,,,,,,,,,,,,,,,,,,,,,,,,,,,,,,,,,,,190.31027459999314,190.32543889999215,190.82618720000028,190.80941839999286,190.81680329999654,190.82618720000028,190.82618720000028,190.82618720000028,193.52644889999647,Foils\scenes12.jpg,none,n,2.6888236999948276,None,,,,,,,,00027,001,2026-01-20_20h11.54.094,MST_test,2024.2.0,59.966131129539875,2026-01-20 20h12.03.030514 +0530,
12,0,13,s,1.4886307999986457,None,13,0,12,193.54244720000133,,,,,,,,,,,,,,,,,,,,,,,,,,,,,,,,,,,,,,,,,,,,,,,,,,193.5268345999939,193.54244720000133,194.04275309998775,194.02617409999948,194.03385769999295,194.04275309998775,194.04275309998775,194.04275309998775,195.54273889999604,Objects\178b.jpg,post,s,1.4886307999986457,None,,,,,,,,00027,001,2026-01-20_20h11.54.094,MST_test,2024.2.0,59.966131129539875,2026-01-20 20h12.03.030514 +0530,
13,0,14,n,3.4640476000058698,None,14,0,13,195.55901129999256,,,,,,,,,,,,,,,,,,,,,,,,,,,,,,,,,,,,,,,,,,,,,,,,,,195.5431028999883,195.55901129999256,196.0591388999892,196.04283379999106,196.0528661999997,196.0591388999892,196.0591388999892,196.0591388999892,199.52644199998758,Foils\scenes13.jpg,none,n,3.4640476000058698,None,,,,,,,,00027,001,2026-01-20_20h11.54.094,MST_test,2024.2.0,59.966131129539875,2026-01-20 20h12.03.030514 +0530,
14,0,15,o,1.480610099999467,None,15,0,14,199.54245339999034,,,,,,,,,,,,,,,,,,,,,,,,,,,,,,,,,,,,,,,,,,,,,,,,,,199.52683350000007,199.54245339999034,200.04254139999102,200.02608899999177,200.03993949999858,200.04254139999102,200.04254139999102,200.04254139999102,201.52641349998885,Scenes\051b.jpg,pre,o,1.480610099999467,None,,,,,,,,00027,001,2026-01-20_20h11.54.094,MST_test,2024.2.0,59.966131129539875,2026-01-20 20h12.03.030514 +0530,
15,0,16,o,1.0721937999915099,None,16,0,15,201.54226299999573,,,,,,,,,,,,,,,,,,,,,,,,,,,,,,,,,,,,,,,,,,,,,,,,,,201.52677029999904,201.54226299999573,202.05120349999925,202.02616489998763,202.04868729998998,202.05120349999925,202.05120349999925,202.05120349999925,203.12623429999803,Scenes\026a.jpg,pre,o,1.0721937999915099,None,,,,,,,,00027,001,2026-01-20_20h11.54.094,MST_test,2024.2.0,59.966131129539875,2026-01-20 20h12.03.030514 +0530,
16,0,17,o,1.612442799989367,None,17,0,16,203.14244649998727,,,,,,,,,,,,,,,,,,,,,,,,,,,,,,,,,,,,,,,,,,,,,,,,,,203.12658849998843,203.14244649998727,203.67038359999424,203.6261761999922,203.66758769999433,203.67038359999424,203.67038359999424,203.67038359999424,205.29313039999397,Scenes\094b.jpg,mid,o,1.612442799989367,None,,,,,,,,00027,001,2026-01-20_20h11.54.094,MST_test,2024.2.0,59.966131129539875,2026-01-20 20h12.03.030514 +0530,
17,0,18,n,1.8496545999951195,None,18,0,17,205.3090330999985,,,,,,,,,,,,,,,,,,,,,,,,,,,,,,,,,,,,,,,,,,,,,,,,,,205.29352179999114,205.3090330999985,205.8092031999986,205.79196869999578,205.79634119999537,205.8092031999986,205.8092031999986,205.8092031999986,207.6594400999893,Objects\099b.jpg,pre,n,1.8496545999951195,None,,,,,,,,00027,001,2026-01-20_20h11.54.094,MST_test,2024.2.0,59.966131129539875,2026-01-20 20h12.03.030514 +0530,
18,0,19,s,1.7869320000027074,None,19,0,18,207.67575339999166,,,,,,,,,,,,,,,,,,,,,,,,,,,,,,,,,,,,,,,,,,,,,,,,,,207.6598040999961,207.67575339999166,208.17595099999744,208.15941209999437,208.1679998999898,208.17595099999744,208.17595099999744,208.17595099999744,209.97617979999632,Objects\079b.jpg,post,s,1.7869320000027074,None,,,,,,,,00027,001,2026-01-20_20h11.54.094,MST_test,2024.2.0,59.966131129539875,2026-01-20 20h12.03.030514 +0530,
19,0,20,s,1.41454579999845,None,20,0,19,209.99227989999054,,,,,,,,,,,,,,,,,,,,,,,,,,,,,,,,,,,,,,,,,,,,,,,,,,209.9765456999885,209.99227989999054,,210.47702039999422,210.483676799995,210.49243379999825,210.49243379999825,210.49243379999825,211.90941749999183,Foils\057a.jpg,none,s,1.41454579999845,None,,,,,,,,00027,001,2026-01-20_20h11.54.094,MST_test,2024.2.0,59.966131129539875,2026-01-20 20h12.03.030514 +0530,
20,0,21,s,1.1956568000023253,None,21,0,20,211.92575280000165,,,,,,,,,,,,,,,,,,,,,,,,,,,,,,,,,,,,,,,,,,,,,,,,,,211.90980639999907,211.92575280000165,212.4309923999972,212.40927699999884,212.4285164999892,212.4309923999972,212.4309923999972,212.4309923999972,213.64312549999158,Scenes\084b.jpg,post,s,1.1956568000023253,None,,,,,,,,00027,001,2026-01-20_20h11.54.094,MST_test,2024.2.0,59.966131129539875,2026-01-20 20h12.03.030514 +0530,
21,0,22,s,0.995594699998037,None,22,0,21,213.6590346999874,,,,,,,,,,,,,,,,,,,,,,,,,,,,,,,,,,,,,,,,,,,,,,,,,,213.64361129999452,213.6590346999874,214.15957519999938,214.14251089999743,214.14899549999973,214.15957519999938,214.15957519999938,214.15957519999938,215.15967909999017,Objects\073b.jpg,pre,s,0.995594699998037,None,,,,,,,,00027,001,2026-01-20_20h11.54.094,MST_test,2024.2.0,59.966131129539875,2026-01-20 20h12.03.030514 +0530,
22,0,23,o,1.046800299998722,None,23,0,22,215.1766545999999,,,,,,,,,,,,,,,,,,,,,,,,,,,,,,,,,,,,,,,,,,,,,,,,,,215.16003349999664,215.1766545999999,,215.67584719999286,215.68475459999172,215.6925676999963,215.6925676999963,215.6925676999963,216.74343499999668,Objects\034b.jpg,mid,o,1.046800299998722,None,,,,,,,,00027,001,2026-01-20_20h11.54.094,MST_test,2024.2.0,59.966131129539875,2026-01-20 20h12.03.030514 +0530,
23,0,24,o,1.1616945999994641,None,24,0,23,216.7587230999925,,,,,,,,,,,,,,,,,,,,,,,,,,,,,,,,,,,,,,,,,,,,,,,,,,216.74379719998979,216.7587230999925,217.2650646999973,217.2422443999967,217.26292779999494,217.2650646999973,217.2650646999973,217.2650646999973,218.44312250000075,Objects\040b.jpg,mid,o,1.1616945999994641,None,,,,,,,,00027,001,2026-01-20_20h11.54.094,MST_test,2024.2.0,59.966131129539875,2026-01-20 20h12.03.030514 +0530,
24,0,25,s,1.4194507000065641,None,25,0,24,218.45855270000175,,,,,,,,,,,,,,,,,,,,,,,,,,,,,,,,,,,,,,,,,,,,,,,,,,218.44357939998736,218.45855270000175,218.95927479999955,218.94244590000017,218.94830059999367,218.95927479999955,218.95927479999955,218.95927479999955,220.39314479999302,Foils\scenes5.jpg,none,s,1.4194507000065641,None,,,,,,,,00027,001,2026-01-20_20h11.54.094,MST_test,2024.2.0,59.966131129539875,2026-01-20 20h12.03.030514 +0530,
25,0,26,n,3.54173900000751,None,26,0,25,220.40903189999517,,,,,,,,,,,,,,,,,,,,,,,,,,,,,,,,,,,,,,,,,,,,,,,,,,220.393596599999,220.40903189999517,220.90913200000068,220.89256670000032,220.89792069999385,220.90913200000068,220.90913200000068,220.90913200000068,224.459720999992,Foils\scenes3.jpg,none,n,3.54173900000751,None,,,,,,,,00027,001,2026-01-20_20h11.54.094,MST_test,2024.2.0,59.966131129539875,2026-01-20 20h12.03.030514 +0530,
26,0,27,s,3.370621399997617,None,27,0,26,224.47577549998823,,,,,,,,,,,,,,,,,,,,,,,,,,,,,,,,,,,,,,,,,,,,,,,,,,224.46010549999482,224.47577549998823,225.00072149999323,224.95903339999495,224.99857239999983,225.00072149999323,225.00072149999323,225.00072149999323,228.37647619999188,Objects\022b.jpg,pre,s,3.370621399997617,None,,,,,,,,00027,001,2026-01-20_20h11.54.094,MST_test,2024.2.0,59.966131129539875,2026-01-20 20h12.03.030514 +0530,
27,0,28,s,1.951786900011939,None,28,0,27,228.39245099999243,,,,,,,,,,,,,,,,,,,,,,,,,,,,,,,,,,,,,,,,,,,,,,,,,,228.3769309999916,228.39245099999243,228.99647309999273,228.8761291999981,228.993848099999,228.99647309999273,228.99647309999273,228.99647309999273,230.95964469999308,Scenes\188b.jpg,post,s,1.951786900011939,None,,,,,,,,00027,001,2026-01-20_20h11.54.094,MST_test,2024.2.0,59.966131129539875,2026-01-20 20h12.03.030514 +0530,
28,0,29,o,1.907663899997715,None,29,0,28,230.9757524000015,,,,,,,,,,,,,,,,,,,,,,,,,,,,,,,,,,,,,,,,,,,,,,,,,,230.9600070000015,230.9757524000015,231.47971899999538,231.4595760999946,231.47729279998748,231.47971899999538,231.47971899999538,231.47971899999538,233.39306239999132,Scenes\125b.jpg,pre,o,1.907663899997715,None,,,,,,,,00027,001,2026-01-20_20h11.54.094,MST_test,2024.2.0,59.966131129539875,2026-01-20 20h12.03.030514 +0530,
29,0,30,n,1.501009100000374,None,30,0,29,233.40876979999302,,,,,,,,,,,,,,,,,,,,,,,,,,,,,,,,,,,,,,,,,,,,,,,,,,233.3934467999934,233.40876979999302,233.9097141999955,233.89237859999412,233.9016616000008,233.9097141999955,233.9097141999955,233.9097141999955,235.42646499999682,Foils\093b.jpg,none,n,1.501009100000374,None,,,,,,,,00027,001,2026-01-20_20h11.54.094,MST_test,2024.2.0,59.966131129539875,2026-01-20 20h12.03.030514 +0530,
30,0,31,o,3.964742700001807,None,31,0,30,235.4421743999992,,,,,,,,,,,,,,,,,,,,,,,,,,,,,,,,,,,,,,,,,,,,,,,,,,235.42692339999485,235.4421743999992,235.94261089999054,235.92616949998774,235.93252019998909,235.94261089999054,235.94261089999054,235.94261089999054,239.90945519998786,Objects\156a.jpg,mid,o,3.964742700001807,None,,,,,,,,00027,001,2026-01-20_20h11.54.094,MST_test,2024.2.0,59.966131129539875,2026-01-20 20h12.03.030514 +0530,
31,0,32,o,0.9368162000027951,None,32,0,31,239.92578539998794,,,,,,,,,,,,,,,,,,,,,,,,,,,,,,,,,,,,,,,,,,,,,,,,,,239.90986479999265,239.92578539998794,240.42585739999777,240.40953089999675,240.41946910000115,240.42585739999777,240.42585739999777,240.42585739999777,241.37642299999425,Objects\042a.jpg,mid,o,0.9368162000027951,None,,,,,,,,00027,001,2026-01-20_20h11.54.094,MST_test,2024.2.0,59.966131129539875,2026-01-20 20h12.03.030514 +0530,
32,0,33,o,1.6300417000020389,None,33,0,32,241.39259079999465,,,,,,,,,,,,,,,,,,,,,,,,,,,,,,,,,,,,,,,,,,,,,,,,,,241.37678939999023,241.39259079999465,241.89335729999584,241.87615859998914,241.89108619999024,241.89335729999584,241.89335729999584,241.89335729999584,243.52631299999484,Scenes\109a.jpg,post,o,1.6300417000020389,None,,,,,,,,00027,001,2026-01-20_20h11.54.094,MST_test,2024.2.0,59.966131129539875,2026-01-20 20h12.03.030514 +0530,
33,0,34,o,2.8637424999906216,None,34,0,33,243.54242529999465,,,,,,,,,,,,,,,,,,,,,,,,,,,,,,,,,,,,,,,,,,,,,,,,,,243.52670339999895,243.54242529999465,244.04365690000122,244.02634379999654,244.04114960000152,244.04365690000122,244.04365690000122,244.04365690000122,246.910332200001,Scenes\187a.jpg,pre,o,2.8637424999906216,None,,,,,,,,00027,001,2026-01-20_20h11.54.094,MST_test,2024.2.0,59.966131129539875,2026-01-20 20h12.03.030514 +0530,
34,0,35,s,1.4450684000039473,None,35,0,34,246.92574779999268,,,,,,,,,,,,,,,,,,,,,,,,,,,,,,,,,,,,,,,,,,,,,,,,,,246.91072749999876,246.92574779999268,247.43001099998946,247.4095018999942,247.42739549999533,247.43001099998946,247.43001099998946,247.43001099998946,248.87664309999673,Scenes\171b.jpg,post,s,1.4450684000039473,None,,,,,,,,00027,001,2026-01-20_20h11.54.094,MST_test,2024.2.0,59.966131129539875,2026-01-20 20h12.03.030514 +0530,
35,0,36,s,1.3591730999905849,None,36,0,35,248.89238259999547,,,,,,,,,,,,,,,,,,,,,,,,,,,,,,,,,,,,,,,,,,,,,,,,,,248.87702689999423,248.89238259999547,249.4921428999951,249.3761625999905,249.4896594999882,249.4921428999951,249.4921428999951,249.4921428999951,250.85963679999986,Objects\010b.jpg,post,s,1.3591730999905849,None,,,,,,,,00027,001,2026-01-20_20h11.54.094,MST_test,2024.2.0,59.966131129539875,2026-01-20 20h12.03.030514 +0530,
36,0,37,s,1.3071067999990191,None,37,0,36,250.8757220999978,,,,,,,,,,,,,,,,,,,,,,,,,,,,,,,,,,,,,,,,,,,,,,,,,,250.86001649999525,250.8757220999978,251.3757018999895,251.3593911999924,251.36778119999508,251.3757018999895,251.3757018999895,251.3757018999895,252.69309509999584,Objects\086a.jpg,mid,s,1.3071067999990191,None,,,,,,,,00027,001,2026-01-20_20h11.54.094,MST_test,2024.2.0,59.966131129539875,2026-01-20 20h12.03.030514 +0530,
37,0,38,n,1.224500700001954,None,38,0,37,252.70912600000156,,,,,,,,,,,,,,,,,,,,,,,,,,,,,,,,,,,,,,,,,,,,,,,,,,252.69345249999606,252.70912600000156,253.28235999999742,253.19272449999698,253.2783167999878,253.28235999999742,253.28235999999742,253.28235999999742,254.50965129998804,Foils\scenes25.jpg,none,n,1.224500700001954,None,,,,,,,,00027,001,2026-01-20_20h11.54.094,MST_test,2024.2.0,59.966131129539875,2026-01-20 20h12.03.030514 +0530,
38,0,39,s,1.3911063999985345,None,39,0,38,254.5255227999878,,,,,,,,,,,,,,,,,,,,,,,,,,,,,,,,,,,,,,,,,,,,,,,,,,254.51000939999358,254.5255227999878,255.02820390000124,255.0093857999891,255.0237313999969,255.02820390000124,255.02820390000124,255.02820390000124,256.42637789998844,Objects\052a.jpg,pre,s,1.3911063999985345,None,,,,,,,,00027,001,2026-01-20_20h11.54.094,MST_test,2024.2.0,59.966131129539875,2026-01-20 20h12.03.030514 +0530,
39,0,40,n,2.324901999993017,None,40,0,39,256.44243989999813,,,,,,,,,,,,,,,,,,,,,,,,,,,,,,,,,,,,,,,,,,,,,,,,,,256.42683129999205,256.44243989999813,256.94243789999746,256.92597079998814,256.9351731999923,256.94243789999746,256.94243789999746,256.94243789999746,259.2763555999991,Foils\086a.jpg,none,n,2.324901999993017,None,,,,,,,,00027,001,2026-01-20_20h11.54.094,MST_test,2024.2.0,59.966131129539875,2026-01-20 20h12.03.030514 +0530,
40,0,41,o,1.1783651000005193,None,41,0,40,259.29246579999744,,,,,,,,,,,,,,,,,,,,,,,,,,,,,,,,,,,,,,,,,,,,,,,,,,259.2767129999993,259.29246579999744,259.79255629998806,259.7762903999974,259.7849095999991,259.79255629998806,259.79255629998806,259.79255629998806,260.9764015999972,Objects\190a.jpg,pre,o,1.1783651000005193,None,,,,,,,,00027,001,2026-01-20_20h11.54.094,MST_test,2024.2.0,59.966131129539875,2026-01-20 20h12.03.030514 +0530,
41,0,42,s,1.5389928000076907,None,42,0,41,260.992193699989,,,,,,,,,,,,,,,,,,,,,,,,,,,,,,,,,,,,,,,,,,,,,,,,,,260.97679449999123,260.992193699989,261.4963432999939,261.47605509999266,261.49398879999353,261.4963432999939,261.4963432999939,261.4963432999939,263.0431530999922,Scenes\133b.jpg,mid,s,1.5389928000076907,None,,,,,,,,00027,001,2026-01-20_20h11.54.094,MST_test,2024.2.0,59.966131129539875,2026-01-20 20h12.03.030514 +0530,
42,0,43,s,5.115530099996249,None,43,0,42,263.05914779999875,,,,,,,,,,,,,,,,,,,,,,,,,,,,,,,,,,,,,,,,,,,,,,,,,,263.04355809999106,263.05914779999875,263.5594979000016,263.5429678999935,263.547748099998,263.5594979000016,263.5594979000016,263.5594979000016,268.6765451999963,Foils\020b.jpg,none,s,5.115530099996249,None,,,,,,,,00027,001,2026-01-20_20h11.54.094,MST_test,2024.2.0,59.966131129539875,2026-01-20 20h12.03.030514 +0530,
43,0,44,o,3.033989000003203,None,44,0,43,268.6924597999896,,,,,,,,,,,,,,,,,,,,,,,,,,,,,,,,,,,,,,,,,,,,,,,,,,268.6769338000013,268.6924597999896,269.19263029999274,269.1762183999963,269.18861209999886,269.19263029999274,269.19263029999274,269.19263029999274,272.24314310000045,Scenes\112b.jpg,mid,o,3.033989000003203,None,,,,,,,,00027,001,2026-01-20_20h11.54.094,MST_test,2024.2.0,59.966131129539875,2026-01-20 20h12.03.030514 +0530,
44,0,45,s,1.3399854000017513,None,45,0,44,272.25917049999407,,,,,,,,,,,,,,,,,,,,,,,,,,,,,,,,,,,,,,,,,,,,,,,,,,272.24350509999203,272.25917049999407,272.7593421999918,272.74263249999785,272.75178479999886,272.7593421999918,272.7593421999918,272.7593421999918,274.10973399999784,Objects\096a.jpg,pre,s,1.3399854000017513,None,,,,,,,,00027,001,2026-01-20_20h11.54.094,MST_test,2024.2.0,59.966131129539875,2026-01-20 20h12.03.030514 +0530,
45,0,46,s,3.265516800005571,None,46,0,45,274.1255208999937,,,,,,,,,,,,,,,,,,,,,,,,,,,,,,,,,,,,,,,,,,,,,,,,,,274.1100921999896,274.1255208999937,274.62590539999655,274.6091363000014,274.6160203999898,274.62590539999655,274.62590539999655,274.62590539999655,277.89290169999003,Objects\115a.jpg,post,s,3.265516800005571,None,,,,,,,,00027,001,2026-01-20_20h11.54.094,MST_test,2024.2.0,59.966131129539875,2026-01-20 20h12.03.030514 +0530,
46,0,47,o,1.9297813000011956,None,47,0,46,277.90913029998774,,,,,,,,,,,,,,,,,,,,,,,,,,,,,,,,,,,,,,,,,,,,,,,,,,277.89325789999566,277.90913029998774,278.4095551999926,278.3928515000007,278.40108060000057,278.4095551999926,278.4095551999926,278.4095551999926,280.3431331999891,Scenes\097a.jpg,post,o,1.9297813000011956,None,,,,,,,,00027,001,2026-01-20_20h11.54.094,MST_test,2024.2.0,59.966131129539875,2026-01-20 20h12.03.030514 +0530,
47,0,48,n,0.8714707999897655,None,48,0,47,280.3589221000002,,,,,,,,,,,,,,,,,,,,,,,,,,,,,,,,,,,,,,,,,,,,,,,,,,280.34352090000175,280.3589221000002,280.8598184000002,280.84291549999034,280.85330509999767,280.8598184000002,280.8598184000002,280.8598184000002,281.74320029999944,Foils\002a.jpg,none,n,0.8714707999897655,None,,,,,,,,00027,001,2026-01-20_20h11.54.094,MST_test,2024.2.0,59.966131129539875,2026-01-20 20h12.03.030514 +0530,
48,0,49,n,0.6952080000046408,None,49,0,48,281.75897879998956,,,,,,,,,,,,,,,,,,,,,,,,,,,,,,,,,,,,,,,,,,,,,,,,,,281.7435904999875,281.75897879998956,282.2593796000001,282.2425446999987,282.2511086000013,282.2593796000001,282.2593796000001,282.2593796000001,282.95935499999905,Foils\010a.jpg,none,n,0.6952080000046408,None,,,,,,,,00027,001,2026-01-20_20h11.54.094,MST_test,2024.2.0,59.966131129539875,2026-01-20 20h12.03.030514 +0530,
49,0,50,s,1.2552023000025656,None,50,0,49,282.97550429998955,,,,,,,,,,,,,,,,,,,,,,,,,,,,,,,,,,,,,,,,,,,,,,,,,,282.95968499999435,282.97550429998955,283.47608789999504,283.45950849998917,283.4672300999955,283.47608789999504,283.47608789999504,283.47608789999504,284.7435536999983,Foils\scenes7.jpg,none,s,1.2552023000025656,None,,,,,,,,00027,001,2026-01-20_20h11.54.094,MST_test,2024.2.0,59.966131129539875,2026-01-20 20h12.03.030514 +0530,
50,0,51,s,1.3778881000034744,None,51,0,50,284.75911059998907,,,,,,,,,,,,,,,,,,,,,,,,,,,,,,,,,,,,,,,,,,,,,,,,,,284.743950899996,284.75911059998907,285.280881499988,285.24283239999204,285.2783965999988,285.280881499988,285.280881499988,285.280881499988,286.6597417000012,Objects\092b.jpg,post,s,1.3778881000034744,None,,,,,,,,00027,001,2026-01-20_20h11.54.094,MST_test,2024.2.0,59.966131129539875,2026-01-20 20h12.03.030514 +0530,
51,0,52,s,2.730963399997563,None,52,0,51,286.67572780000046,,,,,,,,,,,,,,,,,,,,,,,,,,,,,,,,,,,,,,,,,,,,,,,,,,286.6600977999915,286.67572780000046,287.17597759999626,287.1589559999993,287.17356379999546,287.17597759999626,287.17597759999626,287.17597759999626,289.9096375999943,Scenes\134a.jpg,post,s,2.730963399997563,None,,,,,,,,00027,001,2026-01-20_20h11.54.094,MST_test,2024.2.0,59.966131129539875,2026-01-20 20h12.03.030514 +0530,
52,0,53,s,2.2124653000064427,None,53,0,52,289.9254632999946,,,,,,,,,,,,,,,,,,,,,,,,,,,,,,,,,,,,,,,,,,,,,,,,,,289.9100241999986,289.9254632999946,290.4548517999938,290.4093242999952,290.45176199999696,290.4548517999938,290.4548517999938,290.4548517999938,292.6763643999875,Objects\020b.jpg,post,s,2.2124653000064427,None,,,,,,,,00027,001,2026-01-20_20h11.54.094,MST_test,2024.2.0,59.966131129539875,2026-01-20 20h12.03.030514 +0530,
53,0,54,s,2.36914130000514,None,54,0,53,292.69245629999205,,,,,,,,,,,,,,,,,,,,,,,,,,,,,,,,,,,,,,,,,,,,,,,,,,292.6768000999873,292.69245629999205,293.19352999998955,293.1761039999983,293.191201499998,293.19352999998955,293.19352999998955,293.19352999998955,295.57636359999015,Scenes\173a.jpg,post,s,2.36914130000514,None,,,,,,,,00027,001,2026-01-20_20h11.54.094,MST_test,2024.2.0,59.966131129539875,2026-01-20 20h12.03.030514 +0530,
54,0,55,o,1.7500543000060134,None,55,0,54,295.59251979998953,,,,,,,,,,,,,,,,,,,,,,,,,,,,,,,,,,,,,,,,,,,,,,,,,,295.5767249999917,295.59251979998953,296.0926751999941,296.0752169999905,296.08558689999336,296.0926751999941,296.0926751999941,296.0926751999941,297.8597955000005,Scenes\192a.jpg,post,o,1.7500543000060134,None,,,,,,,,00027,001,2026-01-20_20h11.54.094,MST_test,2024.2.0,59.966131129539875,2026-01-20 20h12.03.030514 +0530,
55,0,56,s,5.547313699993538,None,56,0,55,297.8757234999939,,,,,,,,,,,,,,,,,,,,,,,,,,,,,,,,,,,,,,,,,,,,,,,,,,297.8602065999876,297.8757234999939,298.3760559999937,298.3593661999912,298.3715203999891,298.3760559999937,298.3760559999937,298.3760559999937,303.9262621999951,Objects\192a.jpg,post,s,5.547313699993538,None,,,,,,,,00027,001,2026-01-20_20h11.54.094,MST_test,2024.2.0,59.966131129539875,2026-01-20 20h12.03.030514 +0530,
56,0,57,n,1.4486726000031922,None,57,0,56,303.9421105999936,,,,,,,,,,,,,,,,,,,,,,,,,,,,,,,,,,,,,,,,,,,,,,,,,,303.92671469999186,303.9421105999936,304.4426819999935,304.4261178000015,304.4345871999976,304.4426819999935,304.4426819999935,304.4426819999935,305.89288939999824,Objects\125a.jpg,mid,n,1.4486726000031922,None,,,,,,,,00027,001,2026-01-20_20h11.54.094,MST_test,2024.2.0,59.966131129539875,2026-01-20 20h12.03.030514 +0530,
57,0,58,s,1.185368100006599,None,58,0,57,305.90881169999193,,,,,,,,,,,,,,,,,,,,,,,,,,,,,,,,,,,,,,,,,,,,,,,,,,305.8932816000015,305.90881169999193,306.40925389999757,306.3928315999947,306.40553530000034,306.40925389999757,306.40925389999757,306.40925389999757,307.60940929999924,Scenes\151b.jpg,pre,s,1.185368100006599,None,,,,,,,,00027,001,2026-01-20_20h11.54.094,MST_test,2024.2.0,59.966131129539875,2026-01-20 20h12.03.030514 +0530,
58,0,59,s,1.3090645000047516,None,59,0,58,307.62570109999797,,,,,,,,,,,,,,,,,,,,,,,,,,,,,,,,,,,,,,,,,,,,,,,,,,307.60956859998987,307.62570109999797,308.12620289999177,308.1095226999896,308.11943999999494,308.12620289999177,308.12620289999177,308.12620289999177,309.4430702999962,Foils\065a.jpg,none,s,1.3090645000047516,None,,,,,,,,00027,001,2026-01-20_20h11.54.094,MST_test,2024.2.0,59.966131129539875,2026-01-20 20h12.03.030514 +0530,
59,0,60,s,1.6157173000101466,None,60,0,59,309.4590974999883,,,,,,,,,,,,,,,,,,,,,,,,,,,,,,,,,,,,,,,,,,,,,,,,,,309.44342559999495,309.4590974999883,309.9630385999917,309.9428493999876,309.9608210000006,309.9630385999917,309.9630385999917,309.9630385999917,311.59299929998815,Scenes\090a.jpg,post,s,1.6157173000101466,None,,,,,,,,00027,001,2026-01-20_20h11.54.094,MST_test,2024.2.0,59.966131129539875,2026-01-20 20h12.03.030514 +0530,
60,0,61,o,1.5729410000058124,None,61,0,60,311.60885289999715,,,,,,,,,,,,,,,,,,,,,,,,,,,,,,,,,,,,,,,,,,,,,,,,,,311.5933561999991,311.60885289999715,312.11042889999226,312.0928758999944,312.09913759998744,312.11042889999226,312.11042889999226,312.11042889999226,313.6930500000017,Objects\083a.jpg,pre,o,1.5729410000058124,None,,,,,,,,00027,001,2026-01-20_20h11.54.094,MST_test,2024.2.0,59.966131129539875,2026-01-20 20h12.03.030514 +0530,
61,0,62,o,2.8766382999892812,None,62,0,61,313.7090948999976,,,,,,,,,,,,,,,,,,,,,,,,,,,,,,,,,,,,,,,,,,,,,,,,,,313.69343089999165,313.7090948999976,314.21477569999115,314.19287059998896,314.2119987999904,314.21477569999115,314.21477569999115,314.21477569999115,317.09295459999703,Scenes\154a.jpg,post,o,2.8766382999892812,None,,,,,,,,00027,001,2026-01-20_20h11.54.094,MST_test,2024.2.0,59.966131129539875,2026-01-20 20h12.03.030514 +0530,
62,0,63,o,1.2385016000043834,None,63,0,62,317.1091333999939,,,,,,,,,,,,,,,,,,,,,,,,,,,,,,,,,,,,,,,,,,,,,,,,,,317.0933395999891,317.1091333999939,317.6124379999965,317.5928474999964,317.6101132999902,317.6124379999965,317.6124379999965,317.6124379999965,318.8598118999944,Scenes\043a.jpg,pre,o,1.2385016000043834,None,,,,,,,,00027,001,2026-01-20_20h11.54.094,MST_test,2024.2.0,59.966131129539875,2026-01-20 20h12.03.030514 +0530,
63,0,64,n,4.059404699990409,None,64,0,63,318.87547839999024,,,,,,,,,,,,,,,,,,,,,,,,,,,,,,,,,,,,,,,,,,,,,,,,,,318.86017739999807,318.87547839999024,319.3993574999913,319.3594580999925,319.3968516999885,319.3993574999913,319.3993574999913,319.3993574999913,323.45966589999443,Scenes\121b.jpg,mid,n,4.059404699990409,None,,,,,,,,00027,001,2026-01-20_20h11.54.094,MST_test,2024.2.0,59.966131129539875,2026-01-20 20h12.03.030514 +0530,
64,0,65,o,2.2441044000006514,None,65,0,64,323.4753473999881,,,,,,,,,,,,,,,,,,,,,,,,,,,,,,,,,,,,,,,,,,,,,,,,,,323.46005579999473,323.4753473999881,323.98230849999527,323.95955539999704,323.97954309999477,323.98230849999527,323.98230849999527,323.98230849999527,326.2427226,Scenes\023a.jpg,mid,o,2.2441044000006514,None,,,,,,,,00027,001,2026-01-20_20h11.54.094,MST_test,2024.2.0,59.966131129539875,2026-01-20 20h12.03.030514 +0530,
65,0,66,s,1.234113000013167,None,66,0,65,326.2588834999915,,,,,,,,,,,,,,,,,,,,,,,,,,,,,,,,,,,,,,,,,,,,,,,,,,326.2429335999914,326.2588834999915,326.7684259999951,326.74261039998964,326.7655109999905,326.7684259999951,326.7684259999951,326.7684259999951,328.0089178999915,Scenes\004b.jpg,mid,s,1.234113000013167,None,,,,,,,,00027,001,2026-01-20_20h11.54.094,MST_test,2024.2.0,59.966131129539875,2026-01-20 20h12.03.030514 +0530,
66,0,67,s,1.3892187999881571,None,67,0,66,328.02568269999756,,,,,,,,,,,,,,,,,,,,,,,,,,,,,,,,,,,,,,,,,,,,,,,,,,328.00903039998957,328.02568269999756,328.5260502999881,328.50916079999297,328.52037849999033,328.5260502999881,328.5260502999881,328.5260502999881,329.9263746999932,Objects\066b.jpg,mid,s,1.3892187999881571,None,,,,,,,,00027,001,2026-01-20_20h11.54.094,MST_test,2024.2.0,59.966131129539875,2026-01-20 20h12.03.030514 +0530,
67,0,68,n,1.888930099987192,None,68,0,67,329.94248179999704,,,,,,,,,,,,,,,,,,,,,,,,,,,,,,,,,,,,,,,,,,,,,,,,,,329.9268097999884,329.94248179999704,330.44233659999736,330.4261075999966,330.43390559998807,330.44233659999736,330.44233659999736,330.44233659999736,332.3431347000005,Foils\074a.jpg,none,n,1.888930099987192,None,,,,,,,,00027,001,2026-01-20_20h11.54.094,MST_test,2024.2.0,59.966131129539875,2026-01-20 20h12.03.030514 +0530,
68,0,69,n,1.0077214000048116,None,69,0,68,332.3591396999982,,,,,,,,,,,,,,,,,,,,,,,,,,,,,,,,,,,,,,,,,,,,,,,,,,332.3435171999881,332.3591396999982,332.85951319999003,332.8428380999976,332.85030339998775,332.85951319999003,332.85951319999003,332.85951319999003,333.8763773999963,Foils\scenes20.jpg,none,n,1.0077214000048116,None,,,,,,,,00027,001,2026-01-20_20h11.54.094,MST_test,2024.2.0,59.966131129539875,2026-01-20 20h12.03.030514 +0530,
69,0,70,s,2.2097688999929233,None,70,0,69,333.89244349999353,,,,,,,,,,,,,,,,,,,,,,,,,,,,,,,,,,,,,,,,,,,,,,,,,,333.8767511999904,333.89244349999353,334.3928564999951,334.3761169999925,334.38660929999605,334.3928564999951,334.3928564999951,334.3928564999951,336.6095743999904,Scenes\024a.jpg,pre,s,2.2097688999929233,None,,,,,,,,00027,001,2026-01-20_20h11.54.094,MST_test,2024.2.0,59.966131129539875,2026-01-20 20h12.03.030514 +0530,
70,0,71,s,3.8930057999968994,None,71,0,70,336.6260597999935,,,,,,,,,,,,,,,,,,,,,,,,,,,,,,,,,,,,,,,,,,,,,,,,,,336.6099475999945,336.6260597999935,337.12626159998763,337.1095495999907,337.1128916999878,337.12626159998763,337.12626159998763,337.12626159998763,341.0263353999908,Objects\029b.jpg,mid,s,3.8930057999968994,None,,,,,,,,00027,001,2026-01-20_20h11.54.094,MST_test,2024.2.0,59.966131129539875,2026-01-20 20h12.03.030514 +0530,
71,0,72,s,0.7377192999992985,None,72,0,71,341.04219490000105,,,,,,,,,,,,,,,,,,,,,,,,,,,,,,,,,,,,,,,,,,,,,,,,,,341.02678889999515,341.04219490000105,341.5455776000017,341.52621559999534,341.5432904999907,341.5455776000017,341.5455776000017,341.5455776000017,342.29389399998763,Scenes\110a.jpg,post,s,0.7377192999992985,None,,,,,,,,00027,001,2026-01-20_20h11.54.094,MST_test,2024.2.0,59.966131129539875,2026-01-20 20h12.03.030514 +0530,
72,0,73,o,1.69756210000196,None,73,0,72,342.3091024999885,,,,,,,,,,,,,,,,,,,,,,,,,,,,,,,,,,,,,,,,,,,,,,,,,,342.29424909999943,342.3091024999885,342.8094948999933,342.79282679999596,342.79962419999356,342.8094948999933,342.8094948999933,342.8094948999933,344.5094578999997,Objects\106a.jpg,mid,o,1.69756210000196,None,,,,,,,,00027,001,2026-01-20_20h11.54.094,MST_test,2024.2.0,59.966131129539875,2026-01-20 20h12.03.030514 +0530,
73,0,74,n,1.897261999998591,None,74,0,73,344.5257186999952,,,,,,,,,,,,,,,,,,,,,,,,,,,,,,,,,,,,,,,,,,,,,,,,,,344.50984079999034,344.5257186999952,345.0257731999882,345.0092236999917,345.01724399998784,345.0257731999882,345.0257731999882,345.0257731999882,346.9261081000004,Foils\113a.jpg,none,n,1.897261999998591,None,,,,,,,,00027,001,2026-01-20_20h11.54.094,MST_test,2024.2.0,59.966131129539875,2026-01-20 20h12.03.030514 +0530,
74,0,75,s,1.1968679999990854,None,75,0,74,346.9420856999932,,,,,,,,,,,,,,,,,,,,,,,,,,,,,,,,,,,,,,,,,,,,,,,,,,346.9265114000009,346.9420856999932,347.46174809998774,347.42610499999137,347.4591960999969,347.46174809998774,347.46174809998774,347.46174809998774,348.65976379999483,Objects\138b.jpg,post,s,1.1968679999990854,None,,,,,,,,00027,001,2026-01-20_20h11.54.094,MST_test,2024.2.0,59.966131129539875,2026-01-20 20h12.03.030514 +0530,
75,0,76,n,1.186395500000799,None,76,0,75,348.67570349999005,,,,,,,,,,,,,,,,,,,,,,,,,,,,,,,,,,,,,,,,,,,,,,,,,,348.6601582000003,348.67570349999005,349.1761652999994,349.1595006999996,349.16623139999865,349.1761652999994,349.1761652999994,349.1761652999994,350.3772808999929,Foils\scenes14.jpg,none,n,1.186395500000799,None,,,,,,,,00027,001,2026-01-20_20h11.54.094,MST_test,2024.2.0,59.966131129539875,2026-01-20 20h12.03.030514 +0530,
76,0,77,o,2.6383941999956733,None,77,0,76,350.3924466999888,,,,,,,,,,,,,,,,,,,,,,,,,,,,,,,,,,,,,,,,,,,,,,,,,,350.3776344999933,350.3924466999888,350.89280089999374,350.87586049998936,350.885523799996,350.89280089999374,350.89280089999374,350.89280089999374,353.542795699992,Objects\008a.jpg,pre,o,2.6383941999956733,None,,,,,,,,00027,001,2026-01-20_20h11.54.094,MST_test,2024.2.0,59.966131129539875,2026-01-20 20h12.03.030514 +0530,
77,0,78,o,1.239523399999598,None,78,0,77,353.5590201999876,,,,,,,,,,,,,,,,,,,,,,,,,,,,,,,,,,,,,,,,,,,,,,,,,,353.5432029999938,353.5590201999876,354.0592609999876,354.0428283999936,354.05173439999635,354.0592609999876,354.0592609999876,354.0592609999876,355.30967569998757,Objects\135a.jpg,pre,o,1.239523399999598,None,,,,,,,,00027,001,2026-01-20_20h11.54.094,MST_test,2024.2.0,59.966131129539875,2026-01-20 20h12.03.030514 +0530,
78,0,79,n,1.244818099992699,None,79,0,78,355.3257367999904,,,,,,,,,,,,,,,,,,,,,,,,,,,,,,,,,,,,,,,,,,,,,,,,,,355.3100509999931,355.3257367999904,355.85444859998825,355.8094670999999,355.85180579998996,355.85444859998825,355.85444859998825,355.85444859998825,357.10981559999345,Scenes\120b.jpg,post,n,1.244818099992699,None,,,,,,,,00027,001,2026-01-20_20h11.54.094,MST_test,2024.2.0,59.966131129539875,2026-01-20 20h12.03.030514 +0530,
79,0,80,o,1.9524343999946723,None,80,0,79,357.1257073000015,,,,,,,,,,,,,,,,,,,,,,,,,,,,,,,,,,,,,,,,,,,,,,,,,,357.1102017999947,357.1257073000015,357.6262119999883,357.6093944999884,357.62263959999837,357.6262119999883,357.6262119999883,357.6262119999883,359.59339850000106,Scenes\101b.jpg,post,o,1.9524343999946723,None,,,,,,,,00027,001,2026-01-20_20h11.54.094,MST_test,2024.2.0,59.966131129539875,2026-01-20 20h12.03.030514 +0530,
80,0,81,o,2.469296100010979,None,81,0,80,359.6091325000016,,,,,,,,,,,,,,,,,,,,,,,,,,,,,,,,,,,,,,,,,,,,,,,,,,359.5938221999968,359.6091325000016,360.1093530999933,360.09287490000133,360.1057632999873,360.1093530999933,360.1093530999933,360.1093530999933,362.5931156000006,Objects\088b.jpg,post,o,2.469296100010979,None,,,,,,,,00027,001,2026-01-20_20h11.54.094,MST_test,2024.2.0,59.966131129539875,2026-01-20 20h12.03.030514 +0530,
81,0,82,o,2.3692868999933125,None,82,0,81,362.60912670000107,,,,,,,,,,,,,,,,,,,,,,,,,,,,,,,,,,,,,,,,,,,,,,,,,,362.5935726999887,362.60912670000107,363.1380108999874,363.0928872999939,363.1356148999912,363.1380108999874,363.1380108999874,363.1380108999874,365.50950299999386,Scenes\035b.jpg,pre,o,2.3692868999933125,None,,,,,,,,00027,001,2026-01-20_20h11.54.094,MST_test,2024.2.0,59.966131129539875,2026-01-20 20h12.03.030514 +0530,
82,0,83,o,0.9993073000077857,None,83,0,82,365.5253387999983,,,,,,,,,,,,,,,,,,,,,,,,,,,,,,,,,,,,,,,,,,,,,,,,,,365.5099068999989,365.5253387999983,,366.01006139999663,366.0235696000018,366.02725539999665,366.02725539999665,366.02725539999665,367.04313649999676,Scenes\022a.jpg,post,o,0.9993073000077857,None,,,,,,,,00027,001,2026-01-20_20h11.54.094,MST_test,2024.2.0,59.966131129539875,2026-01-20 20h12.03.030514 +0530,
83,0,84,o,1.6346977000066545,None,84,0,83,367.05910119999317,,,,,,,,,,,,,,,,,,,,,,,,,,,,,,,,,,,,,,,,,,,,,,,,,,367.04352709998784,367.05910119999317,367.5679470999894,367.54250429999956,367.56474139999773,367.5679470999894,367.5679470999894,367.5679470999894,369.20965929998783,Scenes\081a.jpg,post,o,1.6346977000066545,None,,,,,,,,00027,001,2026-01-20_20h11.54.094,MST_test,2024.2.0,59.966131129539875,2026-01-20 20h12.03.030514 +0530,
84,0,85,o,3.1005101000046125,None,85,0,84,369.2257116999972,,,,,,,,,,,,,,,,,,,,,,,,,,,,,,,,,,,,,,,,,,,,,,,,,,369.2100068,369.2257116999972,369.7261007999914,369.7094023999962,369.7232808999979,369.7261007999914,369.7261007999914,369.7261007999914,372.8431738999934,Scenes\152a.jpg,pre,o,3.1005101000046125,None,,,,,,,,00027,001,2026-01-20_20h11.54.094,MST_test,2024.2.0,59.966131129539875,2026-01-20 20h12.03.030514 +0530,
85,0,86,s,1.4669254000036744,None,86,0,85,372.85914010000124,,,,,,,,,,,,,,,,,,,,,,,,,,,,,,,,,,,,,,,,,,,,,,,,,,372.8435585999978,372.85914010000124,373.35963099999935,373.3428348000016,373.35168279999925,373.35963099999935,373.35963099999935,373.35963099999935,374.84310769999865,Objects\177b.jpg,pre,s,1.4669254000036744,None,,,,,,,,00027,001,2026-01-20_20h11.54.094,MST_test,2024.2.0,59.966131129539875,2026-01-20 20h12.03.030514 +0530,
86,0,87,o,2.939819500010344,None,87,0,86,374.85912959999405,,,,,,,,,,,,,,,,,,,,,,,,,,,,,,,,,,,,,,,,,,,,,,,,,,374.8434588999953,374.85912959999405,375.35942229999637,375.3428317999933,375.34905340000114,375.35942229999637,375.35942229999637,375.35942229999637,378.3096743999922,Objects\161b.jpg,pre,o,2.939819500010344,None,,,,,,,,00027,001,2026-01-20_20h11.54.094,MST_test,2024.2.0,59.966131129539875,2026-01-20 20h12.03.030514 +0530,
87,0,88,n,1.5849443999904906,None,88,0,87,378.32635350000055,,,,,,,,,,,,,,,,,,,,,,,,,,,,,,,,,,,,,,,,,,,,,,,,,,378.31005770000047,378.32635350000055,378.82593859999906,378.80947809999634,378.81745930000034,378.82593859999906,378.82593859999906,378.82593859999906,380.4263632999937,Objects\038a.jpg,post,n,1.5849443999904906,None,,,,,,,,00027,001,2026-01-20_20h11.54.094,MST_test,2024.2.0,59.966131129539875,2026-01-20 20h12.03.030514 +0530,
88,0,89,s,1.5803631000017049,None,89,0,88,380.442320999995,,,,,,,,,,,,,,,,,,,,,,,,,,,,,,,,,,,,,,,,,,,,,,,,,,380.4267906999885,380.442320999995,380.94286609999835,380.9260964999994,380.93304199998965,380.94286609999835,380.94286609999835,380.94286609999835,382.52623360000143,Foils\scenes8.jpg,none,s,1.5803631000017049,None,,,,,,,,00027,001,2026-01-20_20h11.54.094,MST_test,2024.2.0,59.966131129539875,2026-01-20 20h12.03.030514 +0530,
89,0,90,s,1.3151559000107227,None,90,0,89,382.5424658999982,,,,,,,,,,,,,,,,,,,,,,,,,,,,,,,,,,,,,,,,,,,,,,,,,,382.5265844999958,382.5424658999982,383.0480491999915,383.02616779999516,383.0457996999903,383.0480491999915,383.0480491999915,383.0480491999915,384.3763583999971,Scenes\083b.jpg,post,s,1.3151559000107227,None,,,,,,,,00027,001,2026-01-20_20h11.54.094,MST_test,2024.2.0,59.966131129539875,2026-01-20 20h12.03.030514 +0530,
90,0,91,s,0.814096599991899,None,91,0,90,384.39322209999955,,,,,,,,,,,,,,,,,,,,,,,,,,,,,,,,,,,,,,,,,,,,,,,,,,384.3767072999908,384.39322209999955,384.8930346999987,384.8761011999886,384.8860859999986,384.8930346999987,384.8930346999987,384.8930346999987,385.70941749999474,Foils\033a.jpg,none,s,0.814096599991899,None,,,,,,,,00027,001,2026-01-20_20h11.54.094,MST_test,2024.2.0,59.966131129539875,2026-01-20 20h12.03.030514 +0530,
91,0,92,o,2.4163858000101754,None,92,0,91,385.72559469999396,,,,,,,,,,,,,,,,,,,,,,,,,,,,,,,,,,,,,,,,,,,,,,,,,,385.7097684999899,385.72559469999396,386.23449429999164,386.20923039999616,386.23151959999814,386.23449429999164,386.23449429999164,386.23449429999164,388.6596465999901,Scenes\025a.jpg,mid,o,2.4163858000101754,None,,,,,,,,00027,001,2026-01-20_20h11.54.094,MST_test,2024.2.0,59.966131129539875,2026-01-20 20h12.03.030514 +0530,
92,0,93,o,2.7602706999896327,None,93,0,92,388.6755000999983,,,,,,,,,,,,,,,,,,,,,,,,,,,,,,,,,,,,,,,,,,,,,,,,,,388.6600322999875,388.6755000999983,389.1783177999896,389.1594952000014,389.175948899996,389.1783177999896,389.1783177999896,389.1783177999896,391.9431561999954,Scenes\041b.jpg,mid,o,2.7602706999896327,None,,,,,,,,00027,001,2026-01-20_20h11.54.094,MST_test,2024.2.0,59.966131129539875,2026-01-20 20h12.03.030514 +0530,
93,0,94,s,1.3348431000049459,None,94,0,93,391.9591168999905,,,,,,,,,,,,,,,,,,,,,,,,,,,,,,,,,,,,,,,,,,,,,,,,,,391.9435614999966,391.9591168999905,392.4597141999984,392.44271079999453,392.45134299999336,392.4597141999984,392.4597141999984,392.4597141999984,393.80975499999477,Objects\102b.jpg,pre,s,1.3348431000049459,None,,,,,,,,00027,001,2026-01-20_20h11.54.094,MST_test,2024.2.0,59.966131129539875,2026-01-20 20h12.03.030514 +0530,
94,0,95,s,3.1645859999989625,None,95,0,94,393.82569779999903,,,,,,,,,,,,,,,,,,,,,,,,,,,,,,,,,,,,,,,,,,,,,,,,,,393.81012799999735,393.82569779999903,394.3260864999902,394.3095275999949,394.3170489999902,394.3260864999902,394.3260864999902,394.3260864999902,397.4927652999904,Foils\scenes19.jpg,none,s,3.1645859999989625,None,,,,,,,,00027,001,2026-01-20_20h11.54.094,MST_test,2024.2.0,59.966131129539875,2026-01-20 20h12.03.030514 +0530,
95,0,96,o,2.398872499994468,None,96,0,95,397.5091628999944,,,,,,,,,,,,,,,,,,,,,,,,,,,,,,,,,,,,,,,,,,,,,,,,,,397.49312489999284,397.5091628999944,398.011981299991,397.9928832000005,398.0096634999936,398.011981299991,398.011981299991,398.011981299991,400.42641619998903,Scenes\070a.jpg,post,o,2.398872499994468,None,,,,,,,,00027,001,2026-01-20_20h11.54.094,MST_test,2024.2.0,59.966131129539875,2026-01-20 20h12.03.030514 +0530,
96,0,97,o,3.0820835000049556,None,97,0,96,400.44244590000017,,,,,,,,,,,,,,,,,,,,,,,,,,,,,,,,,,,,,,,,,,,,,,,,,,400.42677289999847,400.44244590000017,400.96054039998853,400.92612879999797,400.95771269999386,400.96054039998853,400.96054039998853,400.96054039998853,404.05983109999215,Objects\063b.jpg,post,o,3.0820835000049556,None,,,,,,,,00027,001,2026-01-20_20h11.54.094,MST_test,2024.2.0,59.966131129539875,2026-01-20 20h12.03.030514 +0530,
97,0,98,n,1.9876539999968372,None,98,0,97,404.0762633999984,,,,,,,,,,,,,,,,,,,,,,,,,,,,,,,,,,,,,,,,,,,,,,,,,,404.0602082999976,404.0762633999984,404.5759212999983,404.5594956999994,404.56782459998794,404.5759212999983,404.5759212999983,404.5759212999983,406.5764240999997,Objects\155b.jpg,pre,n,1.9876539999968372,None,,,,,,,,00027,001,2026-01-20_20h11.54.094,MST_test,2024.2.0,59.966131129539875,2026-01-20 20h12.03.030514 +0530,
98,0,99,s,1.7852454999956535,None,99,0,98,406.5924234999984,,,,,,,,,,,,,,,,,,,,,,,,,,,,,,,,,,,,,,,,,,,,,,,,,,406.576802999989,406.5924234999984,407.10538879998785,407.07609019998927,407.1029237999901,407.10538879998785,407.10538879998785,407.10538879998785,408.89275629998883,Objects\041b.jpg,post,s,1.7852454999956535,None,,,,,,,,00027,001,2026-01-20_20h11.54.094,MST_test,2024.2.0,59.966131129539875,2026-01-20 20h12.03.030514 +0530,
99,0,100,o,1.2843740999960573,None,100,0,99,408.90870259999065,,,,,,,,,,,,,,,,,,,,,,,,,,,,,,,,,,,,,,,,,,,,,,,,,,408.8931179999927,408.90870259999065,409.41463639998983,409.3928231999889,409.4120358999935,409.41463639998983,409.41463639998983,409.41463639998983,410.71055439999327,Scenes\038a.jpg,mid,o,1.2843740999960573,None,,,,,,,,00027,001,2026-01-20_20h11.54.094,MST_test,2024.2.0,59.966131129539875,2026-01-20 20h12.03.030514 +0530,
100,0,101,o,1.96558869999717,None,101,0,100,410.72638179999194,,,,,,,,,,,,,,,,,,,,,,,,,,,,,,,,,,,,,,,,,,,,,,,,,,410.7109187999886,410.72638179999194,411.22900249999657,411.2095057999977,411.22557470000174,411.22900249999657,411.22900249999657,411.22900249999657,413.2095799999952,Scenes\157a.jpg,mid,o,1.96558869999717,None,,,,,,,,00027,001,2026-01-20_20h11.54.094,MST_test,2024.2.0,59.966131129539875,2026-01-20 20h12.03.030514 +0530,
101,0,102,n,4.551977700000862,None,102,0,101,413.2257033999922,,,,,,,,,,,,,,,,,,,,,,,,,,,,,,,,,,,,,,,,,,,,,,,,,,413.20998089999193,413.2257033999922,413.7392526999902,413.70952119999856,413.73697159999574,413.7392526999902,413.7392526999902,413.7392526999902,418.2928542000009,Objects\103b.jpg,pre,n,4.551977700000862,None,,,,,,,,00027,001,2026-01-20_20h11.54.094,MST_test,2024.2.0,59.966131129539875,2026-01-20 20h12.03.030514 +0530,
102,0,103,o,1.209188600012567,None,103,0,102,418.30914319999283,,,,,,,,,,,,,,,,,,,,,,,,,,,,,,,,,,,,,,,,,,,,,,,,,,418.29324899999483,418.30914319999283,418.8093191999942,418.7928952999937,418.80076749999716,418.8093191999942,418.8093191999942,418.8093191999942,420.02600859999075,Objects\127a.jpg,post,o,1.209188600012567,None,,,,,,,,00027,001,2026-01-20_20h11.54.094,MST_test,2024.2.0,59.966131129539875,2026-01-20 20h12.03.030514 +0530,
103,0,104,o,1.2204685999895446,None,104,0,103,420.04225689999294,,,,,,,,,,,,,,,,,,,,,,,,,,,,,,,,,,,,,,,,,,,,,,,,,,420.0264451999974,420.04225689999294,420.54271919999155,420.5257770999888,420.53470659999584,420.54271919999155,420.54271919999155,420.54271919999155,421.77638569999544,Objects\009a.jpg,mid,o,1.2204685999895446,None,,,,,,,,00027,001,2026-01-20_20h11.54.094,MST_test,2024.2.0,59.966131129539875,2026-01-20 20h12.03.030514 +0530,
104,0,105,o,4.133982900006231,None,105,0,104,421.7924328999943,,,,,,,,,,,,,,,,,,,,,,,,,,,,,,,,,,,,,,,,,,,,,,,,,,421.77673969999887,421.7924328999943,422.2926230000012,422.2761158999929,422.28444439999294,422.2926230000012,422.2926230000012,422.2926230000012,426.4428307999915,Objects\152b.jpg,post,o,4.133982900006231,None,,,,,,,,00027,001,2026-01-20_20h11.54.094,MST_test,2024.2.0,59.966131129539875,2026-01-20 20h12.03.030514 +0530,
105,0,106,o,1.971486400012509,None,106,0,105,426.4588461999956,,,,,,,,,,,,,,,,,,,,,,,,,,,,,,,,,,,,,,,,,,,,,,,,,,426.4432098999969,426.4588461999956,426.95920659998956,426.94277589999547,426.9552948999917,426.95920659998956,426.95920659998956,426.95920659998956,428.94297549998737,Scenes\033b.jpg,pre,o,1.971486400012509,None,,,,,,,,00027,001,2026-01-20_20h11.54.094,MST_test,2024.2.0,59.966131129539875,2026-01-20 20h12.03.030514 +0530,
106,0,107,o,1.1039540999918245,None,107,0,106,428.95913489999657,,,,,,,,,,,,,,,,,,,,,,,,,,,,,,,,,,,,,,,,,,,,,,,,,,428.9433532999974,428.95913489999657,429.459268599996,429.4426899999962,429.4563535999914,429.459268599996,429.459268599996,429.459268599996,430.5760447999928,Scenes\071b.jpg,pre,o,1.1039540999918245,None,,,,,,,,00027,001,2026-01-20_20h11.54.094,MST_test,2024.2.0,59.966131129539875,2026-01-20 20h12.03.030514 +0530,
107,0,108,o,2.549691000007442,None,108,0,107,430.59214979999524,,,,,,,,,,,,,,,,,,,,,,,,,,,,,,,,,,,,,,,,,,,,,,,,,,430.576395600001,430.59214979999524,431.092885799997,431.07612589999917,431.08617309998954,431.092885799997,431.092885799997,431.092885799997,433.6432308999938,Objects\093a.jpg,pre,o,2.549691000007442,None,,,,,,,,00027,001,2026-01-20_20h11.54.094,MST_test,2024.2.0,59.966131129539875,2026-01-20 20h12.03.030514 +0530,
108,0,109,s,2.531905600000755,None,109,0,108,433.65917980000086,,,,,,,,,,,,,,,,,,,,,,,,,,,,,,,,,,,,,,,,,,,,,,,,,,433.64344619998883,433.65917980000086,434.1593218999915,434.1425664999988,434.1515298000013,434.1593218999915,434.1593218999915,434.1593218999915,436.69283169999835,Objects\157a.jpg,pre,s,2.531905600000755,None,,,,,,,,00027,001,2026-01-20_20h11.54.094,MST_test,2024.2.0,59.966131129539875,2026-01-20 20h12.03.030514 +0530,
109,0,110,n,1.24935959999857,None,110,0,109,436.70900669999537,,,,,,,,,,,,,,,,,,,,,,,,,,,,,,,,,,,,,,,,,,,,,,,,,,436.6931876999879,436.70900669999537,437.2092855999945,437.19284789999074,437.200250599999,437.2092855999945,437.2092855999945,437.2092855999945,438.4596038000018,Foils\106a.jpg,none,n,1.24935959999857,None,,,,,,,,00027,001,2026-01-20_20h11.54.094,MST_test,2024.2.0,59.966131129539875,2026-01-20 20h12.03.030514 +0530,
110,0,111,n,1.195262900000671,None,111,0,110,438.4761204999959,,,,,,,,,,,,,,,,,,,,,,,,,,,,,,,,,,,,,,,,,,,,,,,,,,438.45996579999337,438.4761204999959,438.9759134999913,438.9594164000009,438.9676341000013,438.9759134999913,438.9759134999913,438.9759134999913,440.17732829999295,Objects\186b.jpg,post,n,1.195262900000671,None,,,,,,,,00027,001,2026-01-20_20h11.54.094,MST_test,2024.2.0,59.966131129539875,2026-01-20 20h12.03.030514 +0530,
111,0,112,s,1.398860400004196,None,112,0,111,440.19244459999027,,,,,,,,,,,,,,,,,,,,,,,,,,,,,,,,,,,,,,,,,,,,,,,,,,440.1776813999895,440.19244459999027,440.69238579999364,440.6761688999977,440.68460039999627,440.69238579999364,440.69238579999364,440.69238579999364,442.0927987999894,Objects\140a.jpg,pre,s,1.398860400004196,None,,,,,,,,00027,001,2026-01-20_20h11.54.094,MST_test,2024.2.0,59.966131129539875,2026-01-20 20h12.03.030514 +0530,
112,0,113,n,0.9692240000003949,None,113,0,112,442.10879349999595,,,,,,,,,,,,,,,,,,,,,,,,,,,,,,,,,,,,,,,,,,,,,,,,,,442.0931511999952,442.10879349999595,442.60932859999593,442.592710500001,442.60119719999784,442.60932859999593,442.60932859999593,442.60932859999593,443.5930915999925,Foils\009a.jpg,none,n,0.9692240000003949,None,,,,,,,,00027,001,2026-01-20_20h11.54.094,MST_test,2024.2.0,59.966131129539875,2026-01-20 20h12.03.030514 +0530,
113,0,114,n,5.100914800001192,None,114,0,113,443.6091228000005,,,,,,,,,,,,,,,,,,,,,,,,,,,,,,,,,,,,,,,,,,,,,,,,,,443.59344129999226,443.6091228000005,444.1095859999914,444.0928467999911,444.1013041999977,444.1095859999914,444.1095859999914,444.1095859999914,449.2264376999956,Foils\scenes30.jpg,none,n,5.100914800001192,None,,,,,,,,00027,001,2026-01-20_20h11.54.094,MST_test,2024.2.0,59.966131129539875,2026-01-20 20h12.03.030514 +0530,
114,0,115,s,3.2763035999960266,None,115,0,114,449.24246139999013,,,,,,,,,,,,,,,,,,,,,,,,,,,,,,,,,,,,,,,,,,,,,,,,,,449.2268416000006,449.24246139999013,449.74285399999644,449.726159599988,449.735886999988,449.74285399999644,449.74285399999644,449.74285399999644,453.02635319999536,Foils\082a.jpg,none,s,3.2763035999960266,None,,,,,,,,00027,001,2026-01-20_20h11.54.094,MST_test,2024.2.0,59.966131129539875,2026-01-20 20h12.03.030514 +0530,
115,0,116,s,0.9249421999993501,None,116,0,115,453.04247719999694,,,,,,,,,,,,,,,,,,,,,,,,,,,,,,,,,,,,,,,,,,,,,,,,,,453.0267060999904,453.04247719999694,453.54224769999564,453.52616029999626,453.53272069999366,453.54224769999564,453.54224769999564,453.54224769999564,454.4761969999963,Objects\119a.jpg,post,s,0.9249421999993501,None,,,,,,,,00027,001,2026-01-20_20h11.54.094,MST_test,2024.2.0,59.966131129539875,2026-01-20 20h12.03.030514 +0530,
116,0,117,o,3.0724518000060925,None,117,0,116,454.4922092999914,,,,,,,,,,,,,,,,,,,,,,,,,,,,,,,,,,,,,,,,,,,,,,,,,,454.47656309999,454.4922092999914,454.99448749999283,454.9760257000016,454.99154249999265,454.99448749999283,454.99448749999283,454.99448749999283,458.0764341999893,Scenes\052a.jpg,mid,o,3.0724518000060925,None,,,,,,,,00027,001,2026-01-20_20h11.54.094,MST_test,2024.2.0,59.966131129539875,2026-01-20 20h12.03.030514 +0530,
117,0,118,o,1.0094973000086611,None,118,0,117,458.09247999999207,,,,,,,,,,,,,,,,,,,,,,,,,,,,,,,,,,,,,,,,,,,,,,,,,,458.0767821999907,458.09247999999207,458.5930337999889,458.5762601999886,458.5899814000004,458.5930337999889,458.5930337999889,458.5930337999889,459.60948699999426,Scenes\080b.jpg,post,o,1.0094973000086611,None,,,,,,,,00027,001,2026-01-20_20h11.54.094,MST_test,2024.2.0,59.966131129539875,2026-01-20 20h12.03.030514 +0530,
118,0,119,n,1.2205757000047015,None,119,0,118,459.6255505000008,,,,,,,,,,,,,,,,,,,,,,,,,,,,,,,,,,,,,,,,,,,,,,,,,,459.6096827000001,459.6255505000008,,460.1104983999976,460.1551107999985,460.1579853000003,460.1579853000003,460.1579853000003,461.3930466999882,Scenes\180b.jpg,mid,n,1.2205757000047015,None,,,,,,,,00027,001,2026-01-20_20h11.54.094,MST_test,2024.2.0,59.966131129539875,2026-01-20 20h12.03.030514 +0530,
119,0,120,o,1.4617838999984087,None,120,0,119,461.409123999998,,,,,,,,,,,,,,,,,,,,,,,,,,,,,,,,,,,,,,,,,,,,,,,,,,461.39339559999644,461.409123999998,461.9093692999886,461.89252559999295,461.90349419999984,461.9093692999886,461.9093692999886,461.9093692999886,463.3766597999929,Scenes\044a.jpg,mid,o,1.4617838999984087,None,,,,,,,,00027,001,2026-01-20_20h11.54.094,MST_test,2024.2.0,59.966131129539875,2026-01-20 20h12.03.030514 +0530,
120,0,121,n,2.878282500008936,None,121,0,120,463.39208069999586,,,,,,,,,,,,,,,,,,,,,,,,,,,,,,,,,,,,,,,,,,,,,,,,,,463.37704409999424,463.39208069999586,463.8928712999914,463.8762042999879,463.88640309999755,463.8928712999914,463.8928712999914,463.8928712999914,466.7768219999998,Foils\049a.jpg,none,n,2.878282500008936,None,,,,,,,,00027,001,2026-01-20_20h11.54.094,MST_test,2024.2.0,59.966131129539875,2026-01-20 20h12.03.030514 +0530,
121,0,122,o,1.9985335000092164,None,122,0,121,466.79239309999684,,,,,,,,,,,,,,,,,,,,,,,,,,,,,,,,,,,,,,,,,,,,,,,,,,466.77717859999393,466.79239309999684,467.29265649999434,467.27691849999246,467.2854837999912,467.29265649999434,467.29265649999434,467.29265649999434,469.2926957000018,Objects\109a.jpg,mid,o,1.9985335000092164,None,,,,,,,,00027,001,2026-01-20_20h11.54.094,MST_test,2024.2.0,59.966131129539875,2026-01-20 20h12.03.030514 +0530,
122,0,123,o,1.3134718000073917,None,123,0,122,469.3091478999995,,,,,,,,,,,,,,,,,,,,,,,,,,,,,,,,,,,,,,,,,,,,,,,,,,469.2930616999947,469.3091478999995,469.83313199999975,469.79269139999815,469.8308427000011,469.83313199999975,469.83313199999975,469.83313199999975,471.1598507000017,Objects\116b.jpg,mid,o,1.3134718000073917,None,,,,,,,,00027,001,2026-01-20_20h11.54.094,MST_test,2024.2.0,59.966131129539875,2026-01-20 20h12.03.030514 +0530,
123,0,124,s,2.813454200004344,None,124,0,123,471.17580699999235,,,,,,,,,,,,,,,,,,,,,,,,,,,,,,,,,,,,,,,,,,,,,,,,,,471.16023309998855,471.17580699999235,471.70913639999344,471.6594982999959,471.7063777000003,471.70913639999344,471.70913639999344,471.70913639999344,474.5271978999954,Scenes\162b.jpg,post,s,2.813454200004344,None,,,,,,,,00027,001,2026-01-20_20h11.54.094,MST_test,2024.2.0,59.966131129539875,2026-01-20 20h12.03.030514 +0530,
124,0,125,n,1.328137799995602,None,125,0,124,474.54248659999575,,,,,,,,,,,,,,,,,,,,,,,,,,,,,,,,,,,,,,,,,,,,,,,,,,474.52757700000075,474.54248659999575,475.04301509998913,475.0261879999889,475.03580249998777,475.04301509998913,475.04301509998913,475.04301509998913,476.3764594999957,Foils\097a.jpg,none,n,1.328137799995602,None,,,,,,,,00027,001,2026-01-20_20h11.54.094,MST_test,2024.2.0,59.966131129539875,2026-01-20 20h12.03.030514 +0530,
125,0,126,o,3.0279699999955483,None,126,0,125,476.392477699992,,,,,,,,,,,,,,,,,,,,,,,,,,,,,,,,,,,,,,,,,,,,,,,,,,476.3768121999892,476.392477699992,476.89503729999706,476.8761930999899,476.89269239999703,476.89503729999706,476.89503729999706,476.89503729999706,479.926455599998,Scenes\013b.jpg,pre,o,3.0279699999955483,None,,,,,,,,00027,001,2026-01-20_20h11.54.094,MST_test,2024.2.0,59.966131129539875,2026-01-20 20h12.03.030514 +0530,
126,0,127,o,1.4804323999996996,None,127,0,126,479.94248879999213,,,,,,,,,,,,,,,,,,,,,,,,,,,,,,,,,,,,,,,,,,,,,,,,,,479.9268289999891,479.94248879999213,480.4427236999909,480.42595869999786,480.4367649999913,480.4427236999909,480.4427236999909,480.4427236999909,481.92648819999886,Objects\069a.jpg,post,o,1.4804323999996996,None,,,,,,,,00027,001,2026-01-20_20h11.54.094,MST_test,2024.2.0,59.966131129539875,2026-01-20 20h12.03.030514 +0530,
127,0,128,n,1.435128100012662,None,128,0,127,481.9426167999918,,,,,,,,,,,,,,,,,,,,,,,,,,,,,,,,,,,,,,,,,,,,,,,,,,481.9269301999884,481.9426167999918,482.5594124999916,482.4262493999995,482.5568067999993,482.5594124999916,482.5594124999916,482.5594124999916,484.00973109999904,Scenes\002b.jpg,mid,n,1.435128100012662,None,,,,,,,,00027,001,2026-01-20_20h11.54.094,MST_test,2024.2.0,59.966131129539875,2026-01-20 20h12.03.030514 +0530,
128,0,129,o,1.2905782999878284,None,129,0,128,484.0258302000002,,,,,,,,,,,,,,,,,,,,,,,,,,,,,,,,,,,,,,,,,,,,,,,,,,484.01013429999875,484.0258302000002,484.5281103000016,484.50945889999275,484.5255613999907,484.5281103000016,484.5281103000016,484.5281103000016,485.8266127999959,Scenes\077a.jpg,mid,o,1.2905782999878284,None,,,,,,,,00027,001,2026-01-20_20h11.54.094,MST_test,2024.2.0,59.966131129539875,2026-01-20 20h12.03.030514 +0530,
129,0,130,o,2.2044603999966057,None,130,0,129,485.8424459999951,,,,,,,,,,,,,,,,,,,,,,,,,,,,,,,,,,,,,,,,,,,,,,,,,,485.82697069999995,485.8424459999951,486.3427320999908,486.32614900000044,486.3401604999963,486.3427320999908,486.3427320999908,486.3427320999908,488.5597628999967,Scenes\136a.jpg,mid,o,2.2044603999966057,None,,,,,,,,00027,001,2026-01-20_20h11.54.094,MST_test,2024.2.0,59.966131129539875,2026-01-20 20h12.03.030514 +0530,
130,0,131,s,1.1612717999960296,None,131,0,130,488.5757908999949,,,,,,,,,,,,,,,,,,,,,,,,,,,,,,,,,,,,,,,,,,,,,,,,,,488.5602452999883,488.5757908999949,489.0971897999989,489.0592590999877,489.09435899999517,489.0971897999989,489.0971897999989,489.0971897999989,490.25975839998864,Objects\141b.jpg,pre,s,1.1612717999960296,None,,,,,,,,00027,001,2026-01-20_20h11.54.094,MST_test,2024.2.0,59.966131129539875,2026-01-20 20h12.03.030514 +0530,
131,0,132,n,5.129549499994027,None,132,0,131,490.275793599998,,,,,,,,,,,,,,,,,,,,,,,,,,,,,,,,,,,,,,,,,,,,,,,,,,490.26011629999266,490.275793599998,490.78527529998973,490.7594209999952,490.78140949999215,490.78527529998973,490.78527529998973,490.78527529998973,495.9265367999906,Foils\scenes28.jpg,none,n,5.129549499994027,None,,,,,,,,00027,001,2026-01-20_20h11.54.094,MST_test,2024.2.0,59.966131129539875,2026-01-20 20h12.03.030514 +0530,
132,0,133,o,1.5232744999957504,None,133,0,132,495.94306549998873,,,,,,,,,,,,,,,,,,,,,,,,,,,,,,,,,,,,,,,,,,,,,,,,,,495.92702059999283,495.94306549998873,496.44707109998853,496.42624609998893,496.44420230000105,496.44707109998853,496.44707109998853,496.44707109998853,497.9758385999885,Scenes\093a.jpg,pre,o,1.5232744999957504,None,,,,,,,,00027,001,2026-01-20_20h11.54.094,MST_test,2024.2.0,59.966131129539875,2026-01-20 20h12.03.030514 +0530,
133,0,134,o,7.256312800003798,None,134,0,133,497.9919901999965,,,,,,,,,,,,,,,,,,,,,,,,,,,,,,,,,,,,,,,,,,,,,,,,,,497.97595849999925,497.9919901999965,498.4988752999925,498.4761082999903,498.4962012999895,498.4988752999925,498.4988752999925,498.4988752999925,505.7595922999899,Scenes\076a.jpg,mid,o,7.256312800003798,None,,,,,,,,00027,001,2026-01-20_20h11.54.094,MST_test,2024.2.0,59.966131129539875,2026-01-20 20h12.03.030514 +0530,
134,0,135,o,1.2694821000040974,None,135,0,134,505.775802499993,,,,,,,,,,,,,,,,,,,,,,,,,,,,,,,,,,,,,,,,,,,,,,,,,,505.75994979999086,505.775802499993,506.2771536999935,506.2594867000007,506.27321759999904,506.2771536999935,506.2771536999935,506.2771536999935,507.55943869998737,Scenes\091a.jpg,pre,o,1.2694821000040974,None,,,,,,,,00027,001,2026-01-20_20h11.54.094,MST_test,2024.2.0,59.966131129539875,2026-01-20 20h12.03.030514 +0530,
135,0,136,o,1.0946197000012035,None,136,0,135,507.5755743999907,,,,,,,,,,,,,,,,,,,,,,,,,,,,,,,,,,,,,,,,,,,,,,,,,,507.5597942999884,507.5755743999907,,508.05991929999436,508.0811403999978,508.08385549999366,508.08385549999366,508.08385549999366,509.19314619999204,Scenes\176a.jpg,post,o,1.0946197000012035,None,,,,,,,,00027,001,2026-01-20_20h11.54.094,MST_test,2024.2.0,59.966131129539875,2026-01-20 20h12.03.030514 +0530,
136,0,137,s,1.2690369000047212,None,137,0,136,509.2097349999967,,,,,,,,,,,,,,,,,,,,,,,,,,,,,,,,,,,,,,,,,,,,,,,,,,509.19355019999784,509.2097349999967,509.7096622999961,509.69288859999506,509.6996458999929,509.7096622999961,509.7096622999961,509.7096622999961,510.99316949999775,Objects\017b.jpg,mid,s,1.2690369000047212,None,,,,,,,,00027,001,2026-01-20_20h11.54.094,MST_test,2024.2.0,59.966131129539875,2026-01-20 20h12.03.030514 +0530,
137,0,138,s,1.186860699992394,None,138,0,137,511.0091020999971,,,,,,,,,,,,,,,,,,,,,,,,,,,,,,,,,,,,,,,,,,,,,,,,,,510.99357359998976,511.0091020999971,511.5276054999995,511.49285059999966,511.52491870000085,511.5276054999995,511.5276054999995,511.5276054999995,512.726460299993,Objects\137b.jpg,mid,s,1.186860699992394,None,,,,,,,,00027,001,2026-01-20_20h11.54.094,MST_test,2024.2.0,59.966131129539875,2026-01-20 20h12.03.030514 +0530,
138,0,139,s,0.7124135000049137,None,139,0,138,512.7424940999917,,,,,,,,,,,,,,,,,,,,,,,,,,,,,,,,,,,,,,,,,,,,,,,,,,512.7268141999957,512.7424940999917,513.2427093000006,513.2261907999928,513.2350719999959,513.2427093000006,513.2427093000006,513.2427093000006,513.9596963999938,Objects\049b.jpg,post,s,0.7124135000049137,None,,,,,,,,00027,001,2026-01-20_20h11.54.094,MST_test,2024.2.0,59.966131129539875,2026-01-20 20h12.03.030514 +0530,
139,0,140,n,2.4620681000087643,None,140,0,139,513.9754732000001,,,,,,,,,,,,,,,,,,,,,,,,,,,,,,,,,,,,,,,,,,,,,,,,,,513.9600437999907,513.9754732000001,514.4764866999903,514.4590885999933,514.4742310000001,514.4764866999903,514.4764866999903,514.4764866999903,516.9432107999892,Scenes\042a.jpg,mid,n,2.4620681000087643,None,,,,,,,,00027,001,2026-01-20_20h11.54.094,MST_test,2024.2.0,59.966131129539875,2026-01-20 20h12.03.030514 +0530,
140,0,141,o,0.9761574999865843,None,141,0,140,516.9590727999894,,,,,,,,,,,,,,,,,,,,,,,,,,,,,,,,,,,,,,,,,,,,,,,,,,516.9436210999993,516.9590727999894,517.4589967999927,517.4425732999953,517.4526828999951,517.4589967999927,517.4589967999927,517.4589967999927,518.4430149999971,Scenes\039a.jpg,pre,o,0.9761574999865843,None,,,,,,,,00027,001,2026-01-20_20h11.54.094,MST_test,2024.2.0,59.966131129539875,2026-01-20 20h12.03.030514 +0530,
141,0,142,o,2.0108621999970637,None,142,0,141,518.4590551000001,,,,,,,,,,,,,,,,,,,,,,,,,,,,,,,,,,,,,,,,,,,,,,,,,,518.4433657999907,518.4590551000001,518.9595618999883,518.9427864999889,518.9521451999899,518.9595618999883,518.9595618999883,518.9595618999883,520.9764986999944,Objects\153a.jpg,pre,o,2.0108621999970637,None,,,,,,,,00027,001,2026-01-20_20h11.54.094,MST_test,2024.2.0,59.966131129539875,2026-01-20 20h12.03.030514 +0530,
142,0,143,o,1.1338755999895511,None,143,0,142,520.9924890999973,,,,,,,,,,,,,,,,,,,,,,,,,,,,,,,,,,,,,,,,,,,,,,,,,,520.9769100999983,520.9924890999973,521.4926884999877,521.4762199999968,521.4847725,521.4926884999877,521.4926884999877,521.4926884999877,522.6430039999977,Objects\077a.jpg,mid,o,1.1338755999895511,None,,,,,,,,00027,001,2026-01-20_20h11.54.094,MST_test,2024.2.0,59.966131129539875,2026-01-20 20h12.03.030514 +0530,
143,0,144,n,1.2193380999960937,None,144,0,143,522.6590724999987,,,,,,,,,,,,,,,,,,,,,,,,,,,,,,,,,,,,,,,,,,,,,,,,,,522.6433599000011,522.6590724999987,523.1590949999954,523.1428892999975,523.1515445999976,523.1590949999954,523.1590949999954,523.1590949999954,524.3931319999974,Objects\048a.jpg,mid,n,1.2193380999960937,None,,,,,,,,00027,001,2026-01-20_20h11.54.094,MST_test,2024.2.0,59.966131129539875,2026-01-20 20h12.03.030514 +0530,
144,0,145,o,1.7017326999921352,None,145,0,144,524.4090810999915,,,,,,,,,,,,,,,,,,,,,,,,,,,,,,,,,,,,,,,,,,,,,,,,,,524.3934892999969,524.4090810999915,524.908955699997,524.8928756999958,524.8991090999916,524.908955699997,524.908955699997,524.908955699997,526.6261833999888,Objects\162a.jpg,mid,o,1.7017326999921352,None,,,,,,,,00027,001,2026-01-20_20h11.54.094,MST_test,2024.2.0,59.966131129539875,2026-01-20 20h12.03.030514 +0530,
145,0,146,s,1.3715208000066923,None,146,0,145,526.6422863999906,,,,,,,,,,,,,,,,,,,,,,,,,,,,,,,,,,,,,,,,,,,,,,,,,,526.6264851000014,526.6422863999906,527.1429402999929,527.1262042000017,527.137648399992,527.1429402999929,527.1429402999929,527.1429402999929,528.5268519999954,Scenes\113b.jpg,mid,s,1.3715208000066923,None,,,,,,,,00027,001,2026-01-20_20h11.54.094,MST_test,2024.2.0,59.966131129539875,2026-01-20 20h12.03.030514 +0530,
146,0,147,s,1.055281400011154,None,147,0,146,528.5424670999928,,,,,,,,,,,,,,,,,,,,,,,,,,,,,,,,,,,,,,,,,,,,,,,,,,528.5272132999962,528.5424670999928,529.0433426999953,529.0258984999964,529.0406925999996,529.0433426999953,529.0433426999953,529.0433426999953,530.1097134999873,Scenes\144a.jpg,pre,s,1.055281400011154,None,,,,,,,,00027,001,2026-01-20_20h11.54.094,MST_test,2024.2.0,59.966131129539875,2026-01-20 20h12.03.030514 +0530,
147,0,148,o,1.5441972999979043,None,148,0,147,530.125595999998,,,,,,,,,,,,,,,,,,,,,,,,,,,,,,,,,,,,,,,,,,,,,,,,,,530.110070499999,530.125595999998,530.6263394999987,530.6090984999901,530.6158693999896,530.6263394999987,530.6263394999987,530.6263394999987,532.1761373999907,Objects\146a.jpg,post,o,1.5441972999979043,None,,,,,,,,00027,001,2026-01-20_20h11.54.094,MST_test,2024.2.0,59.966131129539875,2026-01-20 20h12.03.030514 +0530,
148,0,149,s,1.1265236999897752,None,149,0,148,532.1922277999984,,,,,,,,,,,,,,,,,,,,,,,,,,,,,,,,,,,,,,,,,,,,,,,,,,532.1764943999879,532.1922277999984,532.6925806999934,532.6760318999877,532.6822854999918,532.6925806999934,532.6925806999934,532.6925806999934,533.8272988999961,Objects\087a.jpg,post,s,1.1265236999897752,None,,,,,,,,00027,001,2026-01-20_20h11.54.094,MST_test,2024.2.0,59.966131129539875,2026-01-20 20h12.03.030514 +0530,
149,0,150,o,0.9958386000071187,None,150,0,149,533.8424575999961,,,,,,,,,,,,,,,,,,,,,,,,,,,,,,,,,,,,,,,,,,,,,,,,,,533.8276556999917,533.8424575999961,534.3426384999912,534.3261851999996,534.3337217999942,534.3426384999912,534.3426384999912,534.3426384999912,535.3428264999966,Objects\050b.jpg,mid,o,0.9958386000071187,None,,,,,,,,00027,001,2026-01-20_20h11.54.094,MST_test,2024.2.0,59.966131129539875,2026-01-20 20h12.03.030514 +0530,
,,,,,,,,,,,,,,,,,,,,,,,,,,,,,,,,,,,,,,,,,,,,,,,,,,,,,,,,,,,,,,,,,,,,,,,,,535.3430565000017,535.359429899996,535.359429899996,547.009601599988,space,11.64366479999444,None,00027,001,2026-01-20_20h11.54.094,MST_test,2024.2.0,59.966131129539875,2026-01-20 20h12.03.030514 +0530,
