thisN,thisTrialN,thisRepN,key_resp_3.keys,key_resp_3.rt,key_resp_3.duration,trials.thisRepN,trials.thisTrialN,trials.thisN,thisRow.t,notes,intro_page.started,text.started,key_resp.started,intro_page.stopped,key_resp.keys,key_resp.rt,key_resp.duration,instructions.started,text_2.started,key_resp_2.started,instructions.stopped,key_resp_2.keys,key_resp_2.rt,key_resp_2.duration,demo1.started,image_1.started,image_2.started,text_7.started,key_resp_6.started,text_9.started,demo1.stopped,key_resp_6.keys,key_resp_6.rt,key_resp_6.duration,demo2.started,image_5.started,image_6.started,text_11.started,text_12.started,key_resp_8.started,demo2.stopped,key_resp_8.keys,key_resp_8.rt,key_resp_8.duration,demo_conclusion.started,text_13.started,key_resp_9.started,demo_conclusion.stopped,key_resp_9.keys,key_resp_9.rt,key_resp_9.duration,start_test.started,text_6.started,key_resp_5.started,start_test.stopped,key_resp_5.keys,key_resp_5.rt,key_resp_5.duration,ISI.started,text_4.started,text_4.stopped,ISI.stopped,routine_1.started,image.started,text_3.started,key_resp_3.started,routine_1.stopped,image_path,position_of_stimuli,trials.key_resp_3.keys,trials.key_resp_3.rt,trials.key_resp_3.duration,End_page.started,text_5.started,key_resp_4.started,participant,session,date,expName,psychopyVersion,frameRate,expStart,
,,,,,,,,,,,0.0013410000246949494,0.003007900028023869,0.003007900028023869,2.425693700031843,space,2.4106799000292085,None,,,,,,,,,,,,,,,,,,,,,,,,,,,,,,,,,,,,,,,,,,,,,,,,,,,,,,,,,,,00021,001,2026-01-20_17h10.36.612,MST_test,2024.2.0,59.86848090937155,2026-01-20 17h10.43.767543 +0530,
,,,,,,,,,,,,,,,,,,2.4257267999928445,2.440558600006625,2.440558600006625,11.60773909999989,space,9.164630499959458,None,,,,,,,,,,,,,,,,,,,,,,,,,,,,,,,,,,,,,,,,,,,,,,,,,,,,00021,001,2026-01-20_17h10.36.612,MST_test,2024.2.0,59.86848090937155,2026-01-20 17h10.43.767543 +0530,
,,,,,,,,,,,,,,,,,,,,,,,,,11.607765900029335,11.624506600026507,11.624506600026507,11.624506600026507,11.624506600026507,11.624506600026507,16.174385800026357,space,4.54135860002134,None,,,,,,,,,,,,,,,,,,,,,,,,,,,,,,,,,,,,,,,,,,00021,001,2026-01-20_17h10.36.612,MST_test,2024.2.0,59.86848090937155,2026-01-20 17h10.43.767543 +0530,
,,,,,,,,,,,,,,,,,,,,,,,,,,,,,,,,,,,16.174415300018154,16.190865500015207,16.190865500015207,16.190865500015207,16.190865500015207,16.190865500015207,18.191476300009526,space,1.9994192000012845,None,,,,,,,,,,,,,,,,,,,,,,,,,,,,,,,,00021,001,2026-01-20_17h10.36.612,MST_test,2024.2.0,59.86848090937155,2026-01-20 17h10.43.767543 +0530,
,,,,,,,,,,,,,,,,,,,,,,,,,,,,,,,,,,,,,,,,,,,,,18.19150900002569,18.207246000005398,18.207246000005398,66.5742379000294,space,48.3587952000089,None,,,,,,,,,,,,,,,,,,,,,,,,,00021,001,2026-01-20_17h10.36.612,MST_test,2024.2.0,59.86848090937155,2026-01-20 17h10.43.767543 +0530,
,,,,,,,,,,,,,,,,,,,,,,,,,,,,,,,,,,,,,,,,,,,,,,,,,,,,66.57426770002348,66.59047510003438,66.59047510003438,78.14119310001843,space,11.535296600020956,None,,,,,,,,,,,,,,,,,,00021,001,2026-01-20_17h10.36.612,MST_test,2024.2.0,59.86848090937155,2026-01-20 17h10.43.767543 +0530,
0,0,1,s,2.5716330999857746,None,1,0,0,78.15708600002108,,,,,,,,,,,,,,,,,,,,,,,,,,,,,,,,,,,,,,,,,,,,,,,,,,78.14493930002209,78.15708600002108,78.65770149999298,78.6407060000347,78.65532310004346,78.65770149999298,78.65770149999298,78.65770149999298,81.24091360002058,Objects\173b.jpg,post,s,2.5716330999857746,None,,,,00021,001,2026-01-20_17h10.36.612,MST_test,2024.2.0,59.86848090937155,2026-01-20 17h10.43.767543 +0530,
1,0,2,s,1.912405100010801,None,2,0,1,81.25711800000863,,,,,,,,,,,,,,,,,,,,,,,,,,,,,,,,,,,,,,,,,,,,,,,,,,81.24100620002719,81.25711800000863,81.75750569999218,81.74068889999762,81.75262550002662,81.75750569999218,81.75750569999218,81.75750569999218,83.67442520003533,Scenes\036b.jpg,post,s,1.912405100010801,None,,,,00021,001,2026-01-20_17h10.36.612,MST_test,2024.2.0,59.86848090937155,2026-01-20 17h10.43.767543 +0530,
2,0,3,s,1.375107100000605,None,3,0,2,83.69043890002649,,,,,,,,,,,,,,,,,,,,,,,,,,,,,,,,,,,,,,,,,,,,,,,,,,83.67452380002942,83.69043890002649,84.19073400000343,84.17389700002968,84.18506089999573,84.19073400000343,84.19073400000343,84.19073400000343,85.57435579999583,Objects\183b.jpg,post,s,1.375107100000605,None,,,,00021,001,2026-01-20_17h10.36.612,MST_test,2024.2.0,59.86848090937155,2026-01-20 17h10.43.767543 +0530,
3,0,4,s,2.266593999986071,None,4,0,3,85.5904365000315,,,,,,,,,,,,,,,,,,,,,,,,,,,,,,,,,,,,,,,,,,,,,,,,,,85.5744529000367,85.5904365000315,86.09068020002451,86.07396850001533,86.08507580001606,86.09068020002451,86.09068020002451,86.09068020002451,88.35818470001686,Objects\014b.jpg,post,s,2.266593999986071,None,,,,00021,001,2026-01-20_17h10.36.612,MST_test,2024.2.0,59.86848090937155,2026-01-20 17h10.43.767543 +0530,
4,0,5,s,0.8679045000462793,None,5,0,4,88.37390790000791,,,,,,,,,,,,,,,,,,,,,,,,,,,,,,,,,,,,,,,,,,,,,,,,,,88.35829649999505,88.37390790000791,88.87384080002084,88.85747039999114,88.85982910002349,88.87384080002084,88.87384080002084,88.87384080002084,89.75767369999085,Objects\177a.jpg,mid,s,0.8679045000462793,None,,,,00021,001,2026-01-20_17h10.36.612,MST_test,2024.2.0,59.86848090937155,2026-01-20 17h10.43.767543 +0530,
5,0,6,n,8.932912999996915,None,6,0,5,89.77379930001916,,,,,,,,,,,,,,,,,,,,,,,,,,,,,,,,,,,,,,,,,,,,,,,,,,89.75776690000203,89.77379930001916,90.27428519999376,90.25735229998827,90.2722603000002,90.27428519999376,90.27428519999376,90.27428519999376,99.20791380002629,Scenes\186b.jpg,pre,n,8.932912999996915,None,,,,00021,001,2026-01-20_17h10.36.612,MST_test,2024.2.0,59.86848090937155,2026-01-20 17h10.43.767543 +0530,
6,0,7,s,1.4574026000336744,None,7,0,6,99.22397460002685,,,,,,,,,,,,,,,,,,,,,,,,,,,,,,,,,,,,,,,,,,,,,,,,,,99.20800790004432,99.22397460002685,99.72437710000668,99.70752430002904,99.71764350001467,99.72437710000668,99.72437710000668,99.72437710000668,101.19106430001557,Objects\169b.jpg,mid,s,1.4574026000336744,None,,,,00021,001,2026-01-20_17h10.36.612,MST_test,2024.2.0,59.86848090937155,2026-01-20 17h10.43.767543 +0530,
7,0,8,n,3.4344211000134237,None,8,0,7,101.20722330000717,,,,,,,,,,,,,,,,,,,,,,,,,,,,,,,,,,,,,,,,,,,,,,,,,,101.19115540001076,101.20722330000717,101.70747720001964,101.69082260003779,101.70007900003111,101.70747720001964,101.70747720001964,101.70747720001964,105.15806899999734,Objects\025b.jpg,mid,n,3.4344211000134237,None,,,,00021,001,2026-01-20_17h10.36.612,MST_test,2024.2.0,59.86848090937155,2026-01-20 17h10.43.767543 +0530,
8,0,9,o,2.8907977000344545,None,9,0,8,105.17395960004069,,,,,,,,,,,,,,,,,,,,,,,,,,,,,,,,,,,,,,,,,,,,,,,,,,105.1581700000097,105.17395960004069,105.6743579999893,105.65749700000742,105.66864270000951,105.6743579999893,105.6743579999893,105.6743579999893,108.57434829999693,Scenes\112b.jpg,mid,o,2.8907977000344545,None,,,,00021,001,2026-01-20_17h10.36.612,MST_test,2024.2.0,59.86848090937155,2026-01-20 17h10.43.767543 +0530,
9,0,10,o,2.2007130999700166,None,10,0,9,108.59058310004184,,,,,,,,,,,,,,,,,,,,,,,,,,,,,,,,,,,,,,,,,,,,,,,,,,108.57444370002486,108.59058310004184,109.09349840000505,109.07434230000945,109.09134750004159,109.09349840000505,109.09349840000505,109.09349840000505,111.30776699999114,Scenes\109b.jpg,pre,o,2.2007130999700166,None,,,,00021,001,2026-01-20_17h10.36.612,MST_test,2024.2.0,59.86848090937155,2026-01-20 17h10.43.767543 +0530,
10,0,11,o,2.030120400013402,None,11,0,10,111.32388330000686,,,,,,,,,,,,,,,,,,,,,,,,,,,,,,,,,,,,,,,,,,,,,,,,,,111.30786010000156,111.32388330000686,111.82423730002483,111.80761399999028,111.81826670002192,111.82423730002483,111.82423730002483,111.82423730002483,113.85778389999177,Foils\066a.jpg,none,o,2.030120400013402,None,,,,00021,001,2026-01-20_17h10.36.612,MST_test,2024.2.0,59.86848090937155,2026-01-20 17h10.43.767543 +0530,
11,0,12,o,1.047669899999164,None,12,0,11,113.87387850001687,,,,,,,,,,,,,,,,,,,,,,,,,,,,,,,,,,,,,,,,,,,,,,,,,,113.85787649999838,113.87387850001687,114.3741192999878,114.35753490001662,114.36224250000669,114.3741192999878,114.3741192999878,114.3741192999878,115.42432950000511,Scenes\096a.jpg,pre,o,1.047669899999164,None,,,,00021,001,2026-01-20_17h10.36.612,MST_test,2024.2.0,59.86848090937155,2026-01-20 17h10.43.767543 +0530,
12,0,13,o,1.21627959999023,None,13,0,12,115.44055850000586,,,,,,,,,,,,,,,,,,,,,,,,,,,,,,,,,,,,,,,,,,,,,,,,,,115.42442240001401,115.44055850000586,115.94094790000236,115.92405820003478,115.92693990003318,115.94094790000236,115.94094790000236,115.94094790000236,117.15822909999406,Objects\119a.jpg,mid,o,1.21627959999023,None,,,,00021,001,2026-01-20_17h10.36.612,MST_test,2024.2.0,59.86848090937155,2026-01-20 17h10.43.767543 +0530,
13,0,14,s,2.019209799997043,None,14,0,13,117.17394150001928,,,,,,,,,,,,,,,,,,,,,,,,,,,,,,,,,,,,,,,,,,,,,,,,,,117.15832480002427,117.17394150001928,117.67399600002682,117.65759670000989,117.66747350001242,117.67399600002682,117.67399600002682,117.67399600002682,119.70803350000642,Objects\026b.jpg,post,s,2.019209799997043,None,,,,00021,001,2026-01-20_17h10.36.612,MST_test,2024.2.0,59.86848090937155,2026-01-20 17h10.43.767543 +0530,
14,0,15,s,4.093560999957845,None,15,0,14,119.72384089999832,,,,,,,,,,,,,,,,,,,,,,,,,,,,,,,,,,,,,,,,,,,,,,,,,,119.70813400001498,119.72384089999832,120.22418070002459,120.20757490000688,120.20994590001646,120.22418070002459,120.22418070002459,120.22418070002459,124.3242912000278,Objects\005a.jpg,mid,s,4.093560999957845,None,,,,00021,001,2026-01-20_17h10.36.612,MST_test,2024.2.0,59.86848090937155,2026-01-20 17h10.43.767543 +0530,
15,0,16,s,2.2374005000456236,None,16,0,15,124.34057500003837,,,,,,,,,,,,,,,,,,,,,,,,,,,,,,,,,,,,,,,,,,,,,,,,,,124.32438290002756,124.34057500003837,124.84064920002129,124.82395240000915,124.82654440001352,124.84064920002129,124.84064920002129,124.84064920002129,127.09119750000536,Objects\077a.jpg,pre,s,2.2374005000456236,None,,,,00021,001,2026-01-20_17h10.36.612,MST_test,2024.2.0,59.86848090937155,2026-01-20 17h10.43.767543 +0530,
16,0,17,n,1.677856799971778,None,17,0,16,127.10727850004332,,,,,,,,,,,,,,,,,,,,,,,,,,,,,,,,,,,,,,,,,,,,,,,,,,127.09129589999793,127.10727850004332,127.6073039000039,127.59073689999059,127.60035240004072,127.6073039000039,127.6073039000039,127.6073039000039,129.29122370004188,Foils\026a.jpg,none,n,1.677856799971778,None,,,,00021,001,2026-01-20_17h10.36.612,MST_test,2024.2.0,59.86848090937155,2026-01-20 17h10.43.767543 +0530,
17,0,18,o,1.4395519000245258,None,18,0,17,129.30721470003482,,,,,,,,,,,,,,,,,,,,,,,,,,,,,,,,,,,,,,,,,,,,,,,,,,129.29131510003936,129.30721470003482,129.81385020003654,129.7908022000338,129.81173330004094,129.81385020003654,129.81385020003654,129.81385020003654,131.25784929998918,Scenes\034b.jpg,mid,o,1.4395519000245258,None,,,,00021,001,2026-01-20_17h10.36.612,MST_test,2024.2.0,59.86848090937155,2026-01-20 17h10.43.767543 +0530,
18,0,19,s,4.392186100012623,None,19,0,18,131.273922900029,,,,,,,,,,,,,,,,,,,,,,,,,,,,,,,,,,,,,,,,,,,,,,,,,,131.25794139999198,131.273922900029,131.7742362000281,131.75761010003043,131.7674740999937,131.7742362000281,131.7742362000281,131.7742362000281,136.1744545000256,Objects\062b.jpg,pre,s,4.392186100012623,None,,,,00021,001,2026-01-20_17h10.36.612,MST_test,2024.2.0,59.86848090937155,2026-01-20 17h10.43.767543 +0530,
19,0,20,o,1.363197400001809,None,20,0,19,136.19054400001187,,,,,,,,,,,,,,,,,,,,,,,,,,,,,,,,,,,,,,,,,,,,,,,,,,136.17454279999947,136.19054400001187,136.69080430001486,136.6740325000137,136.67684890003875,136.69080430001486,136.69080430001486,136.69080430001486,138.05791160004446,Objects\063a.jpg,pre,o,1.363197400001809,None,,,,00021,001,2026-01-20_17h10.36.612,MST_test,2024.2.0,59.86848090937155,2026-01-20 17h10.43.767543 +0530,
20,0,21,o,2.7968649999820627,None,21,0,20,138.07373070000904,,,,,,,,,,,,,,,,,,,,,,,,,,,,,,,,,,,,,,,,,,,,,,,,,,138.058011599991,138.07373070000904,138.57648530002916,138.55748320004204,138.57427159999497,138.57648530002916,138.57648530002916,138.57648530002916,141.3745620000409,Scenes\070b.jpg,pre,o,2.7968649999820627,None,,,,00021,001,2026-01-20_17h10.36.612,MST_test,2024.2.0,59.86848090937155,2026-01-20 17h10.43.767543 +0530,
21,0,22,o,2.1159554999903776,None,22,0,21,141.39049970003543,,,,,,,,,,,,,,,,,,,,,,,,,,,,,,,,,,,,,,,,,,,,,,,,,,141.37465519999387,141.39049970003543,141.89097020000918,141.8740342000383,141.8845281000249,141.89097020000918,141.89097020000918,141.89097020000918,144.0085111000226,Objects\145b.jpg,mid,o,2.1159554999903776,None,,,,00021,001,2026-01-20_17h10.36.612,MST_test,2024.2.0,59.86848090937155,2026-01-20 17h10.43.767543 +0530,
22,0,23,o,1.585002199979499,None,23,0,22,144.02382240002044,,,,,,,,,,,,,,,,,,,,,,,,,,,,,,,,,,,,,,,,,,,,,,,,,,144.00860390003072,144.02382240002044,144.5241554999957,144.50746900000377,144.51761859998805,144.5241554999957,144.5241554999957,144.5241554999957,146.12441930000205,Foils\086a.jpg,none,o,1.585002199979499,None,,,,00021,001,2026-01-20_17h10.36.612,MST_test,2024.2.0,59.86848090937155,2026-01-20 17h10.43.767543 +0530,
23,0,24,o,2.005123700015247,None,24,0,23,146.14042519999202,,,,,,,,,,,,,,,,,,,,,,,,,,,,,,,,,,,,,,,,,,,,,,,,,,146.12451580003835,146.14042519999202,146.64066400000593,146.62396400002763,146.62628710002173,146.64066400000593,146.64066400000593,146.64066400000593,148.6578572000144,Objects\049a.jpg,mid,o,2.005123700015247,None,,,,00021,001,2026-01-20_17h10.36.612,MST_test,2024.2.0,59.86848090937155,2026-01-20 17h10.43.767543 +0530,
24,0,25,s,2.9802650999627076,None,25,0,24,148.67366430000402,,,,,,,,,,,,,,,,,,,,,,,,,,,,,,,,,,,,,,,,,,,,,,,,,,148.65795459999936,148.67366430000402,149.17739810002968,149.15745729999617,149.17530629999237,149.17739810002968,149.17739810002968,149.17739810002968,152.17601500003366,Scenes\063b.jpg,mid,s,2.9802650999627076,None,,,,00021,001,2026-01-20_17h10.36.612,MST_test,2024.2.0,59.86848090937155,2026-01-20 17h10.43.767543 +0530,
25,0,26,n,2.642380899982527,None,26,0,25,152.19042990001617,,,,,,,,,,,,,,,,,,,,,,,,,,,,,,,,,,,,,,,,,,,,,,,,,,152.1761075000395,152.19042990001617,152.6909936000011,152.6740879000281,152.68360839999514,152.6909936000011,152.6909936000011,152.6909936000011,155.34112410002854,Foils\scenes2.jpg,none,n,2.642380899982527,None,,,,00021,001,2026-01-20_17h10.36.612,MST_test,2024.2.0,59.86848090937155,2026-01-20 17h10.43.767543 +0530,
26,0,27,o,1.2366023000213318,None,27,0,26,155.3573352000094,,,,,,,,,,,,,,,,,,,,,,,,,,,,,,,,,,,,,,,,,,,,,,,,,,155.34122080000816,155.3573352000094,155.85749030002626,155.8407568000257,155.84381980000762,155.85749030002626,155.85749030002626,155.85749030002626,157.10765359998913,Objects\109a.jpg,pre,o,1.2366023000213318,None,,,,00021,001,2026-01-20_17h10.36.612,MST_test,2024.2.0,59.86848090937155,2026-01-20 17h10.43.767543 +0530,
27,0,28,n,1.3177951999823563,None,28,0,27,157.1237373999902,,,,,,,,,,,,,,,,,,,,,,,,,,,,,,,,,,,,,,,,,,,,,,,,,,157.10774519998813,157.1237373999902,157.62397220003186,157.60741320002126,157.617164700001,157.62397220003186,157.62397220003186,157.62397220003186,158.9578474999871,Foils\034a.jpg,none,n,1.3177951999823563,None,,,,00021,001,2026-01-20_17h10.36.612,MST_test,2024.2.0,59.86848090937155,2026-01-20 17h10.43.767543 +0530,
28,0,29,n,0.9439565999782644,None,29,0,28,158.97366870002588,,,,,,,,,,,,,,,,,,,,,,,,,,,,,,,,,,,,,,,,,,,,,,,,,,158.9579435000196,158.97366870002588,159.53417840000475,159.4577505000052,159.53114269999787,159.53417840000475,159.53417840000475,159.53417840000475,160.49111030000495,Foils\scenes25.jpg,none,n,0.9439565999782644,None,,,,00021,001,2026-01-20_17h10.36.612,MST_test,2024.2.0,59.86848090937155,2026-01-20 17h10.43.767543 +0530,
29,0,30,n,1.2146298000006936,None,30,0,29,160.5069745000219,,,,,,,,,,,,,,,,,,,,,,,,,,,,,,,,,,,,,,,,,,,,,,,,,,160.49120240000775,160.5069745000219,161.00726079999004,160.99086090002675,161.00248650001595,161.00726079999004,161.00726079999004,161.00726079999004,162.22444010002073,Objects\102a.jpg,post,n,1.2146298000006936,None,,,,00021,001,2026-01-20_17h10.36.612,MST_test,2024.2.0,59.86848090937155,2026-01-20 17h10.43.767543 +0530,
30,0,31,o,2.4492931000422686,None,31,0,30,162.24047610000707,,,,,,,,,,,,,,,,,,,,,,,,,,,,,,,,,,,,,,,,,,,,,,,,,,162.22453260002658,162.24047610000707,162.74101200001314,162.7240368000348,162.73376890004147,162.74101200001314,162.74101200001314,162.74101200001314,165.19108760001836,Scenes\158a.jpg,pre,o,2.4492931000422686,None,,,,00021,001,2026-01-20_17h10.36.612,MST_test,2024.2.0,59.86848090937155,2026-01-20 17h10.43.767543 +0530,
31,0,32,s,1.7781951000215486,None,32,0,31,165.20703779999167,,,,,,,,,,,,,,,,,,,,,,,,,,,,,,,,,,,,,,,,,,,,,,,,,,165.1911804000265,165.20703779999167,165.707550799998,165.69065609999234,165.69493290001992,165.707550799998,165.707550799998,165.707550799998,167.49108390003676,Scenes\037a.jpg,mid,s,1.7781951000215486,None,,,,00021,001,2026-01-20_17h10.36.612,MST_test,2024.2.0,59.86848090937155,2026-01-20 17h10.43.767543 +0530,
32,0,33,o,1.608935299969744,None,33,0,32,167.50703280000016,,,,,,,,,,,,,,,,,,,,,,,,,,,,,,,,,,,,,,,,,,,,,,,,,,167.49117630004184,167.50703280000016,168.0126916000154,167.9906428999966,168.01061420002952,168.0126916000154,168.0126916000154,168.0126916000154,169.62460290000308,Scenes\023b.jpg,mid,o,1.608935299969744,None,,,,00021,001,2026-01-20_17h10.36.612,MST_test,2024.2.0,59.86848090937155,2026-01-20 17h10.43.767543 +0530,
33,0,34,s,1.7939781000022776,None,34,0,33,169.6404447000241,,,,,,,,,,,,,,,,,,,,,,,,,,,,,,,,,,,,,,,,,,,,,,,,,,169.62470829999074,169.6404447000241,170.14109749998897,170.1240584999905,170.1272478000028,170.14109749998897,170.14109749998897,170.14109749998897,171.94121770001948,Objects\154a.jpg,mid,s,1.7939781000022776,None,,,,00021,001,2026-01-20_17h10.36.612,MST_test,2024.2.0,59.86848090937155,2026-01-20 17h10.43.767543 +0530,
34,0,35,s,0.8199263000278734,None,35,0,34,171.9569782000035,,,,,,,,,,,,,,,,,,,,,,,,,,,,,,,,,,,,,,,,,,,,,,,,,,171.9413118000375,171.9569782000035,172.45730569999432,172.44073870003922,172.4498889000388,172.45730569999432,172.45730569999432,172.45730569999432,173.29107830004068,Objects\016b.jpg,pre,s,0.8199263000278734,None,,,,00021,001,2026-01-20_17h10.36.612,MST_test,2024.2.0,59.86848090937155,2026-01-20 17h10.43.767543 +0530,
35,0,36,o,4.053845499991439,None,36,0,35,173.30697420000797,,,,,,,,,,,,,,,,,,,,,,,,,,,,,,,,,,,,,,,,,,,,,,,,,,173.2912063000258,173.30697420000797,173.80751680000685,173.79085430002306,173.79614370001946,173.80751680000685,173.80751680000685,173.80751680000685,177.87465370004065,Scenes\061a.jpg,post,o,4.053845499991439,None,,,,00021,001,2026-01-20_17h10.36.612,MST_test,2024.2.0,59.86848090937155,2026-01-20 17h10.43.767543 +0530,
36,0,37,s,2.7423442999715917,None,37,0,36,177.8913903000066,,,,,,,,,,,,,,,,,,,,,,,,,,,,,,,,,,,,,,,,,,,,,,,,,,177.8747469999944,177.8913903000066,178.39093930000672,178.37399990000995,178.37954340002034,178.39093930000672,178.39093930000672,178.39093930000672,181.14098940003896,Scenes\118a.jpg,mid,s,2.7423442999715917,None,,,,00021,001,2026-01-20_17h10.36.612,MST_test,2024.2.0,59.86848090937155,2026-01-20 17h10.43.767543 +0530,
37,0,38,s,1.5890837999759242,None,38,0,37,181.15708590002032,,,,,,,,,,,,,,,,,,,,,,,,,,,,,,,,,,,,,,,,,,,,,,,,,,181.14108180004405,181.15708590002032,181.6574324000394,181.64069160004146,181.6454849000438,181.6574324000394,181.6574324000394,181.6574324000394,183.2576099000289,Scenes\147a.jpg,pre,s,1.5890837999759242,None,,,,00021,001,2026-01-20_17h10.36.612,MST_test,2024.2.0,59.86848090937155,2026-01-20 17h10.43.767543 +0530,
38,0,39,o,1.4145745999994688,None,39,0,38,183.2738046000013,,,,,,,,,,,,,,,,,,,,,,,,,,,,,,,,,,,,,,,,,,,,,,,,,,183.25770250003552,183.2738046000013,183.77473860001191,183.757252600044,183.7683634000132,183.77473860001191,183.77473860001191,183.77473860001191,185.1911025000154,Scenes\015a.jpg,mid,o,1.4145745999994688,None,,,,00021,001,2026-01-20_17h10.36.612,MST_test,2024.2.0,59.86848090937155,2026-01-20 17h10.43.767543 +0530,
39,0,40,s,1.3135899999761023,None,40,0,39,185.20703759999014,,,,,,,,,,,,,,,,,,,,,,,,,,,,,,,,,,,,,,,,,,,,,,,,,,185.19120579998707,185.20703759999014,185.70767490001163,185.6907193000079,185.70122410001932,185.70767490001163,185.70767490001163,185.70767490001163,187.02442460000748,Foils\020b.jpg,none,s,1.3135899999761023,None,,,,00021,001,2026-01-20_17h10.36.612,MST_test,2024.2.0,59.86848090937155,2026-01-20 17h10.43.767543 +0530,
40,0,41,o,3.1371706999489106,None,41,0,40,187.0405235000071,,,,,,,,,,,,,,,,,,,,,,,,,,,,,,,,,,,,,,,,,,,,,,,,,,187.02451710001333,187.0405235000071,187.54082950000884,187.52414300001692,187.5342990999925,187.54082950000884,187.54082950000884,187.54082950000884,190.6910668000346,Foils\scenes3.jpg,none,o,3.1371706999489106,None,,,,00021,001,2026-01-20_17h10.36.612,MST_test,2024.2.0,59.86848090937155,2026-01-20 17h10.43.767543 +0530,
41,0,42,s,1.8463980000233278,None,42,0,41,190.70701610000106,,,,,,,,,,,,,,,,,,,,,,,,,,,,,,,,,,,,,,,,,,,,,,,,,,190.69116139999824,190.70701610000106,191.20731329999398,191.19074150000233,191.200800599996,191.20731329999398,191.20731329999398,191.20731329999398,193.0576176000177,Objects\103b.jpg,mid,s,1.8463980000233278,None,,,,00021,001,2026-01-20_17h10.36.612,MST_test,2024.2.0,59.86848090937155,2026-01-20 17h10.43.767543 +0530,
42,0,43,s,2.5915216999710537,None,43,0,42,193.0738159000175,,,,,,,,,,,,,,,,,,,,,,,,,,,,,,,,,,,,,,,,,,,,,,,,,,193.05771449999884,193.0738159000175,193.57410239998717,193.55776240001433,193.5678598000086,193.57410239998717,193.57410239998717,193.57410239998717,196.1743381000124,Objects\018b.jpg,pre,s,2.5915216999710537,None,,,,00021,001,2026-01-20_17h10.36.612,MST_test,2024.2.0,59.86848090937155,2026-01-20 17h10.43.767543 +0530,
43,0,44,o,1.8422789999749511,None,44,0,43,196.19047269999282,,,,,,,,,,,,,,,,,,,,,,,,,,,,,,,,,,,,,,,,,,,,,,,,,,196.1744345999905,196.19047269999282,196.6910179000115,196.67421550001018,196.68008780002128,196.6910179000115,196.6910179000115,196.6910179000115,198.54112750000786,Scenes\039a.jpg,pre,o,1.8422789999749511,None,,,,00021,001,2026-01-20_17h10.36.612,MST_test,2024.2.0,59.86848090937155,2026-01-20 17h10.43.767543 +0530,
44,0,45,o,1.188338600040879,None,45,0,44,198.5571704999893,,,,,,,,,,,,,,,,,,,,,,,,,,,,,,,,,,,,,,,,,,,,,,,,,,198.5412256999989,198.5571704999893,199.0575847,199.04084080003668,199.0441157000023,199.0575847,199.0575847,199.0575847,200.2575297000003,Objects\078a.jpg,mid,o,1.188338600040879,None,,,,00021,001,2026-01-20_17h10.36.612,MST_test,2024.2.0,59.86848090937155,2026-01-20 17h10.43.767543 +0530,
45,0,46,o,1.879451800021343,None,46,0,45,200.2738282000064,,,,,,,,,,,,,,,,,,,,,,,,,,,,,,,,,,,,,,,,,,,,,,,,,,200.25761979998788,200.2738282000064,200.77427100000205,200.75742530002026,200.76723990001483,200.77427100000205,200.77427100000205,200.77427100000205,202.65783300000476,Objects\091b.jpg,pre,o,1.879451800021343,None,,,,00021,001,2026-01-20_17h10.36.612,MST_test,2024.2.0,59.86848090937155,2026-01-20 17h10.43.767543 +0530,
46,0,47,s,4.048033400031272,None,47,0,46,202.67381840001326,,,,,,,,,,,,,,,,,,,,,,,,,,,,,,,,,,,,,,,,,,,,,,,,,,202.65793149999809,202.67381840001326,203.17441530001815,203.15732340002432,203.1722568999976,203.17441530001815,203.17441530001815,203.17441530001815,207.2243644000264,Scenes\131b.jpg,pre,s,4.048033400031272,None,,,,00021,001,2026-01-20_17h10.36.612,MST_test,2024.2.0,59.86848090937155,2026-01-20 17h10.43.767543 +0530,
47,0,48,s,2.8082423000014387,None,48,0,47,207.24049110000487,,,,,,,,,,,,,,,,,,,,,,,,,,,,,,,,,,,,,,,,,,,,,,,,,,207.22445989999687,207.24049110000487,207.74099280004157,207.72406430001138,207.7356667999993,207.74099280004157,207.74099280004157,207.74099280004157,210.55757940001786,Objects\128b.jpg,mid,s,2.8082423000014387,None,,,,00021,001,2026-01-20_17h10.36.612,MST_test,2024.2.0,59.86848090937155,2026-01-20 17h10.43.767543 +0530,
48,0,49,n,1.1308278000215068,None,49,0,48,210.57381430000532,,,,,,,,,,,,,,,,,,,,,,,,,,,,,,,,,,,,,,,,,,,,,,,,,,210.55767470004503,210.57381430000532,211.07445950002875,211.05728170002112,211.06920140003785,211.07445950002875,211.07445950002875,211.07445950002875,212.20771769998828,Objects\051b.jpg,pre,n,1.1308278000215068,None,,,,00021,001,2026-01-20_17h10.36.612,MST_test,2024.2.0,59.86848090937155,2026-01-20 17h10.43.767543 +0530,
49,0,50,s,2.2303430000320077,None,50,0,49,212.22381960001076,,,,,,,,,,,,,,,,,,,,,,,,,,,,,,,,,,,,,,,,,,,,,,,,,,212.20781250001164,212.22381960001076,212.72735800000373,212.70715610001935,212.7251457000384,212.72735800000373,212.72735800000373,212.72735800000373,214.9743962000357,Scenes\031b.jpg,pre,s,2.2303430000320077,None,,,,00021,001,2026-01-20_17h10.36.612,MST_test,2024.2.0,59.86848090937155,2026-01-20 17h10.43.767543 +0530,
50,0,51,s,1.6023036999977194,None,51,0,50,214.99060010001995,,,,,,,,,,,,,,,,,,,,,,,,,,,,,,,,,,,,,,,,,,,,,,,,,,214.97448590002023,214.99060010001995,215.49109820002923,215.4741454999894,215.48300190002192,215.49109820002923,215.49109820002923,215.49109820002923,217.1078598999884,Foils\scenes5.jpg,none,s,1.6023036999977194,None,,,,00021,001,2026-01-20_17h10.36.612,MST_test,2024.2.0,59.86848090937155,2026-01-20 17h10.43.767543 +0530,
51,0,52,o,3.1015239999978803,None,52,0,51,217.12383060000138,,,,,,,,,,,,,,,,,,,,,,,,,,,,,,,,,,,,,,,,,,,,,,,,,,217.10795520001557,217.12383060000138,217.62422470003366,217.60740650002845,217.61805900000036,217.62422470003366,217.62422470003366,217.62422470003366,220.7411543999915,Objects\130b.jpg,post,o,3.1015239999978803,None,,,,00021,001,2026-01-20_17h10.36.612,MST_test,2024.2.0,59.86848090937155,2026-01-20 17h10.43.767543 +0530,
52,0,53,o,1.4274279999663122,None,53,0,52,220.75725840002997,,,,,,,,,,,,,,,,,,,,,,,,,,,,,,,,,,,,,,,,,,,,,,,,,,220.7412494000164,220.75725840002997,221.2577626000275,221.24088980001397,221.2491620000219,221.2577626000275,221.2577626000275,221.2577626000275,222.69115870003588,Scenes\187a.jpg,mid,o,1.4274279999663122,None,,,,00021,001,2026-01-20_17h10.36.612,MST_test,2024.2.0,59.86848090937155,2026-01-20 17h10.43.767543 +0530,
53,0,54,o,1.0380798000260256,None,54,0,53,222.7071666000411,,,,,,,,,,,,,,,,,,,,,,,,,,,,,,,,,,,,,,,,,,,,,,,,,,222.69125299999723,222.7071666000411,223.20771720004268,223.19086930004414,223.2013372000074,223.20771720004268,223.20771720004268,223.20771720004268,224.25772590003908,Objects\101b.jpg,mid,o,1.0380798000260256,None,,,,00021,001,2026-01-20_17h10.36.612,MST_test,2024.2.0,59.86848090937155,2026-01-20 17h10.43.767543 +0530,
54,0,55,o,0.63968769996427,None,55,0,54,224.27385360002518,,,,,,,,,,,,,,,,,,,,,,,,,,,,,,,,,,,,,,,,,,,,,,,,,,224.2578244000324,224.27385360002518,224.77405470004305,224.7577833000105,224.76030150003498,224.77405470004305,224.77405470004305,224.77405470004305,225.42429140000604,Objects\064a.jpg,mid,o,0.63968769996427,None,,,,00021,001,2026-01-20_17h10.36.612,MST_test,2024.2.0,59.86848090937155,2026-01-20 17h10.43.767543 +0530,
55,0,56,s,1.6565890000201762,None,56,0,55,225.44052830000874,,,,,,,,,,,,,,,,,,,,,,,,,,,,,,,,,,,,,,,,,,,,,,,,,,225.42438510002103,225.44052830000874,225.94086380000226,225.9242288999958,225.93387840001378,225.94086380000226,225.94086380000226,225.94086380000226,227.60756870004116,Objects\017b.jpg,post,s,1.6565890000201762,None,,,,00021,001,2026-01-20_17h10.36.612,MST_test,2024.2.0,59.86848090937155,2026-01-20 17h10.43.767543 +0530,
56,0,57,n,0.8582545999670401,None,57,0,56,227.62388400000054,,,,,,,,,,,,,,,,,,,,,,,,,,,,,,,,,,,,,,,,,,,,,,,,,,227.60766290000174,227.62388400000054,228.12417820002884,228.10755449999124,228.11720340000466,228.12417820002884,228.12417820002884,228.12417820002884,228.9913155999966,Foils\098a.jpg,none,n,0.8582545999670401,None,,,,00021,001,2026-01-20_17h10.36.612,MST_test,2024.2.0,59.86848090937155,2026-01-20 17h10.43.767543 +0530,
57,0,58,s,2.0896579999825917,None,58,0,57,229.00728449999588,,,,,,,,,,,,,,,,,,,,,,,,,,,,,,,,,,,,,,,,,,,,,,,,,,228.99141900002724,229.00728449999588,229.50748279999243,229.4908077000291,229.50012450001668,229.50748279999243,229.50748279999243,229.50748279999243,231.60781479999423,Foils\018a.jpg,none,s,2.0896579999825917,None,,,,00021,001,2026-01-20_17h10.36.612,MST_test,2024.2.0,59.86848090937155,2026-01-20 17h10.43.767543 +0530,
58,0,59,o,1.2575943000265397,None,59,0,58,231.62393270002212,,,,,,,,,,,,,,,,,,,,,,,,,,,,,,,,,,,,,,,,,,,,,,,,,,231.60790629999246,231.62393270002212,232.12442880001618,232.10742040001787,232.1179889999912,232.12442880001618,232.12442880001618,232.12442880001618,233.39120509999339,Scenes\087b.jpg,post,o,1.2575943000265397,None,,,,00021,001,2026-01-20_17h10.36.612,MST_test,2024.2.0,59.86848090937155,2026-01-20 17h10.43.767543 +0530,
59,0,60,n,1.0016570999869145,None,60,0,59,233.40714810002828,,,,,,,,,,,,,,,,,,,,,,,,,,,,,,,,,,,,,,,,,,,,,,,,,,233.3912963999901,233.40714810002828,233.9076153000351,233.8910796000273,233.90131029998884,233.9076153000351,233.9076153000351,233.9076153000351,234.92438839998795,Foils\093b.jpg,none,n,1.0016570999869145,None,,,,00021,001,2026-01-20_17h10.36.612,MST_test,2024.2.0,59.86848090937155,2026-01-20 17h10.43.767543 +0530,
60,0,61,o,1.1569106999668293,None,61,0,60,234.94054320000578,,,,,,,,,,,,,,,,,,,,,,,,,,,,,,,,,,,,,,,,,,,,,,,,,,234.92448210000293,234.94054320000578,235.441015599994,235.42415350000374,235.43308660003822,235.441015599994,235.441015599994,235.441015599994,236.60790500004077,Scenes\119a.jpg,mid,o,1.1569106999668293,None,,,,00021,001,2026-01-20_17h10.36.612,MST_test,2024.2.0,59.86848090937155,2026-01-20 17h10.43.767543 +0530,
61,0,62,n,1.919730800029356,None,62,0,61,236.62392149999505,,,,,,,,,,,,,,,,,,,,,,,,,,,,,,,,,,,,,,,,,,,,,,,,,,236.60800000000745,236.62392149999505,237.1267001000233,237.1075655000168,237.12419960001716,237.1267001000233,237.1267001000233,237.1267001000233,239.0578088000184,Scenes\100b.jpg,mid,n,1.919730800029356,None,,,,00021,001,2026-01-20_17h10.36.612,MST_test,2024.2.0,59.86848090937155,2026-01-20 17h10.43.767543 +0530,
62,0,63,s,1.422993799962569,None,63,0,62,239.07394180004485,,,,,,,,,,,,,,,,,,,,,,,,,,,,,,,,,,,,,,,,,,,,,,,,,,239.05789980001282,239.07394180004485,239.57460360002005,239.55751479999162,239.56733799999347,239.57460360002005,239.57460360002005,239.57460360002005,241.0078322000336,Scenes\128a.jpg,post,s,1.422993799962569,None,,,,00021,001,2026-01-20_17h10.36.612,MST_test,2024.2.0,59.86848090937155,2026-01-20 17h10.43.767543 +0530,
63,0,64,s,1.8255819999612868,None,64,0,63,241.02397560002282,,,,,,,,,,,,,,,,,,,,,,,,,,,,,,,,,,,,,,,,,,,,,,,,,,241.0079243000364,241.02397560002282,241.5244716000161,241.50748740002746,241.51748750003753,241.5244716000161,241.5244716000161,241.5244716000161,243.35780390002765,Objects\125b.jpg,mid,s,1.8255819999612868,None,,,,00021,001,2026-01-20_17h10.36.612,MST_test,2024.2.0,59.86848090937155,2026-01-20 17h10.43.767543 +0530,
64,0,65,s,2.0160734999808483,None,65,0,64,243.3740262000356,,,,,,,,,,,,,,,,,,,,,,,,,,,,,,,,,,,,,,,,,,,,,,,,,,243.3579023000202,243.3740262000356,243.90150720003294,243.85764140001265,243.89878440002212,243.90150720003294,243.90150720003294,243.90150720003294,245.92440389998956,Foils\scenes15.jpg,none,s,2.0160734999808483,None,,,,00021,001,2026-01-20_17h10.36.612,MST_test,2024.2.0,59.86848090937155,2026-01-20 17h10.43.767543 +0530,
65,0,66,n,1.8994741000351496,None,66,0,65,245.94058689998928,,,,,,,,,,,,,,,,,,,,,,,,,,,,,,,,,,,,,,,,,,,,,,,,,,245.92450100003043,245.94058689998928,246.44180010003038,246.42401070002234,246.43480859999545,246.44180010003038,246.44180010003038,246.44180010003038,248.3575269000139,Foils\049a.jpg,none,n,1.8994741000351496,None,,,,00021,001,2026-01-20_17h10.36.612,MST_test,2024.2.0,59.86848090937155,2026-01-20 17h10.43.767543 +0530,
66,0,67,o,3.0440460999961942,None,67,0,66,248.37380090000806,,,,,,,,,,,,,,,,,,,,,,,,,,,,,,,,,,,,,,,,,,,,,,,,,,248.35762820002856,248.37380090000806,248.87407439999515,248.8573566999985,248.85993959999178,248.87407439999515,248.87407439999515,248.87407439999515,251.9244385000202,Objects\112a.jpg,post,o,3.0440460999961942,None,,,,00021,001,2026-01-20_17h10.36.612,MST_test,2024.2.0,59.86848090937155,2026-01-20 17h10.43.767543 +0530,
67,0,68,s,2.012493199959863,None,68,0,67,251.9404712000396,,,,,,,,,,,,,,,,,,,,,,,,,,,,,,,,,,,,,,,,,,,,,,,,,,251.92453250003746,251.9404712000396,252.4407393000438,252.42410900001414,252.43360570003279,252.4407393000438,252.4407393000438,252.4407393000438,254.45768630004022,Objects\150b.jpg,post,s,2.012493199959863,None,,,,00021,001,2026-01-20_17h10.36.612,MST_test,2024.2.0,59.86848090937155,2026-01-20 17h10.43.767543 +0530,
68,0,69,n,3.2075508999987505,None,69,0,68,254.47379890002776,,,,,,,,,,,,,,,,,,,,,,,,,,,,,,,,,,,,,,,,,,,,,,,,,,254.45778110000538,254.47379890002776,254.97400260000722,254.95728370000143,254.96675540000433,254.97400260000722,254.97400260000722,254.97400260000722,258.19102420000127,Foils\074a.jpg,none,n,3.2075508999987505,None,,,,00021,001,2026-01-20_17h10.36.612,MST_test,2024.2.0,59.86848090937155,2026-01-20 17h10.43.767543 +0530,
69,0,70,o,1.0185158000094816,None,70,0,69,258.207132200012,,,,,,,,,,,,,,,,,,,,,,,,,,,,,,,,,,,,,,,,,,,,,,,,,,258.1911143999896,258.207132200012,258.7072488000267,258.69096400000853,258.6937855000142,258.7072488000267,258.7072488000267,258.7072488000267,259.7410421000095,Objects\181a.jpg,mid,o,1.0185158000094816,None,,,,00021,001,2026-01-20_17h10.36.612,MST_test,2024.2.0,59.86848090937155,2026-01-20 17h10.43.767543 +0530,
70,0,71,o,0.843855999992229,None,71,0,70,259.7570849999902,,,,,,,,,,,,,,,,,,,,,,,,,,,,,,,,,,,,,,,,,,,,,,,,,,259.7411371000344,259.7570849999902,260.25739710003836,260.2407699000323,260.2502352000447,260.25739710003836,260.25739710003836,260.25739710003836,261.10779040004127,Objects\146b.jpg,pre,o,0.843855999992229,None,,,,00021,001,2026-01-20_17h10.36.612,MST_test,2024.2.0,59.86848090937155,2026-01-20 17h10.43.767543 +0530,
71,0,72,n,1.4994444000185467,None,72,0,71,261.1238699000096,,,,,,,,,,,,,,,,,,,,,,,,,,,,,,,,,,,,,,,,,,,,,,,,,,261.1078848000034,261.1238699000096,261.63395230000606,261.60731079999823,261.63156320003327,261.63395230000606,261.63395230000606,261.63395230000606,263.1411900999956,Foils\scenes23.jpg,none,n,1.4994444000185467,None,,,,00021,001,2026-01-20_17h10.36.612,MST_test,2024.2.0,59.86848090937155,2026-01-20 17h10.43.767543 +0530,
72,0,73,s,3.123651800036896,None,73,0,72,263.15721159998793,,,,,,,,,,,,,,,,,,,,,,,,,,,,,,,,,,,,,,,,,,,,,,,,,,263.1412943000323,263.15721159998793,263.65777610003715,263.64077619998716,263.6510105000343,263.65777610003715,263.65777610003715,263.65777610003715,266.7910995000275,Objects\143b.jpg,mid,s,3.123651800036896,None,,,,00021,001,2026-01-20_17h10.36.612,MST_test,2024.2.0,59.86848090937155,2026-01-20 17h10.43.767543 +0530,
73,0,74,o,3.0179911000304855,None,74,0,73,266.80700710002566,,,,,,,,,,,,,,,,,,,,,,,,,,,,,,,,,,,,,,,,,,,,,,,,,,266.79119509999873,266.80700710002566,267.307399500045,267.2909196999972,267.30216369999107,267.307399500045,267.307399500045,267.307399500045,270.34107800002676,Foils\058a.jpg,none,o,3.0179911000304855,None,,,,00021,001,2026-01-20_17h10.36.612,MST_test,2024.2.0,59.86848090937155,2026-01-20 17h10.43.767543 +0530,
74,0,75,s,10.964042800012976,None,75,0,74,270.3570344999898,,,,,,,,,,,,,,,,,,,,,,,,,,,,,,,,,,,,,,,,,,,,,,,,,,270.34117780003,270.3570344999898,270.85756219999166,270.84069040004397,270.8507649000385,270.85756219999166,270.85756219999166,270.85756219999166,281.82438700000057,Scenes\062a.jpg,mid,s,10.964042800012976,None,,,,00021,001,2026-01-20_17h10.36.612,MST_test,2024.2.0,59.86848090937155,2026-01-20 17h10.43.767543 +0530,
75,0,76,n,1.2323222999693826,None,76,0,75,281.84049299999606,,,,,,,,,,,,,,,,,,,,,,,,,,,,,,,,,,,,,,,,,,,,,,,,,,281.8244782999973,281.84049299999606,282.34093180001946,282.32411129999673,282.3332649000222,282.34093180001946,282.34093180001946,282.34093180001946,283.5744040000136,Foils\scenes18.jpg,none,n,1.2323222999693826,None,,,,00021,001,2026-01-20_17h10.36.612,MST_test,2024.2.0,59.86848090937155,2026-01-20 17h10.43.767543 +0530,
76,0,77,n,0.8715393000165932,None,77,0,76,283.590517500008,,,,,,,,,,,,,,,,,,,,,,,,,,,,,,,,,,,,,,,,,,,,,,,,,,283.57449810003163,283.590517500008,284.0939663000172,284.07409730000654,284.0919782000128,284.0939663000172,284.0939663000172,284.0939663000172,284.9744001000072,Foils\scenes22.jpg,none,n,0.8715393000165932,None,,,,00021,001,2026-01-20_17h10.36.612,MST_test,2024.2.0,59.86848090937155,2026-01-20 17h10.43.767543 +0530,
77,0,78,n,1.6266620000242256,None,78,0,77,284.99043970002094,,,,,,,,,,,,,,,,,,,,,,,,,,,,,,,,,,,,,,,,,,,,,,,,,,284.9745000000112,284.99043970002094,285.49109090003185,285.4741536999936,285.47766169998795,285.49109090003185,285.49109090003185,285.49109090003185,287.1245193000068,Objects\036a.jpg,pre,n,1.6266620000242256,None,,,,00021,001,2026-01-20_17h10.36.612,MST_test,2024.2.0,59.86848090937155,2026-01-20 17h10.43.767543 +0530,
78,0,79,o,1.364892600046005,None,79,0,78,287.1405280000181,,,,,,,,,,,,,,,,,,,,,,,,,,,,,,,,,,,,,,,,,,,,,,,,,,287.12462010001764,287.1405280000181,287.6409219999914,287.62413549999474,287.6310932000051,287.6409219999914,287.6409219999914,287.6409219999914,289.00757590000285,Scenes\188a.jpg,mid,o,1.364892600046005,None,,,,00021,001,2026-01-20_17h10.36.612,MST_test,2024.2.0,59.86848090937155,2026-01-20 17h10.43.767543 +0530,
79,0,80,o,0.793217700032983,None,80,0,79,289.02386040001875,,,,,,,,,,,,,,,,,,,,,,,,,,,,,,,,,,,,,,,,,,,,,,,,,,289.007669100014,289.02386040001875,289.52440910000587,289.50739300000714,289.5177073000232,289.52440910000587,289.52440910000587,289.52440910000587,290.3244466999895,Scenes\001a.jpg,mid,o,0.793217700032983,None,,,,00021,001,2026-01-20_17h10.36.612,MST_test,2024.2.0,59.86848090937155,2026-01-20 17h10.43.767543 +0530,
80,0,81,s,2.750418499985244,None,81,0,80,290.340486400004,,,,,,,,,,,,,,,,,,,,,,,,,,,,,,,,,,,,,,,,,,,,,,,,,,290.32454510004027,290.340486400004,290.84793920000084,290.82408719998784,290.8455013000057,290.84793920000084,290.84793920000084,290.84793920000084,293.60787480004365,Scenes\170b.jpg,post,s,2.750418499985244,None,,,,00021,001,2026-01-20_17h10.36.612,MST_test,2024.2.0,59.86848090937155,2026-01-20 17h10.43.767543 +0530,
81,0,82,o,1.9967583999969065,None,82,0,81,293.6238326000166,,,,,,,,,,,,,,,,,,,,,,,,,,,,,,,,,,,,,,,,,,,,,,,,,,293.6079744999879,293.6238326000166,294.1288829999976,294.107381800015,294.12645060004434,294.1288829999976,294.1288829999976,294.1288829999976,296.14126569998916,Scenes\045b.jpg,pre,o,1.9967583999969065,None,,,,00021,001,2026-01-20_17h10.36.612,MST_test,2024.2.0,59.86848090937155,2026-01-20 17h10.43.767543 +0530,
82,0,83,n,1.5689289000001736,None,83,0,82,296.15720590000274,,,,,,,,,,,,,,,,,,,,,,,,,,,,,,,,,,,,,,,,,,,,,,,,,,296.1413675000076,296.15720590000274,296.66084510000655,296.6407623999985,296.65846950002015,296.66084510000655,296.66084510000655,296.66084510000655,298.2413035000209,Scenes\133b.jpg,post,n,1.5689289000001736,None,,,,00021,001,2026-01-20_17h10.36.612,MST_test,2024.2.0,59.86848090937155,2026-01-20 17h10.43.767543 +0530,
83,0,84,o,1.53685500001302,None,84,0,83,298.25708280003164,,,,,,,,,,,,,,,,,,,,,,,,,,,,,,,,,,,,,,,,,,,,,,,,,,298.2414048000355,298.25708280003164,298.7575286999927,298.7407079000259,298.7437517000362,298.7575286999927,298.7575286999927,298.7575286999927,300.3076890000375,Objects\029a.jpg,pre,o,1.53685500001302,None,,,,00021,001,2026-01-20_17h10.36.612,MST_test,2024.2.0,59.86848090937155,2026-01-20 17h10.43.767543 +0530,
84,0,85,s,2.002276899991557,None,85,0,84,300.3238108000369,,,,,,,,,,,,,,,,,,,,,,,,,,,,,,,,,,,,,,,,,,,,,,,,,,300.3077816000441,300.3238108000369,300.82777590001933,300.80751469999086,300.82566309999675,300.82777590001933,300.82777590001933,300.82777590001933,302.8412786000408,Scenes\060b.jpg,pre,s,2.002276899991557,None,,,,00021,001,2026-01-20_17h10.36.612,MST_test,2024.2.0,59.86848090937155,2026-01-20 17h10.43.767543 +0530,
85,0,86,o,0.9528383000288159,None,86,0,85,302.85704090003856,,,,,,,,,,,,,,,,,,,,,,,,,,,,,,,,,,,,,,,,,,,,,,,,,,302.8413720999961,302.85704090003856,303.3575800000108,303.34090830001514,303.34373070002766,303.3575800000108,303.3575800000108,303.3575800000108,304.3245352000231,Objects\106a.jpg,mid,o,0.9528383000288159,None,,,,00021,001,2026-01-20_17h10.36.612,MST_test,2024.2.0,59.86848090937155,2026-01-20 17h10.43.767543 +0530,
86,0,87,s,4.05304490000708,None,87,0,86,304.3404684000416,,,,,,,,,,,,,,,,,,,,,,,,,,,,,,,,,,,,,,,,,,,,,,,,,,304.3246258000145,304.3404684000416,304.84082550002495,304.8242280000122,304.83308360003866,304.84082550002495,304.84082550002495,304.84082550002495,308.9076639999985,Objects\073b.jpg,pre,s,4.05304490000708,None,,,,00021,001,2026-01-20_17h10.36.612,MST_test,2024.2.0,59.86848090937155,2026-01-20 17h10.43.767543 +0530,
87,0,88,s,2.852512899960857,None,88,0,87,308.92389010003535,,,,,,,,,,,,,,,,,,,,,,,,,,,,,,,,,,,,,,,,,,,,,,,,,,308.9077587000211,308.92389010003535,309.4248354000156,309.40729669999564,309.4226528000436,309.4248354000156,309.4248354000156,309.4248354000156,312.29125040001236,Scenes\027b.jpg,pre,s,2.852512899960857,None,,,,00021,001,2026-01-20_17h10.36.612,MST_test,2024.2.0,59.86848090937155,2026-01-20 17h10.43.767543 +0530,
88,0,89,s,0.8379183000070043,None,89,0,88,312.3072663000203,,,,,,,,,,,,,,,,,,,,,,,,,,,,,,,,,,,,,,,,,,,,,,,,,,312.2914135000319,312.3072663000203,312.8075791000156,312.7906981999986,312.7969593000016,312.8075791000156,312.8075791000156,312.8075791000156,313.6579579000245,Scenes\137a.jpg,mid,s,0.8379183000070043,None,,,,00021,001,2026-01-20_17h10.36.612,MST_test,2024.2.0,59.86848090937155,2026-01-20 17h10.43.767543 +0530,
89,0,90,n,1.8950807999935932,None,90,0,89,313.67378040001495,,,,,,,,,,,,,,,,,,,,,,,,,,,,,,,,,,,,,,,,,,,,,,,,,,313.65805289999116,313.67378040001495,314.17432710004505,314.15742500004126,314.166626500024,314.17432710004505,314.17432710004505,314.17432710004505,316.0746170000057,Objects\152b.jpg,mid,n,1.8950807999935932,None,,,,00021,001,2026-01-20_17h10.36.612,MST_test,2024.2.0,59.86848090937155,2026-01-20 17h10.43.767543 +0530,
90,0,91,o,1.567241400014609,None,91,0,90,316.09052100003464,,,,,,,,,,,,,,,,,,,,,,,,,,,,,,,,,,,,,,,,,,,,,,,,,,316.07471770001575,316.09052100003464,316.5910823000013,316.5747890000348,316.5828005000367,316.5910823000013,316.5910823000013,316.5910823000013,318.17446370003745,Scenes\126a.jpg,post,o,1.567241400014609,None,,,,00021,001,2026-01-20_17h10.36.612,MST_test,2024.2.0,59.86848090937155,2026-01-20 17h10.43.767543 +0530,
91,0,92,o,9.663842100009788,None,92,0,91,318.1904440000071,,,,,,,,,,,,,,,,,,,,,,,,,,,,,,,,,,,,,,,,,,,,,,,,,,318.17455430002883,318.1904440000071,318.6950747999945,318.674126500031,318.69296419998864,318.6950747999945,318.6950747999945,318.6950747999945,328.3746861999971,Scenes\189b.jpg,mid,o,9.663842100009788,None,,,,00021,001,2026-01-20_17h10.36.612,MST_test,2024.2.0,59.86848090937155,2026-01-20 17h10.43.767543 +0530,
92,0,93,o,0.9626634000451304,None,93,0,92,328.39070200000424,,,,,,,,,,,,,,,,,,,,,,,,,,,,,,,,,,,,,,,,,,,,,,,,,,328.3747873000102,328.39070200000424,328.89078449999215,328.87408580002375,328.8842188999988,328.89078449999215,328.89078449999215,328.89078449999215,329.85787890001666,Scenes\086a.jpg,pre,o,0.9626634000451304,None,,,,00021,001,2026-01-20_17h10.36.612,MST_test,2024.2.0,59.86848090937155,2026-01-20 17h10.43.767543 +0530,
93,0,94,o,1.7990342000266537,None,94,0,93,329.8739368999959,,,,,,,,,,,,,,,,,,,,,,,,,,,,,,,,,,,,,,,,,,,,,,,,,,329.8579759999993,329.8739368999959,330.37432689999696,330.3574147000327,330.36872600001516,330.37432689999696,330.37432689999696,330.37432689999696,332.1744352999958,Objects\087b.jpg,pre,o,1.7990342000266537,None,,,,00021,001,2026-01-20_17h10.36.612,MST_test,2024.2.0,59.86848090937155,2026-01-20 17h10.43.767543 +0530,
94,0,95,n,1.4344123000046238,None,95,0,94,332.1904966000002,,,,,,,,,,,,,,,,,,,,,,,,,,,,,,,,,,,,,,,,,,,,,,,,,,332.174524400034,332.1904966000002,332.6909091999987,332.6741447999957,332.6883336000028,332.6909091999987,332.6909091999987,332.6909091999987,334.1411019000225,Scenes\185b.jpg,mid,n,1.4344123000046238,None,,,,00021,001,2026-01-20_17h10.36.612,MST_test,2024.2.0,59.86848090937155,2026-01-20 17h10.43.767543 +0530,
95,0,96,n,0.7176244999864139,None,96,0,95,334.15702580002835,,,,,,,,,,,,,,,,,,,,,,,,,,,,,,,,,,,,,,,,,,,,,,,,,,334.14120370004093,334.15702580002835,334.65760790003696,334.6407717000111,334.6504925999907,334.65760790003696,334.65760790003696,334.65760790003696,335.3912014000234,Foils\106a.jpg,none,n,0.7176244999864139,None,,,,00021,001,2026-01-20_17h10.36.612,MST_test,2024.2.0,59.86848090937155,2026-01-20 17h10.43.767543 +0530,
96,0,97,n,0.6944934999919496,None,97,0,96,335.40723820001585,,,,,,,,,,,,,,,,,,,,,,,,,,,,,,,,,,,,,,,,,,,,,,,,,,335.39129679999314,335.40723820001585,335.9115524000372,335.89080799999647,335.9094838000019,335.9115524000372,335.9115524000372,335.9115524000372,336.60775840003043,Scenes\012b.jpg,post,n,0.6944934999919496,None,,,,00021,001,2026-01-20_17h10.36.612,MST_test,2024.2.0,59.86848090937155,2026-01-20 17h10.43.767543 +0530,
97,0,98,n,1.048969900002703,None,98,0,97,336.6239759000018,,,,,,,,,,,,,,,,,,,,,,,,,,,,,,,,,,,,,,,,,,,,,,,,,,336.6078478000127,336.6239759000018,337.124431400036,337.1074087000452,337.11740370001644,337.124431400036,337.124431400036,337.124431400036,338.1745957999956,Objects\058b.jpg,post,n,1.048969900002703,None,,,,00021,001,2026-01-20_17h10.36.612,MST_test,2024.2.0,59.86848090937155,2026-01-20 17h10.43.767543 +0530,
98,0,99,o,0.9308979999623261,None,99,0,98,338.1905465000309,,,,,,,,,,,,,,,,,,,,,,,,,,,,,,,,,,,,,,,,,,,,,,,,,,338.1746864000452,338.1905465000309,338.69095210003434,338.67446519999066,338.67713170003844,338.69095210003434,338.69095210003434,338.69095210003434,339.62481390003813,Objects\007a.jpg,mid,o,0.9308979999623261,None,,,,00021,001,2026-01-20_17h10.36.612,MST_test,2024.2.0,59.86848090937155,2026-01-20 17h10.43.767543 +0530,
99,0,100,s,1.3093902000109665,None,100,0,99,339.64067870000144,,,,,,,,,,,,,,,,,,,,,,,,,,,,,,,,,,,,,,,,,,,,,,,,,,339.624918800022,339.64067870000144,340.1440733000054,340.1242153000203,340.14194960001623,340.1440733000054,340.1440733000054,340.1440733000054,341.4578442000202,Scenes\165b.jpg,mid,s,1.3093902000109665,None,,,,00021,001,2026-01-20_17h10.36.612,MST_test,2024.2.0,59.86848090937155,2026-01-20 17h10.43.767543 +0530,
100,0,101,o,1.51141610002378,None,101,0,100,341.4740430000238,,,,,,,,,,,,,,,,,,,,,,,,,,,,,,,,,,,,,,,,,,,,,,,,,,341.4579366000253,341.4740430000238,341.9743773000082,341.9575441000052,341.9674388000276,341.9743773000082,341.9743773000082,341.9743773000082,343.4912405000068,Foils\009a.jpg,none,o,1.51141610002378,None,,,,00021,001,2026-01-20_17h10.36.612,MST_test,2024.2.0,59.86848090937155,2026-01-20 17h10.43.767543 +0530,
101,0,102,o,1.0538015000056475,None,102,0,101,343.5072896000347,,,,,,,,,,,,,,,,,,,,,,,,,,,,,,,,,,,,,,,,,,,,,,,,,,343.4913361000363,343.5072896000347,344.00790060003055,343.99077030003536,344.0004719000426,344.00790060003055,344.00790060003055,344.00790060003055,345.07447190000676,Scenes\068a.jpg,post,o,1.0538015000056475,None,,,,00021,001,2026-01-20_17h10.36.612,MST_test,2024.2.0,59.86848090937155,2026-01-20 17h10.43.767543 +0530,
102,0,103,o,2.2947922000312246,None,103,0,102,345.09064410004066,,,,,,,,,,,,,,,,,,,,,,,,,,,,,,,,,,,,,,,,,,,,,,,,,,345.0745623999974,345.09064410004066,345.59070440003416,345.5741986000212,345.5842788000009,345.59070440003416,345.59070440003416,345.59070440003416,347.8914713000413,Foils\scenes13.jpg,none,o,2.2947922000312246,None,,,,00021,001,2026-01-20_17h10.36.612,MST_test,2024.2.0,59.86848090937155,2026-01-20 17h10.43.767543 +0530,
103,0,104,o,0.7978450999944471,None,104,0,103,347.9070662999875,,,,,,,,,,,,,,,,,,,,,,,,,,,,,,,,,,,,,,,,,,,,,,,,,,347.8915718999924,347.9070662999875,348.40754169999855,348.3910931000137,348.3944749000366,348.40754169999855,348.40754169999855,348.40754169999855,349.2079520000261,Objects\118a.jpg,post,o,0.7978450999944471,None,,,,00021,001,2026-01-20_17h10.36.612,MST_test,2024.2.0,59.86848090937155,2026-01-20 17h10.43.767543 +0530,
104,0,105,s,1.2503273999900557,None,105,0,104,349.223975800036,,,,,,,,,,,,,,,,,,,,,,,,,,,,,,,,,,,,,,,,,,,,,,,,,,349.20804560004035,349.223975800036,349.7245623000199,349.7075244000298,349.7196660999907,349.7245623000199,349.7245623000199,349.7245623000199,350.9913127000327,Scenes\179b.jpg,mid,s,1.2503273999900557,None,,,,00021,001,2026-01-20_17h10.36.612,MST_test,2024.2.0,59.86848090937155,2026-01-20 17h10.43.767543 +0530,
105,0,106,o,1.1294032000005245,None,106,0,105,351.0072160999989,,,,,,,,,,,,,,,,,,,,,,,,,,,,,,,,,,,,,,,,,,,,,,,,,,350.9914073999971,351.0072160999989,351.5078296000138,351.49089810001897,351.49769769998966,351.5078296000138,351.5078296000138,351.5078296000138,352.641799700039,Scenes\136a.jpg,post,o,1.1294032000005245,None,,,,00021,001,2026-01-20_17h10.36.612,MST_test,2024.2.0,59.86848090937155,2026-01-20 17h10.43.767543 +0530,
106,0,107,o,2.1992840000311844,None,107,0,106,352.65731939999387,,,,,,,,,,,,,,,,,,,,,,,,,,,,,,,,,,,,,,,,,,,,,,,,,,352.64189369999804,352.65731939999387,353.15785680001136,353.1408900000388,353.15100439998787,353.15785680001136,353.15785680001136,353.15785680001136,355.3579037000309,Scenes\093a.jpg,pre,o,2.1992840000311844,None,,,,00021,001,2026-01-20_17h10.36.612,MST_test,2024.2.0,59.86848090937155,2026-01-20 17h10.43.767543 +0530,
107,0,108,o,1.0428408000152558,None,108,0,107,355.3739811000414,,,,,,,,,,,,,,,,,,,,,,,,,,,,,,,,,,,,,,,,,,,,,,,,,,355.35800720000407,355.3739811000414,355.8744116000016,355.8576374000404,355.86073399998713,355.8744116000016,355.8744116000016,355.8744116000016,356.9245639000437,Objects\041a.jpg,post,o,1.0428408000152558,None,,,,00021,001,2026-01-20_17h10.36.612,MST_test,2024.2.0,59.86848090937155,2026-01-20 17h10.43.767543 +0530,
108,0,109,o,2.044114599993918,None,109,0,108,356.9406992000295,,,,,,,,,,,,,,,,,,,,,,,,,,,,,,,,,,,,,,,,,,,,,,,,,,356.92465390003053,356.9406992000295,357.44111740001244,357.42427610000595,357.43137300002854,357.44111740001244,357.44111740001244,357.44111740001244,359.4912362000323,Scenes\156a.jpg,post,o,2.044114599993918,None,,,,00021,001,2026-01-20_17h10.36.612,MST_test,2024.2.0,59.86848090937155,2026-01-20 17h10.43.767543 +0530,
109,0,110,o,2.005823399988003,None,110,0,109,359.5072022000095,,,,,,,,,,,,,,,,,,,,,,,,,,,,,,,,,,,,,,,,,,,,,,,,,,359.4913291000412,359.5072022000095,360.0079005000298,359.9908056000131,359.9980295000132,360.0079005000298,360.0079005000298,360.0079005000298,362.0244597000419,Scenes\067a.jpg,pre,o,2.005823399988003,None,,,,00021,001,2026-01-20_17h10.36.612,MST_test,2024.2.0,59.86848090937155,2026-01-20 17h10.43.767543 +0530,
110,0,111,s,1.1927175000309944,None,111,0,110,362.04066290002083,,,,,,,,,,,,,,,,,,,,,,,,,,,,,,,,,,,,,,,,,,,,,,,,,,362.0245518999873,362.04066290002083,362.54109600000083,362.5241348000127,362.5345612000092,362.54109600000083,362.54109600000083,362.54109600000083,363.74127540003974,Objects\159b.jpg,post,s,1.1927175000309944,None,,,,00021,001,2026-01-20_17h10.36.612,MST_test,2024.2.0,59.86848090937155,2026-01-20 17h10.43.767543 +0530,
111,0,112,o,1.1323612000560388,None,112,0,111,363.75733990001027,,,,,,,,,,,,,,,,,,,,,,,,,,,,,,,,,,,,,,,,,,,,,,,,,,363.74137060000794,363.75733990001027,364.25762190000387,364.2409270000062,364.2474428000278,364.25762190000387,364.25762190000387,364.25762190000387,365.39126619999297,Scenes\182a.jpg,post,o,1.1323612000560388,None,,,,00021,001,2026-01-20_17h10.36.612,MST_test,2024.2.0,59.86848090937155,2026-01-20 17h10.43.767543 +0530,
112,0,113,n,1.0017527000163682,None,113,0,112,365.40752330003306,,,,,,,,,,,,,,,,,,,,,,,,,,,,,,,,,,,,,,,,,,,,,,,,,,365.3913611000171,365.40752330003306,365.9076018999913,365.890875400044,365.8936126999906,365.9076018999913,365.9076018999913,365.9076018999913,366.92448720004177,Objects\021a.jpg,post,n,1.0017527000163682,None,,,,00021,001,2026-01-20_17h10.36.612,MST_test,2024.2.0,59.86848090937155,2026-01-20 17h10.43.767543 +0530,
113,0,114,o,2.116931700031273,None,114,0,113,366.94048580003437,,,,,,,,,,,,,,,,,,,,,,,,,,,,,,,,,,,,,,,,,,,,,,,,,,366.9245949999895,366.94048580003437,367.44099989999086,367.42428800003836,367.42749979998916,367.44099989999086,367.44099989999086,367.44099989999086,369.57457719999366,Foils\scenes8.jpg,none,o,2.116931700031273,None,,,,00021,001,2026-01-20_17h10.36.612,MST_test,2024.2.0,59.86848090937155,2026-01-20 17h10.43.767543 +0530,
114,0,115,s,0.7708350000320934,None,115,0,114,369.5905335000134,,,,,,,,,,,,,,,,,,,,,,,,,,,,,,,,,,,,,,,,,,,,,,,,,,369.57485020003514,369.5905335000134,370.09094190003816,370.0742320000427,370.08468180004274,370.09094190003816,370.09094190003816,370.09094190003816,370.8744402999873,Objects\055b.jpg,post,s,0.7708350000320934,None,,,,00021,001,2026-01-20_17h10.36.612,MST_test,2024.2.0,59.86848090937155,2026-01-20 17h10.43.767543 +0530,
115,0,116,o,1.6625257999985479,None,116,0,115,370.89065330004087,,,,,,,,,,,,,,,,,,,,,,,,,,,,,,,,,,,,,,,,,,,,,,,,,,370.8745350000099,370.89065330004087,371.39083650003886,371.3741490000393,371.37658280000323,371.39083650003886,371.39083650003886,371.39083650003886,373.0578905000002,Objects\137a.jpg,post,o,1.6625257999985479,None,,,,00021,001,2026-01-20_17h10.36.612,MST_test,2024.2.0,59.86848090937155,2026-01-20 17h10.43.767543 +0530,
116,0,117,o,0.9439450000063516,None,117,0,116,373.0739613000187,,,,,,,,,,,,,,,,,,,,,,,,,,,,,,,,,,,,,,,,,,,,,,,,,,373.05797920003533,373.0739613000187,373.5741748000146,373.55748550000135,373.5668882000027,373.5741748000146,373.5741748000146,373.5741748000146,374.5246843000059,Objects\083b.jpg,pre,o,0.9439450000063516,None,,,,00021,001,2026-01-20_17h10.36.612,MST_test,2024.2.0,59.86848090937155,2026-01-20 17h10.43.767543 +0530,
117,0,118,o,2.484402299975045,None,118,0,117,374.5406192000373,,,,,,,,,,,,,,,,,,,,,,,,,,,,,,,,,,,,,,,,,,,,,,,,,,374.5247914000065,374.5406192000373,375.0409298000159,375.02419650001684,375.0336554000387,375.0409298000159,375.0409298000159,375.0409298000159,377.54124450002564,Objects\149b.jpg,pre,o,2.484402299975045,None,,,,00021,001,2026-01-20_17h10.36.612,MST_test,2024.2.0,59.86848090937155,2026-01-20 17h10.43.767543 +0530,
118,0,119,o,5.076200100011192,None,119,0,118,377.5572108000051,,,,,,,,,,,,,,,,,,,,,,,,,,,,,,,,,,,,,,,,,,,,,,,,,,377.54133710003225,377.5572108000051,378.057730600005,378.0411029999959,378.05253680003807,378.057730600005,378.057730600005,378.057730600005,383.14136720000533,Scenes\059a.jpg,post,o,5.076200100011192,None,,,,00021,001,2026-01-20_17h10.36.612,MST_test,2024.2.0,59.86848090937155,2026-01-20 17h10.43.767543 +0530,
119,0,120,s,1.8520237000193447,None,120,0,119,383.157110500033,,,,,,,,,,,,,,,,,,,,,,,,,,,,,,,,,,,,,,,,,,,,,,,,,,383.1414730999968,383.157110500033,383.6576365000219,383.64081320003606,383.64389180002036,383.6576365000219,383.6576365000219,383.6576365000219,385.52443320001476,Objects\121a.jpg,post,s,1.8520237000193447,None,,,,00021,001,2026-01-20_17h10.36.612,MST_test,2024.2.0,59.86848090937155,2026-01-20 17h10.43.767543 +0530,
120,0,121,o,1.084702699969057,None,121,0,120,385.54052620002767,,,,,,,,,,,,,,,,,,,,,,,,,,,,,,,,,,,,,,,,,,,,,,,,,,385.52452660002746,385.54052620002767,386.041074400011,386.02427510003326,386.0332274000393,386.041074400011,386.041074400011,386.041074400011,387.14117780001834,Foils\scenes6.jpg,none,o,1.084702699969057,None,,,,00021,001,2026-01-20_17h10.36.612,MST_test,2024.2.0,59.86848090937155,2026-01-20 17h10.43.767543 +0530,
121,0,122,s,2.388951500004623,None,122,0,121,387.1573100000387,,,,,,,,,,,,,,,,,,,,,,,,,,,,,,,,,,,,,,,,,,,,,,,,,,387.1412711000303,387.1573100000387,387.6575607000268,387.6408542999998,387.6532995000016,387.6575607000268,387.6575607000268,387.6575607000268,390.0579071000102,Objects\045b.jpg,post,s,2.388951500004623,None,,,,00021,001,2026-01-20_17h10.36.612,MST_test,2024.2.0,59.86848090937155,2026-01-20 17h10.43.767543 +0530,
122,0,123,o,1.0069127000169829,None,123,0,122,390.0739265999873,,,,,,,,,,,,,,,,,,,,,,,,,,,,,,,,,,,,,,,,,,,,,,,,,,390.0580069000134,390.0739265999873,390.5743940999964,390.5575852000038,390.5614188000327,390.5743940999964,390.5743940999964,390.5743940999964,391.59114159998717,Scenes\016a.jpg,post,o,1.0069127000169829,None,,,,00021,001,2026-01-20_17h10.36.612,MST_test,2024.2.0,59.86848090937155,2026-01-20 17h10.43.767543 +0530,
123,0,124,o,1.6015637000091374,None,124,0,123,391.6072909000213,,,,,,,,,,,,,,,,,,,,,,,,,,,,,,,,,,,,,,,,,,,,,,,,,,391.59123429999454,391.6072909000213,392.1076444000355,392.09080659999745,392.09985040000174,392.1076444000355,392.1076444000355,392.1076444000355,393.7245310000144,Foils\scenes29.jpg,none,o,1.6015637000091374,None,,,,00021,001,2026-01-20_17h10.36.612,MST_test,2024.2.0,59.86848090937155,2026-01-20 17h10.43.767543 +0530,
124,0,125,n,2.7252252000034787,None,125,0,124,393.74065310001606,,,,,,,,,,,,,,,,,,,,,,,,,,,,,,,,,,,,,,,,,,,,,,,,,,393.7246191999875,393.74065310001606,394.2480574999936,394.2242867000168,394.2459284000215,394.2480574999936,394.2480574999936,394.2480574999936,396.9747595000081,Foils\scenes28.jpg,none,n,2.7252252000034787,None,,,,00021,001,2026-01-20_17h10.36.612,MST_test,2024.2.0,59.86848090937155,2026-01-20 17h10.43.767543 +0530,
125,0,126,o,1.5430874999728985,None,126,0,125,396.99057500000345,,,,,,,,,,,,,,,,,,,,,,,,,,,,,,,,,,,,,,,,,,,,,,,,,,396.97486050002044,396.99057500000345,397.4947475999943,397.47413970000343,397.4921575000044,397.4947475999943,397.4947475999943,397.4947475999943,399.0412798000034,Scenes\011b.jpg,post,o,1.5430874999728985,None,,,,00021,001,2026-01-20_17h10.36.612,MST_test,2024.2.0,59.86848090937155,2026-01-20 17h10.43.767543 +0530,
126,0,127,o,1.2488016999559477,None,127,0,126,399.0574054000317,,,,,,,,,,,,,,,,,,,,,,,,,,,,,,,,,,,,,,,,,,,,,,,,,,399.0413700999925,399.0574054000317,399.5576880000299,399.54071740002837,399.5439533999888,399.5576880000299,399.5576880000299,399.5576880000299,400.80785600002855,Objects\160a.jpg,post,o,1.2488016999559477,None,,,,00021,001,2026-01-20_17h10.36.612,MST_test,2024.2.0,59.86848090937155,2026-01-20 17h10.43.767543 +0530,
127,0,128,n,1.904839400027413,None,128,0,127,400.82387220003875,,,,,,,,,,,,,,,,,,,,,,,,,,,,,,,,,,,,,,,,,,,,,,,,,,400.807949500042,400.82387220003875,401.32442280004034,401.30733229999896,401.31981660000747,401.32442280004034,401.32442280004034,401.32442280004034,403.2413251000107,Scenes\071b.jpg,post,n,1.904839400027413,None,,,,00021,001,2026-01-20_17h10.36.612,MST_test,2024.2.0,59.86848090937155,2026-01-20 17h10.43.767543 +0530,
128,0,129,o,0.9683364999946207,None,129,0,128,403.25714900001185,,,,,,,,,,,,,,,,,,,,,,,,,,,,,,,,,,,,,,,,,,,,,,,,,,403.2414215999888,403.25714900001185,403.75750940002035,403.7407286000089,403.750277300016,403.75750940002035,403.75750940002035,403.75750940002035,404.7410737000173,Objects\135b.jpg,pre,o,0.9683364999946207,None,,,,00021,001,2026-01-20_17h10.36.612,MST_test,2024.2.0,59.86848090937155,2026-01-20 17h10.43.767543 +0530,
129,0,130,n,1.0769782999996096,None,130,0,129,404.7570604000357,,,,,,,,,,,,,,,,,,,,,,,,,,,,,,,,,,,,,,,,,,,,,,,,,,404.7411676000338,404.7570604000357,405.2575969999889,405.2407796999905,405.2497063000337,405.2575969999889,405.2575969999889,405.2575969999889,406.3413337999955,Foils\scenes20.jpg,none,n,1.0769782999996096,None,,,,00021,001,2026-01-20_17h10.36.612,MST_test,2024.2.0,59.86848090937155,2026-01-20 17h10.43.767543 +0530,
130,0,131,o,0.957287399971392,None,131,0,130,406.35716790001607,,,,,,,,,,,,,,,,,,,,,,,,,,,,,,,,,,,,,,,,,,,,,,,,,,406.3414310000371,406.35716790001607,406.85758400004124,406.8407258000225,406.8469216999947,406.85758400004124,406.85758400004124,406.85758400004124,407.8247077999986,Scenes\191a.jpg,post,o,0.957287399971392,None,,,,00021,001,2026-01-20_17h10.36.612,MST_test,2024.2.0,59.86848090937155,2026-01-20 17h10.43.767543 +0530,
131,0,132,o,0.9611022000317462,None,132,0,131,407.8405565000139,,,,,,,,,,,,,,,,,,,,,,,,,,,,,,,,,,,,,,,,,,,,,,,,,,407.82479839998996,407.8405565000139,408.34096520004096,408.32436430000234,408.3289877999923,408.34096520004096,408.34096520004096,408.34096520004096,409.3075545000029,Scenes\139a.jpg,pre,o,0.9611022000317462,None,,,,00021,001,2026-01-20_17h10.36.612,MST_test,2024.2.0,59.86848090937155,2026-01-20 17h10.43.767543 +0530,
132,0,133,s,1.1891972000012174,None,133,0,132,409.32407870003954,,,,,,,,,,,,,,,,,,,,,,,,,,,,,,,,,,,,,,,,,,,,,,,,,,409.3076512000407,409.32407870003954,409.8245967000257,409.80747020000126,409.8221843999927,409.8245967000257,409.8245967000257,409.8245967000257,411.02485550002893,Scenes\004b.jpg,pre,s,1.1891972000012174,None,,,,00021,001,2026-01-20_17h10.36.612,MST_test,2024.2.0,59.86848090937155,2026-01-20 17h10.43.767543 +0530,
133,0,134,o,1.072888900001999,None,134,0,133,411.0406148000038,,,,,,,,,,,,,,,,,,,,,,,,,,,,,,,,,,,,,,,,,,,,,,,,,,411.02496230002725,411.0406148000038,411.5409902000101,411.5242525000358,411.5275266999961,411.5409902000101,411.5409902000101,411.5409902000101,412.62436320004053,Objects\023a.jpg,pre,o,1.072888900001999,None,,,,00021,001,2026-01-20_17h10.36.612,MST_test,2024.2.0,59.86848090937155,2026-01-20 17h10.43.767543 +0530,
134,0,135,o,4.745011299964972,None,135,0,134,412.6405451000319,,,,,,,,,,,,,,,,,,,,,,,,,,,,,,,,,,,,,,,,,,,,,,,,,,412.6244523000205,412.6405451000319,413.1408654000261,413.12414690002333,413.1274382999982,413.1408654000261,413.1408654000261,413.1408654000261,417.89139050000813,Foils\scenes14.jpg,none,o,4.745011299964972,None,,,,00021,001,2026-01-20_17h10.36.612,MST_test,2024.2.0,59.86848090937155,2026-01-20 17h10.43.767543 +0530,
135,0,136,o,1.0067718999926,None,136,0,135,417.90719480003463,,,,,,,,,,,,,,,,,,,,,,,,,,,,,,,,,,,,,,,,,,,,,,,,,,417.89148930000374,417.90719480003463,418.4073781000334,418.39078270003665,418.3998722000397,418.4073781000334,418.4073781000334,418.4073781000334,419.42449549998855,Foils\scenes11.jpg,none,o,1.0067718999926,None,,,,00021,001,2026-01-20_17h10.36.612,MST_test,2024.2.0,59.86848090937155,2026-01-20 17h10.43.767543 +0530,
136,0,137,o,1.1930248999851756,None,137,0,136,419.44053840002744,,,,,,,,,,,,,,,,,,,,,,,,,,,,,,,,,,,,,,,,,,,,,,,,,,419.4245862000389,419.44053840002744,419.9409581000218,419.9241522999946,419.93270589999156,419.9409581000218,419.9409581000218,419.9409581000218,421.1414297000156,Scenes\115a.jpg,mid,o,1.1930248999851756,None,,,,00021,001,2026-01-20_17h10.36.612,MST_test,2024.2.0,59.86848090937155,2026-01-20 17h10.43.767543 +0530,
137,0,138,o,1.0917842999915592,None,138,0,137,421.15713450004114,,,,,,,,,,,,,,,,,,,,,,,,,,,,,,,,,,,,,,,,,,,,,,,,,,421.1415279000066,421.15713450004114,421.6575152000296,421.6409187000245,421.6514763000305,421.6575152000296,421.6575152000296,421.6575152000296,422.757627300045,Objects\031b.jpg,mid,o,1.0917842999915592,None,,,,00021,001,2026-01-20_17h10.36.612,MST_test,2024.2.0,59.86848090937155,2026-01-20 17h10.43.767543 +0530,
138,0,139,o,0.7556138000218198,None,139,0,138,422.7738760000211,,,,,,,,,,,,,,,,,,,,,,,,,,,,,,,,,,,,,,,,,,,,,,,,,,422.7577183000394,422.7738760000211,423.27408860001015,423.2572909000446,423.2596720000147,423.27408860001015,423.27408860001015,423.27408860001015,424.04116230004,Objects\161a.jpg,pre,o,0.7556138000218198,None,,,,00021,001,2026-01-20_17h10.36.612,MST_test,2024.2.0,59.86848090937155,2026-01-20 17h10.43.767543 +0530,
139,0,140,o,0.7924135999637656,None,140,0,139,424.0571246999898,,,,,,,,,,,,,,,,,,,,,,,,,,,,,,,,,,,,,,,,,,,,,,,,,,424.0412529000314,424.0571246999898,424.55766200000653,424.5410216000164,424.5440837999922,424.55766200000653,424.55766200000653,424.55766200000653,425.35759690002305,Objects\095a.jpg,pre,o,0.7924135999637656,None,,,,00021,001,2026-01-20_17h10.36.612,MST_test,2024.2.0,59.86848090937155,2026-01-20 17h10.43.767543 +0530,
140,0,141,o,0.9481537999818102,None,141,0,140,425.37388060003286,,,,,,,,,,,,,,,,,,,,,,,,,,,,,,,,,,,,,,,,,,,,,,,,,,425.3576868000091,425.37388060003286,425.8742999000242,425.8573793999967,425.8684562999988,425.8742999000242,425.8742999000242,425.8742999000242,426.8247714000172,Scenes\008b.jpg,mid,o,0.9481537999818102,None,,,,00021,001,2026-01-20_17h10.36.612,MST_test,2024.2.0,59.86848090937155,2026-01-20 17h10.43.767543 +0530,
141,0,142,o,1.5500682999845594,None,142,0,141,426.84054450003896,,,,,,,,,,,,,,,,,,,,,,,,,,,,,,,,,,,,,,,,,,,,,,,,,,426.8248668999877,426.84054450003896,427.34395190002397,427.3241163000348,427.341959100042,427.34395190002397,427.34395190002397,427.34395190002397,428.90760530001717,Scenes\125b.jpg,post,o,1.5500682999845594,None,,,,00021,001,2026-01-20_17h10.36.612,MST_test,2024.2.0,59.86848090937155,2026-01-20 17h10.43.767543 +0530,
142,0,143,n,1.1014865000033751,None,143,0,142,428.9238767999923,,,,,,,,,,,,,,,,,,,,,,,,,,,,,,,,,,,,,,,,,,,,,,,,,,428.90769750002073,428.9238767999923,429.42434130003676,429.4074745000107,429.4169558000285,429.42434130003676,429.42434130003676,429.42434130003676,430.5411853000405,Foils\scenes17.jpg,none,n,1.1014865000033751,None,,,,00021,001,2026-01-20_17h10.36.612,MST_test,2024.2.0,59.86848090937155,2026-01-20 17h10.43.767543 +0530,
143,0,144,n,1.7488537000026554,None,144,0,143,430.55710830003954,,,,,,,,,,,,,,,,,,,,,,,,,,,,,,,,,,,,,,,,,,,,,,,,,,430.5412769000395,430.55710830003954,431.0574375000433,431.04078710003523,431.0488450000412,431.0574375000433,431.0574375000433,431.0574375000433,432.80768580001313,Scenes\155a.jpg,pre,n,1.7488537000026554,None,,,,00021,001,2026-01-20_17h10.36.612,MST_test,2024.2.0,59.86848090937155,2026-01-20 17h10.43.767543 +0530,
144,0,145,o,0.9351994000026025,None,145,0,144,432.82388869998977,,,,,,,,,,,,,,,,,,,,,,,,,,,,,,,,,,,,,,,,,,,,,,,,,,432.80777760001365,432.82388869998977,433.32613970001694,433.30743370001437,433.3238733999897,433.32613970001694,433.32613970001694,433.32613970001694,434.2744872000185,Scenes\038b.jpg,post,o,0.9351994000026025,None,,,,00021,001,2026-01-20_17h10.36.612,MST_test,2024.2.0,59.86848090937155,2026-01-20 17h10.43.767543 +0530,
145,0,146,o,1.1587169999838807,None,146,0,145,434.29058090003673,,,,,,,,,,,,,,,,,,,,,,,,,,,,,,,,,,,,,,,,,,,,,,,,,,434.27457649999997,434.29058090003673,434.7911822000169,434.7742462999886,434.7803166999947,434.7911822000169,434.7911822000169,434.7911822000169,435.9578149000299,Scenes\173a.jpg,post,o,1.1587169999838807,None,,,,00021,001,2026-01-20_17h10.36.612,MST_test,2024.2.0,59.86848090937155,2026-01-20 17h10.43.767543 +0530,
146,0,147,n,1.8044600000139326,None,147,0,146,435.9739152000402,,,,,,,,,,,,,,,,,,,,,,,,,,,,,,,,,,,,,,,,,,,,,,,,,,435.9579138000263,435.9739152000402,436.47449570003664,436.4576337999897,436.46022250002716,436.47449570003664,436.47449570003664,436.47449570003664,438.2913297000341,Scenes\053a.jpg,pre,n,1.8044600000139326,None,,,,00021,001,2026-01-20_17h10.36.612,MST_test,2024.2.0,59.86848090937155,2026-01-20 17h10.43.767543 +0530,
147,0,148,o,1.5419701000209898,None,148,0,147,438.3070727000013,,,,,,,,,,,,,,,,,,,,,,,,,,,,,,,,,,,,,,,,,,,,,,,,,,438.291426700016,438.3070727000013,438.80757190001896,438.79078780004056,438.797581300023,438.80757190001896,438.80757190001896,438.80757190001896,440.35765250003897,Scenes\073a.jpg,pre,o,1.5419701000209898,None,,,,00021,001,2026-01-20_17h10.36.612,MST_test,2024.2.0,59.86848090937155,2026-01-20 17h10.43.767543 +0530,
148,0,149,o,2.707014399988111,None,149,0,148,440.37381310004275,,,,,,,,,,,,,,,,,,,,,,,,,,,,,,,,,,,,,,,,,,,,,,,,,,440.35774390003644,440.37381310004275,440.87431189999916,440.8573805000051,440.8605046000448,440.87431189999916,440.87431189999916,440.87431189999916,443.591053000011,Objects\186a.jpg,pre,o,2.707014399988111,None,,,,00021,001,2026-01-20_17h10.36.612,MST_test,2024.2.0,59.86848090937155,2026-01-20 17h10.43.767543 +0530,
149,0,150,o,1.7542772999731824,None,150,0,149,443.60712940001395,,,,,,,,,,,,,,,,,,,,,,,,,,,,,,,,,,,,,,,,,,,,,,,,,,443.59114480001153,443.60712940001395,444.1073241000413,444.09073880000506,444.09301509999204,444.1073241000413,444.1073241000413,444.1073241000413,445.8743542000302,Objects\038a.jpg,post,o,1.7542772999731824,None,,,,00021,001,2026-01-20_17h10.36.612,MST_test,2024.2.0,59.86848090937155,2026-01-20 17h10.43.767543 +0530,
,,,,,,,,,,,,,,,,,,,,,,,,,,,,,,,,,,,,,,,,,,,,,,,,,,,,,,,,,,,,,,,,,,,,,,,,,445.8744175999891,445.8905720000039,445.8905720000039,,,,,,,,
