Sl_no,image_path,thisN,thisTrialN,thisRepN,key_resp_5.keys,key_resp_7.keys,key_resp_7.rt,key_resp_7.duration,key_resp_5.rt,key_resp_5.duration,key_resp_9.keys,key_resp_8.keys,key_resp_8.rt,key_resp_8.duration,key_resp_9.rt,key_resp_9.duration,practice.thisRepN,practice.thisTrialN,practice.thisN,trials.thisRepN,trials.thisTrialN,trials.thisN,thisRow.t,notes,welcome_page.started,text.started,key_resp.started,welcome_page.stopped,key_resp.keys,key_resp.rt,key_resp.duration,instructions.started,ins.started,key_resp_2.started,instructions.stopped,key_resp_2.keys,key_resp_2.rt,key_resp_2.duration,objects_only_instruction.started,text_3.started,key_resp_3.started,objects_only_instruction.stopped,key_resp_3.keys,key_resp_3.rt,key_resp_3.duration,ISI.started,text_4.started,text_4.stopped,ISI.stopped,practice_block.started,image.started,text_5.started,key_resp_5.started,practice_block.stopped,practice.key_resp_5.keys,indoor_outdoor.started,text_7.started,key_resp_7.started,indoor_outdoor.stopped,practice.key_resp_7.keys,practice.key_resp_7.rt,practice.key_resp_7.duration,image.stopped,text_5.stopped,key_resp_5.stopped,practice.key_resp_5.rt,practice.key_resp_5.duration,practice_to_main.started,text_2.started,key_resp_4.started,practice_to_main.stopped,key_resp_4.keys,key_resp_4.rt,key_resp_4.duration,objects.started,image_2.started,text_9.started,key_resp_9.started,objects.stopped,trials.key_resp_9.keys,encoding_task.started,text_8.started,key_resp_8.started,encoding_task.stopped,trials.key_resp_8.keys,trials.key_resp_8.rt,trials.key_resp_8.duration,image_2.stopped,text_9.stopped,key_resp_9.stopped,trials.key_resp_9.rt,trials.key_resp_9.duration,end_experiment.started,text_6.started,key_resp_6.started,end_experiment.stopped,key_resp_6.keys,key_resp_6.rt,key_resp_6.duration,list_of_stimuli,encoding_task_accuracy,participant,session,date,expName,psychopyVersion,frameRate,expStart,
,,,,,,,,,,,,,,,,,,,,,,,,,0.0013413999986369163,0.0030350999877555296,0.0030350999877555296,12.17461839999305,space,12.14776669999992,None,,,,,,,,,,,,,,,,,,,,,,,,,,,,,,,,,,,,,,,,,,,,,,,,,,,,,,,,,,,,,,,,,,,,,,,00028,001,2026-01-20_21h43.31.019,MST_task,2024.2.0,60.00481238766997,2026-01-20 21h43.37.434234 +0530,
,,,,,,,,,,,,,,,,,,,,,,,,,,,,,,,,12.174705299999914,12.188500399992336,12.188500399992336,42.58396439999342,space,30.386716900000465,None,,,,,,,,,,,,,,,,,,,,,,,,,,,,,,,,,,,,,,,,,,,,,,,,,,,,,,,,,,,,,,,,00028,001,2026-01-20_21h43.31.019,MST_task,2024.2.0,60.00481238766997,2026-01-20 21h43.37.434234 +0530,
,,,,,,,,,,,,,,,,,,,,,,,,,,,,,,,,,,,,,,,42.58410029999504,42.60493570000108,42.60493570000108,85.233842799993,space,42.61748719999741,None,,,,,,,,,,,,,,,,,,,,,,,,,,,,,,,,,,,,,,,,,,,,,,,,,,,,,,,,,00028,001,2026-01-20_21h43.31.019,MST_task,2024.2.0,60.00481238766997,2026-01-20 21h43.37.434234 +0530,
7,practice_images/166a.jpg,0,0,1,None,j,2.000073199989856,None,,,,,,,,,1,0,0,,,,85.25005339999916,,,,,,,,,,,,,,,,,,,,,,,85.24400009999226,85.25005339999916,85.7773734999937,85.73366240000178,85.74646429999848,85.7773734999937,85.7773734999937,85.7773734999937,88.75011619999714,None,88.75750909998897,88.7663831999962,88.7663831999962,90.7672850999952,j,2.000073199989856,None,,,,,,,,,,,,,,,,,,,,,,,,,,,,,,,,,,,,,,,,00028,001,2026-01-20_21h43.31.019,MST_task,2024.2.0,60.00481238766997,2026-01-20 21h43.37.434234 +0530,
4,practice_images/002b.jpg,1,1,1,j,None,,,2.0990229999879375,0.15201460001117084,,,,,,,1,1,1,,,,90.78320149998763,,,,,,,,,,,,,,,,,,,,,,,90.76763719999872,90.78320149998763,91.28329429999576,91.26688049999939,91.27339779998874,91.28329429999576,91.28329429999576,91.28329429999576,94.26717009999265,j,94.26737779998803,,,94.26744659998803,None,,,94.2832122999971,94.2832122999971,94.2832122999971,2.0990229999879375,0.15201460001117084,,,,,,,,,,,,,,,,,,,,,,,,,,,,,,,,,,,00028,001,2026-01-20_21h43.31.019,MST_task,2024.2.0,60.00481238766997,2026-01-20 21h43.37.434234 +0530,
2,practice_images/031a.jpg,2,2,1,f,None,,,1.1991874999948777,0.15992599999299273,,,,,,,1,2,2,,,,94.2832122999971,,,,,,,,,,,,,,,,,,,,,,,94.26774799999839,94.2832122999971,94.78350159998809,94.7671391999902,94.773191699991,94.78350159998809,94.78350159998809,94.78350159998809,97.76721929998894,f,97.76741780000157,,,97.767485999997,None,,,97.7832919999928,97.7832919999928,97.7832919999928,1.1991874999948777,0.15992599999299273,,,,,,,,,,,,,,,,,,,,,,,,,,,,,,,,,,,00028,001,2026-01-20_21h43.31.019,MST_task,2024.2.0,60.00481238766997,2026-01-20 21h43.37.434234 +0530,
8,practice_images/178a.jpg,3,3,1,j,None,,,2.011430999991717,0.151649899999029,,,,,,,1,3,3,,,,97.7832919999928,,,,,,,,,,,,,,,,,,,,,,,97.76779620000161,97.7832919999928,98.28351680000196,98.26718009999604,98.27276290000009,98.28351680000196,98.28351680000196,98.28351680000196,101.26730969999335,j,101.26748650000081,,,101.26754839999194,None,,,101.28328099999635,101.28328099999635,101.28328099999635,2.011430999991717,0.151649899999029,,,,,,,,,,,,,,,,,,,,,,,,,,,,,,,,,,,00028,001,2026-01-20_21h43.31.019,MST_task,2024.2.0,60.00481238766997,2026-01-20 21h43.37.434234 +0530,
3,practice_images/037a.jpg,4,4,1,f,None,,,1.5188372999982676,0.2160693000041647,,,,,,,1,4,4,,,,101.28328099999635,,,,,,,,,,,,,,,,,,,,,,,101.26782149999053,101.28328099999635,101.78349059999164,101.76711309999519,101.77262979999068,101.78349059999164,101.78349059999164,101.78349059999164,104.76732109999284,f,104.76751639999566,,,104.7675845999911,None,,,104.78330179999466,104.78330179999466,104.78330179999466,1.5188372999982676,0.2160693000041647,,,,,,,,,,,,,,,,,,,,,,,,,,,,,,,,,,,00028,001,2026-01-20_21h43.31.019,MST_task,2024.2.0,60.00481238766997,2026-01-20 21h43.37.434234 +0530,
9,practice_images/180a.jpg,5,5,1,f,None,,,1.235478000002331,0.20816999999806285,,,,,,,1,5,5,,,,104.78330179999466,,,,,,,,,,,,,,,,,,,,,,,104.76789360000112,104.78330179999466,105.28312699998787,105.26708749998943,105.27261129999533,105.28312699998787,105.28312699998787,105.28312699998787,108.26732719999563,f,108.26753119999194,,,108.26760019999347,None,,,108.28378620000149,108.28378620000149,108.28378620000149,1.235478000002331,0.20816999999806285,,,,,,,,,,,,,,,,,,,,,,,,,,,,,,,,,,,00028,001,2026-01-20_21h43.31.019,MST_task,2024.2.0,60.00481238766997,2026-01-20 21h43.37.434234 +0530,
6,practice_images/158a.jpg,6,6,1,j,None,,,1.3827472999983002,0.19206860000849701,,,,,,,1,6,6,,,,108.28378620000149,,,,,,,,,,,,,,,,,,,,,,,108.26789769998868,108.28378620000149,108.78366010000173,108.76715489999333,108.77252279999084,108.78366010000173,108.78366010000173,108.78366010000173,111.76728049998928,j,111.7674704999954,,,111.76753969999845,None,,,111.7833038999961,111.7833038999961,111.7833038999961,1.3827472999983002,0.19206860000849701,,,,,,,,,,,,,,,,,,,,,,,,,,,,,,,,,,,00028,001,2026-01-20_21h43.31.019,MST_task,2024.2.0,60.00481238766997,2026-01-20 21h43.37.434234 +0530,
1,practice_images/013a.jpg,7,7,1,j,None,,,1.6824960999947507,0.16762730000482406,,,,,,,1,7,7,,,,111.7833038999961,,,,,,,,,,,,,,,,,,,,,,,111.76783820000128,111.7833038999961,112.28427779999038,112.26701189999585,112.27283449999231,112.28427779999038,112.28427779999038,112.28427779999038,115.26731969999673,j,115.26751949999016,,,115.26758739999786,None,,,115.28469909999694,115.28469909999694,115.28469909999694,1.6824960999947507,0.16762730000482406,,,,,,,,,,,,,,,,,,,,,,,,,,,,,,,,,,,00028,001,2026-01-20_21h43.31.019,MST_task,2024.2.0,60.00481238766997,2026-01-20 21h43.37.434234 +0530,
10,practice_images/182a.jpg,8,8,1,f,None,,,1.7589798999979394,0.15137839999806602,,,,,,,1,8,8,,,,115.28469909999694,,,,,,,,,,,,,,,,,,,,,,,115.26788579999993,115.28469909999694,,115.78341069999442,115.78895039999043,115.80002099998819,115.80002099998819,115.80002099998819,118.78369799999928,f,118.78392519999761,,,118.78399769999669,None,,,,,,1.7589798999979394,0.15137839999806602,,,,,,,,,,,,,,,,,,,,,,,,,,,,,,,,,,,00028,001,2026-01-20_21h43.31.019,MST_task,2024.2.0,60.00481238766997,2026-01-20 21h43.37.434234 +0530,
5,practice_images/139a.jpg,9,9,1,j,None,,,2.386245700006839,0.15252410000539385,,,,,,,1,9,9,,,,118.8000483999931,,,,,,,,,,,,,,,,,,,,,,,118.78432169998996,118.8000483999931,119.3002373999916,119.28336750000017,119.28839099999459,119.3002373999916,119.3002373999916,119.3002373999916,122.28365810000105,j,122.28384789999109,,,122.28391220000049,None,,,122.29967199999373,122.29967199999373,122.29967199999373,2.386245700006839,0.15252410000539385,,,,,,,,,,,,,,,,,,,,,,,,,,,,,,,,,,,00028,001,2026-01-20_21h43.31.019,MST_task,2024.2.0,60.00481238766997,2026-01-20 21h43.37.434234 +0530,
,,,,,,,,,,,,,,,,,,,,,,,,,,,,,,,,,,,,,,,,,,,,,,,,,,,,,,,,,,,,,,,,,,,,122.28410140000051,122.29967199999373,122.29967199999373,135.08388989999366,space,12.771360700004152,None,,,,,,,,,,,,,,,,,,,,,,,,,,,,00028,001,2026-01-20_21h43.31.019,MST_task,2024.2.0,60.00481238766997,2026-01-20 21h43.37.434234 +0530,
,Scenes\043a.jpg,0,0,1,,,,,,,None,j,0.16657990000385325,None,,,,,,1,0,0,135.10003689999576,,,,,,,,,,,,,,,,,,,,,,,135.08691980000003,135.10003689999576,135.60829059999378,135.58361859999422,,,,,,,,,,,,,,,,,,,,,,,,,,135.60475230000156,135.60829059999378,135.60829059999378,135.60829059999378,138.60043749999022,None,138.60719080000126,138.61672019999241,138.61672019999241,138.78437829999893,j,0.16657990000385325,None,,,,,,,,,,,,,,,00028,001,2026-01-20_21h43.31.019,MST_task,2024.2.0,60.00481238766997,2026-01-20 21h43.37.434234 +0530,
,Scenes\019a.jpg,1,0,2,,,,,,,j,None,,,1.833698699992965,0.15198750000854488,,,,2,0,1,138.79955389999668,,,,,,,,,,,,,,,,,,,,,,,138.7848318999895,138.79955389999668,139.300596999994,139.2837817999971,,,,,,,,,,,,,,,,,,,,,,,,,,139.29653249999683,139.300596999994,139.300596999994,139.300596999994,142.28451079998922,j,142.28471189999254,,,142.2847724000021,None,,,142.29994139999326,142.29994139999326,142.29994139999326,1.833698699992965,0.15198750000854488,,,,,,,,,,00028,001,2026-01-20_21h43.31.019,MST_task,2024.2.0,60.00481238766997,2026-01-20 21h43.37.434234 +0530,
,Scenes\130a.jpg,2,0,3,,,,,,,j,None,,,2.2156881999981124,0.14365969999926165,,,,3,0,2,142.29994139999326,,,,,,,,,,,,,,,,,,,,,,,142.2850819999876,142.29994139999326,142.80702939999173,142.78373270000156,,,,,,,,,,,,,,,,,,,,,,,,,,142.80391699999745,142.80702939999173,142.80702939999173,142.80702939999173,145.80043239999213,j,145.80063810000138,,,145.80070209999394,None,,,,,,2.2156881999981124,0.14365969999926165,,,,,,,,,,00028,001,2026-01-20_21h43.31.019,MST_task,2024.2.0,60.00481238766997,2026-01-20 21h43.37.434234 +0530,
,Scenes\012a.jpg,3,0,4,,,,,,,j,None,,,2.8036176999885356,None,,,,4,0,3,145.8166928999999,,,,,,,,,,,,,,,,,,,,,,,145.80099679999694,145.8166928999999,146.32269180000003,146.30030049999186,,,,,,,,,,,,,,,,,,,,,,,,,,146.31990380000207,146.32269180000003,146.32269180000003,146.32269180000003,149.31714069998998,j,149.3173601999879,,,149.3174285999994,None,,,,,,2.8036176999885356,None,,,,,,,,,,00028,001,2026-01-20_21h43.31.019,MST_task,2024.2.0,60.00481238766997,2026-01-20 21h43.37.434234 +0530,
,Scenes\061a.jpg,4,0,5,,,,,,,j,None,,,2.538750399995479,0.14333540000370704,,,,5,0,4,149.3331690999912,,,,,,,,,,,,,,,,,,,,,,,149.31783419998828,149.3331690999912,149.83619849999377,149.81678249999823,,,,,,,,,,,,,,,,,,,,,,,,,,149.83399800000188,149.83619849999377,149.83619849999377,149.83619849999377,152.83339749999868,j,152.83359939999355,,,152.83366350000142,None,,,,,,2.538750399995479,0.14333540000370704,,,,,,,,,,00028,001,2026-01-20_21h43.31.019,MST_task,2024.2.0,60.00481238766997,2026-01-20 21h43.37.434234 +0530,
,Scenes\153a.jpg,5,0,6,,,,,,,j,None,,,1.2483605000015814,0.14437700000416953,,,,6,0,5,152.8499635999906,,,,,,,,,,,,,,,,,,,,,,,152.83403279999038,152.8499635999906,153.35022290000052,153.33369559999846,,,,,,,,,,,,,,,,,,,,,,,,,,153.34752019999723,153.35022290000052,153.35022290000052,153.35022290000052,156.33465330000035,j,156.33485319999454,,,156.33491259999573,None,,,156.34971629999927,156.34971629999927,156.34971629999927,1.2483605000015814,0.14437700000416953,,,,,,,,,,00028,001,2026-01-20_21h43.31.019,MST_task,2024.2.0,60.00481238766997,2026-01-20 21h43.37.434234 +0530,
,Scenes\122a.jpg,6,0,7,,,,,,,f,None,,,1.8797096000052989,0.21598290000110865,,,,7,0,6,156.34971629999927,,,,,,,,,,,,,,,,,,,,,,,156.33529029999045,156.34971629999927,156.85473999999522,156.83372679998865,,,,,,,,,,,,,,,,,,,,,,,,,,156.85190929999226,156.85473999999522,156.85473999999522,156.85473999999522,159.85044739999285,f,159.8506653999939,,,159.85073019999254,None,,,,,,1.8797096000052989,0.21598290000110865,,,,,,,,,,00028,001,2026-01-20_21h43.31.019,MST_task,2024.2.0,60.00481238766997,2026-01-20 21h43.37.434234 +0530,
,Objects\094a.jpg,7,0,8,,,,,,,f,None,,,2.343642699997872,0.1994738000066718,,,,8,0,7,159.86669619999884,,,,,,,,,,,,,,,,,,,,,,,159.8511620999925,159.86669619999884,160.3672663999896,160.3504869999888,,,,,,,,,,,,,,,,,,,,,,,,,,160.36034289999225,160.3672663999896,160.3672663999896,160.3672663999896,163.35123139999632,f,163.35142839999753,,,163.35148599999957,None,,,163.36671019998903,163.36671019998903,163.36671019998903,2.343642699997872,0.1994738000066718,,,,,,,,,,00028,001,2026-01-20_21h43.31.019,MST_task,2024.2.0,60.00481238766997,2026-01-20 21h43.37.434234 +0530,
,Objects\016a.jpg,8,0,9,,,,,,,f,None,,,2.7399586999963503,0.16882869999972172,,,,9,0,8,163.36671019998903,,,,,,,,,,,,,,,,,,,,,,,163.35186299998895,163.36671019998903,163.8669491999899,163.85078670000075,,,,,,,,,,,,,,,,,,,,,,,,,,163.8575295999908,163.8669491999899,163.8669491999899,163.8669491999899,166.85099399999308,f,166.85119109999505,,,166.8512514999893,None,,,166.86651899998833,166.86651899998833,166.86651899998833,2.7399586999963503,0.16882869999972172,,,,,,,,,,00028,001,2026-01-20_21h43.31.019,MST_task,2024.2.0,60.00481238766997,2026-01-20 21h43.37.434234 +0530,
,Objects\158a.jpg,9,0,10,,,,,,,None,j,0.9918449999968288,None,,,,,,10,0,9,166.86651899998833,,,,,,,,,,,,,,,,,,,,,,,166.8516157999984,166.86651899998833,167.36678250000114,167.35031159999198,,,,,,,,,,,,,,,,,,,,,,,,,,167.35976199999277,167.36678250000114,167.36678250000114,167.36678250000114,170.35102819999156,None,170.35120720000123,170.36671579998801,170.36671579998801,171.3672690999956,j,0.9918449999968288,None,170.36671579998801,170.36671579998801,170.36671579998801,,,,,,,,,,,,00028,001,2026-01-20_21h43.31.019,MST_task,2024.2.0,60.00481238766997,2026-01-20 21h43.37.434234 +0530,
,Objects\150a.jpg,10,0,11,,,,,,,None,f,0.235221900002216,None,,,,,,11,0,10,171.38328470000124,,,,,,,,,,,,,,,,,,,,,,,171.36773109999194,171.38328470000124,171.88343389998772,171.86701750000066,,,,,,,,,,,,,,,,,,,,,,,,,,171.87595190000138,171.88343389998772,171.88343389998772,171.88343389998772,174.86789870000212,None,174.8680802000017,174.88330469999346,174.88330469999346,175.1336949999968,f,0.235221900002216,None,174.88330469999346,174.88330469999346,174.88330469999346,,,,,,,,,,,,00028,001,2026-01-20_21h43.31.019,MST_task,2024.2.0,60.00481238766997,2026-01-20 21h43.37.434234 +0530,
,Objects\169a.jpg,11,0,12,,,,,,,None,f,0.06871859999955632,None,,,,,,12,0,11,175.1500595999969,,,,,,,,,,,,,,,,,,,,,,,175.13403489999473,175.1500595999969,175.64994899999874,175.63363499999105,,,,,,,,,,,,,,,,,,,,,,,,,,175.64027019999048,175.64994899999874,175.64994899999874,175.64994899999874,178.6341781999945,None,178.63436529999308,178.64980600000126,178.64980600000126,178.73391699999047,f,0.06871859999955632,None,178.64980600000126,178.64980600000126,178.64980600000126,,,,,,,,,,,,00028,001,2026-01-20_21h43.31.019,MST_task,2024.2.0,60.00481238766997,2026-01-20 21h43.37.434234 +0530,
,Objects\009a.jpg,12,0,13,,,,,,,None,f,1.5088726000103634,None,,,,,,13,0,12,178.75003509999078,,,,,,,,,,,,,,,,,,,,,,,178.73428809999314,178.75003509999078,179.25029149999318,179.23368369998934,,,,,,,,,,,,,,,,,,,,,,,,,,179.24250589999428,179.25029149999318,179.25029149999318,179.25029149999318,182.2346991999948,None,182.23487970000133,182.2500418999989,182.2500418999989,183.7671810999891,f,1.5088726000103634,None,182.2500418999989,182.2500418999989,182.2500418999989,,,,,,,,,,,,00028,001,2026-01-20_21h43.31.019,MST_task,2024.2.0,60.00481238766997,2026-01-20 21h43.37.434234 +0530,
,Objects\021a.jpg,13,0,14,,,,,,,f,None,,,1.2113708999968367,0.1594067999976687,,,,14,0,13,183.78329849999864,,,,,,,,,,,,,,,,,,,,,,,183.76752169999236,183.78329849999864,184.28354679999757,184.2669959999912,,,,,,,,,,,,,,,,,,,,,,,,,,184.27378360000148,184.28354679999757,184.28354679999757,184.28354679999757,187.26790359998995,f,187.2681089999969,,,187.26818619998812,None,,,187.28301959999953,187.28301959999953,187.28301959999953,1.2113708999968367,0.1594067999976687,,,,,,,,,,00028,001,2026-01-20_21h43.31.019,MST_task,2024.2.0,60.00481238766997,2026-01-20 21h43.37.434234 +0530,
,Scenes\145a.jpg,14,0,15,,,,,,,j,None,,,1.4861398999928497,0.15258710000489373,,,,15,0,14,187.28301959999953,,,,,,,,,,,,,,,,,,,,,,,187.26847959999577,187.28301959999953,187.79217329999665,187.7670924999984,,,,,,,,,,,,,,,,,,,,,,,,,,187.7895021000004,187.79217329999665,187.79217329999665,187.79217329999665,190.78358119999757,j,190.7837897999998,,,190.78385439999693,None,,,,,,1.4861398999928497,0.15258710000489373,,,,,,,,,,00028,001,2026-01-20_21h43.31.019,MST_task,2024.2.0,60.00481238766997,2026-01-20 21h43.37.434234 +0530,
,Scenes\155a.jpg,15,0,16,,,,,,,j,None,,,1.384005400002934,0.14455490000545979,,,,16,0,15,190.79984669999976,,,,,,,,,,,,,,,,,,,,,,,190.78422760000103,190.79984669999976,191.3023797999922,191.28370549999818,,,,,,,,,,,,,,,,,,,,,,,,,,191.29969600000186,191.3023797999922,191.3023797999922,191.3023797999922,194.30045929999324,j,194.30068119999487,,,194.30075199999555,None,,,,,,1.384005400002934,0.14455490000545979,,,,,,,,,,00028,001,2026-01-20_21h43.31.019,MST_task,2024.2.0,60.00481238766997,2026-01-20 21h43.37.434234 +0530,
,Scenes\141a.jpg,16,0,17,,,,,,,j,None,,,1.3334503999940353,0.13585170000442304,,,,17,0,16,194.31663259999186,,,,,,,,,,,,,,,,,,,,,,,194.30114270000195,194.31663259999186,194.81696149999334,194.80044690000068,,,,,,,,,,,,,,,,,,,,,,,,,,194.8142189999926,194.81696149999334,194.81696149999334,194.81696149999334,197.80140630000096,j,197.80163699999684,,,197.80169559999194,None,,,197.81672519999847,197.81672519999847,197.81672519999847,1.3334503999940353,0.13585170000442304,,,,,,,,,,00028,001,2026-01-20_21h43.31.019,MST_task,2024.2.0,60.00481238766997,2026-01-20 21h43.37.434234 +0530,
,Scenes\021a.jpg,17,0,18,,,,,,,j,None,,,2.4262909999961266,0.16745160000573378,,,,18,0,17,197.81672519999847,,,,,,,,,,,,,,,,,,,,,,,197.80209909999394,197.81672519999847,198.32451439999568,198.30043709999882,,,,,,,,,,,,,,,,,,,,,,,,,,198.3218046999973,198.32451439999568,198.32451439999568,198.32451439999568,201.31711469999573,j,201.3173311999999,,,201.31740069999069,None,,,,,,2.4262909999961266,0.16745160000573378,,,,,,,,,,00028,001,2026-01-20_21h43.31.019,MST_task,2024.2.0,60.00481238766997,2026-01-20 21h43.37.434234 +0530,
,Scenes\163a.jpg,18,0,19,,,,,,,j,None,,,1.179234399998677,0.1604122999997344,,,,19,0,18,201.33330269998987,,,,,,,,,,,,,,,,,,,,,,,201.3177241999947,201.33330269998987,201.83525839999493,201.8171624999959,,,,,,,,,,,,,,,,,,,,,,,,,,201.83251419999579,201.83525839999493,201.83525839999493,201.83525839999493,204.8335289999959,j,204.83373589999974,,,204.83380219999526,None,,,,,,1.179234399998677,0.1604122999997344,,,,,,,,,,00028,001,2026-01-20_21h43.31.019,MST_task,2024.2.0,60.00481238766997,2026-01-20 21h43.37.434234 +0530,
,Scenes\067a.jpg,19,0,20,,,,,,,f,None,,,2.87041400000453,None,,,,20,0,19,204.84966110000096,,,,,,,,,,,,,,,,,,,,,,,204.8341814999876,204.84966110000096,205.35202809999464,205.33369639999,,,,,,,,,,,,,,,,,,,,,,,,,,205.349782099991,205.35202809999464,205.35202809999464,205.35202809999464,208.35030310000002,f,208.3505160999921,,,208.35058949999802,None,,,,,,2.87041400000453,None,,,,,,,,,,00028,001,2026-01-20_21h43.31.019,MST_task,2024.2.0,60.00481238766997,2026-01-20 21h43.37.434234 +0530,
,Scenes\147a.jpg,20,0,21,,,,,,,None,j,1.0201549000048544,None,,,,,,21,0,20,208.3667037999985,,,,,,,,,,,,,,,,,,,,,,,208.3509936999908,208.3667037999985,208.86658519999764,208.85039569999208,,,,,,,,,,,,,,,,,,,,,,,,,,208.8631929999974,208.86658519999764,208.86658519999764,208.86658519999764,211.8512439999904,None,211.85142049999558,211.86673529999098,211.86673529999098,212.90055719998782,j,1.0201549000048544,None,211.86673529999098,211.86673529999098,211.86673529999098,,,,,,,,,,,,00028,001,2026-01-20_21h43.31.019,MST_task,2024.2.0,60.00481238766997,2026-01-20 21h43.37.434234 +0530,
,Objects\171a.jpg,21,0,22,,,,,,,f,None,,,1.3654459999961546,0.23200689999794122,,,,22,0,21,212.91671099999803,,,,,,,,,,,,,,,,,,,,,,,212.90101519999735,212.91671099999803,213.41718999999284,213.40044769999804,,,,,,,,,,,,,,,,,,,,,,,,,,213.40771590000077,213.41718999999284,213.41718999999284,213.41718999999284,216.40133989999595,f,216.40153750000172,,,216.40159769999445,None,,,216.41663649999828,216.41663649999828,216.41663649999828,1.3654459999961546,0.23200689999794122,,,,,,,,,,00028,001,2026-01-20_21h43.31.019,MST_task,2024.2.0,60.00481238766997,2026-01-20 21h43.37.434234 +0530,
,Objects\129a.jpg,22,0,23,,,,,,,f,None,,,2.394348900008481,0.22328310000011697,,,,23,0,22,216.41663649999828,,,,,,,,,,,,,,,,,,,,,,,216.40197719998832,216.41663649999828,216.91656649998913,216.90054429999145,,,,,,,,,,,,,,,,,,,,,,,,,,216.909293299992,216.91656649998913,216.91656649998913,216.91656649998913,219.90125919999264,f,219.90146929999173,,,219.90153009998903,None,,,219.91652169999725,219.91652169999725,219.91652169999725,2.394348900008481,0.22328310000011697,,,,,,,,,,00028,001,2026-01-20_21h43.31.019,MST_task,2024.2.0,60.00481238766997,2026-01-20 21h43.37.434234 +0530,
,Objects\051a.jpg,23,0,24,,,,,,,None,f,1.4217007999977795,None,,,,,,24,0,23,219.91652169999725,,,,,,,,,,,,,,,,,,,,,,,219.90191489999415,219.91652169999725,220.4169392999902,220.40049899999576,,,,,,,,,,,,,,,,,,,,,,,,,,220.40903199999593,220.4169392999902,220.4169392999902,220.4169392999902,223.4009148999903,None,223.40109099999245,223.41629660000035,223.41629660000035,224.85047720000148,f,1.4217007999977795,None,223.41629660000035,223.41629660000035,223.41629660000035,,,,,,,,,,,,00028,001,2026-01-20_21h43.31.019,MST_task,2024.2.0,60.00481238766997,2026-01-20 21h43.37.434234 +0530,
,Objects\002a.jpg,24,0,25,,,,,,,f,None,,,1.063496100003249,0.21578430000226945,,,,25,0,24,224.86627969999972,,,,,,,,,,,,,,,,,,,,,,,224.85062139999354,224.86627969999972,225.36693540000124,225.35037759999977,,,,,,,,,,,,,,,,,,,,,,,,,,225.35918149999634,225.36693540000124,225.36693540000124,225.36693540000124,228.35094169998774,f,228.35115129999758,,,228.351216199997,None,,,228.36650740000186,228.36650740000186,228.36650740000186,1.063496100003249,0.21578430000226945,,,,,,,,,,00028,001,2026-01-20_21h43.31.019,MST_task,2024.2.0,60.00481238766997,2026-01-20 21h43.37.434234 +0530,
,Objects\086a.jpg,25,0,26,,,,,,,j,None,,,1.547504600006505,0.2163626999972621,,,,26,0,25,228.36650740000186,,,,,,,,,,,,,,,,,,,,,,,228.35162570000102,228.36650740000186,228.86699080000108,228.85040270000172,,,,,,,,,,,,,,,,,,,,,,,,,,228.85908599999675,228.86699080000108,228.86699080000108,228.86699080000108,231.85101859999122,j,231.85121649999928,,,231.8512761999882,None,,,231.86671190000197,231.86671190000197,231.86671190000197,1.547504600006505,0.2163626999972621,,,,,,,,,,00028,001,2026-01-20_21h43.31.019,MST_task,2024.2.0,60.00481238766997,2026-01-20 21h43.37.434234 +0530,
,Objects\087a.jpg,26,0,27,,,,,,,None,j,0.46401509999122936,None,,,,,,27,0,26,231.86671190000197,,,,,,,,,,,,,,,,,,,,,,,231.85165089998918,231.86671190000197,232.36698900000192,232.35047649999615,,,,,,,,,,,,,,,,,,,,,,,,,,232.35890500000096,232.36698900000192,232.36698900000192,232.36698900000192,235.35099510000146,None,235.35117670000182,235.36652029999823,235.36652029999823,235.83365119999507,j,0.46401509999122936,None,235.36652029999823,235.36652029999823,235.36652029999823,,,,,,,,,,,,00028,001,2026-01-20_21h43.31.019,MST_task,2024.2.0,60.00481238766997,2026-01-20 21h43.37.434234 +0530,
,Objects\177a.jpg,27,0,28,,,,,,,j,None,,,1.215932299994165,0.19225560000631958,,,,28,0,27,235.84965730000113,,,,,,,,,,,,,,,,,,,,,,,235.83410579999327,235.84965730000113,236.35025819999282,236.33362939998915,,,,,,,,,,,,,,,,,,,,,,,,,,236.3404453999974,236.35025819999282,236.35025819999282,236.35025819999282,239.33432979999634,j,239.33452789999137,,,239.3345885000017,None,,,239.35005169999204,239.35005169999204,239.35005169999204,1.215932299994165,0.19225560000631958,,,,,,,,,,00028,001,2026-01-20_21h43.31.019,MST_task,2024.2.0,60.00481238766997,2026-01-20 21h43.37.434234 +0530,
,Scenes\117a.jpg,28,0,29,,,,,,,j,None,,,1.034861699998146,0.1679528999957256,,,,29,0,28,239.35005169999204,,,,,,,,,,,,,,,,,,,,,,,239.33496609999565,239.35005169999204,239.851436500001,239.83349249999446,,,,,,,,,,,,,,,,,,,,,,,,,,239.84889019999537,239.851436500001,239.851436500001,239.851436500001,242.85032969999884,j,242.85052819999692,,,242.85059229999024,None,,,,,,1.034861699998146,0.1679528999957256,,,,,,,,,,00028,001,2026-01-20_21h43.31.019,MST_task,2024.2.0,60.00481238766997,2026-01-20 21h43.37.434234 +0530,
,Scenes\123a.jpg,29,0,30,,,,,,,j,None,,,0.9992862999934005,0.19261460000416264,,,,30,0,29,242.86658760000137,,,,,,,,,,,,,,,,,,,,,,,242.85096599999815,242.86658760000137,243.3669508000021,243.35013269999763,,,,,,,,,,,,,,,,,,,,,,,,,,243.35975170000165,243.3669508000021,243.3669508000021,243.3669508000021,246.35114189999877,j,246.3513352000009,,,246.35139369999524,None,,,246.3664337999944,246.3664337999944,246.3664337999944,0.9992862999934005,0.19261460000416264,,,,,,,,,,00028,001,2026-01-20_21h43.31.019,MST_task,2024.2.0,60.00481238766997,2026-01-20 21h43.37.434234 +0530,
,Scenes\091a.jpg,30,0,31,,,,,,,j,None,,,1.7941865000029793,0.18381950000184588,,,,31,0,30,246.3664337999944,,,,,,,,,,,,,,,,,,,,,,,246.3517725999991,246.3664337999944,246.86886360000062,246.8504954999953,,,,,,,,,,,,,,,,,,,,,,,,,,246.8659895000019,246.86886360000062,246.86886360000062,246.86886360000062,249.86689379999007,j,249.86710529999982,,,249.86717430000135,None,,,,,,1.7941865000029793,0.18381950000184588,,,,,,,,,,00028,001,2026-01-20_21h43.31.019,MST_task,2024.2.0,60.00481238766997,2026-01-20 21h43.37.434234 +0530,
,Scenes\046a.jpg,31,0,32,,,,,,,j,None,,,1.3442394000012428,0.19213500000478234,,,,32,0,31,249.88333959999727,,,,,,,,,,,,,,,,,,,,,,,249.86757919999945,249.88333959999727,250.38990369999374,250.36712070000067,,,,,,,,,,,,,,,,,,,,,,,,,,250.38716629998817,250.38990369999374,250.38990369999374,250.38990369999374,253.38372610000079,j,253.38392439999734,,,253.38398899999447,None,,,,,,1.3442394000012428,0.19213500000478234,,,,,,,,,,00028,001,2026-01-20_21h43.31.019,MST_task,2024.2.0,60.00481238766997,2026-01-20 21h43.37.434234 +0530,
,Scenes\082a.jpg,32,0,33,,,,,,,f,None,,,2.5556113999919035,0.22331760000088252,,,,33,0,32,253.40064719998918,,,,,,,,,,,,,,,,,,,,,,,253.38436260000162,253.40064719998918,253.9073090999882,253.88371369999368,,,,,,,,,,,,,,,,,,,,,,,,,,253.9045131999883,253.9073090999882,253.9073090999882,253.9073090999882,256.9004883999878,f,256.90069889998995,,,256.9007683999953,None,,,,,,2.5556113999919035,0.22331760000088252,,,,,,,,,,00028,001,2026-01-20_21h43.31.019,MST_task,2024.2.0,60.00481238766997,2026-01-20 21h43.37.434234 +0530,
,Scenes\084a.jpg,33,0,34,,,,,,,j,None,,,1.0896294000121998,0.16017199998896103,,,,34,0,33,256.9174054999894,,,,,,,,,,,,,,,,,,,,,,,256.9012381999928,256.9174054999894,257.420603999999,257.400478999989,,,,,,,,,,,,,,,,,,,,,,,,,,257.41786439999123,257.420603999999,257.420603999999,257.420603999999,260.4169533999957,j,260.4171532999899,,,260.41721689999395,None,,,,,,1.0896294000121998,0.16017199998896103,,,,,,,,,,00028,001,2026-01-20_21h43.31.019,MST_task,2024.2.0,60.00481238766997,2026-01-20 21h43.37.434234 +0530,
,Scenes\095a.jpg,34,0,35,,,,,,,j,None,,,2.256503700002213,0.18392389999644365,,,,35,0,34,260.4332252999884,,,,,,,,,,,,,,,,,,,,,,,260.4175902999996,260.4332252999884,260.93398809999053,260.9171623000002,,,,,,,,,,,,,,,,,,,,,,,,,,260.9312971999898,260.93398809999053,260.93398809999053,260.93398809999053,263.91784259999986,j,263.9180481999938,,,263.91811049998796,None,,,263.93333669999265,263.93333669999265,263.93333669999265,2.256503700002213,0.18392389999644365,,,,,,,,,,00028,001,2026-01-20_21h43.31.019,MST_task,2024.2.0,60.00481238766997,2026-01-20 21h43.37.434234 +0530,
,Objects\105a.jpg,35,0,36,,,,,,,f,None,,,1.6211231999914162,0.19978140000603162,,,,36,0,35,263.93333669999265,,,,,,,,,,,,,,,,,,,,,,,263.91851499999757,263.93333669999265,264.4339292999939,264.41683380000177,,,,,,,,,,,,,,,,,,,,,,,,,,264.4275312999962,264.4339292999939,264.4339292999939,264.4339292999939,267.41800499999954,f,267.418225299989,,,267.4182892999961,None,,,267.4329088999948,267.4329088999948,267.4329088999948,1.6211231999914162,0.19978140000603162,,,,,,,,,,00028,001,2026-01-20_21h43.31.019,MST_task,2024.2.0,60.00481238766997,2026-01-20 21h43.37.434234 +0530,
,Objects\015a.jpg,36,0,37,,,,,,,f,None,,,2.104757300010533,0.21642489999067038,,,,37,0,36,267.4329088999948,,,,,,,,,,,,,,,,,,,,,,,267.4186222999997,267.4329088999948,267.933638699993,267.91715529999055,,,,,,,,,,,,,,,,,,,,,,,,,,267.9242985999881,267.933638699993,267.933638699993,267.933638699993,270.91764949999924,f,270.91785009999876,,,270.91791039999225,None,,,270.9333045999956,270.9333045999956,270.9333045999956,2.104757300010533,0.21642489999067038,,,,,,,,,,00028,001,2026-01-20_21h43.31.019,MST_task,2024.2.0,60.00481238766997,2026-01-20 21h43.37.434234 +0530,
,Objects\017a.jpg,37,0,38,,,,,,,j,None,,,2.940232399996603,None,,,,38,0,37,270.9333045999956,,,,,,,,,,,,,,,,,,,,,,,270.918310699999,270.9333045999956,271.43461329999263,271.4171098999941,,,,,,,,,,,,,,,,,,,,,,,,,,271.4256349999923,271.43461329999263,271.43461329999263,271.43461329999263,274.4338248999993,j,274.4340385999967,,,274.4341088999936,None,,,,,,2.940232399996603,None,,,,,,,,,,00028,001,2026-01-20_21h43.31.019,MST_task,2024.2.0,60.00481238766997,2026-01-20 21h43.37.434234 +0530,
,Objects\079a.jpg,38,0,39,,,,,,,f,None,,,2.0161114999937126,0.21641989999625366,,,,39,0,38,274.4498218999943,,,,,,,,,,,,,,,,,,,,,,,274.43444869999075,274.4498218999943,274.9500764999975,274.9336844999925,,,,,,,,,,,,,,,,,,,,,,,,,,274.9435261999897,274.9500764999975,274.9500764999975,274.9500764999975,277.93436879999354,f,277.9345867999946,,,277.93465039999865,None,,,277.9500638999889,277.9500638999889,277.9500638999889,2.0161114999937126,0.21641989999625366,,,,,,,,,,00028,001,2026-01-20_21h43.31.019,MST_task,2024.2.0,60.00481238766997,2026-01-20 21h43.37.434234 +0530,
,Objects\117a.jpg,39,0,40,,,,,,,j,None,,,1.8841644000058295,0.16825329999846872,,,,40,0,39,277.9500638999889,,,,,,,,,,,,,,,,,,,,,,,277.935061199998,277.9500638999889,,278.43488349999825,,,,,,,,,,,,,,,,,,,,,,,,,,278.4431998999935,278.44998649999616,278.44998649999616,278.44998649999616,281.43452049999905,j,281.43472619999375,,,281.43478270000196,None,,,281.4500412999914,281.4500412999914,281.4500412999914,1.8841644000058295,0.16825329999846872,,,,,,,,,,00028,001,2026-01-20_21h43.31.019,MST_task,2024.2.0,60.00481238766997,2026-01-20 21h43.37.434234 +0530,
,Objects\003a.jpg,40,0,41,,,,,,,j,None,,,1.3124294000008376,0.15208899999561254,,,,41,0,40,281.4500412999914,,,,,,,,,,,,,,,,,,,,,,,281.4350867999892,281.4500412999914,281.95029349999095,281.9336404999922,,,,,,,,,,,,,,,,,,,,,,,,,,281.9426490999904,281.95029349999095,281.95029349999095,281.95029349999095,284.93460519998916,j,284.9348190000019,,,284.9348772999947,None,,,284.9498998999916,284.9498998999916,284.9498998999916,1.3124294000008376,0.15208899999561254,,,,,,,,,,00028,001,2026-01-20_21h43.31.019,MST_task,2024.2.0,60.00481238766997,2026-01-20 21h43.37.434234 +0530,
,Objects\084a.jpg,41,0,42,,,,,,,f,None,,,1.3486484000022756,0.21589019999373704,,,,42,0,41,284.9498998999916,,,,,,,,,,,,,,,,,,,,,,,284.9351800000004,284.9498998999916,285.45029039999645,285.4337167999911,,,,,,,,,,,,,,,,,,,,,,,,,,285.44240739999805,285.45029039999645,285.45029039999645,285.45029039999645,288.43455919998814,f,288.4347684999957,,,288.4348304000014,None,,,288.45007369999075,288.45007369999075,288.45007369999075,1.3486484000022756,0.21589019999373704,,,,,,,,,,00028,001,2026-01-20_21h43.31.019,MST_task,2024.2.0,60.00481238766997,2026-01-20 21h43.37.434234 +0530,
,Scenes\143a.jpg,42,0,43,,,,,,,j,None,,,1.7125522999995155,0.19195459999900777,,,,43,0,42,288.45007369999075,,,,,,,,,,,,,,,,,,,,,,,288.43522049998865,288.45007369999075,288.9503515999968,288.93367600000056,,,,,,,,,,,,,,,,,,,,,,,,,,288.94598209999094,288.9503515999968,288.9503515999968,288.9503515999968,291.9355329999962,j,291.9357326999889,,,291.93579150000005,None,,,291.94973149998987,291.94973149998987,291.94973149998987,1.7125522999995155,0.19195459999900777,,,,,,,,,,00028,001,2026-01-20_21h43.31.019,MST_task,2024.2.0,60.00481238766997,2026-01-20 21h43.37.434234 +0530,
,Scenes\024a.jpg,43,0,44,,,,,,,j,None,,,0.9717988000047626,0.16841980000026524,,,,44,0,43,291.94973149998987,,,,,,,,,,,,,,,,,,,,,,,291.9361709999939,291.94973149998987,292.45059379999293,292.43436259999,,,,,,,,,,,,,,,,,,,,,,,,,,292.4452074000001,292.45059379999293,292.45059379999293,292.45059379999293,295.4342348999926,j,295.43445839999185,,,295.43452239999897,None,,,295.4500932999945,295.4500932999945,295.4500932999945,0.9717988000047626,0.16841980000026524,,,,,,,,,,00028,001,2026-01-20_21h43.31.019,MST_task,2024.2.0,60.00481238766997,2026-01-20 21h43.37.434234 +0530,
,Scenes\047a.jpg,44,0,45,,,,,,,j,None,,,1.1403458999993745,0.16826649999711663,,,,45,0,44,295.4500932999945,,,,,,,,,,,,,,,,,,,,,,,295.43492509999487,295.4500932999945,295.95426689999294,295.9337347999972,,,,,,,,,,,,,,,,,,,,,,,,,,295.95157130000007,295.95426689999294,295.95426689999294,295.95426689999294,298.95022049998806,j,298.9504501999909,,,298.95052049998776,None,,,,,,1.1403458999993745,0.16826649999711663,,,,,,,,,,00028,001,2026-01-20_21h43.31.019,MST_task,2024.2.0,60.00481238766997,2026-01-20 21h43.37.434234 +0530,
,Scenes\071a.jpg,45,0,46,,,,,,,j,None,,,1.7637563000025693,0.18345589999807999,,,,46,0,45,298.96645100000023,,,,,,,,,,,,,,,,,,,,,,,298.95094249999966,298.96645100000023,299.4671060999972,299.4504567999975,,,,,,,,,,,,,,,,,,,,,,,,,,299.4638639999903,299.4671060999972,299.4671060999972,299.4671060999972,302.4512415999925,j,302.45144309999887,,,302.4515001999971,None,,,302.46674799999164,302.46674799999164,302.46674799999164,1.7637563000025693,0.18345589999807999,,,,,,,,,,00028,001,2026-01-20_21h43.31.019,MST_task,2024.2.0,60.00481238766997,2026-01-20 21h43.37.434234 +0530,
,Scenes\111a.jpg,46,0,47,,,,,,,j,None,,,2.2945149000006495,0.1358844000060344,,,,47,0,46,302.46674799999164,,,,,,,,,,,,,,,,,,,,,,,302.4518066999881,302.46674799999164,302.9683598999982,302.950503,,,,,,,,,,,,,,,,,,,,,,,,,,302.9657225999981,302.9683598999982,302.9683598999982,302.9683598999982,305.96687949998886,j,305.9669597999891,,,305.9669770999899,None,,,,,,2.2945149000006495,0.1358844000060344,,,,,,,,,,00028,001,2026-01-20_21h43.31.019,MST_task,2024.2.0,60.00481238766997,2026-01-20 21h43.37.434234 +0530,
,Scenes\006a.jpg,47,0,48,,,,,,,f,None,,,1.8589127000013832,0.2074129999964498,,,,48,0,47,305.98331319999124,,,,,,,,,,,,,,,,,,,,,,,305.9671143999876,305.98331319999124,306.4839873999881,306.46717809999245,,,,,,,,,,,,,,,,,,,,,,,,,,306.48174879999715,306.4839873999881,306.4839873999881,306.4839873999881,309.46760969999013,f,309.46781079999346,,,309.4678680999932,None,,,309.48313509998843,309.48313509998843,309.48313509998843,1.8589127000013832,0.2074129999964498,,,,,,,,,,00028,001,2026-01-20_21h43.31.019,MST_task,2024.2.0,60.00481238766997,2026-01-20 21h43.37.434234 +0530,
,Scenes\160a.jpg,48,0,49,,,,,,,None,j,0.09476390000781976,None,,,,,,49,0,48,309.48313509998843,,,,,,,,,,,,,,,,,,,,,,,309.4681697999913,309.48313509998843,309.98454999999376,309.9671201000019,,,,,,,,,,,,,,,,,,,,,,,,,,309.9823442999914,309.98454999999376,309.98454999999376,309.98454999999376,312.983576300001,None,312.9837744999968,312.99964109998837,312.99964109998837,313.10040789999766,j,0.09476390000781976,None,,,,,,,,,,,,,,,00028,001,2026-01-20_21h43.31.019,MST_task,2024.2.0,60.00481238766997,2026-01-20 21h43.37.434234 +0530,
,Objects\181a.jpg,49,0,50,,,,,,,j,None,,,0.9098770999989938,0.15196719999948982,,,,50,0,49,313.116538199989,,,,,,,,,,,,,,,,,,,,,,,313.10081170000194,313.116538199989,313.61693899999955,313.60040929999377,,,,,,,,,,,,,,,,,,,,,,,,,,313.6113895000017,313.61693899999955,313.61693899999955,313.61693899999955,316.60120439999446,j,316.6014084999915,,,316.60146949999034,None,,,316.6167237999907,316.6167237999907,316.6167237999907,0.9098770999989938,0.15196719999948982,,,,,,,,,,00028,001,2026-01-20_21h43.31.019,MST_task,2024.2.0,60.00481238766997,2026-01-20 21h43.37.434234 +0530,
,Objects\109a.jpg,50,0,51,,,,,,,f,None,,,1.1775921000080416,0.19192509999265894,,,,51,0,50,316.6167237999907,,,,,,,,,,,,,,,,,,,,,,,316.60177499998827,316.6167237999907,317.1165958999918,317.1002687,,,,,,,,,,,,,,,,,,,,,,,,,,317.10884929999884,317.1165958999918,317.1165958999918,317.1165958999918,320.10123719999683,f,320.10145109999576,,,320.10150829999475,None,,,320.1167134999996,320.1167134999996,320.1167134999996,1.1775921000080416,0.19192509999265894,,,,,,,,,,00028,001,2026-01-20_21h43.31.019,MST_task,2024.2.0,60.00481238766997,2026-01-20 21h43.37.434234 +0530,
,Objects\044a.jpg,51,0,52,,,,,,,None,j,0.701745900005335,None,,,,,,52,0,51,320.1167134999996,,,,,,,,,,,,,,,,,,,,,,,320.1019049999886,320.1167134999996,320.6169254999986,320.6000114999915,,,,,,,,,,,,,,,,,,,,,,,,,,320.6096191999968,320.6169254999986,320.6169254999986,320.6169254999986,323.6013411999884,None,323.601516900002,323.6167717999924,323.6167717999924,324.33404560000054,j,0.701745900005335,None,323.6167717999924,323.6167717999924,323.6167717999924,,,,,,,,,,,,00028,001,2026-01-20_21h43.31.019,MST_task,2024.2.0,60.00481238766997,2026-01-20 21h43.37.434234 +0530,
,Objects\165a.jpg,52,0,53,,,,,,,f,None,,,0.9408137999998871,0.19140989999868907,,,,53,0,52,324.35006799999974,,,,,,,,,,,,,,,,,,,,,,,324.33441189999576,324.35006799999974,324.85001660000125,324.83341619999555,,,,,,,,,,,,,,,,,,,,,,,,,,324.84280669999134,324.85001660000125,324.85001660000125,324.85001660000125,327.8345133999974,f,327.83472639998945,,,327.8347917999927,None,,,327.8508956000005,327.8508956000005,327.8508956000005,0.9408137999998871,0.19140989999868907,,,,,,,,,,00028,001,2026-01-20_21h43.31.019,MST_task,2024.2.0,60.00481238766997,2026-01-20 21h43.37.434234 +0530,
,Objects\119a.jpg,53,0,54,,,,,,,None,f,0.15203959999780636,None,,,,,,54,0,53,327.8508956000005,,,,,,,,,,,,,,,,,,,,,,,327.8352026999928,327.8508956000005,328.3503391999984,328.33375039999373,,,,,,,,,,,,,,,,,,,,,,,,,,328.3424571999931,328.3503391999984,328.3503391999984,328.3503391999984,331.3345468999905,None,331.33472249998886,331.350093999994,331.350093999994,331.51732040000206,f,0.15203959999780636,None,331.350093999994,331.350093999994,331.350093999994,,,,,,,,,,,,00028,001,2026-01-20_21h43.31.019,MST_task,2024.2.0,60.00481238766997,2026-01-20 21h43.37.434234 +0530,
,Objects\028a.jpg,54,0,55,,,,,,,f,None,,,0.9092330999992555,0.20000879999133758,,,,55,0,54,331.5333268999966,,,,,,,,,,,,,,,,,,,,,,,331.51783799999976,331.5333268999966,332.0335546999995,332.01713379999273,,,,,,,,,,,,,,,,,,,,,,,,,,332.0260788999876,332.0335546999995,332.0335546999995,332.0335546999995,335.0181852999958,f,335.0183981000009,,,335.0184583999944,None,,,335.0331420000002,335.0331420000002,335.0331420000002,0.9092330999992555,0.20000879999133758,,,,,,,,,,00028,001,2026-01-20_21h43.31.019,MST_task,2024.2.0,60.00481238766997,2026-01-20 21h43.37.434234 +0530,
,Objects\134a.jpg,55,0,56,,,,,,,None,j,0.5128250999987358,None,,,,,,56,0,55,335.0331420000002,,,,,,,,,,,,,,,,,,,,,,,335.01882859999023,335.0331420000002,335.53358459999436,335.51712289999705,,,,,,,,,,,,,,,,,,,,,,,,,,335.5262713999982,335.53358459999436,335.53358459999436,335.53358459999436,338.51797659999283,None,338.5181689000019,338.53331729999627,338.53331729999627,339.0505850999907,j,0.5128250999987358,None,338.53331729999627,338.53331729999627,338.53331729999627,,,,,,,,,,,,00028,001,2026-01-20_21h43.31.019,MST_task,2024.2.0,60.00481238766997,2026-01-20 21h43.37.434234 +0530,
,Scenes\051a.jpg,56,0,57,,,,,,,j,None,,,1.0634683999960544,0.1995796999981394,,,,57,0,56,339.06672719999915,,,,,,,,,,,,,,,,,,,,,,,339.05103560000134,339.06672719999915,339.5673761999933,339.5504562999995,,,,,,,,,,,,,,,,,,,,,,,,,,339.56483119999757,339.5673761999933,339.5673761999933,339.5673761999933,342.5513135999936,j,342.551509500001,,,342.55156769999303,None,,,342.5672182999988,342.5672182999988,342.5672182999988,1.0634683999960544,0.1995796999981394,,,,,,,,,,00028,001,2026-01-20_21h43.31.019,MST_task,2024.2.0,60.00481238766997,2026-01-20 21h43.37.434234 +0530,
,Scenes\087a.jpg,57,0,58,,,,,,,j,None,,,1.5795967000012752,0.1839726000034716,,,,58,0,57,342.5672182999988,,,,,,,,,,,,,,,,,,,,,,,342.55195149999054,342.5672182999988,343.06722230000014,343.04996609999216,,,,,,,,,,,,,,,,,,,,,,,,,,343.0630228999944,343.06722230000014,343.06722230000014,343.06722230000014,346.0513218999986,j,346.0515269999887,,,346.0515841999877,None,,,346.0667410999886,346.0667410999886,346.0667410999886,1.5795967000012752,0.1839726000034716,,,,,,,,,,00028,001,2026-01-20_21h43.31.019,MST_task,2024.2.0,60.00481238766997,2026-01-20 21h43.37.434234 +0530,
,Scenes\137a.jpg,58,0,59,,,,,,,j,None,,,1.0063025999988895,0.14331069999025203,,,,59,0,58,346.0667410999886,,,,,,,,,,,,,,,,,,,,,,,346.05189919999975,346.0667410999886,346.5685000999947,346.550502099999,,,,,,,,,,,,,,,,,,,,,,,,,,346.56576459998905,346.5685000999947,346.5685000999947,346.5685000999947,349.5671413999953,j,349.5673565999896,,,349.5674283999979,None,,,,,,1.0063025999988895,0.14331069999025203,,,,,,,,,,00028,001,2026-01-20_21h43.31.019,MST_task,2024.2.0,60.00481238766997,2026-01-20 21h43.37.434234 +0530,
,Scenes\118a.jpg,59,0,60,,,,,,,j,None,,,1.8590627999947174,0.1606313000083901,,,,60,0,59,349.5830045999901,,,,,,,,,,,,,,,,,,,,,,,349.56783089999226,349.5830045999901,350.09109349999926,350.06700699999055,,,,,,,,,,,,,,,,,,,,,,,,,,350.08634149999125,350.09109349999926,350.09109349999926,350.09109349999926,353.08371819999593,j,353.08391489999485,,,353.0839784999989,None,,,,,,1.8590627999947174,0.1606313000083901,,,,,,,,,,00028,001,2026-01-20_21h43.31.019,MST_task,2024.2.0,60.00481238766997,2026-01-20 21h43.37.434234 +0530,
,Scenes\074a.jpg,60,0,61,,,,,,,j,None,,,1.1736376999906497,0.1679627999983495,,,,61,0,60,353.10006019999855,,,,,,,,,,,,,,,,,,,,,,,353.0843498999893,353.10006019999855,353.601202299993,353.58365929999854,,,,,,,,,,,,,,,,,,,,,,,,,,353.5986135999992,353.601202299993,353.601202299993,353.601202299993,356.60006050000084,j,356.60016339999856,,,356.600194499988,None,,,,,,1.1736376999906497,0.1679627999983495,,,,,,,,,,00028,001,2026-01-20_21h43.31.019,MST_task,2024.2.0,60.00481238766997,2026-01-20 21h43.37.434234 +0530,
,Scenes\140a.jpg,61,0,62,,,,,,,j,None,,,1.5377653000032296,0.16806699999142438,,,,62,0,61,356.61643470000126,,,,,,,,,,,,,,,,,,,,,,,356.6003847999964,356.61643470000126,357.1169593999948,357.1001208999951,,,,,,,,,,,,,,,,,,,,,,,,,,357.1144834000006,357.1169593999948,357.1169593999948,357.1169593999948,360.1004522000003,j,360.10065409999515,,,360.10071759999846,None,,,,,,1.5377653000032296,0.16806699999142438,,,,,,,,,,00028,001,2026-01-20_21h43.31.019,MST_task,2024.2.0,60.00481238766997,2026-01-20 21h43.37.434234 +0530,
,Scenes\018a.jpg,62,0,63,,,,,,,j,None,,,1.9144539999979315,0.175968900002772,,,,63,0,62,360.1164557000011,,,,,,,,,,,,,,,,,,,,,,,360.10108759999275,360.1164557000011,360.6199240999995,360.60049709999294,,,,,,,,,,,,,,,,,,,,,,,,,,360.6171813999972,360.6199240999995,360.6199240999995,360.6199240999995,363.61713800000143,j,363.6172957999952,,,363.6173453999945,None,,,,,,1.9144539999979315,0.175968900002772,,,,,,,,,,00028,001,2026-01-20_21h43.31.019,MST_task,2024.2.0,60.00481238766997,2026-01-20 21h43.37.434234 +0530,
,Objects\182a.jpg,63,0,64,,,,,,,f,None,,,1.2568971000000602,0.1675898999965284,,,,64,0,63,363.63299649998953,,,,,,,,,,,,,,,,,,,,,,,363.6175731999974,363.63299649998953,364.13384699999006,364.11717820000194,,,,,,,,,,,,,,,,,,,,,,,,,,364.128286399995,364.13384699999006,364.13384699999006,364.13384699999006,367.11770499999693,f,367.1179109999939,,,367.11796889999823,None,,,367.1332298999914,367.1332298999914,367.1332298999914,1.2568971000000602,0.1675898999965284,,,,,,,,,,00028,001,2026-01-20_21h43.31.019,MST_task,2024.2.0,60.00481238766997,2026-01-20 21h43.37.434234 +0530,
,Objects\163a.jpg,64,0,65,,,,,,,j,None,,,1.3085643000085838,0.16819159999431577,,,,65,0,64,367.1332298999914,,,,,,,,,,,,,,,,,,,,,,,367.11826439999277,367.1332298999914,367.6338354999898,367.61713279999094,,,,,,,,,,,,,,,,,,,,,,,,,,367.6257287999906,367.6338354999898,367.6338354999898,367.6338354999898,370.61767359999067,j,370.61780819999694,,,370.61784700000135,None,,,370.63302139998996,370.63302139998996,370.63302139998996,1.3085643000085838,0.16819159999431577,,,,,,,,,,00028,001,2026-01-20_21h43.31.019,MST_task,2024.2.0,60.00481238766997,2026-01-20 21h43.37.434234 +0530,
,Objects\068a.jpg,65,0,66,,,,,,,j,None,,,1.5124904999975115,0.1603952000004938,,,,66,0,65,370.63302139998996,,,,,,,,,,,,,,,,,,,,,,,370.6180403999897,370.63302139998996,371.1335764999967,371.1171789999935,,,,,,,,,,,,,,,,,,,,,,,,,,371.12657029999536,371.1335764999967,371.1335764999967,371.1335764999967,374.1179506999906,j,374.1181542999984,,,374.11821259999124,None,,,374.1331036999909,374.1331036999909,374.1331036999909,1.5124904999975115,0.1603952000004938,,,,,,,,,,00028,001,2026-01-20_21h43.31.019,MST_task,2024.2.0,60.00481238766997,2026-01-20 21h43.37.434234 +0530,
,Objects\030a.jpg,66,0,67,,,,,,,f,None,,,1.0915640000021085,0.20800889999372885,,,,67,0,66,374.1331036999909,,,,,,,,,,,,,,,,,,,,,,,374.1185020999983,374.1331036999909,374.63450549999834,374.616923900001,,,,,,,,,,,,,,,,,,,,,,,,,,374.6255636999995,374.63450549999834,374.63450549999834,374.63450549999834,377.6337559999956,f,377.6339341999992,,,377.6339682999969,None,,,,,,1.0915640000021085,0.20800889999372885,,,,,,,,,,00028,001,2026-01-20_21h43.31.019,MST_task,2024.2.0,60.00481238766997,2026-01-20 21h43.37.434234 +0530,
,Objects\052a.jpg,67,0,68,,,,,,,f,None,,,1.5764424000080908,0.1913258999993559,,,,68,0,67,377.6500672999973,,,,,,,,,,,,,,,,,,,,,,,377.6341734999878,377.6500672999973,378.15031479999016,378.1337346999935,,,,,,,,,,,,,,,,,,,,,,,,,,378.14285659999587,378.15031479999016,378.15031479999016,378.15031479999016,381.13457159999234,f,381.1347737999895,,,381.13483279998763,None,,,381.150092099997,381.150092099997,381.150092099997,1.5764424000080908,0.1913258999993559,,,,,,,,,,00028,001,2026-01-20_21h43.31.019,MST_task,2024.2.0,60.00481238766997,2026-01-20 21h43.37.434234 +0530,
,Objects\185a.jpg,68,0,69,,,,,,,f,None,,,2.1323479999991832,0.2157009999937145,,,,69,0,68,381.150092099997,,,,,,,,,,,,,,,,,,,,,,,381.1351377999963,381.150092099997,381.65030449999904,381.6334695999976,,,,,,,,,,,,,,,,,,,,,,,,,,381.6421252,381.65030449999904,381.65030449999904,381.65030449999904,384.6344916999951,f,384.6346909999993,,,384.6347490999906,None,,,384.6500701999903,384.6500701999903,384.6500701999903,2.1323479999991832,0.2157009999937145,,,,,,,,,,00028,001,2026-01-20_21h43.31.019,MST_task,2024.2.0,60.00481238766997,2026-01-20 21h43.37.434234 +0530,
,Objects\120a.jpg,69,0,70,,,,,,,f,None,,,1.0404180999903474,0.20799550000810996,,,,70,0,69,384.6500701999903,,,,,,,,,,,,,,,,,,,,,,,384.6351231000008,384.6500701999903,385.15035479998915,385.1337674999959,,,,,,,,,,,,,,,,,,,,,,,,,,385.14250809999066,385.15035479998915,385.15035479998915,385.15035479998915,388.134307100001,f,388.1344994999963,,,388.13455819999217,None,,,388.14989149999747,388.14989149999747,388.14989149999747,1.0404180999903474,0.20799550000810996,,,,,,,,,,00028,001,2026-01-20_21h43.31.019,MST_task,2024.2.0,60.00481238766997,2026-01-20 21h43.37.434234 +0530,
,Scenes\035a.jpg,70,0,71,,,,,,,None,j,0.9560569999885047,None,,,,,,71,0,70,388.14989149999747,,,,,,,,,,,,,,,,,,,,,,,388.1348377999966,388.14989149999747,388.65384749999794,388.63371650000045,,,,,,,,,,,,,,,,,,,,,,,,,,388.65126969999983,388.65384749999794,388.65384749999794,388.65384749999794,391.65049269999145,None,391.65067979999003,391.66674429998966,391.66674429998966,392.6335378999938,j,0.9560569999885047,None,,,,,,,,,,,,,,,00028,001,2026-01-20_21h43.31.019,MST_task,2024.2.0,60.00481238766997,2026-01-20 21h43.37.434234 +0530,
,Scenes\133a.jpg,71,0,72,,,,,,,j,None,,,0.8163160000112839,0.11998049999237992,,,,72,0,71,392.65006529999664,,,,,,,,,,,,,,,,,,,,,,,392.6338779999933,392.65006529999664,393.15843889999087,393.13371979999647,,,,,,,,,,,,,,,,,,,,,,,,,,393.15546709999035,393.15843889999087,393.15843889999087,393.15843889999087,396.150330199991,j,396.150581599999,,,396.15065250000043,None,,,,,,0.8163160000112839,0.11998049999237992,,,,,,,,,,00028,001,2026-01-20_21h43.31.019,MST_task,2024.2.0,60.00481238766997,2026-01-20 21h43.37.434234 +0530,
,Scenes\059a.jpg,72,0,73,,,,,,,j,None,,,0.9785044000018388,0.15992400000686757,,,,73,0,72,396.1664829999936,,,,,,,,,,,,,,,,,,,,,,,396.1510616999876,396.1664829999936,396.66833580000093,396.65009270000155,,,,,,,,,,,,,,,,,,,,,,,,,,396.6654228999978,396.66833580000093,396.66833580000093,396.66833580000093,399.6670133000007,j,399.6672405999998,,,399.6673126999958,None,,,,,,0.9785044000018388,0.15992400000686757,,,,,,,,,,00028,001,2026-01-20_21h43.31.019,MST_task,2024.2.0,60.00481238766997,2026-01-20 21h43.37.434234 +0530,
,Scenes\013a.jpg,73,0,74,,,,,,,None,j,0.9022691999998642,None,,,,,,74,0,73,399.68335729998944,,,,,,,,,,,,,,,,,,,,,,,399.66772669999045,399.68335729998944,400.1904910000012,400.1671607999888,,,,,,,,,,,,,,,,,,,,,,,,,,400.1876670999918,400.1904910000012,400.1904910000012,400.1904910000012,403.1837392000016,None,403.1839220999973,403.199829899997,403.199829899997,404.1170454999956,j,0.9022691999998642,None,,,,,,,,,,,,,,,00028,001,2026-01-20_21h43.31.019,MST_task,2024.2.0,60.00481238766997,2026-01-20 21h43.37.434234 +0530,
,Scenes\178a.jpg,74,0,75,,,,,,,j,None,,,1.1153686000034213,0.17614189999585506,,,,75,0,74,404.13334020000184,,,,,,,,,,,,,,,,,,,,,,,404.11754700000165,404.13334020000184,404.6348643999954,404.6171342000016,,,,,,,,,,,,,,,,,,,,,,,,,,404.63223629999266,404.6348643999954,404.6348643999954,404.6348643999954,407.6337574999925,j,407.63396549999015,,,407.63403489999473,None,,,,,,1.1153686000034213,0.17614189999585506,,,,,,,,,,00028,001,2026-01-20_21h43.31.019,MST_task,2024.2.0,60.00481238766997,2026-01-20 21h43.37.434234 +0530,
,Scenes\103a.jpg,75,0,76,,,,,,,j,None,,,0.7957710000046063,0.19226110000454355,,,,76,0,75,407.6501227999979,,,,,,,,,,,,,,,,,,,,,,,407.6343491000007,407.6501227999979,408.1544586999953,408.133771599998,,,,,,,,,,,,,,,,,,,,,,,,,,408.1518234999967,408.1544586999953,408.1544586999953,408.1544586999953,411.1502722000005,j,411.1504691000009,,,411.150527699996,None,,,,,,0.7957710000046063,0.19226110000454355,,,,,,,,,,00028,001,2026-01-20_21h43.31.019,MST_task,2024.2.0,60.00481238766997,2026-01-20 21h43.37.434234 +0530,
,Scenes\162a.jpg,76,0,77,,,,,,,j,None,,,1.1395902999938698,0.17587550000462215,,,,77,0,76,411.16659799999616,,,,,,,,,,,,,,,,,,,,,,,411.15092039998854,411.16659799999616,411.6671895999898,411.6501369999896,,,,,,,,,,,,,,,,,,,,,,,,,,411.6639095999999,411.6671895999898,411.6671895999898,411.6671895999898,414.65131269999256,j,414.65152329999546,,,414.6515808999975,None,,,414.66672290000133,414.66672290000133,414.66672290000133,1.1395902999938698,0.17587550000462215,,,,,,,,,,00028,001,2026-01-20_21h43.31.019,MST_task,2024.2.0,60.00481238766997,2026-01-20 21h43.37.434234 +0530,
,Objects\082a.jpg,77,0,78,,,,,,,j,None,,,1.1179349000012735,0.14455919999454636,,,,78,0,77,414.66672290000133,,,,,,,,,,,,,,,,,,,,,,,414.6519508999918,414.66672290000133,415.1682269000012,415.15050709999923,,,,,,,,,,,,,,,,,,,,,,,,,,415.1636937000003,415.1682269000012,415.1682269000012,415.1682269000012,418.1671379999898,j,418.1673630000005,,,418.1674278999999,None,,,,,,1.1179349000012735,0.14455919999454636,,,,,,,,,,00028,001,2026-01-20_21h43.31.019,MST_task,2024.2.0,60.00481238766997,2026-01-20 21h43.37.434234 +0530,
,Objects\004a.jpg,78,0,79,,,,,,,f,None,,,1.595181800003047,0.2159691999986535,,,,79,0,78,418.183583799997,,,,,,,,,,,,,,,,,,,,,,,418.1677973999904,418.183583799997,418.6835473999963,418.6671701999876,,,,,,,,,,,,,,,,,,,,,,,,,,418.6766953999904,418.6835473999963,418.6835473999963,418.6835473999963,421.6677970000019,f,421.6680048999988,,,421.66806429999997,None,,,421.6831421999959,421.6831421999959,421.6831421999959,1.595181800003047,0.2159691999986535,,,,,,,,,,00028,001,2026-01-20_21h43.31.019,MST_task,2024.2.0,60.00481238766997,2026-01-20 21h43.37.434234 +0530,
,Objects\172a.jpg,79,0,80,,,,,,,j,None,,,1.2865882000041893,0.16857229999732226,,,,80,0,79,421.6831421999959,,,,,,,,,,,,,,,,,,,,,,,421.66837079999095,421.6831421999959,422.1835422000004,422.16717469999276,,,,,,,,,,,,,,,,,,,,,,,,,,422.17630059999647,422.1835422000004,422.1835422000004,422.1835422000004,425.1679170999996,j,425.1681125999894,,,425.1681687999953,None,,,425.18395880000025,425.18395880000025,425.18395880000025,1.2865882000041893,0.16857229999732226,,,,,,,,,,00028,001,2026-01-20_21h43.31.019,MST_task,2024.2.0,60.00481238766997,2026-01-20 21h43.37.434234 +0530,
,Objects\038a.jpg,80,0,81,,,,,,,f,None,,,1.0111672000057297,0.22417039998981636,,,,81,0,80,425.18395880000025,,,,,,,,,,,,,,,,,,,,,,,425.1685446999909,425.18395880000025,425.6835829999909,425.66712559999723,,,,,,,,,,,,,,,,,,,,,,,,,,425.6756552000006,425.6835829999909,425.6835829999909,425.6835829999909,428.667902199988,f,428.66809749999084,,,428.66815430000133,None,,,428.6837128999905,428.6837128999905,428.6837128999905,1.0111672000057297,0.22417039998981636,,,,,,,,,,00028,001,2026-01-20_21h43.31.019,MST_task,2024.2.0,60.00481238766997,2026-01-20 21h43.37.434234 +0530,
,Objects\180a.jpg,81,0,82,,,,,,,f,None,,,0.982475600001635,0.20861289999447763,,,,82,0,81,428.6837128999905,,,,,,,,,,,,,,,,,,,,,,,428.6685252999887,428.6837128999905,429.1835998999886,429.1671250999934,,,,,,,,,,,,,,,,,,,,,,,,,,429.1762879000016,429.1835998999886,429.1835998999886,429.1835998999886,432.1678258999891,f,432.1680202999996,,,432.1680778000009,None,,,432.1829560999904,432.1829560999904,432.1829560999904,0.982475600001635,0.20861289999447763,,,,,,,,,,00028,001,2026-01-20_21h43.31.019,MST_task,2024.2.0,60.00481238766997,2026-01-20 21h43.37.434234 +0530,
,Objects\093a.jpg,82,0,83,,,,,,,j,None,,,1.5153974999993807,0.16740009999193717,,,,83,0,82,432.1829560999904,,,,,,,,,,,,,,,,,,,,,,,432.1683735999977,432.1829560999904,432.68329950000043,432.6671306999924,,,,,,,,,,,,,,,,,,,,,,,,,,432.67589639998914,432.68329950000043,432.68329950000043,432.68329950000043,435.6678957999975,j,435.6680969000008,,,435.66815459998907,None,,,435.6833576999925,435.6833576999925,435.6833576999925,1.5153974999993807,0.16740009999193717,,,,,,,,,,00028,001,2026-01-20_21h43.31.019,MST_task,2024.2.0,60.00481238766997,2026-01-20 21h43.37.434234 +0530,
,Objects\145a.jpg,83,0,84,,,,,,,f,None,,,1.1824860000051558,0.17608710000058636,,,,84,0,83,435.6833576999925,,,,,,,,,,,,,,,,,,,,,,,435.6684521999996,435.6833576999925,436.1836236999952,436.1671351999976,,,,,,,,,,,,,,,,,,,,,,,,,,436.1759667000006,436.1836236999952,436.1836236999952,436.1836236999952,439.1682776999951,f,439.16849659998843,,,439.1685601999925,None,,,439.18303809998906,439.18303809998906,439.18303809998906,1.1824860000051558,0.17608710000058636,,,,,,,,,,00028,001,2026-01-20_21h43.31.019,MST_task,2024.2.0,60.00481238766997,2026-01-20 21h43.37.434234 +0530,
,Scenes\109a.jpg,84,0,85,,,,,,,j,None,,,1.4589913999952842,0.16799240000545979,,,,85,0,84,439.18303809998906,,,,,,,,,,,,,,,,,,,,,,,439.16897759999847,439.18303809998906,439.68353879998904,439.66712889999326,,,,,,,,,,,,,,,,,,,,,,,,,,439.678224999996,439.68353879998904,439.68353879998904,439.68353879998904,442.66808709999896,j,442.6682885999908,,,442.6683459999913,None,,,442.6832357999956,442.6832357999956,442.6832357999956,1.4589913999952842,0.16799240000545979,,,,,,,,,,00028,001,2026-01-20_21h43.31.019,MST_task,2024.2.0,60.00481238766997,2026-01-20 21h43.37.434234 +0530,
,Scenes\017a.jpg,85,0,86,,,,,,,f,None,,,2.55477719999908,0.17593920000945218,,,,86,0,85,442.6832357999956,,,,,,,,,,,,,,,,,,,,,,,442.66863790000207,442.6832357999956,443.18733449999127,443.1669545999903,,,,,,,,,,,,,,,,,,,,,,,,,,443.18457040000067,443.18733449999127,443.18733449999127,443.18733449999127,446.1834588999918,f,446.1836642999988,,,446.1837316000019,None,,,,,,2.55477719999908,0.17593920000945218,,,,,,,,,,00028,001,2026-01-20_21h43.31.019,MST_task,2024.2.0,60.00481238766997,2026-01-20 21h43.37.434234 +0530,
,Scenes\092a.jpg,86,0,87,,,,,,,j,None,,,1.6139477000106126,0.19266339999740012,,,,87,0,86,446.19968289999815,,,,,,,,,,,,,,,,,,,,,,,446.18410149999545,446.19968289999815,446.7040688999987,446.6836811999965,,,,,,,,,,,,,,,,,,,,,,,,,,446.70128559999284,446.7040688999987,446.7040688999987,446.7040688999987,449.70045659999596,j,449.7006553999963,,,449.70071859999734,None,,,,,,1.6139477000106126,0.19266339999740012,,,,,,,,,,00028,001,2026-01-20_21h43.31.019,MST_task,2024.2.0,60.00481238766997,2026-01-20 21h43.37.434234 +0530,
,Scenes\126a.jpg,87,0,88,,,,,,,j,None,,,1.3589638999983435,0.1604663000034634,,,,88,0,87,449.71673369999917,,,,,,,,,,,,,,,,,,,,,,,449.70101419999264,449.71673369999917,450.22327740000037,450.2005202,,,,,,,,,,,,,,,,,,,,,,,,,,450.2205463999999,450.22327740000037,450.22327740000037,450.22327740000037,453.21715640000184,j,453.2173589000013,,,453.2174221999885,None,,,,,,1.3589638999983435,0.1604663000034634,,,,,,,,,,00028,001,2026-01-20_21h43.31.019,MST_task,2024.2.0,60.00481238766997,2026-01-20 21h43.37.434234 +0530,
,Scenes\176a.jpg,88,0,89,,,,,,,j,None,,,0.8814385000005132,0.19201210000028368,,,,89,0,88,453.2333457999921,,,,,,,,,,,,,,,,,,,,,,,453.2177915999928,453.2333457999921,453.74126159999287,453.717132699996,,,,,,,,,,,,,,,,,,,,,,,,,,453.7385957999941,453.74126159999287,453.74126159999287,453.74126159999287,456.7336457999918,j,456.73385989999224,,,456.73392169999715,None,,,,,,0.8814385000005132,0.19201210000028368,,,,,,,,,,00028,001,2026-01-20_21h43.31.019,MST_task,2024.2.0,60.00481238766997,2026-01-20 21h43.37.434234 +0530,
,Scenes\004a.jpg,89,0,90,,,,,,,j,None,,,1.1438452000002144,0.14366759998665657,,,,90,0,89,456.74972680000064,,,,,,,,,,,,,,,,,,,,,,,456.73422139999457,456.74972680000064,457.25457849999657,457.23379109999223,,,,,,,,,,,,,,,,,,,,,,,,,,457.2518463000015,457.25457849999657,457.25457849999657,457.25457849999657,460.25027079999563,j,460.2504908999981,,,460.2505592999951,None,,,,,,1.1438452000002144,0.14366759998665657,,,,,,,,,,00028,001,2026-01-20_21h43.31.019,MST_task,2024.2.0,60.00481238766997,2026-01-20 21h43.37.434234 +0530,
,Scenes\058a.jpg,90,0,91,,,,,,,f,None,,,0.9650433999922825,0.19997499999590218,,,,91,0,90,460.266758400001,,,,,,,,,,,,,,,,,,,,,,,460.2509602999926,460.266758400001,460.7691601999977,460.7504627999879,,,,,,,,,,,,,,,,,,,,,,,,,,460.76640969999426,460.7691601999977,460.7691601999977,460.7691601999977,463.76693579999846,f,463.76715319999494,,,463.7672181999951,None,,,,,,0.9650433999922825,0.19997499999590218,,,,,,,,,,00028,001,2026-01-20_21h43.31.019,MST_task,2024.2.0,60.00481238766997,2026-01-20 21h43.37.434234 +0530,
,Objects\047a.jpg,91,0,92,,,,,,,f,None,,,1.1947464000113541,0.1913839999906486,,,,92,0,91,463.7833305999957,,,,,,,,,,,,,,,,,,,,,,,463.767620300001,463.7833305999957,464.2839271999983,464.26701749999484,,,,,,,,,,,,,,,,,,,,,,,,,,464.2762340999907,464.2839271999983,464.2839271999983,464.2839271999983,467.2680144999904,f,467.26820659999794,,,467.2682642,None,,,467.2830574999971,467.2830574999971,467.2830574999971,1.1947464000113541,0.1913839999906486,,,,,,,,,,00028,001,2026-01-20_21h43.31.019,MST_task,2024.2.0,60.00481238766997,2026-01-20 21h43.37.434234 +0530,
,Objects\161a.jpg,92,0,93,,,,,,,None,j,0.2708680999930948,None,,,,,,93,0,92,467.2830574999971,,,,,,,,,,,,,,,,,,,,,,,467.26862560000154,467.2830574999971,467.7836296999885,467.7671358999942,,,,,,,,,,,,,,,,,,,,,,,,,,467.77634929999476,467.7836296999885,467.7836296999885,467.7836296999885,470.76790659999824,None,470.7680832999904,470.78334569999424,470.78334569999424,471.0671599999914,j,0.2708680999930948,None,470.78334569999424,470.78334569999424,470.78334569999424,,,,,,,,,,,,00028,001,2026-01-20_21h43.31.019,MST_task,2024.2.0,60.00481238766997,2026-01-20 21h43.37.434234 +0530,
,Objects\075a.jpg,93,0,94,,,,,,,f,None,,,1.2072908999980427,0.21533540000382345,,,,94,0,93,471.0833367999876,,,,,,,,,,,,,,,,,,,,,,,471.0674968999956,471.0833367999876,471.5833810999902,471.5668159999914,,,,,,,,,,,,,,,,,,,,,,,,,,471.5744424000004,471.5833810999902,471.5833810999902,471.5833810999902,474.56791479999083,f,474.5681138999935,,,474.5681729999924,None,,,474.5833416999958,474.5833416999958,474.5833416999958,1.2072908999980427,0.21533540000382345,,,,,,,,,,00028,001,2026-01-20_21h43.31.019,MST_task,2024.2.0,60.00481238766997,2026-01-20 21h43.37.434234 +0530,
,Objects\035a.jpg,94,0,95,,,,,,,f,None,,,1.2994726000033552,0.2394503999967128,,,,95,0,94,474.5833416999958,,,,,,,,,,,,,,,,,,,,,,,474.56855189999624,474.5833416999958,475.08322309999494,475.0667339999927,,,,,,,,,,,,,,,,,,,,,,,,,,475.0734350999992,475.08322309999494,475.08322309999494,475.08322309999494,478.06799179999507,f,478.0682001999958,,,478.06826549999823,None,,,478.0832803999947,478.0832803999947,478.0832803999947,1.2994726000033552,0.2394503999967128,,,,,,,,,,00028,001,2026-01-20_21h43.31.019,MST_task,2024.2.0,60.00481238766997,2026-01-20 21h43.37.434234 +0530,
,Objects\076a.jpg,95,0,96,,,,,,,j,None,,,1.5990558000048622,0.16742279999016318,,,,96,0,95,478.0832803999947,,,,,,,,,,,,,,,,,,,,,,,478.0686002000002,478.0832803999947,478.5835687999934,478.56714049998845,,,,,,,,,,,,,,,,,,,,,,,,,,478.5758421999926,478.5835687999934,478.5835687999934,478.5835687999934,481.56793710000056,j,481.5681412999984,,,481.56821329999366,None,,,481.58336409999174,481.58336409999174,481.58336409999174,1.5990558000048622,0.16742279999016318,,,,,,,,,,00028,001,2026-01-20_21h43.31.019,MST_task,2024.2.0,60.00481238766997,2026-01-20 21h43.37.434234 +0530,
,Objects\092a.jpg,96,0,97,,,,,,,f,None,,,1.9865457999985665,0.18427019999944605,,,,97,0,96,481.58336409999174,,,,,,,,,,,,,,,,,,,,,,,481.5685953999928,481.58336409999174,482.0835456999921,482.0671311999904,,,,,,,,,,,,,,,,,,,,,,,,,,482.07397259998834,482.0835456999921,482.0835456999921,482.0835456999921,485.0679531999922,f,485.0681431999983,,,485.0681992999889,None,,,485.08379029999196,485.08379029999196,485.08379029999196,1.9865457999985665,0.18427019999944605,,,,,,,,,,00028,001,2026-01-20_21h43.31.019,MST_task,2024.2.0,60.00481238766997,2026-01-20 21h43.37.434234 +0530,
,Objects\124a.jpg,97,0,98,,,,,,,f,None,,,1.3752881999971578,0.19162759999744594,,,,98,0,97,485.08379029999196,,,,,,,,,,,,,,,,,,,,,,,485.068572499993,485.08379029999196,485.58315649999713,485.5671328999888,,,,,,,,,,,,,,,,,,,,,,,,,,485.57313279999653,485.58315649999713,485.58315649999713,485.58315649999713,488.5679139999993,f,488.5681094999891,,,488.56816889999027,None,,,488.5844286999927,488.5844286999927,488.5844286999927,1.3752881999971578,0.19162759999744594,,,,,,,,,,00028,001,2026-01-20_21h43.31.019,MST_task,2024.2.0,60.00481238766997,2026-01-20 21h43.37.434234 +0530,
,Scenes\139a.jpg,98,0,99,,,,,,,j,None,,,2.234154599995236,0.19201020000036806,,,,99,0,98,488.5844286999927,,,,,,,,,,,,,,,,,,,,,,,488.56854139998904,488.5844286999927,489.0838541999983,489.0671844999888,,,,,,,,,,,,,,,,,,,,,,,,,,489.07706899999175,489.0838541999983,489.0838541999983,489.0838541999983,492.0679658000008,j,492.0681564999977,,,492.0682158999989,None,,,492.0832393999881,492.0832393999881,492.0832393999881,2.234154599995236,0.19201020000036806,,,,,,,,,,00028,001,2026-01-20_21h43.31.019,MST_task,2024.2.0,60.00481238766997,2026-01-20 21h43.37.434234 +0530,
,Scenes\112a.jpg,99,0,100,,,,,,,None,j,0.7826392999995733,None,,,,,,100,0,99,492.0832393999881,,,,,,,,,,,,,,,,,,,,,,,492.06858939999074,492.0832393999881,492.5861952999985,492.5671600999922,,,,,,,,,,,,,,,,,,,,,,,,,,492.5834934000013,492.5861952999985,492.5861952999985,492.5861952999985,495.58359799999744,None,495.5837845999922,495.600082799996,495.600082799996,496.38397019999684,j,0.7826392999995733,None,,,,,,,,,,,,,,,00028,001,2026-01-20_21h43.31.019,MST_task,2024.2.0,60.00481238766997,2026-01-20 21h43.37.434234 +0530,
,Scenes\079a.jpg,100,0,101,,,,,,,j,None,,,1.0259862000093563,0.19160079999710433,,,,101,0,100,496.4000682999904,,,,,,,,,,,,,,,,,,,,,,,496.38430349998816,496.4000682999904,496.90041129999736,496.8833256999933,,,,,,,,,,,,,,,,,,,,,,,,,,496.89706189998833,496.90041129999736,496.90041129999736,496.90041129999736,499.8836673999904,j,499.88372789999994,,,499.88374259999546,None,,,499.8996853999997,499.8996853999997,499.8996853999997,1.0259862000093563,0.19160079999710433,,,,,,,,,,00028,001,2026-01-20_21h43.31.019,MST_task,2024.2.0,60.00481238766997,2026-01-20 21h43.37.434234 +0530,
,Scenes\003a.jpg,101,0,102,,,,,,,j,None,,,1.1062877000076696,0.13539280000259168,,,,102,0,101,499.8996853999997,,,,,,,,,,,,,,,,,,,,,,,499.8838468999893,499.8996853999997,500.40453369999886,500.3836777999968,,,,,,,,,,,,,,,,,,,,,,,,,,500.4018638999987,500.40453369999886,500.40453369999886,500.40453369999886,503.40047339999,j,503.40067669999553,,,503.4007397999958,None,,,,,,1.1062877000076696,0.13539280000259168,,,,,,,,,,00028,001,2026-01-20_21h43.31.019,MST_task,2024.2.0,60.00481238766997,2026-01-20 21h43.37.434234 +0530,
,Scenes\032a.jpg,102,0,103,,,,,,,j,None,,,2.5418417000037152,0.16862509999191388,,,,103,0,102,503.4172619000019,,,,,,,,,,,,,,,,,,,,,,,503.401105500001,503.4172619000019,503.9282089999906,503.900536599991,,,,,,,,,,,,,,,,,,,,,,,,,,503.92527939999127,503.9282089999906,503.9282089999906,503.9282089999906,506.91718109999783,j,506.91739209998923,,,506.9174612999923,None,,,,,,2.5418417000037152,0.16862509999191388,,,,,,,,,,00028,001,2026-01-20_21h43.31.019,MST_task,2024.2.0,60.00481238766997,2026-01-20 21h43.37.434234 +0530,
,Scenes\149a.jpg,103,0,104,,,,,,,j,None,,,1.6791359999915585,0.1926594000105979,,,,104,0,103,506.93337329999486,,,,,,,,,,,,,,,,,,,,,,,506.9177766999928,506.93337329999486,507.4389126999886,507.4172633999988,,,,,,,,,,,,,,,,,,,,,,,,,,507.43624889999046,507.4389126999886,507.4389126999886,507.4389126999886,510.43385000000126,j,510.4340591999935,,,510.4341291000019,None,,,,,,1.6791359999915585,0.1926594000105979,,,,,,,,,,00028,001,2026-01-20_21h43.31.019,MST_task,2024.2.0,60.00481238766997,2026-01-20 21h43.37.434234 +0530,
,Scenes\174a.jpg,104,0,105,,,,,,,j,None,,,0.9011290999915218,0.1602153999992879,,,,105,0,104,510.4502424999955,,,,,,,,,,,,,,,,,,,,,,,510.43444949999684,510.4502424999955,510.953588999997,510.9335456999979,,,,,,,,,,,,,,,,,,,,,,,,,,510.9513153000007,510.953588999997,510.953588999997,510.953588999997,513.9505294999981,j,513.950732199999,,,513.9507951999985,None,,,,,,0.9011290999915218,0.1602153999992879,,,,,,,,,,00028,001,2026-01-20_21h43.31.019,MST_task,2024.2.0,60.00481238766997,2026-01-20 21h43.37.434234 +0530,
,Objects\061a.jpg,105,0,106,,,,,,,j,None,,,2.5866605999908643,0.16057870000076946,,,,106,0,105,513.9664286999905,,,,,,,,,,,,,,,,,,,,,,,513.9510908999946,513.9664286999905,514.4673943999951,514.4505333999987,,,,,,,,,,,,,,,,,,,,,,,,,,514.4634615999967,514.4673943999951,514.4673943999951,514.4673943999951,517.4512874999928,j,517.4514858999901,,,517.4515437999944,None,,,517.4666314999922,517.4666314999922,517.4666314999922,2.5866605999908643,0.16057870000076946,,,,,,,,,,00028,001,2026-01-20_21h43.31.019,MST_task,2024.2.0,60.00481238766997,2026-01-20 21h43.37.434234 +0530,
,Objects\019a.jpg,106,0,107,,,,,,,f,None,,,0.9991526999947382,0.16825889999745414,,,,107,0,106,517.4666314999922,,,,,,,,,,,,,,,,,,,,,,,517.4519219999929,517.4666314999922,517.9669321999972,517.9504966999957,,,,,,,,,,,,,,,,,,,,,,,,,,517.9573385999975,517.9669321999972,517.9669321999972,517.9669321999972,520.9512623999908,f,520.9514722999884,,,520.9515478999965,None,,,520.9664343999902,520.9664343999902,520.9664343999902,0.9991526999947382,0.16825889999745414,,,,,,,,,,00028,001,2026-01-20_21h43.31.019,MST_task,2024.2.0,60.00481238766997,2026-01-20 21h43.37.434234 +0530,
,Objects\121a.jpg,107,0,108,,,,,,,f,None,,,1.0992734000028577,0.1925450999988243,,,,108,0,107,520.9664343999902,,,,,,,,,,,,,,,,,,,,,,,520.9518561000004,520.9664343999902,521.4668009999878,521.4503828000015,,,,,,,,,,,,,,,,,,,,,,,,,,521.4593847999931,521.4668009999878,521.4668009999878,521.4668009999878,524.4512637000007,f,524.4514592999913,,,524.4515175999986,None,,,524.4664980999951,524.4664980999951,524.4664980999951,1.0992734000028577,0.1925450999988243,,,,,,,,,,00028,001,2026-01-20_21h43.31.019,MST_task,2024.2.0,60.00481238766997,2026-01-20 21h43.37.434234 +0530,
,Objects\136a.jpg,108,0,109,,,,,,,f,None,,,0.8079184000089299,0.19997719999810215,,,,109,0,108,524.4664980999951,,,,,,,,,,,,,,,,,,,,,,,524.4518217000004,524.4664980999951,524.9667321999877,524.9504439000011,,,,,,,,,,,,,,,,,,,,,,,,,,524.9594672999956,524.9667321999877,524.9667321999877,524.9667321999877,527.9513804000017,f,527.9515952999936,,,527.9516583999939,None,,,527.9666097000008,527.9666097000008,527.9666097000008,0.8079184000089299,0.19997719999810215,,,,,,,,,,00028,001,2026-01-20_21h43.31.019,MST_task,2024.2.0,60.00481238766997,2026-01-20 21h43.37.434234 +0530,
,Objects\154a.jpg,109,0,110,,,,,,,f,None,,,2.1716721999982838,0.18399020000651944,,,,110,0,109,527.9666097000008,,,,,,,,,,,,,,,,,,,,,,,527.9520527999994,527.9666097000008,528.466944499989,528.450480399988,,,,,,,,,,,,,,,,,,,,,,,,,,528.4592002999998,528.466944499989,528.466944499989,528.466944499989,531.4513242999965,f,531.4515526999894,,,531.4516167999973,None,,,531.4668313000002,531.4668313000002,531.4668313000002,2.1716721999982838,0.18399020000651944,,,,,,,,,,00028,001,2026-01-20_21h43.31.019,MST_task,2024.2.0,60.00481238766997,2026-01-20 21h43.37.434234 +0530,
,Objects\040a.jpg,110,0,111,,,,,,,f,None,,,0.8237781999923754,0.16754780001065228,,,,111,0,110,531.4668313000002,,,,,,,,,,,,,,,,,,,,,,,531.4520301000011,531.4668313000002,531.9668685999932,531.9504881999892,,,,,,,,,,,,,,,,,,,,,,,,,,531.9598532999953,531.9668685999932,531.9668685999932,531.9668685999932,534.9508815000008,f,534.9510745000007,,,534.9511314999982,None,,,534.9663751999906,534.9663751999906,534.9663751999906,0.8237781999923754,0.16754780001065228,,,,,,,,,,00028,001,2026-01-20_21h43.31.019,MST_task,2024.2.0,60.00481238766997,2026-01-20 21h43.37.434234 +0530,
,Objects\187a.jpg,111,0,112,,,,,,,f,None,,,1.090911999999662,0.19212349998997524,,,,112,0,111,534.9663751999906,,,,,,,,,,,,,,,,,,,,,,,534.9514256999973,534.9663751999906,535.4670047999971,535.4504761999997,,,,,,,,,,,,,,,,,,,,,,,,,,535.4596746999887,535.4670047999971,535.4670047999971,535.4670047999971,538.4513684999984,f,538.4515623999905,,,538.4516217999917,None,,,538.466746399994,538.466746399994,538.466746399994,1.090911999999662,0.19212349998997524,,,,,,,,,,00028,001,2026-01-20_21h43.31.019,MST_task,2024.2.0,60.00481238766997,2026-01-20 21h43.37.434234 +0530,
,Scenes\060a.jpg,112,0,113,,,,,,,j,None,,,1.0205738999939058,0.15159500000299886,,,,113,0,112,538.466746399994,,,,,,,,,,,,,,,,,,,,,,,538.4519958999881,538.466746399994,538.9700971999991,538.9504977999895,,,,,,,,,,,,,,,,,,,,,,,,,,538.9675541999895,538.9700971999991,538.9700971999991,538.9700971999991,541.9671866999997,j,541.9674028000009,,,541.9674721999909,None,,,,,,1.0205738999939058,0.15159500000299886,,,,,,,,,,00028,001,2026-01-20_21h43.31.019,MST_task,2024.2.0,60.00481238766997,2026-01-20 21h43.37.434234 +0530,
,Scenes\034a.jpg,113,0,114,,,,,,,j,None,,,1.7239316999912262,0.16773870000906754,,,,114,0,113,541.9832961999928,,,,,,,,,,,,,,,,,,,,,,,541.9678673999879,541.9832961999928,542.4989914999896,542.4669102999906,,,,,,,,,,,,,,,,,,,,,,,,,,542.4959388999996,542.4989914999896,542.4989914999896,542.4989914999896,545.483787899997,j,545.4840053999942,,,545.484077000001,None,,,,,,1.7239316999912262,0.16773870000906754,,,,,,,,,,00028,001,2026-01-20_21h43.31.019,MST_task,2024.2.0,60.00481238766997,2026-01-20 21h43.37.434234 +0530,
,Scenes\036a.jpg,114,0,115,,,,,,,j,None,,,1.20534640000551,0.18385319999651983,,,,115,0,114,545.5001073999883,,,,,,,,,,,,,,,,,,,,,,,545.48448069999,545.5001073999883,546.0009558999882,545.9837232999998,,,,,,,,,,,,,,,,,,,,,,,,,,545.9953156999982,546.0009558999882,546.0009558999882,546.0009558999882,549.0001696999971,j,549.0003622999939,,,549.0004252999934,None,,,,,,1.20534640000551,0.18385319999651983,,,,,,,,,,00028,001,2026-01-20_21h43.31.019,MST_task,2024.2.0,60.00481238766997,2026-01-20 21h43.37.434234 +0530,
,Scenes\186a.jpg,115,0,116,,,,,,,None,j,1.0885696000041207,None,,,,,,116,0,115,549.0167632999946,,,,,,,,,,,,,,,,,,,,,,,549.000718299998,549.0167632999946,549.5196686999989,549.5001418999891,,,,,,,,,,,,,,,,,,,,,,,,,,549.5169431999966,549.5196686999989,549.5196686999989,549.5196686999989,552.5171637999883,None,552.5173551999906,552.5333877999947,552.5333877999947,553.6335424999997,j,1.0885696000041207,None,,,,,,,,,,,,,,,00028,001,2026-01-20_21h43.31.019,MST_task,2024.2.0,60.00481238766997,2026-01-20 21h43.37.434234 +0530,
,Scenes\062a.jpg,116,0,117,,,,,,,j,None,,,0.8517945000057807,0.17650180000055116,,,,117,0,116,553.6497193999967,,,,,,,,,,,,,,,,,,,,,,,553.6338891999912,553.6497193999967,554.1543772000005,554.133751699992,,,,,,,,,,,,,,,,,,,,,,,,,,554.1516541999881,554.1543772000005,554.1543772000005,554.1543772000005,557.1504242999945,j,557.1506240000017,,,557.1506899999949,None,,,,,,0.8517945000057807,0.17650180000055116,,,,,,,,,,00028,001,2026-01-20_21h43.31.019,MST_task,2024.2.0,60.00481238766997,2026-01-20 21h43.37.434234 +0530,
,Scenes\072a.jpg,117,0,118,,,,,,,j,None,,,0.9605298000096809,0.192223499994725,,,,118,0,117,557.1667749999906,,,,,,,,,,,,,,,,,,,,,,,557.1510723999963,557.1667749999906,557.6699052999902,557.6504989999958,,,,,,,,,,,,,,,,,,,,,,,,,,557.6672581999883,557.6699052999902,557.6699052999902,557.6699052999902,560.6671958999941,j,560.6674005999957,,,560.6674709999934,None,,,,,,0.9605298000096809,0.192223499994725,,,,,,,,,,00028,001,2026-01-20_21h43.31.019,MST_task,2024.2.0,60.00481238766997,2026-01-20 21h43.37.434234 +0530,
,Scenes\001a.jpg,118,0,119,,,,,,,f,None,,,1.4580774000060046,0.15963510000437964,,,,119,0,118,560.6833765999909,,,,,,,,,,,,,,,,,,,,,,,560.6678656000004,560.6833765999909,561.1884265999979,561.1670335999952,,,,,,,,,,,,,,,,,,,,,,,,,,561.1856583999906,561.1884265999979,561.1884265999979,561.1884265999979,564.1837415999908,f,564.1839406999934,,,564.1840034999914,None,,,,,,1.4580774000060046,0.15963510000437964,,,,,,,,,,00028,001,2026-01-20_21h43.31.019,MST_task,2024.2.0,60.00481238766997,2026-01-20 21h43.37.434234 +0530,
,Objects\059a.jpg,119,0,120,,,,,,,f,None,,,1.7692374999896856,0.16811100000631995,,,,120,0,119,564.1998012999975,,,,,,,,,,,,,,,,,,,,,,,564.1843923999986,564.1998012999975,564.7006863999995,564.6834497999953,,,,,,,,,,,,,,,,,,,,,,,,,,564.6915949999966,564.7006863999995,564.7006863999995,564.7006863999995,567.6843385999964,f,567.6845462999918,,,567.6846068000013,None,,,567.6997162999905,567.6997162999905,567.6997162999905,1.7692374999896856,0.16811100000631995,,,,,,,,,,00028,001,2026-01-20_21h43.31.019,MST_task,2024.2.0,60.00481238766997,2026-01-20 21h43.37.434234 +0530,
,Objects\142a.jpg,120,0,121,,,,,,,f,None,,,0.7902723000006517,0.1920423999981722,,,,121,0,120,567.6997162999905,,,,,,,,,,,,,,,,,,,,,,,567.6849722999905,567.6997162999905,568.2003191999975,568.1839727999904,,,,,,,,,,,,,,,,,,,,,,,,,,568.1924786000018,568.2003191999975,568.2003191999975,568.2003191999975,571.1845602999965,f,571.1847560999886,,,571.1848140999937,None,,,571.2000928999914,571.2000928999914,571.2000928999914,0.7902723000006517,0.1920423999981722,,,,,,,,,,00028,001,2026-01-20_21h43.31.019,MST_task,2024.2.0,60.00481238766997,2026-01-20 21h43.37.434234 +0530,
,Objects\149a.jpg,121,0,122,,,,,,,f,None,,,1.2659857999969972,0.17650940000021365,,,,122,0,121,571.2000928999914,,,,,,,,,,,,,,,,,,,,,,,571.1851862999902,571.2000928999914,571.7000019999978,571.6837337999896,,,,,,,,,,,,,,,,,,,,,,,,,,571.6926801999944,571.7000019999978,571.7000019999978,571.7000019999978,574.6843709999957,f,574.6845847999939,,,574.6846497999941,None,,,574.6997837999952,574.6997837999952,574.6997837999952,1.2659857999969972,0.17650940000021365,,,,,,,,,,00028,001,2026-01-20_21h43.31.019,MST_task,2024.2.0,60.00481238766997,2026-01-20 21h43.37.434234 +0530,
,Objects\147a.jpg,122,0,123,,,,,,,f,None,,,0.8222730999987107,0.1919705000036629,,,,123,0,122,574.6997837999952,,,,,,,,,,,,,,,,,,,,,,,574.6850623999926,574.6997837999952,575.2003266999964,575.1838007999904,,,,,,,,,,,,,,,,,,,,,,,,,,575.1927987999952,575.2003266999964,575.2003266999964,575.2003266999964,578.1845323000016,f,578.1847290000005,,,578.184786400001,None,,,578.1997890999919,578.1997890999919,578.1997890999919,0.8222730999987107,0.1919705000036629,,,,,,,,,,00028,001,2026-01-20_21h43.31.019,MST_task,2024.2.0,60.00481238766997,2026-01-20 21h43.37.434234 +0530,
,Objects\156a.jpg,123,0,124,,,,,,,f,None,,,1.1943023999920115,0.18396180000854656,,,,124,0,123,578.1997890999919,,,,,,,,,,,,,,,,,,,,,,,578.1850817999948,578.1997890999919,578.7003116999986,578.6837507000018,,,,,,,,,,,,,,,,,,,,,,,,,,578.6935866999993,578.7003116999986,578.7003116999986,578.7003116999986,581.6843968999892,f,581.6845992000017,,,581.6846575999953,None,,,581.7000941000006,581.7000941000006,581.7000941000006,1.1943023999920115,0.18396180000854656,,,,,,,,,,00028,001,2026-01-20_21h43.31.019,MST_task,2024.2.0,60.00481238766997,2026-01-20 21h43.37.434234 +0530,
,Objects\168a.jpg,124,0,125,,,,,,,j,None,,,1.7498870999988867,0.16796189999149647,,,,125,0,124,581.7000941000006,,,,,,,,,,,,,,,,,,,,,,,581.6849605999887,581.7000941000006,582.2000789000012,582.183769899988,,,,,,,,,,,,,,,,,,,,,,,,,,582.1925676999963,582.2000789000012,582.2000789000012,582.2000789000012,585.1845264000003,j,585.1847214000009,,,585.1847782999976,None,,,585.1997783999977,585.1997783999977,585.1997783999977,1.7498870999988867,0.16796189999149647,,,,,,,,,,00028,001,2026-01-20_21h43.31.019,MST_task,2024.2.0,60.00481238766997,2026-01-20 21h43.37.434234 +0530,
,Objects\175a.jpg,125,0,126,,,,,,,f,None,,,0.8175967999995919,0.19269140000687912,,,,126,0,125,585.1997783999977,,,,,,,,,,,,,,,,,,,,,,,585.1851581999945,585.1997783999977,585.7003267999971,585.6838078000001,,,,,,,,,,,,,,,,,,,,,,,,,,585.6928646000015,585.7003267999971,585.7003267999971,585.7003267999971,588.6842449999967,f,588.684437399992,,,588.6844959000009,None,,,588.6997179999889,588.6997179999889,588.6997179999889,0.8175967999995919,0.19269140000687912,,,,,,,,,,00028,001,2026-01-20_21h43.31.019,MST_task,2024.2.0,60.00481238766997,2026-01-20 21h43.37.434234 +0530,
,Scenes\114a.jpg,126,0,127,,,,,,,f,None,,,1.825303999998141,0.19195330000366084,,,,127,0,126,588.6997179999889,,,,,,,,,,,,,,,,,,,,,,,588.684786999991,588.6997179999889,589.205377899998,589.1837395999901,,,,,,,,,,,,,,,,,,,,,,,,,,589.2027996999968,589.205377899998,589.205377899998,589.205377899998,592.2005532999901,f,592.2007695999928,,,592.2008391999989,None,,,,,,1.825303999998141,0.19195330000366084,,,,,,,,,,00028,001,2026-01-20_21h43.31.019,MST_task,2024.2.0,60.00481238766997,2026-01-20 21h43.37.434234 +0530,
,Scenes\165a.jpg,127,0,128,,,,,,,j,None,,,0.9117303999955766,0.19245440000668168,,,,128,0,127,592.2166453999962,,,,,,,,,,,,,,,,,,,,,,,592.2012248999963,592.2166453999962,592.7184343999979,592.7001201999956,,,,,,,,,,,,,,,,,,,,,,,,,,592.7161582999979,592.7184343999979,592.7184343999979,592.7184343999979,595.7171513999929,j,595.7173570000014,,,595.7174209999939,None,,,,,,0.9117303999955766,0.19245440000668168,,,,,,,,,,00028,001,2026-01-20_21h43.31.019,MST_task,2024.2.0,60.00481238766997,2026-01-20 21h43.37.434234 +0530,
,Scenes\184a.jpg,128,0,129,,,,,,,j,None,,,1.1320209999976214,0.16820410000218544,,,,129,0,128,595.7331664999947,,,,,,,,,,,,,,,,,,,,,,,595.717717099993,595.7331664999947,596.2340072999941,596.217201499996,,,,,,,,,,,,,,,,,,,,,,,,,,596.2313780999975,596.2340072999941,596.2340072999941,596.2340072999941,599.2180293999991,j,599.2182307999901,,,599.2182890999975,None,,,599.2333609999914,599.2333609999914,599.2333609999914,1.1320209999976214,0.16820410000218544,,,,,,,,,,00028,001,2026-01-20_21h43.31.019,MST_task,2024.2.0,60.00481238766997,2026-01-20 21h43.37.434234 +0530,
,Scenes\089a.jpg,129,0,130,,,,,,,j,None,,,1.7468226000055438,0.16064319999713916,,,,130,0,129,599.2333609999914,,,,,,,,,,,,,,,,,,,,,,,599.2185813999968,599.2333609999914,599.7391055999906,599.7171852999891,,,,,,,,,,,,,,,,,,,,,,,,,,599.7362557000015,599.7391055999906,599.7391055999906,599.7391055999906,602.7337779999943,j,602.7340048999904,,,602.7340759999934,None,,,,,,1.7468226000055438,0.16064319999713916,,,,,,,,,,00028,001,2026-01-20_21h43.31.019,MST_task,2024.2.0,60.00481238766997,2026-01-20 21h43.37.434234 +0530,
,Scenes\055a.jpg,130,0,131,,,,,,,j,None,,,2.4257161999994423,0.1513134999986505,,,,131,0,130,602.7497758999962,,,,,,,,,,,,,,,,,,,,,,,602.7344105999946,602.7497758999962,603.252903399989,603.233751599997,,,,,,,,,,,,,,,,,,,,,,,,,,603.2497818999982,603.252903399989,603.252903399989,603.252903399989,606.2504872999998,j,606.2506890999939,,,606.2507517999911,None,,,,,,2.4257161999994423,0.1513134999986505,,,,,,,,,,00028,001,2026-01-20_21h43.31.019,MST_task,2024.2.0,60.00481238766997,2026-01-20 21h43.37.434234 +0530,
,Scenes\077a.jpg,131,0,132,,,,,,,j,None,,,1.8632076999929268,0.16794520000985358,,,,132,0,131,606.2666583999962,,,,,,,,,,,,,,,,,,,,,,,606.251045099998,606.2666583999962,606.7670962999982,606.7501996999927,,,,,,,,,,,,,,,,,,,,,,,,,,606.7644154000009,606.7670962999982,606.7670962999982,606.7670962999982,609.7511050999892,j,609.7513027999958,,,609.7513605999993,None,,,609.7667714999989,609.7667714999989,609.7667714999989,1.8632076999929268,0.16794520000985358,,,,,,,,,,00028,001,2026-01-20_21h43.31.019,MST_task,2024.2.0,60.00481238766997,2026-01-20 21h43.37.434234 +0530,
,Scenes\030a.jpg,132,0,133,,,,,,,j,None,,,0.8132811999967089,0.14363930000399705,,,,133,0,132,609.7667714999989,,,,,,,,,,,,,,,,,,,,,,,609.7516586999991,609.7667714999989,610.2730325000011,610.2503326000005,,,,,,,,,,,,,,,,,,,,,,,,,,610.2703451999987,610.2730325000011,610.2730325000011,610.2730325000011,613.2665731000016,j,613.2667653999961,,,613.2668280999933,None,,,,,,0.8132811999967089,0.14363930000399705,,,,,,,,,,00028,001,2026-01-20_21h43.31.019,MST_task,2024.2.0,60.00481238766997,2026-01-20 21h43.37.434234 +0530,
,Objects\091a.jpg,133,0,134,,,,,,,f,None,,,2.5425786999985576,0.18437780000385828,,,,134,0,133,613.2829309999943,,,,,,,,,,,,,,,,,,,,,,,613.2671140999882,613.2829309999943,613.7835920999933,613.7670520999964,,,,,,,,,,,,,,,,,,,,,,,,,,613.7761919999903,613.7835920999933,613.7835920999933,613.7835920999933,616.7670439999929,f,616.7672504999937,,,616.7673141999985,None,,,,,,2.5425786999985576,0.18437780000385828,,,,,,,,,,00028,001,2026-01-20_21h43.31.019,MST_task,2024.2.0,60.00481238766997,2026-01-20 21h43.37.434234 +0530,
,Objects\056a.jpg,134,0,135,,,,,,,f,None,,,2.738932299995213,0.19198049999249633,,,,135,0,134,616.7833845999994,,,,,,,,,,,,,,,,,,,,,,,616.7676133999921,616.7833845999994,617.2836290999985,617.2671002999996,,,,,,,,,,,,,,,,,,,,,,,,,,617.2737133999908,617.2836290999985,617.2836290999985,617.2836290999985,620.2681546999956,f,620.2683639999887,,,620.2684273999912,None,,,620.2833553999953,620.2833553999953,620.2833553999953,2.738932299995213,0.19198049999249633,,,,,,,,,,00028,001,2026-01-20_21h43.31.019,MST_task,2024.2.0,60.00481238766997,2026-01-20 21h43.37.434234 +0530,
,Objects\174a.jpg,135,0,136,,,,,,,f,None,,,0.8061351999931503,0.1927272000029916,,,,136,0,135,620.2833553999953,,,,,,,,,,,,,,,,,,,,,,,620.2687536000012,620.2833553999953,620.7837607999973,620.7672158999922,,,,,,,,,,,,,,,,,,,,,,,,,,620.7763782999973,620.7837607999973,620.7837607999973,620.7837607999973,623.7676887999987,f,623.7678963999933,,,623.7679548000015,None,,,623.7831867999921,623.7831867999921,623.7831867999921,0.8061351999931503,0.1927272000029916,,,,,,,,,,00028,001,2026-01-20_21h43.31.019,MST_task,2024.2.0,60.00481238766997,2026-01-20 21h43.37.434234 +0530,
,Objects\034a.jpg,136,0,137,,,,,,,f,None,,,2.122525600003428,0.19179759999678936,,,,137,0,136,623.7831867999921,,,,,,,,,,,,,,,,,,,,,,,623.768339000002,623.7831867999921,624.2836293,624.2669179999939,,,,,,,,,,,,,,,,,,,,,,,,,,624.276409099999,624.2836293,624.2836293,624.2836293,627.2679472000018,f,627.2681397999986,,,627.2681980999914,None,,,627.2833826999995,627.2833826999995,627.2833826999995,2.122525600003428,0.19179759999678936,,,,,,,,,,00028,001,2026-01-20_21h43.31.019,MST_task,2024.2.0,60.00481238766997,2026-01-20 21h43.37.434234 +0530,
,Objects\112a.jpg,137,0,138,,,,,,,f,None,,,0.7584761999896728,0.15145840001059696,,,,138,0,137,627.2833826999995,,,,,,,,,,,,,,,,,,,,,,,627.2685715999978,627.2833826999995,627.7836821999954,627.7671690999996,,,,,,,,,,,,,,,,,,,,,,,,,,627.775885199997,627.7836821999954,627.7836821999954,627.7836821999954,630.7680332000018,f,630.7682285999908,,,630.7682855000021,None,,,630.7832149999886,630.7832149999886,630.7832149999886,0.7584761999896728,0.15145840001059696,,,,,,,,,,00028,001,2026-01-20_21h43.31.019,MST_task,2024.2.0,60.00481238766997,2026-01-20 21h43.37.434234 +0530,
,Objects\005a.jpg,138,0,139,,,,,,,f,None,,,1.0430739000003086,0.18383810001250822,,,,139,0,138,630.7832149999886,,,,,,,,,,,,,,,,,,,,,,,630.7685798999883,630.7832149999886,631.2836160000006,631.267173100001,,,,,,,,,,,,,,,,,,,,,,,,,,631.2724166999978,631.2836160000006,631.2836160000006,631.2836160000006,634.2678497000015,f,634.2680592999968,,,634.2681235999917,None,,,634.2833595999982,634.2833595999982,634.2833595999982,1.0430739000003086,0.18383810001250822,,,,,,,,,,00028,001,2026-01-20_21h43.31.019,MST_task,2024.2.0,60.00481238766997,2026-01-20 21h43.37.434234 +0530,
,Objects\153a.jpg,139,0,140,,,,,,,f,None,,,1.4468981999962125,0.17598430000361986,,,,140,0,139,634.2833595999982,,,,,,,,,,,,,,,,,,,,,,,634.2685271999944,634.2833595999982,634.783651699996,634.7671738999925,,,,,,,,,,,,,,,,,,,,,,,,,,634.7759145000018,634.783651699996,634.783651699996,634.783651699996,637.7679478999926,f,637.7681424999901,,,637.7681993000006,None,,,637.783365899988,637.783365899988,637.783365899988,1.4468981999962125,0.17598430000361986,,,,,,,,,,00028,001,2026-01-20_21h43.31.019,MST_task,2024.2.0,60.00481238766997,2026-01-20 21h43.37.434234 +0530,
,Scenes\168a.jpg,140,0,141,,,,,,,j,None,,,1.0502815000072587,0.1678466000012122,,,,141,0,140,637.783365899988,,,,,,,,,,,,,,,,,,,,,,,637.7684953999997,637.783365899988,638.2839735999878,638.2671816999937,,,,,,,,,,,,,,,,,,,,,,,,,,638.277434699994,638.2839735999878,638.2839735999878,638.2839735999878,641.2680641999905,j,641.2682687999913,,,641.2683297999902,None,,,641.2833810000011,641.2833810000011,641.2833810000011,1.0502815000072587,0.1678466000012122,,,,,,,,,,00028,001,2026-01-20_21h43.31.019,MST_task,2024.2.0,60.00481238766997,2026-01-20 21h43.37.434234 +0530,
,Scenes\090a.jpg,141,0,142,,,,,,,j,None,,,1.0822694999951636,0.16858159999537747,,,,142,0,141,641.2833810000011,,,,,,,,,,,,,,,,,,,,,,,641.2686538999988,641.2833810000011,641.7877313999925,641.7670551999909,,,,,,,,,,,,,,,,,,,,,,,,,,641.785008699997,641.7877313999925,641.7877313999925,641.7877313999925,644.7837957000011,j,644.7840102999908,,,644.7840810999915,None,,,,,,1.0822694999951636,0.16858159999537747,,,,,,,,,,00028,001,2026-01-20_21h43.31.019,MST_task,2024.2.0,60.00481238766997,2026-01-20 21h43.37.434234 +0530,
,Scenes\041a.jpg,142,0,143,,,,,,,j,None,,,0.8545393999957014,0.13533829999505542,,,,143,0,142,644.8001187999907,,,,,,,,,,,,,,,,,,,,,,,644.7844769999938,644.8001187999907,645.3043249999901,645.2838013,,,,,,,,,,,,,,,,,,,,,,,,,,645.3016007999977,645.3043249999901,645.3043249999901,645.3043249999901,648.2997742000007,j,648.2998771999992,,,648.2998952999915,None,,,,,,0.8545393999957014,0.13533829999505542,,,,,,,,,,00028,001,2026-01-20_21h43.31.019,MST_task,2024.2.0,60.00481238766997,2026-01-20 21h43.37.434234 +0530,
,Scenes\166a.jpg,143,0,144,,,,,,,j,None,,,2.68372939999972,0.15236389999336097,,,,144,0,143,648.316791899997,,,,,,,,,,,,,,,,,,,,,,,648.3001317000017,648.316791899997,,648.8001234999974,,,,,,,,,,,,,,,,,,,,,,,,,,648.8148987999884,648.8184181999968,648.8184181999968,648.8184181999968,651.8001827999979,j,651.8003787999914,,,651.800442199994,None,,,,,,2.68372939999972,0.15236389999336097,,,,,,,,,,00028,001,2026-01-20_21h43.31.019,MST_task,2024.2.0,60.00481238766997,2026-01-20 21h43.37.434234 +0530,
,Scenes\044a.jpg,144,0,145,,,,,,,j,None,,,2.041820300000836,0.1680627000023378,,,,145,0,144,651.8167927999893,,,,,,,,,,,,,,,,,,,,,,,651.8007323999918,651.8167927999893,652.3166721999878,652.3005381999974,,,,,,,,,,,,,,,,,,,,,,,,,,652.3139302999916,652.3166721999878,652.3166721999878,652.3166721999878,655.301395699993,j,655.3015880999883,,,655.3016444999957,None,,,655.3167689999973,655.3167689999973,655.3167689999973,2.041820300000836,0.1680627000023378,,,,,,,,,,00028,001,2026-01-20_21h43.31.019,MST_task,2024.2.0,60.00481238766997,2026-01-20 21h43.37.434234 +0530,
,Scenes\007a.jpg,145,0,146,,,,,,,None,f,0.2052725000103237,None,,,,,,146,0,145,655.3167689999973,,,,,,,,,,,,,,,,,,,,,,,655.3019425999955,655.3167689999973,655.8174954999995,655.8003419000015,,,,,,,,,,,,,,,,,,,,,,,,,,655.8147830999951,655.8174954999995,655.8174954999995,655.8174954999995,658.8012997999904,None,658.8014790000016,658.816771999991,658.816771999991,659.0339459999959,f,0.2052725000103237,None,658.816771999991,658.816771999991,658.816771999991,,,,,,,,,,,,00028,001,2026-01-20_21h43.31.019,MST_task,2024.2.0,60.00481238766997,2026-01-20 21h43.37.434234 +0530,
,Scenes\073a.jpg,146,0,147,,,,,,,j,None,,,0.9514670000062324,0.19196669998927973,,,,147,0,146,659.0497657999949,,,,,,,,,,,,,,,,,,,,,,,659.03430449999,659.0497657999949,659.5504534999927,659.5337877999991,,,,,,,,,,,,,,,,,,,,,,,,,,659.5477075999952,659.5504534999927,659.5504534999927,659.5504534999927,662.5344305999897,j,662.534625299988,,,662.5346816999954,None,,,662.5498569999909,662.5498569999909,662.5498569999909,0.9514670000062324,0.19196669998927973,,,,,,,,,,00028,001,2026-01-20_21h43.31.019,MST_task,2024.2.0,60.00481238766997,2026-01-20 21h43.37.434234 +0530,
,Objects\186a.jpg,147,0,148,,,,,,,f,None,,,1.0274778000020888,0.17566910000459757,,,,148,0,147,662.5498569999909,,,,,,,,,,,,,,,,,,,,,,,662.5350598999939,662.5498569999909,663.0506878000015,663.0337906999921,,,,,,,,,,,,,,,,,,,,,,,,,,663.0434968999907,663.0506878000015,663.0506878000015,663.0506878000015,666.0346447999909,f,666.0348384999961,,,666.0348961999989,None,,,666.0498393000016,666.0498393000016,666.0498393000016,1.0274778000020888,0.17566910000459757,,,,,,,,,,00028,001,2026-01-20_21h43.31.019,MST_task,2024.2.0,60.00481238766997,2026-01-20 21h43.37.434234 +0530,
,Objects\190a.jpg,148,0,149,,,,,,,None,f,0.9358421000069939,None,,,,,,149,0,148,666.0498393000016,,,,,,,,,,,,,,,,,,,,,,,666.0351994999946,666.0498393000016,666.5503515999881,666.5337565999944,,,,,,,,,,,,,,,,,,,,,,,,,,666.5424936999916,666.5503515999881,666.5503515999881,666.5503515999881,669.5346518000006,None,669.5348502999987,669.5500677999953,669.5500677999953,670.5006283999974,f,0.9358421000069939,None,669.5500677999953,669.5500677999953,669.5500677999953,,,,,,,,,,,,00028,001,2026-01-20_21h43.31.019,MST_task,2024.2.0,60.00481238766997,2026-01-20 21h43.37.434234 +0530,
,Objects\043a.jpg,149,0,150,,,,,,,None,f,1.014009000005899,None,,,,,,150,0,149,670.5167809999984,,,,,,,,,,,,,,,,,,,,,,,670.5009592999995,670.5167809999984,671.0168223999935,671.0000124999933,,,,,,,,,,,,,,,,,,,,,,,,,,671.0086314999935,671.0168223999935,671.0168223999935,671.0168223999935,674.0010499999917,None,674.001245499996,674.0165026999894,674.0165026999894,675.0338822999911,f,1.014009000005899,None,674.0165026999894,674.0165026999894,674.0165026999894,,,,,,,,,,,,00028,001,2026-01-20_21h43.31.019,MST_task,2024.2.0,60.00481238766997,2026-01-20 21h43.37.434234 +0530,
,Objects\191a.jpg,150,0,151,,,,,,,f,None,,,1.5921996999968542,0.19172270000854041,,,,151,0,150,675.0501499999955,,,,,,,,,,,,,,,,,,,,,,,675.0342158999993,675.0501499999955,675.5502951999952,675.5337996000017,,,,,,,,,,,,,,,,,,,,,,,,,,675.5429098999884,675.5502951999952,675.5502951999952,675.5502951999952,678.5346150999976,f,678.5348123000003,,,678.5348716000008,None,,,678.5501614999957,678.5501614999957,678.5501614999957,1.5921996999968542,0.19172270000854041,,,,,,,,,,00028,001,2026-01-20_21h43.31.019,MST_task,2024.2.0,60.00481238766997,2026-01-20 21h43.37.434234 +0530,
,Objects\078a.jpg,151,0,152,,,,,,,j,None,,,1.6123591999930795,0.1515825000096811,,,,152,0,151,678.5501614999957,,,,,,,,,,,,,,,,,,,,,,,678.5352524999907,678.5501614999957,679.0501488000009,679.0338865999947,,,,,,,,,,,,,,,,,,,,,,,,,,679.0443406999984,679.0501488000009,679.0501488000009,679.0501488000009,682.0344683000003,j,682.0346677999914,,,682.0347234999936,None,,,682.0499523999897,682.0499523999897,682.0499523999897,1.6123591999930795,0.1515825000096811,,,,,,,,,,00028,001,2026-01-20_21h43.31.019,MST_task,2024.2.0,60.00481238766997,2026-01-20 21h43.37.434234 +0530,
,Objects\008a.jpg,152,0,153,,,,,,,f,None,,,1.3355141999927582,0.18398460000753403,,,,153,0,152,682.0499523999897,,,,,,,,,,,,,,,,,,,,,,,682.035023599994,682.0499523999897,682.5503295999952,682.5340313999914,,,,,,,,,,,,,,,,,,,,,,,,,,682.5438607999968,682.5503295999952,682.5503295999952,682.5503295999952,685.5345850000012,f,685.5347975999903,,,685.5348614999966,None,,,685.5501262999896,685.5501262999896,685.5501262999896,1.3355141999927582,0.18398460000753403,,,,,,,,,,00028,001,2026-01-20_21h43.31.019,MST_task,2024.2.0,60.00481238766997,2026-01-20 21h43.37.434234 +0530,
,Objects\173a.jpg,153,0,154,,,,,,,f,None,,,2.1801011000061408,0.1919742000027327,,,,154,0,153,685.5501262999896,,,,,,,,,,,,,,,,,,,,,,,685.5352775999927,685.5501262999896,686.0503976999898,686.0338304999896,,,,,,,,,,,,,,,,,,,,,,,,,,686.0433132999897,686.0503976999898,686.0503976999898,686.0503976999898,689.034505699994,f,689.0347142999963,,,689.0347758999997,None,,,689.0500290999917,689.0500290999917,689.0500290999917,2.1801011000061408,0.1919742000027327,,,,,,,,,,00028,001,2026-01-20_21h43.31.019,MST_task,2024.2.0,60.00481238766997,2026-01-20 21h43.37.434234 +0530,
,Scenes\121a.jpg,154,0,155,,,,,,,None,j,0.7515660999924876,None,,,,,,155,0,154,689.0500290999917,,,,,,,,,,,,,,,,,,,,,,,689.0351814999885,689.0500290999917,689.5524002999882,689.5332963999972,,,,,,,,,,,,,,,,,,,,,,,,,,689.5494520999928,689.5524002999882,689.5524002999882,689.5524002999882,692.5504980999976,None,692.550677399995,692.5667888999888,692.5667888999888,693.3339389999892,j,0.7515660999924876,None,,,,,,,,,,,,,,,00028,001,2026-01-20_21h43.31.019,MST_task,2024.2.0,60.00481238766997,2026-01-20 21h43.37.434234 +0530,
,Scenes\181a.jpg,155,0,156,,,,,,,None,f,1.5313280999980634,None,,,,,,156,0,155,693.3497991999902,,,,,,,,,,,,,,,,,,,,,,,693.3344357999886,693.3497991999902,693.8543910000008,693.8337669999892,,,,,,,,,,,,,,,,,,,,,,,,,,693.8516889999883,693.8543910000008,693.8543910000008,693.8543910000008,696.8505339999974,None,696.8507495999947,696.8668254999939,696.8668254999939,698.4002751999942,f,1.5313280999980634,None,,,,,,,,,,,,,,,00028,001,2026-01-20_21h43.31.019,MST_task,2024.2.0,60.00481238766997,2026-01-20 21h43.37.434234 +0530,
,Scenes\094a.jpg,156,0,157,,,,,,,None,f,0.1135134000069229,None,,,,,,157,0,156,698.4167738999968,,,,,,,,,,,,,,,,,,,,,,,698.4006125000014,698.4167738999968,698.9222868999932,698.9005035000009,,,,,,,,,,,,,,,,,,,,,,,,,,698.9197226999968,698.9222868999932,698.9222868999932,698.9222868999932,701.9169007999881,None,701.9170905999927,701.9329824999877,701.9329824999877,702.0506288999895,f,0.1135134000069229,None,,,,,,,,,,,,,,,00028,001,2026-01-20_21h43.31.019,MST_task,2024.2.0,60.00481238766997,2026-01-20 21h43.37.434234 +0530,
,Scenes\085a.jpg,157,0,158,,,,,,,j,None,,,2.0958538000122644,0.1679565999947954,,,,158,0,157,702.0667679999897,,,,,,,,,,,,,,,,,,,,,,,702.0509695999936,702.0667679999897,702.5667299999914,702.5502481000003,,,,,,,,,,,,,,,,,,,,,,,,,,702.5638161999959,702.5667299999914,702.5667299999914,702.5667299999914,705.5511395999929,j,705.5513350999972,,,705.5513930000016,None,,,705.5664419999957,705.5664419999957,705.5664419999957,2.0958538000122644,0.1679565999947954,,,,,,,,,,00028,001,2026-01-20_21h43.31.019,MST_task,2024.2.0,60.00481238766997,2026-01-20 21h43.37.434234 +0530,
,Scenes\124a.jpg,158,0,159,,,,,,,j,None,,,1.9708149999933084,0.16855400000349618,,,,159,0,158,705.5664419999957,,,,,,,,,,,,,,,,,,,,,,,705.5517801999958,705.5664419999957,706.0671304999996,706.050176299992,,,,,,,,,,,,,,,,,,,,,,,,,,706.0614064999972,706.0671304999996,706.0671304999996,706.0671304999996,709.0513327999943,j,709.0515245999995,,,709.0515816999978,None,,,709.0667057999963,709.0667057999963,709.0667057999963,1.9708149999933084,0.16855400000349618,,,,,,,,,,00028,001,2026-01-20_21h43.31.019,MST_task,2024.2.0,60.00481238766997,2026-01-20 21h43.37.434234 +0530,
,Scenes\100a.jpg,159,0,160,,,,,,,f,None,,,1.5253843999962555,0.20732940000016242,,,,160,0,159,709.0667057999963,,,,,,,,,,,,,,,,,,,,,,,709.0519447999977,709.0667057999963,709.5691462999966,709.5505196000013,,,,,,,,,,,,,,,,,,,,,,,,,,709.5665059000021,709.5691462999966,709.5691462999966,709.5691462999966,712.5671997999889,f,712.567409299998,,,712.5674786000018,None,,,,,,1.5253843999962555,0.20732940000016242,,,,,,,,,,00028,001,2026-01-20_21h43.31.019,MST_task,2024.2.0,60.00481238766997,2026-01-20 21h43.37.434234 +0530,
,Scenes\016a.jpg,160,0,161,,,,,,,None,j,0.2186288999946555,None,,,,,,161,0,160,712.5833568999951,,,,,,,,,,,,,,,,,,,,,,,712.5678779000009,712.5833568999951,713.083719199989,713.0670342999947,,,,,,,,,,,,,,,,,,,,,,,,,,713.0782551000011,713.083719199989,713.083719199989,713.083719199989,716.0679830000008,None,716.0681593999907,716.0833883999876,716.0833883999876,716.3168200999935,j,0.2186288999946555,None,716.0833883999876,716.0833883999876,716.0833883999876,,,,,,,,,,,,00028,001,2026-01-20_21h43.31.019,MST_task,2024.2.0,60.00481238766997,2026-01-20 21h43.37.434234 +0530,
,Objects\007a.jpg,161,0,162,,,,,,,f,None,,,1.0520070999918971,0.1766438000049675,,,,162,0,161,716.3329203999892,,,,,,,,,,,,,,,,,,,,,,,716.3172455999884,716.3329203999892,716.833804599999,716.817171799994,,,,,,,,,,,,,,,,,,,,,,,,,,716.8261276999983,716.833804599999,716.833804599999,716.833804599999,719.8176613999967,f,719.817858800001,,,719.8179175999976,None,,,719.834382999994,719.834382999994,719.834382999994,1.0520070999918971,0.1766438000049675,,,,,,,,,,00028,001,2026-01-20_21h43.31.019,MST_task,2024.2.0,60.00481238766997,2026-01-20 21h43.37.434234 +0530,
,Objects\110a.jpg,162,0,163,,,,,,,f,None,,,2.456870499998331,0.19170120000489987,,,,163,0,162,719.834382999994,,,,,,,,,,,,,,,,,,,,,,,719.8182152999943,719.834382999994,720.3336177999881,720.317227099993,,,,,,,,,,,,,,,,,,,,,,,,,,720.3258423999941,720.3336177999881,720.3336177999881,720.3336177999881,723.3180138999887,f,723.3182153999951,,,723.3182730999979,None,,,723.3333920000005,723.3333920000005,723.3333920000005,2.456870499998331,0.19170120000489987,,,,,,,,,,00028,001,2026-01-20_21h43.31.019,MST_task,2024.2.0,60.00481238766997,2026-01-20 21h43.37.434234 +0530,
,Objects\001a.jpg,163,0,164,,,,,,,f,None,,,2.1724874999927124,0.19969449999916833,,,,164,0,163,723.3333920000005,,,,,,,,,,,,,,,,,,,,,,,723.3185726999945,723.3333920000005,723.8336528999935,723.8168533999997,,,,,,,,,,,,,,,,,,,,,,,,,,723.8251237999939,723.8336528999935,723.8336528999935,723.8336528999935,726.8179519999976,f,726.8181506999972,,,726.8182080999977,None,,,726.8332937999949,726.8332937999949,726.8332937999949,2.1724874999927124,0.19969449999916833,,,,,,,,,,00028,001,2026-01-20_21h43.31.019,MST_task,2024.2.0,60.00481238766997,2026-01-20 21h43.37.434234 +0530,
