thisN,thisTrialN,thisRepN,key_resp_3.keys,key_resp_3.rt,key_resp_3.duration,trials.thisRepN,trials.thisTrialN,trials.thisN,thisRow.t,notes,intro_page.started,text.started,key_resp.started,intro_page.stopped,key_resp.keys,key_resp.rt,key_resp.duration,instructions.started,text_2.started,key_resp_2.started,instructions.stopped,key_resp_2.keys,key_resp_2.rt,key_resp_2.duration,demo1.started,image_1.started,image_2.started,text_7.started,key_resp_6.started,text_9.started,demo1.stopped,key_resp_6.keys,key_resp_6.rt,key_resp_6.duration,demo2.started,image_5.started,image_6.started,text_11.started,text_12.started,key_resp_8.started,demo2.stopped,key_resp_8.keys,key_resp_8.rt,key_resp_8.duration,demo_conclusion.started,text_13.started,key_resp_9.started,demo_conclusion.stopped,key_resp_9.keys,key_resp_9.rt,key_resp_9.duration,start_test.started,text_6.started,key_resp_5.started,start_test.stopped,key_resp_5.keys,key_resp_5.rt,key_resp_5.duration,ISI.started,text_4.started,text_4.stopped,ISI.stopped,routine_1.started,image.started,text_3.started,key_resp_3.started,routine_1.stopped,image_path,position_of_stimuli,trials.key_resp_3.keys,trials.key_resp_3.rt,trials.key_resp_3.duration,End_page.started,text_5.started,key_resp_4.started,End_page.stopped,key_resp_4.keys,key_resp_4.rt,key_resp_4.duration,participant,session,date,expName,psychopyVersion,frameRate,expStart,
,,,,,,,,,,,0.0012241000076755881,0.0028341999859549105,0.0028341999859549105,4.220119100005832,space,4.212547399976756,None,,,,,,,,,,,,,,,,,,,,,,,,,,,,,,,,,,,,,,,,,,,,,,,,,,,,,,,,,,,,,,,00023,001,2026-01-20_17h47.38.675,MST_test,2024.2.0,60.06359534351802,2026-01-20 17h47.49.164594 +0530,
,,,,,,,,,,,,,,,,,,4.220155999995768,4.234593300032429,4.234593300032429,17.935102800023742,space,13.693509900011122,None,,,,,,,,,,,,,,,,,,,,,,,,,,,,,,,,,,,,,,,,,,,,,,,,,,,,,,,,00023,001,2026-01-20_17h47.38.675,MST_test,2024.2.0,60.06359534351802,2026-01-20 17h47.49.164594 +0530,
,,,,,,,,,,,,,,,,,,,,,,,,,17.935127400036436,17.95172910002293,17.95172910002293,17.95172910002293,17.95172910002293,17.95172910002293,27.70209670002805,space,9.743886000011116,None,,,,,,,,,,,,,,,,,,,,,,,,,,,,,,,,,,,,,,,,,,,,,,00023,001,2026-01-20_17h47.38.675,MST_test,2024.2.0,60.06359534351802,2026-01-20 17h47.49.164594 +0530,
,,,,,,,,,,,,,,,,,,,,,,,,,,,,,,,,,,,27.70212570001604,27.718483600008767,27.718483600008767,27.718483600008767,27.718483600008767,27.718483600008767,31.23580020002555,space,3.51338019996183,None,,,,,,,,,,,,,,,,,,,,,,,,,,,,,,,,,,,,00023,001,2026-01-20_17h47.38.675,MST_test,2024.2.0,60.06359534351802,2026-01-20 17h47.49.164594 +0530,
,,,,,,,,,,,,,,,,,,,,,,,,,,,,,,,,,,,,,,,,,,,,,31.23583050002344,31.251555200025905,31.251555200025905,102.13532410003245,space,70.87643780000508,None,,,,,,,,,,,,,,,,,,,,,,,,,,,,,00023,001,2026-01-20_17h47.38.675,MST_test,2024.2.0,60.06359534351802,2026-01-20 17h47.49.164594 +0530,
,,,,,,,,,,,,,,,,,,,,,,,,,,,,,,,,,,,,,,,,,,,,,,,,,,,,102.13535440003034,102.15143800002988,102.15143800002988,122.05228820000775,space,19.89632509998046,None,,,,,,,,,,,,,,,,,,,,,,00023,001,2026-01-20_17h47.38.675,MST_test,2024.2.0,60.06359534351802,2026-01-20 17h47.49.164594 +0530,
0,0,1,o,3.176626500033308,None,1,0,0,122.06803480000235,,,,,,,,,,,,,,,,,,,,,,,,,,,,,,,,,,,,,,,,,,,,,,,,,,122.05583920003846,122.06803480000235,122.56826420000289,122.55159300001105,122.55948520003585,122.56826420000289,122.56826420000289,122.56826420000289,125.75201570003992,Objects\156a.jpg,mid,o,3.176626500033308,None,,,,,,,,00023,001,2026-01-20_17h47.38.675,MST_test,2024.2.0,60.06359534351802,2026-01-20 17h47.49.164594 +0530,
1,0,2,s,7.408082899986766,None,2,0,1,125.76799560000654,,,,,,,,,,,,,,,,,,,,,,,,,,,,,,,,,,,,,,,,,,,,,,,,,,125.75211040000431,125.76799560000654,126.27145120000932,126.25192350003636,126.26920249999966,126.27145120000932,126.27145120000932,126.27145120000932,133.6851187000284,Scenes\177b.jpg,mid,s,7.408082899986766,None,,,,,,,,00023,001,2026-01-20_17h47.38.675,MST_test,2024.2.0,60.06359534351802,2026-01-20 17h47.49.164594 +0530,
2,0,3,n,7.365883499966003,None,3,0,2,133.70141290000174,,,,,,,,,,,,,,,,,,,,,,,,,,,,,,,,,,,,,,,,,,,,,,,,,,133.68521299998974,133.70141290000174,134.20157100004144,134.1848972000298,134.188991300005,134.20157100004144,134.20157100004144,134.20157100004144,141.56873550004093,Objects\064a.jpg,pre,n,7.365883499966003,None,,,,,,,,00023,001,2026-01-20_17h47.38.675,MST_test,2024.2.0,60.06359534351802,2026-01-20 17h47.49.164594 +0530,
3,0,4,n,2.0751378999557346,None,4,0,3,141.58465690002777,,,,,,,,,,,,,,,,,,,,,,,,,,,,,,,,,,,,,,,,,,,,,,,,,,141.56883110001218,141.58465690002777,142.0848207999952,142.0683514000266,142.07129510003142,142.0848207999952,142.0848207999952,142.0848207999952,144.1685964000062,Foils\020b.jpg,none,n,2.0751378999557346,None,,,,,,,,00023,001,2026-01-20_17h47.38.675,MST_test,2024.2.0,60.06359534351802,2026-01-20 17h47.49.164594 +0530,
4,0,5,s,3.0431081000133418,None,5,0,4,144.1846672000247,,,,,,,,,,,,,,,,,,,,,,,,,,,,,,,,,,,,,,,,,,,,,,,,,,144.16868810000597,144.1846672000247,144.6850010000053,144.66857949999394,144.6788580000284,144.6850010000053,144.6850010000053,144.6850010000053,147.73533679998945,Objects\166b.jpg,pre,s,3.0431081000133418,None,,,,,,,,00023,001,2026-01-20_17h47.38.675,MST_test,2024.2.0,60.06359534351802,2026-01-20 17h47.49.164594 +0530,
5,0,6,s,2.7287908000289463,None,6,0,5,147.7517443000106,,,,,,,,,,,,,,,,,,,,,,,,,,,,,,,,,,,,,,,,,,,,,,,,,,147.73543960001552,147.7517443000106,148.2549114000285,148.2348759000306,148.25277520000236,148.2549114000285,148.2549114000285,148.2549114000285,150.9853504000348,Scenes\192b.jpg,pre,s,2.7287908000289463,None,,,,,,,,00023,001,2026-01-20_17h47.38.675,MST_test,2024.2.0,60.06359534351802,2026-01-20 17h47.49.164594 +0530,
6,0,7,s,5.001934799947776,None,7,0,6,151.00152430002345,,,,,,,,,,,,,,,,,,,,,,,,,,,,,,,,,,,,,,,,,,,,,,,,,,150.98544339998625,151.00152430002345,151.5018729000003,151.48494300001767,151.49517830001423,151.5018729000003,151.5018729000003,151.5018729000003,156.51888480002526,Objects\009b.jpg,pre,s,5.001934799947776,None,,,,,,,,00023,001,2026-01-20_17h47.38.675,MST_test,2024.2.0,60.06359534351802,2026-01-20 17h47.49.164594 +0530,
7,0,8,o,1.828877400024794,None,8,0,7,156.53471159999026,,,,,,,,,,,,,,,,,,,,,,,,,,,,,,,,,,,,,,,,,,,,,,,,,,156.5189817000064,156.53471159999026,157.03535880002892,157.01856320002116,157.02845270000398,157.03535880002892,157.03535880002892,157.03535880002892,158.86888770002406,Scenes\084a.jpg,pre,o,1.828877400024794,None,,,,,,,,00023,001,2026-01-20_17h47.38.675,MST_test,2024.2.0,60.06359534351802,2026-01-20 17h47.49.164594 +0530,
8,0,9,s,11.28811909997603,None,9,0,8,158.88485600001877,,,,,,,,,,,,,,,,,,,,,,,,,,,,,,,,,,,,,,,,,,,,,,,,,,158.86898239998845,158.88485600001877,159.38510840001982,159.36849500000244,159.38288400002057,159.38510840001982,159.38510840001982,159.38510840001982,170.68549519998487,Scenes\152b.jpg,pre,s,11.28811909997603,None,,,,,,,,00023,001,2026-01-20_17h47.38.675,MST_test,2024.2.0,60.06359534351802,2026-01-20 17h47.49.164594 +0530,
9,0,10,s,13.903250299976207,None,10,0,9,170.70143539999845,,,,,,,,,,,,,,,,,,,,,,,,,,,,,,,,,,,,,,,,,,,,,,,,,,170.68558970000595,170.70143539999845,171.20183430000907,171.1849627000047,171.1967140000197,171.20183430000907,171.20183430000907,171.20183430000907,185.1186985000386,Objects\148b.jpg,mid,s,13.903250299976207,None,,,,,,,,00023,001,2026-01-20_17h47.38.675,MST_test,2024.2.0,60.06359534351802,2026-01-20 17h47.49.164594 +0530,
10,0,11,o,3.0286861999775283,None,11,0,10,185.13492229999974,,,,,,,,,,,,,,,,,,,,,,,,,,,,,,,,,,,,,,,,,,,,,,,,,,185.1187929000007,185.13492229999974,185.63516880001407,185.61828590004006,185.62513880000915,185.63516880001407,185.63516880001407,185.63516880001407,188.66906720004044,Scenes\178a.jpg,mid,o,3.0286861999775283,None,,,,,,,,00023,001,2026-01-20_17h47.38.675,MST_test,2024.2.0,60.06359534351802,2026-01-20 17h47.49.164594 +0530,
11,0,12,n,2.8548878000001423,None,12,0,11,188.68460710003274,,,,,,,,,,,,,,,,,,,,,,,,,,,,,,,,,,,,,,,,,,,,,,,,,,188.66916140000103,188.68460710003274,189.18515299999854,189.1682924000197,189.17838180001127,189.18515299999854,189.18515299999854,189.18515299999854,192.05236269999295,Foils\017a.jpg,none,n,2.8548878000001423,None,,,,,,,,00023,001,2026-01-20_17h47.38.675,MST_test,2024.2.0,60.06359534351802,2026-01-20 17h47.49.164594 +0530,
12,0,13,o,2.543609699991066,None,13,0,12,192.0701679000049,,,,,,,,,,,,,,,,,,,,,,,,,,,,,,,,,,,,,,,,,,,,,,,,,,192.05247880000388,192.0701679000049,,192.56824120000238,192.57073560002027,192.58492350002052,192.58492350002052,192.58492350002052,195.13544630003162,Objects\140a.jpg,post,o,2.543609699991066,None,,,,,,,,00023,001,2026-01-20_17h47.38.675,MST_test,2024.2.0,60.06359534351802,2026-01-20 17h47.49.164594 +0530,
13,0,14,o,3.8675610999925993,None,14,0,13,195.15140470000915,,,,,,,,,,,,,,,,,,,,,,,,,,,,,,,,,,,,,,,,,,,,,,,,,,195.1355571000022,195.15140470000915,195.65197020000778,195.63493110000854,195.64645030000247,195.65197020000778,195.65197020000778,195.65197020000778,199.53535970003577,Scenes\170a.jpg,post,o,3.8675610999925993,None,,,,,,,,00023,001,2026-01-20_17h47.38.675,MST_test,2024.2.0,60.06359534351802,2026-01-20 17h47.49.164594 +0530,
14,0,15,n,5.340593900007661,None,15,0,14,199.5514303999953,,,,,,,,,,,,,,,,,,,,,,,,,,,,,,,,,,,,,,,,,,,,,,,,,,199.5354667000356,199.5514303999953,200.05196720000822,200.0348110999912,200.04444690002128,200.05196720000822,200.05196720000822,200.05196720000822,205.40201600000728,Objects\035b.jpg,post,n,5.340593900007661,None,,,,,,,,00023,001,2026-01-20_17h47.38.675,MST_test,2024.2.0,60.06359534351802,2026-01-20 17h47.49.164594 +0530,
15,0,16,o,1.3773109000176191,None,16,0,15,205.41817349998746,,,,,,,,,,,,,,,,,,,,,,,,,,,,,,,,,,,,,,,,,,,,,,,,,,205.4021176000242,205.41817349998746,205.91858290001983,205.90163530001882,205.90764420002233,205.91858290001983,205.91858290001983,205.91858290001983,207.3020516000106,Scenes\044a.jpg,post,o,1.3773109000176191,None,,,,,,,,00023,001,2026-01-20_17h47.38.675,MST_test,2024.2.0,60.06359534351802,2026-01-20 17h47.49.164594 +0530,
16,0,17,s,8.701492799969856,None,17,0,16,207.3180523000192,,,,,,,,,,,,,,,,,,,,,,,,,,,,,,,,,,,,,,,,,,,,,,,,,,207.30214410001645,207.3180523000192,207.81868630001554,207.80172109999694,207.81197859998792,207.81868630001554,207.81868630001554,207.81868630001554,216.53518750000512,Objects\097b.jpg,pre,s,8.701492799969856,None,,,,,,,,00023,001,2026-01-20_17h47.38.675,MST_test,2024.2.0,60.06359534351802,2026-01-20 17h47.49.164594 +0530,
17,0,18,n,4.563694099953864,None,18,0,17,216.55136670003412,,,,,,,,,,,,,,,,,,,,,,,,,,,,,,,,,,,,,,,,,,,,,,,,,,216.5352812000201,216.55136670003412,217.0517393000191,217.03497939999215,217.04484500002582,217.0517393000191,217.0517393000191,217.0517393000191,221.6187607999891,Foils\057a.jpg,none,n,4.563694099953864,None,,,,,,,,00023,001,2026-01-20_17h47.38.675,MST_test,2024.2.0,60.06359534351802,2026-01-20 17h47.49.164594 +0530,
18,0,19,o,8.496730700018816,None,19,0,18,221.63468930003,,,,,,,,,,,,,,,,,,,,,,,,,,,,,,,,,,,,,,,,,,,,,,,,,,221.61885180004174,221.63468930003,222.13522160000866,222.11832340003457,222.13188280002214,222.13522160000866,222.13522160000866,222.13522160000866,230.63527319999412,Scenes\155b.jpg,pre,o,8.496730700018816,None,,,,,,,,00023,001,2026-01-20_17h47.38.675,MST_test,2024.2.0,60.06359534351802,2026-01-20 17h47.49.164594 +0530,
19,0,20,n,3.9363792999647558,None,20,0,19,230.65143389999866,,,,,,,,,,,,,,,,,,,,,,,,,,,,,,,,,,,,,,,,,,,,,,,,,,230.63536569999997,230.65143389999866,,231.13666660001036,231.1390690000262,231.1518214000389,231.1518214000389,231.1518214000389,235.10214580001775,Foils\scenes5.jpg,none,n,3.9363792999647558,None,,,,,,,,00023,001,2026-01-20_17h47.38.675,MST_test,2024.2.0,60.06359534351802,2026-01-20 17h47.49.164594 +0530,
20,0,21,o,2.4057879999745637,None,21,0,20,235.11806310003158,,,,,,,,,,,,,,,,,,,,,,,,,,,,,,,,,,,,,,,,,,,,,,,,,,235.1022463000263,235.11806310003158,235.61858820001362,235.60171650000848,235.61098570004106,235.61858820001362,235.61858820001362,235.61858820001362,238.0353128000279,Scenes\063a.jpg,mid,o,2.4057879999745637,None,,,,,,,,00023,001,2026-01-20_17h47.38.675,MST_test,2024.2.0,60.06359534351802,2026-01-20 17h47.49.164594 +0530,
21,0,22,n,17.744374600006267,None,22,0,21,238.0514273000299,,,,,,,,,,,,,,,,,,,,,,,,,,,,,,,,,,,,,,,,,,,,,,,,,,238.03540450002765,238.0514273000299,238.55195699998876,238.53510949999327,238.5430897999904,238.55195699998876,238.55195699998876,238.55195699998876,256.30210140004056,Scenes\027b.jpg,pre,n,17.744374600006267,None,,,,,,,,00023,001,2026-01-20_17h47.38.675,MST_test,2024.2.0,60.06359534351802,2026-01-20 17h47.49.164594 +0530,
22,0,23,o,1.540957499993965,None,23,0,22,256.3180960000027,,,,,,,,,,,,,,,,,,,,,,,,,,,,,,,,,,,,,,,,,,,,,,,,,,256.30219529999886,256.3180960000027,256.8185275000287,256.80172290001065,256.80503480002517,256.8185275000287,256.8185275000287,256.8185275000287,258.368899299996,Objects\143a.jpg,post,o,1.540957499993965,None,,,,,,,,00023,001,2026-01-20_17h47.38.675,MST_test,2024.2.0,60.06359534351802,2026-01-20 17h47.49.164594 +0530,
23,0,24,n,3.0752493999898434,None,24,0,23,258.3847173000104,,,,,,,,,,,,,,,,,,,,,,,,,,,,,,,,,,,,,,,,,,,,,,,,,,258.36899849999463,258.3847173000104,258.8850169000216,258.8683686000295,258.8796188000124,258.8850169000216,258.8850169000216,258.8850169000216,261.9686985000153,Foils\097a.jpg,none,n,3.0752493999898434,None,,,,,,,,00023,001,2026-01-20_17h47.38.675,MST_test,2024.2.0,60.06359534351802,2026-01-20 17h47.49.164594 +0530,
24,0,25,s,2.900469000043813,None,25,0,24,261.9845823000069,,,,,,,,,,,,,,,,,,,,,,,,,,,,,,,,,,,,,,,,,,,,,,,,,,261.9687909000204,261.9845823000069,262.4849486000021,262.46836950001307,262.47810000000754,262.4849486000021,262.4849486000021,262.4849486000021,265.3860682999948,Objects\047b.jpg,post,s,2.900469000043813,None,,,,,,,,00023,001,2026-01-20_17h47.38.675,MST_test,2024.2.0,60.06359534351802,2026-01-20 17h47.49.164594 +0530,
25,0,26,n,8.082185500010382,None,26,0,25,265.4016713000019,,,,,,,,,,,,,,,,,,,,,,,,,,,,,,,,,,,,,,,,,,,,,,,,,,265.38619079999626,265.4016713000019,265.9019544000039,265.8849242000142,265.8870039000176,265.9019544000039,265.9019544000039,265.9019544000039,273.9859271000023,Foils\scenes29.jpg,none,n,8.082185500010382,None,,,,,,,,00023,001,2026-01-20_17h47.38.675,MST_test,2024.2.0,60.06359534351802,2026-01-20 17h47.49.164594 +0530,
26,0,27,o,1.4337298000464216,None,27,0,26,274.0016978000058,,,,,,,,,,,,,,,,,,,,,,,,,,,,,,,,,,,,,,,,,,,,,,,,,,273.9860841000336,274.0016978000058,274.501903700002,274.4852854000055,274.49533270002576,274.501903700002,274.501903700002,274.501903700002,275.95213400002103,Scenes\165a.jpg,mid,o,1.4337298000464216,None,,,,,,,,00023,001,2026-01-20_17h47.38.675,MST_test,2024.2.0,60.06359534351802,2026-01-20 17h47.49.164594 +0530,
27,0,28,o,1.242911199980881,None,28,0,27,275.96822310000425,,,,,,,,,,,,,,,,,,,,,,,,,,,,,,,,,,,,,,,,,,,,,,,,,,275.9522287999862,275.96822310000425,276.468866500014,276.4519049000228,276.4637175000389,276.468866500014,276.468866500014,276.468866500014,277.71888960001525,Scenes\045a.jpg,mid,o,1.242911199980881,None,,,,,,,,00023,001,2026-01-20_17h47.38.675,MST_test,2024.2.0,60.06359534351802,2026-01-20 17h47.49.164594 +0530,
28,0,29,s,1.692463899962604,None,29,0,28,277.7347911000252,,,,,,,,,,,,,,,,,,,,,,,,,,,,,,,,,,,,,,,,,,,,,,,,,,277.7189839000348,277.7347911000252,278.2354316000128,278.21847200003685,278.22809950000374,278.2354316000128,278.2354316000128,278.2354316000128,279.9355083000264,Foils\scenes1.jpg,none,s,1.692463899962604,None,,,,,,,,00023,001,2026-01-20_17h47.38.675,MST_test,2024.2.0,60.06359534351802,2026-01-20 17h47.49.164594 +0530,
29,0,30,o,4.1532822999870405,None,30,0,29,279.95160460000625,,,,,,,,,,,,,,,,,,,,,,,,,,,,,,,,,,,,,,,,,,,,,,,,,,279.9356121000019,279.95160460000625,280.4548882000381,280.435142500035,280.4528194000013,280.4548882000381,280.4548882000381,280.4548882000381,284.6192482000333,Scenes\122b.jpg,pre,o,4.1532822999870405,None,,,,,,,,00023,001,2026-01-20_17h47.38.675,MST_test,2024.2.0,60.06359534351802,2026-01-20 17h47.49.164594 +0530,
30,0,31,s,2.9650218000169843,None,31,0,30,284.63470960000996,,,,,,,,,,,,,,,,,,,,,,,,,,,,,,,,,,,,,,,,,,,,,,,,,,284.6193605000153,284.63470960000996,285.13976930000354,285.11848180001834,285.13752119999845,285.13976930000354,285.13976930000354,285.13976930000354,288.11898289999226,Scenes\174b.jpg,pre,s,2.9650218000169843,None,,,,,,,,00023,001,2026-01-20_17h47.38.675,MST_test,2024.2.0,60.06359534351802,2026-01-20 17h47.49.164594 +0530,
31,0,32,n,3.282085000013467,None,32,0,31,288.1365502999979,,,,,,,,,,,,,,,,,,,,,,,,,,,,,,,,,,,,,,,,,,,,,,,,,,288.1190785000217,288.1365502999979,,288.6349780000164,288.65093820000766,288.6533230000059,288.6533230000059,288.6533230000059,291.9520433000289,Foils\scenes27.jpg,none,n,3.282085000013467,None,,,,,,,,00023,001,2026-01-20_17h47.38.675,MST_test,2024.2.0,60.06359534351802,2026-01-20 17h47.49.164594 +0530,
32,0,33,s,1.7149342000484467,None,33,0,32,291.9682299999986,,,,,,,,,,,,,,,,,,,,,,,,,,,,,,,,,,,,,,,,,,,,,,,,,,291.95213470002636,291.9682299999986,292.46868180000456,292.4519089999958,292.4627734000096,292.46868180000456,292.46868180000456,292.46868180000456,294.1854044999927,Objects\004b.jpg,mid,s,1.7149342000484467,None,,,,,,,,00023,001,2026-01-20_17h47.38.675,MST_test,2024.2.0,60.06359534351802,2026-01-20 17h47.49.164594 +0530,
33,0,34,s,2.3694721999927424,None,34,0,33,294.2015723999939,,,,,,,,,,,,,,,,,,,,,,,,,,,,,,,,,,,,,,,,,,,,,,,,,,294.1855011000298,294.2015723999939,294.7019250000012,294.68515169998864,294.69450750004034,294.7019250000012,294.7019250000012,294.7019250000012,297.08549830003176,Objects\151b.jpg,mid,s,2.3694721999927424,None,,,,,,,,00023,001,2026-01-20_17h47.38.675,MST_test,2024.2.0,60.06359534351802,2026-01-20 17h47.49.164594 +0530,
34,0,35,o,3.214370700006839,None,35,0,34,297.1014787000022,,,,,,,,,,,,,,,,,,,,,,,,,,,,,,,,,,,,,,,,,,,,,,,,,,297.085591799987,297.1014787000022,297.6018003000063,297.585075400013,297.5877477999893,297.6018003000063,297.6018003000063,297.6018003000063,300.8189488000353,Objects\176a.jpg,pre,o,3.214370700006839,None,,,,,,,,00023,001,2026-01-20_17h47.38.675,MST_test,2024.2.0,60.06359534351802,2026-01-20 17h47.49.164594 +0530,
35,0,36,o,1.4485740999807604,None,36,0,35,300.8346477000159,,,,,,,,,,,,,,,,,,,,,,,,,,,,,,,,,,,,,,,,,,,,,,,,,,300.81905240000924,300.8346477000159,301.33509910001885,301.31852380000055,301.32929040002637,301.33509910001885,301.33509910001885,301.33509910001885,302.78555279999273,Objects\085b.jpg,pre,o,1.4485740999807604,None,,,,,,,,00023,001,2026-01-20_17h47.38.675,MST_test,2024.2.0,60.06359534351802,2026-01-20 17h47.49.164594 +0530,
36,0,37,n,1.8658451000228524,None,37,0,36,302.80144240002846,,,,,,,,,,,,,,,,,,,,,,,,,,,,,,,,,,,,,,,,,,,,,,,,,,302.78565490001347,302.80144240002846,303.30186340003274,303.2852836000384,303.29590590001317,303.30186340003274,303.30186340003274,303.30186340003274,305.16876239998965,Foils\065a.jpg,none,n,1.8658451000228524,None,,,,,,,,00023,001,2026-01-20_17h47.38.675,MST_test,2024.2.0,60.06359534351802,2026-01-20 17h47.49.164594 +0530,
37,0,38,o,2.8743572999956086,None,38,0,37,305.18462590000127,,,,,,,,,,,,,,,,,,,,,,,,,,,,,,,,,,,,,,,,,,,,,,,,,,305.1688603000366,305.18462590000127,305.6851875000284,305.6685589000117,305.6731772000203,305.6851875000284,305.6851875000284,305.6851875000284,308.56874710001284,Scenes\036b.jpg,post,o,2.8743572999956086,None,,,,,,,,00023,001,2026-01-20_17h47.38.675,MST_test,2024.2.0,60.06359534351802,2026-01-20 17h47.49.164594 +0530,
38,0,39,o,1.3388768000295386,None,39,0,38,308.5847369999974,,,,,,,,,,,,,,,,,,,,,,,,,,,,,,,,,,,,,,,,,,,,,,,,,,308.5688446999993,308.5847369999974,309.08516900002724,309.06849119998515,309.07520379999187,309.08516900002724,309.08516900002724,309.08516900002724,310.4355429999996,Scenes\124a.jpg,pre,o,1.3388768000295386,None,,,,,,,,00023,001,2026-01-20_17h47.38.675,MST_test,2024.2.0,60.06359534351802,2026-01-20 17h47.49.164594 +0530,
39,0,40,n,2.632587100029923,None,40,0,39,310.45158729999093,,,,,,,,,,,,,,,,,,,,,,,,,,,,,,,,,,,,,,,,,,,,,,,,,,310.43563680001535,310.45158729999093,310.9519341000123,310.9352351000416,310.9464498999878,310.9519341000123,310.9519341000123,310.9519341000123,313.58560180000495,Foils\081a.jpg,none,n,2.632587100029923,None,,,,,,,,00023,001,2026-01-20_17h47.38.675,MST_test,2024.2.0,60.06359534351802,2026-01-20 17h47.49.164594 +0530,
40,0,41,s,5.905923300015274,None,41,0,40,313.60156989999814,,,,,,,,,,,,,,,,,,,,,,,,,,,,,,,,,,,,,,,,,,,,,,,,,,313.58570789999794,313.60156989999814,314.10168479999993,314.0852829000214,314.09503160003806,314.10168479999993,314.10168479999993,314.10168479999993,320.01883570000064,Objects\080b.jpg,mid,s,5.905923300015274,None,,,,,,,,00023,001,2026-01-20_17h47.38.675,MST_test,2024.2.0,60.06359534351802,2026-01-20 17h47.49.164594 +0530,
41,0,42,o,1.3613139999797568,None,42,0,41,320.0347291000071,,,,,,,,,,,,,,,,,,,,,,,,,,,,,,,,,,,,,,,,,,,,,,,,,,320.01893170003314,320.0347291000071,320.53509090002626,320.5184760999982,320.52110290003475,320.53509090002626,320.53509090002626,320.53509090002626,321.90227140003117,Objects\065a.jpg,pre,o,1.3613139999797568,None,,,,,,,,00023,001,2026-01-20_17h47.38.675,MST_test,2024.2.0,60.06359534351802,2026-01-20 17h47.49.164594 +0530,
42,0,43,s,3.1171710999915376,None,43,0,42,321.91819320002105,,,,,,,,,,,,,,,,,,,,,,,,,,,,,,,,,,,,,,,,,,,,,,,,,,321.9023724999861,321.91819320002105,322.418517299986,322.40206470002886,322.41242880001664,322.418517299986,322.418517299986,322.418517299986,325.5521571999998,Objects\060b.jpg,mid,s,3.1171710999915376,None,,,,,,,,00023,001,2026-01-20_17h47.38.675,MST_test,2024.2.0,60.06359534351802,2026-01-20 17h47.49.164594 +0530,
43,0,44,s,7.5405518999905325,None,44,0,43,325.5682908000308,,,,,,,,,,,,,,,,,,,,,,,,,,,,,,,,,,,,,,,,,,,,,,,,,,325.5522505000117,325.5682908000308,326.0683496000129,326.0518105000374,326.0612961000297,326.0683496000129,326.0683496000129,326.0683496000129,333.6186080999905,Objects\126b.jpg,post,s,7.5405518999905325,None,,,,,,,,00023,001,2026-01-20_17h47.38.675,MST_test,2024.2.0,60.06359534351802,2026-01-20 17h47.49.164594 +0530,
44,0,45,s,2.648541899980046,None,45,0,44,333.63463849999243,,,,,,,,,,,,,,,,,,,,,,,,,,,,,,,,,,,,,,,,,,,,,,,,,,333.6186999999918,333.63463849999243,334.1349938000203,334.11837730003754,334.12098080001306,334.1349938000203,334.1349938000203,334.1349938000203,336.78513899998507,Objects\191a.jpg,mid,s,2.648541899980046,None,,,,,,,,00023,001,2026-01-20_17h47.38.675,MST_test,2024.2.0,60.06359534351802,2026-01-20 17h47.49.164594 +0530,
45,0,46,o,1.1136961999582127,None,46,0,45,336.8014591000392,,,,,,,,,,,,,,,,,,,,,,,,,,,,,,,,,,,,,,,,,,,,,,,,,,336.7852309999871,336.8014591000392,337.3019956999924,337.2848890000023,337.29721410002094,337.3019956999924,337.3019956999924,337.3019956999924,338.4187957000104,Scenes\089a.jpg,mid,o,1.1136961999582127,None,,,,,,,,00023,001,2026-01-20_17h47.38.675,MST_test,2024.2.0,60.06359534351802,2026-01-20 17h47.49.164594 +0530,
46,0,47,o,0.8646109999972396,None,47,0,46,338.4346514000208,,,,,,,,,,,,,,,,,,,,,,,,,,,,,,,,,,,,,,,,,,,,,,,,,,338.41888660000404,338.4346514000208,338.9351044000359,338.9183318000287,338.92165289999684,338.9351044000359,338.9351044000359,338.9351044000359,339.8021667000139,Objects\130b.jpg,post,o,0.8646109999972396,None,,,,,,,,00023,001,2026-01-20_17h47.38.675,MST_test,2024.2.0,60.06359534351802,2026-01-20 17h47.49.164594 +0530,
47,0,48,s,3.9139536999864504,None,48,0,47,339.8181762000313,,,,,,,,,,,,,,,,,,,,,,,,,,,,,,,,,,,,,,,,,,,,,,,,,,339.8022684000316,339.8181762000313,340.3185729000252,340.30186880001565,340.30780370003777,340.3185729000252,340.3185729000252,340.3185729000252,344.23546950001037,Scenes\071b.jpg,pre,s,3.9139536999864504,None,,,,,,,,00023,001,2026-01-20_17h47.38.675,MST_test,2024.2.0,60.06359534351802,2026-01-20 17h47.49.164594 +0530,
48,0,49,s,1.639681299973745,None,49,0,48,344.2515914000105,,,,,,,,,,,,,,,,,,,,,,,,,,,,,,,,,,,,,,,,,,,,,,,,,,344.2355664999923,344.2515914000105,344.7518991000252,344.735162500001,344.74765919998754,344.7518991000252,344.7518991000252,344.7518991000252,346.4021337000304,Objects\089b.jpg,mid,s,1.639681299973745,None,,,,,,,,00023,001,2026-01-20_17h47.38.675,MST_test,2024.2.0,60.06359534351802,2026-01-20 17h47.49.164594 +0530,
49,0,50,o,1.2824999000295065,None,50,0,49,346.4181346000405,,,,,,,,,,,,,,,,,,,,,,,,,,,,,,,,,,,,,,,,,,,,,,,,,,346.4022340000374,346.4181346000405,346.9183398000314,346.90177810000023,346.90409180003917,346.9183398000314,346.9183398000314,346.9183398000314,348.20217220002087,Objects\076a.jpg,post,o,1.2824999000295065,None,,,,,,,,00023,001,2026-01-20_17h47.38.675,MST_test,2024.2.0,60.06359534351802,2026-01-20 17h47.49.164594 +0530,
50,0,51,s,3.6019437999930233,None,51,0,50,348.2180968000321,,,,,,,,,,,,,,,,,,,,,,,,,,,,,,,,,,,,,,,,,,,,,,,,,,348.2022667999845,348.2180968000321,348.7187486999901,348.70177330001025,348.7156377999927,348.7187486999901,348.7187486999901,348.7187486999901,352.33517850004137,Scenes\176b.jpg,post,s,3.6019437999930233,None,,,,,,,,00023,001,2026-01-20_17h47.38.675,MST_test,2024.2.0,60.06359534351802,2026-01-20 17h47.49.164594 +0530,
51,0,52,n,3.1883792000007816,None,52,0,51,352.35147550003603,,,,,,,,,,,,,,,,,,,,,,,,,,,,,,,,,,,,,,,,,,,,,,,,,,352.3352697000373,352.35147550003603,352.8519218000001,352.8349758000113,352.83861909998814,352.8519218000001,352.8519218000001,352.8519218000001,356.0521985000232,Objects\015a.jpg,mid,n,3.1883792000007816,None,,,,,,,,00023,001,2026-01-20_17h47.38.675,MST_test,2024.2.0,60.06359534351802,2026-01-20 17h47.49.164594 +0530,
52,0,53,s,4.270861499942839,None,53,0,52,356.0681369000231,,,,,,,,,,,,,,,,,,,,,,,,,,,,,,,,,,,,,,,,,,,,,,,,,,356.0524456999847,356.0681369000231,356.5686352000339,356.5517629000242,356.5585814000224,356.5686352000339,356.5686352000339,356.5686352000339,360.852512500016,Scenes\185b.jpg,pre,s,4.270861499942839,None,,,,,,,,00023,001,2026-01-20_17h47.38.675,MST_test,2024.2.0,60.06359534351802,2026-01-20 17h47.49.164594 +0530,
53,0,54,n,1.6875524999923073,None,54,0,53,360.8682131000096,,,,,,,,,,,,,,,,,,,,,,,,,,,,,,,,,,,,,,,,,,,,,,,,,,360.8526153000421,360.8682131000096,361.36853820004035,361.3519130999921,361.36130769999,361.36853820004035,361.36853820004035,361.36853820004035,363.0686261000228,Foils\scenes16.jpg,none,n,1.6875524999923073,None,,,,,,,,00023,001,2026-01-20_17h47.38.675,MST_test,2024.2.0,60.06359534351802,2026-01-20 17h47.49.164594 +0530,
54,0,55,o,1.806937100016512,None,55,0,54,363.0849285000004,,,,,,,,,,,,,,,,,,,,,,,,,,,,,,,,,,,,,,,,,,,,,,,,,,363.0687154000043,363.0849285000004,363.58513690001564,363.5683231999865,363.5789259999874,363.58513690001564,363.58513690001564,363.58513690001564,365.4022706000251,Scenes\043a.jpg,pre,o,1.806937100016512,None,,,,,,,,00023,001,2026-01-20_17h47.38.675,MST_test,2024.2.0,60.06359534351802,2026-01-20 17h47.49.164594 +0530,
55,0,56,o,1.0578274000436068,None,56,0,55,365.4182485000347,,,,,,,,,,,,,,,,,,,,,,,,,,,,,,,,,,,,,,,,,,,,,,,,,,365.4023745000013,365.4182485000347,365.9183939000359,365.901680400013,365.9114394999924,365.9183939000359,365.9183939000359,365.9183939000359,366.9856753000058,Scenes\145a.jpg,mid,o,1.0578274000436068,None,,,,,,,,00023,001,2026-01-20_17h47.38.675,MST_test,2024.2.0,60.06359534351802,2026-01-20 17h47.49.164594 +0530,
56,0,57,n,4.12178489996586,None,57,0,56,367.0015042999876,,,,,,,,,,,,,,,,,,,,,,,,,,,,,,,,,,,,,,,,,,,,,,,,,,366.98577670002123,367.0015042999876,367.5020392999868,367.48492469999474,367.4924389999942,367.5020392999868,367.5020392999868,367.5020392999868,371.63543429999845,Scenes\109a.jpg,mid,n,4.12178489996586,None,,,,,,,,00023,001,2026-01-20_17h47.38.675,MST_test,2024.2.0,60.06359534351802,2026-01-20 17h47.49.164594 +0530,
57,0,58,s,2.567817000031937,None,58,0,57,371.6515242999885,,,,,,,,,,,,,,,,,,,,,,,,,,,,,,,,,,,,,,,,,,,,,,,,,,371.63553910003975,371.6515242999885,372.15195760002825,372.13504700001795,372.1380108000012,372.15195760002825,372.15195760002825,372.15195760002825,374.7353494000272,Objects\014b.jpg,post,s,2.567817000031937,None,,,,,,,,00023,001,2026-01-20_17h47.38.675,MST_test,2024.2.0,60.06359534351802,2026-01-20 17h47.49.164594 +0530,
58,0,59,o,6.844321399985347,None,59,0,58,374.7514993000077,,,,,,,,,,,,,,,,,,,,,,,,,,,,,,,,,,,,,,,,,,,,,,,,,,374.73544630000833,374.7514993000077,375.2516175000346,375.2349303000374,375.2372670000186,375.2516175000346,375.2516175000346,375.2516175000346,382.1022285000072,Objects\006a.jpg,post,o,6.844321399985347,None,,,,,,,,00023,001,2026-01-20_17h47.38.675,MST_test,2024.2.0,60.06359534351802,2026-01-20 17h47.49.164594 +0530,
59,0,60,n,1.5012912999955006,None,60,0,59,382.1180904000066,,,,,,,,,,,,,,,,,,,,,,,,,,,,,,,,,,,,,,,,,,,,,,,,,,382.10233080002945,382.1180904000066,382.6183657000074,382.6017220999929,382.61221210000804,382.6183657000074,382.6183657000074,382.6183657000074,384.1369704999961,Foils\082a.jpg,none,n,1.5012912999955006,None,,,,,,,,00023,001,2026-01-20_17h47.38.675,MST_test,2024.2.0,60.06359534351802,2026-01-20 17h47.49.164594 +0530,
60,0,61,s,6.956141400034539,None,61,0,60,384.15146010002354,,,,,,,,,,,,,,,,,,,,,,,,,,,,,,,,,,,,,,,,,,,,,,,,,,384.1370620999951,384.15146010002354,384.6517860000022,384.63492049998604,384.6371565000154,384.6517860000022,384.6517860000022,384.6517860000022,391.6187411000137,Foils\scenes3.jpg,none,s,6.956141400034539,None,,,,,,,,00023,001,2026-01-20_17h47.38.675,MST_test,2024.2.0,60.06359534351802,2026-01-20 17h47.49.164594 +0530,
61,0,62,n,1.5427407000097446,None,62,0,61,391.6348997000023,,,,,,,,,,,,,,,,,,,,,,,,,,,,,,,,,,,,,,,,,,,,,,,,,,391.6188384999987,391.6348997000023,392.13729169999715,392.11864510003943,392.13540269999066,392.13729169999715,392.13729169999715,392.13729169999715,393.6855593000073,Scenes\149b.jpg,post,n,1.5427407000097446,None,,,,,,,,00023,001,2026-01-20_17h47.38.675,MST_test,2024.2.0,60.06359534351802,2026-01-20 17h47.49.164594 +0530,
62,0,63,o,1.1014432000229135,None,63,0,62,393.7016026999918,,,,,,,,,,,,,,,,,,,,,,,,,,,,,,,,,,,,,,,,,,,,,,,,,,393.68565050000325,393.7016026999918,394.20193010004004,394.18523110001115,394.1959242000012,394.20193010004004,394.20193010004004,394.20193010004004,395.31903820001753,Objects\001b.jpg,post,o,1.1014432000229135,None,,,,,,,,00023,001,2026-01-20_17h47.38.675,MST_test,2024.2.0,60.06359534351802,2026-01-20 17h47.49.164594 +0530,
63,0,64,n,1.3582949999836273,None,64,0,63,395.33486940001603,,,,,,,,,,,,,,,,,,,,,,,,,,,,,,,,,,,,,,,,,,,,,,,,,,395.31913780001923,395.33486940001603,395.84150600002613,395.8184883000213,395.8392090999987,395.84150600002613,395.84150600002613,395.84150600002613,397.2022362999851,Scenes\088b.jpg,pre,n,1.3582949999836273,None,,,,,,,,00023,001,2026-01-20_17h47.38.675,MST_test,2024.2.0,60.06359534351802,2026-01-20 17h47.49.164594 +0530,
64,0,65,n,2.7058801000239328,None,65,0,64,397.2182175000198,,,,,,,,,,,,,,,,,,,,,,,,,,,,,,,,,,,,,,,,,,,,,,,,,,397.2023304000031,397.2182175000198,397.71880209998926,397.70191040000645,397.70436929998687,397.71880209998926,397.71880209998926,397.71880209998926,400.43544710002607,Foils\scenes14.jpg,none,n,2.7058801000239328,None,,,,,,,,00023,001,2026-01-20_17h47.38.675,MST_test,2024.2.0,60.06359534351802,2026-01-20 17h47.49.164594 +0530,
65,0,66,o,1.176105800026562,None,66,0,65,400.4515082000289,,,,,,,,,,,,,,,,,,,,,,,,,,,,,,,,,,,,,,,,,,,,,,,,,,400.43555860000197,400.4515082000289,400.95193380001,400.93540730001405,400.9385349000222,400.95193380001,400.95193380001,400.95193380001,402.13734060002025,Objects\061a.jpg,pre,o,1.176105800026562,None,,,,,,,,00023,001,2026-01-20_17h47.38.675,MST_test,2024.2.0,60.06359534351802,2026-01-20 17h47.49.164594 +0530,
66,0,67,s,2.6684602000168525,None,67,0,66,402.15163340000436,,,,,,,,,,,,,,,,,,,,,,,,,,,,,,,,,,,,,,,,,,,,,,,,,,402.13743480003905,402.15163340000436,402.65174490003847,402.6351922000176,402.6378359000082,402.65174490003847,402.65174490003847,402.65174490003847,405.3354579000152,Objects\018b.jpg,mid,s,2.6684602000168525,None,,,,,,,,00023,001,2026-01-20_17h47.38.675,MST_test,2024.2.0,60.06359534351802,2026-01-20 17h47.49.164594 +0530,
67,0,68,s,4.068338299985044,None,68,0,67,405.35156189999543,,,,,,,,,,,,,,,,,,,,,,,,,,,,,,,,,,,,,,,,,,,,,,,,,,405.33555419999175,405.35156189999543,405.85201309999684,405.83522360003553,405.8388649999979,405.85201309999684,405.85201309999684,405.85201309999684,409.93551909999223,Scenes\022a.jpg,mid,s,4.068338299985044,None,,,,,,,,00023,001,2026-01-20_17h47.38.675,MST_test,2024.2.0,60.06359534351802,2026-01-20 17h47.49.164594 +0530,
68,0,69,o,1.0275976000120863,None,69,0,68,409.95151430001715,,,,,,,,,,,,,,,,,,,,,,,,,,,,,,,,,,,,,,,,,,,,,,,,,,409.9356123000034,409.95151430001715,410.4520120000234,410.4351575000328,410.43858519999776,410.4520120000234,410.4520120000234,410.4520120000234,411.4854506000411,Objects\037a.jpg,mid,o,1.0275976000120863,None,,,,,,,,00023,001,2026-01-20_17h47.38.675,MST_test,2024.2.0,60.06359534351802,2026-01-20 17h47.49.164594 +0530,
69,0,70,o,1.1262446999899112,None,70,0,69,411.50163720001,,,,,,,,,,,,,,,,,,,,,,,,,,,,,,,,,,,,,,,,,,,,,,,,,,411.48554920003517,411.50163720001,412.0019013999845,411.98506199999247,411.9966970999958,412.0019013999845,412.0019013999845,412.0019013999845,413.1374366999953,Objects\039b.jpg,post,o,1.1262446999899112,None,,,,,,,,00023,001,2026-01-20_17h47.38.675,MST_test,2024.2.0,60.06359534351802,2026-01-20 17h47.49.164594 +0530,
70,0,71,s,1.524394400010351,None,71,0,70,413.15163320000283,,,,,,,,,,,,,,,,,,,,,,,,,,,,,,,,,,,,,,,,,,,,,,,,,,413.1375296000042,413.15163320000283,413.6520002000034,413.63527570001315,413.643818200042,413.6520002000034,413.6520002000034,413.6520002000034,415.18536230002064,Scenes\095a.jpg,post,s,1.524394400010351,None,,,,,,,,00023,001,2026-01-20_17h47.38.675,MST_test,2024.2.0,60.06359534351802,2026-01-20 17h47.49.164594 +0530,
71,0,72,n,1.841664400009904,None,72,0,71,415.2015838000225,,,,,,,,,,,,,,,,,,,,,,,,,,,,,,,,,,,,,,,,,,,,,,,,,,415.1854749000049,415.2015838000225,415.70207260001916,415.6850703000091,415.6884138000314,415.70207260001916,415.70207260001916,415.70207260001916,417.552402900008,Objects\025a.jpg,pre,n,1.841664400009904,None,,,,,,,,00023,001,2026-01-20_17h47.38.675,MST_test,2024.2.0,60.06359534351802,2026-01-20 17h47.49.164594 +0530,
72,0,73,s,2.5563091000076383,None,73,0,72,417.56828529998893,,,,,,,,,,,,,,,,,,,,,,,,,,,,,,,,,,,,,,,,,,,,,,,,,,417.5525052000303,417.56828529998893,418.0684730000212,418.05178239999805,418.05412590003107,418.0684730000212,418.0684730000212,418.0684730000212,420.63551009999355,Foils\066a.jpg,none,s,2.5563091000076383,None,,,,,,,,00023,001,2026-01-20_17h47.38.675,MST_test,2024.2.0,60.06359534351802,2026-01-20 17h47.49.164594 +0530,
73,0,74,o,1.5681074000312947,None,74,0,73,420.6515420000069,,,,,,,,,,,,,,,,,,,,,,,,,,,,,,,,,,,,,,,,,,,,,,,,,,420.63560320000397,420.6515420000069,,421.136840799998,421.14432469999883,421.15199560002657,421.15199560002657,421.15199560002657,422.73535959998844,Scenes\073a.jpg,pre,o,1.5681074000312947,None,,,,,,,,00023,001,2026-01-20_17h47.38.675,MST_test,2024.2.0,60.06359534351802,2026-01-20 17h47.49.164594 +0530,
74,0,75,s,6.028387099970132,None,75,0,74,422.7515032000374,,,,,,,,,,,,,,,,,,,,,,,,,,,,,,,,,,,,,,,,,,,,,,,,,,422.7354537000065,422.7515032000374,423.2520532000344,423.23531170003116,423.243420600018,423.2520532000344,423.2520532000344,423.2520532000344,429.285434200021,Scenes\144a.jpg,pre,s,6.028387099970132,None,,,,,,,,00023,001,2026-01-20_17h47.38.675,MST_test,2024.2.0,60.06359534351802,2026-01-20 17h47.49.164594 +0530,
75,0,76,n,1.3987086999695748,None,76,0,75,429.30150380003033,,,,,,,,,,,,,,,,,,,,,,,,,,,,,,,,,,,,,,,,,,,,,,,,,,429.28554140002234,429.30150380003033,429.8018920000177,429.7849087000359,429.7951456999872,429.8018920000177,429.8018920000177,429.8018920000177,431.2024670999963,Objects\168b.jpg,post,n,1.3987086999695748,None,,,,,,,,00023,001,2026-01-20_17h47.38.675,MST_test,2024.2.0,60.06359534351802,2026-01-20 17h47.49.164594 +0530,
76,0,77,s,1.8409836000064388,None,77,0,76,431.2183707000222,,,,,,,,,,,,,,,,,,,,,,,,,,,,,,,,,,,,,,,,,,,,,,,,,,431.2025682000094,431.2183707000222,431.71857630001614,431.7020203000284,431.70491600001696,431.71857630001614,431.71857630001614,431.71857630001614,433.5688543000142,Objects\113a.jpg,post,s,1.8409836000064388,None,,,,,,,,00023,001,2026-01-20_17h47.38.675,MST_test,2024.2.0,60.06359534351802,2026-01-20 17h47.49.164594 +0530,
77,0,78,s,1.4032312000053935,None,78,0,77,433.5848677000031,,,,,,,,,,,,,,,,,,,,,,,,,,,,,,,,,,,,,,,,,,,,,,,,,,433.5689512999961,433.5848677000031,434.0850395000307,434.06853440002305,434.07805680000456,434.0850395000307,434.0850395000307,434.0850395000307,435.5022434000275,Objects\094b.jpg,mid,s,1.4032312000053935,None,,,,,,,,00023,001,2026-01-20_17h47.38.675,MST_test,2024.2.0,60.06359534351802,2026-01-20 17h47.49.164594 +0530,
78,0,79,n,1.1489570999983698,None,79,0,78,435.5182038000203,,,,,,,,,,,,,,,,,,,,,,,,,,,,,,,,,,,,,,,,,,,,,,,,,,435.5023430000292,435.5182038000203,436.0186335000326,436.0017749000108,436.0040152000147,436.0186335000326,436.0186335000326,436.0186335000326,437.1688534000423,Foils\scenes18.jpg,none,n,1.1489570999983698,None,,,,,,,,00023,001,2026-01-20_17h47.38.675,MST_test,2024.2.0,60.06359534351802,2026-01-20 17h47.49.164594 +0530,
79,0,80,o,1.4830270999809727,None,80,0,79,437.1846949000028,,,,,,,,,,,,,,,,,,,,,,,,,,,,,,,,,,,,,,,,,,,,,,,,,,437.1689516000333,437.1846949000028,437.68513850000454,437.66829900001176,437.674980700016,437.68513850000454,437.68513850000454,437.68513850000454,439.16897090000566,Scenes\049a.jpg,pre,o,1.4830270999809727,None,,,,,,,,00023,001,2026-01-20_17h47.38.675,MST_test,2024.2.0,60.06359534351802,2026-01-20 17h47.49.164594 +0530,
80,0,81,n,1.0352224999805912,None,81,0,80,439.18491489998996,,,,,,,,,,,,,,,,,,,,,,,,,,,,,,,,,,,,,,,,,,,,,,,,,,439.1690720000188,439.18491489998996,439.6851308000041,439.6684643999906,439.6716481000185,439.6851308000041,439.6851308000041,439.6851308000041,440.735528899997,Foils\093b.jpg,none,n,1.0352224999805912,None,,,,,,,,00023,001,2026-01-20_17h47.38.675,MST_test,2024.2.0,60.06359534351802,2026-01-20 17h47.49.164594 +0530,
81,0,82,n,0.93189429998165,None,82,0,81,440.75151289999485,,,,,,,,,,,,,,,,,,,,,,,,,,,,,,,,,,,,,,,,,,,,,,,,,,440.7356194999884,440.75151289999485,441.2517717999872,441.235199799994,441.2375568000134,441.2517717999872,441.2517717999872,441.2517717999872,442.1855161000276,Foils\074a.jpg,none,n,0.93189429998165,None,,,,,,,,00023,001,2026-01-20_17h47.38.675,MST_test,2024.2.0,60.06359534351802,2026-01-20 17h47.49.164594 +0530,
82,0,83,n,3.961866200028453,None,83,0,82,442.20154610002646,,,,,,,,,,,,,,,,,,,,,,,,,,,,,,,,,,,,,,,,,,,,,,,,,,442.18560700002126,442.20154610002646,442.7016650000005,442.68513019999955,442.6951987000066,442.7016650000005,442.7016650000005,442.7016650000005,446.66883330000564,Objects\119b.jpg,mid,n,3.961866200028453,None,,,,,,,,00023,001,2026-01-20_17h47.38.675,MST_test,2024.2.0,60.06359534351802,2026-01-20 17h47.49.164594 +0530,
83,0,84,s,5.71129230002407,None,84,0,83,446.68489420000697,,,,,,,,,,,,,,,,,,,,,,,,,,,,,,,,,,,,,,,,,,,,,,,,,,446.66892830003053,446.68489420000697,447.18497520004166,447.1686836000299,447.1788189000217,447.18497520004166,447.18497520004166,447.18497520004166,452.9022901999997,Objects\165b.jpg,post,s,5.71129230002407,None,,,,,,,,00023,001,2026-01-20_17h47.38.675,MST_test,2024.2.0,60.06359534351802,2026-01-20 17h47.49.164594 +0530,
84,0,85,n,2.30780309997499,None,85,0,84,452.91816010000184,,,,,,,,,,,,,,,,,,,,,,,,,,,,,,,,,,,,,,,,,,,,,,,,,,452.9023860000307,452.91816010000184,453.4197385000298,453.40173300000606,453.41774330002954,453.4197385000298,453.4197385000298,453.4197385000298,455.7355053999927,Scenes\146b.jpg,pre,n,2.30780309997499,None,,,,,,,,00023,001,2026-01-20_17h47.38.675,MST_test,2024.2.0,60.06359534351802,2026-01-20 17h47.49.164594 +0530,
85,0,86,o,3.0073352999752387,None,86,0,85,455.75149840000086,,,,,,,,,,,,,,,,,,,,,,,,,,,,,,,,,,,,,,,,,,,,,,,,,,455.7356003000168,455.75149840000086,456.2570369000314,456.235147600004,456.2548203000333,456.2570369000314,456.2570369000314,456.2570369000314,459.2688169000321,Scenes\009b.jpg,post,o,3.0073352999752387,None,,,,,,,,00023,001,2026-01-20_17h47.38.675,MST_test,2024.2.0,60.06359534351802,2026-01-20 17h47.49.164594 +0530,
86,0,87,s,1.471742700028699,None,87,0,86,459.28476420004154,,,,,,,,,,,,,,,,,,,,,,,,,,,,,,,,,,,,,,,,,,,,,,,,,,459.2689078000258,459.28476420004154,459.78513490001205,459.7683377999929,459.7715564999962,459.78513490001205,459.78513490001205,459.78513490001205,461.2687109000399,Objects\125a.jpg,pre,s,1.471742700028699,None,,,,,,,,00023,001,2026-01-20_17h47.38.675,MST_test,2024.2.0,60.06359534351802,2026-01-20 17h47.49.164594 +0530,
87,0,88,o,1.671636299986858,None,88,0,87,461.28469770000083,,,,,,,,,,,,,,,,,,,,,,,,,,,,,,,,,,,,,,,,,,,,,,,,,,461.2688042999944,461.28469770000083,461.78528030001326,461.7684397000121,461.77243890002137,461.78528030001326,461.78528030001326,461.78528030001326,463.46908310003346,Scenes\087b.jpg,mid,o,1.671636299986858,None,,,,,,,,00023,001,2026-01-20_17h47.38.675,MST_test,2024.2.0,60.06359534351802,2026-01-20 17h47.49.164594 +0530,
88,0,89,n,1.423068100004457,None,89,0,88,463.48466880002525,,,,,,,,,,,,,,,,,,,,,,,,,,,,,,,,,,,,,,,,,,,,,,,,,,463.46925309998915,463.48466880002525,463.9851277000271,463.96847250004066,463.97841000003973,463.9851277000271,463.9851277000271,463.9851277000271,465.4189689999912,Foils\033a.jpg,none,n,1.423068100004457,None,,,,,,,,00023,001,2026-01-20_17h47.38.675,MST_test,2024.2.0,60.06359534351802,2026-01-20 17h47.49.164594 +0530,
89,0,90,o,1.769257900014054,None,90,0,89,465.4347130000242,,,,,,,,,,,,,,,,,,,,,,,,,,,,,,,,,,,,,,,,,,,,,,,,,,465.41906620003283,465.4347130000242,465.93517960002646,465.9185142000206,465.92681969999103,465.93517960002646,465.93517960002646,465.93517960002646,467.71918740001274,Scenes\133a.jpg,mid,o,1.769257900014054,None,,,,,,,,00023,001,2026-01-20_17h47.38.675,MST_test,2024.2.0,60.06359534351802,2026-01-20 17h47.49.164594 +0530,
90,0,91,n,1.3971140999929048,None,91,0,90,467.7347528000246,,,,,,,,,,,,,,,,,,,,,,,,,,,,,,,,,,,,,,,,,,,,,,,,,,467.7192905000411,467.7347528000246,468.2353390000062,468.21844640001655,468.2303702000063,468.2353390000062,468.2353390000062,468.2353390000062,469.6355149000301,Foils\090a.jpg,none,n,1.3971140999929048,None,,,,,,,,00023,001,2026-01-20_17h47.38.675,MST_test,2024.2.0,60.06359534351802,2026-01-20 17h47.49.164594 +0530,
91,0,92,n,1.1213297999929637,None,92,0,91,469.6515052000177,,,,,,,,,,,,,,,,,,,,,,,,,,,,,,,,,,,,,,,,,,,,,,,,,,469.635614000028,469.6515052000177,,470.1362808000413,470.2040338999941,470.20698580000317,470.20698580000317,470.20698580000317,471.33568120002747,Foils\scenes25.jpg,none,n,1.1213297999929637,None,,,,,,,,00023,001,2026-01-20_17h47.38.675,MST_test,2024.2.0,60.06359534351802,2026-01-20 17h47.49.164594 +0530,
92,0,93,s,1.4469324999954551,None,93,0,92,471.3514816000243,,,,,,,,,,,,,,,,,,,,,,,,,,,,,,,,,,,,,,,,,,,,,,,,,,471.33577639999567,471.3514816000243,471.8567045000382,471.83504989999346,471.8549262000015,471.8567045000382,471.8567045000382,471.8567045000382,473.318665400031,Objects\084b.jpg,pre,s,1.4469324999954551,None,,,,,,,,00023,001,2026-01-20_17h47.38.675,MST_test,2024.2.0,60.06359534351802,2026-01-20 17h47.49.164594 +0530,
93,0,94,s,3.2164793999982066,None,94,0,93,473.334789799992,,,,,,,,,,,,,,,,,,,,,,,,,,,,,,,,,,,,,,,,,,,,,,,,,,473.3187565000262,473.334789799992,473.83914330002153,473.8184207000304,473.83685610000975,473.83914330002153,473.83914330002153,473.83914330002153,477.06870649999473,Scenes\076b.jpg,pre,s,3.2164793999982066,None,,,,,,,,00023,001,2026-01-20_17h47.38.675,MST_test,2024.2.0,60.06359534351802,2026-01-20 17h47.49.164594 +0530,
94,0,95,s,1.7183205999899656,None,95,0,94,477.0847844000091,,,,,,,,,,,,,,,,,,,,,,,,,,,,,,,,,,,,,,,,,,,,,,,,,,477.068796400039,477.0847844000091,477.5853303000331,477.56825499999104,477.5713225000072,477.5853303000331,477.5853303000331,477.5853303000331,479.318746200006,Objects\106a.jpg,pre,s,1.7183205999899656,None,,,,,,,,00023,001,2026-01-20_17h47.38.675,MST_test,2024.2.0,60.06359534351802,2026-01-20 17h47.49.164594 +0530,
95,0,96,s,3.4764804000151344,None,96,0,95,479.33483130001696,,,,,,,,,,,,,,,,,,,,,,,,,,,,,,,,,,,,,,,,,,,,,,,,,,479.31883920001565,479.33483130001696,479.83509730000515,479.81847980001476,479.82867389998864,479.83509730000515,479.83509730000515,479.83509730000515,483.31873130000895,Objects\175b.jpg,mid,s,3.4764804000151344,None,,,,,,,,00023,001,2026-01-20_17h47.38.675,MST_test,2024.2.0,60.06359534351802,2026-01-20 17h47.49.164594 +0530,
96,0,97,n,4.628613099979702,None,97,0,96,483.33476659998996,,,,,,,,,,,,,,,,,,,,,,,,,,,,,,,,,,,,,,,,,,,,,,,,,,483.31882109999424,483.33476659998996,483.8350537000224,483.81829460000154,483.8208403000026,483.8350537000224,483.8350537000224,483.8350537000224,488.46863550000126,Objects\150b.jpg,post,n,4.628613099979702,None,,,,,,,,00023,001,2026-01-20_17h47.38.675,MST_test,2024.2.0,60.06359534351802,2026-01-20 17h47.49.164594 +0530,
97,0,98,s,1.7987649000133388,None,98,0,97,488.4848312000395,,,,,,,,,,,,,,,,,,,,,,,,,,,,,,,,,,,,,,,,,,,,,,,,,,488.4687378000235,488.4848312000395,488.98531100002583,488.96819330001017,488.9786785999895,488.98531100002583,488.98531100002583,488.98531100002583,490.78542650002055,Scenes\189b.jpg,mid,s,1.7987649000133388,None,,,,,,,,00023,001,2026-01-20_17h47.38.675,MST_test,2024.2.0,60.06359534351802,2026-01-20 17h47.49.164594 +0530,
98,0,99,s,1.623473700019531,None,99,0,98,490.8014708000119,,,,,,,,,,,,,,,,,,,,,,,,,,,,,,,,,,,,,,,,,,,,,,,,,,490.78552090004086,490.8014708000119,491.3048743000254,491.2853752000374,491.30263440002454,491.3048743000254,491.3048743000254,491.3048743000254,492.9355841000215,Scenes\052b.jpg,pre,s,1.623473700019531,None,,,,,,,,00023,001,2026-01-20_17h47.38.675,MST_test,2024.2.0,60.06359534351802,2026-01-20 17h47.49.164594 +0530,
99,0,100,o,3.8999184999847785,None,100,0,99,492.9515445000143,,,,,,,,,,,,,,,,,,,,,,,,,,,,,,,,,,,,,,,,,,,,,,,,,,492.93568769999547,492.9515445000143,493.45212929998524,493.43531259999145,493.44565130001865,493.45212929998524,493.45212929998524,493.45212929998524,497.368672600016,Scenes\060a.jpg,pre,o,3.8999184999847785,None,,,,,,,,00023,001,2026-01-20_17h47.38.675,MST_test,2024.2.0,60.06359534351802,2026-01-20 17h47.49.164594 +0530,
100,0,101,o,1.6636470999801531,None,101,0,100,497.3849084000103,,,,,,,,,,,,,,,,,,,,,,,,,,,,,,,,,,,,,,,,,,,,,,,,,,497.368780800025,497.3849084000103,497.88976930000354,497.8684067000286,497.8875982000027,497.88976930000354,497.88976930000354,497.88976930000354,499.5686738000368,Scenes\015b.jpg,post,o,1.6636470999801531,None,,,,,,,,00023,001,2026-01-20_17h47.38.675,MST_test,2024.2.0,60.06359534351802,2026-01-20 17h47.49.164594 +0530,
101,0,102,o,1.1223243999993429,None,102,0,101,499.5848277999903,,,,,,,,,,,,,,,,,,,,,,,,,,,,,,,,,,,,,,,,,,,,,,,,,,499.56876440002816,499.5848277999903,500.0854632999981,500.06827150000026,500.08010780002223,500.0854632999981,500.0854632999981,500.0854632999981,501.21863680001115,Scenes\023b.jpg,post,o,1.1223243999993429,None,,,,,,,,00023,001,2026-01-20_17h47.38.675,MST_test,2024.2.0,60.06359534351802,2026-01-20 17h47.49.164594 +0530,
102,0,103,s,1.84816170000704,None,103,0,102,501.2352316000033,,,,,,,,,,,,,,,,,,,,,,,,,,,,,,,,,,,,,,,,,,,,,,,,,,501.2187341999961,501.2352316000033,501.7355050999904,501.7183972999919,501.7295539000188,501.7355050999904,501.7355050999904,501.7355050999904,503.5854029000038,Scenes\001a.jpg,post,s,1.84816170000704,None,,,,,,,,00023,001,2026-01-20_17h47.38.675,MST_test,2024.2.0,60.06359534351802,2026-01-20 17h47.49.164594 +0530,
103,0,104,s,4.057648700021673,None,104,0,103,503.6015296000405,,,,,,,,,,,,,,,,,,,,,,,,,,,,,,,,,,,,,,,,,,,,,,,,,,503.58549500000663,503.6015296000405,504.10214500001166,504.08512290002545,504.0991211000364,504.10214500001166,504.10214500001166,504.10214500001166,508.1688070000382,Scenes\123b.jpg,post,s,4.057648700021673,None,,,,,,,,00023,001,2026-01-20_17h47.38.675,MST_test,2024.2.0,60.06359534351802,2026-01-20 17h47.49.164594 +0530,
104,0,105,s,2.0672993999905884,None,105,0,104,508.1849019000074,,,,,,,,,,,,,,,,,,,,,,,,,,,,,,,,,,,,,,,,,,,,,,,,,,508.1689100000076,508.1849019000074,508.6853018000256,508.66864420002094,508.6719352999935,508.6853018000256,508.6853018000256,508.6853018000256,510.768851300003,Objects\053a.jpg,mid,s,2.0672993999905884,None,,,,,,,,00023,001,2026-01-20_17h47.38.675,MST_test,2024.2.0,60.06359534351802,2026-01-20 17h47.49.164594 +0530,
105,0,106,o,1.3551612999872304,None,106,0,105,510.78500500001246,,,,,,,,,,,,,,,,,,,,,,,,,,,,,,,,,,,,,,,,,,,,,,,,,,510.7689519000123,510.78500500001246,511.2851829000283,511.26866770000197,511.27136340003926,511.2851829000283,511.2851829000283,511.2851829000283,512.6522144000046,Objects\062a.jpg,pre,o,1.3551612999872304,None,,,,,,,,00023,001,2026-01-20_17h47.38.675,MST_test,2024.2.0,60.06359534351802,2026-01-20 17h47.49.164594 +0530,
106,0,107,s,2.7579286999534816,None,107,0,106,512.6683267999906,,,,,,,,,,,,,,,,,,,,,,,,,,,,,,,,,,,,,,,,,,,,,,,,,,512.6523267999873,512.6683267999906,513.1695830000099,513.1518127000309,513.1674746000208,513.1695830000099,513.1695830000099,513.1695830000099,515.9356368000153,Scenes\143b.jpg,pre,s,2.7579286999534816,None,,,,,,,,00023,001,2026-01-20_17h47.38.675,MST_test,2024.2.0,60.06359534351802,2026-01-20 17h47.49.164594 +0530,
107,0,108,s,1.268391599995084,None,108,0,107,515.951627900009,,,,,,,,,,,,,,,,,,,,,,,,,,,,,,,,,,,,,,,,,,,,,,,,,,515.9357339999988,515.951627900009,516.4520792000112,516.4351693000062,516.4460346000269,516.4520792000112,516.4520792000112,516.4520792000112,517.7360440000193,Objects\024b.jpg,pre,s,1.268391599995084,None,,,,,,,,00023,001,2026-01-20_17h47.38.675,MST_test,2024.2.0,60.06359534351802,2026-01-20 17h47.49.164594 +0530,
108,0,109,s,2.9237666000262834,None,109,0,108,517.7515761000104,,,,,,,,,,,,,,,,,,,,,,,,,,,,,,,,,,,,,,,,,,,,,,,,,,517.7361376000335,517.7515761000104,518.2518188999966,518.2352615999989,518.2444042999996,518.2518188999966,518.2518188999966,518.2518188999966,521.1856149000232,Foils\042a.jpg,none,s,2.9237666000262834,None,,,,,,,,00023,001,2026-01-20_17h47.38.675,MST_test,2024.2.0,60.06359534351802,2026-01-20 17h47.49.164594 +0530,
109,0,110,n,1.8729795999825,None,110,0,109,521.2015197000001,,,,,,,,,,,,,,,,,,,,,,,,,,,,,,,,,,,,,,,,,,,,,,,,,,521.1857083000359,521.2015197000001,521.7026052000001,521.6852020000224,521.7001889999956,521.7026052000001,521.7026052000001,521.7026052000001,523.585475000029,Scenes\180b.jpg,mid,n,1.8729795999825,None,,,,,,,,00023,001,2026-01-20_17h47.38.675,MST_test,2024.2.0,60.06359534351802,2026-01-20 17h47.49.164594 +0530,
110,0,111,n,0.7938144999789074,None,111,0,110,523.6016622000025,,,,,,,,,,,,,,,,,,,,,,,,,,,,,,,,,,,,,,,,,,,,,,,,,,523.5855703999987,523.6016622000025,524.102040000027,524.0851737000048,524.0949359000078,524.102040000027,524.102040000027,524.102040000027,524.9022327000275,Scenes\035a.jpg,post,n,0.7938144999789074,None,,,,,,,,00023,001,2026-01-20_17h47.38.675,MST_test,2024.2.0,60.06359534351802,2026-01-20 17h47.49.164594 +0530,
111,0,112,s,1.2296054000034928,None,112,0,111,524.9180425000377,,,,,,,,,,,,,,,,,,,,,,,,,,,,,,,,,,,,,,,,,,,,,,,,,,524.9023255000357,524.9180425000377,525.4187473999918,525.4019347000285,525.4053522000322,525.4187473999918,525.4187473999918,525.4187473999918,526.6521570000332,Objects\137a.jpg,pre,s,1.2296054000034928,None,,,,,,,,00023,001,2026-01-20_17h47.38.675,MST_test,2024.2.0,60.06359534351802,2026-01-20 17h47.49.164594 +0530,
112,0,113,o,1.536480400012806,None,113,0,112,526.6682063000044,,,,,,,,,,,,,,,,,,,,,,,,,,,,,,,,,,,,,,,,,,,,,,,,,,526.652261500014,526.6682063000044,527.1685246000416,527.1519529999932,527.1582741999882,527.1685246000416,527.1685246000416,527.1685246000416,528.7187370000174,Scenes\179a.jpg,mid,o,1.536480400012806,None,,,,,,,,00023,001,2026-01-20_17h47.38.675,MST_test,2024.2.0,60.06359534351802,2026-01-20 17h47.49.164594 +0530,
113,0,114,s,3.924389199994039,None,114,0,113,528.734945800039,,,,,,,,,,,,,,,,,,,,,,,,,,,,,,,,,,,,,,,,,,,,,,,,,,528.7188285000157,528.734945800039,529.2352865000139,529.2184148000088,529.2220338000334,529.2352865000139,529.2352865000139,529.2352865000139,533.1689519000356,Scenes\033a.jpg,post,s,3.924389199994039,None,,,,,,,,00023,001,2026-01-20_17h47.38.675,MST_test,2024.2.0,60.06359534351802,2026-01-20 17h47.49.164594 +0530,
114,0,115,o,1.4986755000427365,None,115,0,114,533.184904600028,,,,,,,,,,,,,,,,,,,,,,,,,,,,,,,,,,,,,,,,,,,,,,,,,,533.1690480000107,533.184904600028,533.685167699994,533.668811600015,533.6804384000134,533.685167699994,533.685167699994,533.685167699994,535.1854776000255,Objects\032b.jpg,mid,o,1.4986755000427365,None,,,,,,,,00023,001,2026-01-20_17h47.38.675,MST_test,2024.2.0,60.06359534351802,2026-01-20 17h47.49.164594 +0530,
115,0,116,s,2.177809399960097,None,116,0,115,535.2016219000216,,,,,,,,,,,,,,,,,,,,,,,,,,,,,,,,,,,,,,,,,,,,,,,,,,535.1855686000199,535.2016219000216,535.7018750000279,535.685177700012,535.6879913000157,535.7018750000279,535.7018750000279,535.7018750000279,537.885462300037,Objects\189a.jpg,post,s,2.177809399960097,None,,,,,,,,00023,001,2026-01-20_17h47.38.675,MST_test,2024.2.0,60.06359534351802,2026-01-20 17h47.49.164594 +0530,
116,0,117,s,1.406927500036545,None,117,0,116,537.9016329000005,,,,,,,,,,,,,,,,,,,,,,,,,,,,,,,,,,,,,,,,,,,,,,,,,,537.8855591000174,537.9016329000005,538.4017718000105,538.3851851000218,538.3878137000138,538.4017718000105,538.4017718000105,538.4017718000105,539.8186914999969,Objects\052a.jpg,pre,s,1.406927500036545,None,,,,,,,,00023,001,2026-01-20_17h47.38.675,MST_test,2024.2.0,60.06359534351802,2026-01-20 17h47.49.164594 +0530,
117,0,118,o,1.1121128000086173,None,118,0,117,539.8348351999884,,,,,,,,,,,,,,,,,,,,,,,,,,,,,,,,,,,,,,,,,,,,,,,,,,539.818786000018,539.8348351999884,540.335362999991,540.3183195000165,540.3283078999957,540.335362999991,540.335362999991,540.335362999991,541.4521127000335,Scenes\107a.jpg,mid,o,1.1121128000086173,None,,,,,,,,00023,001,2026-01-20_17h47.38.675,MST_test,2024.2.0,60.06359534351802,2026-01-20 17h47.49.164594 +0530,
118,0,119,n,1.3435401000315323,None,119,0,118,541.4681184000219,,,,,,,,,,,,,,,,,,,,,,,,,,,,,,,,,,,,,,,,,,,,,,,,,,541.4522038000287,541.4681184000219,541.9686059000087,541.9518033000058,541.9547778000124,541.9686059000087,541.9686059000087,541.9686059000087,543.3186350000324,Foils\026a.jpg,none,n,1.3435401000315323,None,,,,,,,,00023,001,2026-01-20_17h47.38.675,MST_test,2024.2.0,60.06359534351802,2026-01-20 17h47.49.164594 +0530,
119,0,120,o,1.004699699988123,None,120,0,119,543.3349004000193,,,,,,,,,,,,,,,,,,,,,,,,,,,,,,,,,,,,,,,,,,,,,,,,,,543.3187294999952,543.3349004000193,543.8354633999988,543.8183583000209,543.8295553000062,543.8354633999988,543.8354633999988,543.8354633999988,544.8522202000022,Scenes\029a.jpg,post,o,1.004699699988123,None,,,,,,,,00023,001,2026-01-20_17h47.38.675,MST_test,2024.2.0,60.06359534351802,2026-01-20 17h47.49.164594 +0530,
120,0,121,n,2.9435263000195846,None,121,0,120,544.868026399985,,,,,,,,,,,,,,,,,,,,,,,,,,,,,,,,,,,,,,,,,,,,,,,,,,544.852310599992,544.868026399985,545.3685478999978,545.3518646000302,545.3619743000017,545.3685478999978,545.3685478999978,545.3685478999978,548.3185755999875,Foils\010a.jpg,none,n,2.9435263000195846,None,,,,,,,,00023,001,2026-01-20_17h47.38.675,MST_test,2024.2.0,60.06359534351802,2026-01-20 17h47.49.164594 +0530,
121,0,122,n,0.8602242000051774,None,122,0,121,548.334860700008,,,,,,,,,,,,,,,,,,,,,,,,,,,,,,,,,,,,,,,,,,,,,,,,,,548.3186653000303,548.334860700008,548.8352309000329,548.8184159999946,548.8206074000336,548.8352309000329,548.8352309000329,548.8352309000329,549.7020325000049,Foils\scenes8.jpg,none,n,0.8602242000051774,None,,,,,,,,00023,001,2026-01-20_17h47.38.675,MST_test,2024.2.0,60.06359534351802,2026-01-20 17h47.49.164594 +0530,
122,0,123,n,1.221771499956958,None,123,0,122,549.7183257000288,,,,,,,,,,,,,,,,,,,,,,,,,,,,,,,,,,,,,,,,,,,,,,,,,,549.7021225999924,549.7183257000288,550.2184273999883,550.201765100006,550.2046378999949,550.2184273999883,550.2184273999883,550.2184273999883,551.4521466000006,Foils\049a.jpg,none,n,1.221771499956958,None,,,,,,,,00023,001,2026-01-20_17h47.38.675,MST_test,2024.2.0,60.06359534351802,2026-01-20 17h47.49.164594 +0530,
123,0,124,s,4.070974699978251,None,124,0,123,551.4680283000343,,,,,,,,,,,,,,,,,,,,,,,,,,,,,,,,,,,,,,,,,,,,,,,,,,551.4522416000254,551.4680283000343,551.9686009000288,551.9518040000112,551.9594942000112,551.9686009000288,551.9686009000288,551.9686009000288,556.0521556999884,Scenes\042a.jpg,post,s,4.070974699978251,None,,,,,,,,00023,001,2026-01-20_17h47.38.675,MST_test,2024.2.0,60.06359534351802,2026-01-20 17h47.49.164594 +0530,
124,0,125,o,1.583336199983023,None,125,0,124,556.0681377000292,,,,,,,,,,,,,,,,,,,,,,,,,,,,,,,,,,,,,,,,,,,,,,,,,,556.0522464000387,556.0681377000292,556.5686328000156,556.5521267000004,556.5561510000261,556.5686328000156,556.5686328000156,556.5686328000156,558.1687276000157,Objects\144a.jpg,mid,o,1.583336199983023,None,,,,,,,,00023,001,2026-01-20_17h47.38.675,MST_test,2024.2.0,60.06359534351802,2026-01-20 17h47.49.164594 +0530,
125,0,126,o,1.0744888000190258,None,126,0,125,558.1849700000021,,,,,,,,,,,,,,,,,,,,,,,,,,,,,,,,,,,,,,,,,,,,,,,,,,558.168822000036,558.1849700000021,558.6860198000213,558.6684215000132,558.6836915999884,558.6860198000213,558.6860198000213,558.6860198000213,559.7686804000405,Scenes\006b.jpg,mid,o,1.0744888000190258,None,,,,,,,,00023,001,2026-01-20_17h47.38.675,MST_test,2024.2.0,60.06359534351802,2026-01-20 17h47.49.164594 +0530,
126,0,127,o,3.3952519000158645,None,127,0,126,559.7848061000113,,,,,,,,,,,,,,,,,,,,,,,,,,,,,,,,,,,,,,,,,,,,,,,,,,559.7687729999889,559.7848061000113,560.2853439000319,560.2683865000145,560.2710974999936,560.2853439000319,560.2853439000319,560.2853439000319,563.6855233000242,Objects\173a.jpg,pre,o,3.3952519000158645,None,,,,,,,,00023,001,2026-01-20_17h47.38.675,MST_test,2024.2.0,60.06359534351802,2026-01-20 17h47.49.164594 +0530,
127,0,128,s,4.157772300008219,None,128,0,127,563.701494500041,,,,,,,,,,,,,,,,,,,,,,,,,,,,,,,,,,,,,,,,,,,,,,,,,,563.6856244000373,563.701494500041,564.2017539000371,564.1851772000082,564.1951412000344,564.2017539000371,564.2017539000371,564.2017539000371,568.3687140000402,Objects\050b.jpg,post,s,4.157772300008219,None,,,,,,,,00023,001,2026-01-20_17h47.38.675,MST_test,2024.2.0,60.06359534351802,2026-01-20 17h47.49.164594 +0530,
128,0,129,o,1.7311678000260144,None,129,0,128,568.3848200000357,,,,,,,,,,,,,,,,,,,,,,,,,,,,,,,,,,,,,,,,,,,,,,,,,,568.3688049000339,568.3848200000357,568.8851467000204,568.868489400018,568.8712737000315,568.8851467000204,568.8851467000204,568.8851467000204,570.6186874000123,Objects\092a.jpg,mid,o,1.7311678000260144,None,,,,,,,,00023,001,2026-01-20_17h47.38.675,MST_test,2024.2.0,60.06359534351802,2026-01-20 17h47.49.164594 +0530,
129,0,130,n,2.333054099988658,None,130,0,129,570.634795400023,,,,,,,,,,,,,,,,,,,,,,,,,,,,,,,,,,,,,,,,,,,,,,,,,,570.6187797000166,570.634795400023,571.1388581999927,571.1183777000406,571.1359322000062,571.1388581999927,571.1388581999927,571.1388581999927,573.4855619000155,Scenes\068b.jpg,mid,n,2.333054099988658,None,,,,,,,,00023,001,2026-01-20_17h47.38.675,MST_test,2024.2.0,60.06359534351802,2026-01-20 17h47.49.164594 +0530,
130,0,131,s,2.853375500009861,None,131,0,130,573.5015826000017,,,,,,,,,,,,,,,,,,,,,,,,,,,,,,,,,,,,,,,,,,,,,,,,,,573.485660300008,573.5015826000017,574.0020850999863,573.9852262000204,573.9952440999914,574.0020850999863,574.0020850999863,574.0020850999863,576.8687110000174,Objects\184b.jpg,post,s,2.853375500009861,None,,,,,,,,00023,001,2026-01-20_17h47.38.675,MST_test,2024.2.0,60.06359534351802,2026-01-20 17h47.49.164594 +0530,
131,0,132,n,4.018463900021743,None,132,0,131,576.8848795000231,,,,,,,,,,,,,,,,,,,,,,,,,,,,,,,,,,,,,,,,,,,,,,,,,,576.8688093000092,576.8848795000231,577.3895068999846,577.3683742000139,577.3871557000093,577.3895068999846,577.3895068999846,577.3895068999846,581.4185935999849,Scenes\066b.jpg,mid,n,4.018463900021743,None,,,,,,,,00023,001,2026-01-20_17h47.38.675,MST_test,2024.2.0,60.06359534351802,2026-01-20 17h47.49.164594 +0530,
132,0,133,o,1.296390599978622,None,133,0,132,581.434846499993,,,,,,,,,,,,,,,,,,,,,,,,,,,,,,,,,,,,,,,,,,,,,,,,,,581.4186843000352,581.434846499993,581.9355863000383,581.918571199989,581.9216429000371,581.9355863000383,581.9355863000383,581.9355863000383,583.2354651000351,Objects\011a.jpg,pre,o,1.296390599978622,None,,,,,,,,00023,001,2026-01-20_17h47.38.675,MST_test,2024.2.0,60.06359534351802,2026-01-20 17h47.49.164594 +0530,
133,0,134,o,0.9043612999957986,None,134,0,133,583.2515291000018,,,,,,,,,,,,,,,,,,,,,,,,,,,,,,,,,,,,,,,,,,,,,,,,,,583.2355556000257,583.2515291000018,583.7517886999995,583.7352234999998,583.7380226000096,583.7517886999995,583.7517886999995,583.7517886999995,584.6687367000268,Objects\077a.jpg,mid,o,0.9043612999957986,None,,,,,,,,00023,001,2026-01-20_17h47.38.675,MST_test,2024.2.0,60.06359534351802,2026-01-20 17h47.49.164594 +0530,
134,0,135,o,1.1753115999745205,None,135,0,134,584.6848538999911,,,,,,,,,,,,,,,,,,,,,,,,,,,,,,,,,,,,,,,,,,,,,,,,,,584.6688316999935,584.6848538999911,585.1850682999939,585.1688779999968,585.1713649000158,585.1850682999939,585.1850682999939,585.1850682999939,586.3688266000245,Objects\146a.jpg,mid,o,1.1753115999745205,None,,,,,,,,00023,001,2026-01-20_17h47.38.675,MST_test,2024.2.0,60.06359534351802,2026-01-20 17h47.49.164594 +0530,
135,0,136,s,1.7851408999995328,None,136,0,135,586.3849501000368,,,,,,,,,,,,,,,,,,,,,,,,,,,,,,,,,,,,,,,,,,,,,,,,,,586.3689216999919,586.3849501000368,586.8874320000177,586.8685269000125,586.885463499988,586.8874320000177,586.8874320000177,586.8874320000177,588.6858332999982,Scenes\078b.jpg,mid,s,1.7851408999995328,None,,,,,,,,00023,001,2026-01-20_17h47.38.675,MST_test,2024.2.0,60.06359534351802,2026-01-20 17h47.49.164594 +0530,
136,0,137,o,1.1422017000149935,None,137,0,136,588.7014990000171,,,,,,,,,,,,,,,,,,,,,,,,,,,,,,,,,,,,,,,,,,,,,,,,,,588.6859283000231,588.7014990000171,589.2020523000392,589.185111000028,589.1887986999936,589.2020523000392,589.2020523000392,589.2020523000392,590.3520449000061,Scenes\008b.jpg,mid,o,1.1422017000149935,None,,,,,,,,00023,001,2026-01-20_17h47.38.675,MST_test,2024.2.0,60.06359534351802,2026-01-20 17h47.49.164594 +0530,
137,0,138,s,4.8739574999781325,None,138,0,137,590.3680362000014,,,,,,,,,,,,,,,,,,,,,,,,,,,,,,,,,,,,,,,,,,,,,,,,,,590.3521465000231,590.3680362000014,590.8702197000384,590.8518914000015,590.8549765000353,590.8702197000384,590.8702197000384,590.8702197000384,595.7521904000314,Objects\116a.jpg,pre,s,4.8739574999781325,None,,,,,,,,00023,001,2026-01-20_17h47.38.675,MST_test,2024.2.0,60.06359534351802,2026-01-20 17h47.49.164594 +0530,
138,0,139,o,1.2674190000398085,None,139,0,138,595.768030700041,,,,,,,,,,,,,,,,,,,,,,,,,,,,,,,,,,,,,,,,,,,,,,,,,,595.7522782000015,595.768030700041,596.2686417000368,596.2517936000368,596.2621200000285,596.2686417000368,596.2686417000368,596.2686417000368,597.5521873999969,Scenes\010a.jpg,post,o,1.2674190000398085,None,,,,,,,,00023,001,2026-01-20_17h47.38.675,MST_test,2024.2.0,60.06359534351802,2026-01-20 17h47.49.164594 +0530,
139,0,140,n,1.0436003999784589,None,140,0,139,597.5680546000367,,,,,,,,,,,,,,,,,,,,,,,,,,,,,,,,,,,,,,,,,,,,,,,,,,597.5522925000405,597.5680546000367,598.0686061999877,598.051782399998,598.0545623000362,598.0686061999877,598.0686061999877,598.0686061999877,599.1187110000174,Foils\106a.jpg,none,n,1.0436003999784589,None,,,,,,,,00023,001,2026-01-20_17h47.38.675,MST_test,2024.2.0,60.06359534351802,2026-01-20 17h47.49.164594 +0530,
140,0,141,n,1.0608536999789067,None,141,0,140,599.1348141999915,,,,,,,,,,,,,,,,,,,,,,,,,,,,,,,,,,,,,,,,,,,,,,,,,,599.1188044000301,599.1348141999915,599.6353523000143,599.6183313000365,599.6277791000321,599.6353523000143,599.6353523000143,599.6353523000143,600.7022212999873,Foils\scenes12.jpg,none,n,1.0608536999789067,None,,,,,,,,00023,001,2026-01-20_17h47.38.675,MST_test,2024.2.0,60.06359534351802,2026-01-20 17h47.49.164594 +0530,
141,0,142,s,1.9410967000294477,None,142,0,141,600.7181458999985,,,,,,,,,,,,,,,,,,,,,,,,,,,,,,,,,,,,,,,,,,,,,,,,,,600.7023149000015,600.7181458999985,601.2185218000086,601.2018498000107,601.2117652000161,601.2185218000086,601.2185218000086,601.2185218000086,603.1686868999968,Objects\081b.jpg,pre,s,1.9410967000294477,None,,,,,,,,00023,001,2026-01-20_17h47.38.675,MST_test,2024.2.0,60.06359534351802,2026-01-20 17h47.49.164594 +0530,
142,0,143,n,2.3949156999588013,None,143,0,142,603.1849066999857,,,,,,,,,,,,,,,,,,,,,,,,,,,,,,,,,,,,,,,,,,,,,,,,,,603.1687876000069,603.1849066999857,603.685065000027,603.6686473999871,603.6715863000136,603.685065000027,603.685065000027,603.685065000027,606.0855129000265,Foils\scenes11.jpg,none,n,2.3949156999588013,None,,,,,,,,00023,001,2026-01-20_17h47.38.675,MST_test,2024.2.0,60.06359534351802,2026-01-20 17h47.49.164594 +0530,
143,0,144,s,1.5342324000084773,None,144,0,143,606.1015410000109,,,,,,,,,,,,,,,,,,,,,,,,,,,,,,,,,,,,,,,,,,,,,,,,,,606.0856021000072,606.1015410000109,606.6018229000038,606.5851570999948,606.5881478000083,606.6018229000038,606.6018229000038,606.6018229000038,608.1522534000105,Objects\160a.jpg,post,s,1.5342324000084773,None,,,,,,,,00023,001,2026-01-20_17h47.38.675,MST_test,2024.2.0,60.06359534351802,2026-01-20 17h47.49.164594 +0530,
144,0,145,o,4.211920800036751,None,145,0,144,608.1680871000281,,,,,,,,,,,,,,,,,,,,,,,,,,,,,,,,,,,,,,,,,,,,,,,,,,608.1523497999879,608.1680871000281,608.6683535000193,608.651836700039,608.6544744000421,608.6683535000193,608.6683535000193,608.6683535000193,612.8854859999847,Objects\069a.jpg,post,o,4.211920800036751,None,,,,,,,,00023,001,2026-01-20_17h47.38.675,MST_test,2024.2.0,60.06359534351802,2026-01-20 17h47.49.164594 +0530,
145,0,146,n,1.2141693999874406,None,146,0,145,612.9014731000061,,,,,,,,,,,,,,,,,,,,,,,,,,,,,,,,,,,,,,,,,,,,,,,,,,612.885576700035,612.9014731000061,613.6260878000176,613.3853696000297,613.6219582000049,613.6260878000176,613.6260878000176,613.6260878000176,614.8524849000387,Foils\scenes26.jpg,none,n,1.2141693999874406,None,,,,,,,,00023,001,2026-01-20_17h47.38.675,MST_test,2024.2.0,60.06359534351802,2026-01-20 17h47.49.164594 +0530,
146,0,147,n,3.4260973999626003,None,147,0,146,614.8681077000219,,,,,,,,,,,,,,,,,,,,,,,,,,,,,,,,,,,,,,,,,,,,,,,,,,614.8525817000191,614.8681077000219,615.3901456000167,615.3517979999888,615.3882054000278,615.3901456000167,615.3901456000167,615.3901456000167,618.8187967000413,Scenes\184b.jpg,post,n,3.4260973999626003,None,,,,,,,,00023,001,2026-01-20_17h47.38.675,MST_test,2024.2.0,60.06359534351802,2026-01-20 17h47.49.164594 +0530,
147,0,148,o,1.0090459000202827,None,148,0,147,618.8349231000175,,,,,,,,,,,,,,,,,,,,,,,,,,,,,,,,,,,,,,,,,,,,,,,,,,618.8188985000015,618.8349231000175,619.3351387000293,619.3183014999959,619.3270964000258,619.3351387000293,619.3351387000293,619.3351387000293,620.3521196999936,Scenes\106a.jpg,post,o,1.0090459000202827,None,,,,,,,,00023,001,2026-01-20_17h47.38.675,MST_test,2024.2.0,60.06359534351802,2026-01-20 17h47.49.164594 +0530,
148,0,149,o,1.2751595000154339,None,149,0,148,620.3680383000174,,,,,,,,,,,,,,,,,,,,,,,,,,,,,,,,,,,,,,,,,,,,,,,,,,620.352211999998,620.3680383000174,620.8687071999884,620.8517936000135,620.8622233000351,620.8687071999884,620.8687071999884,620.8687071999884,622.152159099991,Scenes\090a.jpg,post,o,1.2751595000154339,None,,,,,,,,00023,001,2026-01-20_17h47.38.675,MST_test,2024.2.0,60.06359534351802,2026-01-20 17h47.49.164594 +0530,
149,0,150,o,2.5153110999963246,None,150,0,149,622.167978500016,,,,,,,,,,,,,,,,,,,,,,,,,,,,,,,,,,,,,,,,,,,,,,,,,,622.1522511999938,622.167978500016,622.668621800025,622.6518309999956,622.6589268000098,622.668621800025,622.668621800025,622.668621800025,625.1857171999873,Scenes\091a.jpg,post,o,2.5153110999963246,None,,,,,,,,00023,001,2026-01-20_17h47.38.675,MST_test,2024.2.0,60.06359534351802,2026-01-20 17h47.49.164594 +0530,
,,,,,,,,,,,,,,,,,,,,,,,,,,,,,,,,,,,,,,,,,,,,,,,,,,,,,,,,,,,,,,,,,,,,,,,,,625.1857869999949,625.2016748000169,625.2016748000169,643.6520822999883,space,18.43869049998466,None,00023,001,2026-01-20_17h47.38.675,MST_test,2024.2.0,60.06359534351802,2026-01-20 17h47.49.164594 +0530,
