Sl_no,image_path,thisN,thisTrialN,thisRepN,key_resp_5.keys,key_resp_7.keys,key_resp_7.rt,key_resp_7.duration,key_resp_5.rt,key_resp_5.duration,key_resp_9.keys,key_resp_9.rt,key_resp_9.duration,key_resp_8.keys,key_resp_8.rt,key_resp_8.duration,practice.thisRepN,practice.thisTrialN,practice.thisN,trials.thisRepN,trials.thisTrialN,trials.thisN,thisRow.t,notes,welcome_page.started,text.started,key_resp.started,welcome_page.stopped,key_resp.keys,key_resp.rt,key_resp.duration,instructions.started,ins.started,key_resp_2.started,instructions.stopped,key_resp_2.keys,key_resp_2.rt,key_resp_2.duration,objects_only_instruction.started,text_3.started,key_resp_3.started,objects_only_instruction.stopped,key_resp_3.keys,key_resp_3.rt,key_resp_3.duration,ISI.started,text_4.started,text_4.stopped,ISI.stopped,practice_block.started,image.started,text_5.started,key_resp_5.started,practice_block.stopped,practice.key_resp_5.keys,indoor_outdoor.started,text_7.started,key_resp_7.started,indoor_outdoor.stopped,practice.key_resp_7.keys,practice.key_resp_7.rt,practice.key_resp_7.duration,image.stopped,text_5.stopped,key_resp_5.stopped,practice.key_resp_5.rt,practice.key_resp_5.duration,practice_to_main.started,text_2.started,key_resp_4.started,practice_to_main.stopped,key_resp_4.keys,key_resp_4.rt,key_resp_4.duration,objects.started,image_2.started,text_9.started,key_resp_9.started,objects.stopped,trials.key_resp_9.keys,trials.key_resp_9.rt,trials.key_resp_9.duration,encoding_task.started,encoding_task.stopped,trials.key_resp_8.keys,image_2.stopped,text_9.stopped,key_resp_9.stopped,text_8.started,key_resp_8.started,trials.key_resp_8.rt,trials.key_resp_8.duration,end_experiment.started,text_6.started,key_resp_6.started,list_of_stimuli,participant,session,date,expName,psychopyVersion,frameRate,expStart
,,,,,,,,,,,,,,,,,,,,,,,,,0.0018536,0.0040011,0.0040011,281.420136,space,281.3986025,None,,,,,,,,,,,,,,,,,,,,,,,,,,,,,,,,,,,,,,,,,,,,,,,,,,,,,,,,,,,,,,,,,,22,1,2026-01-20_16h50.51.424,MST_task,2024.2.0,60.32694793,2026-01-20 16h51.05.601553 +0530
,,,,,,,,,,,,,,,,,,,,,,,,,,,,,,,,281.4202212,281.4337706,281.4337706,304.5163792,space,23.0795266,None,,,,,,,,,,,,,,,,,,,,,,,,,,,,,,,,,,,,,,,,,,,,,,,,,,,,,,,,,,,22,1,2026-01-20_16h50.51.424,MST_task,2024.2.0,60.32694793,2026-01-20 16h51.05.601553 +0530
,,,,,,,,,,,,,,,,,,,,,,,,,,,,,,,,,,,,,,,304.5165116,304.5372297,304.5372297,321.8676695,space,17.3212039,None,,,,,,,,,,,,,,,,,,,,,,,,,,,,,,,,,,,,,,,,,,,,,,,,,,,,22,1,2026-01-20_16h50.51.424,MST_task,2024.2.0,60.32694793,2026-01-20 16h51.05.601553 +0530
7,practice_images/166a.jpg,0,0,1,None,f,0.252263,None,,,,,,,,,1,0,0,,,,321.881316,,,,,,,,,,,,,,,,,,,,,,,321.8752176,321.881316,322.4167536,322.3652185,322.3762855,322.4167536,322.4167536,322.4167536,325.381039,None,325.3856781,325.3973455,325.3973455,325.6657039,f,0.252263,None,,,,,,,,,,,,,,,,,,,,,,,,,,,,,,,,,,,22,1,2026-01-20_16h50.51.424,MST_task,2024.2.0,60.32694793,2026-01-20 16h51.05.601553 +0530
6,practice_images/158a.jpg,1,1,1,j,None,,,2.8201427,0.0958245,,,,,,,1,1,1,,,,325.6809204,,,,,,,,,,,,,,,,,,,,,,,325.6659165,325.6809204,326.1814849,326.1653041,326.1705036,326.1814849,326.1814849,326.1814849,329.1655506,j,329.1657798,,,329.1658814,None,,,329.1809291,329.1809291,329.1809291,2.8201427,0.0958245,,,,,,,,,,,,,,,,,,,,,,,,,,,,,,22,1,2026-01-20_16h50.51.424,MST_task,2024.2.0,60.32694793,2026-01-20 16h51.05.601553 +0530
9,practice_images/180a.jpg,2,2,1,f,None,,,2.2009337,0.0964372,,,,,,,1,2,2,,,,329.1809291,,,,,,,,,,,,,,,,,,,,,,,329.1661784,329.1809291,329.6811742,329.6655883,329.6691443,329.6811742,329.6811742,329.6811742,332.6655155,f,332.6656693,,,332.6657429,None,,,332.6808368,332.6808368,332.6808368,2.2009337,0.0964372,,,,,,,,,,,,,,,,,,,,,,,,,,,,,,22,1,2026-01-20_16h50.51.424,MST_task,2024.2.0,60.32694793,2026-01-20 16h51.05.601553 +0530
3,practice_images/037a.jpg,3,3,1,f,None,,,1.6287992,0.1210587,,,,,,,1,3,3,,,,332.6808368,,,,,,,,,,,,,,,,,,,,,,,332.6660386,332.6808368,333.1812005,333.1655012,333.1702893,333.1812005,333.1812005,333.1812005,336.1654095,f,336.1655791,,,336.1656536,None,,,336.1811926,336.1811926,336.1811926,1.6287992,0.1210587,,,,,,,,,,,,,,,,,,,,,,,,,,,,,,22,1,2026-01-20_16h50.51.424,MST_task,2024.2.0,60.32694793,2026-01-20 16h51.05.601553 +0530
4,practice_images/002b.jpg,4,4,1,f,None,,,2.2162162,0.1210531,,,,,,,1,4,4,,,,336.1811926,,,,,,,,,,,,,,,,,,,,,,,336.165958,336.1811926,336.6810772,336.6658028,336.6692369,336.6810772,336.6810772,336.6810772,339.6653118,f,339.6654935,,,339.6655506,None,,,339.6806655,339.6806655,339.6806655,2.2162162,0.1210531,,,,,,,,,,,,,,,,,,,,,,,,,,,,,,22,1,2026-01-20_16h50.51.424,MST_task,2024.2.0,60.32694793,2026-01-20 16h51.05.601553 +0530
8,practice_images/178a.jpg,5,5,1,j,None,,,2.4132363,0.1361355,,,,,,,1,5,5,,,,339.6806655,,,,,,,,,,,,,,,,,,,,,,,339.6657706,339.6806655,340.1810646,340.1654322,340.1700757,340.1810646,340.1810646,340.1810646,343.1652893,j,343.1654383,,,343.1655126,None,,,343.1810855,343.1810855,343.1810855,2.4132363,0.1361355,,,,,,,,,,,,,,,,,,,,,,,,,,,,,,22,1,2026-01-20_16h50.51.424,MST_task,2024.2.0,60.32694793,2026-01-20 16h51.05.601553 +0530
2,practice_images/031a.jpg,6,6,1,f,None,,,1.8567531,0.1202423,,,,,,,1,6,6,,,,343.1810855,,,,,,,,,,,,,,,,,,,,,,,343.1658067,343.1810855,343.6809506,343.665211,343.669831,343.6809506,343.6809506,343.6809506,346.6654447,f,346.6656154,,,346.6656655,None,,,346.6809,346.6809,346.6809,1.8567531,0.1202423,,,,,,,,,,,,,,,,,,,,,,,,,,,,,,22,1,2026-01-20_16h50.51.424,MST_task,2024.2.0,60.32694793,2026-01-20 16h51.05.601553 +0530
1,practice_images/013a.jpg,7,7,1,None,f,1.0291929,None,,,,,,,,,1,7,7,,,,346.6809,,,,,,,,,,,,,,,,,,,,,,,346.6658991,346.6809,347.1809857,347.1651164,347.1685433,347.1809857,347.1809857,347.1809857,350.1655478,None,350.165742,350.180904,350.180904,351.2163995,f,1.0291929,None,350.180904,350.180904,350.180904,,,,,,,,,,,,,,,,,,,,,,,,,,,,,,,,22,1,2026-01-20_16h50.51.424,MST_task,2024.2.0,60.32694793,2026-01-20 16h51.05.601553 +0530
5,practice_images/139a.jpg,8,8,1,j,None,,,1.7587692,0.1201799,,,,,,,1,8,8,,,,351.2311218,,,,,,,,,,,,,,,,,,,,,,,351.216671,351.2311218,351.7311008,351.7153338,351.7209723,351.7311008,351.7311008,351.7311008,354.7164995,j,354.7167097,,,354.7167576,None,,,354.7309054,354.7309054,354.7309054,1.7587692,0.1201799,,,,,,,,,,,,,,,,,,,,,,,,,,,,,,22,1,2026-01-20_16h50.51.424,MST_task,2024.2.0,60.32694793,2026-01-20 16h51.05.601553 +0530
10,practice_images/182a.jpg,9,9,1,f,None,,,1.2981628,0.1286406,,,,,,,1,9,9,,,,354.7309054,,,,,,,,,,,,,,,,,,,,,,,354.7169662,354.7309054,355.2313013,355.2154347,355.2205192,355.2313013,355.2313013,355.2313013,358.2154907,f,358.2156636,,,358.2157147,None,,,358.2314559,358.2314559,358.2314559,1.2981628,0.1286406,,,,,,,,,,,,,,,,,,,,,,,,,,,,,,22,1,2026-01-20_16h50.51.424,MST_task,2024.2.0,60.32694793,2026-01-20 16h51.05.601553 +0530
,,,,,,,,,,,,,,,,,,,,,,,,,,,,,,,,,,,,,,,,,,,,,,,,,,,,,,,,,,,,,,,,,,,,358.2158553,358.2314559,358.2314559,379.2661957,space,21.0182371,None,,,,,,,,,,,,,,,,,,,,,,,22,1,2026-01-20_16h50.51.424,MST_task,2024.2.0,60.32694793,2026-01-20 16h51.05.601553 +0530
,Scenes\140a.jpg,0,0,1,,,,,,,j,1.2167424,0.120624,None,,,,,,1,0,0,379.2807946,,,,,,,,,,,,,,,,,,,,,,,379.2688442,379.2807946,379.7854906,379.7652922,,,,,,,,,,,,,,,,,,,,,,,,,,379.7789304,379.7854906,379.7854906,379.7854906,382.7812439,j,1.2167424,0.120624,382.7877044,382.7877402,None,,,,,,,,,,,,22,1,2026-01-20_16h50.51.424,MST_task,2024.2.0,60.32694793,2026-01-20 16h51.05.601553 +0530
,Scenes\096a.jpg,1,0,2,,,,,,,j,1.4886695,0.1435638,None,,,,,,2,0,1,382.7973801,,,,,,,,,,,,,,,,,,,,,,,382.7879144,382.7973801,383.2978661,383.2815882,,,,,,,,,,,,,,,,,,,,,,,,,,383.2922548,383.2978661,383.2978661,383.2978661,386.282841,j,1.4886695,0.1435638,386.2830613,386.283097,None,386.2972849,386.2972849,386.2972849,,,,,,,,,22,1,2026-01-20_16h50.51.424,MST_task,2024.2.0,60.32694793,2026-01-20 16h51.05.601553 +0530
,Scenes\019a.jpg,2,0,3,,,,,,,j,2.2649553,0.1442733,None,,,,,,3,0,2,386.2972849,,,,,,,,,,,,,,,,,,,,,,,386.2833193,386.2972849,386.8006659,386.7820211,,,,,,,,,,,,,,,,,,,,,,,,,,386.7974847,386.8006659,386.8006659,386.8006659,389.7978931,j,2.2649553,0.1442733,389.798057,389.7981008,None,,,,,,,,,,,,22,1,2026-01-20_16h50.51.424,MST_task,2024.2.0,60.32694793,2026-01-20 16h51.05.601553 +0530
,Scenes\009a.jpg,3,0,4,,,,,,,j,2.5721079,0.1211881,None,,,,,,4,0,3,389.8144648,,,,,,,,,,,,,,,,,,,,,,,389.7983173,389.8144648,390.3491481,390.2984649,,,,,,,,,,,,,,,,,,,,,,,,,,390.3449295,390.3491481,390.3491481,390.3491481,393.3151036,j,2.5721079,0.1211881,393.3153415,393.3154116,None,,,,,,,,,,,,22,1,2026-01-20_16h50.51.424,MST_task,2024.2.0,60.32694793,2026-01-20 16h51.05.601553 +0530
,Scenes\097a.jpg,4,0,5,,,,,,,None,,,f,0.1383831,None,,,,5,0,4,393.3309,,,,,,,,,,,,,,,,,,,,,,,393.3156928,393.3309,393.8493231,393.8155285,,,,,,,,,,,,,,,,,,,,,,,,,,393.8460315,393.8493231,393.8493231,393.8493231,396.831496,None,,,396.8317028,396.9995095,f,,,,396.8475269,396.8475269,0.1383831,None,,,,,22,1,2026-01-20_16h50.51.424,MST_task,2024.2.0,60.32694793,2026-01-20 16h51.05.601553 +0530
,Scenes\025a.jpg,5,0,6,,,,,,,j,1.4361023,0.1350369,None,,,,,,6,0,5,397.0140363,,,,,,,,,,,,,,,,,,,,,,,396.9998982,397.0140363,397.5186349,397.4985967,,,,,,,,,,,,,,,,,,,,,,,,,,397.5155352,397.5186349,397.5186349,397.5186349,400.5148115,j,1.4361023,0.1350369,400.5149913,400.5150423,None,,,,,,,,,,,,22,1,2026-01-20_16h50.51.424,MST_task,2024.2.0,60.32694793,2026-01-20 16h51.05.601553 +0530
,Scenes\136a.jpg,6,0,7,,,,,,,f,2.1464932,0.1116456,None,,,,,,7,0,6,400.5307917,,,,,,,,,,,,,,,,,,,,,,,400.5152877,400.5307917,401.031625,401.015194,,,,,,,,,,,,,,,,,,,,,,,,,,401.0277995,401.031625,401.031625,401.031625,404.0309801,f,2.1464932,0.1116456,404.0311547,404.0312096,None,,,,,,,,,,,,22,1,2026-01-20_16h50.51.424,MST_task,2024.2.0,60.32694793,2026-01-20 16h51.05.601553 +0530
,Objects\079a.jpg,7,0,8,,,,,,,f,1.8143561,0.1439876,None,,,,,,8,0,7,404.0479649,,,,,,,,,,,,,,,,,,,,,,,404.0315263,404.0479649,404.5481589,404.5316513,,,,,,,,,,,,,,,,,,,,,,,,,,404.5375269,404.5481589,404.5481589,404.5481589,407.5315747,f,1.8143561,0.1439876,407.5317233,407.5317652,None,,,,,,,,,,,,22,1,2026-01-20_16h50.51.424,MST_task,2024.2.0,60.32694793,2026-01-20 16h51.05.601553 +0530
,Objects\048a.jpg,8,0,9,,,,,,,j,2.0337629,0.1449308,None,,,,,,9,0,8,407.5474928,,,,,,,,,,,,,,,,,,,,,,,407.5320186,407.5474928,408.0475792,408.0319328,,,,,,,,,,,,,,,,,,,,,,,,,,408.03791,408.0475792,408.0475792,408.0475792,411.0326929,j,2.0337629,0.1449308,411.0328844,411.0329259,None,411.0476401,411.0476401,411.0476401,,,,,,,,,22,1,2026-01-20_16h50.51.424,MST_task,2024.2.0,60.32694793,2026-01-20 16h51.05.601553 +0530
,Objects\029a.jpg,9,0,10,,,,,,,f,1.9021861,0.0950775,None,,,,,,10,0,9,411.0476401,,,,,,,,,,,,,,,,,,,,,,,411.0331331,411.0476401,411.5479391,411.531858,,,,,,,,,,,,,,,,,,,,,,,,,,411.5390589,411.5479391,411.5479391,411.5479391,414.5330014,f,1.9021861,0.0950775,414.5333834,414.533435,None,414.5474995,414.5474995,414.5474995,,,,,,,,,22,1,2026-01-20_16h50.51.424,MST_task,2024.2.0,60.32694793,2026-01-20 16h51.05.601553 +0530
,Objects\040a.jpg,10,0,11,,,,,,,f,1.567432,0.168406,None,,,,,,11,0,10,414.5474995,,,,,,,,,,,,,,,,,,,,,,,414.5337452,414.5474995,415.0662456,415.0327409,,,,,,,,,,,,,,,,,,,,,,,,,,415.0634927,415.0662456,415.0662456,415.0662456,418.0487263,f,1.567432,0.168406,418.0488615,418.048898,None,,,,,,,,,,,,22,1,2026-01-20_16h50.51.424,MST_task,2024.2.0,60.32694793,2026-01-20 16h51.05.601553 +0530
,Objects\174a.jpg,11,0,12,,,,,,,f,2.1090809,0.1364356,None,,,,,,12,0,11,418.0641713,,,,,,,,,,,,,,,,,,,,,,,418.0490813,418.0641713,418.5643774,418.5487204,,,,,,,,,,,,,,,,,,,,,,,,,,418.5570062,418.5643774,418.5643774,418.5643774,421.549205,f,2.1090809,0.1364356,421.5494415,421.5495046,None,421.5644193,421.5644193,421.5644193,,,,,,,,,22,1,2026-01-20_16h50.51.424,MST_task,2024.2.0,60.32694793,2026-01-20 16h51.05.601553 +0530
,Objects\132a.jpg,12,0,13,,,,,,,j,2.3295515,0.1611617,None,,,,,,13,0,12,421.5644193,,,,,,,,,,,,,,,,,,,,,,,421.5497742,421.5644193,422.0642252,422.0484654,,,,,,,,,,,,,,,,,,,,,,,,,,422.0548165,422.0642252,422.0642252,422.0642252,425.0493146,j,2.3295515,0.1611617,425.0495168,425.0495625,None,425.0640278,425.0640278,425.0640278,,,,,,,,,22,1,2026-01-20_16h50.51.424,MST_task,2024.2.0,60.32694793,2026-01-20 16h51.05.601553 +0530
,Objects\139a.jpg,13,0,14,,,,,,,None,,,f,0.8287498,None,,,,14,0,13,425.0640278,,,,,,,,,,,,,,,,,,,,,,,425.0497556,425.0640278,425.596631,425.5487621,,,,,,,,,,,,,,,,,,,,,,,,,,425.5938663,425.596631,425.596631,425.596631,428.5645209,None,,,428.5647755,429.4172611,f,,,,428.5807059,428.5807059,0.8287498,None,,,,,22,1,2026-01-20_16h50.51.424,MST_task,2024.2.0,60.32694793,2026-01-20 16h51.05.601553 +0530
,Scenes\160a.jpg,14,0,15,,,,,,,j,2.3019452,0.1277922,None,,,,,,15,0,14,429.4306693,,,,,,,,,,,,,,,,,,,,,,,429.4176076,429.4306693,429.932603,429.9153984,,,,,,,,,,,,,,,,,,,,,,,,,,429.9291797,429.932603,429.932603,429.932603,432.9311279,j,2.3019452,0.1277922,432.9313178,432.9313552,None,,,,,,,,,,,,22,1,2026-01-20_16h50.51.424,MST_task,2024.2.0,60.32694793,2026-01-20 16h51.05.601553 +0530
,Scenes\176a.jpg,15,0,16,,,,,,,j,2.2012414,0.142791,None,,,,,,16,0,15,432.9485316,,,,,,,,,,,,,,,,,,,,,,,432.9315729,432.9485316,,433.4478393,,,,,,,,,,,,,,,,,,,,,,,,,,433.4698591,433.473306,433.473306,433.473306,436.4317462,j,2.2012414,0.142791,436.4318867,436.431928,None,,,,,,,,,,,,22,1,2026-01-20_16h50.51.424,MST_task,2024.2.0,60.32694793,2026-01-20 16h51.05.601553 +0530
,Scenes\112a.jpg,16,0,17,,,,,,,j,2.7430631,0.1770747,None,,,,,,17,0,16,436.4474168,,,,,,,,,,,,,,,,,,,,,,,436.4321256,436.4474168,436.9542715,436.9320145,,,,,,,,,,,,,,,,,,,,,,,,,,436.9509804,436.9542715,436.9542715,436.9542715,439.9478273,j,2.7430631,0.1770747,439.9480435,439.9480894,None,,,,,,,,,,,,22,1,2026-01-20_16h50.51.424,MST_task,2024.2.0,60.32694793,2026-01-20 16h51.05.601553 +0530
,Scenes\134a.jpg,17,0,18,,,,,,,None,,,j,0.5848194,None,,,,18,0,17,439.9641518,,,,,,,,,,,,,,,,,,,,,,,439.9483113,439.9641518,440.466995,440.4485327,,,,,,,,,,,,,,,,,,,,,,,,,,440.4635505,440.466995,440.466995,440.466995,443.4654936,None,,,443.4657063,444.0829006,j,,,,443.4807123,443.4807123,0.5848194,None,,,,,22,1,2026-01-20_16h50.51.424,MST_task,2024.2.0,60.32694793,2026-01-20 16h51.05.601553 +0530
,Scenes\081a.jpg,18,0,19,,,,,,,j,2.2772291,0.161592,None,,,,,,19,0,18,444.0976474,,,,,,,,,,,,,,,,,,,,,,,444.0832732,444.0976474,444.6040152,444.5816955,,,,,,,,,,,,,,,,,,,,,,,,,,444.6003881,444.6040152,444.6040152,444.6040152,447.5979855,j,2.2772291,0.161592,447.5982273,447.598267,None,,,,,,,,,,,,22,1,2026-01-20_16h50.51.424,MST_task,2024.2.0,60.32694793,2026-01-20 16h51.05.601553 +0530
,Scenes\101a.jpg,19,0,20,,,,,,,j,1.7342994,0.1448492,None,,,,,,20,0,19,447.6141597,,,,,,,,,,,,,,,,,,,,,,,447.5985105,447.6141597,448.115467,448.0986151,,,,,,,,,,,,,,,,,,,,,,,,,,448.1121372,448.115467,448.115467,448.115467,451.1148412,j,1.7342994,0.1448492,451.115055,451.115096,None,,,,,,,,,,,,22,1,2026-01-20_16h50.51.424,MST_task,2024.2.0,60.32694793,2026-01-20 16h51.05.601553 +0530
,Scenes\147a.jpg,20,0,21,,,,,,,j,2.6185865,0.1445653,None,,,,,,21,0,20,451.130755,,,,,,,,,,,,,,,,,,,,,,,451.1152946,451.130755,451.6311548,451.6158103,,,,,,,,,,,,,,,,,,,,,,,,,,451.6242472,451.6311548,451.6311548,451.6311548,454.6164675,j,2.6185865,0.1445653,454.6167133,454.6167775,None,454.6307878,454.6307878,454.6307878,,,,,,,,,22,1,2026-01-20_16h50.51.424,MST_task,2024.2.0,60.32694793,2026-01-20 16h51.05.601553 +0530
,Objects\103a.jpg,21,0,22,,,,,,,f,2.6522945,0.1283364,None,,,,,,22,0,21,454.6307878,,,,,,,,,,,,,,,,,,,,,,,454.6170582,454.6307878,455.1421205,455.1151879,,,,,,,,,,,,,,,,,,,,,,,,,,455.1393032,455.1421205,455.1421205,455.1421205,458.1310573,f,2.6522945,0.1283364,458.1312302,458.1312784,None,,,,,,,,,,,,22,1,2026-01-20_16h50.51.424,MST_task,2024.2.0,60.32694793,2026-01-20 16h51.05.601553 +0530
,Objects\095a.jpg,22,0,23,,,,,,,f,1.7379097,0.1278682,None,,,,,,23,0,22,458.1476419,,,,,,,,,,,,,,,,,,,,,,,458.1315822,458.1476419,458.6477867,458.6319257,,,,,,,,,,,,,,,,,,,,,,,,,,458.6394728,458.6477867,458.6477867,458.6477867,461.6324048,f,1.7379097,0.1278682,461.6326302,461.63269,None,461.6475734,461.6475734,461.6475734,,,,,,,,,22,1,2026-01-20_16h50.51.424,MST_task,2024.2.0,60.32694793,2026-01-20 16h51.05.601553 +0530
,Objects\127a.jpg,23,0,24,,,,,,,f,2.181806,0.1607668,None,,,,,,24,0,23,461.6475734,,,,,,,,,,,,,,,,,,,,,,,461.6330472,461.6475734,462.1477036,462.1319567,,,,,,,,,,,,,,,,,,,,,,,,,,462.1392627,462.1477036,462.1477036,462.1477036,465.1326832,f,2.181806,0.1607668,465.1329281,465.1329947,None,465.1474993,465.1474993,465.1474993,,,,,,,,,22,1,2026-01-20_16h50.51.424,MST_task,2024.2.0,60.32694793,2026-01-20 16h51.05.601553 +0530
,Objects\168a.jpg,24,0,25,,,,,,,None,,,f,1.2010809,None,,,,25,0,24,465.1474993,,,,,,,,,,,,,,,,,,,,,,,465.1333282,465.1474993,465.6481487,465.6318482,,,,,,,,,,,,,,,,,,,,,,,,,,465.6380328,465.6481487,465.6481487,465.6481487,468.6325549,None,,,468.6327312,469.8662984,f,468.6480271,468.6480271,468.6480271,468.6480271,468.6480271,1.2010809,None,,,,,22,1,2026-01-20_16h50.51.424,MST_task,2024.2.0,60.32694793,2026-01-20 16h51.05.601553 +0530
,Objects\175a.jpg,25,0,26,,,,,,,f,1.2844025,0.1293683,None,,,,,,26,0,25,469.8806184,,,,,,,,,,,,,,,,,,,,,,,469.8668294,469.8806184,470.3810779,470.3651646,,,,,,,,,,,,,,,,,,,,,,,,,,470.37161,470.3810779,470.3810779,470.3810779,473.3658962,f,1.2844025,0.1293683,473.3661243,473.3661749,None,473.380807,473.380807,473.380807,,,,,,,,,22,1,2026-01-20_16h50.51.424,MST_task,2024.2.0,60.32694793,2026-01-20 16h51.05.601553 +0530
,Objects\192a.jpg,26,0,27,,,,,,,j,1.409773,0.1275568,None,,,,,,27,0,26,473.380807,,,,,,,,,,,,,,,,,,,,,,,473.366409,473.380807,473.8809388,473.8657523,,,,,,,,,,,,,,,,,,,,,,,,,,473.874045,473.8809388,473.8809388,473.8809388,476.8663265,j,1.409773,0.1275568,476.8665608,476.866627,None,476.8807187,476.8807187,476.8807187,,,,,,,,,22,1,2026-01-20_16h50.51.424,MST_task,2024.2.0,60.32694793,2026-01-20 16h51.05.601553 +0530
,Objects\187a.jpg,27,0,28,,,,,,,f,1.5559564,0.1522858,None,,,,,,28,0,27,476.8807187,,,,,,,,,,,,,,,,,,,,,,,476.86698,476.8807187,477.4053914,477.3652488,,,,,,,,,,,,,,,,,,,,,,,,,,477.4015913,477.4053914,477.4053914,477.4053914,480.381278,f,1.5559564,0.1522858,480.3814985,480.3815649,None,,,,,,,,,,,,22,1,2026-01-20_16h50.51.424,MST_task,2024.2.0,60.32694793,2026-01-20 16h51.05.601553 +0530
,Scenes\131a.jpg,28,0,29,,,,,,,j,1.7671841,0.1450076,None,,,,,,29,0,28,480.3983962,,,,,,,,,,,,,,,,,,,,,,,480.3819643,480.3983962,480.8980315,480.8821963,,,,,,,,,,,,,,,,,,,,,,,,,,480.8946239,480.8980315,480.8980315,480.8980315,483.8825367,j,1.7671841,0.1450076,483.8827731,483.8828369,None,483.8974713,483.8974713,483.8974713,,,,,,,,,22,1,2026-01-20_16h50.51.424,MST_task,2024.2.0,60.32694793,2026-01-20 16h51.05.601553 +0530
,Scenes\021a.jpg,29,0,30,,,,,,,j,2.6259333,0.1275402,None,,,,,,30,0,29,483.8974713,,,,,,,,,,,,,,,,,,,,,,,483.8831432,483.8974713,484.4001533,484.3815347,,,,,,,,,,,,,,,,,,,,,,,,,,484.3955788,484.4001533,484.4001533,484.4001533,487.398185,j,2.6259333,0.1275402,487.398352,487.3983872,None,,,,,,,,,,,,22,1,2026-01-20_16h50.51.424,MST_task,2024.2.0,60.32694793,2026-01-20 16h51.05.601553 +0530
,Scenes\040a.jpg,30,0,31,,,,,,,f,1.6284126,0.145177,None,,,,,,31,0,30,487.4141932,,,,,,,,,,,,,,,,,,,,,,,487.3985667,487.4141932,487.9167534,487.8988541,,,,,,,,,,,,,,,,,,,,,,,,,,487.9139324,487.9167534,487.9167534,487.9167534,490.9145378,f,1.6284126,0.145177,490.9147406,490.9147788,None,,,,,,,,,,,,22,1,2026-01-20_16h50.51.424,MST_task,2024.2.0,60.32694793,2026-01-20 16h51.05.601553 +0530
,Scenes\050a.jpg,31,0,32,,,,,,,j,1.0985545,0.1343236,None,,,,,,32,0,31,490.9308529,,,,,,,,,,,,,,,,,,,,,,,490.91502,490.9308529,491.4322932,491.4153972,,,,,,,,,,,,,,,,,,,,,,,,,,491.4289914,491.4322932,491.4322932,491.4322932,494.4312829,j,1.0985545,0.1343236,494.4315063,494.4315524,None,,,,,,,,,,,,22,1,2026-01-20_16h50.51.424,MST_task,2024.2.0,60.32694793,2026-01-20 16h51.05.601553 +0530
,Scenes\184a.jpg,32,0,33,,,,,,,j,1.9334544,0.128404,None,,,,,,33,0,32,494.4474275,,,,,,,,,,,,,,,,,,,,,,,494.4318471,494.4474275,494.9482026,494.9320345,,,,,,,,,,,,,,,,,,,,,,,,,,494.9451619,494.9482026,494.9482026,494.9482026,497.9320056,j,1.9334544,0.128404,497.9321598,497.9321981,None,497.9475388,497.9475388,497.9475388,,,,,,,,,22,1,2026-01-20_16h50.51.424,MST_task,2024.2.0,60.32694793,2026-01-20 16h51.05.601553 +0530
,Scenes\031a.jpg,33,0,34,,,,,,,f,2.8716175,0.0794318,None,,,,,,34,0,33,497.9475388,,,,,,,,,,,,,,,,,,,,,,,497.9323762,497.9475388,498.4506347,498.4321461,,,,,,,,,,,,,,,,,,,,,,,,,,498.4474313,498.4506347,498.4506347,498.4506347,501.4479403,f,2.8716175,0.0794318,501.448086,501.4481276,None,,,,,,,,,,,,22,1,2026-01-20_16h50.51.424,MST_task,2024.2.0,60.32694793,2026-01-20 16h51.05.601553 +0530
,Scenes\051a.jpg,34,0,35,,,,,,,j,1.9569193,0.1345498,None,,,,,,35,0,34,501.4642218,,,,,,,,,,,,,,,,,,,,,,,501.4483835,501.4642218,,501.9484908,,,,,,,,,,,,,,,,,,,,,,,,,,501.9873439,501.9905342,501.9905342,501.9905342,504.964623,j,1.9569193,0.1345498,504.9647599,504.964798,None,,,,,,,,,,,,22,1,2026-01-20_16h50.51.424,MST_task,2024.2.0,60.32694793,2026-01-20 16h51.05.601553 +0530
,Objects\191a.jpg,35,0,36,,,,,,,j,2.0044376,0.1432684,None,,,,,,36,0,35,504.9807983,,,,,,,,,,,,,,,,,,,,,,,504.9650299,504.9807983,505.5016423,505.4652345,,,,,,,,,,,,,,,,,,,,,,,,,,505.4981237,505.5016423,505.5016423,505.5016423,508.4806836,j,2.0044376,0.1432684,508.4807722,508.4807914,None,,,,,,,,,,,,22,1,2026-01-20_16h50.51.424,MST_task,2024.2.0,60.32694793,2026-01-20 16h51.05.601553 +0530
,Objects\021a.jpg,36,0,37,,,,,,,f,2.3074589,0.1367258,None,,,,,,37,0,36,508.4976583,,,,,,,,,,,,,,,,,,,,,,,508.4809198,508.4976583,,508.9812962,,,,,,,,,,,,,,,,,,,,,,,,,,508.9899791,508.9985316,508.9985316,508.9985316,511.9813539,f,2.3074589,0.1367258,511.9815738,511.9816397,None,,,,,,,,,,,,22,1,2026-01-20_16h50.51.424,MST_task,2024.2.0,60.32694793,2026-01-20 16h51.05.601553 +0530
,Objects\099a.jpg,37,0,38,,,,,,,None,,,f,0.4319262,None,,,,38,0,37,511.997568,,,,,,,,,,,,,,,,,,,,,,,511.9819621,511.997568,512.4978067,512.4821155,,,,,,,,,,,,,,,,,,,,,,,,,,512.4887171,512.4978067,512.4978067,512.4978067,515.4826778,None,,,515.4828218,515.9326071,f,515.4979639,515.4979639,515.4979639,515.4979639,515.4979639,0.4319262,None,,,,,22,1,2026-01-20_16h50.51.424,MST_task,2024.2.0,60.32694793,2026-01-20 16h51.05.601553 +0530
,Objects\064a.jpg,38,0,39,,,,,,,None,,,j,0.1136269,None,,,,39,0,38,515.947591,,,,,,,,,,,,,,,,,,,,,,,515.9328417,515.947591,516.4478998,516.4318437,,,,,,,,,,,,,,,,,,,,,,,,,,516.4394783,516.4478998,516.4478998,516.4478998,519.4330409,None,,,519.4331703,519.5660026,j,519.4475483,519.4475483,519.4475483,519.4475483,519.4475483,0.1136269,None,,,,,22,1,2026-01-20_16h50.51.424,MST_task,2024.2.0,60.32694793,2026-01-20 16h51.05.601553 +0530
,Objects\120a.jpg,39,0,40,,,,,,,f,1.3929591,0.1520854,None,,,,,,40,0,39,519.5807467,,,,,,,,,,,,,,,,,,,,,,,519.5664197,519.5807467,520.0811361,520.0652264,,,,,,,,,,,,,,,,,,,,,,,,,,520.0708482,520.0811361,520.0811361,520.0811361,523.0662365,f,1.3929591,0.1520854,523.0664433,523.0665096,None,523.0806934,523.0806934,523.0806934,,,,,,,,,22,1,2026-01-20_16h50.51.424,MST_task,2024.2.0,60.32694793,2026-01-20 16h51.05.601553 +0530
,Objects\141a.jpg,40,0,41,,,,,,,j,1.8275527,0.1761852,None,,,,,,41,0,40,523.0806934,,,,,,,,,,,,,,,,,,,,,,,523.0668178,523.0806934,523.5989839,523.5657071,,,,,,,,,,,,,,,,,,,,,,,,,,523.5961129,523.5989839,523.5989839,523.5989839,526.5812477,j,1.8275527,0.1761852,526.5814672,526.5815357,None,,,,,,,,,,,,22,1,2026-01-20_16h50.51.424,MST_task,2024.2.0,60.32694793,2026-01-20 16h51.05.601553 +0530
,Objects\128a.jpg,41,0,42,,,,,,,None,,,j,0.8488127,None,,,,42,0,41,526.5975621,,,,,,,,,,,,,,,,,,,,,,,526.5817947,526.5975621,527.0977827,527.0821191,,,,,,,,,,,,,,,,,,,,,,,,,,527.0899295,527.0977827,527.0977827,527.0977827,530.0826348,None,,,530.082852,530.9494277,j,530.0975073,530.0975073,530.0975073,530.0975073,530.0975073,0.8488127,None,,,,,22,1,2026-01-20_16h50.51.424,MST_task,2024.2.0,60.32694793,2026-01-20 16h51.05.601553 +0530
,Scenes\002a.jpg,42,0,43,,,,,,,j,2.4540297,0.1193122,None,,,,,,43,0,42,530.9641581,,,,,,,,,,,,,,,,,,,,,,,530.9496729,530.9641581,531.4678192,531.4488761,,,,,,,,,,,,,,,,,,,,,,,,,,531.4645404,531.4678192,531.4678192,531.4678192,534.4645337,j,2.4540297,0.1193122,534.4646765,534.4647183,None,,,,,,,,,,,,22,1,2026-01-20_16h50.51.424,MST_task,2024.2.0,60.32694793,2026-01-20 16h51.05.601553 +0530
,Scenes\177a.jpg,43,0,44,,,,,,,j,1.7237107,0.1198417,None,,,,,,44,0,43,534.4807312,,,,,,,,,,,,,,,,,,,,,,,534.4649669,534.4807312,534.9816057,534.9653371,,,,,,,,,,,,,,,,,,,,,,,,,,534.9760279,534.9816057,534.9816057,534.9816057,537.9652131,j,1.7237107,0.1198417,537.9653556,537.9653962,None,,,,,,,,,,,,22,1,2026-01-20_16h50.51.424,MST_task,2024.2.0,60.32694793,2026-01-20 16h51.05.601553 +0530
,Scenes\013a.jpg,44,0,45,,,,,,,j,1.9638131,0.143557,None,,,,,,45,0,44,537.9808113,,,,,,,,,,,,,,,,,,,,,,,537.9656607,537.9808113,538.4868491,538.4658276,,,,,,,,,,,,,,,,,,,,,,,,,,538.4832412,538.4868491,538.4868491,538.4868491,541.4816813,j,1.9638131,0.143557,541.481914,541.48198,None,,,,,,,,,,,,22,1,2026-01-20_16h50.51.424,MST_task,2024.2.0,60.32694793,2026-01-20 16h51.05.601553 +0530
,Scenes\154a.jpg,45,0,46,,,,,,,None,,,j,0.4840197,None,,,,46,0,45,541.4976506,,,,,,,,,,,,,,,,,,,,,,,541.4823336,541.4976506,541.9979688,541.9816634,,,,,,,,,,,,,,,,,,,,,,,,,,541.9913935,541.9979688,541.9979688,541.9979688,544.982571,None,,,544.9827056,545.4988834,j,544.9977479,544.9977479,544.9977479,544.9977479,544.9977479,0.4840197,None,,,,,22,1,2026-01-20_16h50.51.424,MST_task,2024.2.0,60.32694793,2026-01-20 16h51.05.601553 +0530
,Scenes\030a.jpg,46,0,47,,,,,,,j,1.9108008,0.1433465,None,,,,,,47,0,46,545.5140681,,,,,,,,,,,,,,,,,,,,,,,545.4992148,545.5140681,546.0194091,545.9986032,,,,,,,,,,,,,,,,,,,,,,,,,,546.016161,546.0194091,546.0194091,546.0194091,549.0146282,j,1.9108008,0.1433465,549.0147674,549.014808,None,,,,,,,,,,,,22,1,2026-01-20_16h50.51.424,MST_task,2024.2.0,60.32694793,2026-01-20 16h51.05.601553 +0530
,Scenes\167a.jpg,47,0,48,,,,,,,None,,,f,0.2147808,None,,,,48,0,47,549.0308923,,,,,,,,,,,,,,,,,,,,,,,549.0150037,549.0308923,549.5330499,549.5152883,,,,,,,,,,,,,,,,,,,,,,,,,,549.5296423,549.5330499,549.5330499,549.5330499,552.53115,None,,,552.5313339,552.766185,f,,,,552.5475407,552.5475407,0.2147808,None,,,,,22,1,2026-01-20_16h50.51.424,MST_task,2024.2.0,60.32694793,2026-01-20 16h51.05.601553 +0530
,Scenes\055a.jpg,48,0,49,,,,,,,j,1.2618792,0.2001484,None,,,,,,49,0,48,552.7807515,,,,,,,,,,,,,,,,,,,,,,,552.7665601,552.7807515,553.2843293,553.2654662,,,,,,,,,,,,,,,,,,,,,,,,,,553.2807933,553.2843293,553.2843293,553.2843293,556.2819172,j,1.2618792,0.2001484,556.2820852,556.2821324,None,,,,,,,,,,,,22,1,2026-01-20_16h50.51.424,MST_task,2024.2.0,60.32694793,2026-01-20 16h51.05.601553 +0530
,Objects\083a.jpg,49,0,50,,,,,,,f,1.8113444,0.1599754,None,,,,,,50,0,49,556.2975703,,,,,,,,,,,,,,,,,,,,,,,556.2823554,556.2975703,556.7980795,556.7818545,,,,,,,,,,,,,,,,,,,,,,,,,,556.7902049,556.7980795,556.7980795,556.7980795,559.7823013,f,1.8113444,0.1599754,559.7825306,559.7826006,None,559.7977203,559.7977203,559.7977203,,,,,,,,,22,1,2026-01-20_16h50.51.424,MST_task,2024.2.0,60.32694793,2026-01-20 16h51.05.601553 +0530
,Objects\015a.jpg,50,0,51,,,,,,,f,1.7925799,0.1192677,None,,,,,,51,0,50,559.7977203,,,,,,,,,,,,,,,,,,,,,,,559.7828026,559.7977203,560.2978432,560.2821013,,,,,,,,,,,,,,,,,,,,,,,,,,560.2883531,560.2978432,560.2978432,560.2978432,563.2828084,f,1.7925799,0.1192677,563.2829858,563.2830323,None,563.2977916,563.2977916,563.2977916,,,,,,,,,22,1,2026-01-20_16h50.51.424,MST_task,2024.2.0,60.32694793,2026-01-20 16h51.05.601553 +0530
,Objects\063a.jpg,51,0,52,,,,,,,f,1.7874911,0.1762641,None,,,,,,52,0,51,563.2977916,,,,,,,,,,,,,,,,,,,,,,,563.2833769,563.2977916,563.7979256,563.78215,,,,,,,,,,,,,,,,,,,,,,,,,,563.7878618,563.7979256,563.7979256,563.7979256,566.7821019,f,1.7874911,0.1762641,566.7822315,566.7823058,None,566.7974704,566.7974704,566.7974704,,,,,,,,,22,1,2026-01-20_16h50.51.424,MST_task,2024.2.0,60.32694793,2026-01-20 16h51.05.601553 +0530
,Objects\145a.jpg,52,0,53,,,,,,,f,1.8970376,0.1365748,None,,,,,,53,0,52,566.7974704,,,,,,,,,,,,,,,,,,,,,,,566.7826917,566.7974704,567.3359765,567.2820283,,,,,,,,,,,,,,,,,,,,,,,,,,567.3325184,567.3359765,567.3359765,567.3359765,570.2980919,f,1.8970376,0.1365748,570.298311,570.2983785,None,,,,,,,,,,,,22,1,2026-01-20_16h50.51.424,MST_task,2024.2.0,60.32694793,2026-01-20 16h51.05.601553 +0530
,Objects\005a.jpg,53,0,54,,,,,,,f,2.3236813,0.1429759,None,,,,,,54,0,53,570.3143413,,,,,,,,,,,,,,,,,,,,,,,570.2986433,570.3143413,570.8143228,570.7983217,,,,,,,,,,,,,,,,,,,,,,,,,,570.8060735,570.8143228,570.8143228,570.8143228,573.7988301,f,2.3236813,0.1429759,573.7990901,573.7991564,None,573.8142465,573.8142465,573.8142465,,,,,,,,,22,1,2026-01-20_16h50.51.424,MST_task,2024.2.0,60.32694793,2026-01-20 16h51.05.601553 +0530
,Objects\081a.jpg,54,0,55,,,,,,,j,2.4561065,0.1434079,None,,,,,,55,0,54,573.8142465,,,,,,,,,,,,,,,,,,,,,,,573.7995682,573.8142465,574.3146242,574.2988603,,,,,,,,,,,,,,,,,,,,,,,,,,574.3045408,574.3146242,574.3146242,574.3146242,577.2994673,j,2.4561065,0.1434079,577.2996244,577.2997042,None,577.314193,577.314193,577.314193,,,,,,,,,22,1,2026-01-20_16h50.51.424,MST_task,2024.2.0,60.32694793,2026-01-20 16h51.05.601553 +0530
,Objects\062a.jpg,55,0,56,,,,,,,f,2.1714814,0.1676002,None,,,,,,56,0,55,577.314193,,,,,,,,,,,,,,,,,,,,,,,577.3000112,577.314193,577.8147316,577.7985474,,,,,,,,,,,,,,,,,,,,,,,,,,577.8061835,577.8147316,577.8147316,577.8147316,580.7988566,f,2.1714814,0.1676002,580.7990639,580.7991238,None,580.8141757,580.8141757,580.8141757,,,,,,,,,22,1,2026-01-20_16h50.51.424,MST_task,2024.2.0,60.32694793,2026-01-20 16h51.05.601553 +0530
,Scenes\074a.jpg,56,0,57,,,,,,,j,1.9503445,0.1445961,None,,,,,,57,0,56,580.8141757,,,,,,,,,,,,,,,,,,,,,,,580.7993166,580.8141757,581.3148325,581.298582,,,,,,,,,,,,,,,,,,,,,,,,,,581.3110465,581.3148325,581.3148325,581.3148325,584.2991181,j,1.9503445,0.1445961,584.2993227,584.2993857,None,584.3142681,584.3142681,584.3142681,,,,,,,,,22,1,2026-01-20_16h50.51.424,MST_task,2024.2.0,60.32694793,2026-01-20 16h51.05.601553 +0530
,Scenes\085a.jpg,57,0,58,,,,,,,j,1.2411838,0.1668026,None,,,,,,58,0,57,584.3142681,,,,,,,,,,,,,,,,,,,,,,,584.2996418,584.3142681,584.8173217,584.7984095,,,,,,,,,,,,,,,,,,,,,,,,,,584.8145879,584.8173217,584.8173217,584.8173217,587.8146619,j,1.2411838,0.1668026,587.8148382,587.8148874,None,,,,,,,,,,,,22,1,2026-01-20_16h50.51.424,MST_task,2024.2.0,60.32694793,2026-01-20 16h51.05.601553 +0530
,Scenes\038a.jpg,58,0,59,,,,,,,j,1.2400485,0.1284111,None,,,,,,59,0,58,587.8311499,,,,,,,,,,,,,,,,,,,,,,,587.8152122,587.8311499,588.3378284,588.3151507,,,,,,,,,,,,,,,,,,,,,,,,,,588.3329493,588.3378284,588.3378284,588.3378284,591.3314071,j,1.2400485,0.1284111,591.3315705,591.3316159,None,,,,,,,,,,,,22,1,2026-01-20_16h50.51.424,MST_task,2024.2.0,60.32694793,2026-01-20 16h51.05.601553 +0530
,Scenes\113a.jpg,59,0,60,,,,,,,j,1.1608167,0.1515798,None,,,,,,60,0,59,591.3475683,,,,,,,,,,,,,,,,,,,,,,,591.3319017,591.3475683,591.8486483,591.8319885,,,,,,,,,,,,,,,,,,,,,,,,,,591.8445149,591.8486483,591.8486483,591.8486483,594.8478501,j,1.1608167,0.1515798,594.8480236,594.8480703,None,,,,,,,,,,,,22,1,2026-01-20_16h50.51.424,MST_task,2024.2.0,60.32694793,2026-01-20 16h51.05.601553 +0530
,Scenes\165a.jpg,60,0,61,,,,,,,j,2.6160931,0.1359402,None,,,,,,61,0,60,594.8641363,,,,,,,,,,,,,,,,,,,,,,,594.8483624,594.8641363,595.3701577,595.3482634,,,,,,,,,,,,,,,,,,,,,,,,,,595.3667095,595.3701577,595.3701577,595.3701577,598.3645003,j,2.6160931,0.1359402,598.3646412,598.364722,None,,,,,,,,,,,,22,1,2026-01-20_16h50.51.424,MST_task,2024.2.0,60.32694793,2026-01-20 16h51.05.601553 +0530
,Scenes\109a.jpg,61,0,62,,,,,,,j,2.6951532,0.1277335,None,,,,,,62,0,61,598.3807296,,,,,,,,,,,,,,,,,,,,,,,598.3650722,598.3807296,598.8821467,598.8651485,,,,,,,,,,,,,,,,,,,,,,,,,,598.8790578,598.8821467,598.8821467,598.8821467,601.8814836,j,2.6951532,0.1277335,601.8817077,601.8817755,None,,,,,,,,,,,,22,1,2026-01-20_16h50.51.424,MST_task,2024.2.0,60.32694793,2026-01-20 16h51.05.601553 +0530
,Scenes\024a.jpg,62,0,63,,,,,,,j,1.8514704,0.1210881,None,,,,,,63,0,62,601.8977498,,,,,,,,,,,,,,,,,,,,,,,601.8820903,601.8977498,602.3976738,602.3808266,,,,,,,,,,,,,,,,,,,,,,,,,,602.3884446,602.3976738,602.3976738,602.3976738,605.3827395,j,1.8514704,0.1210881,605.382952,605.3829827,None,605.3974372,605.3974372,605.3974372,,,,,,,,,22,1,2026-01-20_16h50.51.424,MST_task,2024.2.0,60.32694793,2026-01-20 16h51.05.601553 +0530
,Objects\085a.jpg,63,0,64,,,,,,,f,1.7610288,0.1579712,None,,,,,,64,0,63,605.3974372,,,,,,,,,,,,,,,,,,,,,,,605.3831742,605.3974372,605.8979849,605.8824086,,,,,,,,,,,,,,,,,,,,,,,,,,605.8911105,605.8979849,605.8979849,605.8979849,608.8824556,f,1.7610288,0.1579712,608.8826873,608.8827623,None,608.8979776,608.8979776,608.8979776,,,,,,,,,22,1,2026-01-20_16h50.51.424,MST_task,2024.2.0,60.32694793,2026-01-20 16h51.05.601553 +0530
,Objects\159a.jpg,64,0,65,,,,,,,f,1.5160194,0.1516388,None,,,,,,65,0,64,608.8979776,,,,,,,,,,,,,,,,,,,,,,,608.8830145,608.8979776,609.3978135,609.3825401,,,,,,,,,,,,,,,,,,,,,,,,,,609.3897952,609.3978135,609.3978135,609.3978135,612.3824758,f,1.5160194,0.1516388,612.3826213,612.382659,None,612.39743,612.39743,612.39743,,,,,,,,,22,1,2026-01-20_16h50.51.424,MST_task,2024.2.0,60.32694793,2026-01-20 16h51.05.601553 +0530
,Objects\184a.jpg,65,0,66,,,,,,,None,,,f,0.7121469,None,,,,66,0,65,612.39743,,,,,,,,,,,,,,,,,,,,,,,612.3829123,612.39743,612.8978671,612.8823954,,,,,,,,,,,,,,,,,,,,,,,,,,612.8917544,612.8978671,612.8978671,612.8978671,615.8827632,None,,,615.8829969,616.6159402,f,615.8973307,615.8973307,615.8973307,615.8973307,615.8973307,0.7121469,None,,,,,22,1,2026-01-20_16h50.51.424,MST_task,2024.2.0,60.32694793,2026-01-20 16h51.05.601553 +0530
,Objects\010a.jpg,66,0,67,,,,,,,f,1.5104087,0.1285709,None,,,,,,67,0,66,616.6307276,,,,,,,,,,,,,,,,,,,,,,,616.6163289,616.6307276,617.1310023,617.1150752,,,,,,,,,,,,,,,,,,,,,,,,,,617.1234656,617.1310023,617.1310023,617.1310023,620.1157911,f,1.5104087,0.1285709,620.1160119,620.1160765,None,620.1312443,620.1312443,620.1312443,,,,,,,,,22,1,2026-01-20_16h50.51.424,MST_task,2024.2.0,60.32694793,2026-01-20 16h51.05.601553 +0530
,Objects\111a.jpg,67,0,68,,,,,,,f,2.7148708,0.1032049,None,,,,,,68,0,67,620.1312443,,,,,,,,,,,,,,,,,,,,,,,620.1163772,620.1312443,620.6308432,620.6151223,,,,,,,,,,,,,,,,,,,,,,,,,,620.6204987,620.6308432,620.6308432,620.6308432,623.6158898,f,2.7148708,0.1032049,623.6161042,623.6161626,None,623.6309522,623.6309522,623.6309522,,,,,,,,,22,1,2026-01-20_16h50.51.424,MST_task,2024.2.0,60.32694793,2026-01-20 16h51.05.601553 +0530
,Objects\148a.jpg,68,0,69,,,,,,,None,,,f,0.4149618,None,,,,69,0,68,623.6309522,,,,,,,,,,,,,,,,,,,,,,,623.6165185,623.6309522,624.1310749,624.1153369,,,,,,,,,,,,,,,,,,,,,,,,,,624.1236828,624.1310749,624.1310749,624.1310749,627.116076,None,,,627.1162271,627.5495913,f,627.1311757,627.1311757,627.1311757,627.1311757,627.1311757,0.4149618,None,,,,,22,1,2026-01-20_16h50.51.424,MST_task,2024.2.0,60.32694793,2026-01-20 16h51.05.601553 +0530
,Objects\016a.jpg,69,0,70,,,,,,,f,1.1374499,0.159874,None,,,,,,70,0,69,627.5645267,,,,,,,,,,,,,,,,,,,,,,,627.5499967,627.5645267,628.0644272,628.0484993,,,,,,,,,,,,,,,,,,,,,,,,,,628.0542296,628.0644272,628.0644272,628.0644272,631.0494536,f,1.1374499,0.159874,631.0497272,631.0497754,None,631.064735,631.064735,631.064735,,,,,,,,,22,1,2026-01-20_16h50.51.424,MST_task,2024.2.0,60.32694793,2026-01-20 16h51.05.601553 +0530
,Scenes\166a.jpg,70,0,71,,,,,,,j,1.3569151,0.1353862,None,,,,,,71,0,70,631.064735,,,,,,,,,,,,,,,,,,,,,,,631.0500591,631.064735,631.5647714,631.5491867,,,,,,,,,,,,,,,,,,,,,,,,,,631.5587597,631.5647714,631.5647714,631.5647714,634.5492112,j,1.3569151,0.1353862,634.5493949,634.54943,None,634.5643076,634.5643076,634.5643076,,,,,,,,,22,1,2026-01-20_16h50.51.424,MST_task,2024.2.0,60.32694793,2026-01-20 16h51.05.601553 +0530
,Scenes\039a.jpg,71,0,72,,,,,,,j,1.1130529,0.1279651,None,,,,,,72,0,71,634.5643076,,,,,,,,,,,,,,,,,,,,,,,634.5496239,634.5643076,635.0646813,635.0485498,,,,,,,,,,,,,,,,,,,,,,,,,,635.057421,635.0646813,635.0646813,635.0646813,638.0493015,j,1.1130529,0.1279651,638.0495396,638.0496046,None,638.0644399,638.0644399,638.0644399,,,,,,,,,22,1,2026-01-20_16h50.51.424,MST_task,2024.2.0,60.32694793,2026-01-20 16h51.05.601553 +0530
,Scenes\192a.jpg,72,0,73,,,,,,,None,,,j,0.0771113,None,,,,73,0,72,638.0644399,,,,,,,,,,,,,,,,,,,,,,,638.0499538,638.0644399,638.5648294,638.5485917,,,,,,,,,,,,,,,,,,,,,,,,,,638.559635,638.5648294,638.5648294,638.5648294,641.549596,None,,,641.5497876,641.649312,j,641.5647539,641.5647539,641.5647539,641.5647539,641.5647539,0.0771113,None,,,,,22,1,2026-01-20_16h50.51.424,MST_task,2024.2.0,60.32694793,2026-01-20 16h51.05.601553 +0530
,Scenes\015a.jpg,73,0,74,,,,,,,None,,,j,0.8117289,None,,,,74,0,73,641.6640894,,,,,,,,,,,,,,,,,,,,,,,641.6496308,641.6640894,642.1668043,642.1485683,,,,,,,,,,,,,,,,,,,,,,,,,,642.1638175,642.1668043,642.1668043,642.1668043,645.1649307,None,,,645.165066,645.9989956,j,,,,645.1812133,645.1812133,0.8117289,None,,,,,22,1,2026-01-20_16h50.51.424,MST_task,2024.2.0,60.32694793,2026-01-20 16h51.05.601553 +0530
,Scenes\173a.jpg,74,0,75,,,,,,,None,,,j,1.4234938,None,,,,75,0,74,646.0146702,,,,,,,,,,,,,,,,,,,,,,,645.9994698,646.0146702,646.5151064,646.498417,,,,,,,,,,,,,,,,,,,,,,,,,,646.5107332,646.5151064,646.5151064,646.5151064,649.4993326,None,,,649.4994635,650.9495393,j,649.5143516,649.5143516,649.5143516,649.5143516,649.5143516,1.4234938,None,,,,,22,1,2026-01-20_16h50.51.424,MST_task,2024.2.0,60.32694793,2026-01-20 16h51.05.601553 +0530
,Scenes\164a.jpg,75,0,76,,,,,,,j,2.6721743,0.0972155,None,,,,,,76,0,75,650.9642337,,,,,,,,,,,,,,,,,,,,,,,650.9497708,650.9642337,651.4647463,651.448391,,,,,,,,,,,,,,,,,,,,,,,,,,651.4583453,651.4647463,651.4647463,651.4647463,654.4487616,j,2.6721743,0.0972155,654.4488533,654.4488771,None,654.4638916,654.4638916,654.4638916,,,,,,,,,22,1,2026-01-20_16h50.51.424,MST_task,2024.2.0,60.32694793,2026-01-20 16h51.05.601553 +0530
,Scenes\073a.jpg,76,0,77,,,,,,,None,,,j,0.3572949,None,,,,77,0,76,654.4638916,,,,,,,,,,,,,,,,,,,,,,,654.4489969,654.4638916,654.964676,654.9476632,,,,,,,,,,,,,,,,,,,,,,,,,,654.9578377,654.964676,654.964676,654.964676,657.9494025,None,,,657.9496347,658.332699,j,657.9644735,657.9644735,657.9644735,657.9644735,657.9644735,0.3572949,None,,,,,22,1,2026-01-20_16h50.51.424,MST_task,2024.2.0,60.32694793,2026-01-20 16h51.05.601553 +0530
,Objects\020a.jpg,77,0,78,,,,,,,None,,,f,1.2178018,None,,,,78,0,77,658.3473638,,,,,,,,,,,,,,,,,,,,,,,658.3330823,658.3473638,658.8478385,658.8318065,,,,,,,,,,,,,,,,,,,,,,,,,,658.8383828,658.8478385,658.8478385,658.8478385,661.8326781,None,,,661.8328936,663.082568,f,661.8473977,661.8473977,661.8473977,661.8473977,661.8473977,1.2178018,None,,,,,22,1,2026-01-20_16h50.51.424,MST_task,2024.2.0,60.32694793,2026-01-20 16h51.05.601553 +0530
,Objects\130a.jpg,78,0,79,,,,,,,None,,,f,0.4759293,None,,,,79,0,78,663.0977249,,,,,,,,,,,,,,,,,,,,,,,663.0829259,663.0977249,663.5976297,663.5821452,,,,,,,,,,,,,,,,,,,,,,,,,,663.5903477,663.5976297,663.5976297,663.5976297,666.582681,None,,,666.5828335,667.0828217,f,666.5976174,666.5976174,666.5976174,666.5976174,666.5976174,0.4759293,None,,,,,22,1,2026-01-20_16h50.51.424,MST_task,2024.2.0,60.32694793,2026-01-20 16h51.05.601553 +0530
,Objects\158a.jpg,79,0,80,,,,,,,None,,,f,0.3560069,None,,,,80,0,79,667.0974206,,,,,,,,,,,,,,,,,,,,,,,667.0831518,667.0974206,667.5977701,667.5818145,,,,,,,,,,,,,,,,,,,,,,,,,,667.5874207,667.5977701,667.5977701,667.5977701,670.5824576,None,,,670.5826642,670.9659076,f,670.5975141,670.5975141,670.5975141,670.5975141,670.5975141,0.3560069,None,,,,,22,1,2026-01-20_16h50.51.424,MST_task,2024.2.0,60.32694793,2026-01-20 16h51.05.601553 +0530
,Objects\094a.jpg,80,0,81,,,,,,,f,2.9515107,None,None,,,,,,81,0,80,670.9810081,,,,,,,,,,,,,,,,,,,,,,,670.9664589,670.9810081,671.4819479,671.4653726,,,,,,,,,,,,,,,,,,,,,,,,,,671.4709427,671.4819479,671.4819479,671.4819479,674.466049,f,2.9515107,None,674.4662889,674.4663492,None,674.4807738,674.4807738,674.4807738,,,,,,,,,22,1,2026-01-20_16h50.51.424,MST_task,2024.2.0,60.32694793,2026-01-20 16h51.05.601553 +0530
,Objects\082a.jpg,81,0,82,,,,,,,j,2.9560574,None,None,,,,,,82,0,81,674.4807738,,,,,,,,,,,,,,,,,,,,,,,674.4666493,674.4807738,674.9810742,674.9651626,,,,,,,,,,,,,,,,,,,,,,,,,,674.9733937,674.9810742,674.9810742,674.9810742,677.9658984,j,2.9560574,None,677.9660964,677.9661271,None,677.9807854,677.9807854,677.9807854,,,,,,,,,22,1,2026-01-20_16h50.51.424,MST_task,2024.2.0,60.32694793,2026-01-20 16h51.05.601553 +0530
,Objects\157a.jpg,82,0,83,,,,,,,None,,,f,0.6090824,None,,,,83,0,82,677.9807854,,,,,,,,,,,,,,,,,,,,,,,677.9663146,677.9807854,678.4812522,678.4657517,,,,,,,,,,,,,,,,,,,,,,,,,,678.471106,678.4812522,678.4812522,678.4812522,681.4656739,None,,,681.4658314,682.0991993,f,681.4817822,681.4817822,681.4817822,681.4817822,681.4817822,0.6090824,None,,,,,22,1,2026-01-20_16h50.51.424,MST_task,2024.2.0,60.32694793,2026-01-20 16h51.05.601553 +0530
,Objects\060a.jpg,83,0,84,,,,,,,None,,,j,0.1950416,None,,,,84,0,83,682.1141798,,,,,,,,,,,,,,,,,,,,,,,682.0995827,682.1141798,682.6151391,682.5987979,,,,,,,,,,,,,,,,,,,,,,,,,,682.6057885,682.6151391,682.6151391,682.6151391,685.5991146,None,,,685.5992566,685.8162785,j,685.6150092,685.6150092,685.6150092,685.6150092,685.6150092,0.1950416,None,,,,,22,1,2026-01-20_16h50.51.424,MST_task,2024.2.0,60.32694793,2026-01-20 16h51.05.601553 +0530
,Scenes\053a.jpg,84,0,85,,,,,,,j,2.2379753,0.168429,None,,,,,,85,0,84,685.8309976,,,,,,,,,,,,,,,,,,,,,,,685.8165238,685.8309976,686.3313953,686.3157195,,,,,,,,,,,,,,,,,,,,,,,,,,686.3232442,686.3313953,686.3313953,686.3313953,689.3163768,j,2.2379753,0.168429,689.3165934,689.316629,None,689.3313123,689.3313123,689.3313123,,,,,,,,,22,1,2026-01-20_16h50.51.424,MST_task,2024.2.0,60.32694793,2026-01-20 16h51.05.601553 +0530
,Scenes\083a.jpg,85,0,86,,,,,,,j,2.6393597,0.1204564,None,,,,,,86,0,85,689.3313123,,,,,,,,,,,,,,,,,,,,,,,689.316867,689.3313123,689.8340944,689.8152108,,,,,,,,,,,,,,,,,,,,,,,,,,689.8307501,689.8340944,689.8340944,689.8340944,692.831487,j,2.6393597,0.1204564,692.8316567,692.8317068,None,,,,,,,,,,,,22,1,2026-01-20_16h50.51.424,MST_task,2024.2.0,60.32694793,2026-01-20 16h51.05.601553 +0530
,Scenes\156a.jpg,86,0,87,,,,,,,j,2.8452506,None,None,,,,,,87,0,86,692.8475246,,,,,,,,,,,,,,,,,,,,,,,692.8320284,692.8475246,693.3481195,693.3318212,,,,,,,,,,,,,,,,,,,,,,,,,,693.3424084,693.3481195,693.3481195,693.3481195,696.3335,j,2.8452506,None,696.3337302,696.3337908,None,696.3479033,696.3479033,696.3479033,,,,,,,,,22,1,2026-01-20_16h50.51.424,MST_task,2024.2.0,60.32694793,2026-01-20 16h51.05.601553 +0530
,Scenes\095a.jpg,87,0,88,,,,,,,f,2.3838307,0.1518099,None,,,,,,88,0,87,696.3479033,,,,,,,,,,,,,,,,,,,,,,,696.3340857,696.3479033,696.8502701,696.8318222,,,,,,,,,,,,,,,,,,,,,,,,,,696.845714,696.8502701,696.8502701,696.8502701,699.8477993,f,2.3838307,0.1518099,699.8479347,699.847976,None,,,,,,,,,,,,22,1,2026-01-20_16h50.51.424,MST_task,2024.2.0,60.32694793,2026-01-20 16h51.05.601553 +0530
,Scenes\067a.jpg,88,0,89,,,,,,,None,,,f,0.0771626,None,,,,89,0,88,699.8642956,,,,,,,,,,,,,,,,,,,,,,,699.8482202,699.8642956,,700.3483288,,,,,,,,,,,,,,,,,,,,,,,,,,700.3632461,700.3665343,700.3665343,700.3665343,703.3645698,None,,,703.3647644,703.4660442,f,,,,703.3807887,703.3807887,0.0771626,None,,,,,22,1,2026-01-20_16h50.51.424,MST_task,2024.2.0,60.32694793,2026-01-20 16h51.05.601553 +0530
,Scenes\178a.jpg,89,0,90,,,,,,,j,2.4672767,0.1513601,None,,,,,,90,0,89,703.4807714,,,,,,,,,,,,,,,,,,,,,,,703.4664696,703.4807714,703.9825932,703.9660609,,,,,,,,,,,,,,,,,,,,,,,,,,703.9795826,703.9825932,703.9825932,703.9825932,706.9813521,j,2.4672767,0.1513601,706.9815115,706.9815735,None,,,,,,,,,,,,22,1,2026-01-20_16h50.51.424,MST_task,2024.2.0,60.32694793,2026-01-20 16h51.05.601553 +0530
,Scenes\022a.jpg,90,0,91,,,,,,,None,,,j,0.0553681,None,,,,91,0,90,706.9976392,,,,,,,,,,,,,,,,,,,,,,,706.9817956,706.9976392,707.4984198,707.4820808,,,,,,,,,,,,,,,,,,,,,,,,,,707.4911189,707.4984198,707.4984198,707.4984198,710.4818622,None,,,710.4820506,710.566474,j,,,,710.4977583,710.4977583,0.0553681,None,,,,,22,1,2026-01-20_16h50.51.424,MST_task,2024.2.0,60.32694793,2026-01-20 16h51.05.601553 +0530
,Objects\070a.jpg,91,0,92,,,,,,,f,1.904342,0.1440561,None,,,,,,92,0,91,710.5809859,,,,,,,,,,,,,,,,,,,,,,,710.5669295,710.5809859,711.0814897,711.0654165,,,,,,,,,,,,,,,,,,,,,,,,,,711.0721616,711.0814897,711.0814897,711.0814897,714.0664634,f,1.904342,0.1440561,714.0666975,714.0667707,None,714.0808995,714.0808995,714.0808995,,,,,,,,,22,1,2026-01-20_16h50.51.424,MST_task,2024.2.0,60.32694793,2026-01-20 16h51.05.601553 +0530
,Objects\178a.jpg,92,0,93,,,,,,,f,1.2993987,0.1524641,None,,,,,,93,0,92,714.0808995,,,,,,,,,,,,,,,,,,,,,,,714.067039,714.0808995,714.5815097,714.5650543,,,,,,,,,,,,,,,,,,,,,,,,,,714.5750329,714.5815097,714.5815097,714.5815097,717.5663069,f,1.2993987,0.1524641,717.5665008,717.5665606,None,717.5812111,717.5812111,717.5812111,,,,,,,,,22,1,2026-01-20_16h50.51.424,MST_task,2024.2.0,60.32694793,2026-01-20 16h51.05.601553 +0530
,Objects\134a.jpg,93,0,94,,,,,,,f,1.5607942,0.1281592,None,,,,,,94,0,93,717.5812111,,,,,,,,,,,,,,,,,,,,,,,717.5668568,717.5812111,718.0811282,718.0652368,,,,,,,,,,,,,,,,,,,,,,,,,,718.0707826,718.0811282,718.0811282,718.0811282,721.0659957,f,1.5607942,0.1281592,721.0662173,721.0662823,None,721.0807042,721.0807042,721.0807042,,,,,,,,,22,1,2026-01-20_16h50.51.424,MST_task,2024.2.0,60.32694793,2026-01-20 16h51.05.601553 +0530
,Objects\098a.jpg,94,0,95,,,,,,,f,1.572091,0.1693036,None,,,,,,95,0,94,721.0807042,,,,,,,,,,,,,,,,,,,,,,,721.0666872,721.0807042,721.5809759,721.5652743,,,,,,,,,,,,,,,,,,,,,,,,,,721.5717591,721.5809759,721.5809759,721.5809759,724.5662056,f,1.572091,0.1693036,724.5664499,724.5665146,None,724.5809414,724.5809414,724.5809414,,,,,,,,,22,1,2026-01-20_16h50.51.424,MST_task,2024.2.0,60.32694793,2026-01-20 16h51.05.601553 +0530
,Objects\123a.jpg,95,0,96,,,,,,,j,2.4161627,0.1204807,None,,,,,,96,0,95,724.5809414,,,,,,,,,,,,,,,,,,,,,,,724.5669182,724.5809414,725.0814144,725.0655344,,,,,,,,,,,,,,,,,,,,,,,,,,725.0728999,725.0814144,725.0814144,725.0814144,728.0659203,j,2.4161627,0.1204807,728.0660654,728.0661437,None,728.080841,728.080841,728.080841,,,,,,,,,22,1,2026-01-20_16h50.51.424,MST_task,2024.2.0,60.32694793,2026-01-20 16h51.05.601553 +0530
,Objects\014a.jpg,96,0,97,,,,,,,f,2.4825152,0.1439659,None,,,,,,97,0,96,728.080841,,,,,,,,,,,,,,,,,,,,,,,728.0664821,728.080841,728.6063842,728.5657324,,,,,,,,,,,,,,,,,,,,,,,,,,728.6025197,728.6063842,728.6063842,728.6063842,731.5814767,f,2.4825152,0.1439659,731.5816782,731.5817185,None,,,,,,,,,,,,22,1,2026-01-20_16h50.51.424,MST_task,2024.2.0,60.32694793,2026-01-20 16h51.05.601553 +0530
,Objects\147a.jpg,97,0,98,,,,,,,None,,,f,0.1029466,None,,,,98,0,97,731.5976063,,,,,,,,,,,,,,,,,,,,,,,731.5819692,731.5976063,732.0976597,732.0821395,,,,,,,,,,,,,,,,,,,,,,,,,,732.0908352,732.0976597,732.0976597,732.0976597,735.0824696,None,,,735.0825952,735.2159858,f,735.0980745,735.0980745,735.0980745,735.0980745,735.0980745,0.1029466,None,,,,,22,1,2026-01-20_16h50.51.424,MST_task,2024.2.0,60.32694793,2026-01-20 16h51.05.601553 +0530
,Scenes\072a.jpg,98,0,99,,,,,,,None,,,j,1.0462809,None,,,,99,0,98,735.2308212,,,,,,,,,,,,,,,,,,,,,,,735.2162675,735.2308212,735.7358892,735.7154922,,,,,,,,,,,,,,,,,,,,,,,,,,735.7319639,735.7358892,735.7358892,735.7358892,738.7313051,None,,,738.7314889,739.7994857,j,,,,738.7473457,738.7473457,1.0462809,None,,,,,22,1,2026-01-20_16h50.51.424,MST_task,2024.2.0,60.32694793,2026-01-20 16h51.05.601553 +0530
,Scenes\061a.jpg,99,0,100,,,,,,,None,,,j,1.4863958,None,,,,100,0,99,739.8141278,,,,,,,,,,,,,,,,,,,,,,,739.7998045,739.8141278,740.3179493,740.2984835,,,,,,,,,,,,,,,,,,,,,,,,,,740.3129785,740.3179493,740.3179493,740.3179493,743.3146453,None,,,743.3148241,744.8323823,j,,,,743.3309484,743.3309484,1.4863958,None,,,,,22,1,2026-01-20_16h50.51.424,MST_task,2024.2.0,60.32694793,2026-01-20 16h51.05.601553 +0530
,Scenes\054a.jpg,100,0,101,,,,,,,j,2.1259804,0.1432793,None,,,,,,101,0,100,744.8477465,,,,,,,,,,,,,,,,,,,,,,,744.8328705,744.8477465,745.3560202,745.331929,,,,,,,,,,,,,,,,,,,,,,,,,,745.3529893,745.3560202,745.3560202,745.3560202,748.3482777,j,2.1259804,0.1432793,748.3484094,748.3484473,None,,,,,,,,,,,,22,1,2026-01-20_16h50.51.424,MST_task,2024.2.0,60.32694793,2026-01-20 16h51.05.601553 +0530
,Scenes\049a.jpg,101,0,102,,,,,,,j,2.6415464,0.1516862,None,,,,,,102,0,101,748.3645073,,,,,,,,,,,,,,,,,,,,,,,748.3486906,748.3645073,748.864803,748.8486059,,,,,,,,,,,,,,,,,,,,,,,,,,748.8613961,748.864803,748.864803,748.864803,751.849278,j,2.6415464,0.1516862,751.8494859,751.8495458,None,751.8648066,751.8648066,751.8648066,,,,,,,,,22,1,2026-01-20_16h50.51.424,MST_task,2024.2.0,60.32694793,2026-01-20 16h51.05.601553 +0530
,Scenes\146a.jpg,102,0,103,,,,,,,None,,,j,0.3720101,None,,,,103,0,102,751.8648066,,,,,,,,,,,,,,,,,,,,,,,751.849861,751.8648066,752.3693488,752.3486562,,,,,,,,,,,,,,,,,,,,,,,,,,752.3658242,752.3693488,752.3693488,752.3693488,755.3648056,None,,,755.3650239,755.7660355,j,,,,755.3808484,755.3808484,0.3720101,None,,,,,22,1,2026-01-20_16h50.51.424,MST_task,2024.2.0,60.32694793,2026-01-20 16h51.05.601553 +0530
,Scenes\158a.jpg,103,0,104,,,,,,,None,,,j,0.1448886,None,,,,104,0,103,755.7807789,,,,,,,,,,,,,,,,,,,,,,,755.7663786,755.7807789,756.2868025,756.2656082,,,,,,,,,,,,,,,,,,,,,,,,,,756.2834854,756.2868025,756.2868025,756.2868025,759.2813199,None,,,759.2814848,759.4491562,j,,,,759.2974611,759.2974611,0.1448886,None,,,,,22,1,2026-01-20_16h50.51.424,MST_task,2024.2.0,60.32694793,2026-01-20 16h51.05.601553 +0530
,Scenes\143a.jpg,104,0,105,,,,,,,None,,,j,0.3241847,None,,,,105,0,104,759.4642032,,,,,,,,,,,,,,,,,,,,,,,759.4493785,759.4642032,759.9655236,759.9488403,,,,,,,,,,,,,,,,,,,,,,,,,,759.9625397,759.9655236,759.9655236,759.9655236,762.9643692,None,,,762.964538,763.3157451,j,,,,762.9806614,762.9806614,0.3241847,None,,,,,22,1,2026-01-20_16h50.51.424,MST_task,2024.2.0,60.32694793,2026-01-20 16h51.05.601553 +0530
,Objects\091a.jpg,105,0,106,,,,,,,None,,,j,2.1152937,None,,,,106,0,105,763.3310464,,,,,,,,,,,,,,,,,,,,,,,763.3161823,763.3310464,763.8311199,763.8149169,,,,,,,,,,,,,,,,,,,,,,,,,,763.8218169,763.8311199,763.8311199,763.8311199,766.8153175,None,,,766.8154546,768.9491817,j,766.8306448,766.8306448,766.8306448,766.8306448,766.8306448,2.1152937,None,,,,,22,1,2026-01-20_16h50.51.424,MST_task,2024.2.0,60.32694793,2026-01-20 16h51.05.601553 +0530
,Objects\176a.jpg,106,0,107,,,,,,,None,,,f,0.3295035,None,,,,107,0,106,768.9643518,,,,,,,,,,,,,,,,,,,,,,,768.9495757,768.9643518,769.5029552,769.4484139,,,,,,,,,,,,,,,,,,,,,,,,,,769.4992235,769.5029552,769.5029552,769.5029552,772.4648628,None,,,772.4650859,772.8157333,f,,,,772.4810358,772.4810358,0.3295035,None,,,,,22,1,2026-01-20_16h50.51.424,MST_task,2024.2.0,60.32694793,2026-01-20 16h51.05.601553 +0530
,Objects\032a.jpg,107,0,108,,,,,,,None,,,j,0.263076,None,,,,108,0,107,772.8309331,,,,,,,,,,,,,,,,,,,,,,,772.8161087,772.8309331,773.3311455,773.3155642,,,,,,,,,,,,,,,,,,,,,,,,,,773.3245248,773.3311455,773.3311455,773.3311455,776.3158463,None,,,776.3160536,776.5994628,j,776.330927,776.330927,776.330927,776.330927,776.330927,0.263076,None,,,,,22,1,2026-01-20_16h50.51.424,MST_task,2024.2.0,60.32694793,2026-01-20 16h51.05.601553 +0530
,Objects\066a.jpg,108,0,109,,,,,,,None,,,j,1.0475893,None,,,,109,0,108,776.6142862,,,,,,,,,,,,,,,,,,,,,,,776.5999461,776.6142862,777.114783,777.0985822,,,,,,,,,,,,,,,,,,,,,,,,,,777.1050702,777.114783,777.114783,777.114783,780.0994272,None,,,780.0996597,781.1661883,j,780.1141626,780.1141626,780.1141626,780.1141626,780.1141626,1.0475893,None,,,,,22,1,2026-01-20_16h50.51.424,MST_task,2024.2.0,60.32694793,2026-01-20 16h51.05.601553 +0530
,Objects\115a.jpg,109,0,110,,,,,,,None,,,f,0.5600959,None,,,,110,0,109,781.181253,,,,,,,,,,,,,,,,,,,,,,,781.1665441,781.181253,781.6812237,781.6651289,,,,,,,,,,,,,,,,,,,,,,,,,,781.6710207,781.6812237,781.6812237,781.6812237,784.6662129,None,,,784.6664331,785.2493413,f,784.681749,784.681749,784.681749,784.681749,784.681749,0.5600959,None,,,,,22,1,2026-01-20_16h50.51.424,MST_task,2024.2.0,60.32694793,2026-01-20 16h51.05.601553 +0530
,Objects\018a.jpg,110,0,111,,,,,,,None,,,j,0.5260279,None,,,,111,0,110,785.2640733,,,,,,,,,,,,,,,,,,,,,,,785.249721,785.2640733,785.7642644,785.7486599,,,,,,,,,,,,,,,,,,,,,,,,,,785.757008,785.7642644,785.7642644,785.7642644,788.7493715,None,,,788.7495407,789.2993639,j,788.7645231,788.7645231,788.7645231,788.7645231,788.7645231,0.5260279,None,,,,,22,1,2026-01-20_16h50.51.424,MST_task,2024.2.0,60.32694793,2026-01-20 16h51.05.601553 +0530
,Objects\096a.jpg,111,0,112,,,,,,,None,,,f,1.6992451,None,,,,112,0,111,789.3142634,,,,,,,,,,,,,,,,,,,,,,,789.2995959,789.3142634,789.8149843,789.7986528,,,,,,,,,,,,,,,,,,,,,,,,,,789.8079506,789.8149843,789.8149843,789.8149843,792.7996387,None,,,792.7998621,794.5165481,f,792.8144405,792.8144405,792.8144405,792.8144405,792.8144405,1.6992451,None,,,,,22,1,2026-01-20_16h50.51.424,MST_task,2024.2.0,60.32694793,2026-01-20 16h51.05.601553 +0530
,Scenes\183a.jpg,112,0,113,,,,,,,None,,,f,0.3151231,None,,,,113,0,112,794.5317706,,,,,,,,,,,,,,,,,,,,,,,794.5167323,794.5317706,795.0316332,795.0153387,,,,,,,,,,,,,,,,,,,,,,,,,,795.0286098,795.0316332,795.0316332,795.0316332,798.0163089,None,,,798.0165114,798.3502282,f,798.0311055,798.0311055,798.0311055,798.0311055,798.0311055,0.3151231,None,,,,,22,1,2026-01-20_16h50.51.424,MST_task,2024.2.0,60.32694793,2026-01-20 16h51.05.601553 +0530
,Scenes\014a.jpg,113,0,114,,,,,,,None,,,f,0.6088126,None,,,,114,0,113,798.3640942,,,,,,,,,,,,,,,,,,,,,,,798.3507558,798.3640942,798.8648411,798.8486257,,,,,,,,,,,,,,,,,,,,,,,,,,798.857099,798.8648411,798.8648411,798.8648411,801.8493463,None,,,801.8495423,802.4826348,f,801.8641406,801.8641406,801.8641406,801.8641406,801.8641406,0.6088126,None,,,,,22,1,2026-01-20_16h50.51.424,MST_task,2024.2.0,60.32694793,2026-01-20 16h51.05.601553 +0530
,Scenes\150a.jpg,114,0,115,,,,,,,None,,,j,0.498937,None,,,,115,0,114,802.4976257,,,,,,,,,,,,,,,,,,,,,,,802.4830719,802.4976257,803.0005281,802.9820337,,,,,,,,,,,,,,,,,,,,,,,,,,802.9973729,803.0005281,803.0005281,803.0005281,805.9980412,None,,,805.9982453,806.5155234,j,,,,806.0141184,806.0141184,0.498937,None,,,,,22,1,2026-01-20_16h50.51.424,MST_task,2024.2.0,60.32694793,2026-01-20 16h51.05.601553 +0530
,Scenes\091a.jpg,115,0,116,,,,,,,j,2.3464757,0.1512122,None,,,,,,116,0,115,806.5311782,,,,,,,,,,,,,,,,,,,,,,,806.5158457,806.5311782,807.0314702,807.015355,,,,,,,,,,,,,,,,,,,,,,,,,,807.0248414,807.0314702,807.0314702,807.0314702,810.015954,j,2.3464757,0.1512122,810.0161589,810.0162035,None,810.0308093,810.0308093,810.0308093,,,,,,,,,22,1,2026-01-20_16h50.51.424,MST_task,2024.2.0,60.32694793,2026-01-20 16h51.05.601553 +0530
,Scenes\092a.jpg,116,0,117,,,,,,,None,,,j,1.4709607,None,,,,117,0,116,810.0308093,,,,,,,,,,,,,,,,,,,,,,,810.016475,810.0308093,810.5314839,810.5152018,,,,,,,,,,,,,,,,,,,,,,,,,,810.52801,810.5314839,810.5314839,810.5314839,813.5160114,None,,,813.5162217,815.0156548,j,813.5307743,813.5307743,813.5307743,813.5307743,813.5307743,1.4709607,None,,,,,22,1,2026-01-20_16h50.51.424,MST_task,2024.2.0,60.32694793,2026-01-20 16h51.05.601553 +0530
,Scenes\110a.jpg,117,0,118,,,,,,,None,,,j,0.3104742,None,,,,118,0,117,815.0309217,,,,,,,,,,,,,,,,,,,,,,,815.0158688,815.0309217,815.5350266,815.515534,,,,,,,,,,,,,,,,,,,,,,,,,,815.5317014,815.5350266,815.5350266,815.5350266,818.5313021,None,,,818.5314572,818.8659359,j,,,,818.5476771,818.5476771,0.3104742,None,,,,,22,1,2026-01-20_16h50.51.424,MST_task,2024.2.0,60.32694793,2026-01-20 16h51.05.601553 +0530
,Scenes\175a.jpg,118,0,119,,,,,,,None,,,j,0.2441353,None,,,,119,0,118,818.8810365,,,,,,,,,,,,,,,,,,,,,,,818.8663012,818.8810365,819.3815837,819.3650738,,,,,,,,,,,,,,,,,,,,,,,,,,819.3745807,819.3815837,819.3815837,819.3815837,822.3657654,None,,,822.3659481,822.6333874,j,822.3808714,822.3808714,822.3808714,822.3808714,822.3808714,0.2441353,None,,,,,22,1,2026-01-20_16h50.51.424,MST_task,2024.2.0,60.32694793,2026-01-20 16h51.05.601553 +0530
,Objects\149a.jpg,119,0,120,,,,,,,None,,,f,0.3099406,None,,,,120,0,119,822.6477431,,,,,,,,,,,,,,,,,,,,,,,822.6337079,822.6477431,823.1483846,823.1320974,,,,,,,,,,,,,,,,,,,,,,,,,,823.142467,823.1483846,823.1483846,823.1483846,826.1331193,None,,,826.1333263,826.4657738,f,826.1474904,826.1474904,826.1474904,826.1474904,826.1474904,0.3099406,None,,,,,22,1,2026-01-20_16h50.51.424,MST_task,2024.2.0,60.32694793,2026-01-20 16h51.05.601553 +0530
,Objects\107a.jpg,120,0,121,,,,,,,None,,,f,1.8120906,None,,,,121,0,120,826.481422,,,,,,,,,,,,,,,,,,,,,,,826.4660728,826.481422,826.9814253,826.9656032,,,,,,,,,,,,,,,,,,,,,,,,,,826.9740038,826.9814253,826.9814253,826.9814253,829.966143,None,,,829.9663393,831.7995571,f,829.9815499,829.9815499,829.9815499,829.9815499,829.9815499,1.8120906,None,,,,,22,1,2026-01-20_16h50.51.424,MST_task,2024.2.0,60.32694793,2026-01-20 16h51.05.601553 +0530
,Objects\164a.jpg,121,0,122,,,,,,,None,,,f,0.4067658,None,,,,122,0,121,831.8146135,,,,,,,,,,,,,,,,,,,,,,,831.7999281,831.8146135,832.3143434,832.2987188,,,,,,,,,,,,,,,,,,,,,,,,,,832.3053501,832.3143434,832.3143434,832.3143434,835.3000214,None,,,835.300172,835.7322973,f,835.3141568,835.3141568,835.3141568,835.3141568,835.3141568,0.4067658,None,,,,,22,1,2026-01-20_16h50.51.424,MST_task,2024.2.0,60.32694793,2026-01-20 16h51.05.601553 +0530
,Objects\047a.jpg,122,0,123,,,,,,,f,2.353845,0.1606897,None,,,,,,123,0,122,835.7472285,,,,,,,,,,,,,,,,,,,,,,,835.7327436,835.7472285,836.2475028,836.2311809,,,,,,,,,,,,,,,,,,,,,,,,,,836.2385044,836.2475028,836.2475028,836.2475028,839.2324516,f,2.353845,0.1606897,839.2326899,839.2327573,None,839.2474889,839.2474889,839.2474889,,,,,,,,,22,1,2026-01-20_16h50.51.424,MST_task,2024.2.0,60.32694793,2026-01-20 16h51.05.601553 +0530
,Objects\153a.jpg,123,0,124,,,,,,,f,2.6222106,0.1444028,None,,,,,,124,0,123,839.2474889,,,,,,,,,,,,,,,,,,,,,,,839.2330655,839.2474889,839.7477692,839.73172,,,,,,,,,,,,,,,,,,,,,,,,,,839.7406591,839.7477692,839.7477692,839.7477692,842.7323831,f,2.6222106,0.1444028,842.7325089,842.7325836,None,842.7475321,842.7475321,842.7475321,,,,,,,,,22,1,2026-01-20_16h50.51.424,MST_task,2024.2.0,60.32694793,2026-01-20 16h51.05.601553 +0530
,Objects\112a.jpg,124,0,125,,,,,,,f,2.4573326,0.168612,None,,,,,,125,0,124,842.7475321,,,,,,,,,,,,,,,,,,,,,,,842.7328934,842.7475321,843.2483016,843.2320289,,,,,,,,,,,,,,,,,,,,,,,,,,843.2401705,843.2483016,843.2483016,843.2483016,846.2335158,f,2.4573326,0.168612,846.2337397,846.2338029,None,846.2476103,846.2476103,846.2476103,,,,,,,,,22,1,2026-01-20_16h50.51.424,MST_task,2024.2.0,60.32694793,2026-01-20 16h51.05.601553 +0530
,Objects\183a.jpg,125,0,126,,,,,,,None,,,f,0.2699663,None,,,,126,0,125,846.2476103,,,,,,,,,,,,,,,,,,,,,,,846.234045,846.2476103,846.7485906,846.7320326,,,,,,,,,,,,,,,,,,,,,,,,,,846.7403876,846.7485906,846.7485906,846.7485906,849.7331772,None,,,849.7333915,850.0326999,f,849.7480076,849.7480076,849.7480076,849.7480076,849.7480076,0.2699663,None,,,,,22,1,2026-01-20_16h50.51.424,MST_task,2024.2.0,60.32694793,2026-01-20 16h51.05.601553 +0530
,Scenes\168a.jpg,126,0,127,,,,,,,None,,,j,1.0211501,None,,,,127,0,126,850.0474132,,,,,,,,,,,,,,,,,,,,,,,850.0331469,850.0474132,850.5486303,850.5318515,,,,,,,,,,,,,,,,,,,,,,,,,,850.5441743,850.5486303,850.5486303,850.5486303,853.5331249,None,,,853.5332605,854.5833992,j,853.547826,853.547826,853.547826,853.547826,853.547826,1.0211501,None,,,,,22,1,2026-01-20_16h50.51.424,MST_task,2024.2.0,60.32694793,2026-01-20 16h51.05.601553 +0530
,Scenes\001a.jpg,127,0,128,,,,,,,None,,,f,0.006338,None,,,,128,0,127,854.5976649,,,,,,,,,,,,,,,,,,,,,,,854.5836478,854.5976649,855.1056021,855.0821832,,,,,,,,,,,,,,,,,,,,,,,,,,855.1019898,855.1056021,855.1056021,855.1056021,858.0979684,None,,,858.0980871,858.1336451,f,,,,858.1146211,858.1146211,0.006338,None,,,,,22,1,2026-01-20_16h50.51.424,MST_task,2024.2.0,60.32694793,2026-01-20 16h51.05.601553 +0530
,Scenes\042a.jpg,128,0,129,,,,,,,None,,,j,3.2168636,None,,,,129,0,128,858.1476389,,,,,,,,,,,,,,,,,,,,,,,858.1340893,858.1476389,858.6508161,858.6319165,,,,,,,,,,,,,,,,,,,,,,,,,,858.6459419,858.6508161,858.6508161,858.6508161,861.6481416,None,,,861.6483321,864.8830287,j,,,,861.664102,861.664102,3.2168636,None,,,,,22,1,2026-01-20_16h50.51.424,MST_task,2024.2.0,60.32694793,2026-01-20 16h51.05.601553 +0530
,Scenes\003a.jpg,129,0,130,,,,,,,None,,,f,0.5459476,None,,,,130,0,129,864.8975931,,,,,,,,,,,,,,,,,,,,,,,864.8833761,864.8975931,865.4024722,865.382519,,,,,,,,,,,,,,,,,,,,,,,,,,865.3980596,865.4024722,865.4024722,865.4024722,868.3981902,None,,,868.3983843,868.965693,f,,,,868.4151362,868.4151362,0.5459476,None,,,,,22,1,2026-01-20_16h50.51.424,MST_task,2024.2.0,60.32694793,2026-01-20 16h51.05.601553 +0530
,Scenes\137a.jpg,130,0,131,,,,,,,None,,,j,1.7770043,None,,,,131,0,130,868.9809388,,,,,,,,,,,,,,,,,,,,,,,868.9661392,868.9809388,869.481868,869.4643621,,,,,,,,,,,,,,,,,,,,,,,,,,869.4721054,869.481868,869.481868,869.481868,872.4659511,None,,,872.4661178,874.2659074,j,872.480978,872.480978,872.480978,872.480978,872.480978,1.7770043,None,,,,,22,1,2026-01-20_16h50.51.424,MST_task,2024.2.0,60.32694793,2026-01-20 16h51.05.601553 +0530
,Scenes\077a.jpg,131,0,132,,,,,,,None,,,f,2.3798396,None,,,,132,0,131,874.2809734,,,,,,,,,,,,,,,,,,,,,,,874.2664131,874.2809734,874.7815483,874.7655894,,,,,,,,,,,,,,,,,,,,,,,,,,874.7762702,874.7815483,874.7815483,874.7815483,877.7661324,None,,,877.7663361,880.1658649,f,877.7808949,877.7808949,877.7808949,877.7808949,877.7808949,2.3798396,None,,,,,22,1,2026-01-20_16h50.51.424,MST_task,2024.2.0,60.32694793,2026-01-20 16h51.05.601553 +0530
,Scenes\011a.jpg,132,0,133,,,,,,,None,,,j,0.9919015,None,,,,133,0,132,880.1812735,,,,,,,,,,,,,,,,,,,,,,,880.1660974,880.1812735,880.6857336,880.665158,,,,,,,,,,,,,,,,,,,,,,,,,,880.6818646,880.6857336,880.6857336,880.6857336,883.6815818,None,,,883.681764,884.6998221,j,,,,883.6982027,883.6982027,0.9919015,None,,,,,22,1,2026-01-20_16h50.51.424,MST_task,2024.2.0,60.32694793,2026-01-20 16h51.05.601553 +0530
,Objects\031a.jpg,133,0,134,,,,,,,None,,,f,0.386718,None,,,,134,0,133,884.7139412,,,,,,,,,,,,,,,,,,,,,,,884.7002864,884.7139412,885.2146878,885.1984539,,,,,,,,,,,,,,,,,,,,,,,,,,885.2063877,885.2146878,885.2146878,885.2146878,888.1993484,None,,,888.1995966,888.6162694,f,888.214252,888.214252,888.214252,888.214252,888.214252,0.386718,None,,,,,22,1,2026-01-20_16h50.51.424,MST_task,2024.2.0,60.32694793,2026-01-20 16h51.05.601553 +0530
,Objects\119a.jpg,134,0,135,,,,,,,None,,,f,0.3339896,None,,,,135,0,134,888.6311253,,,,,,,,,,,,,,,,,,,,,,,888.6166956,888.6311253,889.1311403,889.1153958,,,,,,,,,,,,,,,,,,,,,,,,,,889.123243,889.1311403,889.1311403,889.1311403,892.116092,None,,,892.1163028,892.4824238,f,892.1310082,892.1310082,892.1310082,892.1310082,892.1310082,0.3339896,None,,,,,22,1,2026-01-20_16h50.51.424,MST_task,2024.2.0,60.32694793,2026-01-20 16h51.05.601553 +0530
,Objects\024a.jpg,135,0,136,,,,,,,f,2.0508332,0.1454805,None,,,,,,136,0,135,892.4974892,,,,,,,,,,,,,,,,,,,,,,,892.4827819,892.4974892,892.9979177,892.9818695,,,,,,,,,,,,,,,,,,,,,,,,,,892.9905363,892.9979177,892.9979177,892.9979177,895.9829384,f,2.0508332,0.1454805,895.9831724,895.9832381,None,895.9975651,895.9975651,895.9975651,,,,,,,,,22,1,2026-01-20_16h50.51.424,MST_task,2024.2.0,60.32694793,2026-01-20 16h51.05.601553 +0530
,Objects\118a.jpg,136,0,137,,,,,,,j,2.8675749,None,None,,,,,,137,0,136,895.9975651,,,,,,,,,,,,,,,,,,,,,,,895.9835034,895.9975651,896.5180197,896.4819168,,,,,,,,,,,,,,,,,,,,,,,,,,896.5149456,896.5180197,896.5180197,896.5180197,899.4986016,j,2.8675749,None,899.4988132,899.4988677,None,,,,,,,,,,,,22,1,2026-01-20_16h50.51.424,MST_task,2024.2.0,60.32694793,2026-01-20 16h51.05.601553 +0530
,Objects\121a.jpg,137,0,138,,,,,,,f,2.779065,0.1515622,None,,,,,,138,0,137,899.5138743,,,,,,,,,,,,,,,,,,,,,,,899.4991227,899.5138743,900.0144387,899.9993625,,,,,,,,,,,,,,,,,,,,,,,,,,900.0068955,900.0144387,900.0144387,900.0144387,902.9993457,f,2.779065,0.1515622,902.9995731,902.9996367,None,903.0142367,903.0142367,903.0142367,,,,,,,,,22,1,2026-01-20_16h50.51.424,MST_task,2024.2.0,60.32694793,2026-01-20 16h51.05.601553 +0530
,Objects\030a.jpg,138,0,139,,,,,,,None,,,f,0.2874418,None,,,,139,0,138,903.0142367,,,,,,,,,,,,,,,,,,,,,,,902.9999446,903.0142367,903.5144955,903.4986476,,,,,,,,,,,,,,,,,,,,,,,,,,903.5080676,903.5144955,903.5144955,903.5144955,906.4992578,None,,,906.499442,906.8159392,f,906.5141426,906.5141426,906.5141426,906.5141426,906.5141426,0.2874418,None,,,,,22,1,2026-01-20_16h50.51.424,MST_task,2024.2.0,60.32694793,2026-01-20 16h51.05.601553 +0530
,Objects\042a.jpg,139,0,140,,,,,,,None,,,f,0.6778613,None,,,,140,0,139,906.8309103,,,,,,,,,,,,,,,,,,,,,,,906.8163505,906.8309103,907.3519758,907.3157044,,,,,,,,,,,,,,,,,,,,,,,,,,907.3488293,907.3519758,907.3519758,907.3519758,910.331266,None,,,910.331459,911.0327698,f,,,,910.3475314,910.3475314,0.6778613,None,,,,,22,1,2026-01-20_16h50.51.424,MST_task,2024.2.0,60.32694793,2026-01-20 16h51.05.601553 +0530
,Scenes\108a.jpg,140,0,141,,,,,,,j,2.8988024,None,None,,,,,,141,0,140,911.0475188,,,,,,,,,,,,,,,,,,,,,,,911.0330084,911.0475188,911.5502751,911.5321543,,,,,,,,,,,,,,,,,,,,,,,,,,911.5464982,911.5502751,911.5502751,911.5502751,914.5479663,j,2.8988024,None,914.5481963,914.5482646,None,,,,,,,,,,,,22,1,2026-01-20_16h50.51.424,MST_task,2024.2.0,60.32694793,2026-01-20 16h51.05.601553 +0530
,Scenes\033a.jpg,141,0,142,,,,,,,None,,,j,1.1609789,None,,,,142,0,141,914.5646457,,,,,,,,,,,,,,,,,,,,,,,914.5485434,914.5646457,915.0648985,915.0487888,,,,,,,,,,,,,,,,,,,,,,,,,,915.0599198,915.0648985,915.0648985,915.0648985,918.04915,None,,,918.0492739,919.2326175,j,918.0641391,918.0641391,918.0641391,918.0641391,918.0641391,1.1609789,None,,,,,22,1,2026-01-20_16h50.51.424,MST_task,2024.2.0,60.32694793,2026-01-20 16h51.05.601553 +0530
,Scenes\065a.jpg,142,0,143,,,,,,,j,2.6201452,0.1691541,None,,,,,,143,0,142,919.2475375,,,,,,,,,,,,,,,,,,,,,,,919.2329568,919.2475375,919.7492411,919.7319414,,,,,,,,,,,,,,,,,,,,,,,,,,919.7461238,919.7492411,919.7492411,919.7492411,922.7478826,j,2.6201452,0.1691541,922.7480295,922.7480734,None,,,,,,,,,,,,22,1,2026-01-20_16h50.51.424,MST_task,2024.2.0,60.32694793,2026-01-20 16h51.05.601553 +0530
,Scenes\153a.jpg,143,0,144,,,,,,,None,,,j,0.0978602,None,,,,144,0,143,922.7643126,,,,,,,,,,,,,,,,,,,,,,,922.7483324,922.7643126,923.2648481,923.2485992,,,,,,,,,,,,,,,,,,,,,,,,,,923.260305,923.2648481,923.2648481,923.2648481,926.2491561,None,,,926.2493223,926.3665664,j,926.2642551,926.2642551,926.2642551,926.2642551,926.2642551,0.0978602,None,,,,,22,1,2026-01-20_16h50.51.424,MST_task,2024.2.0,60.32694793,2026-01-20 16h51.05.601553 +0530
,Scenes\151a.jpg,144,0,145,,,,,,,j,2.9034157,None,None,,,,,,145,0,144,926.3808299,,,,,,,,,,,,,,,,,,,,,,,926.3670176,926.3808299,926.8816105,926.8652229,,,,,,,,,,,,,,,,,,,,,,,,,,926.8744486,926.8816105,926.8816105,926.8816105,929.8657329,j,2.9034157,None,929.8659621,929.8660294,None,929.8809079,929.8809079,929.8809079,,,,,,,,,22,1,2026-01-20_16h50.51.424,MST_task,2024.2.0,60.32694793,2026-01-20 16h51.05.601553 +0530
,Scenes\103a.jpg,145,0,146,,,,,,,None,,,j,0.3709041,None,,,,146,0,145,929.8809079,,,,,,,,,,,,,,,,,,,,,,,929.8663507,929.8809079,930.3842368,930.3651513,,,,,,,,,,,,,,,,,,,,,,,,,,930.3799229,930.3842368,930.3842368,930.3842368,933.3813682,None,,,933.3815225,933.7826343,j,,,,933.3984805,933.3984805,0.3709041,None,,,,,22,1,2026-01-20_16h50.51.424,MST_task,2024.2.0,60.32694793,2026-01-20 16h51.05.601553 +0530
,Scenes\046a.jpg,146,0,147,,,,,,,j,2.402826,0.1592385,None,,,,,,147,0,146,933.7975666,,,,,,,,,,,,,,,,,,,,,,,933.7831583,933.7975666,934.3032105,934.2819194,,,,,,,,,,,,,,,,,,,,,,,,,,934.2991556,934.3032105,934.3032105,934.3032105,937.2985779,j,2.402826,0.1592385,937.2987885,937.2988644,None,,,,,,,,,,,,22,1,2026-01-20_16h50.51.424,MST_task,2024.2.0,60.32694793,2026-01-20 16h51.05.601553 +0530
,Objects\185a.jpg,147,0,148,,,,,,,f,2.5900653,0.1676675,None,,,,,,148,0,147,937.3145853,,,,,,,,,,,,,,,,,,,,,,,937.2992615,937.3145853,937.8352759,937.7990195,,,,,,,,,,,,,,,,,,,,,,,,,,937.8310895,937.8352759,937.8352759,937.8352759,940.8146533,f,2.5900653,0.1676675,940.8148601,940.8149462,None,,,,,,,,,,,,22,1,2026-01-20_16h50.51.424,MST_task,2024.2.0,60.32694793,2026-01-20 16h51.05.601553 +0530
,Objects\151a.jpg,148,0,149,,,,,,,f,2.5659294,0.1679373,None,,,,,,149,0,148,940.8308653,,,,,,,,,,,,,,,,,,,,,,,940.8153427,940.8308653,941.3315512,941.3152211,,,,,,,,,,,,,,,,,,,,,,,,,,941.3208439,941.3315512,941.3315512,941.3315512,944.315876,f,2.5659294,0.1679373,944.3160162,944.3160549,None,944.3308817,944.3308817,944.3308817,,,,,,,,,22,1,2026-01-20_16h50.51.424,MST_task,2024.2.0,60.32694793,2026-01-20 16h51.05.601553 +0530
,Objects\133a.jpg,149,0,150,,,,,,,None,,,j,0.290796,None,,,,150,0,149,944.3308817,,,,,,,,,,,,,,,,,,,,,,,944.316243,944.3308817,944.8312847,944.8153597,,,,,,,,,,,,,,,,,,,,,,,,,,944.8207981,944.8312847,944.8312847,944.8312847,947.8159861,None,,,947.816167,948.1329891,j,947.8309409,947.8309409,947.8309409,947.8309409,947.8309409,0.290796,None,,,,,22,1,2026-01-20_16h50.51.424,MST_task,2024.2.0,60.32694793,2026-01-20 16h51.05.601553 +0530
,Objects\167a.jpg,150,0,151,,,,,,,f,2.1374288,0.1609776,None,,,,,,151,0,150,948.1474981,,,,,,,,,,,,,,,,,,,,,,,948.1333353,948.1474981,948.6479207,948.6321945,,,,,,,,,,,,,,,,,,,,,,,,,,948.6383087,948.6479207,948.6479207,948.6479207,951.6329209,f,2.1374288,0.1609776,951.63307,951.6331134,None,951.6475295,951.6475295,951.6475295,,,,,,,,,22,1,2026-01-20_16h50.51.424,MST_task,2024.2.0,60.32694793,2026-01-20 16h51.05.601553 +0530
,Objects\182a.jpg,151,0,152,,,,,,,f,2.3330147,0.1599436,None,,,,,,152,0,151,951.6475295,,,,,,,,,,,,,,,,,,,,,,,951.6333098,951.6475295,952.1477238,952.1323752,,,,,,,,,,,,,,,,,,,,,,,,,,952.1415476,952.1477238,952.1477238,952.1477238,955.1323833,f,2.3330147,0.1599436,955.1325895,955.1326477,None,955.1475396,955.1475396,955.1475396,,,,,,,,,22,1,2026-01-20_16h50.51.424,MST_task,2024.2.0,60.32694793,2026-01-20 16h51.05.601553 +0530
,Objects\179a.jpg,152,0,153,,,,,,,None,,,f,1.4741199,None,,,,153,0,152,955.1475396,,,,,,,,,,,,,,,,,,,,,,,955.1329215,955.1475396,955.6478336,955.6324465,,,,,,,,,,,,,,,,,,,,,,,,,,955.6400195,955.6478336,955.6478336,955.6478336,958.6323693,None,,,958.6325055,960.1336971,f,958.6478709,958.6478709,958.6478709,958.6478709,958.6478709,1.4741199,None,,,,,22,1,2026-01-20_16h50.51.424,MST_task,2024.2.0,60.32694793,2026-01-20 16h51.05.601553 +0530
,Objects\171a.jpg,153,0,154,,,,,,,None,,,f,0.3371136,None,,,,154,0,153,960.1476597,,,,,,,,,,,,,,,,,,,,,,,960.1341022,960.1476597,960.6477726,960.6320777,,,,,,,,,,,,,,,,,,,,,,,,,,960.638322,960.6477726,960.6477726,960.6477726,963.6326461,None,,,963.6328045,963.9993286,f,963.6476505,963.6476505,963.6476505,963.6476505,963.6476505,0.3371136,None,,,,,22,1,2026-01-20_16h50.51.424,MST_task,2024.2.0,60.32694793,2026-01-20 16h51.05.601553 +0530
,Scenes\060a.jpg,154,0,155,,,,,,,None,,,j,0.2943718,None,,,,155,0,154,964.0141101,,,,,,,,,,,,,,,,,,,,,,,963.9996742,964.0141101,964.6054693,964.4989798,,,,,,,,,,,,,,,,,,,,,,,,,,964.6013254,964.6054693,964.6054693,964.6054693,967.5147351,None,,,967.5149153,967.8333324,j,,,,967.5314959,967.5314959,0.2943718,None,,,,,22,1,2026-01-20_16h50.51.424,MST_task,2024.2.0,60.32694793,2026-01-20 16h51.05.601553 +0530
,Scenes\079a.jpg,155,0,156,,,,,,,None,,,j,1.2383039,None,,,,156,0,155,967.8475427,,,,,,,,,,,,,,,,,,,,,,,967.8337572,967.8475427,968.3481758,968.3321502,,,,,,,,,,,,,,,,,,,,,,,,,,968.3411577,968.3481758,968.3481758,968.3481758,971.3328004,None,,,971.3329896,972.5995392,j,971.347651,971.347651,971.347651,971.347651,971.347651,1.2383039,None,,,,,22,1,2026-01-20_16h50.51.424,MST_task,2024.2.0,60.32694793,2026-01-20 16h51.05.601553 +0530
,Scenes\149a.jpg,156,0,157,,,,,,,None,,,j,0.3186722,None,,,,157,0,156,972.6142838,,,,,,,,,,,,,,,,,,,,,,,972.5999001,972.6142838,973.1203971,973.0989963,,,,,,,,,,,,,,,,,,,,,,,,,,973.1173963,973.1203971,973.1203971,973.1203971,976.1147974,None,,,976.1149697,976.4667904,j,,,,976.1307332,976.1307332,0.3186722,None,,,,,22,1,2026-01-20_16h50.51.424,MST_task,2024.2.0,60.32694793,2026-01-20 16h51.05.601553 +0530
,Scenes\116a.jpg,157,0,158,,,,,,,None,,,j,0.1250779,None,,,,158,0,157,976.4808754,,,,,,,,,,,,,,,,,,,,,,,976.467186,976.4808754,976.9817128,976.965231,,,,,,,,,,,,,,,,,,,,,,,,,,976.9752549,976.9817128,976.9817128,976.9817128,979.9662164,None,,,979.9664189,980.1160358,j,979.980794,979.980794,979.980794,979.980794,979.980794,0.1250779,None,,,,,22,1,2026-01-20_16h50.51.424,MST_task,2024.2.0,60.32694793,2026-01-20 16h51.05.601553 +0530
,Scenes\080a.jpg,158,0,159,,,,,,,None,,,j,0.2190176,None,,,,159,0,158,980.1317621,,,,,,,,,,,,,,,,,,,,,,,980.116543,980.1317621,980.6316512,980.6153982,,,,,,,,,,,,,,,,,,,,,,,,,,980.6273789,980.6316512,980.6316512,980.6316512,983.6162858,None,,,983.6164702,983.866272,j,983.6308193,983.6308193,983.6308193,983.6308193,983.6308193,0.2190176,None,,,,,22,1,2026-01-20_16h50.51.424,MST_task,2024.2.0,60.32694793,2026-01-20 16h51.05.601553 +0530
,Scenes\127a.jpg,159,0,160,,,,,,,j,2.7785202,0.1188771,None,,,,,,160,0,159,983.8811207,,,,,,,,,,,,,,,,,,,,,,,983.8666129,983.8811207,984.3834092,984.3656365,,,,,,,,,,,,,,,,,,,,,,,,,,984.3791157,984.3834092,984.3834092,984.3834092,987.3817856,j,2.7785202,0.1188771,987.3819303,987.3819706,None,,,,,,,,,,,,22,1,2026-01-20_16h50.51.424,MST_task,2024.2.0,60.32694793,2026-01-20 16h51.05.601553 +0530
,Scenes\169a.jpg,160,0,161,,,,,,,None,,,j,1.0556956,None,,,,161,0,160,987.3975722,,,,,,,,,,,,,,,,,,,,,,,987.3822209,987.3975722,987.898189,987.8822596,,,,,,,,,,,,,,,,,,,,,,,,,,987.891938,987.898189,987.898189,987.898189,990.882587,None,,,990.8827037,991.9659871,j,990.8975217,990.8975217,990.8975217,990.8975217,990.8975217,1.0556956,None,,,,,22,1,2026-01-20_16h50.51.424,MST_task,2024.2.0,60.32694793,2026-01-20 16h51.05.601553 +0530
,Objects\146a.jpg,161,0,162,,,,,,,None,,,f,0.3846007,None,,,,162,0,161,991.9807217,,,,,,,,,,,,,,,,,,,,,,,991.966345,991.9807217,992.4819019,992.4650659,,,,,,,,,,,,,,,,,,,,,,,,,,992.4741196,992.4819019,992.4819019,992.4819019,995.4658393,None,,,995.4660256,995.8827295,f,995.4812075,995.4812075,995.4812075,995.4812075,995.4812075,0.3846007,None,,,,,22,1,2026-01-20_16h50.51.424,MST_task,2024.2.0,60.32694793,2026-01-20 16h51.05.601553 +0530
,Objects\116a.jpg,162,0,163,,,,,,,None,,,j,0.3555619,None,,,,163,0,162,995.8978922,,,,,,,,,,,,,,,,,,,,,,,995.8831033,995.8978922,996.3979494,996.382053,,,,,,,,,,,,,,,,,,,,,,,,,,996.3875404,996.3979494,996.3979494,996.3979494,999.3825816,None,,,999.3827887,999.7661661,j,999.3975025,999.3975025,999.3975025,999.3975025,999.3975025,0.3555619,None,,,,,22,1,2026-01-20_16h50.51.424,MST_task,2024.2.0,60.32694793,2026-01-20 16h51.05.601553 +0530
,Objects\169a.jpg,163,0,164,,,,,,,None,,,j,0.2879015,None,,,,164,0,163,999.780895,,,,,,,,,,,,,,,,,,,,,,,999.7669907,999.780895,1000.281049,1000.265439,,,,,,,,,,,,,,,,,,,,,,,,,,1000.270782,1000.281049,1000.281049,1000.281049,1003.266096,None,,,1003.266303,1003.582834,j,1003.280958,1003.280958,1003.280958,1003.280958,1003.280958,0.2879015,None,,,,,22,1,2026-01-20_16h50.51.424,MST_task,2024.2.0,60.32694793,2026-01-20 16h51.05.601553 +0530
,Objects\090a.jpg,164,0,165,,,,,,,None,,,j,0.3925981,None,,,,165,0,164,1003.597562,,,,,,,,,,,,,,,,,,,,,,,1003.58318,1003.597562,1004.098315,1004.081953,,,,,,,,,,,,,,,,,,,,,,,,,,1004.088358,1004.098315,1004.098315,1004.098315,1007.082505,None,,,1007.082625,1007.499362,j,1007.097494,1007.097494,1007.097494,1007.097494,1007.097494,0.3925981,None,,,,,22,1,2026-01-20_16h50.51.424,MST_task,2024.2.0,60.32694793,2026-01-20 16h51.05.601553 +0530
,Objects\101a.jpg,165,0,166,,,,,,,None,,,j,0.3323101,None,,,,166,0,165,1007.514291,,,,,,,,,,,,,,,,,,,,,,,1007.499757,1007.514291,1008.014688,1007.998615,,,,,,,,,,,,,,,,,,,,,,,,,,1008.005164,1008.014688,1008.014688,1008.014688,1010.999624,None,,,1010.999834,1011.349862,j,1011.014316,1011.014316,1011.014316,1011.014316,1011.014316,0.3323101,None,,,,,22,1,2026-01-20_16h50.51.424,MST_task,2024.2.0,60.32694793,2026-01-20 16h51.05.601553 +0530
,Objects\019a.jpg,166,0,167,,,,,,,None,,,f,0.3848762,None,,,,167,0,166,1011.364214,,,,,,,,,,,,,,,,,,,,,,,1011.350098,1011.364214,1011.864383,1011.848959,,,,,,,,,,,,,,,,,,,,,,,,,,1011.854913,1011.864383,1011.864383,1011.864383,1014.848973,None,,,1014.849129,1015.265935,f,1014.864581,1014.864581,1014.864581,1014.864581,1014.864581,0.3848762,None,,,,,22,1,2026-01-20_16h50.51.424,MST_task,2024.2.0,60.32694793,2026-01-20 16h51.05.601553 +0530
,Objects\034a.jpg,167,0,168,,,,,,,None,,,f,0.5249563,None,,,,168,0,167,1015.280882,,,,,,,,,,,,,,,,,,,,,,,1015.266317,1015.280882,1015.781064,1015.765531,,,,,,,,,,,,,,,,,,,,,,,,,,1015.774193,1015.781064,1015.781064,1015.781064,1018.766009,None,,,1018.766212,1019.316079,f,1018.781088,1018.781088,1018.781088,1018.781088,1018.781088,0.5249563,None,,,,,22,1,2026-01-20_16h50.51.424,MST_task,2024.2.0,60.32694793,2026-01-20 16h51.05.601553 +0530
,Scenes\191a.jpg,168,0,169,,,,,,,None,,,j,0.4902746,None,,,,169,0,168,1019.330895,,,,,,,,,,,,,,,,,,,,,,,1019.316475,1019.330895,1019.831367,1019.815428,,,,,,,,,,,,,,,,,,,,,,,,,,1019.827883,1019.831367,1019.831367,1019.831367,1022.816447,None,,,1022.816643,1023.332762,j,1022.830836,1022.830836,1022.830836,1022.830836,1022.830836,0.4902746,None,,,,,22,1,2026-01-20_16h50.51.424,MST_task,2024.2.0,60.32694793,2026-01-20 16h51.05.601553 +0530
,Scenes\138a.jpg,169,0,170,,,,,,,None,,,j,1.2092442,None,,,,170,0,169,1023.347491,,,,,,,,,,,,,,,,,,,,,,,1023.333155,1023.347491,1023.849269,1023.831898,,,,,,,,,,,,,,,,,,,,,,,,,,1023.845832,1023.849269,1023.849269,1023.849269,1026.848074,None,,,1026.848196,1028.082503,j,,,,1026.864256,1026.864256,1.2092442,None,,,,,22,1,2026-01-20_16h50.51.424,MST_task,2024.2.0,60.32694793,2026-01-20 16h51.05.601553 +0530
,Scenes\023a.jpg,170,0,171,,,,,,,None,,,f,0.6035936,None,,,,171,0,170,1028.097541,,,,,,,,,,,,,,,,,,,,,,,1028.082899,1028.097541,1028.604095,1028.581674,,,,,,,,,,,,,,,,,,,,,,,,,,1028.600711,1028.604095,1028.604095,1028.604095,1031.597906,None,,,1031.598097,1032.233086,f,,,,1031.614127,1031.614127,0.6035936,None,,,,,22,1,2026-01-20_16h50.51.424,MST_task,2024.2.0,60.32694793,2026-01-20 16h51.05.601553 +0530
,Scenes\171a.jpg,171,0,172,,,,,,,None,,,f,0.0848277,None,,,,172,0,171,1032.24781,,,,,,,,,,,,,,,,,,,,,,,1032.233391,1032.24781,1032.752637,1032.731823,,,,,,,,,,,,,,,,,,,,,,,,,,1032.747643,1032.752637,1032.752637,1032.752637,1035.748206,None,,,1035.748315,1035.865925,f,,,,1035.764425,1035.764425,0.0848277,None,,,,,22,1,2026-01-20_16h50.51.424,MST_task,2024.2.0,60.32694793,2026-01-20 16h51.05.601553 +0530
,Scenes\093a.jpg,172,0,173,,,,,,,None,,,f,0.2909846,None,,,,173,0,172,1035.88059,,,,,,,,,,,,,,,,,,,,,,,1035.866247,1035.88059,1036.388992,1036.366132,,,,,,,,,,,,,,,,,,,,,,,,,,1036.384841,1036.388992,1036.388992,1036.388992,1039.381275,None,,,1039.381394,1039.699576,f,,,,1039.397755,1039.397755,0.2909846,None,,,,,22,1,2026-01-20_16h50.51.424,MST_task,2024.2.0,60.32694793,2026-01-20 16h51.05.601553 +0530
,Scenes\180a.jpg,173,0,174,,,,,,,None,,,j,0.3457265,None,,,,174,0,173,1039.714235,,,,,,,,,,,,,,,,,,,,,,,1039.700013,1039.714235,1040.246998,1040.198615,,,,,,,,,,,,,,,,,,,,,,,,,,1040.243918,1040.246998,1040.246998,1040.246998,1043.214732,None,,,1043.214931,1043.582864,j,,,,1043.231122,1043.231122,0.3457265,None,,,,,22,1,2026-01-20_16h50.51.424,MST_task,2024.2.0,60.32694793,2026-01-20 16h51.05.601553 +0530
,Scenes\006a.jpg,174,0,175,,,,,,,None,,,j,1.1202539,None,,,,175,0,174,1043.59767,,,,,,,,,,,,,,,,,,,,,,,1043.583211,1043.59767,1044.09789,1044.081735,,,,,,,,,,,,,,,,,,,,,,,,,,1044.091195,1044.09789,1044.09789,1044.09789,1047.08347,None,,,1047.083699,1048.23265,j,1047.09749,1047.09749,1047.09749,1047.09749,1047.09749,1.1202539,None,,,,,22,1,2026-01-20_16h50.51.424,MST_task,2024.2.0,60.32694793,2026-01-20 16h51.05.601553 +0530
,Objects\069a.jpg,175,0,176,,,,,,,j,2.8211579,None,None,,,,,,176,0,175,1048.247448,,,,,,,,,,,,,,,,,,,,,,,1048.232841,1048.247448,1048.748033,1048.732234,,,,,,,,,,,,,,,,,,,,,,,,,,1048.738875,1048.748033,1048.748033,1048.748033,1051.733031,j,2.8211579,None,1051.733188,1051.733254,None,1051.74762,1051.74762,1051.74762,,,,,,,,,22,1,2026-01-20_16h50.51.424,MST_task,2024.2.0,60.32694793,2026-01-20 16h51.05.601553 +0530
,Objects\190a.jpg,176,0,177,,,,,,,f,2.9209653,None,None,,,,,,177,0,176,1051.74762,,,,,,,,,,,,,,,,,,,,,,,1051.733665,1051.74762,1052.248354,1052.232041,,,,,,,,,,,,,,,,,,,,,,,,,,1052.238358,1052.248354,1052.248354,1052.248354,1055.233523,f,2.9209653,None,1055.233769,1055.23381,None,1055.247448,1055.247448,1055.247448,,,,,,,,,22,1,2026-01-20_16h50.51.424,MST_task,2024.2.0,60.32694793,2026-01-20 16h51.05.601553 +0530
,Objects\154a.jpg,177,0,178,,,,,,,f,2.4931001,0.1762024,None,,,,,,178,0,177,1055.247448,,,,,,,,,,,,,,,,,,,,,,,1055.234012,1055.247448,1055.747866,1055.732108,,,,,,,,,,,,,,,,,,,,,,,,,,1055.739397,1055.747866,1055.747866,1055.747866,1058.732499,f,2.4931001,0.1762024,1058.732741,1058.732816,None,1058.747579,1058.747579,1058.747579,,,,,,,,,22,1,2026-01-20_16h50.51.424,MST_task,2024.2.0,60.32694793,2026-01-20 16h51.05.601553 +0530
,Objects\017a.jpg,178,0,179,,,,,,,f,2.6896334,0.1273545,None,,,,,,179,0,178,1058.747579,,,,,,,,,,,,,,,,,,,,,,,1058.733189,1058.747579,1059.247837,1059.232011,,,,,,,,,,,,,,,,,,,,,,,,,,1059.237886,1059.247837,1059.247837,1059.247837,1062.232229,f,2.6896334,0.1273545,1062.23235,1062.232382,None,1062.247636,1062.247636,1062.247636,,,,,,,,,22,1,2026-01-20_16h50.51.424,MST_task,2024.2.0,60.32694793,2026-01-20 16h51.05.601553 +0530
,Objects\104a.jpg,179,0,180,,,,,,,None,,,f,0.3020133,None,,,,180,0,179,1062.247636,,,,,,,,,,,,,,,,,,,,,,,1062.232544,1062.247636,1062.747809,1062.73204,,,,,,,,,,,,,,,,,,,,,,,,,,1062.738323,1062.747809,1062.747809,1062.747809,1065.732937,None,,,1065.733136,1066.066569,f,1065.747567,1065.747567,1065.747567,1065.747567,1065.747567,0.3020133,None,,,,,22,1,2026-01-20_16h50.51.424,MST_task,2024.2.0,60.32694793,2026-01-20 16h51.05.601553 +0530
,Objects\073a.jpg,180,0,181,,,,,,,None,,,f,0.0602741,None,,,,181,0,180,1066.080956,,,,,,,,,,,,,,,,,,,,,,,1066.067,1066.080956,1066.581299,1066.565245,,,,,,,,,,,,,,,,,,,,,,,,,,1066.572602,1066.581299,1066.581299,1066.581299,1069.565929,None,,,1069.566153,1069.650376,f,1069.581299,1069.581299,1069.581299,1069.581299,1069.581299,0.0602741,None,,,,,22,1,2026-01-20_16h50.51.424,MST_task,2024.2.0,60.32694793,2026-01-20 16h51.05.601553 +0530
,Objects\007a.jpg,181,0,182,,,,,,,None,,,f,0.2767712,None,,,,182,0,181,1069.664609,,,,,,,,,,,,,,,,,,,,,,,1069.650712,1069.664609,1070.213407,1070.14863,,,,,,,,,,,,,,,,,,,,,,,,,,1070.210294,1070.213407,1070.213407,1070.213407,1073.164818,None,,,1073.165001,1073.466139,f,,,,1073.181042,1073.181042,0.2767712,None,,,,,22,1,2026-01-20_16h50.51.424,MST_task,2024.2.0,60.32694793,2026-01-20 16h51.05.601553 +0530
,Scenes\145a.jpg,182,0,183,,,,,,,None,,,j,0.2596638,None,,,,183,0,182,1073.48085,,,,,,,,,,,,,,,,,,,,,,,1073.466499,1073.48085,1073.983258,1073.965235,,,,,,,,,,,,,,,,,,,,,,,,,,1073.980176,1073.983258,1073.983258,1073.983258,1076.98137,None,,,1076.981569,1077.26583,j,,,,1076.997533,1076.997533,0.2596638,None,,,,,22,1,2026-01-20_16h50.51.424,MST_task,2024.2.0,60.32694793,2026-01-20 16h51.05.601553 +0530
,Scenes\063a.jpg,183,0,184,,,,,,,None,,,j,0.0120456,None,,,,184,0,183,1077.280646,,,,,,,,,,,,,,,,,,,,,,,1077.266197,1077.280646,1077.810989,1077.765197,,,,,,,,,,,,,,,,,,,,,,,,,,1077.807364,1077.810989,1077.810989,1077.810989,1080.781567,None,,,1080.781688,1080.815996,j,,,,1080.797701,1080.797701,0.0120456,None,,,,,22,1,2026-01-20_16h50.51.424,MST_task,2024.2.0,60.32694793,2026-01-20 16h51.05.601553 +0530
,Scenes\026a.jpg,184,0,185,,,,,,,None,,,j,1.7581057,None,,,,185,0,184,1080.830803,,,,,,,,,,,,,,,,,,,,,,,1080.816337,1080.830803,1081.33363,1081.315497,,,,,,,,,,,,,,,,,,,,,,,,,,1081.329354,1081.33363,1081.33363,1081.33363,1084.331367,None,,,1084.331491,1086.116259,j,,,,1084.347935,1084.347935,1.7581057,None,,,,,22,1,2026-01-20_16h50.51.424,MST_task,2024.2.0,60.32694793,2026-01-20 16h51.05.601553 +0530
,Scenes\186a.jpg,185,0,186,,,,,,,None,,,j,2.9865981,None,,,,186,0,185,1086.130852,,,,,,,,,,,,,,,,,,,,,,,1086.116531,1086.130852,1086.631543,1086.615402,,,,,,,,,,,,,,,,,,,,,,,,,,1086.626251,1086.631543,1086.631543,1086.631543,1089.615965,None,,,1089.616175,1092.633055,j,1089.630946,1089.630946,1089.630946,1089.630946,1089.630946,2.9865981,None,,,,,22,1,2026-01-20_16h50.51.424,MST_task,2024.2.0,60.32694793,2026-01-20 16h51.05.601553 +0530
,Scenes\088a.jpg,186,0,187,,,,,,,None,,,j,0.3571549,None,,,,187,0,186,1092.647788,,,,,,,,,,,,,,,,,,,,,,,1092.633414,1092.647788,1093.184788,1093.131863,,,,,,,,,,,,,,,,,,,,,,,,,,1093.180974,1093.184788,1093.184788,1093.184788,1096.148478,None,,,1096.148692,1096.533261,j,,,,1096.164236,1096.164236,0.3571549,None,,,,,22,1,2026-01-20_16h50.51.424,MST_task,2024.2.0,60.32694793,2026-01-20 16h51.05.601553 +0530
,Scenes\187a.jpg,187,0,188,,,,,,,None,,,j,0.5303577,None,,,,188,0,187,1096.548006,,,,,,,,,,,,,,,,,,,,,,,1096.533605,1096.548006,1097.048536,1097.031838,,,,,,,,,,,,,,,,,,,,,,,,,,1097.044352,1097.048536,1097.048536,1097.048536,1100.032565,None,,,1100.032639,1100.583172,j,1100.047447,1100.047447,1100.047447,1100.047447,1100.047447,0.5303577,None,,,,,22,1,2026-01-20_16h50.51.424,MST_task,2024.2.0,60.32694793,2026-01-20 16h51.05.601553 +0530
,Scenes\189a.jpg,188,0,189,,,,,,,j,2.8991761,None,None,,,,,,189,0,188,1100.597539,,,,,,,,,,,,,,,,,,,,,,,1100.583455,1100.597539,1101.101697,1101.081748,,,,,,,,,,,,,,,,,,,,,,,,,,1101.098159,1101.101697,1101.101697,1101.101697,1104.097818,j,2.8991761,None,1104.098031,1104.098098,None,,,,,,,,,,,,22,1,2026-01-20_16h50.51.424,MST_task,2024.2.0,60.32694793,2026-01-20 16h51.05.601553 +0530
,Objects\059a.jpg,189,0,190,,,,,,,f,2.7232378,0.1434036,None,,,,,,190,0,189,1104.114183,,,,,,,,,,,,,,,,,,,,,,,1104.098436,1104.114183,1104.614884,1104.598989,,,,,,,,,,,,,,,,,,,,,,,,,,1104.60775,1104.614884,1104.614884,1104.614884,1107.598601,f,2.7232378,0.1434036,1107.598808,1107.598878,None,,,,,,,,,,,,22,1,2026-01-20_16h50.51.424,MST_task,2024.2.0,60.32694793,2026-01-20 16h51.05.601553 +0530
,Objects\150a.jpg,190,0,191,,,,,,,f,2.3989394,0.1359488,None,,,,,,191,0,190,1107.614589,,,,,,,,,,,,,,,,,,,,,,,1107.599272,1107.614589,1108.114549,1108.098698,,,,,,,,,,,,,,,,,,,,,,,,,,1108.106521,1108.114549,1108.114549,1108.114549,1111.099454,f,2.3989394,0.1359488,1111.099693,1111.099757,None,1111.114277,1111.114277,1111.114277,,,,,,,,,22,1,2026-01-20_16h50.51.424,MST_task,2024.2.0,60.32694793,2026-01-20 16h51.05.601553 +0530
,Objects\135a.jpg,191,0,192,,,,,,,f,2.4500562,0.1365482,None,,,,,,192,0,191,1111.114277,,,,,,,,,,,,,,,,,,,,,,,1111.100116,1111.114277,1111.614648,1111.598657,,,,,,,,,,,,,,,,,,,,,,,,,,1111.607048,1111.614648,1111.614648,1111.614648,1114.599113,f,2.4500562,0.1365482,1114.599306,1114.599343,None,1114.614271,1114.614271,1114.614271,,,,,,,,,22,1,2026-01-20_16h50.51.424,MST_task,2024.2.0,60.32694793,2026-01-20 16h51.05.601553 +0530
,Objects\131a.jpg,192,0,193,,,,,,,None,,,f,0.2541703,None,,,,193,0,192,1114.614271,,,,,,,,,,,,,,,,,,,,,,,1114.599591,1114.614271,1115.114648,1115.098549,,,,,,,,,,,,,,,,,,,,,,,,,,1115.107478,1115.114648,1115.114648,1115.114648,1118.099308,None,,,1118.099425,1118.383702,f,1118.114586,1118.114586,1118.114586,1118.114586,1118.114586,0.2541703,None,,,,,22,1,2026-01-20_16h50.51.424,MST_task,2024.2.0,60.32694793,2026-01-20 16h51.05.601553 +0530
,Objects\006a.jpg,193,0,194,,,,,,,None,,,f,0.559746,None,,,,194,0,193,1118.397526,,,,,,,,,,,,,,,,,,,,,,,1118.383952,1118.397526,1118.966742,1118.882093,,,,,,,,,,,,,,,,,,,,,,,,,,1118.962942,1118.966742,1118.966742,1118.966742,1121.897937,None,,,1121.898091,1122.482883,f,,,,1121.914333,1121.914333,0.559746,None,,,,,22,1,2026-01-20_16h50.51.424,MST_task,2024.2.0,60.32694793,2026-01-20 16h51.05.601553 +0530
,Objects\041a.jpg,194,0,195,,,,,,,None,,,j,0.2040578,None,,,,195,0,194,1122.497566,,,,,,,,,,,,,,,,,,,,,,,1122.483263,1122.497566,1122.998142,1122.982087,,,,,,,,,,,,,,,,,,,,,,,,,,1122.991013,1122.998142,1122.998142,1122.998142,1125.982714,None,,,1125.982931,1126.216391,j,1125.997699,1125.997699,1125.997699,1125.997699,1125.997699,0.2040578,None,,,,,22,1,2026-01-20_16h50.51.424,MST_task,2024.2.0,60.32694793,2026-01-20 16h51.05.601553 +0530
,Objects\114a.jpg,195,0,196,,,,,,,f,1.8693904,0.1926988,None,,,,,,196,0,195,1126.230971,,,,,,,,,,,,,,,,,,,,,,,1126.21679,1126.230971,1126.731591,1126.715496,,,,,,,,,,,,,,,,,,,,,,,,,,1126.721099,1126.731591,1126.731591,1126.731591,1129.71602,f,1.8693904,0.1926988,1129.716196,1129.716234,None,1129.730892,1129.730892,1129.730892,,,,,,,,,22,1,2026-01-20_16h50.51.424,MST_task,2024.2.0,60.32694793,2026-01-20 16h51.05.601553 +0530
,Scenes\182a.jpg,196,0,197,,,,,,,j,2.1488157,0.1443064,None,,,,,,197,0,196,1129.730892,,,,,,,,,,,,,,,,,,,,,,,1129.71641,1129.730892,1130.236535,1130.215931,,,,,,,,,,,,,,,,,,,,,,,,,,1130.233091,1130.236535,1130.236535,1130.236535,1133.232057,j,2.1488157,0.1443064,1133.232235,1133.232278,None,,,,,,,,,,,,22,1,2026-01-20_16h50.51.424,MST_task,2024.2.0,60.32694793,2026-01-20 16h51.05.601553 +0530
,Scenes\034a.jpg,197,0,198,,,,,,,None,,,j,0.3569937,None,,,,198,0,197,1133.24749,,,,,,,,,,,,,,,,,,,,,,,1133.232515,1133.24749,1133.753439,1133.732415,,,,,,,,,,,,,,,,,,,,,,,,,,1133.750323,1133.753439,1133.753439,1133.753439,1136.74854,None,,,1136.748664,1137.132466,j,,,,1136.764669,1136.764669,0.3569937,None,,,,,22,1,2026-01-20_16h50.51.424,MST_task,2024.2.0,60.32694793,2026-01-20 16h51.05.601553 +0530
,Scenes\078a.jpg,198,0,199,,,,,,,None,,,j,0.3205907,None,,,,199,0,198,1137.147403,,,,,,,,,,,,,,,,,,,,,,,1137.132825,1137.147403,1137.649793,1137.631785,,,,,,,,,,,,,,,,,,,,,,,,,,1137.644732,1137.649793,1137.649793,1137.649793,1140.648135,None,,,1140.648254,1140.99918,j,,,,1140.664687,1140.664687,0.3205907,None,,,,,22,1,2026-01-20_16h50.51.424,MST_task,2024.2.0,60.32694793,2026-01-20 16h51.05.601553 +0530
,Scenes\062a.jpg,199,0,200,,,,,,,None,,,j,0.6947548,None,,,,200,0,199,1141.014365,,,,,,,,,,,,,,,,,,,,,,,1140.999419,1141.014365,1141.518865,1141.498482,,,,,,,,,,,,,,,,,,,,,,,,,,1141.515592,1141.518865,1141.518865,1141.518865,1144.514592,None,,,1144.514735,1145.23299,j,,,,1144.530805,1144.530805,0.6947548,None,,,,,22,1,2026-01-20_16h50.51.424,MST_task,2024.2.0,60.32694793,2026-01-20 16h51.05.601553 +0530
,Scenes\161a.jpg,200,0,201,,,,,,,None,,,j,0.4841192,None,,,,201,0,200,1145.248091,,,,,,,,,,,,,,,,,,,,,,,1145.233406,1145.248091,1145.749188,1145.732144,,,,,,,,,,,,,,,,,,,,,,,,,,1145.745944,1145.749188,1145.749188,1145.749188,1148.747893,None,,,1148.748047,1149.266325,j,,,,1148.764503,1148.764503,0.4841192,None,,,,,22,1,2026-01-20_16h50.51.424,MST_task,2024.2.0,60.32694793,2026-01-20 16h51.05.601553 +0530
,Scenes\117a.jpg,201,0,202,,,,,,,None,,,j,0.548527,None,,,,202,0,201,1149.280961,,,,,,,,,,,,,,,,,,,,,,,1149.266745,1149.280961,1149.781578,1149.765164,,,,,,,,,,,,,,,,,,,,,,,,,,1149.777352,1149.781578,1149.781578,1149.781578,1152.766178,None,,,1152.766384,1153.333089,j,1152.78104,1152.78104,1152.78104,1152.78104,1152.78104,0.548527,None,,,,,22,1,2026-01-20_16h50.51.424,MST_task,2024.2.0,60.32694793,2026-01-20 16h51.05.601553 +0530
,Scenes\089a.jpg,202,0,203,,,,,,,None,,,j,1.2015694,None,,,,203,0,202,1153.347696,,,,,,,,,,,,,,,,,,,,,,,1153.333523,1153.347696,1153.857349,1153.832614,,,,,,,,,,,,,,,,,,,,,,,,,,1153.852444,1153.857349,1153.857349,1153.857349,1156.848923,None,,,1156.849099,1158.084356,j,,,,1156.864144,1156.864144,1.2015694,None,,,,,22,1,2026-01-20_16h50.51.424,MST_task,2024.2.0,60.32694793,2026-01-20 16h51.05.601553 +0530
,Objects\023a.jpg,203,0,204,,,,,,,None,,,f,1.699932,None,,,,204,0,203,1158.097701,,,,,,,,,,,,,,,,,,,,,,,1158.084665,1158.097701,1158.598017,1158.58243,,,,,,,,,,,,,,,,,,,,,,,,,,1158.589339,1158.598017,1158.598017,1158.598017,1161.582289,None,,,1161.582406,1163.299793,f,1161.597471,1161.597471,1161.597471,1161.597471,1161.597471,1.699932,None,,,,,22,1,2026-01-20_16h50.51.424,MST_task,2024.2.0,60.32694793,2026-01-20 16h51.05.601553 +0530
,Objects\039a.jpg,204,0,205,,,,,,,None,,,j,0.562618,None,,,,205,0,204,1163.314589,,,,,,,,,,,,,,,,,,,,,,,1163.300104,1163.314589,1163.815299,1163.799047,,,,,,,,,,,,,,,,,,,,,,,,,,1163.805179,1163.815299,1163.815299,1163.815299,1166.814441,None,,,1166.814576,1167.400102,j,,,,1166.831002,1166.831002,0.562618,None,,,,,22,1,2026-01-20_16h50.51.424,MST_task,2024.2.0,60.32694793,2026-01-20 16h51.05.601553 +0530
,Objects\067a.jpg,205,0,206,,,,,,,None,,,f,0.9018554,None,,,,206,0,205,1167.415342,,,,,,,,,,,,,,,,,,,,,,,1167.400632,1167.415342,,1167.914611,,,,,,,,,,,,,,,,,,,,,,,,,,1167.956996,1167.960083,1167.960083,1167.960083,1170.915111,None,,,1170.915316,1171.84969,f,,,,1170.930901,1170.930901,0.9018554,None,,,,,22,1,2026-01-20_16h50.51.424,MST_task,2024.2.0,60.32694793,2026-01-20 16h51.05.601553 +0530
,Objects\142a.jpg,206,0,207,,,,,,,None,,,f,0.3164104,None,,,,207,0,206,1171.864284,,,,,,,,,,,,,,,,,,,,,,,1171.85003,1171.864284,1172.364333,1172.348528,,,,,,,,,,,,,,,,,,,,,,,,,,1172.354029,1172.364333,1172.364333,1172.364333,1175.349123,None,,,1175.349247,1175.683417,f,1175.364889,1175.364889,1175.364889,1175.364889,1175.364889,0.3164104,None,,,,,22,1,2026-01-20_16h50.51.424,MST_task,2024.2.0,60.32694793,2026-01-20 16h51.05.601553 +0530
,Objects\057a.jpg,207,0,208,,,,,,,f,2.5711958,0.1530195,None,,,,,,208,0,207,1175.697837,,,,,,,,,,,,,,,,,,,,,,,1175.683794,1175.697837,1176.19792,1176.181882,,,,,,,,,,,,,,,,,,,,,,,,,,1176.187688,1176.19792,1176.19792,1176.19792,1179.182827,f,2.5711958,0.1530195,1179.183054,1179.183121,None,1179.197597,1179.197597,1179.197597,,,,,,,,,22,1,2026-01-20_16h50.51.424,MST_task,2024.2.0,60.32694793,2026-01-20 16h51.05.601553 +0530
,Objects\110a.jpg,208,0,209,,,,,,,None,,,f,0.3283327,None,,,,209,0,208,1179.197597,,,,,,,,,,,,,,,,,,,,,,,1179.183404,1179.197597,1179.697783,1179.682103,,,,,,,,,,,,,,,,,,,,,,,,,,1179.689769,1179.697783,1179.697783,1179.697783,1182.682754,None,,,1182.682926,1183.032979,f,1182.697419,1182.697419,1182.697419,1182.697419,1182.697419,0.3283327,None,,,,,22,1,2026-01-20_16h50.51.424,MST_task,2024.2.0,60.32694793,2026-01-20 16h51.05.601553 +0530
,Objects\092a.jpg,209,0,210,,,,,,,None,,,f,0.7020417,None,,,,210,0,209,1183.047565,,,,,,,,,,,,,,,,,,,,,,,1183.033293,1183.047565,1183.547563,1183.531996,,,,,,,,,,,,,,,,,,,,,,,,,,1183.538089,1183.547563,1183.547563,1183.547563,1186.532635,None,,,1186.532807,1187.265998,f,1186.547646,1186.547646,1186.547646,1186.547646,1186.547646,0.7020417,None,,,,,22,1,2026-01-20_16h50.51.424,MST_task,2024.2.0,60.32694793,2026-01-20 16h51.05.601553 +0530
,Scenes\118a.jpg,210,0,211,,,,,,,j,2.8115532,0.1440725,None,,,,,,211,0,210,1187.281001,,,,,,,,,,,,,,,,,,,,,,,1187.266419,1187.281001,1187.781612,1187.766001,,,,,,,,,,,,,,,,,,,,,,,,,,1187.775945,1187.781612,1187.781612,1187.781612,1190.765789,j,2.8115532,0.1440725,1190.765906,1190.765936,None,1190.780971,1190.780971,1190.780971,,,,,,,,,22,1,2026-01-20_16h50.51.424,MST_task,2024.2.0,60.32694793,2026-01-20 16h51.05.601553 +0530
,Scenes\119a.jpg,211,0,212,,,,,,,j,2.5078322,0.1692317,None,,,,,,212,0,211,1190.780971,,,,,,,,,,,,,,,,,,,,,,,1190.766127,1190.780971,1191.285006,1191.265343,,,,,,,,,,,,,,,,,,,,,,,,,,1191.28087,1191.285006,1191.285006,1191.285006,1194.281342,j,2.5078322,0.1692317,1194.281524,1194.281571,None,,,,,,,,,,,,22,1,2026-01-20_16h50.51.424,MST_task,2024.2.0,60.32694793,2026-01-20 16h51.05.601553 +0530
,Scenes\111a.jpg,212,0,213,,,,,,,j,2.2742527,0.151283,None,,,,,,213,0,212,1194.298019,,,,,,,,,,,,,,,,,,,,,,,1194.281858,1194.298019,1194.798996,1194.782107,,,,,,,,,,,,,,,,,,,,,,,,,,1194.795021,1194.798996,1194.798996,1194.798996,1197.782887,j,2.2742527,0.151283,1197.783074,1197.783125,None,1197.797863,1197.797863,1197.797863,,,,,,,,,22,1,2026-01-20_16h50.51.424,MST_task,2024.2.0,60.32694793,2026-01-20 16h51.05.601553 +0530
,Scenes\128a.jpg,213,0,214,,,,,,,j,2.2539876,0.1438915,None,,,,,,214,0,213,1197.797863,,,,,,,,,,,,,,,,,,,,,,,1197.783316,1197.797863,1198.30776,1198.283131,,,,,,,,,,,,,,,,,,,,,,,,,,1198.30428,1198.30776,1198.30776,1198.30776,1201.297897,j,2.2539876,0.1438915,1201.298073,1201.298124,None,,,,,,,,,,,,22,1,2026-01-20_16h50.51.424,MST_task,2024.2.0,60.32694793,2026-01-20 16h51.05.601553 +0530
,Scenes\075a.jpg,214,0,215,,,,,,,None,,,j,0.1053248,None,,,,215,0,214,1201.314152,,,,,,,,,,,,,,,,,,,,,,,1201.298336,1201.314152,1201.816073,1201.798862,,,,,,,,,,,,,,,,,,,,,,,,,,1201.812289,1201.816073,1201.816073,1201.816073,1204.814532,None,,,1204.814647,1204.949674,j,,,,1204.831759,1204.831759,0.1053248,None,,,,,22,1,2026-01-20_16h50.51.424,MST_task,2024.2.0,60.32694793,2026-01-20 16h51.05.601553 +0530
,Scenes\007a.jpg,215,0,216,,,,,,,None,,,f,2.0008382,None,,,,216,0,215,1204.964328,,,,,,,,,,,,,,,,,,,,,,,1204.95022,1204.964328,1205.464839,1205.448299,,,,,,,,,,,,,,,,,,,,,,,,,,1205.460222,1205.464839,1205.464839,1205.464839,1208.449877,None,,,1208.450081,1210.482634,f,1208.464586,1208.464586,1208.464586,1208.464586,1208.464586,2.0008382,None,,,,,22,1,2026-01-20_16h50.51.424,MST_task,2024.2.0,60.32694793,2026-01-20 16h51.05.601553 +0530
,Scenes\163a.jpg,216,0,217,,,,,,,None,,,j,0.2993216,None,,,,217,0,216,1210.497437,,,,,,,,,,,,,,,,,,,,,,,1210.483044,1210.497437,1210.99834,1210.982068,,,,,,,,,,,,,,,,,,,,,,,,,,1210.991547,1210.99834,1210.99834,1210.99834,1213.982978,None,,,1213.98319,1214.299768,j,1213.997845,1213.997845,1213.997845,1213.997845,1213.997845,0.2993216,None,,,,,22,1,2026-01-20_16h50.51.424,MST_task,2024.2.0,60.32694793,2026-01-20 16h51.05.601553 +0530
,Objects\144a.jpg,217,0,218,,,,,,,None,,,f,0.3298601,None,,,,218,0,217,1214.314963,,,,,,,,,,,,,,,,,,,,,,,1214.300263,1214.314963,1214.816004,1214.798728,,,,,,,,,,,,,,,,,,,,,,,,,,1214.811965,1214.816004,1214.816004,1214.816004,1217.814769,None,,,1217.81496,1218.166098,f,,,,1217.830943,1217.830943,0.3298601,None,,,,,22,1,2026-01-20_16h50.51.424,MST_task,2024.2.0,60.32694793,2026-01-20 16h51.05.601553 +0530
,Objects\061a.jpg,218,0,219,,,,,,,None,,,j,1.6090477,None,,,,219,0,218,1218.181028,,,,,,,,,,,,,,,,,,,,,,,1218.166605,1218.181028,1218.681478,1218.665658,,,,,,,,,,,,,,,,,,,,,,,,,,1218.67442,1218.681478,1218.681478,1218.681478,1221.666529,None,,,1221.666731,1223.299101,j,1221.680949,1221.680949,1221.680949,1221.680949,1221.680949,1.6090477,None,,,,,22,1,2026-01-20_16h50.51.424,MST_task,2024.2.0,60.32694793,2026-01-20 16h51.05.601553 +0530
,Objects\022a.jpg,219,0,220,,,,,,,None,,,f,2.6194001,None,,,,220,0,219,1223.314296,,,,,,,,,,,,,,,,,,,,,,,1223.29962,1223.314296,1223.814767,1223.798708,,,,,,,,,,,,,,,,,,,,,,,,,,1223.806625,1223.814767,1223.814767,1223.814767,1226.799369,None,,,1226.799497,1229.449377,f,1226.814504,1226.814504,1226.814504,1226.814504,1226.814504,2.6194001,None,,,,,22,1,2026-01-20_16h50.51.424,MST_task,2024.2.0,60.32694793,2026-01-20 16h51.05.601553 +0530
,Objects\106a.jpg,220,0,221,,,,,,,None,,,f,2.269073,None,,,,221,0,220,1229.464257,,,,,,,,,,,,,,,,,,,,,,,1229.449644,1229.464257,1229.964993,1229.948559,,,,,,,,,,,,,,,,,,,,,,,,,,1229.957055,1229.964993,1229.964993,1229.964993,1232.949627,None,,,1232.949788,1235.249407,f,1232.964336,1232.964336,1232.964336,1232.964336,1232.964336,2.269073,None,,,,,22,1,2026-01-20_16h50.51.424,MST_task,2024.2.0,60.32694793,2026-01-20 16h51.05.601553 +0530
,Objects\055a.jpg,221,0,222,,,,,,,None,,,f,1.6043782,None,,,,222,0,221,1235.264381,,,,,,,,,,,,,,,,,,,,,,,1235.249829,1235.264381,1235.764479,1235.748367,,,,,,,,,,,,,,,,,,,,,,,,,,1235.756809,1235.764479,1235.764479,1235.764479,1238.748748,None,,,1238.7489,1240.383384,f,1238.76406,1238.76406,1238.76406,1238.76406,1238.76406,1.6043782,None,,,,,22,1,2026-01-20_16h50.51.424,MST_task,2024.2.0,60.32694793,2026-01-20 16h51.05.601553 +0530
