Sl_no,image_path,thisN,thisTrialN,thisRepN,key_resp_5.keys,key_resp_5.rt,key_resp_5.duration,key_resp_7.keys,key_resp_9.keys,key_resp_9.rt,key_resp_9.duration,key_resp_8.keys,practice.thisRepN,practice.thisTrialN,practice.thisN,trials.thisRepN,trials.thisTrialN,trials.thisN,thisRow.t,notes,welcome_page.started,text.started,key_resp.started,welcome_page.stopped,key_resp.keys,key_resp.rt,key_resp.duration,instructions.started,ins.started,key_resp_2.started,instructions.stopped,key_resp_2.keys,key_resp_2.rt,key_resp_2.duration,objects_only_instruction.started,text_3.started,key_resp_3.started,objects_only_instruction.stopped,key_resp_3.keys,key_resp_3.rt,key_resp_3.duration,ISI.started,text_4.started,text_4.stopped,ISI.stopped,practice_block.started,image.started,text_5.started,key_resp_5.started,image.stopped,text_5.stopped,key_resp_5.stopped,practice_block.stopped,practice.key_resp_5.keys,practice.key_resp_5.rt,practice.key_resp_5.duration,indoor_outdoor.started,indoor_outdoor.stopped,practice.key_resp_7.keys,practice_to_main.started,text_2.started,key_resp_4.started,practice_to_main.stopped,key_resp_4.keys,key_resp_4.rt,key_resp_4.duration,objects.started,image_2.started,text_9.started,key_resp_9.started,image_2.stopped,text_9.stopped,key_resp_9.stopped,objects.stopped,trials.key_resp_9.keys,trials.key_resp_9.rt,trials.key_resp_9.duration,encoding_task.started,encoding_task.stopped,trials.key_resp_8.keys,end_experiment.started,text_6.started,key_resp_6.started,end_experiment.stopped,key_resp_6.keys,key_resp_6.rt,key_resp_6.duration,list_of_stimuli,encoding_task_accuracy,participant,session,date,expName,psychopyVersion,frameRate,expStart,
,,,,,,,,,,,,,,,,,,,,,0.0012104000197723508,0.002633799973409623,0.002633799973409623,14.16818759997841,space,14.162571299995761,None,,,,,,,,,,,,,,,,,,,,,,,,,,,,,,,,,,,,,,,,,,,,,,,,,,,,,,,,,,,,,,,00026,001,2026-01-20_19h20.16.777,MST_task,2024.2.0,60.081566733583955,2026-01-20 19h20.25.464765 +0530,
,,,,,,,,,,,,,,,,,,,,,,,,,,,,14.168223300017416,14.18285109999124,14.18285109999124,39.16706210002303,space,24.981964199978393,None,,,,,,,,,,,,,,,,,,,,,,,,,,,,,,,,,,,,,,,,,,,,,,,,,,,,,,,,00026,001,2026-01-20_19h20.16.777,MST_task,2024.2.0,60.081566733583955,2026-01-20 19h20.25.464765 +0530,
,,,,,,,,,,,,,,,,,,,,,,,,,,,,,,,,,,,39.167099600017536,39.18271279998589,39.18271279998589,82.16669939999701,space,42.98177699994994,None,,,,,,,,,,,,,,,,,,,,,,,,,,,,,,,,,,,,,,,,,,,,,,,,,00026,001,2026-01-20_19h20.16.777,MST_task,2024.2.0,60.081566733583955,2026-01-20 19h20.25.464765 +0530,
3,practice_images/037a.jpg,0,0,1,f,2.2818083000020124,0.20687569997971877,None,,,,,1,0,0,,,,82.18268839997472,,,,,,,,,,,,,,,,,,,,,,,82.17114350001793,82.18268839997472,82.68371710000793,82.66645349998726,82.67277310002828,82.68371710000793,82.68371710000793,82.68371710000793,85.68269270000746,85.68269270000746,85.68269270000746,85.66660130000673,f,2.2818083000020124,0.20687569997971877,85.6682724999846,85.66829220001819,None,,,,,,,,,,,,,,,,,,,,,,,,,,,,,,,00026,001,2026-01-20_19h20.16.777,MST_task,2024.2.0,60.081566733583955,2026-01-20 19h20.25.464765 +0530,
6,practice_images/158a.jpg,1,1,1,j,0.9096366000012495,0.17600599996512756,None,,,,,1,1,1,,,,85.68269270000746,,,,,,,,,,,,,,,,,,,,,,,85.66836160002276,85.68269270000746,86.1829639999778,86.16650340001797,86.16800760000478,86.1829639999778,86.1829639999778,86.1829639999778,89.18266759999096,89.18266759999096,89.18266759999096,89.16657669999404,j,0.9096366000012495,0.17600599996512756,89.16662640002323,89.16663870000048,None,,,,,,,,,,,,,,,,,,,,,,,,,,,,,,,00026,001,2026-01-20_19h20.16.777,MST_task,2024.2.0,60.081566733583955,2026-01-20 19h20.25.464765 +0530,
7,practice_images/166a.jpg,2,2,1,f,1.4015417000046,0.1920731000136584,None,,,,,1,2,2,,,,89.18266759999096,,,,,,,,,,,,,,,,,,,,,,,89.16671149997273,89.18266759999096,89.68305420002434,89.66653380001662,89.66795849998016,89.68305420002434,89.68305420002434,89.68305420002434,92.68279310001526,92.68279310001526,92.68279310001526,92.66652650001924,f,1.4015417000046,0.1920731000136584,92.66657770000165,92.66659089998575,None,,,,,,,,,,,,,,,,,,,,,,,,,,,,,,,00026,001,2026-01-20_19h20.16.777,MST_task,2024.2.0,60.081566733583955,2026-01-20 19h20.25.464765 +0530,
1,practice_images/013a.jpg,3,3,1,j,0.990059099975042,0.2161026000394486,None,,,,,1,3,3,,,,92.68279310001526,,,,,,,,,,,,,,,,,,,,,,,92.6666538999998,92.68279310001526,93.18300710001495,93.16652590001468,93.16817820002325,93.18300710001495,93.18300710001495,93.18300710001495,96.18277120002313,96.18277120002313,96.18277120002313,96.16682899999432,j,0.990059099975042,0.2161026000394486,96.16689250001218,96.16690730000846,None,,,,,,,,,,,,,,,,,,,,,,,,,,,,,,,00026,001,2026-01-20_19h20.16.777,MST_task,2024.2.0,60.081566733583955,2026-01-20 19h20.25.464765 +0530,
4,practice_images/002b.jpg,4,4,1,f,1.562028000014834,0.1757346999947913,None,,,,,1,4,4,,,,96.18277120002313,,,,,,,,,,,,,,,,,,,,,,,96.166974199994,96.18277120002313,96.68296770000597,96.66635830001906,96.66794180002762,96.68296770000597,96.68296770000597,96.68296770000597,99.6827753999969,99.6827753999969,99.6827753999969,99.66652720002457,f,1.562028000014834,0.1757346999947913,99.6665767999948,99.66658969997661,None,,,,,,,,,,,,,,,,,,,,,,,,,,,,,,,00026,001,2026-01-20_19h20.16.777,MST_task,2024.2.0,60.081566733583955,2026-01-20 19h20.25.464765 +0530,
9,practice_images/180a.jpg,5,5,1,f,1.1659254999831319,0.1679776000091806,None,,,,,1,5,5,,,,99.6827753999969,,,,,,,,,,,,,,,,,,,,,,,99.6666520999861,99.6827753999969,100.18295679998118,100.16652540001087,100.16791850002483,100.18295679998118,100.18295679998118,100.18295679998118,103.18267100001685,103.18267100001685,103.18267100001685,103.16659229999641,f,1.1659254999831319,0.1679776000091806,103.16664559999481,103.16665789997205,None,,,,,,,,,,,,,,,,,,,,,,,,,,,,,,,00026,001,2026-01-20_19h20.16.777,MST_task,2024.2.0,60.081566733583955,2026-01-20 19h20.25.464765 +0530,
10,practice_images/182a.jpg,6,6,1,f,2.273791999963578,0.1599114999989979,None,,,,,1,6,6,,,,103.18267100001685,,,,,,,,,,,,,,,,,,,,,,,103.16672059998382,103.18267100001685,103.68294450000394,103.66651269997237,103.66803120000986,103.68294450000394,103.68294450000394,103.68294450000394,106.68267459998606,106.68267459998606,106.68267459998606,106.66658279998228,f,2.273791999963578,0.1599114999989979,106.66663910000352,106.66665299999295,None,,,,,,,,,,,,,,,,,,,,,,,,,,,,,,,00026,001,2026-01-20_19h20.16.777,MST_task,2024.2.0,60.081566733583955,2026-01-20 19h20.25.464765 +0530,
2,practice_images/031a.jpg,7,7,1,f,1.0304360000300221,0.1522910000057891,None,,,,,1,7,7,,,,106.68267459998606,,,,,,,,,,,,,,,,,,,,,,,106.66671770001994,106.68267459998606,107.1828142000013,107.16649059997872,107.16798460000427,107.1828142000013,107.1828142000013,107.1828142000013,110.18276940000942,110.18276940000942,110.18276940000942,110.16659330000402,f,1.0304360000300221,0.1522910000057891,110.16664409998339,110.16665779997129,None,,,,,,,,,,,,,,,,,,,,,,,,,,,,,,,00026,001,2026-01-20_19h20.16.777,MST_task,2024.2.0,60.081566733583955,2026-01-20 19h20.25.464765 +0530,
8,practice_images/178a.jpg,8,8,1,j,0.8022035000030883,0.15954180003609508,None,,,,,1,8,8,,,,110.18276940000942,,,,,,,,,,,,,,,,,,,,,,,110.16672059998382,110.18276940000942,110.68291670002509,110.66661319998093,110.66822910000337,110.68291670002509,110.68291670002509,110.68291670002509,113.68294789997162,113.68294789997162,113.68294789997162,113.66679980000481,j,0.8022035000030883,0.15954180003609508,113.66685109998798,113.666864000028,None,,,,,,,,,,,,,,,,,,,,,,,,,,,,,,,00026,001,2026-01-20_19h20.16.777,MST_task,2024.2.0,60.081566733583955,2026-01-20 19h20.25.464765 +0530,
5,practice_images/139a.jpg,9,9,1,j,1.3907876999583095,0.14267750002909452,None,,,,,1,9,9,,,,113.68294789997162,,,,,,,,,,,,,,,,,,,,,,,113.66692649998004,113.68294789997162,114.1830613000202,114.16656069998862,114.16804840002442,114.1830613000202,114.1830613000202,114.1830613000202,117.18301759997848,117.18301759997848,117.18301759997848,117.16663390002213,j,1.3907876999583095,0.14267750002909452,117.16668289998779,117.166695300024,None,,,,,,,,,,,,,,,,,,,,,,,,,,,,,,,00026,001,2026-01-20_19h20.16.777,MST_task,2024.2.0,60.081566733583955,2026-01-20 19h20.25.464765 +0530,
,,,,,,,,,,,,,,,,,,,,,,,,,,,,,,,,,,,,,,,,,,,,,,,,,,,,,,,,,,,,117.16673679999076,117.18301759997848,117.18301759997848,139.13350910000736,space,21.934232599975076,None,,,,,,,,,,,,,,,,,,,,,,,,00026,001,2026-01-20_19h20.16.777,MST_task,2024.2.0,60.081566733583955,2026-01-20 19h20.25.464765 +0530,
,Scenes\131a.jpg,0,0,1,,,,,j,1.1704766000038944,0.17606580001302063,None,,,,1,0,0,139.14955319999717,,,,,,,,,,,,,,,,,,,,,,,139.13427049998427,139.14955319999717,139.64997269999003,139.63352929998655,,,,,,,,,,,,,,,,,,,,,,139.64416740002343,139.64997269999003,139.64997269999003,139.64997269999003,142.64964090002468,142.64964090002468,142.64964090002468,142.6334857000038,j,1.1704766000038944,0.17606580001302063,142.6351291000028,142.63514819997363,None,,,,,,,,,,00026,001,2026-01-20_19h20.16.777,MST_task,2024.2.0,60.081566733583955,2026-01-20 19h20.25.464765 +0530,
,Scenes\192a.jpg,1,0,2,,,,,j,0.9351804999751039,0.14399800001410767,None,,,,2,0,1,142.64964090002468,,,,,,,,,,,,,,,,,,,,,,,142.6352175999782,142.64964090002468,143.150041099987,143.13314629998058,,,,,,,,,,,,,,,,,,,,,,143.14003930002218,143.150041099987,143.150041099987,143.150041099987,146.14954130002297,146.14954130002297,146.14954130002297,146.13318389997585,j,0.9351804999751039,0.14399800001410767,146.13324160000775,146.13325419998728,None,,,,,,,,,,00026,001,2026-01-20_19h20.16.777,MST_task,2024.2.0,60.081566733583955,2026-01-20 19h20.25.464765 +0530,
,Scenes\046a.jpg,2,0,3,,,,,j,0.882510099967476,0.1438849000260234,None,,,,3,0,2,146.14954130002297,,,,,,,,,,,,,,,,,,,,,,,146.13331950001884,146.14954130002297,146.6504196000169,146.63310179999098,,,,,,,,,,,,,,,,,,,,,,146.64545170002384,146.6504196000169,146.6504196000169,146.6504196000169,149.64964120002696,149.64964120002696,149.64964120002696,149.6334402000066,j,0.882510099967476,0.1438849000260234,149.63349929999094,149.63351219997276,None,,,,,,,,,,00026,001,2026-01-20_19h20.16.777,MST_task,2024.2.0,60.081566733583955,2026-01-20 19h20.25.464765 +0530,
,Scenes\124a.jpg,3,0,4,,,,,j,1.8703907000017352,0.13606270001037046,None,,,,4,0,3,149.64964120002696,,,,,,,,,,,,,,,,,,,,,,,149.63359520002268,149.64964120002696,150.1503553999937,150.1334640000132,,,,,,,,,,,,,,,,,,,,,,150.14035030000377,150.1503553999937,150.1503553999937,150.1503553999937,153.1496112999739,153.1496112999739,153.1496112999739,153.13352179998765,j,1.8703907000017352,0.13606270001037046,153.1335733999731,153.1335842999979,None,,,,,,,,,,00026,001,2026-01-20_19h20.16.777,MST_task,2024.2.0,60.081566733583955,2026-01-20 19h20.25.464765 +0530,
,Scenes\059a.jpg,4,0,5,,,,,j,1.443429599981755,0.13538570003584027,None,,,,5,0,4,153.1496112999739,,,,,,,,,,,,,,,,,,,,,,,153.13366789999418,153.1496112999739,153.6500072000199,153.63309999997728,,,,,,,,,,,,,,,,,,,,,,153.643115999992,153.6500072000199,153.6500072000199,153.6500072000199,156.64971289999085,156.64971289999085,156.64971289999085,156.63329099997645,j,1.443429599981755,0.13538570003584027,156.63334770000074,156.63335909997113,None,,,,,,,,,,00026,001,2026-01-20_19h20.16.777,MST_task,2024.2.0,60.081566733583955,2026-01-20 19h20.25.464765 +0530,
,Scenes\165a.jpg,5,0,6,,,,,f,1.3662060999777168,0.13703380001243204,None,,,,6,0,5,156.64971289999085,,,,,,,,,,,,,,,,,,,,,,,156.63344679999864,156.64971289999085,157.15044810000109,157.13321890000952,,,,,,,,,,,,,,,,,,,,,,157.14307829999598,157.15044810000109,157.15044810000109,157.15044810000109,160.14965799998026,160.14965799998026,160.14965799998026,160.13341140002012,f,1.3662060999777168,0.13703380001243204,160.13348189997487,160.1334945000126,None,,,,,,,,,,00026,001,2026-01-20_19h20.16.777,MST_task,2024.2.0,60.081566733583955,2026-01-20 19h20.25.464765 +0530,
,Scenes\033a.jpg,6,0,7,,,,,j,1.0757291999761946,0.1429346000077203,None,,,,7,0,6,160.14965799998026,,,,,,,,,,,,,,,,,,,,,,,160.13356370001566,160.14965799998026,160.64985619997606,160.63321020000149,,,,,,,,,,,,,,,,,,,,,,160.6384874000214,160.64985619997606,160.64985619997606,160.64985619997606,163.64961670001503,163.64961670001503,163.64961670001503,163.6336758999969,j,1.0757291999761946,0.1429346000077203,163.63373880001018,163.63375550002092,None,,,,,,,,,,00026,001,2026-01-20_19h20.16.777,MST_task,2024.2.0,60.081566733583955,2026-01-20 19h20.25.464765 +0530,
,Objects\137a.jpg,7,0,8,,,,,f,1.551440500013996,0.13541069999337196,None,,,,8,0,7,163.64961670001503,,,,,,,,,,,,,,,,,,,,,,,163.6338241000194,163.64961670001503,164.14985340001294,164.13314920000266,,,,,,,,,,,,,,,,,,,,,,164.13653339998564,164.14985340001294,164.14985340001294,164.14985340001294,167.14952769997763,167.14952769997763,167.14952769997763,167.13328250002814,f,1.551440500013996,0.13541069999337196,167.13333789998433,167.13334940001369,None,,,,,,,,,,00026,001,2026-01-20_19h20.16.777,MST_task,2024.2.0,60.081566733583955,2026-01-20 19h20.25.464765 +0530,
,Objects\001a.jpg,8,0,9,,,,,f,1.6029288999852724,0.16890630003763363,None,,,,9,0,8,167.14952769997763,,,,,,,,,,,,,,,,,,,,,,,167.1334137999802,167.14952769997763,167.6498358999961,167.63320139999269,,,,,,,,,,,,,,,,,,,,,,167.63580420002108,167.6498358999961,167.6498358999961,167.6498358999961,170.64957619999768,170.64957619999768,170.64957619999768,170.63350479997462,f,1.6029288999852724,0.16890630003763363,170.63357539998833,170.63358750002226,None,,,,,,,,,,00026,001,2026-01-20_19h20.16.777,MST_task,2024.2.0,60.081566733583955,2026-01-20 19h20.25.464765 +0530,
,Objects\023a.jpg,9,0,10,,,,,f,1.1267041999963112,0.152188100037165,None,,,,10,0,9,170.64957619999768,,,,,,,,,,,,,,,,,,,,,,,170.63365510001313,170.64957619999768,171.14983499998925,171.13324160000775,,,,,,,,,,,,,,,,,,,,,,171.1359368999838,171.14983499998925,171.14983499998925,171.14983499998925,174.14964090002468,174.14964090002468,174.14964090002468,174.1332963000168,f,1.1267041999963112,0.152188100037165,174.13335830002325,174.1333697999944,None,,,,,,,,,,00026,001,2026-01-20_19h20.16.777,MST_task,2024.2.0,60.081566733583955,2026-01-20 19h20.25.464765 +0530,
,Objects\089a.jpg,10,0,11,,,,,f,1.355133000004571,0.16907139995601028,None,,,,11,0,10,174.14964090002468,,,,,,,,,,,,,,,,,,,,,,,174.13343639997765,174.14964090002468,174.64981149998493,174.63307239999995,,,,,,,,,,,,,,,,,,,,,,174.63588660000823,174.64981149998493,174.64981149998493,174.64981149998493,177.64953420002712,177.64953420002712,177.64953420002712,177.63321619998896,f,1.355133000004571,0.16907139995601028,177.6332725000102,177.6332838999806,None,,,,,,,,,,00026,001,2026-01-20_19h20.16.777,MST_task,2024.2.0,60.081566733583955,2026-01-20 19h20.25.464765 +0530,
,Objects\031a.jpg,11,0,12,,,,,f,1.799065499973949,0.15246620000107214,None,,,,12,0,11,177.64953420002712,,,,,,,,,,,,,,,,,,,,,,,177.63337230001343,177.64953420002712,178.14980369998375,178.13329780002823,,,,,,,,,,,,,,,,,,,,,,178.1363502999884,178.14980369998375,178.14980369998375,178.14980369998375,181.14973589999136,181.14973589999136,181.14973589999136,181.1335438999813,f,1.799065499973949,0.15246620000107214,181.13361309998436,181.13362600002438,None,,,,,,,,,,00026,001,2026-01-20_19h20.16.777,MST_task,2024.2.0,60.081566733583955,2026-01-20 19h20.25.464765 +0530,
,Objects\078a.jpg,12,0,13,,,,,j,0.9555486000026576,0.1839509999845177,None,,,,13,0,12,181.14973589999136,,,,,,,,,,,,,,,,,,,,,,,181.1337162000127,181.14973589999136,181.64975370001048,181.6329627999803,,,,,,,,,,,,,,,,,,,,,,181.63584780000383,181.64975370001048,181.64975370001048,181.64975370001048,184.64953559997957,184.64953559997957,184.64953559997957,184.6333604999818,j,0.9555486000026576,0.1839509999845177,184.63341210002545,184.63342319999356,None,,,,,,,,,,00026,001,2026-01-20_19h20.16.777,MST_task,2024.2.0,60.081566733583955,2026-01-20 19h20.25.464765 +0530,
,Objects\174a.jpg,13,0,14,,,,,f,0.8952676999615505,0.16000050003640354,None,,,,14,0,13,184.64953559997957,,,,,,,,,,,,,,,,,,,,,,,184.63348770001903,184.64953559997957,185.15005980001297,185.13322269998025,,,,,,,,,,,,,,,,,,,,,,185.13615199999185,185.15005980001297,185.15005980001297,185.15005980001297,188.14960890001385,188.14960890001385,188.14960890001385,188.1333333000075,f,0.8952676999615505,0.16000050003640354,188.1333855999983,188.13342500000726,None,,,,,,,,,,00026,001,2026-01-20_19h20.16.777,MST_task,2024.2.0,60.081566733583955,2026-01-20 19h20.25.464765 +0530,
,Scenes\134a.jpg,14,0,15,,,,,j,1.1156129000009969,0.1434165999526158,None,,,,15,0,14,188.14960890001385,,,,,,,,,,,,,,,,,,,,,,,188.13351999997394,188.14960890001385,188.65016169997398,188.63298459997168,,,,,,,,,,,,,,,,,,,,,,188.6430238999892,188.65016169997398,188.65016169997398,188.65016169997398,191.6496896999888,191.6496896999888,191.6496896999888,191.63365199998952,j,1.1156129000009969,0.1434165999526158,191.6337100000237,191.63372209999943,None,,,,,,,,,,00026,001,2026-01-20_19h20.16.777,MST_task,2024.2.0,60.081566733583955,2026-01-20 19h20.25.464765 +0530,
,Scenes\038a.jpg,15,0,16,,,,,j,1.2702989999670535,0.1520236000069417,None,,,,16,0,15,191.6496896999888,,,,,,,,,,,,,,,,,,,,,,,191.633822600008,191.6496896999888,192.1503138000262,192.13324060000014,,,,,,,,,,,,,,,,,,,,,,192.14244089997374,192.1503138000262,192.1503138000262,192.1503138000262,195.14954140002374,195.14954140002374,195.14954140002374,195.13332830002764,j,1.2702989999670535,0.1520236000069417,195.1333826999762,195.13339460000861,None,,,,,,,,,,00026,001,2026-01-20_19h20.16.777,MST_task,2024.2.0,60.081566733583955,2026-01-20 19h20.25.464765 +0530,
,Scenes\103a.jpg,16,0,17,,,,,j,1.0666646999889053,0.20783299999311566,None,,,,17,0,16,195.14954140002374,,,,,,,,,,,,,,,,,,,,,,,195.13348329998553,195.14954140002374,195.65014779998455,195.63306409999495,,,,,,,,,,,,,,,,,,,,,,195.6433023000136,195.65014779998455,195.65014779998455,195.65014779998455,198.64947260002373,198.64947260002373,198.64947260002373,198.63337250001496,j,1.0666646999889053,0.20783299999311566,198.63342299999204,198.63343410001835,None,,,,,,,,,,00026,001,2026-01-20_19h20.16.777,MST_task,2024.2.0,60.081566733583955,2026-01-20 19h20.25.464765 +0530,
,Scenes\188a.jpg,17,0,18,,,,,j,0.9265041000326164,0.183979699970223,None,,,,18,0,17,198.64947260002373,,,,,,,,,,,,,,,,,,,,,,,198.63351999997394,198.64947260002373,199.1501200000057,199.13320619997103,,,,,,,,,,,,,,,,,,,,,,199.13933169998927,199.1501200000057,199.1501200000057,199.1501200000057,202.14972819999093,202.14972819999093,202.14972819999093,202.13383040000917,j,0.9265041000326164,0.183979699970223,202.13390110002365,202.13391380000394,None,,,,,,,,,,00026,001,2026-01-20_19h20.16.777,MST_task,2024.2.0,60.081566733583955,2026-01-20 19h20.25.464765 +0530,
,Scenes\123a.jpg,18,0,19,,,,,j,1.4362860000110231,0.1680173000204377,None,,,,19,0,18,202.14972819999093,,,,,,,,,,,,,,,,,,,,,,,202.13398729998153,202.14972819999093,202.65009459998691,202.63307929999428,,,,,,,,,,,,,,,,,,,,,,202.63857439998537,202.65009459998691,202.65009459998691,202.65009459998691,205.6495487000211,205.6495487000211,205.6495487000211,205.63356839999324,j,1.4362860000110231,0.1680173000204377,205.6336228,205.63363410002785,None,,,,,,,,,,00026,001,2026-01-20_19h20.16.777,MST_task,2024.2.0,60.081566733583955,2026-01-20 19h20.25.464765 +0530,
,Scenes\121a.jpg,19,0,20,,,,,j,0.7266190000227652,0.12871969997650012,None,,,,20,0,19,205.6495487000211,,,,,,,,,,,,,,,,,,,,,,,205.63371989998268,205.6495487000211,206.15017580002313,206.1334782000049,,,,,,,,,,,,,,,,,,,,,,206.14246369997272,206.15017580002313,206.15017580002313,206.15017580002313,209.14947709999979,209.14947709999979,209.14947709999979,209.133428799978,j,0.7266190000227652,0.12871969997650012,209.13349550002022,209.1335087000043,None,,,,,,,,,,00026,001,2026-01-20_19h20.16.777,MST_task,2024.2.0,60.081566733583955,2026-01-20 19h20.25.464765 +0530,
,Scenes\101a.jpg,20,0,21,,,,,j,1.923548499995377,0.17522099998313934,None,,,,21,0,20,209.14947709999979,,,,,,,,,,,,,,,,,,,,,,,209.133603699971,209.14947709999979,209.65010570001323,209.63314460002584,,,,,,,,,,,,,,,,,,,,,,209.64048489998095,209.65010570001323,209.65010570001323,209.65010570001323,212.6496183000272,212.6496183000272,212.6496183000272,212.63393210002687,j,1.923548499995377,0.17522099998313934,212.6339980000048,212.63401069998508,None,,,,,,,,,,00026,001,2026-01-20_19h20.16.777,MST_task,2024.2.0,60.081566733583955,2026-01-20 19h20.25.464765 +0530,
,Objects\040a.jpg,21,0,22,,,,,f,1.0798096000216901,0.21571279998170212,None,,,,22,0,21,212.6496183000272,,,,,,,,,,,,,,,,,,,,,,,212.63408150000032,212.6496183000272,213.1500385000254,213.13286050001625,,,,,,,,,,,,,,,,,,,,,,213.14287089998834,213.1500385000254,213.1500385000254,213.1500385000254,216.1495652999729,216.1495652999729,216.1495652999729,216.1333416000125,f,1.0798096000216901,0.21571279998170212,216.13339450000785,216.13340559997596,None,,,,,,,,,,00026,001,2026-01-20_19h20.16.777,MST_task,2024.2.0,60.081566733583955,2026-01-20 19h20.25.464765 +0530,
,Objects\168a.jpg,22,0,23,,,,,f,2.0108612999902107,0.16857029998209327,None,,,,23,0,22,216.1495652999729,,,,,,,,,,,,,,,,,,,,,,,216.13347080000676,216.1495652999729,216.6497194999829,216.63300560001517,,,,,,,,,,,,,,,,,,,,,,216.6355484999949,216.6497194999829,216.6497194999829,216.6497194999829,219.64955490001012,219.64955490001012,219.64955490001012,219.63330809999024,f,2.0108612999902107,0.16857029998209327,219.63336859998526,219.63338060001843,None,,,,,,,,,,00026,001,2026-01-20_19h20.16.777,MST_task,2024.2.0,60.081566733583955,2026-01-20 19h20.25.464765 +0530,
,Objects\027a.jpg,23,0,24,,,,,f,1.399348300008569,0.1923277999740094,None,,,,24,0,23,219.64955490001012,,,,,,,,,,,,,,,,,,,,,,,219.63346909999382,219.64955490001012,220.1497874999768,220.13315670000156,,,,,,,,,,,,,,,,,,,,,,220.13624459999846,220.1497874999768,220.1497874999768,220.1497874999768,223.14948239998193,223.14948239998193,223.14948239998193,223.1334490000154,f,1.399348300008569,0.1923277999740094,223.13350320002064,223.13351539999712,None,,,,,,,,,,00026,001,2026-01-20_19h20.16.777,MST_task,2024.2.0,60.081566733583955,2026-01-20 19h20.25.464765 +0530,
,Objects\159a.jpg,24,0,25,,,,,f,0.9632479000138119,0.18418969999765977,None,,,,25,0,24,223.14948239998193,,,,,,,,,,,,,,,,,,,,,,,223.1335799000226,223.14948239998193,223.64974439999787,223.63306419999572,,,,,,,,,,,,,,,,,,,,,,223.63567960000364,223.64974439999787,223.64974439999787,223.64974439999787,226.64955400000326,226.64955400000326,226.64955400000326,226.63340619998053,f,0.9632479000138119,0.18418969999765977,226.63346310000634,226.6334750999813,None,,,,,,,,,,00026,001,2026-01-20_19h20.16.777,MST_task,2024.2.0,60.081566733583955,2026-01-20 19h20.25.464765 +0530,
,Objects\132a.jpg,25,0,26,,,,,f,1.7127162999822758,0.17410639999434352,None,,,,26,0,25,226.64955400000326,,,,,,,,,,,,,,,,,,,,,,,226.63356170000043,226.64955400000326,227.14974129997427,227.1331662000157,,,,,,,,,,,,,,,,,,,,,,227.13604980002856,227.14974129997427,227.14974129997427,227.14974129997427,230.1495512999827,230.1495512999827,230.1495512999827,230.1332058000262,f,1.7127162999822758,0.17410639999434352,230.1332637000014,230.13327529997332,None,,,,,,,,,,00026,001,2026-01-20_19h20.16.777,MST_task,2024.2.0,60.081566733583955,2026-01-20 19h20.25.464765 +0530,
,Objects\095a.jpg,26,0,27,,,,,f,1.1069226000108756,0.18413070001406595,None,,,,27,0,26,230.1495512999827,,,,,,,,,,,,,,,,,,,,,,,230.13336709997384,230.1495512999827,230.649760100001,230.63305469998159,,,,,,,,,,,,,,,,,,,,,,230.63612560002366,230.649760100001,230.649760100001,230.649760100001,233.64966649998678,233.64966649998678,233.64966649998678,233.63349749997724,f,1.1069226000108756,0.18413070001406595,233.63355570001295,233.63356699998258,None,,,,,,,,,,00026,001,2026-01-20_19h20.16.777,MST_task,2024.2.0,60.081566733583955,2026-01-20 19h20.25.464765 +0530,
,Objects\180a.jpg,27,0,28,,,,,f,1.7991958999773487,0.18403340002987534,None,,,,28,0,27,233.64966649998678,,,,,,,,,,,,,,,,,,,,,,,233.63365720002912,233.64966649998678,234.14984530000947,234.1331376999733,,,,,,,,,,,,,,,,,,,,,,234.13624820002588,234.14984530000947,234.14984530000947,234.14984530000947,237.1496414000285,237.1496414000285,237.1496414000285,237.13360980001744,f,1.7991958999773487,0.18403340002987534,237.13366340001812,237.13367730000755,None,,,,,,,,,,00026,001,2026-01-20_19h20.16.777,MST_task,2024.2.0,60.081566733583955,2026-01-20 19h20.25.464765 +0530,
,Scenes\026a.jpg,28,0,29,,,,,j,1.1814032000256702,0.20799590001115575,None,,,,29,0,28,237.1496414000285,,,,,,,,,,,,,,,,,,,,,,,237.1337417999748,237.1496414000285,237.65518810000503,237.63384460000088,,,,,,,,,,,,,,,,,,,,,,237.65286259999266,237.65518810000503,237.65518810000503,237.65518810000503,,,,240.64985769998748,j,1.1814032000256702,0.20799590001115575,240.64991490001557,240.64993100002175,None,,,,,,,,,,00026,001,2026-01-20_19h20.16.777,MST_task,2024.2.0,60.081566733583955,2026-01-20 19h20.25.464765 +0530,
,Scenes\138a.jpg,29,0,30,,,,,j,0.9227202999754809,0.21599789999891073,None,,,,30,0,29,240.66626339999493,,,,,,,,,,,,,,,,,,,,,,,240.65000060002785,240.66626339999493,241.169779799995,241.14993650000542,,,,,,,,,,,,,,,,,,,,,,241.1673142000218,241.169779799995,241.169779799995,241.169779799995,,,,244.16659640002763,j,0.9227202999754809,0.21599789999891073,244.1666520999861,244.1666648000246,None,,,,,,,,,,00026,001,2026-01-20_19h20.16.777,MST_task,2024.2.0,60.081566733583955,2026-01-20 19h20.25.464765 +0530,
,Scenes\115a.jpg,30,0,31,,,,,j,1.41701140004443,0.20889929996337742,None,,,,31,0,30,244.18295410001883,,,,,,,,,,,,,,,,,,,,,,,244.16675279999617,244.18295410001883,244.68344430002617,244.6674143000273,,,,,,,,,,,,,,,,,,,,,,244.675717599981,244.68344430002617,244.68344430002617,244.68344430002617,247.68298799998593,247.68298799998593,247.68298799998593,247.66696469997987,j,1.41701140004443,0.20889929996337742,247.66702220001025,247.66703409998445,None,,,,,,,,,,00026,001,2026-01-20_19h20.16.777,MST_task,2024.2.0,60.081566733583955,2026-01-20 19h20.25.464765 +0530,
,Scenes\012a.jpg,31,0,32,,,,,j,1.1010245999787003,0.1442246999940835,None,,,,32,0,31,247.68298799998593,,,,,,,,,,,,,,,,,,,,,,,247.667099400016,247.68298799998593,248.18347380001796,248.16673390002688,,,,,,,,,,,,,,,,,,,,,,248.1771873999969,248.18347380001796,248.18347380001796,248.18347380001796,251.18282540002838,251.18282540002838,251.18282540002838,251.16709409997566,j,1.1010245999787003,0.1442246999940835,251.1671630999772,251.16717710002558,None,,,,,,,,,,00026,001,2026-01-20_19h20.16.777,MST_task,2024.2.0,60.081566733583955,2026-01-20 19h20.25.464765 +0530,
,Scenes\130a.jpg,32,0,33,,,,,j,1.0816491000005044,0.1522906000027433,None,,,,33,0,32,251.18282540002838,,,,,,,,,,,,,,,,,,,,,,,251.16727630002424,251.18282540002838,251.6834762999788,251.6667420999729,,,,,,,,,,,,,,,,,,,,,,251.67775420000544,251.6834762999788,251.6834762999788,251.6834762999788,254.68293110001832,254.68293110001832,254.68293110001832,254.6670521000051,j,1.0816491000005044,0.1522906000027433,254.6671045999974,254.66711570002371,None,,,,,,,,,,00026,001,2026-01-20_19h20.16.777,MST_task,2024.2.0,60.081566733583955,2026-01-20 19h20.25.464765 +0530,
,Scenes\051a.jpg,33,0,34,,,,,j,1.493296200002078,0.1599553999840282,None,,,,34,0,33,254.68293110001832,,,,,,,,,,,,,,,,,,,,,,,254.66718140000012,254.68293110001832,255.1836199000245,255.16651449998608,,,,,,,,,,,,,,,,,,,,,,255.17256729997462,255.1836199000245,255.1836199000245,255.1836199000245,258.18299050000496,258.18299050000496,258.18299050000496,258.166871799971,j,1.493296200002078,0.1599553999840282,258.1669248000253,258.1669358999934,None,,,,,,,,,,00026,001,2026-01-20_19h20.16.777,MST_task,2024.2.0,60.081566733583955,2026-01-20 19h20.25.464765 +0530,
,Scenes\040a.jpg,34,0,35,,,,,f,1.0855713000055403,0.18492689996492118,None,,,,35,0,34,258.18299050000496,,,,,,,,,,,,,,,,,,,,,,,258.1670181999798,258.18299050000496,258.6870283000171,258.66664080001647,,,,,,,,,,,,,,,,,,,,,,258.684538099973,258.6870283000171,258.6870283000171,258.6870283000171,,,,261.6832509000087,f,1.0855713000055403,0.18492689996492118,261.683303400001,261.6833155999775,None,,,,,,,,,,00026,001,2026-01-20_19h20.16.777,MST_task,2024.2.0,60.081566733583955,2026-01-20 19h20.25.464765 +0530,
,Objects\171a.jpg,35,0,36,,,,,f,1.332957999955397,0.17622409999603406,None,,,,36,0,35,261.6996275000274,,,,,,,,,,,,,,,,,,,,,,,261.68347799999174,261.6996275000274,262.2001495999866,262.1832980000181,,,,,,,,,,,,,,,,,,,,,,262.1869874999975,262.2001495999866,262.2001495999866,262.2001495999866,265.1995395999984,265.1995395999984,265.1995395999984,265.18351649999386,f,1.332957999955397,0.17622409999603406,265.18357499997364,265.18358710000757,None,,,,,,,,,,00026,001,2026-01-20_19h20.16.777,MST_task,2024.2.0,60.081566733583955,2026-01-20 19h20.25.464765 +0530,
,Objects\173a.jpg,36,0,37,,,,,f,0.9927323999581859,0.20936850004363805,None,,,,37,0,36,265.1995395999984,,,,,,,,,,,,,,,,,,,,,,,265.18367409997154,265.1995395999984,265.69990629999666,265.68317400000524,,,,,,,,,,,,,,,,,,,,,,265.68595810001716,265.69990629999666,265.69990629999666,265.69990629999666,268.69964529998833,268.69964529998833,268.69964529998833,268.683561599988,f,0.9927323999581859,0.20936850004363805,268.6836151999887,268.68362650001654,None,,,,,,,,,,00026,001,2026-01-20_19h20.16.777,MST_task,2024.2.0,60.081566733583955,2026-01-20 19h20.25.464765 +0530,
,Objects\101a.jpg,37,0,38,,,,,f,1.5813119999947958,0.1841442000004463,None,,,,38,0,37,268.69964529998833,,,,,,,,,,,,,,,,,,,,,,,268.68371160002425,268.69964529998833,269.1997446999885,269.18297449999955,,,,,,,,,,,,,,,,,,,,,,269.1857145000249,269.1997446999885,269.1997446999885,269.1997446999885,272.1995877000154,272.1995877000154,272.1995877000154,272.18405719997827,f,1.5813119999947958,0.1841442000004463,272.18411339999875,272.184125699976,None,,,,,,,,,,00026,001,2026-01-20_19h20.16.777,MST_task,2024.2.0,60.081566733583955,2026-01-20 19h20.25.464765 +0530,
,Objects\164a.jpg,38,0,39,,,,,f,1.11359599995194,0.2159997000126168,None,,,,39,0,38,272.1995877000154,,,,,,,,,,,,,,,,,,,,,,,272.1841917000129,272.1995877000154,272.6998229000019,272.6830868999823,,,,,,,,,,,,,,,,,,,,,,272.6858516000211,272.6998229000019,272.6998229000019,272.6998229000019,275.699678200006,275.699678200006,275.699678200006,275.68341360002523,f,1.11359599995194,0.2159997000126168,275.68346660002135,275.6834780999925,None,,,,,,,,,,00026,001,2026-01-20_19h20.16.777,MST_task,2024.2.0,60.081566733583955,2026-01-20 19h20.25.464765 +0530,
,Objects\003a.jpg,39,0,40,,,,,f,1.3333244000095874,0.18360639997990802,None,,,,40,0,39,275.699678200006,,,,,,,,,,,,,,,,,,,,,,,275.68356229999335,275.699678200006,276.19985299999826,276.18324069998926,,,,,,,,,,,,,,,,,,,,,,276.186027400021,276.19985299999826,276.19985299999826,276.19985299999826,279.1996158999973,279.1996158999973,279.1996158999973,279.1835940000019,f,1.3333244000095874,0.18360639997990802,279.18366430001333,279.18367769999895,None,,,,,,,,,,00026,001,2026-01-20_19h20.16.777,MST_task,2024.2.0,60.081566733583955,2026-01-20 19h20.25.464765 +0530,
,Objects\021a.jpg,40,0,41,,,,,f,1.8095828999648802,0.1753861000179313,None,,,,41,0,40,279.1996158999973,,,,,,,,,,,,,,,,,,,,,,,279.1837515999796,279.1996158999973,279.6997583999764,279.68319100001827,,,,,,,,,,,,,,,,,,,,,,279.6861327000079,279.6997583999764,279.6997583999764,279.6997583999764,282.69964399997843,282.69964399997843,282.69964399997843,282.68343169998843,f,1.8095828999648802,0.1753861000179313,282.6834847999853,282.68349610001314,None,,,,,,,,,,00026,001,2026-01-20_19h20.16.777,MST_task,2024.2.0,60.081566733583955,2026-01-20 19h20.25.464765 +0530,
,Objects\015a.jpg,41,0,42,,,,,f,1.1966508000041358,0.1690645000198856,None,,,,42,0,41,282.69964399997843,,,,,,,,,,,,,,,,,,,,,,,282.6835628999979,282.69964399997843,283.1998989999993,283.183461299981,,,,,,,,,,,,,,,,,,,,,,283.1867614000221,283.1998989999993,283.1998989999993,283.1998989999993,286.1996938000084,286.1996938000084,286.1996938000084,286.183846800006,f,1.1966508000041358,0.1690645000198856,286.18389990000287,286.1839111999725,None,,,,,,,,,,00026,001,2026-01-20_19h20.16.777,MST_task,2024.2.0,60.081566733583955,2026-01-20 19h20.25.464765 +0530,
,Scenes\116a.jpg,42,0,43,,,,,j,0.8410138000035658,0.24834049999481067,None,,,,43,0,42,286.1996938000084,,,,,,,,,,,,,,,,,,,,,,,286.1839981999947,286.1996938000084,286.70015729998704,286.68324079999,,,,,,,,,,,,,,,,,,,,,,286.69694669998717,286.70015729998704,286.70015729998704,286.70015729998704,289.69970370002557,289.69970370002557,289.69970370002557,289.68355199997313,j,0.8410138000035658,0.24834049999481067,289.68360549997305,289.68361740000546,None,,,,,,,,,,00026,001,2026-01-20_19h20.16.777,MST_task,2024.2.0,60.081566733583955,2026-01-20 19h20.25.464765 +0530,
,Scenes\110a.jpg,43,0,44,,,,,j,1.1565253000007942,0.20799510000506416,None,,,,44,0,43,289.69970370002557,,,,,,,,,,,,,,,,,,,,,,,289.68370340002,289.69970370002557,290.200013499998,290.18314650002867,,,,,,,,,,,,,,,,,,,,,,290.1910613999935,290.200013499998,290.200013499998,290.200013499998,293.19956949999323,293.19956949999323,293.19956949999323,293.183538399986,j,1.1565253000007942,0.20799510000506416,293.18360220000613,293.183615499991,None,,,,,,,,,,00026,001,2026-01-20_19h20.16.777,MST_task,2024.2.0,60.081566733583955,2026-01-20 19h20.25.464765 +0530,
,Scenes\091a.jpg,44,0,45,,,,,j,1.6733791999868117,0.21509020001394674,None,,,,45,0,44,293.19956949999323,,,,,,,,,,,,,,,,,,,,,,,293.1837115000235,293.19956949999323,293.70017849997384,293.68301330000395,,,,,,,,,,,,,,,,,,,,,,293.6897506000241,293.70017849997384,293.70017849997384,293.70017849997384,296.69964369997615,296.69964369997615,296.69964369997615,296.683340699994,j,1.6733791999868117,0.21509020001394674,296.683394599997,296.6834062000271,None,,,,,,,,,,00026,001,2026-01-20_19h20.16.777,MST_task,2024.2.0,60.081566733583955,2026-01-20 19h20.25.464765 +0530,
,Scenes\105a.jpg,45,0,46,,,,,j,0.652530100021977,0.24818479997338727,None,,,,46,0,45,296.69964369997615,,,,,,,,,,,,,,,,,,,,,,,296.68349869997473,296.69964369997615,297.20014299999457,297.18316100002266,,,,,,,,,,,,,,,,,,,,,,297.19302940001944,297.20014299999457,297.20014299999457,297.20014299999457,300.19957310002064,300.19957310002064,300.19957310002064,300.18329499999527,j,0.652530100021977,0.24818479997338727,300.18334759998834,300.1833591000177,None,,,,,,,,,,00026,001,2026-01-20_19h20.16.777,MST_task,2024.2.0,60.081566733583955,2026-01-20 19h20.25.464765 +0530,
,Scenes\140a.jpg,46,0,47,,,,,j,1.0328290999750607,0.20099969999864697,None,,,,47,0,46,300.19957310002064,,,,,,,,,,,,,,,,,,,,,,,300.1834409000003,300.19957310002064,300.70013870002003,300.6830774000264,,,,,,,,,,,,,,,,,,,,,,300.688862400013,300.70013870002003,300.70013870002003,300.70013870002003,303.69955319998553,303.69955319998553,303.69955319998553,303.6834560999996,j,1.0328290999750607,0.20099969999864697,303.68351260002237,303.683523899992,None,,,,,,,,,,00026,001,2026-01-20_19h20.16.777,MST_task,2024.2.0,60.081566733583955,2026-01-20 19h20.25.464765 +0530,
,Scenes\084a.jpg,47,0,48,,,,,j,0.9003984000300989,0.19206229998962954,None,,,,48,0,47,303.69955319998553,,,,,,,,,,,,,,,,,,,,,,,303.6836113000172,303.69955319998553,304.20016659999965,304.1830174999777,,,,,,,,,,,,,,,,,,,,,,304.19261199998436,304.20016659999965,304.20016659999965,304.20016659999965,307.1995787000051,307.1995787000051,307.1995787000051,307.18334340001456,j,0.9003984000300989,0.19206229998962954,307.18339520000154,307.18340630002785,None,,,,,,,,,,00026,001,2026-01-20_19h20.16.777,MST_task,2024.2.0,60.081566733583955,2026-01-20 19h20.25.464765 +0530,
,Scenes\007a.jpg,48,0,49,,,,,f,1.0729981000185944,0.16837899998063222,None,,,,49,0,48,307.1995787000051,,,,,,,,,,,,,,,,,,,,,,,307.1834898000234,307.1995787000051,307.70011410000734,307.6830659999978,,,,,,,,,,,,,,,,,,,,,,307.68933730002027,307.70011410000734,307.70011410000734,307.70011410000734,310.69979450001847,310.69979450001847,310.69979450001847,310.6841919000144,f,1.0729981000185944,0.16837899998063222,310.684246800025,310.6842581999954,None,,,,,,,,,,00026,001,2026-01-20_19h20.16.777,MST_task,2024.2.0,60.081566733583955,2026-01-20 19h20.25.464765 +0530,
,Objects\175a.jpg,49,0,50,,,,,f,0.9966602000058629,0.20000070001697168,None,,,,50,0,49,310.69979450001847,,,,,,,,,,,,,,,,,,,,,,,310.68432350002695,310.69979450001847,311.1999795999727,311.18301410001004,,,,,,,,,,,,,,,,,,,,,,311.1863196999766,311.1999795999727,311.1999795999727,311.1999795999727,314.1995441999752,314.1995441999752,314.1995441999752,314.18359410000267,f,0.9966602000058629,0.20000070001697168,314.1836521999794,314.18366400001105,None,,,,,,,,,,00026,001,2026-01-20_19h20.16.777,MST_task,2024.2.0,60.081566733583955,2026-01-20 19h20.25.464765 +0530,
,Objects\066a.jpg,50,0,51,,,,,f,2.0093297999701463,0.16091580002103,None,,,,51,0,50,314.1995441999752,,,,,,,,,,,,,,,,,,,,,,,314.18372839997755,314.1995441999752,314.69973240001127,314.6830102999811,,,,,,,,,,,,,,,,,,,,,,314.6860035000136,314.69973240001127,314.69973240001127,314.69973240001127,317.69975189998513,317.69975189998513,317.69975189998513,317.6835603999789,f,2.0093297999701463,0.16091580002103,317.68362929997966,317.6836416000151,None,,,,,,,,,,00026,001,2026-01-20_19h20.16.777,MST_task,2024.2.0,60.081566733583955,2026-01-20 19h20.25.464765 +0530,
,Objects\047a.jpg,51,0,52,,,,,f,0.7257883999845944,0.1760383000364527,None,,,,52,0,51,317.69975189998513,,,,,,,,,,,,,,,,,,,,,,,317.6837120000273,317.69975189998513,318.19972600002075,318.183019899996,,,,,,,,,,,,,,,,,,,,,,318.18551049998496,318.19972600002075,318.19972600002075,318.19972600002075,321.19957150000846,321.19957150000846,321.19957150000846,321.1833794999984,f,0.7257883999845944,0.1760383000364527,321.1834330999991,321.1834442000254,None,,,,,,,,,,00026,001,2026-01-20_19h20.16.777,MST_task,2024.2.0,60.081566733583955,2026-01-20 19h20.25.464765 +0530,
,Objects\120a.jpg,52,0,53,,,,,f,1.2649212999967858,0.16000530001474544,None,,,,53,0,52,321.19957150000846,,,,,,,,,,,,,,,,,,,,,,,321.18352790002245,321.19957150000846,321.6997483000159,321.68308779998915,,,,,,,,,,,,,,,,,,,,,,321.68573099997593,321.6997483000159,321.6997483000159,321.6997483000159,324.69968120002886,324.69968120002886,324.69968120002886,324.68362279998837,f,1.2649212999967858,0.16000530001474544,324.68369139998686,324.68370390002383,None,,,,,,,,,,00026,001,2026-01-20_19h20.16.777,MST_task,2024.2.0,60.081566733583955,2026-01-20 19h20.25.464765 +0530,
,Objects\057a.jpg,53,0,54,,,,,f,1.2930615000077523,0.18428990000393242,None,,,,54,0,53,324.69968120002886,,,,,,,,,,,,,,,,,,,,,,,324.6837731000269,324.69968120002886,325.1998225999996,325.18309950002003,,,,,,,,,,,,,,,,,,,,,,325.19414660002803,325.1998225999996,325.1998225999996,325.1998225999996,328.19950839999365,328.19950839999365,328.19950839999365,328.1834019999951,f,1.2930615000077523,0.18428990000393242,328.1834544999874,328.18346560001373,None,,,,,,,,,,00026,001,2026-01-20_19h20.16.777,MST_task,2024.2.0,60.081566733583955,2026-01-20 19h20.25.464765 +0530,
,Objects\182a.jpg,54,0,55,,,,,f,2.112924099958036,0.1600349000073038,None,,,,55,0,54,328.19950839999365,,,,,,,,,,,,,,,,,,,,,,,328.18352790002245,328.19950839999365,328.6997972999816,328.68295300001046,,,,,,,,,,,,,,,,,,,,,,328.6858379999758,328.6997972999816,328.6997972999816,328.6997972999816,331.69970270001795,331.69970270001795,331.69970270001795,331.6836373999831,f,2.112924099958036,0.1600349000073038,331.68371130002197,331.6837247000076,None,,,,,,,,,,00026,001,2026-01-20_19h20.16.777,MST_task,2024.2.0,60.081566733583955,2026-01-20 19h20.25.464765 +0530,
,Objects\162a.jpg,55,0,56,,,,,f,1.4129659999744035,0.18402680003782734,None,,,,56,0,55,331.69970270001795,,,,,,,,,,,,,,,,,,,,,,,331.6837983999867,331.69970270001795,332.19972879998386,332.1830110999872,,,,,,,,,,,,,,,,,,,,,,332.18583129998296,332.19972879998386,332.19972879998386,332.19972879998386,335.19974070001626,335.19974070001626,335.19974070001626,335.18380190001335,f,1.4129659999744035,0.18402680003782734,335.1838786000153,335.18389139999636,None,,,,,,,,,,00026,001,2026-01-20_19h20.16.777,MST_task,2024.2.0,60.081566733583955,2026-01-20 19h20.25.464765 +0530,
,Scenes\061a.jpg,56,0,57,,,,,j,1.2010526999947615,0.20802429999457672,None,,,,57,0,56,335.19974070001626,,,,,,,,,,,,,,,,,,,,,,,335.18396459997166,335.19974070001626,335.700150699995,335.6831194999977,,,,,,,,,,,,,,,,,,,,,,335.6884501000168,335.700150699995,335.700150699995,335.700150699995,338.6995880000177,338.6995880000177,338.6995880000177,338.68341040000087,j,1.2010526999947615,0.20802429999457672,338.6834667000221,338.68347819999326,None,,,,,,,,,,00026,001,2026-01-20_19h20.16.777,MST_task,2024.2.0,60.081566733583955,2026-01-20 19h20.25.464765 +0530,
,Scenes\178a.jpg,57,0,58,,,,,j,1.8455239999457262,0.199897900049109,None,,,,58,0,57,338.6995880000177,,,,,,,,,,,,,,,,,,,,,,,338.68356279999716,338.6995880000177,339.2001104999799,339.18303790001664,,,,,,,,,,,,,,,,,,,,,,339.1900729999761,339.2001104999799,339.2001104999799,339.2001104999799,342.19957900000736,342.19957900000736,342.19957900000736,342.18335020000814,j,1.8455239999457262,0.199897900049109,342.18340470001567,342.1834162999876,None,,,,,,,,,,00026,001,2026-01-20_19h20.16.777,MST_task,2024.2.0,60.081566733583955,2026-01-20 19h20.25.464765 +0530,
,Scenes\186a.jpg,58,0,59,,,,,j,1.0805626999936067,0.18493370001669973,None,,,,59,0,58,342.19957900000736,,,,,,,,,,,,,,,,,,,,,,,342.18348190002143,342.19957900000736,342.700117099972,342.6830986000132,,,,,,,,,,,,,,,,,,,,,,342.68951589998323,342.700117099972,342.700117099972,342.700117099972,345.6996052999748,345.6996052999748,345.6996052999748,345.6833147999714,j,1.0805626999936067,0.18493370001669973,345.6833728000056,345.68338509998284,None,,,,,,,,,,00026,001,2026-01-20_19h20.16.777,MST_task,2024.2.0,60.081566733583955,2026-01-20 19h20.25.464765 +0530,
,Scenes\069a.jpg,59,0,60,,,,,j,1.0208033000235446,0.1760253999964334,None,,,,60,0,59,345.6996052999748,,,,,,,,,,,,,,,,,,,,,,,345.6834523000289,345.6996052999748,346.2002031999873,346.18303429998923,,,,,,,,,,,,,,,,,,,,,,346.1889897999936,346.2002031999873,346.2002031999873,346.2002031999873,349.19965329999104,349.19965329999104,349.19965329999104,349.18371810001554,j,1.0208033000235446,0.1760253999964334,349.18377339997096,349.18378510000184,None,,,,,,,,,,00026,001,2026-01-20_19h20.16.777,MST_task,2024.2.0,60.081566733583955,2026-01-20 19h20.25.464765 +0530,
,Scenes\190a.jpg,60,0,61,,,,,j,0.6125210999744013,0.17598380002891645,None,,,,61,0,60,349.19965329999104,,,,,,,,,,,,,,,,,,,,,,,349.1838714000187,349.19965329999104,349.70423889998347,349.6829320000252,,,,,,,,,,,,,,,,,,,,,,349.70194719999563,349.70423889998347,349.70423889998347,349.70423889998347,,,,352.69986669998616,j,0.6125210999744013,0.17598380002891645,352.6999188999762,352.69993060000706,None,,,,,,,,,,00026,001,2026-01-20_19h20.16.777,MST_task,2024.2.0,60.081566733583955,2026-01-20 19h20.25.464765 +0530,
,Scenes\163a.jpg,61,0,62,,,,,j,0.84427289996529,0.20926149998558685,None,,,,62,0,61,352.71625370002585,,,,,,,,,,,,,,,,,,,,,,,352.69999639998423,352.71625370002585,353.21693980001146,353.1999801999773,,,,,,,,,,,,,,,,,,,,,,353.20581349998247,353.21693980001146,353.21693980001146,353.21693980001146,356.21638930001063,356.21638930001063,356.21638930001063,356.20022280002013,j,0.84427289996529,0.20926149998558685,356.2002800999908,356.20029180002166,None,,,,,,,,,,00026,001,2026-01-20_19h20.16.777,MST_task,2024.2.0,60.081566733583955,2026-01-20 19h20.25.464765 +0530,
,Scenes\082a.jpg,62,0,63,,,,,j,2.2400915999896824,0.21643970004515722,None,,,,63,0,62,356.21638930001063,,,,,,,,,,,,,,,,,,,,,,,356.20037330000196,356.21638930001063,356.7167814000277,356.6998751999927,,,,,,,,,,,,,,,,,,,,,,356.71073970000725,356.7167814000277,356.7167814000277,356.7167814000277,359.71634909999557,359.71634909999557,359.71634909999557,359.7002218000125,j,2.2400915999896824,0.21643970004515722,359.70027530001244,359.70028709998587,None,,,,,,,,,,00026,001,2026-01-20_19h20.16.777,MST_task,2024.2.0,60.081566733583955,2026-01-20 19h20.25.464765 +0530,
,Objects\167a.jpg,63,0,64,,,,,f,1.4290830999962054,0.16654620005283505,None,,,,64,0,63,359.71634909999557,,,,,,,,,,,,,,,,,,,,,,,359.70038450002903,359.71634909999557,360.216879900021,360.19992799998727,,,,,,,,,,,,,,,,,,,,,,360.20344730000943,360.216879900021,360.216879900021,360.216879900021,363.2163803000003,363.2163803000003,363.2163803000003,363.20019070000853,f,1.4290830999962054,0.16654620005283505,363.2002424999955,363.20025380002335,None,,,,,,,,,,00026,001,2026-01-20_19h20.16.777,MST_task,2024.2.0,60.081566733583955,2026-01-20 19h20.25.464765 +0530,
,Objects\179a.jpg,64,0,65,,,,,f,1.11303060001228,0.1762748000328429,None,,,,65,0,64,363.2163803000003,,,,,,,,,,,,,,,,,,,,,,,363.2003174999845,363.2163803000003,363.7164504000102,363.69990810001036,,,,,,,,,,,,,,,,,,,,,,363.7026595000061,363.7164504000102,363.7164504000102,363.7164504000102,366.71635300002526,366.71635300002526,366.71635300002526,366.70014410000294,f,1.11303060001228,0.1762748000328429,366.7001951999846,366.70020670001395,None,,,,,,,,,,00026,001,2026-01-20_19h20.16.777,MST_task,2024.2.0,60.081566733583955,2026-01-20 19h20.25.464765 +0530,
,Objects\155a.jpg,65,0,66,,,,,f,1.2282224000082351,0.12002049997681752,None,,,,66,0,65,366.71635300002526,,,,,,,,,,,,,,,,,,,,,,,366.7002891000011,366.71635300002526,367.2166082999902,367.1998847000068,,,,,,,,,,,,,,,,,,,,,,367.2025332999765,367.2166082999902,367.2166082999902,367.2166082999902,370.2163822000148,370.2163822000148,370.2163822000148,370.2002143000136,f,1.2282224000082351,0.12002049997681752,370.20026780001353,370.20027909998316,None,,,,,,,,,,00026,001,2026-01-20_19h20.16.777,MST_task,2024.2.0,60.081566733583955,2026-01-20 19h20.25.464765 +0530,
,Objects\090a.jpg,66,0,67,,,,,j,1.1680701000150293,0.20797320001292974,None,,,,67,0,66,370.2163822000148,,,,,,,,,,,,,,,,,,,,,,,370.2003617999726,370.2163822000148,370.71653209999204,370.699998600001,,,,,,,,,,,,,,,,,,,,,,370.7029490999994,370.71653209999204,370.71653209999204,370.71653209999204,373.716300399974,373.716300399974,373.716300399974,373.70025789999636,j,1.1680701000150293,0.20797320001292974,373.7003087999765,373.7003202000051,None,,,,,,,,,,00026,001,2026-01-20_19h20.16.777,MST_task,2024.2.0,60.081566733583955,2026-01-20 19h20.25.464765 +0530,
,Objects\144a.jpg,67,0,68,,,,,f,1.0522769000381231,0.1922334999544546,None,,,,68,0,67,373.716300399974,,,,,,,,,,,,,,,,,,,,,,,373.70038440002827,373.716300399974,374.21658609999577,374.19995959999505,,,,,,,,,,,,,,,,,,,,,,374.2033694999991,374.21658609999577,374.21658609999577,374.21658609999577,377.21629070001654,377.21629070001654,377.21629070001654,377.20025609998265,f,1.0522769000381231,0.1922334999544546,377.2003081999719,377.2003197000013,None,,,,,,,,,,00026,001,2026-01-20_19h20.16.777,MST_task,2024.2.0,60.081566733583955,2026-01-20 19h20.25.464765 +0530,
,Objects\190a.jpg,68,0,69,,,,,f,1.368034399987664,0.19312509999144822,None,,,,69,0,68,377.21629070001654,,,,,,,,,,,,,,,,,,,,,,,377.20040249999147,377.21629070001654,377.71655980002834,377.6998783000163,,,,,,,,,,,,,,,,,,,,,,377.702543899999,377.71655980002834,377.71655980002834,377.71655980002834,380.7162878999952,380.7162878999952,380.7162878999952,380.7002687000204,f,1.368034399987664,0.19312509999144822,380.7003272000002,380.7003386999713,None,,,,,,,,,,00026,001,2026-01-20_19h20.16.777,MST_task,2024.2.0,60.081566733583955,2026-01-20 19h20.25.464765 +0530,
,Objects\063a.jpg,69,0,70,,,,,f,1.188028000004124,0.14399080001749098,None,,,,70,0,69,380.7162878999952,,,,,,,,,,,,,,,,,,,,,,,380.7004033999983,380.7162878999952,381.2165085999877,381.1999461000087,,,,,,,,,,,,,,,,,,,,,,381.2026906000101,381.2165085999877,381.2165085999877,381.2165085999877,384.21620660001645,384.21620660001645,384.21620660001645,384.200156899984,f,1.188028000004124,0.14399080001749098,384.20020850002766,384.200223700027,None,,,,,,,,,,00026,001,2026-01-20_19h20.16.777,MST_task,2024.2.0,60.081566733583955,2026-01-20 19h20.25.464765 +0530,
,Scenes\153a.jpg,70,0,71,,,,,j,1.0079809000017121,0.2242038999684155,None,,,,71,0,70,384.21620660001645,,,,,,,,,,,,,,,,,,,,,,,384.2003072000225,384.21620660001645,384.7167605999857,384.6998272999772,,,,,,,,,,,,,,,,,,,,,,384.70569819997763,384.7167605999857,384.7167605999857,384.7167605999857,387.71626900002593,387.71626900002593,387.71626900002593,387.7001190999872,j,1.0079809000017121,0.2242038999684155,387.70017000002554,387.7001809999929,None,,,,,,,,,,00026,001,2026-01-20_19h20.16.777,MST_task,2024.2.0,60.081566733583955,2026-01-20 19h20.25.464765 +0530,
,Scenes\081a.jpg,71,0,72,,,,,j,0.8762442999868654,0.20794360002037138,None,,,,72,0,71,387.71626900002593,,,,,,,,,,,,,,,,,,,,,,,387.7002655999968,387.71626900002593,388.2168374999892,388.19986310001696,,,,,,,,,,,,,,,,,,,,,,388.2102573000011,388.2168374999892,388.2168374999892,388.2168374999892,391.2163058000151,391.2163058000151,391.2163058000151,391.20031609997386,j,0.8762442999868654,0.20794360002037138,391.2003772999742,391.2003892000066,None,,,,,,,,,,00026,001,2026-01-20_19h20.16.777,MST_task,2024.2.0,60.081566733583955,2026-01-20 19h20.25.464765 +0530,
,Scenes\025a.jpg,72,0,73,,,,,j,1.095716400013771,0.21600660000694916,None,,,,73,0,72,391.2163058000151,,,,,,,,,,,,,,,,,,,,,,,391.2004808000056,391.2163058000151,391.7168714000145,391.69980900001246,,,,,,,,,,,,,,,,,,,,,,391.7101931999787,391.7168714000145,391.7168714000145,391.7168714000145,394.71637500001816,394.71637500001816,394.71637500001816,394.70039070001803,j,1.095716400013771,0.21600660000694916,394.7004524000222,394.70046570000704,None,,,,,,,,,,00026,001,2026-01-20_19h20.16.777,MST_task,2024.2.0,60.081566733583955,2026-01-20 19h20.25.464765 +0530,
,Scenes\167a.jpg,73,0,74,,,,,f,1.2043867000029422,0.17607470002258196,None,,,,74,0,73,394.71637500001816,,,,,,,,,,,,,,,,,,,,,,,394.70053420000477,394.71637500001816,395.2168960000272,395.19988069997635,,,,,,,,,,,,,,,,,,,,,,395.2098627000232,395.2168960000272,395.2168960000272,395.2168960000272,398.2166154999868,398.2166154999868,398.2166154999868,398.20013890002156,f,1.2043867000029422,0.17607470002258196,398.20019270002376,398.20020379999187,None,,,,,,,,,,00026,001,2026-01-20_19h20.16.777,MST_task,2024.2.0,60.081566733583955,2026-01-20 19h20.25.464765 +0530,
,Scenes\062a.jpg,74,0,75,,,,,j,0.9597024000249803,0.18399689998477697,None,,,,75,0,74,398.2166154999868,,,,,,,,,,,,,,,,,,,,,,,398.20031320001,398.2166154999868,398.7168811999727,398.6999331000261,,,,,,,,,,,,,,,,,,,,,,398.7102766999742,398.7168811999727,398.7168811999727,398.7168811999727,401.71628549997695,401.71628549997695,401.71628549997695,401.70021470001666,j,0.9597024000249803,0.18399689998477697,401.70027219998883,401.70028410002124,None,,,,,,,,,,00026,001,2026-01-20_19h20.16.777,MST_task,2024.2.0,60.081566733583955,2026-01-20 19h20.25.464765 +0530,
,Scenes\119a.jpg,75,0,76,,,,,j,0.6123623000457883,0.22397900000214577,None,,,,76,0,75,401.71628549997695,,,,,,,,,,,,,,,,,,,,,,,401.7003739000065,401.71628549997695,402.2168869000161,402.1998518999899,,,,,,,,,,,,,,,,,,,,,,402.20905379997566,402.2168869000161,402.2168869000161,402.2168869000161,405.21626690000994,405.21626690000994,405.21626690000994,405.20007580000674,j,0.6123623000457883,0.22397900000214577,405.20012699998915,405.20013840001775,None,,,,,,,,,,00026,001,2026-01-20_19h20.16.777,MST_task,2024.2.0,60.081566733583955,2026-01-20 19h20.25.464765 +0530,
,Scenes\072a.jpg,76,0,77,,,,,j,0.8357360999798402,0.19235670001944527,None,,,,77,0,76,405.21626690000994,,,,,,,,,,,,,,,,,,,,,,,405.200221600011,405.21626690000994,405.7208419999806,405.6998948000255,,,,,,,,,,,,,,,,,,,,,,405.71825979999267,405.7208419999806,405.7208419999806,405.7208419999806,,,,408.71650649997173,j,0.8357360999798402,0.19235670001944527,408.71655670000473,408.7165686999797,None,,,,,,,,,,00026,001,2026-01-20_19h20.16.777,MST_task,2024.2.0,60.081566733583955,2026-01-20 19h20.25.464765 +0530,
,Objects\135a.jpg,77,0,78,,,,,f,0.7399064999772236,0.2079647000064142,None,,,,78,0,77,408.7328055999824,,,,,,,,,,,,,,,,,,,,,,,408.7166534999851,408.7328055999824,409.2332869999809,409.21656490000896,,,,,,,,,,,,,,,,,,,,,,409.21984999999404,409.2332869999809,409.2332869999809,409.2332869999809,412.2329313000082,412.2329313000082,412.2329313000082,412.2168885000283,f,0.7399064999772236,0.2079647000064142,412.2169488000218,412.21696079999674,None,,,,,,,,,,00026,001,2026-01-20_19h20.16.777,MST_task,2024.2.0,60.081566733583955,2026-01-20 19h20.25.464765 +0530,
,Objects\119a.jpg,78,0,79,,,,,f,1.4725225999718532,0.21591530001023784,None,,,,79,0,78,412.2329313000082,,,,,,,,,,,,,,,,,,,,,,,412.21705129998736,412.2329313000082,412.7329406000208,412.71655820001615,,,,,,,,,,,,,,,,,,,,,,412.7191961000208,412.7329406000208,412.7329406000208,412.7329406000208,415.7327733000275,415.7327733000275,415.7327733000275,415.7168307999964,f,1.4725225999718532,0.21591530001023784,415.7168914999929,415.71690360002685,None,,,,,,,,,,00026,001,2026-01-20_19h20.16.777,MST_task,2024.2.0,60.081566733583955,2026-01-20 19h20.25.464765 +0530,
,Objects\181a.jpg,79,0,80,,,,,j,0.9649833000148647,0.22293779999017715,None,,,,80,0,79,415.7327733000275,,,,,,,,,,,,,,,,,,,,,,,415.7169873000239,415.7327733000275,416.23308949999046,416.21662989998003,,,,,,,,,,,,,,,,,,,,,,416.21959559997777,416.23308949999046,416.23308949999046,416.23308949999046,419.23282249999465,419.23282249999465,419.23282249999465,419.21685030002845,j,0.9649833000148647,0.22293779999017715,419.2169022000162,419.21691369998734,None,,,,,,,,,,00026,001,2026-01-20_19h20.16.777,MST_task,2024.2.0,60.081566733583955,2026-01-20 19h20.25.464765 +0530,
,Objects\191a.jpg,80,0,81,,,,,f,2.2320276999962516,0.22418359998846427,None,,,,81,0,80,419.23282249999465,,,,,,,,,,,,,,,,,,,,,,,419.2169783000136,419.23282249999465,419.73301399999764,419.7165889000171,,,,,,,,,,,,,,,,,,,,,,419.71923240000615,419.73301399999764,419.73301399999764,419.73301399999764,422.7327752999845,422.7327752999845,422.7327752999845,422.7170025000232,f,2.2320276999962516,0.22418359998846427,422.71706220001215,422.71707409998635,None,,,,,,,,,,00026,001,2026-01-20_19h20.16.777,MST_task,2024.2.0,60.081566733583955,2026-01-20 19h20.25.464765 +0530,
,Objects\065a.jpg,81,0,82,,,,,f,1.867677999951411,0.19199510000180453,None,,,,82,0,81,422.7327752999845,,,,,,,,,,,,,,,,,,,,,,,422.71716519998154,422.7327752999845,423.23308719997294,423.21657659998164,,,,,,,,,,,,,,,,,,,,,,423.21907849999843,423.23308719997294,423.23308719997294,423.23308719997294,426.2327722000191,426.2327722000191,426.2327722000191,426.21682959998725,f,1.867677999951411,0.19199510000180453,426.2168809999712,426.2168915999937,None,,,,,,,,,,00026,001,2026-01-20_19h20.16.777,MST_task,2024.2.0,60.081566733583955,2026-01-20 19h20.25.464765 +0530,
,Objects\009a.jpg,82,0,83,,,,,f,1.1605788000160828,0.20681669999612495,None,,,,83,0,82,426.2327722000191,,,,,,,,,,,,,,,,,,,,,,,426.2169737999793,426.2327722000191,426.73312079999596,426.71659079997335,,,,,,,,,,,,,,,,,,,,,,426.7193797000218,426.73312079999596,426.73312079999596,426.73312079999596,429.73284499999136,429.73284499999136,429.73284499999136,429.7170173000195,f,1.1605788000160828,0.20681669999612495,429.71708209998906,429.7170939000207,None,,,,,,,,,,00026,001,2026-01-20_19h20.16.777,MST_task,2024.2.0,60.081566733583955,2026-01-20 19h20.25.464765 +0530,
,Objects\138a.jpg,83,0,84,,,,,j,1.9245732999988832,0.1926116999820806,None,,,,84,0,83,429.73284499999136,,,,,,,,,,,,,,,,,,,,,,,429.7171622000169,429.73284499999136,430.2330812999862,430.21658609999577,,,,,,,,,,,,,,,,,,,,,,430.21934339997824,430.2330812999862,430.2330812999862,430.2330812999862,433.2327915999922,433.2327915999922,433.2327915999922,433.21685339999385,j,1.9245732999988832,0.1926116999820806,433.2169121999759,433.2169239000068,None,,,,,,,,,,00026,001,2026-01-20_19h20.16.777,MST_task,2024.2.0,60.081566733583955,2026-01-20 19h20.25.464765 +0530,
,Scenes\155a.jpg,84,0,85,,,,,j,1.3277095999801531,0.17603070003679022,None,,,,85,0,84,433.2327915999922,,,,,,,,,,,,,,,,,,,,,,,433.21701409999514,433.2327915999922,433.7333954999922,433.7165345000103,,,,,,,,,,,,,,,,,,,,,,433.725242000015,433.7333954999922,433.7333954999922,433.7333954999922,436.7328132999828,436.7328132999828,436.7328132999828,436.7169142999919,j,1.3277095999801531,0.17603070003679022,436.7169660999789,436.7169774000067,None,,,,,,,,,,00026,001,2026-01-20_19h20.16.777,MST_task,2024.2.0,60.081566733583955,2026-01-20 19h20.25.464765 +0530,
,Scenes\112a.jpg,85,0,86,,,,,j,1.1482490000198595,0.2068915999843739,None,,,,86,0,85,436.7328132999828,,,,,,,,,,,,,,,,,,,,,,,436.7170629000175,436.7328132999828,437.23364240000956,437.2164975000196,,,,,,,,,,,,,,,,,,,,,,437.2252784000011,437.23364240000956,437.23364240000956,437.23364240000956,440.2328676999896,440.2328676999896,440.2328676999896,440.21683889999986,j,1.1482490000198595,0.2068915999843739,440.2168899999815,440.2169011000078,None,,,,,,,,,,00026,001,2026-01-20_19h20.16.777,MST_task,2024.2.0,60.081566733583955,2026-01-20 19h20.25.464765 +0530,
,Scenes\164a.jpg,86,0,87,,,,,f,2.056208699999843,0.2235901999520138,None,,,,87,0,86,440.2328676999896,,,,,,,,,,,,,,,,,,,,,,,440.2169657999766,440.2328676999896,440.73335320001934,440.71661930001574,,,,,,,,,,,,,,,,,,,,,,440.72468350001145,440.73335320001934,440.73335320001934,440.73335320001934,443.7328113000258,443.7328113000258,443.7328113000258,443.716981799982,f,2.056208699999843,0.2235901999520138,443.7170441999915,443.7170559000224,None,,,,,,,,,,00026,001,2026-01-20_19h20.16.777,MST_task,2024.2.0,60.081566733583955,2026-01-20 19h20.25.464765 +0530,
,Scenes\171a.jpg,87,0,88,,,,,f,1.3237950999755412,0.23999939998611808,None,,,,88,0,87,443.7328113000258,,,,,,,,,,,,,,,,,,,,,,,443.7171245000209,443.7328113000258,444.2335315999808,444.21655980002834,,,,,,,,,,,,,,,,,,,,,,444.22772530000657,444.2335315999808,444.2335315999808,444.2335315999808,447.23281529999804,447.23281529999804,447.23281529999804,447.21684750000713,f,1.3237950999755412,0.23999939998611808,447.2168989999918,447.21691010001814,None,,,,,,,,,,00026,001,2026-01-20_19h20.16.777,MST_task,2024.2.0,60.081566733583955,2026-01-20 19h20.25.464765 +0530,
,Scenes\187a.jpg,88,0,89,,,,,j,0.879429699969478,0.22407190001104027,None,,,,89,0,88,447.23281529999804,,,,,,,,,,,,,,,,,,,,,,,447.21699390001595,447.23281529999804,447.7336324999924,447.7165418000077,,,,,,,,,,,,,,,,,,,,,,447.7253113000188,447.7336324999924,447.7336324999924,447.7336324999924,450.7328495000256,450.7328495000256,450.7328495000256,450.7169940000167,j,0.879429699969478,0.22407190001104027,450.7170449999976,450.7170566000277,None,,,,,,,,,,00026,001,2026-01-20_19h20.16.777,MST_task,2024.2.0,60.081566733583955,2026-01-20 19h20.25.464765 +0530,
,Scenes\068a.jpg,89,0,90,,,,,j,0.9160697000334039,0.21616680000443012,None,,,,90,0,89,450.7328495000256,,,,,,,,,,,,,,,,,,,,,,,450.7171197999851,450.7328495000256,451.23340409999946,451.2165139000281,,,,,,,,,,,,,,,,,,,,,,451.22534479998285,451.23340409999946,451.23340409999946,451.23340409999946,454.23288570001023,454.23288570001023,454.23288570001023,454.2168845999986,j,0.9160697000334039,0.21616680000443012,454.2169455999974,454.21695740002906,None,,,,,,,,,,00026,001,2026-01-20_19h20.16.777,MST_task,2024.2.0,60.081566733583955,2026-01-20 19h20.25.464765 +0530,
,Scenes\005a.jpg,90,0,91,,,,,f,1.4559278000378981,0.1763865000102669,None,,,,91,0,90,454.23288570001023,,,,,,,,,,,,,,,,,,,,,,,454.21704690001206,454.23288570001023,454.73331179999514,454.7165906999726,,,,,,,,,,,,,,,,,,,,,,454.7242144999909,454.73331179999514,454.73331179999514,454.73331179999514,457.73289059998933,457.73289059998933,457.73289059998933,457.7168849000009,f,1.4559278000378981,0.1763865000102669,457.71693619998405,457.71694790001493,None,,,,,,,,,,00026,001,2026-01-20_19h20.16.777,MST_task,2024.2.0,60.081566733583955,2026-01-20 19h20.25.464765 +0530,
,Objects\024a.jpg,91,0,92,,,,,f,1.6122966000111774,0.19922040001256391,None,,,,92,0,91,457.73289059998933,,,,,,,,,,,,,,,,,,,,,,,457.7170123999822,457.73289059998933,458.23319689999335,458.2165050000185,,,,,,,,,,,,,,,,,,,,,,458.2201079999795,458.23319689999335,458.23319689999335,458.23319689999335,461.2327891999739,461.2327891999739,461.2327891999739,461.21695480000926,f,1.6122966000111774,0.19922040001256391,461.2170063999947,461.21701750002103,None,,,,,,,,,,00026,001,2026-01-20_19h20.16.777,MST_task,2024.2.0,60.081566733583955,2026-01-20 19h20.25.464765 +0530,
,Objects\152a.jpg,92,0,93,,,,,j,2.0730190000031143,0.16716169996652752,None,,,,93,0,92,461.2327891999739,,,,,,,,,,,,,,,,,,,,,,,461.21710080001503,461.2327891999739,461.7329982999945,461.71661850000964,,,,,,,,,,,,,,,,,,,,,,461.7196007000166,461.7329982999945,461.7329982999945,461.7329982999945,464.7328663999797,464.7328663999797,464.7328663999797,464.7168809999712,j,2.0730190000031143,0.16716169996652752,464.7169407000183,464.71695279999403,None,,,,,,,,,,00026,001,2026-01-20_19h20.16.777,MST_task,2024.2.0,60.081566733583955,2026-01-20 19h20.25.464765 +0530,
,Objects\026a.jpg,93,0,94,,,,,j,1.7242724999669008,0.17545919999247417,None,,,,94,0,93,464.7328663999797,,,,,,,,,,,,,,,,,,,,,,,464.71704439999303,464.7328663999797,465.2331178999739,465.2164871999994,,,,,,,,,,,,,,,,,,,,,,465.21902459999546,465.2331178999739,465.2331178999739,465.2331178999739,468.23280340002384,468.23280340002384,468.23280340002384,468.21686970000155,j,1.7242724999669008,0.17545919999247417,468.2169205999817,468.2169312000042,None,,,,,,,,,,00026,001,2026-01-20_19h20.16.777,MST_task,2024.2.0,60.081566733583955,2026-01-20 19h20.25.464765 +0530,
,Objects\008a.jpg,94,0,95,,,,,f,1.7520397999905981,0.19960970000829548,None,,,,95,0,94,468.23280340002384,,,,,,,,,,,,,,,,,,,,,,,468.2170133999898,468.23280340002384,468.73315370001364,468.7166977999732,,,,,,,,,,,,,,,,,,,,,,468.7197013000259,468.73315370001364,468.73315370001364,468.73315370001364,471.7327760999906,471.7327760999906,471.7327760999906,471.71705749997636,f,1.7520397999905981,0.19960970000829548,471.71711730002426,471.71716719999677,None,,,,,,,,,,00026,001,2026-01-20_19h20.16.777,MST_task,2024.2.0,60.081566733583955,2026-01-20 19h20.25.464765 +0530,
,Objects\189a.jpg,95,0,96,,,,,f,1.4046593999955803,0.1759899000171572,None,,,,96,0,95,471.7327760999906,,,,,,,,,,,,,,,,,,,,,,,471.7172578999889,471.7327760999906,472.23312779999105,472.2164887000108,,,,,,,,,,,,,,,,,,,,,,472.2193582999753,472.23312779999105,472.23312779999105,472.23312779999105,475.2329722000286,475.2329722000286,475.2329722000286,475.2168320000055,f,1.4046593999955803,0.1759899000171572,475.21689009998227,475.2169016000116,None,,,,,,,,,,00026,001,2026-01-20_19h20.16.777,MST_task,2024.2.0,60.081566733583955,2026-01-20 19h20.25.464765 +0530,
,Objects\156a.jpg,96,0,97,,,,,f,1.759892600006424,0.159985099977348,None,,,,97,0,96,475.2329722000286,,,,,,,,,,,,,,,,,,,,,,,475.2169989999966,475.2329722000286,475.73326210002415,475.7166186000104,,,,,,,,,,,,,,,,,,,,,,475.7192136999802,475.73326210002415,475.73326210002415,475.73326210002415,478.7329819999868,478.7329819999868,478.7329819999868,478.71699649997754,f,1.759892600006424,0.159985099977348,478.71704670001054,478.7170573999756,None,,,,,,,,,,00026,001,2026-01-20_19h20.16.777,MST_task,2024.2.0,60.081566733583955,2026-01-20 19h20.25.464765 +0530,
,Objects\046a.jpg,97,0,98,,,,,f,1.2759325000224635,0.18389240000396967,None,,,,98,0,97,478.7329819999868,,,,,,,,,,,,,,,,,,,,,,,478.7171205999912,478.7329819999868,479.2332878999878,479.216794100008,,,,,,,,,,,,,,,,,,,,,,479.2192997999955,479.2332878999878,479.2332878999878,479.2332878999878,482.23304479999933,482.23304479999933,482.23304479999933,482.2169735999778,f,1.2759325000224635,0.18389240000396967,482.2170251000207,482.2170359999873,None,,,,,,,,,,00026,001,2026-01-20_19h20.16.777,MST_task,2024.2.0,60.081566733583955,2026-01-20 19h20.25.464765 +0530,
,Scenes\150a.jpg,98,0,99,,,,,j,0.6797448999714106,0.21621260000392795,None,,,,99,0,98,482.23304479999933,,,,,,,,,,,,,,,,,,,,,,,482.2170984999975,482.23304479999933,482.73364519997267,482.716642400017,,,,,,,,,,,,,,,,,,,,,,482.7245020000264,482.73364519997267,482.73364519997267,482.73364519997267,485.7330595999956,485.7330595999956,485.7330595999956,485.7169343000278,j,0.6797448999714106,0.21621260000392795,485.71698849997483,485.71700060000876,None,,,,,,,,,,00026,001,2026-01-20_19h20.16.777,MST_task,2024.2.0,60.081566733583955,2026-01-20 19h20.25.464765 +0530,
,Scenes\136a.jpg,99,0,100,,,,,f,1.7883079000166617,0.11953050002921373,None,,,,100,0,99,485.7330595999956,,,,,,,,,,,,,,,,,,,,,,,485.71708289999515,485.7330595999956,486.23349359998247,486.21655150002334,,,,,,,,,,,,,,,,,,,,,,486.2227505000192,486.23349359998247,486.23349359998247,486.23349359998247,489.23298339999747,489.23298339999747,489.23298339999747,489.2168849000009,f,1.7883079000166617,0.11953050002921373,489.2169397000107,489.2169512999826,None,,,,,,,,,,00026,001,2026-01-20_19h20.16.777,MST_task,2024.2.0,60.081566733583955,2026-01-20 19h20.25.464765 +0530,
,Scenes\027a.jpg,100,0,101,,,,,f,2.079437999986112,0.18422589998226613,None,,,,101,0,100,489.23298339999747,,,,,,,,,,,,,,,,,,,,,,,489.21704000001773,489.23298339999747,489.7336631999933,489.7166483000037,,,,,,,,,,,,,,,,,,,,,,489.72379010001896,489.7336631999933,489.7336631999933,489.7336631999933,492.73298029997386,492.73298029997386,492.73298029997386,492.71708580001723,f,2.079437999986112,0.18422589998226613,492.71714650001377,492.7171577999834,None,,,,,,,,,,00026,001,2026-01-20_19h20.16.777,MST_task,2024.2.0,60.081566733583955,2026-01-20 19h20.25.464765 +0530,
,Scenes\003a.jpg,101,0,102,,,,,f,1.1959220000426285,0.25573229999281466,None,,,,102,0,101,492.73298029997386,,,,,,,,,,,,,,,,,,,,,,,492.7172227000119,492.73298029997386,493.23366229998646,493.2167223999859,,,,,,,,,,,,,,,,,,,,,,493.226987299975,493.23366229998646,493.23366229998646,493.23366229998646,496.2330775000155,496.2330775000155,496.2330775000155,496.2169228999992,f,1.1959220000426285,0.25573229999281466,496.21697399998084,496.2169853000087,None,,,,,,,,,,00026,001,2026-01-20_19h20.16.777,MST_task,2024.2.0,60.081566733583955,2026-01-20 19h20.25.464765 +0530,
,Scenes\118a.jpg,102,0,103,,,,,j,0.7837265999987721,0.18336120003368706,None,,,,103,0,102,496.2330775000155,,,,,,,,,,,,,,,,,,,,,,,496.2170686000027,496.2330775000155,496.7335497000022,496.71665239997674,,,,,,,,,,,,,,,,,,,,,,496.7223501999979,496.7335497000022,496.7335497000022,496.7335497000022,499.73301139997784,499.73301139997784,499.73301139997784,499.7174450000166,j,0.7837265999987721,0.18336120003368706,499.7174985000165,499.7175098999869,None,,,,,,,,,,00026,001,2026-01-20_19h20.16.777,MST_task,2024.2.0,60.081566733583955,2026-01-20 19h20.25.464765 +0530,
,Scenes\172a.jpg,103,0,104,,,,,j,1.0349850000347942,0.20155910000903532,None,,,,104,0,103,499.73301139997784,,,,,,,,,,,,,,,,,,,,,,,499.7175929999794,499.73301139997784,500.23363769997377,500.2167633000063,,,,,,,,,,,,,,,,,,,,,,500.223528100003,500.23363769997377,500.23363769997377,500.23363769997377,503.2329867000226,503.2329867000226,503.2329867000226,503.2170420999755,j,1.0349850000347942,0.20155910000903532,503.2170926000108,503.21710389998043,None,,,,,,,,,,00026,001,2026-01-20_19h20.16.777,MST_task,2024.2.0,60.081566733583955,2026-01-20 19h20.25.464765 +0530,
,Scenes\160a.jpg,104,0,105,,,,,j,1.0556972000049427,0.21595429995795712,None,,,,105,0,104,503.2329867000226,,,,,,,,,,,,,,,,,,,,,,,503.21716699999524,503.2329867000226,503.73350480000954,503.716879900021,,,,,,,,,,,,,,,,,,,,,,503.7232399000204,503.73350480000954,503.73350480000954,503.73350480000954,506.73307499999646,506.73307499999646,506.73307499999646,506.71696669998346,j,1.0556972000049427,0.21595429995795712,506.7170192999765,506.7170305000036,None,,,,,,,,,,00026,001,2026-01-20_19h20.16.777,MST_task,2024.2.0,60.081566733583955,2026-01-20 19h20.25.464765 +0530,
,Objects\005a.jpg,105,0,106,,,,,f,1.2758408999652602,0.16802750003989786,None,,,,106,0,105,506.73307499999646,,,,,,,,,,,,,,,,,,,,,,,506.71711889997823,506.73307499999646,507.2332952999859,507.21676510002,,,,,,,,,,,,,,,,,,,,,,507.2199248999823,507.2332952999859,507.2332952999859,507.2332952999859,510.2330807999824,510.2330807999824,510.2330807999824,510.2169655999751,f,1.2758408999652602,0.16802750003989786,510.2170176000218,510.21703240001807,None,,,,,,,,,,00026,001,2026-01-20_19h20.16.777,MST_task,2024.2.0,60.081566733583955,2026-01-20 19h20.25.464765 +0530,
,Objects\048a.jpg,106,0,107,,,,,j,1.0715150000178255,0.16799340001307428,None,,,,107,0,106,510.2330807999824,,,,,,,,,,,,,,,,,,,,,,,510.2171164000174,510.2330807999824,510.7332927000243,510.71656289999373,,,,,,,,,,,,,,,,,,,,,,510.7193445999874,510.7332927000243,510.7332927000243,510.7332927000243,513.7328145999927,513.7328145999927,513.7328145999927,513.7167829999817,j,1.0715150000178255,0.16799340001307428,513.7168411000166,513.7168529999908,None,,,,,,,,,,00026,001,2026-01-20_19h20.16.777,MST_task,2024.2.0,60.081566733583955,2026-01-20 19h20.25.464765 +0530,
,Objects\100a.jpg,107,0,108,,,,,f,1.2598169000120834,0.15283769997768104,None,,,,108,0,107,513.7328145999927,,,,,,,,,,,,,,,,,,,,,,,513.7169192999718,513.7328145999927,514.233079699974,514.2165941999992,,,,,,,,,,,,,,,,,,,,,,514.2263997999835,514.233079699974,514.233079699974,514.233079699974,517.2330553000211,517.2330553000211,517.2330553000211,517.2168395000044,f,1.2598169000120834,0.15283769997768104,517.21688979998,517.2169012000086,None,,,,,,,,,,00026,001,2026-01-20_19h20.16.777,MST_task,2024.2.0,60.081566733583955,2026-01-20 19h20.25.464765 +0530,
,Objects\091a.jpg,108,0,109,,,,,f,1.62361960002454,0.20852809998905286,None,,,,109,0,108,517.2330553000211,,,,,,,,,,,,,,,,,,,,,,,517.2169639000203,517.2330553000211,517.7329973999877,517.7166577000171,,,,,,,,,,,,,,,,,,,,,,517.7191902999766,517.7329973999877,517.7329973999877,517.7329973999877,520.7328912999947,520.7328912999947,520.7328912999947,520.7171638000291,f,1.62361960002454,0.20852809998905286,520.7172286999994,520.7172470000223,None,,,,,,,,,,00026,001,2026-01-20_19h20.16.777,MST_task,2024.2.0,60.081566733583955,2026-01-20 19h20.25.464765 +0530,
,Objects\149a.jpg,109,0,110,,,,,f,1.548155799973756,0.19180420000338927,None,,,,110,0,109,520.7328912999947,,,,,,,,,,,,,,,,,,,,,,,520.717346200021,520.7328912999947,521.2331796999788,521.2166681999806,,,,,,,,,,,,,,,,,,,,,,521.2192190000205,521.2331796999788,521.2331796999788,521.2331796999788,524.2329202999827,524.2329202999827,524.2329202999827,524.217152600002,f,1.548155799973756,0.19180420000338927,524.2172170000267,524.2172295000055,None,,,,,,,,,,00026,001,2026-01-20_19h20.16.777,MST_task,2024.2.0,60.081566733583955,2026-01-20 19h20.25.464765 +0530,
,Objects\086a.jpg,110,0,111,,,,,f,2.287702299945522,0.20061750005697832,None,,,,111,0,110,524.2329202999827,,,,,,,,,,,,,,,,,,,,,,,524.2173614000203,524.2329202999827,524.7331429999904,524.7166408000048,,,,,,,,,,,,,,,,,,,,,,524.7190555999987,524.7331429999904,524.7331429999904,524.7331429999904,527.7330696000136,527.7330696000136,527.7330696000136,527.717261200014,f,2.287702299945522,0.20061750005697832,527.7173135000048,527.7173243999714,None,,,,,,,,,,00026,001,2026-01-20_19h20.16.777,MST_task,2024.2.0,60.081566733583955,2026-01-20 19h20.25.464765 +0530,
,Objects\029a.jpg,111,0,112,,,,,f,1.676196800020989,0.16072689997963607,None,,,,112,0,111,527.7330696000136,,,,,,,,,,,,,,,,,,,,,,,527.7174202000024,527.7330696000136,528.2331727999845,528.2166935999994,,,,,,,,,,,,,,,,,,,,,,528.2192338000168,528.2331727999845,528.2331727999845,528.2331727999845,531.2328141999897,531.2328141999897,531.2328141999897,531.217094200023,f,1.676196800020989,0.16072689997963607,531.217156699975,531.2171685000067,None,,,,,,,,,,00026,001,2026-01-20_19h20.16.777,MST_task,2024.2.0,60.081566733583955,2026-01-20 19h20.25.464765 +0530,
,Scenes\146a.jpg,112,0,113,,,,,j,1.1283923999872059,0.1668987000011839,None,,,,113,0,112,531.2328141999897,,,,,,,,,,,,,,,,,,,,,,,531.2172547000227,531.2328141999897,531.7335716999951,531.716539999994,,,,,,,,,,,,,,,,,,,,,,531.7262791999965,531.7335716999951,531.7335716999951,531.7335716999951,534.7329093000153,534.7329093000153,534.7329093000153,534.7168648000224,j,1.1283923999872059,0.1668987000011839,534.7169197999756,534.7169310000027,None,,,,,,,,,,00026,001,2026-01-20_19h20.16.777,MST_task,2024.2.0,60.081566733583955,2026-01-20 19h20.25.464765 +0530,
,Scenes\097a.jpg,113,0,114,,,,,f,2.8606585999950767,None,None,,,,114,0,113,534.7329093000153,,,,,,,,,,,,,,,,,,,,,,,534.717014599999,534.7329093000153,535.2332718999824,535.2166092999978,,,,,,,,,,,,,,,,,,,,,,535.2202084999881,535.2332718999824,535.2332718999824,535.2332718999824,538.2328059999854,538.2328059999854,538.2328059999854,538.216929199989,f,2.8606585999950767,None,538.2169853000087,538.2169967999798,None,,,,,,,,,,00026,001,2026-01-20_19h20.16.777,MST_task,2024.2.0,60.081566733583955,2026-01-20 19h20.25.464765 +0530,
,Scenes\016a.jpg,114,0,115,,,,,j,1.0238394999760203,0.18397020001430064,None,,,,115,0,114,538.2328059999854,,,,,,,,,,,,,,,,,,,,,,,538.217079300026,538.2328059999854,538.7334266999969,538.7166941000032,,,,,,,,,,,,,,,,,,,,,,538.7203599999775,538.7334266999969,538.7334266999969,538.7334266999969,541.7328198999749,541.7328198999749,541.7328198999749,541.716958199977,j,1.0238394999760203,0.18397020001430064,541.7170184000279,541.7170304000028,None,,,,,,,,,,00026,001,2026-01-20_19h20.16.777,MST_task,2024.2.0,60.081566733583955,2026-01-20 19h20.25.464765 +0530,
,Scenes\126a.jpg,115,0,116,,,,,j,1.1472930000163615,0.14401049999287352,None,,,,116,0,115,541.7328198999749,,,,,,,,,,,,,,,,,,,,,,,541.7171263999771,541.7328198999749,542.2334198000026,542.2165267000091,,,,,,,,,,,,,,,,,,,,,,542.2239563000039,542.2334198000026,542.2334198000026,542.2334198000026,,,,545.2171595999971,j,1.1472930000163615,0.14401049999287352,545.2172449000063,545.217259099998,None,,,,,,,,,,00026,001,2026-01-20_19h20.16.777,MST_task,2024.2.0,60.081566733583955,2026-01-20 19h20.25.464765 +0530,
,Scenes\085a.jpg,116,0,117,,,,,j,1.1280744999530725,0.20864640001673251,None,,,,117,0,116,545.2328022000147,,,,,,,,,,,,,,,,,,,,,,,545.2173497999902,545.2328022000147,545.7334385999711,545.7165640000021,,,,,,,,,,,,,,,,,,,,,,545.7267807999742,545.7334385999711,545.7334385999711,545.7334385999711,548.7329136999906,548.7329136999906,548.7329136999906,548.7172638999764,j,1.1280744999530725,0.20864640001673251,548.7173218000098,548.7173326999764,None,,,,,,,,,,00026,001,2026-01-20_19h20.16.777,MST_task,2024.2.0,60.081566733583955,2026-01-20 19h20.25.464765 +0530,
,Scenes\095a.jpg,117,0,118,,,,,f,1.836227499996312,0.16752260003704578,None,,,,118,0,117,548.7329136999906,,,,,,,,,,,,,,,,,,,,,,,548.7174155000248,548.7329136999906,549.2333858999773,549.2166122000199,,,,,,,,,,,,,,,,,,,,,,549.2238989999751,549.2333858999773,549.2333858999773,549.2333858999773,552.2328254000167,552.2328254000167,552.2328254000167,552.2170846000081,f,1.836227499996312,0.16752260003704578,552.2171429999871,552.217154300015,None,,,,,,,,,,00026,001,2026-01-20_19h20.16.777,MST_task,2024.2.0,60.081566733583955,2026-01-20 19h20.25.464765 +0530,
,Scenes\087a.jpg,118,0,119,,,,,j,1.6476472999784164,0.1917128000059165,None,,,,119,0,118,552.2328254000167,,,,,,,,,,,,,,,,,,,,,,,552.2172406999744,552.2328254000167,552.7334877999965,552.7165220999741,,,,,,,,,,,,,,,,,,,,,,552.7217648000224,552.7334877999965,552.7334877999965,552.7334877999965,555.7329419999733,555.7329419999733,555.7329419999733,555.716740200005,j,1.6476472999784164,0.1917128000059165,555.7167972999741,555.7168085000012,None,,,,,,,,,,00026,001,2026-01-20_19h20.16.777,MST_task,2024.2.0,60.081566733583955,2026-01-20 19h20.25.464765 +0530,
,Objects\041a.jpg,119,0,120,,,,,f,1.9313443999853916,0.1680077000055462,None,,,,120,0,119,555.7329419999733,,,,,,,,,,,,,,,,,,,,,,,555.7168744999799,555.7329419999733,556.2333748000092,556.2165862999973,,,,,,,,,,,,,,,,,,,,,,556.2199797999929,556.2333748000092,556.2333748000092,556.2333748000092,559.2329141999944,559.2329141999944,559.2329141999944,559.2168099000119,f,1.9313443999853916,0.1680077000055462,559.2168616999988,559.2168730000267,None,,,,,,,,,,00026,001,2026-01-20_19h20.16.777,MST_task,2024.2.0,60.081566733583955,2026-01-20 19h20.25.464765 +0530,
,Objects\150a.jpg,120,0,121,,,,,f,2.872641400026623,None,None,,,,121,0,120,559.2329141999944,,,,,,,,,,,,,,,,,,,,,,,559.2169573000283,559.2329141999944,559.7330485000275,559.7165793000022,,,,,,,,,,,,,,,,,,,,,,559.7191709000035,559.7330485000275,559.7330485000275,559.7330485000275,562.7328818999813,562.7328818999813,562.7328818999813,562.7171492999769,f,2.872641400026623,None,562.7172070000088,562.7172186999815,None,,,,,,,,,,00026,001,2026-01-20_19h20.16.777,MST_task,2024.2.0,60.081566733583955,2026-01-20 19h20.25.464765 +0530,
,Objects\017a.jpg,121,0,122,,,,,f,1.6838429999770597,0.1603002999909222,None,,,,122,0,121,562.7328818999813,,,,,,,,,,,,,,,,,,,,,,,562.7172825000016,562.7328818999813,563.2329797000275,563.2165745000239,,,,,,,,,,,,,,,,,,,,,,563.2192465999979,563.2329797000275,563.2329797000275,563.2329797000275,566.2328086000052,566.2328086000052,566.2328086000052,566.2168978999835,f,1.6838429999770597,0.1603002999909222,566.2169520999887,566.2169630000135,None,,,,,,,,,,00026,001,2026-01-20_19h20.16.777,MST_task,2024.2.0,60.081566733583955,2026-01-20 19h20.25.464765 +0530,
,Objects\104a.jpg,122,0,123,,,,,f,0.7923279000096954,0.20786889997543767,None,,,,123,0,122,566.2328086000052,,,,,,,,,,,,,,,,,,,,,,,566.2170332000242,566.2328086000052,566.7331313000177,566.7165811000159,,,,,,,,,,,,,,,,,,,,,,566.7195471000159,566.7331313000177,566.7331313000177,566.7331313000177,569.7328440999845,569.7328440999845,569.7328440999845,569.7169221999939,f,0.7923279000096954,0.20786889997543767,569.7169745999854,569.7169855000102,None,,,,,,,,,,00026,001,2026-01-20_19h20.16.777,MST_task,2024.2.0,60.081566733583955,2026-01-20 19h20.25.464765 +0530,
,Objects\083a.jpg,123,0,124,,,,,f,1.8201228000107221,0.17599930003052577,None,,,,124,0,123,569.7328440999845,,,,,,,,,,,,,,,,,,,,,,,569.7170708000194,569.7328440999845,570.2334058000124,570.2165825000266,,,,,,,,,,,,,,,,,,,,,,570.2192076999927,570.2334058000124,570.2334058000124,570.2334058000124,573.2328764999984,573.2328764999984,573.2328764999984,573.2169712000177,f,1.8201228000107221,0.17599930003052577,573.2170322000165,573.2170437999885,None,,,,,,,,,,00026,001,2026-01-20_19h20.16.777,MST_task,2024.2.0,60.081566733583955,2026-01-20 19h20.25.464765 +0530,
,Objects\107a.jpg,124,0,125,,,,,f,1.7514815999893472,0.21672319999197498,None,,,,125,0,124,573.2328764999984,,,,,,,,,,,,,,,,,,,,,,,573.2171121999854,573.2328764999984,573.7331173000275,573.7165929999901,,,,,,,,,,,,,,,,,,,,,,573.7191981999786,573.7331173000275,573.7331173000275,573.7331173000275,576.7328466000035,576.7328466000035,576.7328466000035,576.7169122999767,f,1.7514815999893472,0.21672319999197498,576.7169655999751,576.7169771000044,None,,,,,,,,,,00026,001,2026-01-20_19h20.16.777,MST_task,2024.2.0,60.081566733583955,2026-01-20 19h20.25.464765 +0530,
,Objects\081a.jpg,125,0,126,,,,,j,0.9408202999620698,0.231111700006295,None,,,,126,0,125,576.7328466000035,,,,,,,,,,,,,,,,,,,,,,,576.7170615000068,576.7328466000035,577.2330551000196,577.2165262000053,,,,,,,,,,,,,,,,,,,,,,577.2192017000052,577.2330551000196,577.2330551000196,577.2330551000196,580.2328198999749,580.2328198999749,580.2328198999749,580.2167629000032,j,0.9408202999620698,0.231111700006295,580.2168145999894,580.216825600015,None,,,,,,,,,,00026,001,2026-01-20_19h20.16.777,MST_task,2024.2.0,60.081566733583955,2026-01-20 19h20.25.464765 +0530,
,Scenes\142a.jpg,126,0,127,,,,,j,1.1916100999806076,0.1679827999905683,None,,,,127,0,126,580.2328198999749,,,,,,,,,,,,,,,,,,,,,,,580.2168905999861,580.2328198999749,580.7334263999946,580.7167044000234,,,,,,,,,,,,,,,,,,,,,,580.7263008999871,580.7334263999946,580.7334263999946,580.7334263999946,583.7328721000231,583.7328721000231,583.7328721000231,583.7169262000243,j,1.1916100999806076,0.1679827999905683,583.716985600011,583.7169972999836,None,,,,,,,,,,00026,001,2026-01-20_19h20.16.777,MST_task,2024.2.0,60.081566733583955,2026-01-20 19h20.25.464765 +0530,
,Scenes\170a.jpg,127,0,128,,,,,j,0.8926447000121698,0.19119460001820698,None,,,,128,0,127,583.7328721000231,,,,,,,,,,,,,,,,,,,,,,,583.7170843000058,583.7328721000231,584.2332768000197,584.2165762999794,,,,,,,,,,,,,,,,,,,,,,584.2262890000129,584.2332768000197,584.2332768000197,584.2332768000197,587.2328565000207,587.2328565000207,587.2328565000207,587.2169221999939,j,0.8926447000121698,0.19119460001820698,587.2169819999835,587.2169933000114,None,,,,,,,,,,00026,001,2026-01-20_19h20.16.777,MST_task,2024.2.0,60.081566733583955,2026-01-20 19h20.25.464765 +0530,
,Scenes\104a.jpg,128,0,129,,,,,f,1.5596296000294387,0.19201339996652678,None,,,,129,0,128,587.2328565000207,,,,,,,,,,,,,,,,,,,,,,,587.2170581999817,587.2328565000207,587.7336320999893,587.7165865999996,,,,,,,,,,,,,,,,,,,,,,587.7261059000157,587.7336320999893,587.7336320999893,587.7336320999893,590.7329176000203,590.7329176000203,590.7329176000203,590.7168859000085,f,1.5596296000294387,0.19201339996652678,590.7169384000008,590.7169493000256,None,,,,,,,,,,00026,001,2026-01-20_19h20.16.777,MST_task,2024.2.0,60.081566733583955,2026-01-20 19h20.25.464765 +0530,
,Scenes\098a.jpg,129,0,130,,,,,f,0.9234581000055186,0.20799970004009083,None,,,,130,0,129,590.7329176000203,,,,,,,,,,,,,,,,,,,,,,,590.717012499983,590.7329176000203,591.2333821000066,591.2166157999891,,,,,,,,,,,,,,,,,,,,,,591.2226659000153,591.2333821000066,591.2333821000066,591.2333821000066,594.2330141999992,594.2330141999992,594.2330141999992,594.2172382000135,f,0.9234581000055186,0.20799970004009083,594.2172962999903,594.2173082000227,None,,,,,,,,,,00026,001,2026-01-20_19h20.16.777,MST_task,2024.2.0,60.081566733583955,2026-01-20 19h20.25.464765 +0530,
,Scenes\006a.jpg,130,0,131,,,,,f,2.431787899986375,0.18399140000110492,None,,,,131,0,130,594.2330141999992,,,,,,,,,,,,,,,,,,,,,,,594.2173747000052,594.2330141999992,594.7336508000153,594.7166677999776,,,,,,,,,,,,,,,,,,,,,,594.7234003000194,594.7336508000153,594.7336508000153,594.7336508000153,597.7330638000276,597.7330638000276,597.7330638000276,597.7170557000209,f,2.431787899986375,0.18399140000110492,597.7171173000243,597.7171286999946,None,,,,,,,,,,00026,001,2026-01-20_19h20.16.777,MST_task,2024.2.0,60.081566733583955,2026-01-20 19h20.25.464765 +0530,
,Scenes\184a.jpg,131,0,132,,,,,j,1.3796773999929428,0.19996850000461563,None,,,,132,0,131,597.7330638000276,,,,,,,,,,,,,,,,,,,,,,,597.7171947999741,597.7330638000276,598.2336446000263,598.2166481000022,,,,,,,,,,,,,,,,,,,,,,598.2238936999929,598.2336446000263,598.2336446000263,598.2336446000263,601.2331239000196,601.2331239000196,601.2331239000196,601.2170252000215,j,1.3796773999929428,0.19996850000461563,601.2170823999913,601.2170944000245,None,,,,,,,,,,00026,001,2026-01-20_19h20.16.777,MST_task,2024.2.0,60.081566733583955,2026-01-20 19h20.25.464765 +0530,
,Scenes\045a.jpg,132,0,133,,,,,j,1.727666999970097,0.1679963000351563,None,,,,133,0,132,601.2331239000196,,,,,,,,,,,,,,,,,,,,,,,601.2171611000085,601.2331239000196,601.7335447000223,601.7168759999913,,,,,,,,,,,,,,,,,,,,,,601.7284054000047,601.7335447000223,601.7335447000223,601.7335447000223,604.7330397000187,604.7330397000187,604.7330397000187,604.7172016000259,j,1.727666999970097,0.1679963000351563,604.7172615000163,604.7172732999898,None,,,,,,,,,,00026,001,2026-01-20_19h20.16.777,MST_task,2024.2.0,60.081566733583955,2026-01-20 19h20.25.464765 +0530,
,Objects\016a.jpg,133,0,134,,,,,f,1.7073561999714002,0.2004523000214249,None,,,,134,0,133,604.7330397000187,,,,,,,,,,,,,,,,,,,,,,,604.7173392000259,604.7330397000187,605.2336359000183,605.2167038000189,,,,,,,,,,,,,,,,,,,,,,605.2201975000207,605.2336359000183,605.2336359000183,605.2336359000183,608.2330497999792,608.2330497999792,608.2330497999792,608.2169372999924,f,1.7073561999714002,0.2004523000214249,608.2169884999748,608.2169998000027,None,,,,,,,,,,00026,001,2026-01-20_19h20.16.777,MST_task,2024.2.0,60.081566733583955,2026-01-20 19h20.25.464765 +0530,
,Objects\113a.jpg,134,0,135,,,,,f,1.5121784000075422,0.17513920000055805,None,,,,135,0,134,608.2330497999792,,,,,,,,,,,,,,,,,,,,,,,608.2171211999957,608.2330497999792,608.7333123999997,608.7167285999749,,,,,,,,,,,,,,,,,,,,,,608.719520899991,608.7333123999997,608.7333123999997,608.7333123999997,611.7330039999797,611.7330039999797,611.7330039999797,611.7169233000022,f,1.5121784000075422,0.17513920000055805,611.716979400022,611.7169904999901,None,,,,,,,,,,00026,001,2026-01-20_19h20.16.777,MST_task,2024.2.0,60.081566733583955,2026-01-20 19h20.25.464765 +0530,
,Objects\126a.jpg,135,0,136,,,,,f,2.020513299969025,0.2073699000175111,None,,,,136,0,135,611.7330039999797,,,,,,,,,,,,,,,,,,,,,,,611.7170620000106,611.7330039999797,612.2332989000133,612.2166773999925,,,,,,,,,,,,,,,,,,,,,,612.2193093000096,612.2332989000133,612.2332989000133,612.2332989000133,615.2330033999751,615.2330033999751,615.2330033999751,615.2169302999973,f,2.020513299969025,0.2073699000175111,615.2169905999908,615.2170024000225,None,,,,,,,,,,00026,001,2026-01-20_19h20.16.777,MST_task,2024.2.0,60.081566733583955,2026-01-20 19h20.25.464765 +0530,
,Objects\169a.jpg,136,0,137,,,,,f,2.288444600009825,0.15138420002767816,None,,,,137,0,136,615.2330033999751,,,,,,,,,,,,,,,,,,,,,,,615.2170719000278,615.2330033999751,615.7333330999827,615.7168148999917,,,,,,,,,,,,,,,,,,,,,,615.7193883000291,615.7333330999827,615.7333330999827,615.7333330999827,618.7330463000108,618.7330463000108,618.7330463000108,618.7172036999837,f,2.288444600009825,0.15138420002767816,618.7172680000076,618.7172798999818,None,,,,,,,,,,00026,001,2026-01-20_19h20.16.777,MST_task,2024.2.0,60.081566733583955,2026-01-20 19h20.25.464765 +0530,
,Objects\172a.jpg,137,0,138,,,,,j,1.5795033000176772,0.2410511000198312,None,,,,138,0,137,618.7330463000108,,,,,,,,,,,,,,,,,,,,,,,618.7173464000225,618.7330463000108,619.2331512999954,619.2167934000026,,,,,,,,,,,,,,,,,,,,,,619.2196876999806,619.2331512999954,619.2331512999954,619.2331512999954,622.2329921000055,622.2329921000055,622.2329921000055,622.2170252000215,j,1.5795033000176772,0.2410511000198312,622.2170764000039,622.2170877999743,None,,,,,,,,,,00026,001,2026-01-20_19h20.16.777,MST_task,2024.2.0,60.081566733583955,2026-01-20 19h20.25.464765 +0530,
,Objects\073a.jpg,138,0,139,,,,,f,1.0963156999787316,0.19199309998657554,None,,,,139,0,138,622.2329921000055,,,,,,,,,,,,,,,,,,,,,,,622.2171708000242,622.2329921000055,622.7331879999838,622.7167309999932,,,,,,,,,,,,,,,,,,,,,,622.7192253000103,622.7331879999838,622.7331879999838,622.7331879999838,625.7332627999713,625.7332627999713,625.7332627999713,625.717174999998,f,1.0963156999787316,0.19199309998657554,625.7172443000018,625.717256199976,None,,,,,,,,,,00026,001,2026-01-20_19h20.16.777,MST_task,2024.2.0,60.081566733583955,2026-01-20 19h20.25.464765 +0530,
,Objects\051a.jpg,139,0,140,,,,,f,1.5883043999783695,0.18402829999104142,None,,,,140,0,139,625.7332627999713,,,,,,,,,,,,,,,,,,,,,,,625.7173538000206,625.7332627999713,626.2332390000229,626.2169242000091,,,,,,,,,,,,,,,,,,,,,,626.2195345999789,626.2332390000229,626.2332390000229,626.2332390000229,629.2330757000018,629.2330757000018,629.2330757000018,629.2169084000052,f,1.5883043999783695,0.18402829999104142,629.2169615000021,629.2169726000284,None,,,,,,,,,,00026,001,2026-01-20_19h20.16.777,MST_task,2024.2.0,60.081566733583955,2026-01-20 19h20.25.464765 +0530,
,Scenes\070a.jpg,140,0,141,,,,,j,1.9432588000199758,0.2079840999795124,None,,,,141,0,140,629.2330757000018,,,,,,,,,,,,,,,,,,,,,,,629.21704030002,629.2330757000018,629.733467300015,629.7167071999866,,,,,,,,,,,,,,,,,,,,,,629.7269821999944,629.733467300015,629.733467300015,629.733467300015,632.7329243000131,632.7329243000131,632.7329243000131,632.7170751999947,j,1.9432588000199758,0.2079840999795124,632.7171598999994,632.7171723999782,None,,,,,,,,,,00026,001,2026-01-20_19h20.16.777,MST_task,2024.2.0,60.081566733583955,2026-01-20 19h20.25.464765 +0530,
,Scenes\044a.jpg,141,0,142,,,,,j,1.844287300016731,0.20700419996865094,None,,,,142,0,141,632.7329243000131,,,,,,,,,,,,,,,,,,,,,,,632.7172697000206,632.7329243000131,633.2336364000221,633.2167652000207,,,,,,,,,,,,,,,,,,,,,,633.2234885999933,633.2336364000221,633.2336364000221,633.2336364000221,636.2329164000112,636.2329164000112,636.2329164000112,636.2169484000187,j,1.844287300016731,0.20700419996865094,636.2170108000282,636.2170229000039,None,,,,,,,,,,00026,001,2026-01-20_19h20.16.777,MST_task,2024.2.0,60.081566733583955,2026-01-20 19h20.25.464765 +0530,
,Scenes\141a.jpg,142,0,143,,,,,j,0.920140000001993,0.22290789999533445,None,,,,143,0,142,636.2329164000112,,,,,,,,,,,,,,,,,,,,,,,636.2170912000001,636.2329164000112,636.7336445000255,636.7166918999865,,,,,,,,,,,,,,,,,,,,,,636.7224374000216,636.7336445000255,636.7336445000255,636.7336445000255,639.7328660999774,639.7328660999774,639.7328660999774,639.7170427999808,j,0.920140000001993,0.22290789999533445,639.7171063999995,639.7171191999805,None,,,,,,,,,,00026,001,2026-01-20_19h20.16.777,MST_task,2024.2.0,60.081566733583955,2026-01-20 19h20.25.464765 +0530,
,Scenes\078a.jpg,143,0,144,,,,,j,1.8285324000171386,0.17500049999216571,None,,,,144,0,143,639.7328660999774,,,,,,,,,,,,,,,,,,,,,,,639.7172122999909,639.7328660999774,640.233441999997,640.2168728000252,,,,,,,,,,,,,,,,,,,,,,640.2260978000122,640.233441999997,640.233441999997,640.233441999997,,,,643.2173033999861,j,1.8285324000171386,0.17500049999216571,643.217356899986,643.2173693000223,None,,,,,,,,,,00026,001,2026-01-20_19h20.16.777,MST_task,2024.2.0,60.081566733583955,2026-01-20 19h20.25.464765 +0530,
,Scenes\079a.jpg,144,0,145,,,,,j,1.1511930000269786,0.2159869999741204,None,,,,145,0,144,643.2328444999876,,,,,,,,,,,,,,,,,,,,,,,643.2174809999997,643.2328444999876,643.7333910000161,643.716904699977,,,,,,,,,,,,,,,,,,,,,,643.7227476999979,643.7333910000161,643.7333910000161,643.7333910000161,646.7329119999777,646.7329119999777,646.7329119999777,646.7170742999879,j,1.1511930000269786,0.2159869999741204,646.7171352999867,646.7171592999948,None,,,,,,,,,,00026,001,2026-01-20_19h20.16.777,MST_task,2024.2.0,60.081566733583955,2026-01-20 19h20.25.464765 +0530,
,Scenes\125a.jpg,145,0,146,,,,,j,1.0599710999522358,0.2073581000440754,None,,,,146,0,145,646.7329119999777,,,,,,,,,,,,,,,,,,,,,,,646.7172614000156,646.7329119999777,647.2336274000118,647.2166614999878,,,,,,,,,,,,,,,,,,,,,,647.227304,647.2336274000118,647.2336274000118,647.2336274000118,650.2330081000109,650.2330081000109,650.2330081000109,650.2168671999825,j,1.0599710999522358,0.2073581000440754,650.2169246000121,650.2169363999856,None,,,,,,,,,,00026,001,2026-01-20_19h20.16.777,MST_task,2024.2.0,60.081566733583955,2026-01-20 19h20.25.464765 +0530,
,Scenes\159a.jpg,146,0,147,,,,,j,0.9600341999903321,0.1995009999955073,None,,,,147,0,146,650.2330081000109,,,,,,,,,,,,,,,,,,,,,,,650.2170276999823,650.2330081000109,650.7334623999777,650.7168657999719,,,,,,,,,,,,,,,,,,,,,,650.7286495000008,650.7334623999777,650.7334623999777,650.7334623999777,653.7327891999739,653.7327891999739,653.7327891999739,653.716833500017,j,0.9600341999903321,0.1995009999955073,653.7168867000146,653.7168985999888,None,,,,,,,,,,00026,001,2026-01-20_19h20.16.777,MST_task,2024.2.0,60.081566733583955,2026-01-20 19h20.25.464765 +0530,
,Objects\125a.jpg,147,0,148,,,,,j,1.380063600023277,0.2080063999746926,None,,,,148,0,147,653.7327891999739,,,,,,,,,,,,,,,,,,,,,,,653.7169807999744,653.7327891999739,654.233435800008,654.2165816000197,,,,,,,,,,,,,,,,,,,,,,654.2199925999739,654.233435800008,654.233435800008,654.233435800008,657.2328429999761,657.2328429999761,657.2328429999761,657.2168997999979,j,1.380063600023277,0.2080063999746926,657.216956600023,657.216969000001,None,,,,,,,,,,00026,001,2026-01-20_19h20.16.777,MST_task,2024.2.0,60.081566733583955,2026-01-20 19h20.25.464765 +0530,
,Objects\146a.jpg,148,0,149,,,,,j,2.1281958000035957,0.18398650002200156,None,,,,149,0,148,657.2328429999761,,,,,,,,,,,,,,,,,,,,,,,657.2170606,657.2328429999761,657.7330442999955,657.7165745000239,,,,,,,,,,,,,,,,,,,,,,657.7191786000039,657.7330442999955,657.7330442999955,657.7330442999955,660.7329489000258,660.7329489000258,660.7329489000258,660.7168515999801,j,2.1281958000035957,0.18398650002200156,660.7169038000284,660.7169151999988,None,,,,,,,,,,00026,001,2026-01-20_19h20.16.777,MST_task,2024.2.0,60.081566733583955,2026-01-20 19h20.25.464765 +0530,
,Objects\034a.jpg,149,0,150,,,,,f,1.1074664000188932,0.20894739998038858,None,,,,150,0,149,660.7329489000258,,,,,,,,,,,,,,,,,,,,,,,660.716979400022,660.7329489000258,661.2331454000087,661.2167801000178,,,,,,,,,,,,,,,,,,,,,,661.2199859999819,661.2331454000087,661.2331454000087,661.2331454000087,664.23280659999,664.23280659999,664.23280659999,664.2169316000072,f,1.1074664000188932,0.20894739998038858,664.2169844000018,664.2169959999737,None,,,,,,,,,,00026,001,2026-01-20_19h20.16.777,MST_task,2024.2.0,60.081566733583955,2026-01-20 19h20.25.464765 +0530,
,Objects\093a.jpg,150,0,151,,,,,j,1.1677874000160955,0.21616739995079115,None,,,,151,0,150,664.23280659999,,,,,,,,,,,,,,,,,,,,,,,664.2171393000172,664.23280659999,664.733077700017,664.7166394999949,,,,,,,,,,,,,,,,,,,,,,664.7193751999876,664.733077700017,664.733077700017,664.733077700017,667.7328575000283,667.7328575000283,667.7328575000283,667.7171875999775,j,1.1677874000160955,0.21616739995079115,667.7172452000086,667.7172570999828,None,,,,,,,,,,00026,001,2026-01-20_19h20.16.777,MST_task,2024.2.0,60.081566733583955,2026-01-20 19h20.25.464765 +0530,
,Objects\062a.jpg,151,0,152,,,,,f,0.8356995999929495,0.19194640003843233,None,,,,152,0,151,667.7328575000283,,,,,,,,,,,,,,,,,,,,,,,667.7173261999851,667.7328575000283,668.2330048999866,668.2165115000098,,,,,,,,,,,,,,,,,,,,,,668.2192205999745,668.2330048999866,668.2330048999866,668.2330048999866,671.232887900027,671.232887900027,671.232887900027,671.2167622999987,f,0.8356995999929495,0.19194640003843233,671.216819800029,671.2168317000032,None,,,,,,,,,,00026,001,2026-01-20_19h20.16.777,MST_task,2024.2.0,60.081566733583955,2026-01-20 19h20.25.464765 +0530,
,Objects\004a.jpg,152,0,153,,,,,f,2.279510499967728,0.18397780001396313,None,,,,153,0,152,671.232887900027,,,,,,,,,,,,,,,,,,,,,,,671.216900200001,671.232887900027,671.733125299972,671.7166046000202,,,,,,,,,,,,,,,,,,,,,,671.7192465999979,671.733125299972,671.733125299972,671.733125299972,674.7350438999711,674.7350438999711,674.7350438999711,674.7170313000097,f,2.279510499967728,0.18397780001396313,674.7170845000073,674.7170954999747,None,,,,,,,,,,00026,001,2026-01-20_19h20.16.777,MST_task,2024.2.0,60.081566733583955,2026-01-20 19h20.25.464765 +0530,
,Objects\111a.jpg,153,0,154,,,,,f,0.7068720000097528,0.21652640000684187,None,,,,154,0,153,674.7350438999711,,,,,,,,,,,,,,,,,,,,,,,674.717160900007,674.7350438999711,,675.2329297999968,,,,,,,,,,,,,,,,,,,,,,675.2356054999982,675.2498498000205,675.2498498000205,675.2498498000205,,,,678.233154400019,f,0.7068720000097528,0.21652640000684187,678.2332194999908,678.233233099978,None,,,,,,,,,,00026,001,2026-01-20_19h20.16.777,MST_task,2024.2.0,60.081566733583955,2026-01-20 19h20.25.464765 +0530,
,Scenes\156a.jpg,154,0,155,,,,,j,0.9832640999811701,0.2160174999735318,None,,,,155,0,154,678.2497702999972,,,,,,,,,,,,,,,,,,,,,,,678.2333295000135,678.2497702999972,678.7501500999788,678.7331111999811,,,,,,,,,,,,,,,,,,,,,,678.7411857999978,678.7501500999788,678.7501500999788,678.7501500999788,681.7497906999779,681.7497906999779,681.7497906999779,681.7335236999788,j,0.9832640999811701,0.2160174999735318,681.7335847999784,681.7335972000146,None,,,,,,,,,,00026,001,2026-01-20_19h20.16.777,MST_task,2024.2.0,60.081566733583955,2026-01-20 19h20.25.464765 +0530,
,Scenes\049a.jpg,155,0,156,,,,,j,0.6428925999789499,0.17617120000068098,None,,,,156,0,155,681.7497906999779,,,,,,,,,,,,,,,,,,,,,,,681.7336950000026,681.7497906999779,682.2501995000057,682.2331161000184,,,,,,,,,,,,,,,,,,,,,,682.2409281000146,682.2501995000057,682.2501995000057,682.2501995000057,685.2496515000239,685.2496515000239,685.2496515000239,685.2335611999733,j,0.6428925999789499,0.17617120000068098,685.233618600003,685.2336305999779,None,,,,,,,,,,00026,001,2026-01-20_19h20.16.777,MST_task,2024.2.0,60.081566733583955,2026-01-20 19h20.25.464765 +0530,
,Scenes\053a.jpg,156,0,157,,,,,j,1.6946640000096522,0.16802360001020133,None,,,,157,0,156,685.2496515000239,,,,,,,,,,,,,,,,,,,,,,,685.233716399991,685.2496515000239,685.7500488000223,685.7330473000184,,,,,,,,,,,,,,,,,,,,,,685.7358443000121,685.7500488000223,685.7500488000223,685.7500488000223,688.7497283000266,688.7497283000266,688.7497283000266,688.7335894000134,j,1.6946640000096522,0.16802360001020133,688.733647599991,688.7336596000241,None,,,,,,,,,,00026,001,2026-01-20_19h20.16.777,MST_task,2024.2.0,60.081566733583955,2026-01-20 19h20.25.464765 +0530,
,Scenes\122a.jpg,157,0,158,,,,,f,1.458854100026656,0.20800629997393116,None,,,,158,0,157,688.7497283000266,,,,,,,,,,,,,,,,,,,,,,,688.7337495000102,688.7497283000266,689.2500931000104,689.2332940999768,,,,,,,,,,,,,,,,,,,,,,689.2427666999865,689.2500931000104,689.2500931000104,689.2500931000104,692.2497870000079,692.2497870000079,692.2497870000079,692.2336592000211,f,1.458854100026656,0.20800629997393116,692.233722999983,692.2337349000154,None,,,,,,,,,,00026,001,2026-01-20_19h20.16.777,MST_task,2024.2.0,60.081566733583955,2026-01-20 19h20.25.464765 +0530,
,Scenes\149a.jpg,158,0,159,,,,,f,2.1594776999554597,0.14300700003514066,None,,,,159,0,158,692.2497870000079,,,,,,,,,,,,,,,,,,,,,,,692.2338278000243,692.2497870000079,692.7502077000099,692.7332103999797,,,,,,,,,,,,,,,,,,,,,,692.742677400005,692.7502077000099,692.7502077000099,692.7502077000099,695.7496202000184,695.7496202000184,695.7496202000184,695.7333453000174,f,2.1594776999554597,0.14300700003514066,695.7334549999796,695.7334686000249,None,,,,,,,,,,00026,001,2026-01-20_19h20.16.777,MST_task,2024.2.0,60.081566733583955,2026-01-20 19h20.25.464765 +0530,
,Scenes\145a.jpg,159,0,160,,,,,j,0.6431884000194259,0.1684131000074558,None,,,,160,0,159,695.7496202000184,,,,,,,,,,,,,,,,,,,,,,,695.7335433000117,695.7496202000184,696.2499983999878,696.2329723999719,,,,,,,,,,,,,,,,,,,,,,696.2420048000058,696.2499983999878,696.2499983999878,696.2499983999878,699.2496991999797,699.2496991999797,699.2496991999797,699.2335061000194,j,0.6431884000194259,0.1684131000074558,699.2335663000122,699.2335780999856,None,,,,,,,,,,00026,001,2026-01-20_19h20.16.777,MST_task,2024.2.0,60.081566733583955,2026-01-20 19h20.25.464765 +0530,
,Scenes\047a.jpg,160,0,161,,,,,j,0.8142827999545261,0.18401280004763976,None,,,,161,0,160,699.2496991999797,,,,,,,,,,,,,,,,,,,,,,,699.2336699999869,699.2496991999797,699.7503200999927,699.7331345999846,,,,,,,,,,,,,,,,,,,,,,699.7441260999767,699.7503200999927,699.7503200999927,699.7503200999927,,,,702.7338423000183,j,0.8142827999545261,0.18401280004763976,702.7339160999982,702.7339399000048,None,,,,,,,,,,00026,001,2026-01-20_19h20.16.777,MST_task,2024.2.0,60.081566733583955,2026-01-20 19h20.25.464765 +0530,
,Objects\157a.jpg,161,0,162,,,,,f,1.0272969999932684,0.143299899995327,None,,,,162,0,161,702.7500264000264,,,,,,,,,,,,,,,,,,,,,,,702.7340592999826,702.7500264000264,703.2501357999863,703.2331750000012,,,,,,,,,,,,,,,,,,,,,,703.243246100028,703.2501357999863,703.2501357999863,703.2501357999863,706.2497072999831,706.2497072999831,706.2497072999831,706.2333426999976,f,1.0272969999932684,0.143299899995327,706.2333943999838,706.2334053000086,None,,,,,,,,,,00026,001,2026-01-20_19h20.16.777,MST_task,2024.2.0,60.081566733583955,2026-01-20 19h20.25.464765 +0530,
,Objects\055a.jpg,162,0,163,,,,,f,1.15931429999182,0.17597939999541268,None,,,,163,0,162,706.2497072999831,,,,,,,,,,,,,,,,,,,,,,,706.2334885000018,706.2497072999831,706.7498640000122,706.733152700006,,,,,,,,,,,,,,,,,,,,,,706.735811999999,706.7498640000122,706.7498640000122,706.7498640000122,709.7496532999794,709.7496532999794,709.7496532999794,709.7336461999803,f,1.15931429999182,0.17597939999541268,709.7337086999905,709.733721400029,None,,,,,,,,,,00026,001,2026-01-20_19h20.16.777,MST_task,2024.2.0,60.081566733583955,2026-01-20 19h20.25.464765 +0530,
