Sl_no,image_path,thisN,thisTrialN,thisRepN,key_resp_5.keys,key_resp_7.keys,key_resp_7.rt,key_resp_7.duration,key_resp_5.rt,key_resp_5.duration,key_resp_9.keys,key_resp_9.rt,key_resp_9.duration,key_resp_8.keys,key_resp_8.rt,key_resp_8.duration,practice.thisRepN,practice.thisTrialN,practice.thisN,trials.thisRepN,trials.thisTrialN,trials.thisN,thisRow.t,notes,welcome_page.started,text.started,key_resp.started,welcome_page.stopped,key_resp.keys,key_resp.rt,key_resp.duration,instructions.started,ins.started,key_resp_2.started,instructions.stopped,key_resp_2.keys,key_resp_2.rt,key_resp_2.duration,objects_only_instruction.started,text_3.started,key_resp_3.started,objects_only_instruction.stopped,key_resp_3.keys,key_resp_3.rt,key_resp_3.duration,ISI.started,text_4.started,text_4.stopped,ISI.stopped,practice_block.started,image.started,text_5.started,key_resp_5.started,practice_block.stopped,practice.key_resp_5.keys,indoor_outdoor.started,text_7.started,key_resp_7.started,indoor_outdoor.stopped,practice.key_resp_7.keys,practice.key_resp_7.rt,practice.key_resp_7.duration,image.stopped,text_5.stopped,key_resp_5.stopped,practice.key_resp_5.rt,practice.key_resp_5.duration,practice_to_main.started,text_2.started,key_resp_4.started,practice_to_main.stopped,key_resp_4.keys,key_resp_4.rt,key_resp_4.duration,objects.started,image_2.started,text_9.started,key_resp_9.started,image_2.stopped,text_9.stopped,key_resp_9.stopped,objects.stopped,trials.key_resp_9.keys,trials.key_resp_9.rt,trials.key_resp_9.duration,encoding_task.started,encoding_task.stopped,trials.key_resp_8.keys,text_8.started,key_resp_8.started,trials.key_resp_8.rt,trials.key_resp_8.duration,end_experiment.started,text_6.started,key_resp_6.started,end_experiment.stopped,key_resp_6.keys,key_resp_6.rt,key_resp_6.duration,list_of_stimuli,encoding_task_accuracy,participant,session,date,expName,psychopyVersion,frameRate,expStart,
,,,,,,,,,,,,,,,,,,,,,,,,,0.0013531000004149973,0.004517000008490868,0.004517000008490868,14.173667399998521,space,14.161003800007165,None,,,,,,,,,,,,,,,,,,,,,,,,,,,,,,,,,,,,,,,,,,,,,,,,,,,,,,,,,,,,,,,,,,,,,,,00027,001,2026-01-20_19h47.53.224,MST_task,2024.2.0,59.94237140146022,2026-01-20 19h47.59.867695 +0530,
,,,,,,,,,,,,,,,,,,,,,,,,,,,,,,,,14.173758700009785,14.187354800000321,14.187354800000321,32.750156699999934,space,18.546258799993666,None,,,,,,,,,,,,,,,,,,,,,,,,,,,,,,,,,,,,,,,,,,,,,,,,,,,,,,,,,,,,,,,,00027,001,2026-01-20_19h47.53.224,MST_task,2024.2.0,59.94237140146022,2026-01-20 19h47.59.867695 +0530,
,,,,,,,,,,,,,,,,,,,,,,,,,,,,,,,,,,,,,,,32.75029219999851,32.76962140000251,32.76962140000251,53.9163464000012,space,21.13187690000632,None,,,,,,,,,,,,,,,,,,,,,,,,,,,,,,,,,,,,,,,,,,,,,,,,,,,,,,,,,00027,001,2026-01-20_19h47.53.224,MST_task,2024.2.0,59.94237140146022,2026-01-20 19h47.59.867695 +0530,
5,practice_images/139a.jpg,0,0,1,None,f,0.13241249999555293,None,,,,,,,,,1,0,0,,,,53.9322278000036,,,,,,,,,,,,,,,,,,,,,,,53.92649150000943,53.9322278000036,54.459848900005454,54.41646639999817,54.42893500000355,54.459848900005454,54.459848900005454,54.459848900005454,57.43308750000142,None,57.440231700005825,57.44943750000675,57.44943750000675,57.58316160000686,f,0.13241249999555293,None,,,,,,,,,,,,,,,,,,,,,,,,,,,,,,,,,,,,,,,,00027,001,2026-01-20_19h47.53.224,MST_task,2024.2.0,59.94237140146022,2026-01-20 19h47.59.867695 +0530,
3,practice_images/037a.jpg,1,1,1,f,None,,,1.1144346999935806,0.14398730000539217,,,,,,,1,1,1,,,,57.59946019999916,,,,,,,,,,,,,,,,,,,,,,,57.58349530000123,57.59946019999916,58.09961089999706,58.08290940000734,58.08846510000876,58.09961089999706,58.09961089999706,58.09961089999706,61.08324999999604,f,61.08344420000503,,,61.08350989999599,None,,,61.09940629999619,61.09940629999619,61.09940629999619,1.1144346999935806,0.14398730000539217,,,,,,,,,,,,,,,,,,,,,,,,,,,,,,,,,,,00027,001,2026-01-20_19h47.53.224,MST_task,2024.2.0,59.94237140146022,2026-01-20 19h47.59.867695 +0530,
2,practice_images/031a.jpg,2,2,1,f,None,,,2.39850560000923,0.1919350999960443,,,,,,,1,2,2,,,,61.09940629999619,,,,,,,,,,,,,,,,,,,,,,,61.08386270000483,61.09940629999619,61.599593300008564,61.58273520000512,61.58812570000009,61.599593300008564,61.599593300008564,61.599593300008564,64.58321690000594,f,64.58339729999716,,,64.58346039999742,None,,,64.59941370000888,64.59941370000888,64.59941370000888,2.39850560000923,0.1919350999960443,,,,,,,,,,,,,,,,,,,,,,,,,,,,,,,,,,,00027,001,2026-01-20_19h47.53.224,MST_task,2024.2.0,59.94237140146022,2026-01-20 19h47.59.867695 +0530,
8,practice_images/178a.jpg,3,3,1,j,None,,,1.154765100000077,0.15996520000044256,,,,,,,1,3,3,,,,64.59941370000888,,,,,,,,,,,,,,,,,,,,,,,64.58373260000371,64.59941370000888,65.09930470000836,65.08318560000043,65.08838729999843,65.09930470000836,65.09930470000836,65.09930470000836,68.08304310000676,j,68.08323370000289,,,68.08330359999673,None,,,68.0991398000042,68.0991398000042,68.0991398000042,1.154765100000077,0.15996520000044256,,,,,,,,,,,,,,,,,,,,,,,,,,,,,,,,,,,00027,001,2026-01-20_19h47.53.224,MST_task,2024.2.0,59.94237140146022,2026-01-20 19h47.59.867695 +0530,
10,practice_images/182a.jpg,4,4,1,f,None,,,1.173890999998548,0.17595439999422524,,,,,,,1,4,4,,,,68.0991398000042,,,,,,,,,,,,,,,,,,,,,,,68.08359999999811,68.0991398000042,68.59959779999917,68.58304130000761,68.58797570000752,68.59959779999917,68.59959779999917,68.59959779999917,71.58327319999808,f,71.58345310000004,,,71.58351730000868,None,,,71.59941439999966,71.59941439999966,71.59941439999966,1.173890999998548,0.17595439999422524,,,,,,,,,,,,,,,,,,,,,,,,,,,,,,,,,,,00027,001,2026-01-20_19h47.53.224,MST_task,2024.2.0,59.94237140146022,2026-01-20 19h47.59.867695 +0530,
9,practice_images/180a.jpg,5,5,1,f,None,,,1.0584444999985863,0.16798320000816602,,,,,,,1,5,5,,,,71.59941439999966,,,,,,,,,,,,,,,,,,,,,,,71.58379240000795,71.59941439999966,72.09958979999647,72.08306659999653,72.08853439999803,72.09958979999647,72.09958979999647,72.09958979999647,75.08330490000662,f,75.08352709999599,,,75.08359950000886,None,,,75.09938949999923,75.09938949999923,75.09938949999923,1.0584444999985863,0.16798320000816602,,,,,,,,,,,,,,,,,,,,,,,,,,,,,,,,,,,00027,001,2026-01-20_19h47.53.224,MST_task,2024.2.0,59.94237140146022,2026-01-20 19h47.59.867695 +0530,
6,practice_images/158a.jpg,6,6,1,j,None,,,0.9500497999979416,0.16790289999335073,,,,,,,1,6,6,,,,75.09938949999923,,,,,,,,,,,,,,,,,,,,,,,75.08390979999967,75.09938949999923,75.59941510000499,75.58278680000512,75.58830250000756,75.59941510000499,75.59941510000499,75.59941510000499,78.58337680000113,j,78.58357909999904,,,78.5836505000043,None,,,78.59941880000406,78.59941880000406,78.59941880000406,0.9500497999979416,0.16790289999335073,,,,,,,,,,,,,,,,,,,,,,,,,,,,,,,,,,,00027,001,2026-01-20_19h47.53.224,MST_task,2024.2.0,59.94237140146022,2026-01-20 19h47.59.867695 +0530,
7,practice_images/166a.jpg,7,7,1,f,None,,,2.1224077999941073,0.15137810001033358,,,,,,,1,7,7,,,,78.59941880000406,,,,,,,,,,,,,,,,,,,,,,,78.58395660000679,78.59941880000406,79.09961030000704,79.08304710000812,79.08844380000664,79.09961030000704,79.09961030000704,79.09961030000704,82.08303740000702,f,82.08323270000983,,,82.08330280000519,None,,,82.09923290000006,82.09923290000006,82.09923290000006,2.1224077999941073,0.15137810001033358,,,,,,,,,,,,,,,,,,,,,,,,,,,,,,,,,,,00027,001,2026-01-20_19h47.53.224,MST_task,2024.2.0,59.94237140146022,2026-01-20 19h47.59.867695 +0530,
4,practice_images/002b.jpg,8,8,1,f,None,,,1.6218116000090959,0.17594789998838678,,,,,,,1,8,8,,,,82.09923290000006,,,,,,,,,,,,,,,,,,,,,,,82.08360220000031,82.09923290000006,,82.58406880000257,82.58988660000614,82.59960110000975,82.59960110000975,82.59960110000975,85.58332289999817,f,85.58350039999641,,,85.58355969999684,None,,,85.59924850000243,85.59924850000243,85.59924850000243,1.6218116000090959,0.17594789998838678,,,,,,,,,,,,,,,,,,,,,,,,,,,,,,,,,,,00027,001,2026-01-20_19h47.53.224,MST_task,2024.2.0,59.94237140146022,2026-01-20 19h47.59.867695 +0530,
1,practice_images/013a.jpg,9,9,1,j,None,,,1.7299171000049682,0.16850179999892134,,,,,,,1,9,9,,,,85.59924850000243,,,,,,,,,,,,,,,,,,,,,,,85.58385579999594,85.59924850000243,86.09960739999951,86.08307269999932,86.08872270000575,86.09960739999951,86.09960739999951,86.09960739999951,89.08368340000743,j,89.0838603000011,,,89.0839263000089,None,,,89.09917359999963,89.09917359999963,89.09917359999963,1.7299171000049682,0.16850179999892134,,,,,,,,,,,,,,,,,,,,,,,,,,,,,,,,,,,00027,001,2026-01-20_19h47.53.224,MST_task,2024.2.0,59.94237140146022,2026-01-20 19h47.59.867695 +0530,
,,,,,,,,,,,,,,,,,,,,,,,,,,,,,,,,,,,,,,,,,,,,,,,,,,,,,,,,,,,,,,,,,,,,89.08411189999606,89.09917359999963,89.09917359999963,103.83318630000576,space,14.722339200001443,None,,,,,,,,,,,,,,,,,,,,,,,,,,,,00027,001,2026-01-20_19h47.53.224,MST_task,2024.2.0,59.94237140146022,2026-01-20 19h47.59.867695 +0530,
,Objects\119a.jpg,0,0,1,,,,,,,f,1.3121715000015683,0.15197449999686796,None,,,,,,1,0,0,103.84938200000033,,,,,,,,,,,,,,,,,,,,,,,103.83553520000714,103.84938200000033,104.3497289000079,104.3330902000016,,,,,,,,,,,,,,,,,,,,,,,,,,104.3440477999975,104.3497289000079,104.3497289000079,104.3497289000079,107.3494389999978,107.3494389999978,107.3494389999978,107.33390070000314,f,1.3121715000015683,0.15197449999686796,107.3400682000065,107.3401065000071,None,,,,,,,,,,,,,,00027,001,2026-01-20_19h47.53.224,MST_task,2024.2.0,59.94237140146022,2026-01-20 19h47.59.867695 +0530,
,Objects\067a.jpg,1,0,2,,,,,,,f,1.515792699996382,0.16082129999995232,None,,,,,,2,0,1,107.3494389999978,,,,,,,,,,,,,,,,,,,,,,,107.34030100000382,107.3494389999978,107.84962670000095,107.8329448000004,,,,,,,,,,,,,,,,,,,,,,,,,,107.84250729999621,107.84962670000095,107.84962670000095,107.84962670000095,110.84940249999636,110.84940249999636,110.84940249999636,110.83393639999849,f,1.515792699996382,0.16082129999995232,110.8341422000085,110.8342074000102,None,,,,,,,,,,,,,,00027,001,2026-01-20_19h47.53.224,MST_task,2024.2.0,59.94237140146022,2026-01-20 19h47.59.867695 +0530,
,Objects\144a.jpg,2,0,3,,,,,,,f,1.8481489999976475,0.16013899999961723,None,,,,,,3,0,2,110.84940249999636,,,,,,,,,,,,,,,,,,,,,,,110.83455569999933,110.84940249999636,111.34968939999817,111.33310830000846,,,,,,,,,,,,,,,,,,,,,,,,,,111.34024830000999,111.34968939999817,111.34968939999817,111.34968939999817,114.348868400004,114.348868400004,114.348868400004,114.33368009999685,f,1.8481489999976475,0.16013899999961723,114.33374800000456,114.33376490000228,None,,,,,,,,,,,,,,00027,001,2026-01-20_19h47.53.224,MST_task,2024.2.0,59.94237140146022,2026-01-20 19h47.59.867695 +0530,
,Objects\066a.jpg,3,0,4,,,,,,,j,2.0518961000052514,0.2082191000081366,None,,,,,,4,0,3,114.348868400004,,,,,,,,,,,,,,,,,,,,,,,114.33387800000492,114.348868400004,114.8494817000028,114.83289240000886,,,,,,,,,,,,,,,,,,,,,,,,,,114.8403762000089,114.8494817000028,114.8494817000028,114.8494817000028,117.84913430000597,117.84913430000597,117.84913430000597,117.83394320000662,j,2.0518961000052514,0.2082191000081366,117.83414040000935,117.83420060000208,None,,,,,,,,,,,,,,00027,001,2026-01-20_19h47.53.224,MST_task,2024.2.0,59.94237140146022,2026-01-20 19h47.59.867695 +0530,
,Objects\023a.jpg,4,0,5,,,,,,,f,1.6243711999995867,0.18332630000077188,None,,,,,,5,0,4,117.84913430000597,,,,,,,,,,,,,,,,,,,,,,,117.83450450000237,117.84913430000597,118.34964450000552,118.33307980000973,,,,,,,,,,,,,,,,,,,,,,,,,,118.34208190000209,118.34964450000552,118.34964450000552,118.34964450000552,121.34940659999847,121.34940659999847,121.34940659999847,121.33369349999703,f,1.6243711999995867,0.18332630000077188,121.33389480000187,121.33395380000002,None,,,,,,,,,,,,,,00027,001,2026-01-20_19h47.53.224,MST_task,2024.2.0,59.94237140146022,2026-01-20 19h47.59.867695 +0530,
,Objects\015a.jpg,5,0,6,,,,,,,f,2.004339799997979,0.1993207000050461,None,,,,,,6,0,5,121.34940659999847,,,,,,,,,,,,,,,,,,,,,,,121.33426180000242,121.34940659999847,121.84965940000257,121.83309830000508,,,,,,,,,,,,,,,,,,,,,,,,,,121.84274659999937,121.84965940000257,121.84965940000257,121.84965940000257,124.84944489999907,124.84944489999907,124.84944489999907,124.83376249999856,f,2.004339799997979,0.1993207000050461,124.83399169999757,124.83405299999868,None,,,,,,,,,,,,,,00027,001,2026-01-20_19h47.53.224,MST_task,2024.2.0,59.94237140146022,2026-01-20 19h47.59.867695 +0530,
,Objects\102a.jpg,6,0,7,,,,,,,f,1.4402533000102267,0.2158375999861164,None,,,,,,7,0,6,124.84944489999907,,,,,,,,,,,,,,,,,,,,,,,124.8344347000093,124.84944489999907,125.34944600000745,125.33306099999754,,,,,,,,,,,,,,,,,,,,,,,,,,125.34310569999798,125.34944600000745,125.34944600000745,125.34944600000745,128.34916160001012,128.34916160001012,128.34916160001012,128.33397580000747,f,1.4402533000102267,0.2158375999861164,128.33417539999937,128.33423750000657,None,,,,,,,,,,,,,,00027,001,2026-01-20_19h47.53.224,MST_task,2024.2.0,59.94237140146022,2026-01-20 19h47.59.867695 +0530,
,Scenes\081a.jpg,7,0,8,,,,,,,j,0.9758447000058368,0.2163804000010714,None,,,,,,8,0,7,128.34916160001012,,,,,,,,,,,,,,,,,,,,,,,128.33454340000753,128.34916160001012,128.853844199999,128.83311120000144,,,,,,,,,,,,,,,,,,,,,,,,,,128.85127189999912,128.853844199999,128.853844199999,128.853844199999,,,,131.84984260000056,j,0.9758447000058368,0.2163804000010714,131.85004459999618,131.85010950001015,None,,,,,,,,,,,,,,00027,001,2026-01-20_19h47.53.224,MST_task,2024.2.0,59.94237140146022,2026-01-20 19h47.59.867695 +0530,
,Scenes\165a.jpg,8,0,9,,,,,,,j,1.094801399987773,0.2315660000022035,None,,,,,,9,0,8,131.8660932000057,,,,,,,,,,,,,,,,,,,,,,,131.8504810000013,131.8660932000057,132.36726270000509,132.34941450000042,,,,,,,,,,,,,,,,,,,,,,,,,,132.3649904000049,132.36726270000509,132.36726270000509,132.36726270000509,,,,135.36648460000288,j,1.094801399987773,0.2315660000022035,135.3666904999991,135.36675529999775,None,,,,,,,,,,,,,,00027,001,2026-01-20_19h47.53.224,MST_task,2024.2.0,59.94237140146022,2026-01-20 19h47.59.867695 +0530,
,Scenes\140a.jpg,9,0,10,,,,,,,j,0.9556828000058886,0.1919622999994317,None,,,,,,10,0,9,135.3829177000007,,,,,,,,,,,,,,,,,,,,,,,135.3670570999966,135.3829177000007,135.89034310000716,135.8664878999989,,,,,,,,,,,,,,,,,,,,,,,,,,135.88709540000127,135.89034310000716,135.89034310000716,135.89034310000716,,,,138.88309180000215,j,0.9556828000058886,0.1919622999994317,138.88330739999947,138.88337710000633,None,,,,,,,,,,,,,,00027,001,2026-01-20_19h47.53.224,MST_task,2024.2.0,59.94237140146022,2026-01-20 19h47.59.867695 +0530,
,Scenes\038a.jpg,10,0,11,,,,,,,j,0.739916100006667,0.183585699996911,None,,,,,,11,0,10,138.8994323000079,,,,,,,,,,,,,,,,,,,,,,,138.88377390000096,138.8994323000079,139.40212870000687,139.38295860000653,,,,,,,,,,,,,,,,,,,,,,,,,,139.39936680000392,139.40212870000687,139.40212870000687,139.40212870000687,,,,142.399596999996,j,0.739916100006667,0.183585699996911,142.39979969999695,142.39986450001015,None,,,,,,,,,,,,,,00027,001,2026-01-20_19h47.53.224,MST_task,2024.2.0,59.94237140146022,2026-01-20 19h47.59.867695 +0530,
,Scenes\179a.jpg,11,0,12,,,,,,,j,0.750943199993344,0.2319916000124067,None,,,,,,12,0,11,142.41577540000435,,,,,,,,,,,,,,,,,,,,,,,142.40023919999658,142.41577540000435,142.91837810000288,142.899510800009,,,,,,,,,,,,,,,,,,,,,,,,,,142.9149563000101,142.91837810000288,142.91837810000288,142.91837810000288,,,,145.91623390000314,j,0.750943199993344,0.2319916000124067,145.91646449999826,145.91652969999996,None,,,,,,,,,,,,,,00027,001,2026-01-20_19h47.53.224,MST_task,2024.2.0,59.94237140146022,2026-01-20 19h47.59.867695 +0530,
,Scenes\128a.jpg,12,0,13,,,,,,,j,1.0405870999966282,0.21529380000720266,None,,,,,,13,0,12,145.93258259999857,,,,,,,,,,,,,,,,,,,,,,,145.91682460000447,145.93258259999857,146.4374478999962,146.41653529999894,,,,,,,,,,,,,,,,,,,,,,,,,,146.4347373000055,146.4374478999962,146.4374478999962,146.4374478999962,,,,149.43307610000193,j,1.0405870999966282,0.21529380000720266,149.43327910000517,149.43334400000458,None,,,,,,,,,,,,,,00027,001,2026-01-20_19h47.53.224,MST_task,2024.2.0,59.94237140146022,2026-01-20 19h47.59.867695 +0530,
,Scenes\024a.jpg,13,0,14,,,,,,,j,0.8156017000001157,0.21619940000528004,None,,,,,,14,0,13,149.4494110000087,,,,,,,,,,,,,,,,,,,,,,,149.43371290000505,149.4494110000087,149.94974120000552,149.93306330000632,,,,,,,,,,,,,,,,,,,,,,,,,,149.94642110000132,149.94974120000552,149.94974120000552,149.94974120000552,152.94898780000221,152.94898780000221,152.94898780000221,152.93357090000063,j,0.8156017000001157,0.21619940000528004,152.93373570000404,152.9337816000043,None,,,,,,,,,,,,,,00027,001,2026-01-20_19h47.53.224,MST_task,2024.2.0,59.94237140146022,2026-01-20 19h47.59.867695 +0530,
,Objects\138a.jpg,14,0,15,,,,,,,f,1.3242558000056306,0.21585949999280274,None,,,,,,15,0,14,152.94898780000221,,,,,,,,,,,,,,,,,,,,,,,152.93406790000154,152.94898780000221,153.4492881000042,153.43291299999692,,,,,,,,,,,,,,,,,,,,,,,,,,153.4461857999995,153.4492881000042,153.4492881000042,153.4492881000042,156.44925630000944,156.44925630000944,156.44925630000944,156.43349290000333,f,1.3242558000056306,0.21585949999280274,156.43369540000276,156.43375620000006,None,,,,,,,,,,,,,,00027,001,2026-01-20_19h47.53.224,MST_task,2024.2.0,59.94237140146022,2026-01-20 19h47.59.867695 +0530,
,Objects\142a.jpg,15,0,16,,,,,,,f,0.8562728999968385,0.21632539998972788,None,,,,,,16,0,15,156.44925630000944,,,,,,,,,,,,,,,,,,,,,,,156.43413390000933,156.44925630000944,156.9493511000037,156.93271930000628,,,,,,,,,,,,,,,,,,,,,,,,,,156.93906270001025,156.9493511000037,156.9493511000037,156.9493511000037,159.95080489999964,159.95080489999964,159.95080489999964,159.93398480000906,f,0.8562728999968385,0.21632539998972788,159.9341887000046,159.93424840000807,None,,,,,,,,,,,,,,00027,001,2026-01-20_19h47.53.224,MST_task,2024.2.0,59.94237140146022,2026-01-20 19h47.59.867695 +0530,
,Objects\176a.jpg,16,0,17,,,,,,,f,1.26732319999428,0.19991150000714697,None,,,,,,17,0,16,159.95080489999964,,,,,,,,,,,,,,,,,,,,,,,159.93463430000702,159.95080489999964,,160.4496358000033,,,,,,,,,,,,,,,,,,,,,,,,,,160.459577600006,160.46610060000967,160.46610060000967,160.46610060000967,,,,163.4497915999964,f,1.26732319999428,0.19991150000714697,163.4499882000091,163.45005110000784,None,,,,,,,,,,,,,,00027,001,2026-01-20_19h47.53.224,MST_task,2024.2.0,59.94237140146022,2026-01-20 19h47.59.867695 +0530,
,Objects\050a.jpg,17,0,18,,,,,,,f,1.4955981000093743,0.19146839999302756,None,,,,,,18,0,17,163.46607960000983,,,,,,,,,,,,,,,,,,,,,,,163.4504173000023,163.46607960000983,163.96624609999708,163.94985710000037,,,,,,,,,,,,,,,,,,,,,,,,,,163.95893180000712,163.96624609999708,163.96624609999708,163.96624609999708,,,,166.95046469999943,f,1.4955981000093743,0.19146839999302756,166.95062309999776,166.95066919999954,None,,,,,,,,,,,,,,00027,001,2026-01-20_19h47.53.224,MST_task,2024.2.0,59.94237140146022,2026-01-20 19h47.59.867695 +0530,
,Objects\121a.jpg,18,0,19,,,,,,,f,1.5230141000065487,0.1922952000022633,None,,,,,,19,0,18,166.96607730000687,,,,,,,,,,,,,,,,,,,,,,,166.9508843000076,166.96607730000687,167.46631240000715,167.44943670000066,,,,,,,,,,,,,,,,,,,,,,,,,,167.4586968000076,167.46631240000715,167.46631240000715,167.46631240000715,170.46616930000891,170.46616930000891,170.46616930000891,170.45083739999973,f,1.5230141000065487,0.1922952000022633,170.4510561000061,170.4511341000034,None,,,,,,,,,,,,,,00027,001,2026-01-20_19h47.53.224,MST_task,2024.2.0,59.94237140146022,2026-01-20 19h47.59.867695 +0530,
,Objects\160a.jpg,19,0,20,,,,,,,None,,,j,1.0312871000060113,None,,,,20,0,19,170.46616930000891,,,,,,,,,,,,,,,,,,,,,,,170.45145239999692,170.46616930000891,170.96630810000352,170.949990299996,,,,,,,,,,,,,,,,,,,,,,,,,,170.95567769999616,170.96630810000352,170.96630810000352,170.96630810000352,173.96607510000467,173.96607510000467,173.96607510000467,173.95127550000325,None,,,173.95146910000767,174.99963010000647,j,173.96607510000467,173.96607510000467,1.0312871000060113,None,,,,,,,,,,00027,001,2026-01-20_19h47.53.224,MST_task,2024.2.0,59.94237140146022,2026-01-20 19h47.59.867695 +0530,
,Objects\008a.jpg,20,0,21,,,,,,,f,1.4173895999992965,0.19252169999526814,None,,,,,,21,0,20,175.01602120000462,,,,,,,,,,,,,,,,,,,,,,,174.9999783000094,175.01602120000462,175.5160404000053,175.4998093000031,,,,,,,,,,,,,,,,,,,,,,,,,,175.50905639999837,175.5160404000053,175.5160404000053,175.5160404000053,178.51600509999844,178.51600509999844,178.51600509999844,178.5006640000065,f,1.4173895999992965,0.19252169999526814,178.50086620000366,178.50092839999706,None,,,,,,,,,,,,,,00027,001,2026-01-20_19h47.53.224,MST_task,2024.2.0,59.94237140146022,2026-01-20 19h47.59.867695 +0530,
,Scenes\188a.jpg,21,0,22,,,,,,,j,0.9471008999971673,0.19197850000637118,None,,,,,,22,0,21,178.51600509999844,,,,,,,,,,,,,,,,,,,,,,,178.50130699999863,178.51600509999844,179.0182075000048,178.9998126999999,,,,,,,,,,,,,,,,,,,,,,,,,,179.01534680000623,179.0182075000048,179.0182075000048,179.0182075000048,,,,182.01644730000407,j,0.9471008999971673,0.19197850000637118,182.01664729999902,182.01671199999691,None,,,,,,,,,,,,,,00027,001,2026-01-20_19h47.53.224,MST_task,2024.2.0,59.94237140146022,2026-01-20 19h47.59.867695 +0530,
,Scenes\156a.jpg,22,0,23,,,,,,,j,0.6489644999965094,0.21598769999400247,None,,,,,,23,0,22,182.03267909999704,,,,,,,,,,,,,,,,,,,,,,,182.01700730000448,182.03267909999704,182.53303610000876,182.51625840000634,,,,,,,,,,,,,,,,,,,,,,,,,,182.53045550000388,182.53303610000876,182.53303610000876,182.53303610000876,185.53268340000068,185.53268340000068,185.53268340000068,185.51718190000975,j,0.6489644999965094,0.21598769999400247,185.51738790000672,185.51744860000326,None,,,,,,,,,,,,,,00027,001,2026-01-20_19h47.53.224,MST_task,2024.2.0,59.94237140146022,2026-01-20 19h47.59.867695 +0530,
,Scenes\098a.jpg,23,0,24,,,,,,,f,1.0998085000028368,0.14466099999845028,None,,,,,,24,0,23,185.53268340000068,,,,,,,,,,,,,,,,,,,,,,,185.51783270000305,185.53268340000068,186.0334462000028,186.0161930000031,,,,,,,,,,,,,,,,,,,,,,,,,,186.02706269999908,186.0334462000028,186.0334462000028,186.0334462000028,189.03268519999983,189.03268519999983,189.03268519999983,189.0172922000056,f,1.0998085000028368,0.14466099999845028,189.01749220000056,189.0175534000009,None,,,,,,,,,,,,,,00027,001,2026-01-20_19h47.53.224,MST_task,2024.2.0,59.94237140146022,2026-01-20 19h47.59.867695 +0530,
,Scenes\112a.jpg,24,0,25,,,,,,,j,1.04693430000043,0.17594270000699908,None,,,,,,25,0,24,189.03268519999983,,,,,,,,,,,,,,,,,,,,,,,189.0178625999979,189.03268519999983,189.53507080000418,189.5165313000034,,,,,,,,,,,,,,,,,,,,,,,,,,189.53190790000372,189.53507080000418,189.53507080000418,189.53507080000418,,,,192.53312110000115,j,1.04693430000043,0.17594270000699908,192.53333750000456,192.53340580000076,None,,,,,,,,,,,,,,00027,001,2026-01-20_19h47.53.224,MST_task,2024.2.0,59.94237140146022,2026-01-20 19h47.59.867695 +0530,
,Scenes\175a.jpg,25,0,26,,,,,,,j,1.1076470999978483,0.1999839000054635,None,,,,,,26,0,25,192.5490764999995,,,,,,,,,,,,,,,,,,,,,,,192.5337220000074,192.5490764999995,193.05032080000092,193.03311410000606,,,,,,,,,,,,,,,,,,,,,,,,,,193.04748449999897,193.05032080000092,193.05032080000092,193.05032080000092,196.04943650000496,196.04943650000496,196.04943650000496,196.03382710000733,j,1.1076470999978483,0.1999839000054635,196.03402910000295,196.03409120001015,None,,,,,,,,,,,,,,00027,001,2026-01-20_19h47.53.224,MST_task,2024.2.0,59.94237140146022,2026-01-20 19h47.59.867695 +0530,
,Scenes\124a.jpg,26,0,27,,,,,,,f,1.318551899996237,0.20000240000081249,None,,,,,,27,0,26,196.04943650000496,,,,,,,,,,,,,,,,,,,,,,,196.0344041000062,196.04943650000496,196.55075480000232,196.5330668999959,,,,,,,,,,,,,,,,,,,,,,,,,,196.5481470000086,196.55075480000232,196.55075480000232,196.55075480000232,,,,199.54986450000433,f,1.318551899996237,0.20000240000081249,199.55009800000698,199.5501670000085,None,,,,,,,,,,,,,,00027,001,2026-01-20_19h47.53.224,MST_task,2024.2.0,59.94237140146022,2026-01-20 19h47.59.867695 +0530,
,Scenes\139a.jpg,27,0,28,,,,,,,j,0.7368257000052836,0.19140919999335892,None,,,,,,28,0,27,199.56610530000762,,,,,,,,,,,,,,,,,,,,,,,199.5506471999979,199.56610530000762,200.06914150000375,200.04981209999823,,,,,,,,,,,,,,,,,,,,,,,,,,200.066304699998,200.06914150000375,200.06914150000375,200.06914150000375,,,,203.0664967000048,j,0.7368257000052836,0.19140919999335892,203.06671660000575,203.06678870000178,None,,,,,,,,,,,,,,00027,001,2026-01-20_19h47.53.224,MST_task,2024.2.0,59.94237140146022,2026-01-20 19h47.59.867695 +0530,
,Objects\192a.jpg,28,0,29,,,,,,,f,1.8462727000005543,0.20010159999947064,None,,,,,,29,0,28,203.08257179999782,,,,,,,,,,,,,,,,,,,,,,,203.0671973999997,203.08257179999782,203.5833233000012,203.5665280000103,,,,,,,,,,,,,,,,,,,,,,,,,,203.57285599999886,203.5833233000012,203.5833233000012,203.5833233000012,206.58270090000588,206.58270090000588,206.58270090000588,206.5674105000071,f,1.8462727000005543,0.20010159999947064,206.56760910000594,206.56766820000485,None,,,,,,,,,,,,,,00027,001,2026-01-20_19h47.53.224,MST_task,2024.2.0,59.94237140146022,2026-01-20 19h47.59.867695 +0530,
,Objects\181a.jpg,29,0,30,,,,,,,None,,,j,0.5550517999945441,None,,,,30,0,29,206.58270090000588,,,,,,,,,,,,,,,,,,,,,,,206.56797070000903,206.58270090000588,207.08278160000918,207.06613580000703,,,,,,,,,,,,,,,,,,,,,,,,,,207.07432569999946,207.08278160000918,207.08278160000918,207.08278160000918,210.0826887000003,210.0826887000003,210.0826887000003,210.06727800000226,None,,,210.06746630000998,210.64994010000373,j,210.0826887000003,210.0826887000003,0.5550517999945441,None,,,,,,,,,,00027,001,2026-01-20_19h47.53.224,MST_task,2024.2.0,59.94237140146022,2026-01-20 19h47.59.867695 +0530,
,Objects\132a.jpg,30,0,31,,,,,,,f,0.7915344999928493,0.19936389999929816,None,,,,,,31,0,30,210.6664471999975,,,,,,,,,,,,,,,,,,,,,,,210.65031630000158,210.6664471999975,211.16637310000078,211.14981689999695,,,,,,,,,,,,,,,,,,,,,,,,,,211.1557121000078,211.16637310000078,211.16637310000078,211.16637310000078,214.16616170000634,214.16616170000634,214.16616170000634,214.15059000000474,f,0.7915344999928493,0.19936389999929816,214.15079250000417,214.15085309999995,None,,,,,,,,,,,,,,00027,001,2026-01-20_19h47.53.224,MST_task,2024.2.0,59.94237140146022,2026-01-20 19h47.59.867695 +0530,
,Objects\034a.jpg,31,0,32,,,,,,,f,0.8118390999879921,0.19997020000300836,None,,,,,,32,0,31,214.16616170000634,,,,,,,,,,,,,,,,,,,,,,,214.15126159999636,214.16616170000634,214.66609159999643,214.64971090000472,,,,,,,,,,,,,,,,,,,,,,,,,,214.656622399998,214.66609159999643,214.66609159999643,214.66609159999643,217.6660727999988,217.6660727999988,217.6660727999988,217.65088590000232,f,0.8118390999879921,0.19997020000300836,217.65108550000878,217.65114610000455,None,,,,,,,,,,,,,,00027,001,2026-01-20_19h47.53.224,MST_task,2024.2.0,59.94237140146022,2026-01-20 19h47.59.867695 +0530,
,Objects\060a.jpg,32,0,33,,,,,,,f,1.3271783999953186,0.20808760001091287,None,,,,,,33,0,32,217.6660727999988,,,,,,,,,,,,,,,,,,,,,,,217.65151370000967,217.6660727999988,218.16618030000245,218.14968830000726,,,,,,,,,,,,,,,,,,,,,,,,,,218.15845040000568,218.16618030000245,218.16618030000245,218.16618030000245,221.1657883000007,221.1657883000007,221.1657883000007,221.1505640999967,f,1.3271783999953186,0.20808760001091287,221.15084190000198,221.150902399997,None,,,,,,,,,,,,,,00027,001,2026-01-20_19h47.53.224,MST_task,2024.2.0,59.94237140146022,2026-01-20 19h47.59.867695 +0530,
,Objects\165a.jpg,33,0,34,,,,,,,f,0.9156626000039978,0.19196240000019316,None,,,,,,34,0,33,221.1657883000007,,,,,,,,,,,,,,,,,,,,,,,221.15121199999703,221.1657883000007,221.66633150000416,221.64955550000013,,,,,,,,,,,,,,,,,,,,,,,,,,221.65823600000294,221.66633150000416,221.66633150000416,221.66633150000416,224.66589010000462,224.66589010000462,224.66589010000462,224.650484400001,f,0.9156626000039978,0.19196240000019316,224.6506839000067,224.65074270000332,None,,,,,,,,,,,,,,00027,001,2026-01-20_19h47.53.224,MST_task,2024.2.0,59.94237140146022,2026-01-20 19h47.59.867695 +0530,
,Objects\073a.jpg,34,0,35,,,,,,,f,0.9992609000037191,0.20855559999472462,None,,,,,,35,0,34,224.66589010000462,,,,,,,,,,,,,,,,,,,,,,,224.65112890000455,224.66589010000462,225.16607040000963,225.14986180000415,,,,,,,,,,,,,,,,,,,,,,,,,,225.1585705000034,225.16607040000963,225.16607040000963,225.16607040000963,228.1658965999959,228.1658965999959,228.1658965999959,228.15067290001025,f,0.9992609000037191,0.20855559999472462,228.15088110000943,228.15094150000368,None,,,,,,,,,,,,,,00027,001,2026-01-20_19h47.53.224,MST_task,2024.2.0,59.94237140146022,2026-01-20 19h47.59.867695 +0530,
,Scenes\192a.jpg,35,0,36,,,,,,,j,1.7470391000097152,0.16753039999457542,None,,,,,,36,0,35,228.1658965999959,,,,,,,,,,,,,,,,,,,,,,,228.15131850000762,228.1658965999959,228.66693910000322,228.64986689999932,,,,,,,,,,,,,,,,,,,,,,,,,,228.66437110000697,228.66693910000322,228.66693910000322,228.66693910000322,231.66588860000775,231.66588860000775,231.66588860000775,231.65069380000932,j,1.7470391000097152,0.16753039999457542,231.65088820000528,231.65094619999581,None,,,,,,,,,,,,,,00027,001,2026-01-20_19h47.53.224,MST_task,2024.2.0,59.94237140146022,2026-01-20 19h47.59.867695 +0530,
,Scenes\119a.jpg,36,0,37,,,,,,,j,0.8612524000054691,0.14348929999687243,None,,,,,,37,0,36,231.66588860000775,,,,,,,,,,,,,,,,,,,,,,,231.65124449999712,231.66588860000775,232.16851280000992,232.1497584000026,,,,,,,,,,,,,,,,,,,,,,,,,,232.16585590000614,232.16851280000992,232.16851280000992,232.16851280000992,,,,235.16651330000605,j,0.8612524000054691,0.14348929999687243,235.16673009999795,235.1668001000071,None,,,,,,,,,,,,,,00027,001,2026-01-20_19h47.53.224,MST_task,2024.2.0,59.94237140146022,2026-01-20 19h47.59.867695 +0530,
,Scenes\086a.jpg,37,0,38,,,,,,,j,1.2329169000004185,0.1840041000104975,None,,,,,,38,0,37,235.18268220000027,,,,,,,,,,,,,,,,,,,,,,,235.1672002999985,235.18268220000027,235.68437480001012,235.66649590000452,,,,,,,,,,,,,,,,,,,,,,,,,,235.68017690000124,235.68437480001012,235.68437480001012,235.68437480001012,,,,238.68311520000861,j,1.2329169000004185,0.1840041000104975,238.68333120000898,238.68340080000053,None,,,,,,,,,,,,,,00027,001,2026-01-20_19h47.53.224,MST_task,2024.2.0,59.94237140146022,2026-01-20 19h47.59.867695 +0530,
,Scenes\025a.jpg,38,0,39,,,,,,,j,0.8172523999965051,0.15159520000452176,None,,,,,,39,0,38,238.69942370000354,,,,,,,,,,,,,,,,,,,,,,,238.68372570000065,238.69942370000354,239.2126575000002,239.18309210000734,,,,,,,,,,,,,,,,,,,,,,,,,,239.20985040000232,239.2126575000002,239.2126575000002,239.2126575000002,,,,242.19973340000433,j,0.8172523999965051,0.15159520000452176,242.1999366000091,242.19999950000783,None,,,,,,,,,,,,,,00027,001,2026-01-20_19h47.53.224,MST_task,2024.2.0,59.94237140146022,2026-01-20 19h47.59.867695 +0530,
,Scenes\087a.jpg,39,0,40,,,,,,,j,0.7453928000031738,0.16802280000410974,None,,,,,,40,0,39,242.21610370000417,,,,,,,,,,,,,,,,,,,,,,,242.20029950000753,242.21610370000417,242.71647959999973,242.69950119999703,,,,,,,,,,,,,,,,,,,,,,,,,,242.7123314000055,242.71647959999973,242.71647959999973,242.71647959999973,245.71611390000908,245.71611390000908,245.71611390000908,245.70057980000274,j,0.7453928000031738,0.16802280000410974,245.70077820000006,245.70083919999888,None,,,,,,,,,,,,,,00027,001,2026-01-20_19h47.53.224,MST_task,2024.2.0,59.94237140146022,2026-01-20 19h47.59.867695 +0530,
,Scenes\062a.jpg,40,0,41,,,,,,,j,1.1863853999966523,0.19159489999583457,None,,,,,,41,0,40,245.71611390000908,,,,,,,,,,,,,,,,,,,,,,,245.70114540000213,245.71611390000908,246.2199690999987,246.19985689999885,,,,,,,,,,,,,,,,,,,,,,,,,,246.2172913999966,246.2199690999987,246.2199690999987,246.2199690999987,,,,249.21653119999974,j,1.1863853999966523,0.19159489999583457,249.21675190000678,249.21682200000214,None,,,,,,,,,,,,,,00027,001,2026-01-20_19h47.53.224,MST_task,2024.2.0,59.94237140146022,2026-01-20 19h47.59.867695 +0530,
,Scenes\152a.jpg,41,0,42,,,,,,,j,0.6482589000079315,0.19206010000198148,None,,,,,,42,0,41,249.23277470000903,,,,,,,,,,,,,,,,,,,,,,,249.21726020000642,249.23277470000903,249.73316519999935,249.71650140000565,,,,,,,,,,,,,,,,,,,,,,,,,,249.73047280000173,249.73316519999935,249.73316519999935,249.73316519999935,252.73259430000326,252.73259430000326,252.73259430000326,252.71721790000447,j,0.6482589000079315,0.19206010000198148,252.7174292999989,252.717496199999,None,,,,,,,,,,,,,,00027,001,2026-01-20_19h47.53.224,MST_task,2024.2.0,59.94237140146022,2026-01-20 19h47.59.867695 +0530,
,Objects\146a.jpg,42,0,43,,,,,,,f,0.7716441999946255,0.21637120000377763,None,,,,,,43,0,42,252.73259430000326,,,,,,,,,,,,,,,,,,,,,,,252.7179104000097,252.73259430000326,253.2338701999979,253.21652580000227,,,,,,,,,,,,,,,,,,,,,,,,,,253.2265447999962,253.2338701999979,253.2338701999979,253.2338701999979,,,,256.23297640000237,f,0.7716441999946255,0.21637120000377763,256.2331913000089,256.23324570000113,None,,,,,,,,,,,,,,00027,001,2026-01-20_19h47.53.224,MST_task,2024.2.0,59.94237140146022,2026-01-20 19h47.59.867695 +0530,
,Objects\182a.jpg,43,0,44,,,,,,,f,1.5195061999984318,0.22401269999681972,None,,,,,,44,0,43,256.2492188000033,,,,,,,,,,,,,,,,,,,,,,,256.2334993999975,256.2492188000033,256.7497068000084,256.73314820000087,,,,,,,,,,,,,,,,,,,,,,,,,,256.74253150000004,256.7497068000084,256.7497068000084,256.7497068000084,259.7494230000011,259.7494230000011,259.7494230000011,259.73394890000054,f,1.5195061999984318,0.22401269999681972,259.7341465000063,259.7342064999975,None,,,,,,,,,,,,,,00027,001,2026-01-20_19h47.53.224,MST_task,2024.2.0,59.94237140146022,2026-01-20 19h47.59.867695 +0530,
,Objects\078a.jpg,44,0,45,,,,,,,f,1.3315489999949932,0.2880109999969136,None,,,,,,45,0,44,259.7494230000011,,,,,,,,,,,,,,,,,,,,,,,259.73450970000704,259.7494230000011,260.2496605000051,260.23280080000404,,,,,,,,,,,,,,,,,,,,,,,,,,260.2415473000001,260.2496605000051,260.2496605000051,260.2496605000051,263.25007870000263,263.25007870000263,263.25007870000263,263.2337176000001,f,1.3315489999949932,0.2880109999969136,263.2339237999986,263.23398279999674,None,,,,,,,,,,,,,,00027,001,2026-01-20_19h47.53.224,MST_task,2024.2.0,59.94237140146022,2026-01-20 19h47.59.867695 +0530,
,Objects\106a.jpg,45,0,46,,,,,,,f,0.8561669000046095,0.17607780000253115,None,,,,,,46,0,45,263.25007870000263,,,,,,,,,,,,,,,,,,,,,,,263.2342862000078,263.25007870000263,263.749693500009,263.73302110000805,,,,,,,,,,,,,,,,,,,,,,,,,,263.73963840000215,263.749693500009,263.749693500009,263.749693500009,266.7494452000101,266.7494452000101,266.7494452000101,266.7338782000006,f,0.8561669000046095,0.17607780000253115,266.73407849999785,266.7341391000082,None,,,,,,,,,,,,,,00027,001,2026-01-20_19h47.53.224,MST_task,2024.2.0,59.94237140146022,2026-01-20 19h47.59.867695 +0530,
,Objects\184a.jpg,46,0,47,,,,,,,f,0.9882512000040151,0.23129870000411756,None,,,,,,47,0,46,266.7494452000101,,,,,,,,,,,,,,,,,,,,,,,266.73452410000027,266.7494452000101,267.24965290000546,267.23295620000863,,,,,,,,,,,,,,,,,,,,,,,,,,267.24154570000246,267.24965290000546,267.24965290000546,267.24965290000546,270.2501152000041,270.2501152000041,270.2501152000041,270.2338663999981,f,0.9882512000040151,0.23129870000411756,270.234059800001,270.23411830000987,None,,,,,,,,,,,,,,00027,001,2026-01-20_19h47.53.224,MST_task,2024.2.0,59.94237140146022,2026-01-20 19h47.59.867695 +0530,
,Objects\097a.jpg,47,0,48,,,,,,,j,0.7196084000024712,0.16790790000231937,None,,,,,,48,0,47,270.2501152000041,,,,,,,,,,,,,,,,,,,,,,,270.2344924000063,270.2501152000041,270.74964799999725,270.73309799999697,,,,,,,,,,,,,,,,,,,,,,,,,,270.74171220000426,270.74964799999725,270.74964799999725,270.74964799999725,273.7494429000071,273.7494429000071,273.7494429000071,273.73394410000765,j,0.7196084000024712,0.16790790000231937,273.734136900006,273.73419660000945,None,,,,,,,,,,,,,,00027,001,2026-01-20_19h47.53.224,MST_task,2024.2.0,59.94237140146022,2026-01-20 19h47.59.867695 +0530,
,Objects\190a.jpg,48,0,49,,,,,,,f,0.7314747000054922,0.21648580000328366,None,,,,,,49,0,48,273.7494429000071,,,,,,,,,,,,,,,,,,,,,,,273.7344943000062,273.7494429000071,274.24972390000767,274.23312669999723,,,,,,,,,,,,,,,,,,,,,,,,,,274.24160340000526,274.24972390000767,274.24972390000767,274.24972390000767,277.24917890000506,277.24917890000506,277.24917890000506,277.23380480000924,f,0.7314747000054922,0.21648580000328366,277.2340242000064,277.2340893000073,None,,,,,,,,,,,,,,00027,001,2026-01-20_19h47.53.224,MST_task,2024.2.0,59.94237140146022,2026-01-20 19h47.59.867695 +0530,
,Scenes\162a.jpg,49,0,50,,,,,,,j,2.519523199996911,0.1924211000005016,None,,,,,,50,0,49,277.24917890000506,,,,,,,,,,,,,,,,,,,,,,,277.2344204999972,277.24917890000506,277.7496858000086,277.73310830000264,,,,,,,,,,,,,,,,,,,,,,,,,,277.74703159999626,277.7496858000086,277.7496858000086,277.7496858000086,280.7491454999981,280.7491454999981,280.7491454999981,280.7336784000072,j,2.519523199996911,0.1924211000005016,280.73389780000434,280.7339633000083,None,,,,,,,,,,,,,,00027,001,2026-01-20_19h47.53.224,MST_task,2024.2.0,59.94237140146022,2026-01-20 19h47.59.867695 +0530,
,Scenes\172a.jpg,50,0,51,,,,,,,j,0.5553005000110716,0.16778570000315085,None,,,,,,51,0,50,280.7491454999981,,,,,,,,,,,,,,,,,,,,,,,280.7343799000082,280.7491454999981,281.2585771000013,281.23314740000933,,,,,,,,,,,,,,,,,,,,,,,,,,281.2556076000037,281.2585771000013,281.2585771000013,281.2585771000013,,,,284.2506687999994,j,0.5553005000110716,0.16778570000315085,284.25089510000544,284.25096119999944,None,,,,,,,,,,,,,,00027,001,2026-01-20_19h47.53.224,MST_task,2024.2.0,59.94237140146022,2026-01-20 19h47.59.867695 +0530,
,Scenes\185a.jpg,51,0,52,,,,,,,j,1.1653158999979496,0.1675966999900993,None,,,,,,52,0,51,284.2661253999977,,,,,,,,,,,,,,,,,,,,,,,284.2512615000014,284.2661253999977,284.76835110000684,284.7498733000102,,,,,,,,,,,,,,,,,,,,,,,,,,284.76546910000616,284.76835110000684,284.76835110000684,284.76835110000684,,,,287.76652400000603,j,1.1653158999979496,0.1675966999900993,287.7667264000047,287.7667892000027,None,,,,,,,,,,,,,,00027,001,2026-01-20_19h47.53.224,MST_task,2024.2.0,59.94237140146022,2026-01-20 19h47.59.867695 +0530,
,Scenes\002a.jpg,52,0,53,,,,,,,j,0.6498388999898452,0.15170810000563506,None,,,,,,53,0,52,287.78268200000457,,,,,,,,,,,,,,,,,,,,,,,287.7670800000051,287.78268200000457,288.2836905000004,288.2659840999986,,,,,,,,,,,,,,,,,,,,,,,,,,288.2806885000027,288.2836905000004,288.2836905000004,288.2836905000004,291.28233870000986,291.28233870000986,291.28233870000986,291.2672839000006,j,0.6498388999898452,0.15170810000563506,291.267488700003,291.26754820000497,None,,,,,,,,,,,,,,00027,001,2026-01-20_19h47.53.224,MST_task,2024.2.0,59.94237140146022,2026-01-20 19h47.59.867695 +0530,
,Scenes\061a.jpg,53,0,54,,,,,,,j,0.8461326000106055,0.1683265999890864,None,,,,,,54,0,53,291.28233870000986,,,,,,,,,,,,,,,,,,,,,,,291.2679535000061,291.28233870000986,291.78337420000753,291.76652699999977,,,,,,,,,,,,,,,,,,,,,,,,,,291.77799480000976,291.78337420000753,291.78337420000753,291.78337420000753,294.78269340000406,294.78269340000406,294.78269340000406,294.7672836999991,j,0.8461326000106055,0.1683265999890864,294.7674762000097,294.76753630000167,None,,,,,,,,,,,,,,00027,001,2026-01-20_19h47.53.224,MST_task,2024.2.0,59.94237140146022,2026-01-20 19h47.59.867695 +0530,
,Scenes\046a.jpg,54,0,55,,,,,,,j,0.6280559000006178,0.12863870000001043,None,,,,,,55,0,54,294.78269340000406,,,,,,,,,,,,,,,,,,,,,,,294.76792680000653,294.78269340000406,295.2891692999983,295.2665088000067,,,,,,,,,,,,,,,,,,,,,,,,,,295.28633719999925,295.2891692999983,295.2891692999983,295.2891692999983,,,,298.282990599997,j,0.6280559000006178,0.12863870000001043,298.2831930999964,298.28325659999973,None,,,,,,,,,,,,,,00027,001,2026-01-20_19h47.53.224,MST_task,2024.2.0,59.94237140146022,2026-01-20 19h47.59.867695 +0530,
,Scenes\001a.jpg,55,0,56,,,,,,,f,1.817096600003424,0.16758449999906588,None,,,,,,56,0,55,298.30004899999767,,,,,,,,,,,,,,,,,,,,,,,298.28363730000274,298.30004899999767,298.80480160001025,298.78313180000987,,,,,,,,,,,,,,,,,,,,,,,,,,298.8014261000062,298.80480160001025,298.80480160001025,298.80480160001025,,,,301.79969460000575,f,1.817096600003424,0.16758449999906588,301.799927,301.79999820000376,None,,,,,,,,,,,,,,00027,001,2026-01-20_19h47.53.224,MST_task,2024.2.0,59.94237140146022,2026-01-20 19h47.59.867695 +0530,
,Objects\069a.jpg,56,0,57,,,,,,,f,1.2640721999923699,0.18333369999891147,None,,,,,,57,0,56,301.815886700002,,,,,,,,,,,,,,,,,,,,,,,301.80040890000237,301.815886700002,302.31788000000233,302.29986539999663,,,,,,,,,,,,,,,,,,,,,,,,,,302.3093369999988,302.31788000000233,302.31788000000233,302.31788000000233,,,,305.31647489999887,f,1.2640721999923699,0.18333369999891147,305.3166756999999,305.3167389000009,None,,,,,,,,,,,,,,00027,001,2026-01-20_19h47.53.224,MST_task,2024.2.0,59.94237140146022,2026-01-20 19h47.59.867695 +0530,
,Objects\085a.jpg,57,0,58,,,,,,,f,0.9649040000076639,0.18407269999443088,None,,,,,,58,0,57,305.3327647999977,,,,,,,,,,,,,,,,,,,,,,,305.31711210000503,305.3327647999977,305.83294210000895,305.81617190000543,,,,,,,,,,,,,,,,,,,,,,,,,,305.8251065000077,305.83294210000895,305.83294210000895,305.83294210000895,308.8327253000025,308.8327253000025,308.8327253000025,308.81735460000345,f,0.9649040000076639,0.18407269999443088,308.8175604999997,308.8176250999968,None,,,,,,,,,,,,,,00027,001,2026-01-20_19h47.53.224,MST_task,2024.2.0,59.94237140146022,2026-01-20 19h47.59.867695 +0530,
,Objects\131a.jpg,58,0,59,,,,,,,f,0.6724179000011645,0.14402829999744426,None,,,,,,59,0,58,308.8327253000025,,,,,,,,,,,,,,,,,,,,,,,308.8180403000006,308.8327253000025,309.33295470000303,309.31709430000046,,,,,,,,,,,,,,,,,,,,,,,,,,309.32620940000925,309.33295470000303,309.33295470000303,309.33295470000303,312.33272820001,312.33272820001,312.33272820001,312.31739120000566,f,0.6724179000011645,0.14402829999744426,312.3175870999985,312.3176469000027,None,,,,,,,,,,,,,,00027,001,2026-01-20_19h47.53.224,MST_task,2024.2.0,59.94237140146022,2026-01-20 19h47.59.867695 +0530,
,Objects\017a.jpg,59,0,60,,,,,,,f,1.2765013999887742,0.15237180000985973,None,,,,,,60,0,59,312.33272820001,,,,,,,,,,,,,,,,,,,,,,,312.31795209999837,312.33272820001,312.83293990000675,312.81647240000893,,,,,,,,,,,,,,,,,,,,,,,,,,312.8250201000046,312.83293990000675,312.83293990000675,312.83293990000675,315.83271180000156,315.83271180000156,315.83271180000156,315.8173564000026,f,1.2765013999887742,0.15237180000985973,315.81756740000856,315.81762739999976,None,,,,,,,,,,,,,,00027,001,2026-01-20_19h47.53.224,MST_task,2024.2.0,59.94237140146022,2026-01-20 19h47.59.867695 +0530,
,Objects\039a.jpg,60,0,61,,,,,,,None,,,f,0.9451348000002326,None,,,,61,0,60,315.83271180000156,,,,,,,,,,,,,,,,,,,,,,,315.81792889999633,315.83271180000156,316.3328412999981,316.31624650000595,,,,,,,,,,,,,,,,,,,,,,,,,,316.32439590001013,316.3328412999981,316.3328412999981,316.3328412999981,319.3327350000036,319.3327350000036,319.3327350000036,319.3174727000005,None,,,319.31767659999605,320.282916199998,f,319.3327350000036,319.3327350000036,0.9451348000002326,None,,,,,,,,,,00027,001,2026-01-20_19h47.53.224,MST_task,2024.2.0,59.94237140146022,2026-01-20 19h47.59.867695 +0530,
,Objects\112a.jpg,61,0,62,,,,,,,f,1.2781267999962438,0.16795889999775682,None,,,,,,62,0,61,320.299104500009,,,,,,,,,,,,,,,,,,,,,,,320.2832133000047,320.299104500009,320.7997300999996,320.78307700000005,,,,,,,,,,,,,,,,,,,,,,,,,,320.792849999998,320.7997300999996,320.7997300999996,320.7997300999996,323.7994563999964,323.7994563999964,323.7994563999964,323.7839849000011,f,1.2781267999962438,0.16795889999775682,323.78419390000636,323.78425640000205,None,,,,,,,,,,,,,,00027,001,2026-01-20_19h47.53.224,MST_task,2024.2.0,59.94237140146022,2026-01-20 19h47.59.867695 +0530,
,Objects\141a.jpg,62,0,63,,,,,,,f,0.7134458999935305,0.1688004000025103,None,,,,,,63,0,62,323.7994563999964,,,,,,,,,,,,,,,,,,,,,,,323.7845626000053,323.7994563999964,324.29949459999625,324.28306470000825,,,,,,,,,,,,,,,,,,,,,,,,,,324.29126910000923,324.29949459999625,324.29949459999625,324.29949459999625,327.29931919999945,327.29931919999945,327.29931919999945,327.283857900009,f,0.7134458999935305,0.1688004000025103,327.2840767000016,327.28414150000026,None,,,,,,,,,,,,,,00027,001,2026-01-20_19h47.53.224,MST_task,2024.2.0,59.94237140146022,2026-01-20 19h47.59.867695 +0530,
,Scenes\109a.jpg,63,0,64,,,,,,,j,1.601771200002986,0.15936829999554902,None,,,,,,64,0,63,327.29931919999945,,,,,,,,,,,,,,,,,,,,,,,327.2844724000024,327.29931919999945,327.80406219999713,327.784124400001,,,,,,,,,,,,,,,,,,,,,,,,,,327.8014426000009,327.80406219999713,327.80406219999713,327.80406219999713,,,,330.7996972999972,j,1.601771200002986,0.15936829999554902,330.799909399997,330.7999750000017,None,,,,,,,,,,,,,,00027,001,2026-01-20_19h47.53.224,MST_task,2024.2.0,59.94237140146022,2026-01-20 19h47.59.867695 +0530,
,Scenes\131a.jpg,64,0,65,,,,,,,j,0.6565709999995306,0.1679835999966599,None,,,,,,65,0,64,330.8161198000016,,,,,,,,,,,,,,,,,,,,,,,330.8002683000086,330.8161198000016,331.31728940000175,331.29983970000467,,,,,,,,,,,,,,,,,,,,,,,,,,331.3133899000095,331.31728940000175,331.31728940000175,331.31728940000175,,,,334.3165355000092,j,0.6565709999995306,0.1679835999966599,334.3167386999994,334.3168023000035,None,,,,,,,,,,,,,,00027,001,2026-01-20_19h47.53.224,MST_task,2024.2.0,59.94237140146022,2026-01-20 19h47.59.867695 +0530,
,Scenes\045a.jpg,65,0,66,,,,,,,f,1.5146597999992082,0.1437971999985166,None,,,,,,66,0,65,334.3327013000089,,,,,,,,,,,,,,,,,,,,,,,334.31709270000283,334.3327013000089,334.842716500003,334.81639380000706,,,,,,,,,,,,,,,,,,,,,,,,,,334.83981030000723,334.842716500003,334.842716500003,334.842716500003,,,,337.8330988000089,f,1.5146597999992082,0.1437971999985166,337.8333049000066,337.83336730000156,None,,,,,,,,,,,,,,00027,001,2026-01-20_19h47.53.224,MST_task,2024.2.0,59.94237140146022,2026-01-20 19h47.59.867695 +0530,
,Scenes\077a.jpg,66,0,67,,,,,,,j,0.8130954999942333,0.16767900000559166,None,,,,,,67,0,66,337.84945130000415,,,,,,,,,,,,,,,,,,,,,,,337.8336627999961,337.84945130000415,338.35229419999814,338.33307920000516,,,,,,,,,,,,,,,,,,,,,,,,,,338.3495174999989,338.35229419999814,338.35229419999814,338.35229419999814,,,,341.34986370000115,j,0.8130954999942333,0.16767900000559166,341.35006440000143,341.3501271999994,None,,,,,,,,,,,,,,00027,001,2026-01-20_19h47.53.224,MST_task,2024.2.0,59.94237140146022,2026-01-20 19h47.59.867695 +0530,
,Scenes\155a.jpg,67,0,68,,,,,,,j,1.568947499996284,0.1919657999969786,None,,,,,,68,0,67,341.3661146000086,,,,,,,,,,,,,,,,,,,,,,,341.3504277000029,341.3661146000086,341.8689178000059,341.84969440000714,,,,,,,,,,,,,,,,,,,,,,,,,,341.8661412000074,341.8689178000059,341.8689178000059,341.8689178000059,,,,344.8505989999976,j,1.568947499996284,0.1919657999969786,344.85080580000067,344.8508705999993,None,,,,,,,,,,,,,,00027,001,2026-01-20_19h47.53.224,MST_task,2024.2.0,59.94237140146022,2026-01-20 19h47.59.867695 +0530,
,Scenes\078a.jpg,68,0,69,,,,,,,j,1.6621065999934217,0.1520065000077011,None,,,,,,69,0,68,344.86612500000047,,,,,,,,,,,,,,,,,,,,,,,344.8512502000085,344.86612500000047,,345.35111869999673,,,,,,,,,,,,,,,,,,,,,,,,,,345.3718603000016,345.37509080000746,345.37509080000746,345.37509080000746,,,,348.366494700007,j,1.6621065999934217,0.1520065000077011,348.3666965000011,348.36675919999834,None,,,,,,,,,,,,,,00027,001,2026-01-20_19h47.53.224,MST_task,2024.2.0,59.94237140146022,2026-01-20 19h47.59.867695 +0530,
,Scenes\043a.jpg,69,0,70,,,,,,,j,0.8385183999926085,0.1519686000101501,None,,,,,,70,0,69,348.3825963999989,,,,,,,,,,,,,,,,,,,,,,,348.3672252999968,348.3825963999989,348.88735820000875,348.86655210000754,,,,,,,,,,,,,,,,,,,,,,,,,,348.8846565999993,348.88735820000875,348.88735820000875,348.88735820000875,,,,351.88298639999994,j,0.8385183999926085,0.1519686000101501,351.88319780000893,351.8832686000096,None,,,,,,,,,,,,,,00027,001,2026-01-20_19h47.53.224,MST_task,2024.2.0,59.94237140146022,2026-01-20 19h47.59.867695 +0530,
,Objects\020a.jpg,70,0,71,,,,,,,f,0.8853323000075761,0.17644539999309927,None,,,,,,71,0,70,351.8993971000018,,,,,,,,,,,,,,,,,,,,,,,351.88367209999706,351.8993971000018,352.40003499999875,352.38314200000605,,,,,,,,,,,,,,,,,,,,,,,,,,352.39290230000915,352.40003499999875,352.40003499999875,352.40003499999875,355.39936650000163,355.39936650000163,355.39936650000163,355.38400560000446,f,0.8853323000075761,0.17644539999309927,355.3841941999999,355.38425210000423,None,,,,,,,,,,,,,,00027,001,2026-01-20_19h47.53.224,MST_task,2024.2.0,59.94237140146022,2026-01-20 19h47.59.867695 +0530,
,Objects\148a.jpg,71,0,72,,,,,,,f,0.5145361000031698,0.1514898000023095,None,,,,,,72,0,71,355.39936650000163,,,,,,,,,,,,,,,,,,,,,,,355.3845633000019,355.39936650000163,355.8992977000016,355.88305160000164,,,,,,,,,,,,,,,,,,,,,,,,,,355.89210890000686,355.8992977000016,355.8992977000016,355.8992977000016,358.8994435000059,358.8994435000059,358.8994435000059,358.8839757999958,f,0.5145361000031698,0.1514898000023095,358.88418219999585,358.88424700000905,None,,,,,,,,,,,,,,00027,001,2026-01-20_19h47.53.224,MST_task,2024.2.0,59.94237140146022,2026-01-20 19h47.59.867695 +0530,
,Objects\062a.jpg,72,0,73,,,,,,,f,0.6618623999966076,0.21643070000573061,None,,,,,,73,0,72,358.8994435000059,,,,,,,,,,,,,,,,,,,,,,,358.88458840000385,358.8994435000059,359.39949660000275,359.38297990000865,,,,,,,,,,,,,,,,,,,,,,,,,,359.3914922999975,359.39949660000275,359.39949660000275,359.39949660000275,362.39948720000393,362.39948720000393,362.39948720000393,362.38444639999943,f,0.6618623999966076,0.21643070000573061,362.3846370999963,362.3846896000032,None,,,,,,,,,,,,,,00027,001,2026-01-20_19h47.53.224,MST_task,2024.2.0,59.94237140146022,2026-01-20 19h47.59.867695 +0530,
,Objects\048a.jpg,73,0,74,,,,,,,f,0.9619060999975773,0.18400940000719856,None,,,,,,74,0,73,362.39948720000393,,,,,,,,,,,,,,,,,,,,,,,362.38495750000584,362.39948720000393,362.8993580999959,362.88311399999657,,,,,,,,,,,,,,,,,,,,,,,,,,362.8923322000046,362.8993580999959,362.8993580999959,362.8993580999959,365.8994556999969,365.8994556999969,365.8994556999969,365.8839238000073,f,0.9619060999975773,0.18400940000719856,365.8841198000009,365.88417940000363,None,,,,,,,,,,,,,,00027,001,2026-01-20_19h47.53.224,MST_task,2024.2.0,59.94237140146022,2026-01-20 19h47.59.867695 +0530,
,Objects\025a.jpg,74,0,75,,,,,,,f,0.9816768999880878,0.19218730001011863,None,,,,,,75,0,74,365.8994556999969,,,,,,,,,,,,,,,,,,,,,,,365.88447620000807,365.8994556999969,366.3999138000072,366.38314849999733,,,,,,,,,,,,,,,,,,,,,,,,,,366.39157000000705,366.3999138000072,366.3999138000072,366.3999138000072,369.3995353000064,369.3995353000064,369.3995353000064,369.38390129999607,f,0.9816768999880878,0.19218730001011863,369.38409410000895,369.3841516000102,None,,,,,,,,,,,,,,00027,001,2026-01-20_19h47.53.224,MST_task,2024.2.0,59.94237140146022,2026-01-20 19h47.59.867695 +0530,
,Objects\108a.jpg,75,0,76,,,,,,,f,0.7777878000051714,0.20758200000273064,None,,,,,,76,0,75,369.3995353000064,,,,,,,,,,,,,,,,,,,,,,,369.38451879999775,369.3995353000064,369.90001640000264,369.88262950000353,,,,,,,,,,,,,,,,,,,,,,,,,,369.88851430000796,369.90001640000264,369.90001640000264,369.90001640000264,372.899453200007,372.899453200007,372.899453200007,372.8839588999981,f,0.7777878000051714,0.20758200000273064,372.8841529000056,372.8842100000038,None,,,,,,,,,,,,,,00027,001,2026-01-20_19h47.53.224,MST_task,2024.2.0,59.94237140146022,2026-01-20 19h47.59.867695 +0530,
,Objects\140a.jpg,76,0,77,,,,,,,f,0.6297915000031935,0.19230080000124872,None,,,,,,77,0,76,372.899453200007,,,,,,,,,,,,,,,,,,,,,,,372.88456980000774,372.899453200007,373.3996810000099,373.3831122999982,,,,,,,,,,,,,,,,,,,,,,,,,,373.3884876000084,373.3996810000099,373.3996810000099,373.3996810000099,376.3994395000045,376.3994395000045,376.3994395000045,376.3838978999993,f,0.6297915000031935,0.19230080000124872,376.3840884000092,376.38414710000507,None,,,,,,,,,,,,,,00027,001,2026-01-20_19h47.53.224,MST_task,2024.2.0,59.94237140146022,2026-01-20 19h47.59.867695 +0530,
,Scenes\134a.jpg,77,0,78,,,,,,,j,0.7574329000053694,0.19131799999740906,None,,,,,,78,0,77,376.3994395000045,,,,,,,,,,,,,,,,,,,,,,,376.38443350000307,376.3994395000045,376.9043595999974,376.8827680999966,,,,,,,,,,,,,,,,,,,,,,,,,,376.90171340000234,376.9043595999974,376.9043595999974,376.9043595999974,,,,379.8994657000003,j,0.7574329000053694,0.19131799999740906,379.8996691000066,379.8997320000053,None,,,,,,,,,,,,,,00027,001,2026-01-20_19h47.53.224,MST_task,2024.2.0,59.94237140146022,2026-01-20 19h47.59.867695 +0530,
,Scenes\160a.jpg,78,0,79,,,,,,,j,0.8118525000027148,0.1519782999966992,None,,,,,,79,0,78,379.91575700000976,,,,,,,,,,,,,,,,,,,,,,,379.9001011000073,379.91575700000976,380.4179726000002,380.3996426000085,,,,,,,,,,,,,,,,,,,,,,,,,,380.41528620000463,380.4179726000002,380.4179726000002,380.4179726000002,,,,383.4165298000007,j,0.8118525000027148,0.1519782999966992,383.4167674000055,383.41683600000397,None,,,,,,,,,,,,,,00027,001,2026-01-20_19h47.53.224,MST_task,2024.2.0,59.94237140146022,2026-01-20 19h47.59.867695 +0530,
,Scenes\132a.jpg,79,0,80,,,,,,,j,1.456023599996115,0.20823200000450015,None,,,,,,80,0,79,383.432721899997,,,,,,,,,,,,,,,,,,,,,,,383.4173133000004,383.432721899997,383.9331655999995,383.9166203000059,,,,,,,,,,,,,,,,,,,,,,,,,,383.9282990000065,383.9331655999995,383.9331655999995,383.9331655999995,386.93261470001016,386.93261470001016,386.93261470001016,386.91734529999667,j,1.456023599996115,0.20823200000450015,386.91743159999896,386.91744740000286,None,,,,,,,,,,,,,,00027,001,2026-01-20_19h47.53.224,MST_task,2024.2.0,59.94237140146022,2026-01-20 19h47.59.867695 +0530,
,Scenes\052a.jpg,80,0,81,,,,,,,j,2.059241800001473,0.19160170000395738,None,,,,,,81,0,80,386.93261470001016,,,,,,,,,,,,,,,,,,,,,,,386.9175416000071,386.93261470001016,387.4345847000077,387.41651389999606,,,,,,,,,,,,,,,,,,,,,,,,,,387.43190690000483,387.4345847000077,387.4345847000077,387.4345847000077,,,,390.43394820000685,j,2.059241800001473,0.19160170000395738,390.4340252999973,390.4340493000054,None,,,,,,,,,,,,,,00027,001,2026-01-20_19h47.53.224,MST_task,2024.2.0,59.94237140146022,2026-01-20 19h47.59.867695 +0530,
,Scenes\089a.jpg,81,0,82,,,,,,,j,1.1947165000019595,0.1678474000073038,None,,,,,,82,0,81,390.44914690000587,,,,,,,,,,,,,,,,,,,,,,,390.43413639999926,390.44914690000587,390.95453040000575,390.9331213999976,,,,,,,,,,,,,,,,,,,,,,,,,,390.95184330000484,390.95453040000575,390.95453040000575,390.95453040000575,,,,393.9496713999979,j,1.1947165000019595,0.1678474000073038,393.94987579999724,393.949938500009,None,,,,,,,,,,,,,,00027,001,2026-01-20_19h47.53.224,MST_task,2024.2.0,59.94237140146022,2026-01-20 19h47.59.867695 +0530,
,Scenes\189a.jpg,82,0,83,,,,,,,j,0.6803532000049017,0.16796550000435673,None,,,,,,83,0,82,393.96599609999976,,,,,,,,,,,,,,,,,,,,,,,393.95023790000414,393.96599609999976,394.4688879000023,394.4495161000086,,,,,,,,,,,,,,,,,,,,,,,,,,394.4661399000033,394.4688879000023,394.4688879000023,394.4688879000023,,,,397.46656139999686,j,0.6803532000049017,0.16796550000435673,397.46676120000484,397.466823499999,None,,,,,,,,,,,,,,00027,001,2026-01-20_19h47.53.224,MST_task,2024.2.0,59.94237140146022,2026-01-20 19h47.59.867695 +0530,
,Scenes\013a.jpg,83,0,84,,,,,,,j,1.7723152000107802,0.19143890000123065,None,,,,,,84,0,83,397.4827328000101,,,,,,,,,,,,,,,,,,,,,,,397.46711369999684,397.4827328000101,397.98548319999827,397.9665032000048,,,,,,,,,,,,,,,,,,,,,,,,,,397.98280690000684,397.98548319999827,397.98548319999827,397.98548319999827,,,,400.98306030000094,j,1.7723152000107802,0.19143890000123065,400.98328149999725,400.9833454000036,None,,,,,,,,,,,,,,00027,001,2026-01-20_19h47.53.224,MST_task,2024.2.0,59.94237140146022,2026-01-20 19h47.59.867695 +0530,
,Objects\178a.jpg,84,0,85,,,,,,,f,0.6884012999944389,0.20838160000857897,None,,,,,,85,0,84,400.9994364000013,,,,,,,,,,,,,,,,,,,,,,,400.9837419999967,400.9994364000013,401.50097259999893,401.4831487000047,,,,,,,,,,,,,,,,,,,,,,,,,,401.49744530000316,401.50097259999893,401.50097259999893,401.50097259999893,,,,404.4997854999965,f,0.6884012999944389,0.20838160000857897,404.5000151999993,404.500079999998,None,,,,,,,,,,,,,,00027,001,2026-01-20_19h47.53.224,MST_task,2024.2.0,59.94237140146022,2026-01-20 19h47.59.867695 +0530,
,Objects\056a.jpg,85,0,86,,,,,,,f,1.4687701000075322,0.18394380000245292,None,,,,,,86,0,85,404.51581440000155,,,,,,,,,,,,,,,,,,,,,,,404.50037940000766,404.51581440000155,405.01634850000846,404.9998404000071,,,,,,,,,,,,,,,,,,,,,,,,,,405.0084104999987,405.01634850000846,405.01634850000846,405.01634850000846,408.0161866999988,408.0161866999988,408.0161866999988,408.00072830000136,f,1.4687701000075322,0.18394380000245292,408.00092950000544,408.0009885000036,None,,,,,,,,,,,,,,00027,001,2026-01-20_19h47.53.224,MST_task,2024.2.0,59.94237140146022,2026-01-20 19h47.59.867695 +0530,
,Objects\089a.jpg,86,0,87,,,,,,,f,0.8896307999966666,0.20000890000665095,None,,,,,,87,0,86,408.0161866999988,,,,,,,,,,,,,,,,,,,,,,,408.00134109999635,408.0161866999988,408.5161303000059,408.49961680000706,,,,,,,,,,,,,,,,,,,,,,,,,,408.5080686000001,408.5161303000059,408.5161303000059,408.5161303000059,411.51614249999693,411.51614249999693,411.51614249999693,411.5007337999996,f,0.8896307999966666,0.20000890000665095,411.50092869999935,411.50098759999673,None,,,,,,,,,,,,,,00027,001,2026-01-20_19h47.53.224,MST_task,2024.2.0,59.94237140146022,2026-01-20 19h47.59.867695 +0530,
,Objects\080a.jpg,87,0,88,,,,,,,f,0.5810248000052525,0.1761275999888312,None,,,,,,88,0,87,411.51614249999693,,,,,,,,,,,,,,,,,,,,,,,411.5013663999998,411.51614249999693,412.01637270000356,411.9995579000097,,,,,,,,,,,,,,,,,,,,,,,,,,412.0075139999972,412.01637270000356,412.01637270000356,412.01637270000356,415.0169067999959,415.0169067999959,415.0169067999959,415.00067310000304,f,0.5810248000052525,0.1761275999888312,415.0008705000073,415.0009299000085,None,,,,,,,,,,,,,,00027,001,2026-01-20_19h47.53.224,MST_task,2024.2.0,59.94237140146022,2026-01-20 19h47.59.867695 +0530,
,Objects\030a.jpg,88,0,89,,,,,,,f,0.8568524000002071,0.20798020000802353,None,,,,,,89,0,88,415.0169067999959,,,,,,,,,,,,,,,,,,,,,,,415.00122970000666,415.0169067999959,415.5164019000076,415.49984940000286,,,,,,,,,,,,,,,,,,,,,,,,,,415.50846910000837,415.5164019000076,415.5164019000076,415.5164019000076,418.5161155000096,418.5161155000096,418.5161155000096,418.5006681000086,f,0.8568524000002071,0.20798020000802353,418.5008647000068,418.5009229999996,None,,,,,,,,,,,,,,00027,001,2026-01-20_19h47.53.224,MST_task,2024.2.0,59.94237140146022,2026-01-20 19h47.59.867695 +0530,
,Objects\164a.jpg,89,0,90,,,,,,,f,1.1246436000074027,0.21672109999053646,None,,,,,,90,0,89,418.5161155000096,,,,,,,,,,,,,,,,,,,,,,,418.5013006000081,418.5161155000096,419.0164056000067,418.99984410000616,,,,,,,,,,,,,,,,,,,,,,,,,,419.0088592000102,419.0164056000067,419.0164056000067,419.0164056000067,422.0158645000047,422.0158645000047,422.0158645000047,422.0007415,f,1.1246436000074027,0.21672109999053646,422.00093840000045,422.0009971999971,None,,,,,,,,,,,,,,00027,001,2026-01-20_19h47.53.224,MST_task,2024.2.0,59.94237140146022,2026-01-20 19h47.59.867695 +0530,
,Objects\161a.jpg,90,0,91,,,,,,,f,0.9133101999905193,0.20803340000566095,None,,,,,,91,0,90,422.0158645000047,,,,,,,,,,,,,,,,,,,,,,,422.00136100000236,422.0158645000047,422.5163826000062,422.4998500000074,,,,,,,,,,,,,,,,,,,,,,,,,,422.5085756000044,422.5163826000062,422.5163826000062,422.5163826000062,425.5159543000045,425.5159543000045,425.5159543000045,425.500477900001,f,0.9133101999905193,0.20803340000566095,425.5006766000006,425.50073490000796,None,,,,,,,,,,,,,,00027,001,2026-01-20_19h47.53.224,MST_task,2024.2.0,59.94237140146022,2026-01-20 19h47.59.867695 +0530,
,Scenes\154a.jpg,91,0,92,,,,,,,j,1.0130249000067124,0.23908859999210108,None,,,,,,92,0,91,425.5159543000045,,,,,,,,,,,,,,,,,,,,,,,425.5010372999968,425.5159543000045,426.01696999999695,425.99971150000056,,,,,,,,,,,,,,,,,,,,,,,,,,426.0143837000069,426.01696999999695,426.01696999999695,426.01696999999695,429.01580930000637,429.01580930000637,429.01580930000637,429.00067860000127,j,1.0130249000067124,0.23908859999210108,429.0008747000102,429.00093280000146,None,,,,,,,,,,,,,,00027,001,2026-01-20_19h47.53.224,MST_task,2024.2.0,59.94237140146022,2026-01-20 19h47.59.867695 +0530,
,Scenes\143a.jpg,92,0,93,,,,,,,j,0.8941870000126073,0.16732029999548104,None,,,,,,93,0,92,429.01580930000637,,,,,,,,,,,,,,,,,,,,,,,429.0013123999961,429.01580930000637,429.5196075999993,429.4998474000022,,,,,,,,,,,,,,,,,,,,,,,,,,429.5169154000032,429.5196075999993,429.5196075999993,429.5196075999993,,,,432.5164977000095,j,0.8941870000126073,0.16732029999548104,432.51669350000157,432.5167567000026,None,,,,,,,,,,,,,,00027,001,2026-01-20_19h47.53.224,MST_task,2024.2.0,59.94237140146022,2026-01-20 19h47.59.867695 +0530,
,Scenes\161a.jpg,93,0,94,,,,,,,j,0.570919200006756,0.17544819999602623,None,,,,,,94,0,93,432.53273289999925,,,,,,,,,,,,,,,,,,,,,,,432.51712450000923,432.53273289999925,433.03526650001004,433.0165185000078,,,,,,,,,,,,,,,,,,,,,,,,,,433.03299010000774,433.03526650001004,433.03526650001004,433.03526650001004,,,,436.0329664000019,j,0.570919200006756,0.17544819999602623,436.0331750000041,436.033242400008,None,,,,,,,,,,,,,,00027,001,2026-01-20_19h47.53.224,MST_task,2024.2.0,59.94237140146022,2026-01-20 19h47.59.867695 +0530,
,Scenes\004a.jpg,94,0,95,,,,,,,j,0.6208133000036469,0.1916635999950813,None,,,,,,95,0,94,436.0494563000102,,,,,,,,,,,,,,,,,,,,,,,436.03364039999724,436.0494563000102,,436.53345940000145,,,,,,,,,,,,,,,,,,,,,,,,,,436.55848120000155,436.56127160000324,436.56127160000324,436.56127160000324,,,,439.5498565000016,j,0.6208133000036469,0.1916635999950813,439.55005810000875,439.5501198999991,None,,,,,,,,,,,,,,00027,001,2026-01-20_19h47.53.224,MST_task,2024.2.0,59.94237140146022,2026-01-20 19h47.59.867695 +0530,
,Scenes\047a.jpg,95,0,96,,,,,,,j,0.567203900005552,0.1919659999985015,None,,,,,,96,0,95,439.5659486000077,,,,,,,,,,,,,,,,,,,,,,,439.5504915000056,439.5659486000077,440.0705995000026,440.0498886999994,,,,,,,,,,,,,,,,,,,,,,,,,,440.0677405000024,440.0705995000026,440.0705995000026,440.0705995000026,,,,443.0662847000058,j,0.567203900005552,0.1919659999985015,443.06648370000767,443.0665469000087,None,,,,,,,,,,,,,,00027,001,2026-01-20_19h47.53.224,MST_task,2024.2.0,59.94237140146022,2026-01-20 19h47.59.867695 +0530,
,Scenes\015a.jpg,96,0,97,,,,,,,j,0.6698639999958687,0.15259929999592714,None,,,,,,97,0,96,443.0827152999991,,,,,,,,,,,,,,,,,,,,,,,443.0669159999961,443.0827152999991,443.5912734000012,443.56649710000784,,,,,,,,,,,,,,,,,,,,,,,,,,443.5882902000012,443.5912734000012,443.5912734000012,443.5912734000012,,,,446.5671279000089,j,0.6698639999958687,0.15259929999592714,446.56734320000396,446.5674103000056,None,,,,,,,,,,,,,,00027,001,2026-01-20_19h47.53.224,MST_task,2024.2.0,59.94237140146022,2026-01-20 19h47.59.867695 +0530,
,Scenes\187a.jpg,97,0,98,,,,,,,j,0.9944758999918122,0.16758990001108032,None,,,,,,98,0,97,446.5827258000063,,,,,,,,,,,,,,,,,,,,,,,446.5678254000086,446.5827258000063,447.08332570000493,447.06650600000285,,,,,,,,,,,,,,,,,,,,,,,,,,447.07937259999744,447.08332570000493,447.08332570000493,447.08332570000493,450.08274620000157,450.08274620000157,450.08274620000157,450.0675234000082,j,0.9944758999918122,0.16758990001108032,450.0677541000041,450.0678198000096,None,,,,,,,,,,,,,,00027,001,2026-01-20_19h47.53.224,MST_task,2024.2.0,59.94237140146022,2026-01-20 19h47.59.867695 +0530,
,Objects\049a.jpg,98,0,99,,,,,,,f,1.309942800013232,0.20013019999896642,None,,,,,,99,0,98,450.08274620000157,,,,,,,,,,,,,,,,,,,,,,,450.0681543999963,450.08274620000157,450.5831696999958,450.56618970001,,,,,,,,,,,,,,,,,,,,,,,,,,450.57553010000265,450.5831696999958,450.5831696999958,450.5831696999958,453.5827100000024,453.5827100000024,453.5827100000024,453.56697729999723,f,1.309942800013232,0.20013019999896642,453.5671688000002,453.5672266000038,None,,,,,,,,,,,,,,00027,001,2026-01-20_19h47.53.224,MST_task,2024.2.0,59.94237140146022,2026-01-20 19h47.59.867695 +0530,
,Objects\183a.jpg,99,0,100,,,,,,,f,0.833500400010962,0.2159918999968795,None,,,,,,100,0,99,453.5827100000024,,,,,,,,,,,,,,,,,,,,,,,453.56751970000914,453.5827100000024,454.0836808000022,454.06652570000733,,,,,,,,,,,,,,,,,,,,,,,,,,454.0754880000022,454.0836808000022,454.0836808000022,454.0836808000022,,,,457.0830993999989,f,0.833500400010962,0.2159918999968795,457.0832958000101,457.08337290000054,None,,,,,,,,,,,,,,00027,001,2026-01-20_19h47.53.224,MST_task,2024.2.0,59.94237140146022,2026-01-20 19h47.59.867695 +0530,
,Objects\179a.jpg,100,0,101,,,,,,,f,0.7495149000023957,0.19263770000543445,None,,,,,,101,0,100,457.09945609999704,,,,,,,,,,,,,,,,,,,,,,,457.0837518000044,457.09945609999704,457.5995649999968,457.5831082000077,,,,,,,,,,,,,,,,,,,,,,,,,,457.5913689000008,457.5995649999968,457.5995649999968,457.5995649999968,460.5993312000064,460.5993312000064,460.5993312000064,460.5837532000005,f,0.7495149000023957,0.19263770000543445,460.5839444000012,460.5840029000101,None,,,,,,,,,,,,,,00027,001,2026-01-20_19h47.53.224,MST_task,2024.2.0,59.94237140146022,2026-01-20 19h47.59.867695 +0530,
,Objects\109a.jpg,101,0,102,,,,,,,f,0.5693676999944728,0.1841268999996828,None,,,,,,102,0,101,460.5993312000064,,,,,,,,,,,,,,,,,,,,,,,460.5843869000091,460.5993312000064,461.09968050000316,461.0828823000047,,,,,,,,,,,,,,,,,,,,,,,,,,461.09046859999944,461.09968050000316,461.09968050000316,461.09968050000316,464.09907029999886,464.09907029999886,464.09907029999886,464.08366869999736,f,0.5693676999944728,0.1841268999996828,464.0838675999985,464.0839252000005,None,,,,,,,,,,,,,,00027,001,2026-01-20_19h47.53.224,MST_task,2024.2.0,59.94237140146022,2026-01-20 19h47.59.867695 +0530,
,Objects\180a.jpg,102,0,103,,,,,,,f,0.646069800000987,0.18407740000111517,None,,,,,,103,0,102,464.09907029999886,,,,,,,,,,,,,,,,,,,,,,,464.08430529999896,464.09907029999886,464.5995652999991,464.58304179999686,,,,,,,,,,,,,,,,,,,,,,,,,,464.59262730000773,464.5995652999991,464.5995652999991,464.5995652999991,467.59945570000855,467.59945570000855,467.59945570000855,467.58371750000515,f,0.646069800000987,0.18407740000111517,467.58390820000204,467.583967700004,None,,,,,,,,,,,,,,00027,001,2026-01-20_19h47.53.224,MST_task,2024.2.0,59.94237140146022,2026-01-20 19h47.59.867695 +0530,
,Objects\172a.jpg,103,0,104,,,,,,,f,0.6653212999954121,0.1766568000020925,None,,,,,,104,0,103,467.59945570000855,,,,,,,,,,,,,,,,,,,,,,,467.58426340000005,467.59945570000855,468.0997258999996,468.08311069999763,,,,,,,,,,,,,,,,,,,,,,,,,,468.09126490000926,468.0997258999996,468.0997258999996,468.0997258999996,471.09946710000804,471.09946710000804,471.09946710000804,471.0838868999999,f,0.6653212999954121,0.1766568000020925,471.08408000000054,471.08413940000173,None,,,,,,,,,,,,,,00027,001,2026-01-20_19h47.53.224,MST_task,2024.2.0,59.94237140146022,2026-01-20 19h47.59.867695 +0530,
,Objects\155a.jpg,104,0,105,,,,,,,f,0.6460095000074944,0.17599439999321476,None,,,,,,105,0,104,471.09946710000804,,,,,,,,,,,,,,,,,,,,,,,471.08452119999856,471.09946710000804,471.5997153000062,471.58312500000466,,,,,,,,,,,,,,,,,,,,,,,,,,471.5920202999987,471.5997153000062,471.5997153000062,471.5997153000062,474.5994312999974,474.5994312999974,474.5994312999974,474.5840079000045,f,0.6460095000074944,0.17599439999321476,474.5842161000037,474.5842808000016,None,,,,,,,,,,,,,,00027,001,2026-01-20_19h47.53.224,MST_task,2024.2.0,59.94237140146022,2026-01-20 19h47.59.867695 +0530,
,Scenes\176a.jpg,105,0,106,,,,,,,j,0.5808670999977039,0.20792090000759345,None,,,,,,106,0,105,474.5994312999974,,,,,,,,,,,,,,,,,,,,,,,474.5846856999997,474.5994312999974,475.10428880000836,475.0831285000022,,,,,,,,,,,,,,,,,,,,,,,,,,475.1016352000006,475.10428880000836,475.10428880000836,475.10428880000836,,,,478.0997226000036,j,0.5808670999977039,0.20792090000759345,478.09994110000844,478.10001100000227,None,,,,,,,,,,,,,,00027,001,2026-01-20_19h47.53.224,MST_task,2024.2.0,59.94237140146022,2026-01-20 19h47.59.867695 +0530,
,Scenes\190a.jpg,106,0,107,,,,,,,j,0.5209040999907302,0.16727810000884347,None,,,,,,107,0,106,478.1161281000095,,,,,,,,,,,,,,,,,,,,,,,478.1003353999986,478.1161281000095,478.6207931000099,478.5995824999991,,,,,,,,,,,,,,,,,,,,,,,,,,478.6179203000065,478.6207931000099,478.6207931000099,478.6207931000099,,,,481.6162869999971,j,0.5209040999907302,0.16727810000884347,481.6164822999999,481.6165458000032,None,,,,,,,,,,,,,,00027,001,2026-01-20_19h47.53.224,MST_task,2024.2.0,59.94237140146022,2026-01-20 19h47.59.867695 +0530,
,Scenes\127a.jpg,107,0,108,,,,,,,j,0.7733662999962689,0.17632700000831392,None,,,,,,108,0,107,481.63241109999944,,,,,,,,,,,,,,,,,,,,,,,481.616837900001,481.63241109999944,482.13572259999637,482.116525999998,,,,,,,,,,,,,,,,,,,,,,,,,,482.13304850000713,482.13572259999637,482.13572259999637,482.13572259999637,,,,485.13305270001,j,0.7733662999962689,0.17632700000831392,485.13325220000115,485.13331430000835,None,,,,,,,,,,,,,,00027,001,2026-01-20_19h47.53.224,MST_task,2024.2.0,59.94237140146022,2026-01-20 19h47.59.867695 +0530,
,Scenes\044a.jpg,108,0,109,,,,,,,j,1.7506720999954268,0.1839421000040602,None,,,,,,109,0,108,485.14948410000943,,,,,,,,,,,,,,,,,,,,,,,485.1337163999997,485.14948410000943,485.6545466000098,485.63365129999875,,,,,,,,,,,,,,,,,,,,,,,,,,485.6519280000066,485.6545466000098,485.6545466000098,485.6545466000098,,,,488.6496649000037,j,1.7506720999954268,0.1839421000040602,488.64986489999865,488.6499230000045,None,,,,,,,,,,,,,,00027,001,2026-01-20_19h47.53.224,MST_task,2024.2.0,59.94237140146022,2026-01-20 19h47.59.867695 +0530,
,Scenes\170a.jpg,109,0,110,,,,,,,j,1.7986989000055473,0.16800589999184012,None,,,,,,110,0,109,488.6659923999978,,,,,,,,,,,,,,,,,,,,,,,488.65019500000926,488.6659923999978,489.1750192000036,489.1499405000068,,,,,,,,,,,,,,,,,,,,,,,,,,489.1723048999993,489.1750192000036,489.1750192000036,489.1750192000036,,,,492.1665548000019,j,1.7986989000055473,0.16800589999184012,492.16676500000176,492.1668343000056,None,,,,,,,,,,,,,,00027,001,2026-01-20_19h47.53.224,MST_task,2024.2.0,59.94237140146022,2026-01-20 19h47.59.867695 +0530,
,Scenes\028a.jpg,110,0,111,,,,,,,j,0.3616273999941768,0.16836710000643507,None,,,,,,111,0,110,492.18274650000967,,,,,,,,,,,,,,,,,,,,,,,492.1671495000046,492.18274650000967,492.6833997000067,492.66654829999607,,,,,,,,,,,,,,,,,,,,,,,,,,492.6785150000069,492.6833997000067,492.6833997000067,492.6833997000067,495.6825170000084,495.6825170000084,495.6825170000084,495.6672775000043,j,0.3616273999941768,0.16836710000643507,495.6675080999994,495.66756790000363,None,,,,,,,,,,,,,,00027,001,2026-01-20_19h47.53.224,MST_task,2024.2.0,59.94237140146022,2026-01-20 19h47.59.867695 +0530,
,Scenes\071a.jpg,111,0,112,,,,,,,j,1.0120441000035498,0.16800579999107867,None,,,,,,112,0,111,495.6825170000084,,,,,,,,,,,,,,,,,,,,,,,495.66797280000173,495.6825170000084,496.1853742000094,496.1663766999991,,,,,,,,,,,,,,,,,,,,,,,,,,496.18280740000773,496.1853742000094,496.1853742000094,496.1853742000094,,,,499.18329580000136,j,1.0120441000035498,0.16800579999107867,499.1834969000047,499.1835613000003,None,,,,,,,,,,,,,,00027,001,2026-01-20_19h47.53.224,MST_task,2024.2.0,59.94237140146022,2026-01-20 19h47.59.867695 +0530,
,Objects\038a.jpg,112,0,113,,,,,,,f,0.833508299998357,0.19973629999731202,None,,,,,,113,0,112,499.19938620000903,,,,,,,,,,,,,,,,,,,,,,,499.1838817000098,499.19938620000903,499.6997937999986,499.6825628000079,,,,,,,,,,,,,,,,,,,,,,,,,,499.6942287999991,499.6997937999986,499.6997937999986,499.6997937999986,502.69946080000955,502.69946080000955,502.69946080000955,502.6839464000077,f,0.833508299998357,0.19973629999731202,502.68415410000307,502.68421160000435,None,,,,,,,,,,,,,,00027,001,2026-01-20_19h47.53.224,MST_task,2024.2.0,59.94237140146022,2026-01-20 19h47.59.867695 +0530,
,Objects\033a.jpg,113,0,114,,,,,,,f,0.5333939999982249,0.2160106000083033,None,,,,,,114,0,113,502.69946080000955,,,,,,,,,,,,,,,,,,,,,,,502.6846041999961,502.69946080000955,503.1996879000071,503.1827886000101,,,,,,,,,,,,,,,,,,,,,,,,,,503.1916310000088,503.1996879000071,503.1996879000071,503.1996879000071,506.1996139999974,506.1996139999974,506.1996139999974,506.18406670000695,f,0.5333939999982249,0.2160106000083033,506.18428180000046,506.1843469000014,None,,,,,,,,,,,,,,00027,001,2026-01-20_19h47.53.224,MST_task,2024.2.0,59.94237140146022,2026-01-20 19h47.59.867695 +0530,
,Objects\105a.jpg,114,0,115,,,,,,,f,0.9061596999963513,0.2079820000071777,None,,,,,,115,0,114,506.1996139999974,,,,,,,,,,,,,,,,,,,,,,,506.1846835000033,506.1996139999974,506.6995184999978,506.6832293000043,,,,,,,,,,,,,,,,,,,,,,,,,,506.6925071000005,506.6995184999978,506.6995184999978,506.6995184999978,509.69947110000066,509.69947110000066,509.69947110000066,509.6840070000035,f,0.9061596999963513,0.2079820000071777,509.68420210000477,509.6842605999991,None,,,,,,,,,,,,,,00027,001,2026-01-20_19h47.53.224,MST_task,2024.2.0,59.94237140146022,2026-01-20 19h47.59.867695 +0530,
,Objects\029a.jpg,115,0,116,,,,,,,f,2.197722500000964,0.19999559999268968,None,,,,,,116,0,115,509.69947110000066,,,,,,,,,,,,,,,,,,,,,,,509.6845600000088,509.69947110000066,510.1997005000012,510.18311959999846,,,,,,,,,,,,,,,,,,,,,,,,,,510.19181450000906,510.1997005000012,510.1997005000012,510.1997005000012,513.1991667999973,513.1991667999973,513.1991667999973,513.1839366000058,f,2.197722500000964,0.19999559999268968,513.1841280000081,513.1841859999986,None,,,,,,,,,,,,,,00027,001,2026-01-20_19h47.53.224,MST_task,2024.2.0,59.94237140146022,2026-01-20 19h47.59.867695 +0530,
,Objects\173a.jpg,116,0,117,,,,,,,f,1.6660161000036169,0.1918808999907924,None,,,,,,117,0,116,513.1991667999973,,,,,,,,,,,,,,,,,,,,,,,513.1845611000026,513.1991667999973,513.6993445999979,513.6831482999987,,,,,,,,,,,,,,,,,,,,,,,,,,513.6921769000037,513.6993445999979,513.6993445999979,513.6993445999979,516.6995022000046,516.6995022000046,516.6995022000046,516.6840231999959,f,1.6660161000036169,0.1918808999907924,516.6842306000035,516.6842952000006,None,,,,,,,,,,,,,,00027,001,2026-01-20_19h47.53.224,MST_task,2024.2.0,59.94237140146022,2026-01-20 19h47.59.867695 +0530,
,Objects\117a.jpg,117,0,118,,,,,,,f,1.0456059999996796,0.20834579999791458,None,,,,,,118,0,117,516.6995022000046,,,,,,,,,,,,,,,,,,,,,,,516.6847023000009,516.6995022000046,517.1997116999992,517.1831501999986,,,,,,,,,,,,,,,,,,,,,,,,,,517.1926217,517.1997116999992,517.1997116999992,517.1997116999992,520.1991675000027,520.1991675000027,520.1991675000027,520.1835624000087,f,1.0456059999996796,0.20834579999791458,520.1837540999986,520.1838129000098,None,,,,,,,,,,,,,,00027,001,2026-01-20_19h47.53.224,MST_task,2024.2.0,59.94237140146022,2026-01-20 19h47.59.867695 +0530,
,Objects\083a.jpg,118,0,119,,,,,,,f,0.8739628000039374,0.19995499998913147,None,,,,,,119,0,118,520.1991675000027,,,,,,,,,,,,,,,,,,,,,,,520.1841106000065,520.1991675000027,520.699749899999,520.682753000001,,,,,,,,,,,,,,,,,,,,,,,,,,520.6918210000003,520.699749899999,520.699749899999,520.699749899999,523.6994747999997,523.6994747999997,523.6994747999997,523.684030999997,f,0.8739628000039374,0.19995499998913147,523.6842466000089,523.684311200006,None,,,,,,,,,,,,,,00027,001,2026-01-20_19h47.53.224,MST_task,2024.2.0,59.94237140146022,2026-01-20 19h47.59.867695 +0530,
,Scenes\173a.jpg,119,0,120,,,,,,,j,1.1009816999867326,0.18405280000297353,None,,,,,,120,0,119,523.6994747999997,,,,,,,,,,,,,,,,,,,,,,,523.6846387999976,523.6994747999997,524.2000463000004,524.1827749000076,,,,,,,,,,,,,,,,,,,,,,,,,,524.1975067000021,524.2000463000004,524.2000463000004,524.2000463000004,527.1999462000094,527.1999462000094,527.1999462000094,527.1839427000086,j,1.1009816999867326,0.18405280000297353,527.1841362999985,527.1841954999982,None,,,,,,,,,,,,,,00027,001,2026-01-20_19h47.53.224,MST_task,2024.2.0,59.94237140146022,2026-01-20 19h47.59.867695 +0530,
,Scenes\088a.jpg,120,0,121,,,,,,,j,0.9626586999947904,0.18460150000464637,None,,,,,,121,0,120,527.1999462000094,,,,,,,,,,,,,,,,,,,,,,,527.184497299997,527.1999462000094,527.7064296000026,527.6831241000036,,,,,,,,,,,,,,,,,,,,,,,,,,527.7036462999968,527.7064296000026,527.7064296000026,527.7064296000026,,,,530.6998574000027,j,0.9626586999947904,0.18460150000464637,530.7000583000045,530.7001211000024,None,,,,,,,,,,,,,,00027,001,2026-01-20_19h47.53.224,MST_task,2024.2.0,59.94237140146022,2026-01-20 19h47.59.867695 +0530,
,Scenes\174a.jpg,121,0,122,,,,,,,j,0.7438187000079779,0.1921548999962397,None,,,,,,122,0,121,530.7159486000019,,,,,,,,,,,,,,,,,,,,,,,530.7004897000006,530.7159486000019,531.2291379000089,531.199941400002,,,,,,,,,,,,,,,,,,,,,,,,,,531.2262545999984,531.2291379000089,531.2291379000089,531.2291379000089,,,,534.2165818000067,j,0.7438187000079779,0.1921548999962397,534.2167939000065,534.2168622000027,None,,,,,,,,,,,,,,00027,001,2026-01-20_19h47.53.224,MST_task,2024.2.0,59.94237140146022,2026-01-20 19h47.59.867695 +0530,
,Scenes\076a.jpg,122,0,123,,,,,,,j,0.6462975000031292,0.18402600000263192,None,,,,,,123,0,122,534.2327431000012,,,,,,,,,,,,,,,,,,,,,,,534.2171815000038,534.2327431000012,534.7433934000001,534.7170561000094,,,,,,,,,,,,,,,,,,,,,,,,,,534.7405480000016,534.7433934000001,534.7433934000001,534.7433934000001,,,,537.7333787000098,j,0.6462975000031292,0.18402600000263192,537.733593099998,537.7336569000036,None,,,,,,,,,,,,,,00027,001,2026-01-20_19h47.53.224,MST_task,2024.2.0,59.94237140146022,2026-01-20 19h47.59.867695 +0530,
,Scenes\159a.jpg,123,0,124,,,,,,,j,1.2152074000041466,0.19259039999451488,None,,,,,,124,0,123,537.7493287999969,,,,,,,,,,,,,,,,,,,,,,,537.7340361999959,537.7493287999969,538.2538493000029,538.2331530000083,,,,,,,,,,,,,,,,,,,,,,,,,,538.2489347000082,538.2538493000029,538.2538493000029,538.2538493000029,,,,541.2497998000035,j,1.2152074000041466,0.19259039999451488,541.2500086000073,541.250077500008,None,,,,,,,,,,,,,,00027,001,2026-01-20_19h47.53.224,MST_task,2024.2.0,59.94237140146022,2026-01-20 19h47.59.867695 +0530,
,Scenes\150a.jpg,124,0,125,,,,,,,j,2.9559275999927195,None,None,,,,,,125,0,124,541.2658019000082,,,,,,,,,,,,,,,,,,,,,,,541.2504826000077,541.2658019000082,541.7692657000007,541.7498650000052,,,,,,,,,,,,,,,,,,,,,,,,,,541.7664407999982,541.7692657000007,541.7692657000007,541.7692657000007,,,,544.7661824000097,j,2.9559275999927195,None,544.766394899998,544.766458500002,None,,,,,,,,,,,,,,00027,001,2026-01-20_19h47.53.224,MST_task,2024.2.0,59.94237140146022,2026-01-20 19h47.59.867695 +0530,
,Scenes\035a.jpg,125,0,126,,,,,,,j,1.2872577999951318,0.20009890000801533,None,,,,,,126,0,125,544.7827439000102,,,,,,,,,,,,,,,,,,,,,,,544.766824899998,544.7827439000102,545.285964499999,545.2662168999959,,,,,,,,,,,,,,,,,,,,,,,,,,545.28328280001,545.285964499999,545.285964499999,545.285964499999,,,,548.2831275000062,j,1.2872577999951318,0.20009890000801533,548.2833248000097,548.2833872000047,None,,,,,,,,,,,,,,00027,001,2026-01-20_19h47.53.224,MST_task,2024.2.0,59.94237140146022,2026-01-20 19h47.59.867695 +0530,
,Objects\041a.jpg,126,0,127,,,,,,,f,0.8456297000084305,0.19993679999606684,None,,,,,,127,0,126,548.2994840000028,,,,,,,,,,,,,,,,,,,,,,,548.2836815000046,548.2994840000028,548.8000711000059,548.7831649,,,,,,,,,,,,,,,,,,,,,,,,,,548.7936397000012,548.8000711000059,548.8000711000059,548.8000711000059,551.7995000000083,551.7995000000083,551.7995000000083,551.7840033999964,f,0.8456297000084305,0.19993679999606684,551.784209999998,551.784273199999,None,,,,,,,,,,,,,,00027,001,2026-01-20_19h47.53.224,MST_task,2024.2.0,59.94237140146022,2026-01-20 19h47.59.867695 +0530,
,Objects\113a.jpg,127,0,128,,,,,,,f,0.6419214000052307,0.19140389999665786,None,,,,,,128,0,127,551.7995000000083,,,,,,,,,,,,,,,,,,,,,,,551.7846700000082,551.7995000000083,552.2997350000078,552.2831596000033,,,,,,,,,,,,,,,,,,,,,,,,,,552.2921222000004,552.2997350000078,552.2997350000078,552.2997350000078,555.299493700004,555.299493700004,555.299493700004,555.2840530999965,f,0.6419214000052307,0.19140389999665786,555.2842601000011,555.2843253000028,None,,,,,,,,,,,,,,00027,001,2026-01-20_19h47.53.224,MST_task,2024.2.0,59.94237140146022,2026-01-20 19h47.59.867695 +0530,
,Objects\150a.jpg,128,0,129,,,,,,,f,0.7895592999993823,0.19241440000769217,None,,,,,,129,0,128,555.299493700004,,,,,,,,,,,,,,,,,,,,,,,555.284657199998,555.299493700004,555.7997106999974,555.7829276999983,,,,,,,,,,,,,,,,,,,,,,,,,,555.7923398999992,555.7997106999974,555.7997106999974,555.7997106999974,558.799491800004,558.799491800004,558.799491800004,558.7840348000027,f,0.7895592999993823,0.19241440000769217,558.7842482999986,558.7843135000003,None,,,,,,,,,,,,,,00027,001,2026-01-20_19h47.53.224,MST_task,2024.2.0,59.94237140146022,2026-01-20 19h47.59.867695 +0530,
,Objects\040a.jpg,129,0,130,,,,,,,f,1.4492622999969171,0.2164970000012545,None,,,,,,130,0,129,558.799491800004,,,,,,,,,,,,,,,,,,,,,,,558.7846492999961,558.799491800004,559.2996956999996,559.2831368000043,,,,,,,,,,,,,,,,,,,,,,,,,,559.2918616000097,559.2996956999996,559.2996956999996,559.2996956999996,562.2995139999985,562.2995139999985,562.2995139999985,562.2840920000017,f,1.4492622999969171,0.2164970000012545,562.2842973000079,562.284361900005,None,,,,,,,,,,,,,,00027,001,2026-01-20_19h47.53.224,MST_task,2024.2.0,59.94237140146022,2026-01-20 19h47.59.867695 +0530,
,Objects\090a.jpg,130,0,131,,,,,,,f,1.3256412000046112,0.19170480000320822,None,,,,,,131,0,130,562.2995139999985,,,,,,,,,,,,,,,,,,,,,,,562.2846709000005,562.2995139999985,562.7996081000019,562.7829247000045,,,,,,,,,,,,,,,,,,,,,,,,,,562.7927726000053,562.7996081000019,562.7996081000019,562.7996081000019,565.799102200006,565.799102200006,565.799102200006,565.7837511999969,f,1.3256412000046112,0.19170480000320822,565.7839697000018,565.7840300000098,None,,,,,,,,,,,,,,00027,001,2026-01-20_19h47.53.224,MST_task,2024.2.0,59.94237140146022,2026-01-20 19h47.59.867695 +0530,
,Objects\166a.jpg,131,0,132,,,,,,,f,1.0899336000002222,0.19994520000182092,None,,,,,,132,0,131,565.799102200006,,,,,,,,,,,,,,,,,,,,,,,565.7843441000005,565.799102200006,566.299671300003,566.2830044000002,,,,,,,,,,,,,,,,,,,,,,,,,,566.2901028000051,566.299671300003,566.299671300003,566.299671300003,569.2994484000083,569.2994484000083,569.2994484000083,569.2839394000039,f,1.0899336000002222,0.19994520000182092,569.2841367000074,569.284195900007,None,,,,,,,,,,,,,,00027,001,2026-01-20_19h47.53.224,MST_task,2024.2.0,59.94237140146022,2026-01-20 19h47.59.867695 +0530,
,Objects\135a.jpg,132,0,133,,,,,,,f,0.5982794999872567,0.1913490000006277,None,,,,,,133,0,132,569.2994484000083,,,,,,,,,,,,,,,,,,,,,,,569.2845796000038,569.2994484000083,569.7993671000004,569.7832951000019,,,,,,,,,,,,,,,,,,,,,,,,,,569.7908316000103,569.7993671000004,569.7993671000004,569.7993671000004,572.7994738999987,572.7994738999987,572.7994738999987,572.7839438000083,f,0.5982794999872567,0.1913490000006277,572.7841363000043,572.7841951000009,None,,,,,,,,,,,,,,00027,001,2026-01-20_19h47.53.224,MST_task,2024.2.0,59.94237140146022,2026-01-20 19h47.59.867695 +0530,
,Scenes\070a.jpg,133,0,134,,,,,,,f,1.893443799999659,0.19190859999798704,None,,,,,,134,0,133,572.7994738999987,,,,,,,,,,,,,,,,,,,,,,,572.7845809999999,572.7994738999987,573.3038505000004,573.2835169000027,,,,,,,,,,,,,,,,,,,,,,,,,,573.301211900005,573.3038505000004,573.3038505000004,573.3038505000004,,,,576.299906100001,f,1.893443799999659,0.19190859999798704,576.300104199996,576.3001671000093,None,,,,,,,,,,,,,,00027,001,2026-01-20_19h47.53.224,MST_task,2024.2.0,59.94237140146022,2026-01-20 19h47.59.867695 +0530,
,Scenes\003a.jpg,134,0,135,,,,,,,f,1.3721139999979641,0.20002210000529885,None,,,,,,135,0,134,576.3165746000013,,,,,,,,,,,,,,,,,,,,,,,576.300530499997,576.3165746000013,576.8255069000006,576.7998045999993,,,,,,,,,,,,,,,,,,,,,,,,,,576.8227186000004,576.8255069000006,576.8255069000006,576.8255069000006,,,,579.816647700005,f,1.3721139999979641,0.20002210000529885,579.8168688000005,579.8169390999974,None,,,,,,,,,,,,,,00027,001,2026-01-20_19h47.53.224,MST_task,2024.2.0,59.94237140146022,2026-01-20 19h47.59.867695 +0530,
,Scenes\054a.jpg,135,0,136,,,,,,,j,0.8840402000059839,0.1520429999945918,None,,,,,,136,0,135,579.8325381000031,,,,,,,,,,,,,,,,,,,,,,,579.8173706000089,579.8325381000031,580.3376349000027,580.3165234000044,,,,,,,,,,,,,,,,,,,,,,,,,,580.3347253999964,580.3376349000027,580.3376349000027,580.3376349000027,,,,583.3332012000028,j,0.8840402000059839,0.1520429999945918,583.3334199000092,583.3334872999985,None,,,,,,,,,,,,,,00027,001,2026-01-20_19h47.53.224,MST_task,2024.2.0,59.94237140146022,2026-01-20 19h47.59.867695 +0530,
,Scenes\157a.jpg,136,0,137,,,,,,,j,2.0230764000007184,0.1676376999967033,None,,,,,,137,0,136,583.3494840000058,,,,,,,,,,,,,,,,,,,,,,,583.3339618000027,583.3494840000058,583.8545773000078,583.8331446000084,,,,,,,,,,,,,,,,,,,,,,,,,,583.8519037000078,583.8545773000078,583.8545773000078,583.8545773000078,,,,586.8498582000029,j,2.0230764000007184,0.1676376999967033,586.8500569000025,586.8501192999975,None,,,,,,,,,,,,,,00027,001,2026-01-20_19h47.53.224,MST_task,2024.2.0,59.94237140146022,2026-01-20 19h47.59.867695 +0530,
,Scenes\006a.jpg,137,0,138,,,,,,,f,0.9859154000005219,0.21557210000173654,None,,,,,,138,0,137,586.8661589999974,,,,,,,,,,,,,,,,,,,,,,,586.8504885000002,586.8661589999974,587.3717128999997,587.349873500003,,,,,,,,,,,,,,,,,,,,,,,,,,587.3688373000041,587.3717128999997,587.3717128999997,587.3717128999997,,,,590.366531599997,f,0.9859154000005219,0.21557210000173654,590.3667277000059,590.3667913000099,None,,,,,,,,,,,,,,00027,001,2026-01-20_19h47.53.224,MST_task,2024.2.0,59.94237140146022,2026-01-20 19h47.59.867695 +0530,
,Scenes\017a.jpg,138,0,139,,,,,,,f,2.543383199998061,0.27956369999446906,None,,,,,,139,0,138,590.3827114000014,,,,,,,,,,,,,,,,,,,,,,,590.3670844000007,590.3827114000014,590.8862386999972,590.8665738999989,,,,,,,,,,,,,,,,,,,,,,,,,,590.8834178999969,590.8862386999972,590.8862386999972,590.8862386999972,,,,593.8831369999971,f,2.543383199998061,0.27956369999446906,593.8833317999961,593.8833952999994,None,,,,,,,,,,,,,,00027,001,2026-01-20_19h47.53.224,MST_task,2024.2.0,59.94237140146022,2026-01-20 19h47.59.867695 +0530,
,Scenes\051a.jpg,139,0,140,,,,,,,j,0.7444518999982392,0.2242279000056442,None,,,,,,140,0,139,593.8994778000051,,,,,,,,,,,,,,,,,,,,,,,593.883763699996,593.8994778000051,594.404495499999,594.383170400004,,,,,,,,,,,,,,,,,,,,,,,,,,594.4014129999996,594.404495499999,594.404495499999,594.404495499999,,,,597.3843160999968,j,0.7444518999982392,0.2242279000056442,597.3845194000023,597.3845847000048,None,,,,,,,,,,,,,,00027,001,2026-01-20_19h47.53.224,MST_task,2024.2.0,59.94237140146022,2026-01-20 19h47.59.867695 +0530,
,Objects\010a.jpg,140,0,141,,,,,,,f,0.6816847000009147,0.19934059999650344,None,,,,,,141,0,140,597.399344400008,,,,,,,,,,,,,,,,,,,,,,,597.3849678999977,597.399344400008,597.8999151000025,597.8829917999974,,,,,,,,,,,,,,,,,,,,,,,,,,597.8923824000085,597.8999151000025,597.8999151000025,597.8999151000025,600.8994073000067,600.8994073000067,600.8994073000067,600.8833752000064,f,0.6816847000009147,0.19934059999650344,600.8834670000069,600.883522300006,None,,,,,,,,,,,,,,00027,001,2026-01-20_19h47.53.224,MST_task,2024.2.0,59.94237140146022,2026-01-20 19h47.59.867695 +0530,
,Objects\154a.jpg,141,0,142,,,,,,,f,0.9810779999970691,0.23176840000087395,None,,,,,,142,0,141,600.8994073000067,,,,,,,,,,,,,,,,,,,,,,,600.8837959000084,600.8994073000067,601.4003359000053,601.383176400006,,,,,,,,,,,,,,,,,,,,,,,,,,601.3924694000016,601.4003359000053,601.4003359000053,601.4003359000053,,,,604.401171999998,f,0.9810779999970691,0.23176840000087395,604.4013844000001,604.4014472999988,None,,,,,,,,,,,,,,00027,001,2026-01-20_19h47.53.224,MST_task,2024.2.0,59.94237140146022,2026-01-20 19h47.59.867695 +0530,
,Objects\111a.jpg,142,0,143,,,,,,,f,0.6170157000015024,0.22456400000373833,None,,,,,,143,0,142,604.4166371000028,,,,,,,,,,,,,,,,,,,,,,,604.4018380000052,604.4166371000028,604.9160153999983,604.8997258000018,,,,,,,,,,,,,,,,,,,,,,,,,,604.9085463000083,604.9160153999983,604.9160153999983,604.9160153999983,607.9160258000047,607.9160258000047,607.9160258000047,607.9004633000004,f,0.6170157000015024,0.22456400000373833,607.9006578999979,607.900716899996,None,,,,,,,,,,,,,,00027,001,2026-01-20_19h47.53.224,MST_task,2024.2.0,59.94237140146022,2026-01-20 19h47.59.867695 +0530,
,Objects\009a.jpg,143,0,144,,,,,,,f,0.9565290000027744,0.25660290000087116,None,,,,,,144,0,143,607.9160258000047,,,,,,,,,,,,,,,,,,,,,,,607.901099900002,607.9160258000047,608.4164416999993,608.3999466999958,,,,,,,,,,,,,,,,,,,,,,,,,,608.4089089000045,608.4164416999993,608.4164416999993,608.4164416999993,611.4161573000019,611.4161573000019,611.4161573000019,611.4006557999965,f,0.9565290000027744,0.25660290000087116,611.4008413999982,611.4009014000039,None,,,,,,,,,,,,,,00027,001,2026-01-20_19h47.53.224,MST_task,2024.2.0,59.94237140146022,2026-01-20 19h47.59.867695 +0530,
,Objects\076a.jpg,144,0,145,,,,,,,f,2.5844966000004206,0.22461829999519978,None,,,,,,145,0,144,611.4161573000019,,,,,,,,,,,,,,,,,,,,,,,611.4012012000021,611.4161573000019,611.9164194000041,611.8998657000047,,,,,,,,,,,,,,,,,,,,,,,,,,611.9064811999997,611.9164194000041,611.9164194000041,611.9164194000041,614.9161691000045,614.9161691000045,614.9161691000045,614.9006745000079,f,2.5844966000004206,0.22461829999519978,614.9008648000017,614.9009240000014,None,,,,,,,,,,,,,,00027,001,2026-01-20_19h47.53.224,MST_task,2024.2.0,59.94237140146022,2026-01-20 19h47.59.867695 +0530,
,Objects\031a.jpg,145,0,146,,,,,,,f,1.2527032000070903,0.24003839999204502,None,,,,,,146,0,145,614.9161691000045,,,,,,,,,,,,,,,,,,,,,,,614.9012993000069,614.9161691000045,615.4162326000078,615.3997699000029,,,,,,,,,,,,,,,,,,,,,,,,,,615.4088727000053,615.4162326000078,615.4162326000078,615.4162326000078,618.4161411999958,618.4161411999958,618.4161411999958,618.4005724000017,f,1.2527032000070903,0.24003839999204502,618.4006822000083,618.4007144000061,None,,,,,,,,,,,,,,00027,001,2026-01-20_19h47.53.224,MST_task,2024.2.0,59.94237140146022,2026-01-20 19h47.59.867695 +0530,
,Objects\103a.jpg,146,0,147,,,,,,,f,0.8492076999973506,0.21560340000723954,None,,,,,,147,0,146,618.4161411999958,,,,,,,,,,,,,,,,,,,,,,,618.4009188000055,618.4161411999958,,618.9013284999965,,,,,,,,,,,,,,,,,,,,,,,,,,618.9105141000036,618.9161828000069,618.9161828000069,618.9161828000069,621.9161698000098,621.9161698000098,621.9161698000098,621.9005542000086,f,0.8492076999973506,0.21560340000723954,621.9007592999988,621.9008394999983,None,,,,,,,,,,,,,,00027,001,2026-01-20_19h47.53.224,MST_task,2024.2.0,59.94237140146022,2026-01-20 19h47.59.867695 +0530,
,Scenes\090a.jpg,147,0,148,,,,,,,j,2.131587700001546,0.19261559999722522,None,,,,,,148,0,147,621.9161698000098,,,,,,,,,,,,,,,,,,,,,,,621.9012460000085,621.9161698000098,622.4174340000027,622.399888800006,,,,,,,,,,,,,,,,,,,,,,,,,,622.4147293999995,622.4174340000027,622.4174340000027,622.4174340000027,,,,625.4165741000033,j,2.131587700001546,0.19261559999722522,625.4167944000073,625.4168631000066,None,,,,,,,,,,,,,,00027,001,2026-01-20_19h47.53.224,MST_task,2024.2.0,59.94237140146022,2026-01-20 19h47.59.867695 +0530,
,Scenes\020a.jpg,148,0,149,,,,,,,f,2.008266500008176,0.26396070000191685,None,,,,,,149,0,148,625.4327391999977,,,,,,,,,,,,,,,,,,,,,,,625.4173325000011,625.4327391999977,625.9407775,625.9162701000023,,,,,,,,,,,,,,,,,,,,,,,,,,625.9375220000074,625.9407775,625.9407775,625.9407775,,,,628.9330048999982,f,2.008266500008176,0.26396070000191685,628.9331205000053,628.9331547000038,None,,,,,,,,,,,,,,00027,001,2026-01-20_19h47.53.224,MST_task,2024.2.0,59.94237140146022,2026-01-20 19h47.59.867695 +0530,
,Scenes\102a.jpg,149,0,150,,,,,,,j,2.2862547999975504,0.19133739999961108,None,,,,,,150,0,149,628.9493755000003,,,,,,,,,,,,,,,,,,,,,,,628.9333594000054,628.9493755000003,629.4554032000015,629.4331883999985,,,,,,,,,,,,,,,,,,,,,,,,,,629.4525167999964,629.4554032000015,629.4554032000015,629.4554032000015,,,,632.4502867999981,j,2.2862547999975504,0.19133739999961108,632.4504778999981,632.4505413000006,None,,,,,,,,,,,,,,00027,001,2026-01-20_19h47.53.224,MST_task,2024.2.0,59.94237140146022,2026-01-20 19h47.59.867695 +0530,
,Scenes\094a.jpg,150,0,151,,,,,,,j,1.2434050000010757,0.1999197999975877,None,,,,,,151,0,150,632.4661418000032,,,,,,,,,,,,,,,,,,,,,,,632.4509073000081,632.4661418000032,632.9702978999994,632.94989850001,,,,,,,,,,,,,,,,,,,,,,,,,,632.9676522000082,632.9702978999994,632.9702978999994,632.9702978999994,,,,635.966348300004,j,1.2434050000010757,0.1999197999975877,635.9665439000091,635.9666073999979,None,,,,,,,,,,,,,,00027,001,2026-01-20_19h47.53.224,MST_task,2024.2.0,59.94237140146022,2026-01-20 19h47.59.867695 +0530,
,Scenes\065a.jpg,151,0,152,,,,,,,j,1.5444934000115609,0.20062579998921137,None,,,,,,152,0,151,635.9823097000044,,,,,,,,,,,,,,,,,,,,,,,635.9667886000097,635.9823097000044,636.4845368000097,636.4665392000024,,,,,,,,,,,,,,,,,,,,,,,,,,636.4818524000002,636.4845368000097,636.4845368000097,636.4845368000097,,,,639.4829640000098,j,1.5444934000115609,0.20062579998921137,639.4831719000067,639.4832354999962,None,,,,,,,,,,,,,,00027,001,2026-01-20_19h47.53.224,MST_task,2024.2.0,59.94237140146022,2026-01-20 19h47.59.867695 +0530,
,Scenes\104a.jpg,152,0,153,,,,,,,j,2.897596999988309,None,None,,,,,,153,0,152,639.4993176999997,,,,,,,,,,,,,,,,,,,,,,,639.4836214999959,639.4993176999997,640.0033796000062,639.9831428000034,,,,,,,,,,,,,,,,,,,,,,,,,,640.0005077000096,640.0033796000062,640.0033796000062,640.0033796000062,,,,642.999902800002,j,2.897596999988309,None,643.000097600001,643.0001602999982,None,,,,,,,,,,,,,,00027,001,2026-01-20_19h47.53.224,MST_task,2024.2.0,59.94237140146022,2026-01-20 19h47.59.867695 +0530,
,Scenes\151a.jpg,153,0,154,,,,,,,j,0.8967452000069898,0.1919927999988431,None,,,,,,154,0,153,643.0161437000061,,,,,,,,,,,,,,,,,,,,,,,643.0004577000072,643.0161437000061,643.5168382999982,643.4998900000064,,,,,,,,,,,,,,,,,,,,,,,,,,643.5141831000074,643.5168382999982,643.5168382999982,643.5168382999982,646.5159643000079,646.5159643000079,646.5159643000079,646.5007690000057,j,0.8967452000069898,0.1919927999988431,646.5009621000063,646.5010206000006,None,,,,,,,,,,,,,,00027,001,2026-01-20_19h47.53.224,MST_task,2024.2.0,59.94237140146022,2026-01-20 19h47.59.867695 +0530,
,Objects\088a.jpg,154,0,155,,,,,,,f,2.9488961000024574,None,None,,,,,,155,0,154,646.5159643000079,,,,,,,,,,,,,,,,,,,,,,,646.5013240999979,646.5159643000079,647.0163406000065,647.0011088000028,,,,,,,,,,,,,,,,,,,,,,,,,,647.0123844000045,647.0163406000065,647.0163406000065,647.0163406000065,650.0161474000051,650.0161474000051,650.0161474000051,650.0003613000008,f,2.9488961000024574,None,650.00054980001,650.0006088000082,None,,,,,,,,,,,,,,00027,001,2026-01-20_19h47.53.224,MST_task,2024.2.0,59.94237140146022,2026-01-20 19h47.59.867695 +0530,
,Objects\024a.jpg,155,0,156,,,,,,,f,1.0166074999870034,0.2645578000083333,None,,,,,,156,0,155,650.0161474000051,,,,,,,,,,,,,,,,,,,,,,,650.0009733000043,650.0161474000051,650.5163823000039,650.49987710001,,,,,,,,,,,,,,,,,,,,,,,,,,650.5063321000052,650.5163823000039,650.5163823000039,650.5163823000039,653.516034100001,653.516034100001,653.516034100001,653.500770300001,f,1.0166074999870034,0.2645578000083333,653.5009600000049,653.5010191000038,None,,,,,,,,,,,,,,00027,001,2026-01-20_19h47.53.224,MST_task,2024.2.0,59.94237140146022,2026-01-20 19h47.59.867695 +0530,
,Objects\107a.jpg,156,0,157,,,,,,,f,0.6125025999936042,0.23997640000015963,None,,,,,,157,0,156,653.516034100001,,,,,,,,,,,,,,,,,,,,,,,653.5013972000015,653.516034100001,654.0163941000064,653.9997291000036,,,,,,,,,,,,,,,,,,,,,,,,,,654.0081978000089,654.0163941000064,654.0163941000064,654.0163941000064,657.0159405000013,657.0159405000013,657.0159405000013,657.0003900000011,f,0.6125025999936042,0.23997640000015963,657.000583400004,657.0006418999983,None,,,,,,,,,,,,,,00027,001,2026-01-20_19h47.53.224,MST_task,2024.2.0,59.94237140146022,2026-01-20 19h47.59.867695 +0530,
,Objects\171a.jpg,157,0,158,,,,,,,f,1.2091931000031764,0.23981899999489542,None,,,,,,158,0,157,657.0159405000013,,,,,,,,,,,,,,,,,,,,,,,657.001015700007,657.0159405000013,657.5163566999981,657.4998709000065,,,,,,,,,,,,,,,,,,,,,,,,,,657.5085324000102,657.5163566999981,657.5163566999981,657.5163566999981,660.5161598999985,660.5161598999985,660.5161598999985,660.5005767999974,f,1.2091931000031764,0.23981899999489542,660.500774900007,660.5008340000059,None,,,,,,,,,,,,,,00027,001,2026-01-20_19h47.53.224,MST_task,2024.2.0,59.94237140146022,2026-01-20 19h47.59.867695 +0530,
,Objects\101a.jpg,158,0,159,,,,,,,f,0.7648215000081109,0.24040089998743497,None,,,,,,159,0,158,660.5161598999985,,,,,,,,,,,,,,,,,,,,,,,660.5012168999965,660.5161598999985,661.0163211000036,660.9999058999965,,,,,,,,,,,,,,,,,,,,,,,,,,661.008771599998,661.0163211000036,661.0163211000036,661.0163211000036,664.0158746000088,664.0158746000088,664.0158746000088,664.0006988999958,f,0.7648215000081109,0.24040089998743497,664.0009105000063,664.0009698000067,None,,,,,,,,,,,,,,00027,001,2026-01-20_19h47.53.224,MST_task,2024.2.0,59.94237140146022,2026-01-20 19h47.59.867695 +0530,
,Objects\187a.jpg,159,0,160,,,,,,,f,1.5689397000096506,0.2399668999860296,None,,,,,,160,0,159,664.0158746000088,,,,,,,,,,,,,,,,,,,,,,,664.0012724999979,664.0158746000088,664.5160268000036,664.4996197,,,,,,,,,,,,,,,,,,,,,,,,,,664.5065621999966,664.5160268000036,664.5160268000036,664.5160268000036,667.5161136999959,667.5161136999959,667.5161136999959,667.5007724000025,f,1.5689397000096506,0.2399668999860296,667.5009874000098,667.5010503000085,None,,,,,,,,,,,,,,00027,001,2026-01-20_19h47.53.224,MST_task,2024.2.0,59.94237140146022,2026-01-20 19h47.59.867695 +0530,
,Objects\075a.jpg,160,0,161,,,,,,,f,0.7247927999997046,0.2237567999982275,None,,,,,,161,0,160,667.5161136999959,,,,,,,,,,,,,,,,,,,,,,,667.5014755000011,667.5161136999959,668.016380400004,667.9996073000075,,,,,,,,,,,,,,,,,,,,,,,,,,668.0058661000076,668.016380400004,668.016380400004,668.016380400004,671.0161010000011,671.0161010000011,671.0161010000011,671.000744600009,f,0.7247927999997046,0.2237567999982275,671.0009409000049,671.0009996000008,None,,,,,,,,,,,,,,00027,001,2026-01-20_19h47.53.224,MST_task,2024.2.0,59.94237140146022,2026-01-20 19h47.59.867695 +0530,
,Scenes\083a.jpg,161,0,162,,,,,,,j,1.9036995000060415,0.22366259999398608,None,,,,,,162,0,161,671.0161010000011,,,,,,,,,,,,,,,,,,,,,,,671.0013887999958,671.0161010000011,671.5182448999985,671.4999411000026,,,,,,,,,,,,,,,,,,,,,,,,,,671.515756599998,671.5182448999985,671.5182448999985,671.5182448999985,,,,674.5165299000073,j,1.9036995000060415,0.22366259999398608,674.5167386000103,674.5168089000072,None,,,,,,,,,,,,,,00027,001,2026-01-20_19h47.53.224,MST_task,2024.2.0,59.94237140146022,2026-01-20 19h47.59.867695 +0530,
,Scenes\129a.jpg,162,0,163,,,,,,,j,0.835860799998045,0.22438709999551065,None,,,,,,163,0,162,674.5327295000025,,,,,,,,,,,,,,,,,,,,,,,674.5172136000037,674.5327295000025,675.0332684000023,675.0164471000026,,,,,,,,,,,,,,,,,,,,,,,,,,675.0273167999985,675.0332684000023,675.0332684000023,675.0332684000023,678.0327505000023,678.0327505000023,678.0327505000023,678.0176878000057,j,0.835860799998045,0.22438709999551065,678.0178823000024,678.0179425999959,None,,,,,,,,,,,,,,00027,001,2026-01-20_19h47.53.224,MST_task,2024.2.0,59.94237140146022,2026-01-20 19h47.59.867695 +0530,
,Scenes\034a.jpg,163,0,164,,,,,,,f,1.7193111999949906,0.26379820000147447,None,,,,,,164,0,163,678.0327505000023,,,,,,,,,,,,,,,,,,,,,,,678.0182784000062,678.0327505000023,678.5420062000048,678.5165931000083,,,,,,,,,,,,,,,,,,,,,,,,,,678.5386923000042,678.5420062000048,678.5420062000048,678.5420062000048,,,,681.5331728000019,f,1.7193111999949906,0.26379820000147447,681.5333906000014,681.5334588999976,None,,,,,,,,,,,,,,00027,001,2026-01-20_19h47.53.224,MST_task,2024.2.0,59.94237140146022,2026-01-20 19h47.59.867695 +0530,
,Scenes\177a.jpg,164,0,165,,,,,,,j,0.8000207999866689,0.21595690000685863,None,,,,,,165,0,164,681.5493631999998,,,,,,,,,,,,,,,,,,,,,,,681.5338594000059,681.5493631999998,682.0528862000065,682.0331921000034,,,,,,,,,,,,,,,,,,,,,,,,,,682.0496271000011,682.0528862000065,682.0528862000065,682.0528862000065,,,,685.0498992000066,j,0.8000207999866689,0.21595690000685863,685.0501034000044,685.0501678,None,,,,,,,,,,,,,,00027,001,2026-01-20_19h47.53.224,MST_task,2024.2.0,59.94237140146022,2026-01-20 19h47.59.867695 +0530,
