Sl_no,image_path,thisN,thisTrialN,thisRepN,key_resp_5.keys,key_resp_5.rt,key_resp_5.duration,key_resp_7.keys,key_resp_9.keys,key_resp_9.rt,key_resp_9.duration,key_resp_8.keys,key_resp_8.rt,key_resp_8.duration,practice.thisRepN,practice.thisTrialN,practice.thisN,trials.thisRepN,trials.thisTrialN,trials.thisN,thisRow.t,notes,welcome_page.started,text.started,key_resp.started,welcome_page.stopped,key_resp.keys,key_resp.rt,key_resp.duration,instructions.started,ins.started,key_resp_2.started,instructions.stopped,key_resp_2.keys,key_resp_2.rt,key_resp_2.duration,objects_only_instruction.started,text_3.started,key_resp_3.started,objects_only_instruction.stopped,key_resp_3.keys,key_resp_3.rt,key_resp_3.duration,ISI.started,text_4.started,text_4.stopped,ISI.stopped,practice_block.started,image.started,text_5.started,key_resp_5.started,image.stopped,text_5.stopped,key_resp_5.stopped,practice_block.stopped,practice.key_resp_5.keys,practice.key_resp_5.rt,practice.key_resp_5.duration,indoor_outdoor.started,indoor_outdoor.stopped,practice.key_resp_7.keys,practice_to_main.started,text_2.started,key_resp_4.started,practice_to_main.stopped,key_resp_4.keys,key_resp_4.rt,key_resp_4.duration,objects.started,image_2.started,text_9.started,key_resp_9.started,image_2.stopped,text_9.stopped,key_resp_9.stopped,objects.stopped,trials.key_resp_9.keys,trials.key_resp_9.rt,trials.key_resp_9.duration,encoding_task.started,encoding_task.stopped,trials.key_resp_8.keys,text_8.started,key_resp_8.started,trials.key_resp_8.rt,trials.key_resp_8.duration,end_experiment.started,text_6.started,key_resp_6.started,end_experiment.stopped,key_resp_6.keys,key_resp_6.rt,key_resp_6.duration,list_of_stimuli,encoding_task_accuracy,participant,session,date,expName,psychopyVersion,frameRate,expStart,
,,,,,,,,,,,,,,,,,,,,,,,0.001215800002682954,0.0028747000033035874,0.0028747000033035874,18.840720399981365,space,18.823806800006423,None,,,,,,,,,,,,,,,,,,,,,,,,,,,,,,,,,,,,,,,,,,,,,,,,,,,,,,,,,,,,,,,,,,,00023,001,2026-01-20_17h20.47.244,MST_task,2024.2.0,60.033090246702386,2026-01-20 17h20.54.597714 +0530,
,,,,,,,,,,,,,,,,,,,,,,,,,,,,,,18.84075460000895,18.855660100001842,18.855660100001842,72.75642689998494,space,53.89056690002326,None,,,,,,,,,,,,,,,,,,,,,,,,,,,,,,,,,,,,,,,,,,,,,,,,,,,,,,,,,,,,00023,001,2026-01-20_17h20.47.244,MST_task,2024.2.0,60.033090246702386,2026-01-20 17h20.54.597714 +0530,
,,,,,,,,,,,,,,,,,,,,,,,,,,,,,,,,,,,,,72.75646579999011,72.77215829998022,72.77215829998022,90.77290629997151,space,17.9985100000049,None,,,,,,,,,,,,,,,,,,,,,,,,,,,,,,,,,,,,,,,,,,,,,,,,,,,,,00023,001,2026-01-20_17h20.47.244,MST_task,2024.2.0,60.033090246702386,2026-01-20 17h20.54.597714 +0530,
7,practice_images/166a.jpg,0,0,1,f,2.384410999948159,0.18506050005089492,None,,,,,,,1,0,0,,,,90.78904529998545,,,,,,,,,,,,,,,,,,,,,,,90.77683839999372,90.78904529998545,91.28954869997688,91.27261819998967,91.27900439995574,91.28954869997688,91.28954869997688,91.28954869997688,94.28900509997038,94.28900509997038,94.28900509997038,94.27285800001118,f,2.384410999948159,0.18506050005089492,94.27494699996896,94.27496509999037,None,,,,,,,,,,,,,,,,,,,,,,,,,,,,,,,,,,,00023,001,2026-01-20_17h20.47.244,MST_task,2024.2.0,60.033090246702386,2026-01-20 17h20.54.597714 +0530,
3,practice_images/037a.jpg,1,1,1,f,2.805465599987656,None,None,,,,,,,1,1,1,,,,94.28900509997038,,,,,,,,,,,,,,,,,,,,,,,94.27503159997286,94.28900509997038,94.78922440001043,94.77260189998196,94.77409339998849,94.78922440001043,94.78922440001043,94.78922440001043,97.78919009998208,97.78919009998208,97.78919009998208,97.77280609996524,f,2.805465599987656,None,97.77285569999367,97.77286869997624,None,,,,,,,,,,,,,,,,,,,,,,,,,,,,,,,,,,,00023,001,2026-01-20_17h20.47.244,MST_task,2024.2.0,60.033090246702386,2026-01-20 17h20.54.597714 +0530,
5,practice_images/139a.jpg,2,2,1,j,1.9847743999562226,0.21603410004172474,None,,,,,,,1,2,2,,,,97.78919009998208,,,,,,,,,,,,,,,,,,,,,,,97.77292969997507,97.78919009998208,98.28920030000154,98.27267109998502,98.27414629998384,98.28920030000154,98.28920030000154,98.28920030000154,101.2891546000028,101.2891546000028,101.2891546000028,101.2728599999682,j,1.9847743999562226,0.21603410004172474,101.27291810000315,101.27293249999639,None,,,,,,,,,,,,,,,,,,,,,,,,,,,,,,,,,,,00023,001,2026-01-20_17h20.47.244,MST_task,2024.2.0,60.033090246702386,2026-01-20 17h20.54.597714 +0530,
10,practice_images/182a.jpg,3,3,1,f,1.7968851000186987,0.17599909997079521,None,,,,,,,1,3,3,,,,101.2891546000028,,,,,,,,,,,,,,,,,,,,,,,101.27299689996289,101.2891546000028,101.78923249995569,101.77274260000559,101.77423290000297,101.78923249995569,101.78923249995569,101.78923249995569,104.78915560001042,104.78915560001042,104.78915560001042,104.77286809997167,f,1.7968851000186987,0.17599909997079521,104.77291989995865,104.77293310000096,None,,,,,,,,,,,,,,,,,,,,,,,,,,,,,,,,,,,00023,001,2026-01-20_17h20.47.244,MST_task,2024.2.0,60.033090246702386,2026-01-20 17h20.54.597714 +0530,
6,practice_images/158a.jpg,4,4,1,j,1.3367092999978922,0.2719863000093028,None,,,,,,,1,4,4,,,,104.78915560001042,,,,,,,,,,,,,,,,,,,,,,,104.77299879997736,104.78915560001042,105.28921560000163,105.27270039997529,105.27410909999162,105.28921560000163,105.28921560000163,105.28921560000163,108.28910160000669,108.28910160000669,108.28910160000669,108.27274129999569,j,1.3367092999978922,0.2719863000093028,108.27279909997014,108.27281269995729,None,,,,,,,,,,,,,,,,,,,,,,,,,,,,,,,,,,,00023,001,2026-01-20_17h20.47.244,MST_task,2024.2.0,60.033090246702386,2026-01-20 17h20.54.597714 +0530,
4,practice_images/002b.jpg,5,5,1,f,1.2539526000036858,0.18333010002970695,None,,,,,,,1,5,5,,,,108.28910160000669,,,,,,,,,,,,,,,,,,,,,,,108.27287609997438,108.28910160000669,108.78921769995941,108.77271649998147,108.77425620000577,108.78921769995941,108.78921769995941,108.78921769995941,111.7890625,111.7890625,111.7890625,111.77284210000653,f,1.2539526000036858,0.18333010002970695,111.77289159997599,111.77290390001144,None,,,,,,,,,,,,,,,,,,,,,,,,,,,,,,,,,,,00023,001,2026-01-20_17h20.47.244,MST_task,2024.2.0,60.033090246702386,2026-01-20 17h20.54.597714 +0530,
2,practice_images/031a.jpg,6,6,1,f,1.4896087999804877,0.17588510003406554,None,,,,,,,1,6,6,,,,111.7890625,,,,,,,,,,,,,,,,,,,,,,,111.77297549997456,111.7890625,112.2892743999837,112.27275720000034,112.27433589997236,112.2892743999837,112.2892743999837,112.2892743999837,115.28901730000507,115.28901730000507,115.28901730000507,115.27269239997258,f,1.4896087999804877,0.17588510003406554,115.27274759998545,115.27276029996574,None,,,,,,,,,,,,,,,,,,,,,,,,,,,,,,,,,,,00023,001,2026-01-20_17h20.47.244,MST_task,2024.2.0,60.033090246702386,2026-01-20 17h20.54.597714 +0530,
8,practice_images/178a.jpg,7,7,1,j,1.924822800036054,0.19205229997169226,None,,,,,,,1,7,7,,,,115.28901730000507,,,,,,,,,,,,,,,,,,,,,,,115.27282439998817,115.28901730000507,115.78939960000571,115.77269229997182,115.77441279997583,115.78939960000571,115.78939960000571,115.78939960000571,118.78911279997556,118.78911279997556,118.78911279997556,118.77284439996583,j,1.924822800036054,0.19205229997169226,118.7728964999551,118.7729096999974,None,,,,,,,,,,,,,,,,,,,,,,,,,,,,,,,,,,,00023,001,2026-01-20_17h20.47.244,MST_task,2024.2.0,60.033090246702386,2026-01-20 17h20.54.597714 +0530,
9,practice_images/180a.jpg,8,8,1,f,0.9693212999845855,0.17599840002367273,None,,,,,,,1,8,8,,,,118.78911279997556,,,,,,,,,,,,,,,,,,,,,,,118.77297109999927,118.78911279997556,119.28921189997345,119.2727797999978,119.27425969997421,119.28921189997345,119.28921189997345,119.28921189997345,122.28903389995685,122.28903389995685,122.28903389995685,122.27279899996938,f,0.9693212999845855,0.17599840002367273,122.27285710000433,122.27287119999528,None,,,,,,,,,,,,,,,,,,,,,,,,,,,,,,,,,,,00023,001,2026-01-20_17h20.47.244,MST_task,2024.2.0,60.033090246702386,2026-01-20 17h20.54.597714 +0530,
1,practice_images/013a.jpg,9,9,1,j,0.9888020999496803,0.2090336000546813,None,,,,,,,1,9,9,,,,122.28903389995685,,,,,,,,,,,,,,,,,,,,,,,122.27293889998691,122.28903389995685,122.7891176000121,122.77264749997994,122.77418449998368,122.7891176000121,122.7891176000121,122.7891176000121,125.7891690999968,125.7891690999968,125.7891690999968,125.77300889999606,j,0.9888020999496803,0.2090336000546813,125.77306559996214,125.77307940000901,None,,,,,,,,,,,,,,,,,,,,,,,,,,,,,,,,,,,00023,001,2026-01-20_17h20.47.244,MST_task,2024.2.0,60.033090246702386,2026-01-20 17h20.54.597714 +0530,
,,,,,,,,,,,,,,,,,,,,,,,,,,,,,,,,,,,,,,,,,,,,,,,,,,,,,,,,,,,,,,125.77312799997162,125.7891690999968,125.7891690999968,143.5065951999859,space,17.71668499999214,None,,,,,,,,,,,,,,,,,,,,,,,,,,,,00023,001,2026-01-20_17h20.47.244,MST_task,2024.2.0,60.033090246702386,2026-01-20 17h20.54.597714 +0530,
,Objects\160a.jpg,0,0,1,,,,,j,2.283584399963729,0.23228150000795722,None,,,,,,1,0,0,143.52240769995842,,,,,,,,,,,,,,,,,,,,,,,143.507241699961,143.52240769995842,144.02251529996283,144.00611640000716,,,,,,,,,,,,,,,,,,,,,,144.01128809998045,144.02251529996283,144.02251529996283,144.02251529996283,147.02225939999335,147.02225939999335,147.02225939999335,147.00621739996132,j,2.283584399963729,0.23228150000795722,147.0078579999972,147.00787629996194,None,,,,,,,,,,,,,,00023,001,2026-01-20_17h20.47.244,MST_task,2024.2.0,60.033090246702386,2026-01-20 17h20.54.597714 +0530,
,Objects\129a.jpg,1,0,2,,,,,f,2.1674325999920256,0.19258050003554672,None,,,,,,2,0,1,147.02225939999335,,,,,,,,,,,,,,,,,,,,,,,147.00794429995585,147.02225939999335,147.52248270000564,147.50595979997888,,,,,,,,,,,,,,,,,,,,,,147.50962939998135,147.52248270000564,147.52248270000564,147.52248270000564,150.5222616000101,150.5222616000101,150.5222616000101,150.50616329995682,f,2.1674325999920256,0.19258050003554672,150.5062164000119,150.5062282999861,None,,,,,,,,,,,,,,00023,001,2026-01-20_17h20.47.244,MST_task,2024.2.0,60.033090246702386,2026-01-20 17h20.54.597714 +0530,
,Objects\163a.jpg,2,0,3,,,,,j,1.4125016999896616,0.22402099997270852,None,,,,,,3,0,2,150.5222616000101,,,,,,,,,,,,,,,,,,,,,,,150.50630599999567,150.5222616000101,151.02231559995562,151.00592209998285,,,,,,,,,,,,,,,,,,,,,,151.00843529996928,151.02231559995562,151.02231559995562,151.02231559995562,154.0222000000067,154.0222000000067,154.0222000000067,154.00620439997874,j,1.4125016999896616,0.22402099997270852,154.00625619996572,154.00626759999432,None,,,,,,,,,,,,,,00023,001,2026-01-20_17h20.47.244,MST_task,2024.2.0,60.033090246702386,2026-01-20 17h20.54.597714 +0530,
,Objects\191a.jpg,3,0,4,,,,,j,1.7521354999626055,0.20800990000134334,None,,,,,,4,0,3,154.0222000000067,,,,,,,,,,,,,,,,,,,,,,,154.00633299996844,154.0222000000067,154.52243710000766,154.50602349999826,,,,,,,,,,,,,,,,,,,,,,154.50843379995786,154.52243710000766,154.52243710000766,154.52243710000766,157.5222046999843,157.5222046999843,157.5222046999843,157.50623130000895,j,1.7521354999626055,0.20800990000134334,157.50628269999288,157.5062939999625,None,,,,,,,,,,,,,,00023,001,2026-01-20_17h20.47.244,MST_task,2024.2.0,60.033090246702386,2026-01-20 17h20.54.597714 +0530,
,Objects\139a.jpg,4,0,5,,,,,f,2.6925966999842785,0.1828912000055425,None,,,,,,5,0,4,157.5222046999843,,,,,,,,,,,,,,,,,,,,,,,157.5063749999972,157.5222046999843,158.02251989999786,158.0061085000052,,,,,,,,,,,,,,,,,,,,,,158.00887989997864,158.02251989999786,158.02251989999786,158.02251989999786,161.02216619998217,161.02216619998217,161.02216619998217,161.00625169998966,f,2.6925966999842785,0.1828912000055425,161.00630289997207,161.0063141999999,None,,,,,,,,,,,,,,00023,001,2026-01-20_17h20.47.244,MST_task,2024.2.0,60.033090246702386,2026-01-20 17h20.54.597714 +0530,
,Objects\145a.jpg,5,0,6,,,,,f,2.640551099961158,0.199879800027702,None,,,,,,6,0,5,161.02216619998217,,,,,,,,,,,,,,,,,,,,,,,161.00637979997555,161.02216619998217,161.52236050000647,161.50603489996865,,,,,,,,,,,,,,,,,,,,,,161.50877999997465,161.52236050000647,161.52236050000647,161.52236050000647,164.52217789995484,164.52217789995484,164.52217789995484,164.50619739998365,f,2.640551099961158,0.199879800027702,164.50625739997486,164.50626900000498,None,,,,,,,,,,,,,,00023,001,2026-01-20_17h20.47.244,MST_task,2024.2.0,60.033090246702386,2026-01-20 17h20.54.597714 +0530,
,Objects\116a.jpg,6,0,7,,,,,j,1.7644085999927483,0.22397960000671446,None,,,,,,7,0,6,164.52217789995484,,,,,,,,,,,,,,,,,,,,,,,164.50635959999636,164.52217789995484,165.02243279997492,165.00607709999895,,,,,,,,,,,,,,,,,,,,,,165.0178181999945,165.02243279997492,165.02243279997492,165.02243279997492,168.02226449997397,168.02226449997397,168.02226449997397,168.00617229996715,j,1.7644085999927483,0.22397960000671446,168.0062241999549,168.006235799985,None,,,,,,,,,,,,,,00023,001,2026-01-20_17h20.47.244,MST_task,2024.2.0,60.033090246702386,2026-01-20 17h20.54.597714 +0530,
,Scenes\010a.jpg,7,0,8,,,,,j,1.472639399988111,0.21516970003722236,None,,,,,,8,0,7,168.02226449997397,,,,,,,,,,,,,,,,,,,,,,,168.00631899997825,168.02226449997397,168.52265030000126,168.50594349997118,,,,,,,,,,,,,,,,,,,,,,168.5175532999565,168.52265030000126,168.52265030000126,168.52265030000126,171.52226249995874,171.52226249995874,171.52226249995874,171.50617700000294,j,1.472639399988111,0.21516970003722236,171.50622929999372,171.5062409999664,None,,,,,,,,,,,,,,00023,001,2026-01-20_17h20.47.244,MST_task,2024.2.0,60.033090246702386,2026-01-20 17h20.54.597714 +0530,
,Scenes\112a.jpg,8,0,9,,,,,j,1.2354879999766126,0.20800040004542097,None,,,,,,9,0,8,171.52226249995874,,,,,,,,,,,,,,,,,,,,,,,171.50632469996344,171.52226249995874,172.02298979996704,172.00620860001072,,,,,,,,,,,,,,,,,,,,,,172.01510570000391,172.02298979996704,172.02298979996704,172.02298979996704,175.02215919998707,175.02215919998707,175.02215919998707,175.00639140000567,j,1.2354879999766126,0.20800040004542097,175.00645589997293,175.00646830000915,None,,,,,,,,,,,,,,00023,001,2026-01-20_17h20.47.244,MST_task,2024.2.0,60.033090246702386,2026-01-20 17h20.54.597714 +0530,
,Scenes\175a.jpg,9,0,10,,,,,j,1.0958548999624327,0.22343030001502484,None,,,,,,10,0,9,175.02215919998707,,,,,,,,,,,,,,,,,,,,,,,175.00653819995932,175.02215919998707,175.5227624999825,175.50596539996332,,,,,,,,,,,,,,,,,,,,,,175.52012439997634,175.5227624999825,175.5227624999825,175.5227624999825,178.5221986999968,178.5221986999968,178.5221986999968,178.5062387000071,j,1.0958548999624327,0.22343030001502484,178.50629160000244,178.50630299997283,None,,,,,,,,,,,,,,00023,001,2026-01-20_17h20.47.244,MST_task,2024.2.0,60.033090246702386,2026-01-20 17h20.54.597714 +0530,
,Scenes\179a.jpg,10,0,11,,,,,j,0.8995314000057988,0.23242400004528463,None,,,,,,11,0,10,178.5221986999968,,,,,,,,,,,,,,,,,,,,,,,178.50636769999983,178.5221986999968,179.02268359996378,179.00595289998455,,,,,,,,,,,,,,,,,,,,,,179.0115929999738,179.02268359996378,179.02268359996378,179.02268359996378,182.02226709999377,182.02226709999377,182.02226709999377,182.00623259996064,j,0.8995314000057988,0.23242400004528463,182.00628569995752,182.00629719998688,None,,,,,,,,,,,,,,00023,001,2026-01-20_17h20.47.244,MST_task,2024.2.0,60.033090246702386,2026-01-20 17h20.54.597714 +0530,
,Scenes\172a.jpg,11,0,12,,,,,j,0.9834062000154518,0.22449549997691065,None,,,,,,12,0,11,182.02226709999377,,,,,,,,,,,,,,,,,,,,,,,182.00636140001006,182.02226709999377,182.52277219999814,182.5058657999616,,,,,,,,,,,,,,,,,,,,,,182.51250049995724,182.52277219999814,182.52277219999814,182.52277219999814,185.5226507000043,185.5226507000043,185.5226507000043,185.50688850000734,j,0.9834062000154518,0.22449549997691065,185.5069644000032,185.50697749998653,None,,,,,,,,,,,,,,00023,001,2026-01-20_17h20.47.244,MST_task,2024.2.0,60.033090246702386,2026-01-20 17h20.54.597714 +0530,
,Scenes\005a.jpg,12,0,13,,,,,f,2.2922429000027478,0.16711839998606592,None,,,,,,13,0,12,185.5226507000043,,,,,,,,,,,,,,,,,,,,,,,185.50705279997783,185.5226507000043,186.02290119999088,186.0062476999592,,,,,,,,,,,,,,,,,,,,,,186.01410719996784,186.02290119999088,186.02290119999088,186.02290119999088,189.02217760001076,189.02217760001076,189.02217760001076,189.0062569999718,f,2.2922429000027478,0.16711839998606592,189.00630959996488,189.00632129999576,None,,,,,,,,,,,,,,00023,001,2026-01-20_17h20.47.244,MST_task,2024.2.0,60.033090246702386,2026-01-20 17h20.54.597714 +0530,
,Scenes\076a.jpg,13,0,14,,,,,j,0.8398002999601886,0.2154924999922514,None,,,,,,14,0,13,189.02217760001076,,,,,,,,,,,,,,,,,,,,,,,189.00638529995922,189.02217760001076,189.52289249998285,189.50600439996924,,,,,,,,,,,,,,,,,,,,,,189.51791880000383,189.52289249998285,189.52289249998285,189.52289249998285,,,,192.5064992000116,j,0.8398002999601886,0.2154924999922514,192.5065680000116,192.50658099999418,None,,,,,,,,,,,,,,00023,001,2026-01-20_17h20.47.244,MST_task,2024.2.0,60.033090246702386,2026-01-20 17h20.54.597714 +0530,
,Objects\165a.jpg,14,0,15,,,,,f,1.3641528000007384,0.21535820001736283,None,,,,,,15,0,14,192.52220159996068,,,,,,,,,,,,,,,,,,,,,,,192.50668270001188,192.52220159996068,193.02249800000573,193.00601299997652,,,,,,,,,,,,,,,,,,,,,,193.01039519999176,193.02249800000573,193.02249800000573,193.02249800000573,196.02220020000823,196.02220020000823,196.02220020000823,196.00650319998385,f,1.3641528000007384,0.21535820001736283,196.00656660000095,196.00657799997134,None,,,,,,,,,,,,,,00023,001,2026-01-20_17h20.47.244,MST_task,2024.2.0,60.033090246702386,2026-01-20 17h20.54.597714 +0530,
,Objects\007a.jpg,15,0,16,,,,,f,1.368535100016743,0.19999469997128472,None,,,,,,16,0,15,196.02220020000823,,,,,,,,,,,,,,,,,,,,,,,196.0066675999551,196.02220020000823,196.5225712999818,196.506000399997,,,,,,,,,,,,,,,,,,,,,,196.50857479998376,196.5225712999818,196.5225712999818,196.5225712999818,199.52233830001205,199.52233830001205,199.52233830001205,199.50655749998987,f,1.368535100016743,0.19999469997128472,199.5066269999952,199.50663979997626,None,,,,,,,,,,,,,,00023,001,2026-01-20_17h20.47.244,MST_task,2024.2.0,60.033090246702386,2026-01-20 17h20.54.597714 +0530,
,Objects\149a.jpg,16,0,17,,,,,f,1.00360619998537,0.19201840000459924,None,,,,,,17,0,16,199.52233830001205,,,,,,,,,,,,,,,,,,,,,,,199.50671119999606,199.52233830001205,200.0225119999959,200.0059035999584,,,,,,,,,,,,,,,,,,,,,,200.00872559996787,200.0225119999959,200.0225119999959,200.0225119999959,203.02233339997474,203.02233339997474,203.02233339997474,203.00614979997044,f,1.00360619998537,0.19201840000459924,203.0062018999597,203.0062140999944,None,,,,,,,,,,,,,,00023,001,2026-01-20_17h20.47.244,MST_task,2024.2.0,60.033090246702386,2026-01-20 17h20.54.597714 +0530,
,Objects\094a.jpg,17,0,18,,,,,f,1.1920050999615341,0.1919101999956183,None,,,,,,18,0,17,203.02233339997474,,,,,,,,,,,,,,,,,,,,,,,203.00629889999982,203.02233339997474,203.52250129997265,203.50588519999292,,,,,,,,,,,,,,,,,,,,,,203.50846230000025,203.52250129997265,203.52250129997265,203.52250129997265,206.52239030000055,206.52239030000055,206.52239030000055,206.5064026999753,f,1.1920050999615341,0.1919101999956183,206.50645849999273,206.50647029996617,None,,,,,,,,,,,,,,00023,001,2026-01-20_17h20.47.244,MST_task,2024.2.0,60.033090246702386,2026-01-20 17h20.54.597714 +0530,
,Objects\068a.jpg,18,0,19,,,,,j,1.6995560000068508,0.23300750000635162,None,,,,,,19,0,18,206.52239030000055,,,,,,,,,,,,,,,,,,,,,,,206.50655829999596,206.52239030000055,207.02258529997198,207.00623050000286,,,,,,,,,,,,,,,,,,,,,,207.00896499998635,207.02258529997198,207.02258529997198,207.02258529997198,210.02241489995504,210.02241489995504,210.02241489995504,210.00639409996802,j,1.6995560000068508,0.23300750000635162,210.00644709996413,210.00645819999045,None,,,,,,,,,,,,,,00023,001,2026-01-20_17h20.47.244,MST_task,2024.2.0,60.033090246702386,2026-01-20 17h20.54.597714 +0530,
,Objects\132a.jpg,19,0,20,,,,,f,0.8879617999773473,0.20000140002230182,None,,,,,,20,0,19,210.02241489995504,,,,,,,,,,,,,,,,,,,,,,,210.0065234999638,210.02241489995504,210.5225963999983,210.50608490000013,,,,,,,,,,,,,,,,,,,,,,210.5086742999847,210.5225963999983,210.5225963999983,210.5225963999983,213.5225091999746,213.5225091999746,213.5225091999746,213.50635529996362,f,0.8879617999773473,0.20000140002230182,213.5064096999704,213.50642119999975,None,,,,,,,,,,,,,,00023,001,2026-01-20_17h20.47.244,MST_task,2024.2.0,60.033090246702386,2026-01-20 17h20.54.597714 +0530,
,Objects\064a.jpg,20,0,21,,,,,f,0.8041603000019677,0.23259470000630245,None,,,,,,21,0,20,213.5225091999746,,,,,,,,,,,,,,,,,,,,,,,213.50650640000822,213.5225091999746,214.02263889997266,214.0060039999662,,,,,,,,,,,,,,,,,,,,,,214.00860709999688,214.02263889997266,214.02263889997266,214.02263889997266,217.02245449996553,217.02245449996553,217.02245449996553,217.0062842000043,f,0.8041603000019677,0.23259470000630245,217.00633720000042,217.0063493999769,None,,,,,,,,,,,,,,00023,001,2026-01-20_17h20.47.244,MST_task,2024.2.0,60.033090246702386,2026-01-20 17h20.54.597714 +0530,
,Scenes\123a.jpg,21,0,22,,,,,j,0.9745390000171028,0.2399981999769807,None,,,,,,22,0,21,217.02245449996553,,,,,,,,,,,,,,,,,,,,,,,217.00643569999374,217.02245449996553,217.52340529998764,217.5061468000058,,,,,,,,,,,,,,,,,,,,,,217.52100859995699,217.52340529998764,217.52340529998764,217.52340529998764,220.52251789998263,220.52251789998263,220.52251789998263,220.50637869996717,j,0.9745390000171028,0.2399981999769807,220.50643949996447,220.50645169999916,None,,,,,,,,,,,,,,00023,001,2026-01-20_17h20.47.244,MST_task,2024.2.0,60.033090246702386,2026-01-20 17h20.54.597714 +0530,
,Scenes\150a.jpg,22,0,23,,,,,j,0.8920423000236042,0.2150524000171572,None,,,,,,23,0,22,220.52251789998263,,,,,,,,,,,,,,,,,,,,,,,220.5065431999974,220.52251789998263,221.0230439999723,221.00610140000936,,,,,,,,,,,,,,,,,,,,,,221.01393929996993,221.0230439999723,221.0230439999723,221.0230439999723,224.02247069997247,224.02247069997247,224.02247069997247,224.00637600000482,j,0.8920423000236042,0.2150524000171572,224.0064299000078,224.00644109997666,None,,,,,,,,,,,,,,00023,001,2026-01-20_17h20.47.244,MST_task,2024.2.0,60.033090246702386,2026-01-20 17h20.54.597714 +0530,
,Scenes\100a.jpg,23,0,24,,,,,f,1.0313804000033997,0.20075650000944734,None,,,,,,24,0,23,224.02247069997247,,,,,,,,,,,,,,,,,,,,,,,224.00652449997142,224.02247069997247,224.5229016999947,224.5062186999712,,,,,,,,,,,,,,,,,,,,,,224.51515659998404,224.5229016999947,224.5229016999947,224.5229016999947,227.52254169998923,227.52254169998923,227.52254169998923,227.50638310000068,f,1.0313804000033997,0.20075650000944734,227.5064371000044,227.5064481999725,None,,,,,,,,,,,,,,00023,001,2026-01-20_17h20.47.244,MST_task,2024.2.0,60.033090246702386,2026-01-20 17h20.54.597714 +0530,
,Scenes\045a.jpg,24,0,25,,,,,j,2.147221100050956,0.256644899956882,None,,,,,,25,0,24,227.52254169998923,,,,,,,,,,,,,,,,,,,,,,,227.50653369998327,227.52254169998923,228.02284479996888,228.00618339999346,,,,,,,,,,,,,,,,,,,,,,228.0179092999897,228.02284479996888,228.02284479996888,228.02284479996888,231.02240859996527,231.02240859996527,231.02240859996527,231.00670399999944,j,2.147221100050956,0.256644899956882,231.00676139997086,231.0067732000025,None,,,,,,,,,,,,,,00023,001,2026-01-20_17h20.47.244,MST_task,2024.2.0,60.033090246702386,2026-01-20 17h20.54.597714 +0530,
,Scenes\160a.jpg,25,0,26,,,,,j,0.7736446000053547,0.2159937000251375,None,,,,,,26,0,25,231.02240859996527,,,,,,,,,,,,,,,,,,,,,,,231.0068406999926,231.02240859996527,231.52428239997244,231.50611249997746,,,,,,,,,,,,,,,,,,,,,,231.52180669998052,231.52428239997244,231.52428239997244,231.52428239997244,,,,234.52268970001023,j,0.7736446000053547,0.2159937000251375,234.52274399995804,234.52275619999273,None,,,,,,,,,,,,,,00023,001,2026-01-20_17h20.47.244,MST_task,2024.2.0,60.033090246702386,2026-01-20 17h20.54.597714 +0530,
,Scenes\119a.jpg,26,0,27,,,,,j,1.6425093000289053,0.19205869996221736,None,,,,,,27,0,26,234.53917949995957,,,,,,,,,,,,,,,,,,,,,,,234.52284349995898,234.53917949995957,235.03972409997368,235.02277370000957,,,,,,,,,,,,,,,,,,,,,,235.03203569998732,235.03972409997368,235.03972409997368,235.03972409997368,238.0389615999884,238.0389615999884,238.0389615999884,238.02310719998786,j,1.6425093000289053,0.19205869996221736,238.0231603999855,238.0231717999559,None,,,,,,,,,,,,,,00023,001,2026-01-20_17h20.47.244,MST_task,2024.2.0,60.033090246702386,2026-01-20 17h20.54.597714 +0530,
,Scenes\052a.jpg,27,0,28,,,,,None,,,j,1.4785783999832347,None,,,,28,0,27,238.0389615999884,,,,,,,,,,,,,,,,,,,,,,,238.02325909998035,238.0389615999884,238.5403762999922,238.5225000999635,,,,,,,,,,,,,,,,,,,,,,238.53791159996763,238.5403762999922,238.5403762999922,238.5403762999922,,,,241.53943309996976,None,,,241.53948119998677,243.0396101999795,j,241.55576809996273,241.55576809996273,1.4785783999832347,None,,,,,,,,,,00023,001,2026-01-20_17h20.47.244,MST_task,2024.2.0,60.033090246702386,2026-01-20 17h20.54.597714 +0530,
,Objects\035a.jpg,28,0,29,,,,,f,1.8544652000418864,0.17608619999373332,None,,,,,,29,0,28,243.05577410000842,,,,,,,,,,,,,,,,,,,,,,,243.0397022999823,243.05577410000842,243.55619400000433,243.53922919998877,,,,,,,,,,,,,,,,,,,,,,243.54227099998388,243.55619400000433,243.55619400000433,243.55619400000433,246.55577350000385,246.55577350000385,246.55577350000385,246.5398487999919,f,1.8544652000418864,0.17608619999373332,246.53990299999714,246.5399146999698,None,,,,,,,,,,,,,,00023,001,2026-01-20_17h20.47.244,MST_task,2024.2.0,60.033090246702386,2026-01-20 17h20.54.597714 +0530,
,Objects\021a.jpg,29,0,30,,,,,f,0.9150459000375122,0.18301969999447465,None,,,,,,30,0,29,246.55577350000385,,,,,,,,,,,,,,,,,,,,,,,246.53997829998843,246.55577350000385,247.05587749998085,247.03928409999935,,,,,,,,,,,,,,,,,,,,,,247.0420090999687,247.05587749998085,247.05587749998085,247.05587749998085,250.055784999975,250.055784999975,250.055784999975,250.03960149997147,f,0.9150459000375122,0.18301969999447465,250.03965449996758,250.03966579999542,None,,,,,,,,,,,,,,00023,001,2026-01-20_17h20.47.244,MST_task,2024.2.0,60.033090246702386,2026-01-20 17h20.54.597714 +0530,
,Objects\183a.jpg,30,0,31,,,,,f,1.151784099987708,0.19948660000227392,None,,,,,,31,0,30,250.055784999975,,,,,,,,,,,,,,,,,,,,,,,250.0397304999642,250.055784999975,250.55602919997182,250.53944059996866,,,,,,,,,,,,,,,,,,,,,,250.54236679995665,250.55602919997182,250.55602919997182,250.55602919997182,253.5557889000047,253.5557889000047,253.5557889000047,253.53962439997122,f,1.151784099987708,0.19948660000227392,253.5396761999582,253.53968769998755,None,,,,,,,,,,,,,,00023,001,2026-01-20_17h20.47.244,MST_task,2024.2.0,60.033090246702386,2026-01-20 17h20.54.597714 +0530,
,Objects\053a.jpg,31,0,32,,,,,f,0.7385929999873042,0.18398090003756806,None,,,,,,32,0,31,253.5557889000047,,,,,,,,,,,,,,,,,,,,,,,253.53977259999374,253.5557889000047,254.05596589995548,254.03962200001115,,,,,,,,,,,,,,,,,,,,,,254.04262550000567,254.05596589995548,254.05596589995548,254.05596589995548,257.0557054000092,257.0557054000092,257.0557054000092,257.0396275999956,f,0.7385929999873042,0.18398090003756806,257.0396859999746,257.0396977000055,None,,,,,,,,,,,,,,00023,001,2026-01-20_17h20.47.244,MST_task,2024.2.0,60.033090246702386,2026-01-20 17h20.54.597714 +0530,
,Objects\178a.jpg,32,0,33,,,,,f,1.4858554000384174,0.2012154000112787,None,,,,,,33,0,32,257.0557054000092,,,,,,,,,,,,,,,,,,,,,,,257.03978449996794,257.0557054000092,257.5561464999919,257.53939429996535,,,,,,,,,,,,,,,,,,,,,,257.5520816000062,257.5561464999919,257.5561464999919,257.5561464999919,260.5557048000046,260.5557048000046,260.5557048000046,260.5395894999965,f,1.4858554000384174,0.2012154000112787,260.53964219999034,260.5396536999615,None,,,,,,,,,,,,,,00023,001,2026-01-20_17h20.47.244,MST_task,2024.2.0,60.033090246702386,2026-01-20 17h20.54.597714 +0530,
,Objects\048a.jpg,33,0,34,,,,,j,0.7547623999998905,0.22364189999643713,None,,,,,,34,0,33,260.5557048000046,,,,,,,,,,,,,,,,,,,,,,,260.5397193999961,260.5557048000046,261.05590159998974,261.0394124999875,,,,,,,,,,,,,,,,,,,,,,261.04230520001147,261.05590159998974,261.05590159998974,261.05590159998974,264.05568109999876,264.05568109999876,264.05568109999876,264.0395424999879,j,0.7547623999998905,0.22364189999643713,264.0395943999756,264.03960570000345,None,,,,,,,,,,,,,,00023,001,2026-01-20_17h20.47.244,MST_task,2024.2.0,60.033090246702386,2026-01-20 17h20.54.597714 +0530,
,Objects\025a.jpg,34,0,35,,,,,j,1.022679199988488,0.1834544999874197,None,,,,,,35,0,34,264.05568109999876,,,,,,,,,,,,,,,,,,,,,,,264.0396694999654,264.05568109999876,264.5558767999755,264.5393791999668,,,,,,,,,,,,,,,,,,,,,,264.5419683000073,264.5558767999755,264.5558767999755,264.5558767999755,267.55571119999513,267.55571119999513,267.55571119999513,267.53992369998014,j,1.022679199988488,0.1834544999874197,267.5399821999599,267.53999349998776,None,,,,,,,,,,,,,,00023,001,2026-01-20_17h20.47.244,MST_task,2024.2.0,60.033090246702386,2026-01-20 17h20.54.597714 +0530,
,Scenes\036a.jpg,35,0,36,,,,,j,0.9059489000355825,0.19999719999032095,None,,,,,,36,0,35,267.55571119999513,,,,,,,,,,,,,,,,,,,,,,,267.5400821999647,267.55571119999513,268.0561027000076,268.0391969999764,,,,,,,,,,,,,,,,,,,,,,268.04394790000515,268.0561027000076,268.0561027000076,268.0561027000076,271.05576439999277,271.05576439999277,271.05576439999277,271.03954619995784,j,0.9059489000355825,0.19999719999032095,271.03959840000607,271.03960979997646,None,,,,,,,,,,,,,,00023,001,2026-01-20_17h20.47.244,MST_task,2024.2.0,60.033090246702386,2026-01-20 17h20.54.597714 +0530,
,Scenes\125a.jpg,36,0,37,,,,,j,0.7515937999705784,0.18299330002628267,None,,,,,,37,0,36,271.05576439999277,,,,,,,,,,,,,,,,,,,,,,,271.03967729996657,271.05576439999277,271.55621359997895,271.5392245000112,,,,,,,,,,,,,,,,,,,,,,271.5495695999707,271.55621359997895,271.55621359997895,271.55621359997895,274.5556835999596,274.5556835999596,274.5556835999596,274.5395667999983,j,0.7515937999705784,0.18299330002628267,274.53961909998907,274.5396301999572,None,,,,,,,,,,,,,,00023,001,2026-01-20_17h20.47.244,MST_task,2024.2.0,60.033090246702386,2026-01-20 17h20.54.597714 +0530,
,Scenes\131a.jpg,37,0,38,,,,,j,1.0898449000087567,0.22434670000802726,None,,,,,,38,0,37,274.5556835999596,,,,,,,,,,,,,,,,,,,,,,,274.5397132000071,274.5556835999596,275.05622159998165,275.0393010000116,,,,,,,,,,,,,,,,,,,,,,275.0484611999709,275.05622159998165,275.05622159998165,275.05622159998165,278.05568349995883,278.05568349995883,278.05568349995883,278.03986729995813,j,1.0898449000087567,0.22434670000802726,278.03992700000526,278.0399384999764,None,,,,,,,,,,,,,,00023,001,2026-01-20_17h20.47.244,MST_task,2024.2.0,60.033090246702386,2026-01-20 17h20.54.597714 +0530,
,Scenes\178a.jpg,38,0,39,,,,,j,0.8871497999643907,0.19908819999545813,None,,,,,,39,0,38,278.05568349995883,,,,,,,,,,,,,,,,,,,,,,,278.04001319996314,278.05568349995883,278.5562481000088,278.539308300009,,,,,,,,,,,,,,,,,,,,,,278.5457489999826,278.5562481000088,278.5562481000088,278.5562481000088,281.5557767999708,281.5557767999708,281.5557767999708,281.5398114999989,j,0.8871497999643907,0.19908819999545813,281.5398758999654,281.53988820000086,None,,,,,,,,,,,,,,00023,001,2026-01-20_17h20.47.244,MST_task,2024.2.0,60.033090246702386,2026-01-20 17h20.54.597714 +0530,
,Scenes\032a.jpg,39,0,40,,,,,j,0.9309833999723196,0.17696569999679923,None,,,,,,40,0,39,281.5557767999708,,,,,,,,,,,,,,,,,,,,,,,281.53995700000087,281.5557767999708,282.0632481999928,282.03927499998827,,,,,,,,,,,,,,,,,,,,,,282.0608257999993,282.0632481999928,282.0632481999928,282.0632481999928,,,,285.05593619996216,j,0.9309833999723196,0.17696569999679923,285.0559893999598,285.0560010999907,None,,,,,,,,,,,,,,00023,001,2026-01-20_17h20.47.244,MST_task,2024.2.0,60.033090246702386,2026-01-20 17h20.54.597714 +0530,
,Scenes\115a.jpg,40,0,41,,,,,j,2.2453357000485994,0.29588239995064214,None,,,,,,41,0,40,285.07221369998297,,,,,,,,,,,,,,,,,,,,,,,285.0560783999972,285.07221369998297,285.5728384999675,285.5560637000017,,,,,,,,,,,,,,,,,,,,,,285.5644778999849,285.5728384999675,285.5728384999675,285.5728384999675,288.57230589998653,288.57230589998653,288.57230589998653,288.55652659997577,j,2.2453357000485994,0.29588239995064214,288.5565971999895,288.55660989996977,None,,,,,,,,,,,,,,00023,001,2026-01-20_17h20.47.244,MST_task,2024.2.0,60.033090246702386,2026-01-20 17h20.54.597714 +0530,
,Scenes\174a.jpg,41,0,42,,,,,j,1.2307552000274882,0.2799626999767497,None,,,,,,42,0,41,288.57230589998653,,,,,,,,,,,,,,,,,,,,,,,288.55668270000024,288.57230589998653,289.0753247999819,289.05593440000666,,,,,,,,,,,,,,,,,,,,,,289.07306520000566,289.0753247999819,289.0753247999819,289.0753247999819,,,,292.0725601000013,j,1.2307552000274882,0.2799626999767497,292.0726337999804,292.0726461999584,None,,,,,,,,,,,,,,00023,001,2026-01-20_17h20.47.244,MST_task,2024.2.0,60.033090246702386,2026-01-20 17h20.54.597714 +0530,
,Objects\168a.jpg,42,0,43,,,,,f,2.453240000002552,0.2319720999803394,None,,,,,,43,0,42,292.08908579999115,,,,,,,,,,,,,,,,,,,,,,,292.07272369996645,292.08908579999115,292.58949719998054,292.57256199995754,,,,,,,,,,,,,,,,,,,,,,292.57583929999964,292.58949719998054,292.58949719998054,292.58949719998054,295.58897039998556,295.58897039998556,295.58897039998556,295.57289989996934,f,2.453240000002552,0.2319720999803394,295.5729561999906,295.5729680999648,None,,,,,,,,,,,,,,00023,001,2026-01-20_17h20.47.244,MST_task,2024.2.0,60.033090246702386,2026-01-20 17h20.54.597714 +0530,
,Objects\091a.jpg,43,0,44,,,,,j,1.5615008000168018,0.25529429997550324,None,,,,,,44,0,43,295.58897039998556,,,,,,,,,,,,,,,,,,,,,,,295.57305409997934,295.58897039998556,296.0892059999751,296.072655499971,,,,,,,,,,,,,,,,,,,,,,296.07535800000187,296.0892059999751,296.0892059999751,296.0892059999751,299.08903899998404,299.08903899998404,299.08903899998404,299.0728903999552,j,1.5615008000168018,0.25529429997550324,299.0729538999731,299.0729793999926,None,,,,,,,,,,,,,,00023,001,2026-01-20_17h20.47.244,MST_task,2024.2.0,60.033090246702386,2026-01-20 17h20.54.597714 +0530,
,Objects\073a.jpg,44,0,45,,,,,f,0.869804700021632,0.21511170000303537,None,,,,,,45,0,44,299.08903899998404,,,,,,,,,,,,,,,,,,,,,,,299.07306859997334,299.08903899998404,299.5891733999597,299.5724658999825,,,,,,,,,,,,,,,,,,,,,,299.575017199968,299.5891733999597,299.5891733999597,299.5891733999597,302.5892106000101,302.5892106000101,302.5892106000101,302.57323669997277,f,0.869804700021632,0.21511170000303537,302.57330839999486,302.57332189998124,None,,,,,,,,,,,,,,00023,001,2026-01-20_17h20.47.244,MST_task,2024.2.0,60.033090246702386,2026-01-20 17h20.54.597714 +0530,
,Objects\018a.jpg,45,0,46,,,,,f,0.7702996999723837,0.22284810000564903,None,,,,,,46,0,45,302.5892106000101,,,,,,,,,,,,,,,,,,,,,,,302.57341779995477,302.5892106000101,303.08923949999735,303.0726380000124,,,,,,,,,,,,,,,,,,,,,,303.07592309999745,303.08923949999735,303.08923949999735,303.08923949999735,306.08919339999557,306.08919339999557,306.08919339999557,306.0733449999825,f,0.7702996999723837,0.22284810000564903,306.07341779995477,306.07343049999326,None,,,,,,,,,,,,,,00023,001,2026-01-20_17h20.47.244,MST_task,2024.2.0,60.033090246702386,2026-01-20 17h20.54.597714 +0530,
,Objects\088a.jpg,46,0,47,,,,,f,1.1733536000247113,0.20776799996383488,None,,,,,,47,0,46,306.08919339999557,,,,,,,,,,,,,,,,,,,,,,,306.0735035999678,306.08919339999557,306.58931839995785,306.5725543999579,,,,,,,,,,,,,,,,,,,,,,306.5823660999886,306.58931839995785,306.58931839995785,306.58931839995785,309.589190699975,309.589190699975,309.589190699975,309.5729360000114,f,1.1733536000247113,0.20776799996383488,309.5729962000041,309.5730075999745,None,,,,,,,,,,,,,,00023,001,2026-01-20_17h20.47.244,MST_task,2024.2.0,60.033090246702386,2026-01-20 17h20.54.597714 +0530,
,Objects\019a.jpg,47,0,48,,,,,f,1.2097552999621257,0.21507660002680495,None,,,,,,48,0,47,309.589190699975,,,,,,,,,,,,,,,,,,,,,,,309.57310009998037,309.589190699975,310.0892529999837,310.07249569997657,,,,,,,,,,,,,,,,,,,,,,310.0827325999853,310.0892529999837,310.0892529999837,310.0892529999837,313.08903789997566,313.08903789997566,313.08903789997566,313.07277339999564,f,1.2097552999621257,0.21507660002680495,313.0728259999887,313.0728370999568,None,,,,,,,,,,,,,,00023,001,2026-01-20_17h20.47.244,MST_task,2024.2.0,60.033090246702386,2026-01-20 17h20.54.597714 +0530,
,Objects\065a.jpg,48,0,49,,,,,j,2.701432800036855,0.21588399994652718,None,,,,,,49,0,48,313.08903789997566,,,,,,,,,,,,,,,,,,,,,,,313.07290269999066,313.08903789997566,313.58920579997357,313.57251470000483,,,,,,,,,,,,,,,,,,,,,,313.582309099962,313.58920579997357,313.58920579997357,313.58920579997357,316.58904849999817,316.58904849999817,316.58904849999817,316.5729007999762,j,2.701432800036855,0.21588399994652718,316.57295519998297,316.5729667999549,None,,,,,,,,,,,,,,00023,001,2026-01-20_17h20.47.244,MST_task,2024.2.0,60.033090246702386,2026-01-20 17h20.54.597714 +0530,
,Scenes\009a.jpg,49,0,50,,,,,f,2.1612193000037223,0.1926170999649912,None,,,,,,50,0,49,316.58904849999817,,,,,,,,,,,,,,,,,,,,,,,316.57305279996945,316.58904849999817,317.0894554000115,317.07253589999164,,,,,,,,,,,,,,,,,,,,,,317.08358609996503,317.0894554000115,317.0894554000115,317.0894554000115,320.0890142999706,320.0890142999706,320.0890142999706,320.0729168999824,f,2.1612193000037223,0.1926170999649912,320.07297749997815,320.0729896000121,None,,,,,,,,,,,,,,00023,001,2026-01-20_17h20.47.244,MST_task,2024.2.0,60.033090246702386,2026-01-20 17h20.54.597714 +0530,
,Scenes\059a.jpg,50,0,51,,,,,j,0.9725661000120454,0.21575020003365353,None,,,,,,51,0,50,320.0890142999706,,,,,,,,,,,,,,,,,,,,,,,320.07305849995464,320.0890142999706,320.5897444000002,320.5725951999775,,,,,,,,,,,,,,,,,,,,,,320.58355729997857,320.5897444000002,320.5897444000002,320.5897444000002,323.58904539997457,323.58904539997457,323.58904539997457,323.57278009998845,j,0.9725661000120454,0.21575020003365353,323.57283179997467,323.57284300000174,None,,,,,,,,,,,,,,00023,001,2026-01-20_17h20.47.244,MST_task,2024.2.0,60.033090246702386,2026-01-20 17h20.54.597714 +0530,
,Scenes\081a.jpg,51,0,52,,,,,j,0.9123591000097804,0.2005852999864146,None,,,,,,52,0,51,323.58904539997457,,,,,,,,,,,,,,,,,,,,,,,323.57292859995505,323.58904539997457,324.08973359997617,324.07273789995816,,,,,,,,,,,,,,,,,,,,,,324.0829647000064,324.08973359997617,324.08973359997617,324.08973359997617,327.08914659998845,327.08914659998845,327.08914659998845,327.07292649999727,j,0.9123591000097804,0.2005852999864146,327.072978399985,327.0729941999889,None,,,,,,,,,,,,,,00023,001,2026-01-20_17h20.47.244,MST_task,2024.2.0,60.033090246702386,2026-01-20 17h20.54.597714 +0530,
,Scenes\078a.jpg,52,0,53,,,,,j,1.3092921000206843,0.19092559994896874,None,,,,,,53,0,52,327.08914659998845,,,,,,,,,,,,,,,,,,,,,,,327.07307939999737,327.08914659998845,327.5896839000052,327.5728591000079,,,,,,,,,,,,,,,,,,,,,,327.5816496000043,327.5896839000052,327.5896839000052,327.5896839000052,330.5890163999866,330.5890163999866,330.5890163999866,330.57283309998456,j,1.3092921000206843,0.19092559994896874,330.57291489996715,330.57292649999727,None,,,,,,,,,,,,,,00023,001,2026-01-20_17h20.47.244,MST_task,2024.2.0,60.033090246702386,2026-01-20 17h20.54.597714 +0530,
,Scenes\004a.jpg,53,0,54,,,,,j,0.7605489999987185,0.1833976000198163,None,,,,,,54,0,53,330.5890163999866,,,,,,,,,,,,,,,,,,,,,,,330.5730198000092,330.5890163999866,331.0899361000047,331.07273640000494,,,,,,,,,,,,,,,,,,,,,,331.0825799999875,331.0899361000047,331.0899361000047,331.0899361000047,334.0891604999779,334.0891604999779,334.0891604999779,334.07295369997155,j,0.7605489999987185,0.1833976000198163,334.0730057999608,334.07301739999093,None,,,,,,,,,,,,,,00023,001,2026-01-20_17h20.47.244,MST_task,2024.2.0,60.033090246702386,2026-01-20 17h20.54.597714 +0530,
,Scenes\021a.jpg,54,0,55,,,,,j,1.4844978000037372,0.17665029998170212,None,,,,,,55,0,54,334.0891604999779,,,,,,,,,,,,,,,,,,,,,,,334.0731017999933,334.0891604999779,334.58966669999063,334.5726570999832,,,,,,,,,,,,,,,,,,,,,,334.5819167000009,334.58966669999063,334.58966669999063,334.58966669999063,337.5892576999613,337.5892576999613,337.5892576999613,337.57301890000235,j,1.4844978000037372,0.17665029998170212,337.57307139999466,337.5730828999658,None,,,,,,,,,,,,,,00023,001,2026-01-20_17h20.47.244,MST_task,2024.2.0,60.033090246702386,2026-01-20 17h20.54.597714 +0530,
,Scenes\185a.jpg,55,0,56,,,,,j,0.7924933999893256,0.18502639996586367,None,,,,,,56,0,55,337.5892576999613,,,,,,,,,,,,,,,,,,,,,,,337.5731480999966,337.5892576999613,338.0896706999629,338.07278449996375,,,,,,,,,,,,,,,,,,,,,,338.0794762999867,338.0896706999629,338.0896706999629,338.0896706999629,341.08903539995663,341.08903539995663,341.08903539995663,341.07287089998135,j,0.7924933999893256,0.18502639996586367,341.0729291999596,341.0729411999928,None,,,,,,,,,,,,,,00023,001,2026-01-20_17h20.47.244,MST_task,2024.2.0,60.033090246702386,2026-01-20 17h20.54.597714 +0530,
,Objects\076a.jpg,56,0,57,,,,,j,1.7811876999912784,0.23976460000267252,None,,,,,,57,0,56,341.08903539995663,,,,,,,,,,,,,,,,,,,,,,,341.07300859998213,341.08903539995663,341.58964339998784,341.57271099998616,,,,,,,,,,,,,,,,,,,,,,341.5759992999956,341.58964339998784,341.58964339998784,341.58964339998784,344.5891826999723,344.5891826999723,344.5891826999723,344.57296819996554,j,1.7811876999912784,0.23976460000267252,344.5730217999662,344.5730329999933,None,,,,,,,,,,,,,,00023,001,2026-01-20_17h20.47.244,MST_task,2024.2.0,60.033090246702386,2026-01-20 17h20.54.597714 +0530,
,Objects\030a.jpg,57,0,58,,,,,f,0.849318900029175,0.20787849999032915,None,,,,,,58,0,57,344.5891826999723,,,,,,,,,,,,,,,,,,,,,,,344.57311619998654,344.5891826999723,345.08929149998585,345.07273839996196,,,,,,,,,,,,,,,,,,,,,,345.07536909997,345.08929149998585,345.08929149998585,345.08929149998585,348.08905289997347,348.08905289997347,348.08905289997347,348.07291899999836,f,0.849318900029175,0.20787849999032915,348.0729786999873,348.07298989995616,None,,,,,,,,,,,,,,00023,001,2026-01-20_17h20.47.244,MST_task,2024.2.0,60.033090246702386,2026-01-20 17h20.54.597714 +0530,
,Objects\016a.jpg,58,0,59,,,,,f,0.7411606999812648,0.1759195000049658,None,,,,,,59,0,58,348.08905289997347,,,,,,,,,,,,,,,,,,,,,,,348.0730838999734,348.08905289997347,348.5893710000091,348.5727523000096,,,,,,,,,,,,,,,,,,,,,,348.5760577999754,348.5893710000091,348.5893710000091,348.5893710000091,351.589138499985,351.589138499985,351.589138499985,351.5731189000071,f,0.7411606999812648,0.1759195000049658,351.57318319997285,351.57319510000525,None,,,,,,,,,,,,,,00023,001,2026-01-20_17h20.47.244,MST_task,2024.2.0,60.033090246702386,2026-01-20 17h20.54.597714 +0530,
,Objects\015a.jpg,59,0,60,,,,,f,0.9211975999642164,0.20789800002239645,None,,,,,,60,0,59,351.589138499985,,,,,,,,,,,,,,,,,,,,,,,351.5732900999719,351.589138499985,352.08940269995946,352.0726379000116,,,,,,,,,,,,,,,,,,,,,,352.0757181000081,352.08940269995946,352.08940269995946,352.08940269995946,355.08907549997093,355.08907549997093,355.08907549997093,355.0730681999703,f,0.9211975999642164,0.20789800002239645,355.07313249999424,355.0731447999715,None,,,,,,,,,,,,,,00023,001,2026-01-20_17h20.47.244,MST_task,2024.2.0,60.033090246702386,2026-01-20 17h20.54.597714 +0530,
,Objects\056a.jpg,60,0,61,,,,,f,1.9498513999860734,0.19891989999450743,None,,,,,,61,0,60,355.08907549997093,,,,,,,,,,,,,,,,,,,,,,,355.0732397999964,355.08907549997093,355.5892687999876,355.5724961999804,,,,,,,,,,,,,,,,,,,,,,355.57488899998134,355.5892687999876,355.5892687999876,355.5892687999876,358.58905010001035,358.58905010001035,358.58905010001035,358.57282279996434,f,1.9498513999860734,0.19891989999450743,358.5728730999981,358.5728841999662,None,,,,,,,,,,,,,,00023,001,2026-01-20_17h20.47.244,MST_task,2024.2.0,60.033090246702386,2026-01-20 17h20.54.597714 +0530,
,Objects\167a.jpg,61,0,62,,,,,f,1.345267899974715,0.18403860001126304,None,,,,,,62,0,61,358.58905010001035,,,,,,,,,,,,,,,,,,,,,,,358.5729473999818,358.58905010001035,359.0892096000025,359.07252990000416,,,,,,,,,,,,,,,,,,,,,,359.0752466999693,359.0892096000025,359.0892096000025,359.0892096000025,362.089076299977,362.089076299977,362.089076299977,362.07301479997113,f,1.345267899974715,0.18403860001126304,362.07308229996124,362.0730947999982,None,,,,,,,,,,,,,,00023,001,2026-01-20_17h20.47.244,MST_task,2024.2.0,60.033090246702386,2026-01-20 17h20.54.597714 +0530,
,Objects\097a.jpg,62,0,63,,,,,j,0.8137648000265472,0.32737979997182265,None,,,,,,63,0,62,362.089076299977,,,,,,,,,,,,,,,,,,,,,,,362.0731647000066,362.089076299977,362.58928299997933,362.5726318999659,,,,,,,,,,,,,,,,,,,,,,362.57516109995777,362.58928299997933,362.58928299997933,362.58928299997933,365.58915879996493,365.58915879996493,365.58915879996493,365.57305249996716,j,0.8137648000265472,0.32737979997182265,365.57312129996717,365.5731336000026,None,,,,,,,,,,,,,,00023,001,2026-01-20_17h20.47.244,MST_task,2024.2.0,60.033090246702386,2026-01-20 17h20.54.597714 +0530,
,Scenes\149a.jpg,63,0,64,,,,,j,1.0247464000131004,0.18411380000179633,None,,,,,,64,0,63,365.58915879996493,,,,,,,,,,,,,,,,,,,,,,,365.57320729998173,365.58915879996493,366.08957349997945,366.0726985000074,,,,,,,,,,,,,,,,,,,,,,366.08249840000644,366.08957349997945,366.08957349997945,366.08957349997945,369.0889924999792,369.0889924999792,369.0889924999792,369.0728194999974,j,1.0247464000131004,0.18411380000179633,369.07287069997983,369.0728821000084,None,,,,,,,,,,,,,,00023,001,2026-01-20_17h20.47.244,MST_task,2024.2.0,60.033090246702386,2026-01-20 17h20.54.597714 +0530,
,Scenes\098a.jpg,64,0,65,,,,,f,1.5572471999912523,0.19990160001907498,None,,,,,,65,0,64,369.0889924999792,,,,,,,,,,,,,,,,,,,,,,,369.07294749998255,369.0889924999792,369.5895935999579,369.57260859996313,,,,,,,,,,,,,,,,,,,,,,369.5793616999872,369.5895935999579,369.5895935999579,369.5895935999579,372.589105299965,372.589105299965,372.589105299965,372.5729582000058,f,1.5572471999912523,0.19990160001907498,372.57302069995785,372.5730331999948,None,,,,,,,,,,,,,,00023,001,2026-01-20_17h20.47.244,MST_task,2024.2.0,60.033090246702386,2026-01-20 17h20.54.597714 +0530,
,Scenes\086a.jpg,65,0,66,,,,,j,2.1924868000205606,0.2323321999865584,None,,,,,,66,0,65,372.589105299965,,,,,,,,,,,,,,,,,,,,,,,372.57313919998705,372.589105299965,373.0902103999979,373.0727154999622,,,,,,,,,,,,,,,,,,,,,,373.0839868999901,373.0902103999979,373.0902103999979,373.0902103999979,,,,376.0892412000103,j,2.1924868000205606,0.2323321999865584,376.08929249999346,376.0893045999692,None,,,,,,,,,,,,,,00023,001,2026-01-20_17h20.47.244,MST_task,2024.2.0,60.033090246702386,2026-01-20 17h20.54.597714 +0530,
,Scenes\180a.jpg,66,0,67,,,,,j,0.9320959000033326,0.1841421999852173,None,,,,,,67,0,66,376.1057194999885,,,,,,,,,,,,,,,,,,,,,,,376.08937219996005,376.1057194999885,376.6063452999806,376.5892969999695,,,,,,,,,,,,,,,,,,,,,,376.59636629995657,376.6063452999806,376.6063452999806,376.6063452999806,379.6057550999685,379.6057550999685,379.6057550999685,379.589548799966,j,0.9320959000033326,0.1841421999852173,379.589613499993,379.58962549996795,None,,,,,,,,,,,,,,00023,001,2026-01-20_17h20.47.244,MST_task,2024.2.0,60.033090246702386,2026-01-20 17h20.54.597714 +0530,
,Scenes\058a.jpg,67,0,68,,,,,f,0.8155647999956273,0.1671008999692276,None,,,,,,68,0,67,379.6057550999685,,,,,,,,,,,,,,,,,,,,,,,379.5896922000102,379.6057550999685,380.1079439999885,380.0894164000056,,,,,,,,,,,,,,,,,,,,,,380.10561689996393,380.1079439999885,380.1079439999885,380.1079439999885,,,,383.1059582000016,f,0.8155647999956273,0.1671008999692276,383.10602119995747,383.1060337999952,None,,,,,,,,,,,,,,00023,001,2026-01-20_17h20.47.244,MST_task,2024.2.0,60.033090246702386,2026-01-20 17h20.54.597714 +0530,
,Scenes\118a.jpg,68,0,69,,,,,j,0.9638793999911286,0.2320725999888964,None,,,,,,69,0,68,383.12226410000585,,,,,,,,,,,,,,,,,,,,,,,383.1061352000106,383.12226410000585,383.6227993000066,383.60611829999834,,,,,,,,,,,,,,,,,,,,,,383.6120591000072,383.6227993000066,383.6227993000066,383.6227993000066,386.62223689997336,386.62223689997336,386.62223689997336,386.60628489998635,j,0.9638793999911286,0.2320725999888964,386.6063361999695,386.6063475999981,None,,,,,,,,,,,,,,00023,001,2026-01-20_17h20.47.244,MST_task,2024.2.0,60.033090246702386,2026-01-20 17h20.54.597714 +0530,
,Scenes\049a.jpg,69,0,70,,,,,j,1.1130622999626212,0.2383354000048712,None,,,,,,70,0,69,386.62223689997336,,,,,,,,,,,,,,,,,,,,,,,386.6064323000028,386.62223689997336,387.1224937000079,387.10614519997034,,,,,,,,,,,,,,,,,,,,,,387.11237709998386,387.1224937000079,387.1224937000079,387.1224937000079,390.1222420000122,390.1222420000122,390.1222420000122,390.1062218999723,j,1.1130622999626212,0.2383354000048712,390.10627839999506,390.10628959996393,None,,,,,,,,,,,,,,00023,001,2026-01-20_17h20.47.244,MST_task,2024.2.0,60.033090246702386,2026-01-20 17h20.54.597714 +0530,
,Objects\184a.jpg,70,0,71,,,,,None,,,j,1.6602528999792412,None,,,,71,0,70,390.1222420000122,,,,,,,,,,,,,,,,,,,,,,,390.1063807999599,390.1222420000122,390.6227385000093,390.6058925999678,,,,,,,,,,,,,,,,,,,,,,390.6095534999622,390.6227385000093,390.6227385000093,390.6227385000093,393.62222580000525,393.62222580000525,393.62222580000525,393.60643340001116,None,,,393.60648949997267,395.2895356999943,j,393.62222580000525,393.62222580000525,1.6602528999792412,None,,,,,,,,,,00023,001,2026-01-20_17h20.47.244,MST_task,2024.2.0,60.033090246702386,2026-01-20 17h20.54.597714 +0530,
,Objects\124a.jpg,71,0,72,,,,,f,1.2442537999595515,0.15211490000365302,None,,,,,,72,0,71,395.3056410999852,,,,,,,,,,,,,,,,,,,,,,,395.2896533999592,395.3056410999852,395.80594869999913,395.78926519997185,,,,,,,,,,,,,,,,,,,,,,395.792311600002,395.80594869999913,395.80594869999913,395.80594869999913,398.80578309996054,398.80578309996054,398.80578309996054,398.7896619999665,f,1.2442537999595515,0.15211490000365302,398.7897219999577,398.78973349998705,None,,,,,,,,,,,,,,00023,001,2026-01-20_17h20.47.244,MST_task,2024.2.0,60.033090246702386,2026-01-20 17h20.54.597714 +0530,
,Objects\179a.jpg,72,0,73,,,,,f,2.040261099988129,0.17605430004186928,None,,,,,,73,0,72,398.80578309996054,,,,,,,,,,,,,,,,,,,,,,,398.7898276000051,398.80578309996054,399.30593159998534,399.28945689997636,,,,,,,,,,,,,,,,,,,,,,399.29224260000046,399.30593159998534,399.30593159998534,399.30593159998534,402.3057196000009,402.3057196000009,402.3057196000009,402.28957129997434,f,2.040261099988129,0.17605430004186928,402.2896270999918,402.2896378999576,None,,,,,,,,,,,,,,00023,001,2026-01-20_17h20.47.244,MST_task,2024.2.0,60.033090246702386,2026-01-20 17h20.54.597714 +0530,
,Objects\037a.jpg,73,0,74,,,,,f,0.8839986000093631,0.18456019996665418,None,,,,,,74,0,73,402.3057196000009,,,,,,,,,,,,,,,,,,,,,,,402.28972209995845,402.3057196000009,402.8059260000009,402.7892462000018,,,,,,,,,,,,,,,,,,,,,,402.7921733999974,402.8059260000009,402.8059260000009,402.8059260000009,405.8057523999596,405.8057523999596,405.8057523999596,405.78959100000793,f,0.8839986000093631,0.18456019996665418,405.7896430999972,405.78965459996834,None,,,,,,,,,,,,,,00023,001,2026-01-20_17h20.47.244,MST_task,2024.2.0,60.033090246702386,2026-01-20 17h20.54.597714 +0530,
,Objects\142a.jpg,74,0,75,,,,,f,0.7530660000047646,0.20688889996381477,None,,,,,,75,0,74,405.8057523999596,,,,,,,,,,,,,,,,,,,,,,,405.78974229999585,405.8057523999596,406.30597809999017,406.289268499997,,,,,,,,,,,,,,,,,,,,,,406.3004117999808,406.30597809999017,406.30597809999017,406.30597809999017,409.30570159998024,409.30570159998024,409.30570159998024,409.28970659995684,f,0.7530660000047646,0.20688889996381477,409.2897653999971,409.28977749997284,None,,,,,,,,,,,,,,00023,001,2026-01-20_17h20.47.244,MST_task,2024.2.0,60.033090246702386,2026-01-20 17h20.54.597714 +0530,
,Objects\138a.jpg,75,0,76,,,,,j,1.1244334999937564,0.21583669999381527,None,,,,,,76,0,75,409.30570159998024,,,,,,,,,,,,,,,,,,,,,,,409.28986979997717,409.30570159998024,409.806065999961,409.7892295999918,,,,,,,,,,,,,,,,,,,,,,409.791851499991,409.806065999961,409.806065999961,409.806065999961,412.80575179995503,412.80575179995503,412.80575179995503,412.7895916000125,j,1.1244334999937564,0.21583669999381527,412.7896499999915,412.7896614999627,None,,,,,,,,,,,,,,00023,001,2026-01-20_17h20.47.244,MST_task,2024.2.0,60.033090246702386,2026-01-20 17h20.54.597714 +0530,
,Objects\176a.jpg,76,0,77,,,,,j,2.4651684999698773,0.18297980003990233,None,,,,,,77,0,76,412.80575179995503,,,,,,,,,,,,,,,,,,,,,,,412.7897459999658,412.80575179995503,413.30594679998467,413.289241499966,,,,,,,,,,,,,,,,,,,,,,413.29190680000465,413.30594679998467,413.30594679998467,413.30594679998467,416.3057316999766,416.3057316999766,416.3057316999766,416.28966569999466,j,2.4651684999698773,0.18297980003990233,416.28972729999805,416.2897384999669,None,,,,,,,,,,,,,,00023,001,2026-01-20_17h20.47.244,MST_task,2024.2.0,60.033090246702386,2026-01-20 17h20.54.597714 +0530,
,Scenes\090a.jpg,77,0,78,,,,,j,1.4766520999837667,0.19200939999427646,None,,,,,,78,0,77,416.3057316999766,,,,,,,,,,,,,,,,,,,,,,,416.2898275000043,416.3057316999766,416.80621619999874,416.7893713999656,,,,,,,,,,,,,,,,,,,,,,416.7997735000099,416.80621619999874,416.80621619999874,416.80621619999874,419.8057142999605,419.8057142999605,419.8057142999605,419.7897472999757,j,1.4766520999837667,0.19200939999427646,419.7898147999658,419.7898261999944,None,,,,,,,,,,,,,,00023,001,2026-01-20_17h20.47.244,MST_task,2024.2.0,60.033090246702386,2026-01-20 17h20.54.597714 +0530,
,Scenes\111a.jpg,78,0,79,,,,,j,0.6087483000010252,0.18307289999211207,None,,,,,,79,0,78,419.8057142999605,,,,,,,,,,,,,,,,,,,,,,,419.7899213999626,419.8057142999605,420.3062617999967,420.2893887999817,,,,,,,,,,,,,,,,,,,,,,420.29589509998914,420.3062617999967,420.3062617999967,420.3062617999967,423.3056845999672,423.3056845999672,423.3056845999672,423.2896599000087,j,0.6087483000010252,0.18307289999211207,423.2897146999603,423.28972549998434,None,,,,,,,,,,,,,,00023,001,2026-01-20_17h20.47.244,MST_task,2024.2.0,60.033090246702386,2026-01-20 17h20.54.597714 +0530,
,Scenes\013a.jpg,79,0,80,,,,,j,1.4046147000044584,0.2154049000237137,None,,,,,,80,0,79,423.3056845999672,,,,,,,,,,,,,,,,,,,,,,,423.2897915999638,423.3056845999672,423.8062358999741,423.7894272999838,,,,,,,,,,,,,,,,,,,,,,423.79843369999435,423.8062358999741,423.8062358999741,423.8062358999741,426.8057402999839,426.8057402999839,426.8057402999839,426.7896746000042,j,1.4046147000044584,0.2154049000237137,426.78972880000947,426.7897400999791,None,,,,,,,,,,,,,,00023,001,2026-01-20_17h20.47.244,MST_task,2024.2.0,60.033090246702386,2026-01-20 17h20.54.597714 +0530,
,Scenes\189a.jpg,80,0,81,,,,,j,0.8081052000052296,0.20022070000413805,None,,,,,,81,0,80,426.8057402999839,,,,,,,,,,,,,,,,,,,,,,,426.7898235999746,426.8057402999839,427.3063065999886,427.2894616999547,,,,,,,,,,,,,,,,,,,,,,427.2992865999695,427.3063065999886,427.3063065999886,427.3063065999886,430.30568920000223,430.30568920000223,430.30568920000223,430.28970169997774,j,0.8081052000052296,0.20022070000413805,430.28975860000355,430.289770399977,None,,,,,,,,,,,,,,00023,001,2026-01-20_17h20.47.244,MST_task,2024.2.0,60.033090246702386,2026-01-20 17h20.54.597714 +0530,
,Scenes\186a.jpg,81,0,82,,,,,f,2.789617999980692,None,None,,,,,,82,0,81,430.30568920000223,,,,,,,,,,,,,,,,,,,,,,,430.2898365999572,430.30568920000223,430.8062923999969,430.78934459999437,,,,,,,,,,,,,,,,,,,,,,430.79586839996045,430.8062923999969,430.8062923999969,430.8062923999969,433.8056660000002,433.8056660000002,433.8056660000002,433.7895568999811,f,2.789617999980692,None,433.78960849996656,433.7896200999967,None,,,,,,,,,,,,,,00023,001,2026-01-20_17h20.47.244,MST_task,2024.2.0,60.033090246702386,2026-01-20 17h20.54.597714 +0530,
,Scenes\110a.jpg,82,0,83,,,,,j,0.9126268000109121,0.20835700002498925,None,,,,,,83,0,82,433.8056660000002,,,,,,,,,,,,,,,,,,,,,,,433.78968149999855,433.8056660000002,434.30595279997215,434.28937099996256,,,,,,,,,,,,,,,,,,,,,,434.2961561999982,434.30595279997215,434.30595279997215,434.30595279997215,437.3057528999634,437.3057528999634,437.3057528999634,437.2898806000012,j,0.9126268000109121,0.20835700002498925,437.2899441999616,437.2899553999887,None,,,,,,,,,,,,,,00023,001,2026-01-20_17h20.47.244,MST_task,2024.2.0,60.033090246702386,2026-01-20 17h20.54.597714 +0530,
,Scenes\155a.jpg,83,0,84,,,,,j,1.9162620000424795,0.2325297999777831,None,,,,,,84,0,83,437.3057528999634,,,,,,,,,,,,,,,,,,,,,,,437.290047699993,437.3057528999634,437.80635949998396,437.78950939996867,,,,,,,,,,,,,,,,,,,,,,437.79732819995843,437.80635949998396,437.80635949998396,437.80635949998396,440.80570849997457,440.80570849997457,440.80570849997457,440.7897294999566,j,1.9162620000424795,0.2325297999777831,440.78979249997064,440.78980470000533,None,,,,,,,,,,,,,,00023,001,2026-01-20_17h20.47.244,MST_task,2024.2.0,60.033090246702386,2026-01-20 17h20.54.597714 +0530,
,Objects\047a.jpg,84,0,85,,,,,f,1.104773600003682,0.19999999995343387,None,,,,,,85,0,84,440.80570849997457,,,,,,,,,,,,,,,,,,,,,,,440.7899006999796,440.80570849997457,441.3061407000059,441.2892448999919,,,,,,,,,,,,,,,,,,,,,,441.29229569999734,441.3061407000059,441.3061407000059,441.3061407000059,444.3058895999566,444.3058895999566,444.3058895999566,444.2899384999764,f,1.104773600003682,0.19999999995343387,444.2900035000057,444.29001579998294,None,,,,,,,,,,,,,,00023,001,2026-01-20_17h20.47.244,MST_task,2024.2.0,60.033090246702386,2026-01-20 17h20.54.597714 +0530,
,Objects\075a.jpg,85,0,86,,,,,f,1.5250325000379235,0.20859929994912818,None,,,,,,86,0,85,444.3058895999566,,,,,,,,,,,,,,,,,,,,,,,444.2901151999831,444.3058895999566,444.80604799999855,444.7893421999761,,,,,,,,,,,,,,,,,,,,,,444.7918784999638,444.80604799999855,444.80604799999855,444.80604799999855,447.80578359996434,447.80578359996434,447.80578359996434,447.78972309996607,f,1.5250325000379235,0.20859929994912818,447.78977279999526,447.7897840999649,None,,,,,,,,,,,,,,00023,001,2026-01-20_17h20.47.244,MST_task,2024.2.0,60.033090246702386,2026-01-20 17h20.54.597714 +0530,
,Objects\008a.jpg,86,0,87,,,,,f,1.320562900044024,0.2159863999695517,None,,,,,,87,0,86,447.80578359996434,,,,,,,,,,,,,,,,,,,,,,,447.78986849996727,447.80578359996434,448.3060682999785,448.28964579995954,,,,,,,,,,,,,,,,,,,,,,448.29256529995473,448.3060682999785,448.3060682999785,448.3060682999785,451.3057823999552,451.3057823999552,451.3057823999552,451.2898918999708,f,1.320562900044024,0.2159863999695517,451.28995820001,451.2899708999903,None,,,,,,,,,,,,,,00023,001,2026-01-20_17h20.47.244,MST_task,2024.2.0,60.033090246702386,2026-01-20 17h20.54.597714 +0530,
,Objects\092a.jpg,87,0,88,,,,,f,1.1248903999803588,0.21501099999295548,None,,,,,,88,0,87,451.3057823999552,,,,,,,,,,,,,,,,,,,,,,,451.29007220000494,451.3057823999552,451.8061764999875,451.7894081000122,,,,,,,,,,,,,,,,,,,,,,451.8006221000105,451.8061764999875,451.8061764999875,451.8061764999875,454.8058240999817,454.8058240999817,454.8058240999817,454.7897723999922,f,1.1248903999803588,0.21501099999295548,454.78983209998114,454.78984350000974,None,,,,,,,,,,,,,,00023,001,2026-01-20_17h20.47.244,MST_task,2024.2.0,60.033090246702386,2026-01-20 17h20.54.597714 +0530,
,Objects\101a.jpg,88,0,89,,,,,j,1.903869100031443,0.19270299997879192,None,,,,,,89,0,88,454.8058240999817,,,,,,,,,,,,,,,,,,,,,,,454.7899342000019,454.8058240999817,455.30609460000414,455.2893381000031,,,,,,,,,,,,,,,,,,,,,,455.2921567999874,455.30609460000414,455.30609460000414,455.30609460000414,458.3058542999788,458.3058542999788,458.3058542999788,458.28963209997164,j,1.903869100031443,0.19270299997879192,458.28968280000845,458.2896939999773,None,,,,,,,,,,,,,,00023,001,2026-01-20_17h20.47.244,MST_task,2024.2.0,60.033090246702386,2026-01-20 17h20.54.597714 +0530,
,Objects\171a.jpg,89,0,90,,,,,f,1.22823430004064,0.2000094999675639,None,,,,,,90,0,89,458.3058542999788,,,,,,,,,,,,,,,,,,,,,,,458.2897578999982,458.3058542999788,458.8061037999578,458.78970039996784,,,,,,,,,,,,,,,,,,,,,,458.8003938999609,458.8061037999578,458.8061037999578,458.8061037999578,461.8057819000096,461.8057819000096,461.8057819000096,461.78970580000896,f,1.22823430004064,0.2000094999675639,461.78976919996785,461.78978210000787,None,,,,,,,,,,,,,,00023,001,2026-01-20_17h20.47.244,MST_task,2024.2.0,60.033090246702386,2026-01-20 17h20.54.597714 +0530,
,Objects\011a.jpg,90,0,91,,,,,f,1.2246242999681272,0.1919808000093326,None,,,,,,91,0,90,461.8057819000096,,,,,,,,,,,,,,,,,,,,,,,461.7898742000107,461.8057819000096,462.30600559996674,462.2894808999845,,,,,,,,,,,,,,,,,,,,,,462.29237149999244,462.30600559996674,462.30600559996674,462.30600559996674,465.30579909996595,465.30579909996595,465.30579909996595,465.2897592000081,f,1.2246242999681272,0.1919808000093326,465.289818499994,465.289832999988,None,,,,,,,,,,,,,,00023,001,2026-01-20_17h20.47.244,MST_task,2024.2.0,60.033090246702386,2026-01-20 17h20.54.597714 +0530,
,Scenes\095a.jpg,91,0,92,,,,,j,1.0676772000151686,0.24010930000804365,None,,,,,,92,0,91,465.30579909996595,,,,,,,,,,,,,,,,,,,,,,,465.28990009997506,465.30579909996595,465.80638059997,465.7895134999999,,,,,,,,,,,,,,,,,,,,,,465.8033659000066,465.80638059997,465.80638059997,465.80638059997,468.8058486999944,468.8058486999944,468.8058486999944,468.78966989996843,j,1.0676772000151686,0.24010930000804365,468.78972080000676,468.7897317999741,None,,,,,,,,,,,,,,00023,001,2026-01-20_17h20.47.244,MST_task,2024.2.0,60.033090246702386,2026-01-20 17h20.54.597714 +0530,
,Scenes\094a.jpg,92,0,93,,,,,f,1.1956084999837913,0.2240004999912344,None,,,,,,93,0,92,468.8058486999944,,,,,,,,,,,,,,,,,,,,,,,468.7898143999628,468.8058486999944,469.31036770000355,469.2894738999894,,,,,,,,,,,,,,,,,,,,,,469.3078170999652,469.31036770000355,469.31036770000355,469.31036770000355,,,,472.3061014999985,f,1.1956084999837913,0.2240004999912344,472.3061515999725,472.3061636000057,None,,,,,,,,,,,,,,00023,001,2026-01-20_17h20.47.244,MST_task,2024.2.0,60.033090246702386,2026-01-20 17h20.54.597714 +0530,
,Scenes\114a.jpg,93,0,94,,,,,f,0.9872657000087202,0.20907899999292567,None,,,,,,94,0,93,472.32254879997345,,,,,,,,,,,,,,,,,,,,,,,472.3062312999973,472.32254879997345,472.82268330000807,472.8061014999985,,,,,,,,,,,,,,,,,,,,,,472.81663660000777,472.82268330000807,472.82268330000807,472.82268330000807,475.82251410000026,475.82251410000026,475.82251410000026,475.8063376999926,f,0.9872657000087202,0.20907899999292567,475.8063914999948,475.80640299996594,None,,,,,,,,,,,,,,00023,001,2026-01-20_17h20.47.244,MST_task,2024.2.0,60.033090246702386,2026-01-20 17h20.54.597714 +0530,
,Scenes\177a.jpg,94,0,95,,,,,j,1.1515395999886096,0.2484612000407651,None,,,,,,95,0,94,475.82251410000026,,,,,,,,,,,,,,,,,,,,,,,475.80648679996375,475.82251410000026,476.3227598000085,476.3061410000082,,,,,,,,,,,,,,,,,,,,,,476.312981199997,476.3227598000085,476.3227598000085,476.3227598000085,479.3225271999836,479.3225271999836,479.3225271999836,479.306489199982,j,1.1515395999886096,0.2484612000407651,479.30654679995496,479.3065590999904,None,,,,,,,,,,,,,,00023,001,2026-01-20_17h20.47.244,MST_task,2024.2.0,60.033090246702386,2026-01-20 17h20.54.597714 +0530,
,Scenes\173a.jpg,95,0,96,,,,,j,0.6835274999612011,0.28004790004342794,None,,,,,,96,0,95,479.3225271999836,,,,,,,,,,,,,,,,,,,,,,,479.3066279999912,479.3225271999836,479.82310039998265,479.8061060999753,,,,,,,,,,,,,,,,,,,,,,479.81321679998655,479.82310039998265,479.82310039998265,479.82310039998265,482.8224676999962,482.8224676999962,482.8224676999962,482.8071093999897,j,0.6835274999612011,0.28004790004342794,482.8071707999916,482.8071823999635,None,,,,,,,,,,,,,,00023,001,2026-01-20_17h20.47.244,MST_task,2024.2.0,60.033090246702386,2026-01-20 17h20.54.597714 +0530,
,Scenes\028a.jpg,96,0,97,,,,,j,1.103068099997472,0.23288460000185296,None,,,,,,97,0,96,482.8224676999962,,,,,,,,,,,,,,,,,,,,,,,482.80724850000115,482.8224676999962,483.3228864999837,483.30627339996863,,,,,,,,,,,,,,,,,,,,,,483.3138093999587,483.3228864999837,483.3228864999837,483.3228864999837,486.3223974999855,486.3223974999855,486.3223974999855,486.3063683999935,j,1.103068099997472,0.23288460000185296,486.3064316000091,486.3064437999856,None,,,,,,,,,,,,,,00023,001,2026-01-20_17h20.47.244,MST_task,2024.2.0,60.033090246702386,2026-01-20 17h20.54.597714 +0530,
,Scenes\192a.jpg,97,0,98,,,,,j,1.6201683999970555,0.20727359998272732,None,,,,,,98,0,97,486.3223974999855,,,,,,,,,,,,,,,,,,,,,,,486.30653800000437,486.3223974999855,486.8231203999603,486.806114099978,,,,,,,,,,,,,,,,,,,,,,486.8199126999825,486.8231203999603,486.8231203999603,486.8231203999603,489.822578399966,489.822578399966,489.822578399966,489.806701399968,j,1.6201683999970555,0.20727359998272732,489.8067652999889,489.80677709996235,None,,,,,,,,,,,,,,00023,001,2026-01-20_17h20.47.244,MST_task,2024.2.0,60.033090246702386,2026-01-20 17h20.54.597714 +0530,
,Objects\130a.jpg,98,0,99,,,,,f,1.4633054999867454,0.20777160004945472,None,,,,,,99,0,98,489.822578399966,,,,,,,,,,,,,,,,,,,,,,,489.8068473999738,489.822578399966,490.3229422000004,490.30615249997936,,,,,,,,,,,,,,,,,,,,,,490.309634300007,490.3229422000004,490.3229422000004,490.3229422000004,493.3225496999803,493.3225496999803,493.3225496999803,493.30656469997484,f,1.4633054999867454,0.20777160004945472,493.30661999998847,493.30663119995734,None,,,,,,,,,,,,,,00023,001,2026-01-20_17h20.47.244,MST_task,2024.2.0,60.033090246702386,2026-01-20 17h20.54.597714 +0530,
,Objects\170a.jpg,99,0,100,,,,,f,1.8851837000111118,0.19999970000935718,None,,,,,,100,0,99,493.3225496999803,,,,,,,,,,,,,,,,,,,,,,,493.30669589998433,493.3225496999803,493.8225018999656,493.80609949998325,,,,,,,,,,,,,,,,,,,,,,493.80903189996025,493.8225018999656,493.8225018999656,493.8225018999656,496.82250269997166,496.82250269997166,496.82250269997166,496.8064270999748,f,1.8851837000111118,0.19999970000935718,496.8064779000124,496.8064894999843,None,,,,,,,,,,,,,,00023,001,2026-01-20_17h20.47.244,MST_task,2024.2.0,60.033090246702386,2026-01-20 17h20.54.597714 +0530,
,Objects\153a.jpg,100,0,101,,,,,f,0.783347100019455,0.17702890001237392,None,,,,,,101,0,100,496.82250269997166,,,,,,,,,,,,,,,,,,,,,,,496.80655479995767,496.82250269997166,497.3227454999578,497.3061234999914,,,,,,,,,,,,,,,,,,,,,,497.3089034999721,497.3227454999578,497.3227454999578,497.3227454999578,500.32250710000517,500.32250710000517,500.32250710000517,500.30657789995894,f,0.783347100019455,0.17702890001237392,500.3066464999574,500.30665909999516,None,,,,,,,,,,,,,,00023,001,2026-01-20_17h20.47.244,MST_task,2024.2.0,60.033090246702386,2026-01-20 17h20.54.597714 +0530,
,Objects\146a.jpg,101,0,102,,,,,f,1.476139599981252,0.16716790001373738,None,,,,,,102,0,101,500.32250710000517,,,,,,,,,,,,,,,,,,,,,,,500.3067274999921,500.32250710000517,500.822728500003,500.8060620999895,,,,,,,,,,,,,,,,,,,,,,500.80872119998094,500.822728500003,500.822728500003,500.822728500003,503.82241709996015,503.82241709996015,503.82241709996015,503.8063772000023,f,1.476139599981252,0.16716790001373738,503.8064372999943,503.80644959997153,None,,,,,,,,,,,,,,00023,001,2026-01-20_17h20.47.244,MST_task,2024.2.0,60.033090246702386,2026-01-20 17h20.54.597714 +0530,
,Objects\013a.jpg,102,0,103,,,,,f,0.6876074000028893,0.17605380003806204,None,,,,,,103,0,102,503.82241709996015,,,,,,,,,,,,,,,,,,,,,,,503.80651759996545,503.82241709996015,504.32250069995644,504.306124499999,,,,,,,,,,,,,,,,,,,,,,504.3088470000075,504.32250069995644,504.32250069995644,504.32250069995644,507.322365799977,507.322365799977,507.322365799977,507.3061997999903,f,0.6876074000028893,0.17605380003806204,507.3062521999818,507.3062632000074,None,,,,,,,,,,,,,,00023,001,2026-01-20_17h20.47.244,MST_task,2024.2.0,60.033090246702386,2026-01-20 17h20.54.597714 +0530,
,Objects\093a.jpg,103,0,104,,,,,j,0.9394952000002377,0.2331146000069566,None,,,,,,104,0,103,507.322365799977,,,,,,,,,,,,,,,,,,,,,,,507.3063269999693,507.322365799977,507.82270509999944,507.80599729996175,,,,,,,,,,,,,,,,,,,,,,507.808694700012,507.82270509999944,507.82270509999944,507.82270509999944,510.8225231000106,510.8225231000106,510.8225231000106,510.8066523000016,j,0.9394952000002377,0.2331146000069566,510.80672100000083,510.8067331999773,None,,,,,,,,,,,,,,00023,001,2026-01-20_17h20.47.244,MST_task,2024.2.0,60.033090246702386,2026-01-20 17h20.54.597714 +0530,
,Objects\137a.jpg,104,0,105,,,,,j,1.4804441999876872,0.191687099984847,None,,,,,,105,0,104,510.8225231000106,,,,,,,,,,,,,,,,,,,,,,,510.8068019999773,510.8225231000106,511.32272140000714,511.30609719996573,,,,,,,,,,,,,,,,,,,,,,511.30901480000466,511.32272140000714,511.32272140000714,511.32272140000714,514.3222419999656,514.3222419999656,514.3222419999656,514.3063120999723,j,1.4804441999876872,0.191687099984847,514.3063762999955,514.3063881999697,None,,,,,,,,,,,,,,00023,001,2026-01-20_17h20.47.244,MST_task,2024.2.0,60.033090246702386,2026-01-20 17h20.54.597714 +0530,
,Scenes\044a.jpg,105,0,106,,,,,None,,,j,0.26831050001783296,None,,,,106,0,105,514.3222419999656,,,,,,,,,,,,,,,,,,,,,,,514.3064575999742,514.3222419999656,514.8227573999902,514.8059190000058,,,,,,,,,,,,,,,,,,,,,,514.8124458999955,514.8227573999902,514.8227573999902,514.8227573999902,517.8222767999978,517.8222767999978,517.8222767999978,517.8062262999592,None,,,517.8062752999831,518.1060793999932,j,517.8222767999978,517.8222767999978,0.26831050001783296,None,,,,,,,,,,00023,001,2026-01-20_17h20.47.244,MST_task,2024.2.0,60.033090246702386,2026-01-20 17h20.54.597714 +0530,
,Scenes\171a.jpg,106,0,107,,,,,f,0.9018122000270523,0.19201379996957257,None,,,,,,107,0,106,518.1223170000012,,,,,,,,,,,,,,,,,,,,,,,518.1061646000016,518.1223170000012,518.6288952999748,518.6059949999908,,,,,,,,,,,,,,,,,,,,,,518.6264634999679,518.6288952999748,518.6288952999748,518.6288952999748,,,,521.6224477000069,f,0.9018122000270523,0.19201379996957257,521.622500700003,521.6225133999833,None,,,,,,,,,,,,,,00023,001,2026-01-20_17h20.47.244,MST_task,2024.2.0,60.033090246702386,2026-01-20 17h20.54.597714 +0530,
,Scenes\018a.jpg,107,0,108,,,,,f,1.4853532999986783,0.19309779995819554,None,,,,,,108,0,107,521.6390971000073,,,,,,,,,,,,,,,,,,,,,,,521.6226012000116,521.6390971000073,522.1409257999621,522.1228423999855,,,,,,,,,,,,,,,,,,,,,,522.1378637999878,522.1409257999621,522.1409257999621,522.1409257999621,,,,525.1226301999995,f,1.4853532999986783,0.19309779995819554,525.1226872999687,525.1226998000056,None,,,,,,,,,,,,,,00023,001,2026-01-20_17h20.47.244,MST_task,2024.2.0,60.033090246702386,2026-01-20 17h20.54.597714 +0530,
,Scenes\066a.jpg,108,0,109,,,,,j,0.7233023000298999,0.2400089000002481,None,,,,,,109,0,108,525.1390904999571,,,,,,,,,,,,,,,,,,,,,,,525.1227701999596,525.1390904999571,525.6396038999665,525.6225551000098,,,,,,,,,,,,,,,,,,,,,,525.6267315999721,525.6396038999665,525.6396038999665,525.6396038999665,528.6391283000121,528.6391283000121,528.6391283000121,528.622898600006,j,0.7233023000298999,0.2400089000002481,528.6229508999968,528.6229619999649,None,,,,,,,,,,,,,,00023,001,2026-01-20_17h20.47.244,MST_task,2024.2.0,60.033090246702386,2026-01-20 17h20.54.597714 +0530,
,Scenes\130a.jpg,109,0,110,,,,,j,1.471255700045731,0.16802079998888075,None,,,,,,110,0,109,528.6391283000121,,,,,,,,,,,,,,,,,,,,,,,528.6230472999741,528.6391283000121,529.1396034999634,529.1226393000106,,,,,,,,,,,,,,,,,,,,,,529.1335049999761,529.1396034999634,529.1396034999634,529.1396034999634,532.1391265999991,532.1391265999991,532.1391265999991,532.1228401999688,j,1.471255700045731,0.16802079998888075,532.1228902000003,532.1229009999661,None,,,,,,,,,,,,,,00023,001,2026-01-20_17h20.47.244,MST_task,2024.2.0,60.033090246702386,2026-01-20 17h20.54.597714 +0530,
,Scenes\164a.jpg,110,0,111,,,,,j,1.3142485999851488,0.2558030000072904,None,,,,,,111,0,110,532.1391265999991,,,,,,,,,,,,,,,,,,,,,,,532.1229669000022,532.1391265999991,532.6408502999693,532.6226474999567,,,,,,,,,,,,,,,,,,,,,,532.6381930999923,532.6408502999693,532.6408502999693,532.6408502999693,,,,535.6393744999659,j,1.3142485999851488,0.2558030000072904,535.6394392999937,535.6394963999628,None,,,,,,,,,,,,,,00023,001,2026-01-20_17h20.47.244,MST_task,2024.2.0,60.033090246702386,2026-01-20 17h20.54.597714 +0530,
,Scenes\084a.jpg,111,0,112,,,,,j,1.013773599988781,0.1919901999644935,None,,,,,,112,0,111,535.6558296000003,,,,,,,,,,,,,,,,,,,,,,,535.6395744999754,535.6558296000003,536.1563260999974,536.1392572000041,,,,,,,,,,,,,,,,,,,,,,536.1496108999709,536.1563260999974,536.1563260999974,536.1563260999974,539.1557162000099,539.1557162000099,539.1557162000099,539.139654700004,j,1.013773599988781,0.1919901999644935,539.1397061999887,539.1397172999568,None,,,,,,,,,,,,,,00023,001,2026-01-20_17h20.47.244,MST_task,2024.2.0,60.033090246702386,2026-01-20 17h20.54.597714 +0530,
,Objects\039a.jpg,112,0,113,,,,,j,1.3386284000007436,0.22391340002650395,None,,,,,,113,0,112,539.1557162000099,,,,,,,,,,,,,,,,,,,,,,,539.1398035999737,539.1557162000099,539.6562852999778,539.6393753999728,,,,,,,,,,,,,,,,,,,,,,539.6499072999577,539.6562852999778,539.6562852999778,539.6562852999778,542.6559107999783,542.6559107999783,542.6559107999783,542.6399424999836,j,1.3386284000007436,0.22391340002650395,542.6399994000094,542.6400105999783,None,,,,,,,,,,,,,,00023,001,2026-01-20_17h20.47.244,MST_task,2024.2.0,60.033090246702386,2026-01-20 17h20.54.597714 +0530,
,Objects\067a.jpg,113,0,114,,,,,f,1.9350240000057966,0.2152263000025414,None,,,,,,114,0,113,542.6559107999783,,,,,,,,,,,,,,,,,,,,,,,542.6401020999765,542.6559107999783,543.155952000001,543.1394564000075,,,,,,,,,,,,,,,,,,,,,,543.1421986999922,543.155952000001,543.155952000001,543.155952000001,546.1561319999746,546.1561319999746,546.1561319999746,546.1401746000047,f,1.9350240000057966,0.2152263000025414,546.1402417999925,546.1402542999713,None,,,,,,,,,,,,,,00023,001,2026-01-20_17h20.47.244,MST_task,2024.2.0,60.033090246702386,2026-01-20 17h20.54.597714 +0530,
,Objects\002a.jpg,114,0,115,,,,,f,0.8340449999668635,0.22459400002844632,None,,,,,,115,0,114,546.1561319999746,,,,,,,,,,,,,,,,,,,,,,,546.1403287999565,546.1561319999746,546.6559862999711,546.6393823999679,,,,,,,,,,,,,,,,,,,,,,546.6420182999573,546.6559862999711,546.6559862999711,546.6559862999711,549.6557113999734,549.6557113999734,549.6557113999734,549.6397817999823,f,0.8340449999668635,0.22459400002844632,549.6398355999845,549.639847399958,None,,,,,,,,,,,,,,00023,001,2026-01-20_17h20.47.244,MST_task,2024.2.0,60.033090246702386,2026-01-20 17h20.54.597714 +0530,
,Objects\060a.jpg,115,0,116,,,,,f,1.4389304000069387,0.2630879000062123,None,,,,,,116,0,115,549.6557113999734,,,,,,,,,,,,,,,,,,,,,,,549.6399338999763,549.6557113999734,550.1559842999559,550.1393365999684,,,,,,,,,,,,,,,,,,,,,,550.142007699993,550.1559842999559,550.1559842999559,550.1559842999559,553.1557860999601,553.1557860999601,553.1557860999601,553.1401531999581,f,1.4389304000069387,0.2630879000062123,553.1402077999664,553.1402195999981,None,,,,,,,,,,,,,,00023,001,2026-01-20_17h20.47.244,MST_task,2024.2.0,60.033090246702386,2026-01-20 17h20.54.597714 +0530,
,Objects\029a.jpg,116,0,117,,,,,f,1.1542007999960333,0.21599779999814928,None,,,,,,117,0,116,553.1557860999601,,,,,,,,,,,,,,,,,,,,,,,553.1402949999901,553.1557860999601,553.6559469999629,553.6395533999894,,,,,,,,,,,,,,,,,,,,,,553.6421124999761,553.6559469999629,553.6559469999629,553.6559469999629,556.6557560999645,556.6557560999645,556.6557560999645,556.6397395000095,f,1.1542007999960333,0.21599779999814928,556.6397978999885,556.6398091999581,None,,,,,,,,,,,,,,00023,001,2026-01-20_17h20.47.244,MST_task,2024.2.0,60.033090246702386,2026-01-20 17h20.54.597714 +0530,
,Objects\115a.jpg,117,0,118,,,,,f,1.1661927999812178,0.23201570002129301,None,,,,,,118,0,117,556.6557560999645,,,,,,,,,,,,,,,,,,,,,,,556.6398972999887,556.6557560999645,557.1559074000106,557.1393367999699,,,,,,,,,,,,,,,,,,,,,,557.141907799989,557.1559074000106,557.1559074000106,557.1559074000106,560.1557667999878,560.1557667999878,560.1557667999878,560.139546499995,f,1.1661927999812178,0.23201570002129301,560.1395990999881,560.1396103999577,None,,,,,,,,,,,,,,00023,001,2026-01-20_17h20.47.244,MST_task,2024.2.0,60.033090246702386,2026-01-20 17h20.54.597714 +0530,
,Objects\085a.jpg,118,0,119,,,,,f,1.426898799953051,0.21576790005201474,None,,,,,,119,0,118,560.1557667999878,,,,,,,,,,,,,,,,,,,,,,,560.1396993999952,560.1557667999878,560.6559499999858,560.6393104000017,,,,,,,,,,,,,,,,,,,,,,560.6494344999664,560.6559499999858,560.6559499999858,560.6559499999858,563.6557737999829,563.6557737999829,563.6557737999829,563.6397175999591,f,1.426898799953051,0.21576790005201474,563.6397705000127,563.6397818999831,None,,,,,,,,,,,,,,00023,001,2026-01-20_17h20.47.244,MST_task,2024.2.0,60.033090246702386,2026-01-20 17h20.54.597714 +0530,
,Scenes\176a.jpg,119,0,120,,,,,j,0.7689201000030152,0.22400180000113323,None,,,,,,120,0,119,563.6557737999829,,,,,,,,,,,,,,,,,,,,,,,563.6398674999946,563.6557737999829,564.1617970999796,564.1393543999875,,,,,,,,,,,,,,,,,,,,,,564.1595022999682,564.1617970999796,564.1617970999796,564.1617970999796,,,,567.1561591000063,j,0.7689201000030152,0.22400180000113323,567.1562192999991,567.1562314999755,None,,,,,,,,,,,,,,00023,001,2026-01-20_17h20.47.244,MST_task,2024.2.0,60.033090246702386,2026-01-20 17h20.54.597714 +0530,
,Scenes\074a.jpg,120,0,121,,,,,j,1.874703299952671,0.19923850003397092,None,,,,,,121,0,120,567.1724715000018,,,,,,,,,,,,,,,,,,,,,,,567.1563024999923,567.1724715000018,567.6726461999933,567.6562009999761,,,,,,,,,,,,,,,,,,,,,,567.6645437999978,567.6726461999933,567.6726461999933,567.6726461999933,570.6725200999645,570.6725200999645,570.6725200999645,570.6566600999795,j,1.874703299952671,0.19923850003397092,570.656731199997,570.6567433999735,None,,,,,,,,,,,,,,00023,001,2026-01-20_17h20.47.244,MST_task,2024.2.0,60.033090246702386,2026-01-20 17h20.54.597714 +0530,
,Scenes\011a.jpg,121,0,122,,,,,j,1.1734793999930844,0.18332539999391884,None,,,,,,122,0,121,570.6725200999645,,,,,,,,,,,,,,,,,,,,,,,570.6568371999892,570.6725200999645,571.1732118999935,571.1560767999617,,,,,,,,,,,,,,,,,,,,,,571.1682412999799,571.1732118999935,571.1732118999935,571.1732118999935,574.1725638000062,574.1725638000062,574.1725638000062,574.1564410999999,j,1.1734793999930844,0.18332539999391884,574.1564913999755,574.1565027000033,None,,,,,,,,,,,,,,00023,001,2026-01-20_17h20.47.244,MST_task,2024.2.0,60.033090246702386,2026-01-20 17h20.54.597714 +0530,
,Scenes\109a.jpg,122,0,123,,,,,j,1.5772498999722302,0.17600020003737882,None,,,,,,123,0,122,574.1725638000062,,,,,,,,,,,,,,,,,,,,,,,574.1565849999897,574.1725638000062,574.6728892999818,574.6560609999578,,,,,,,,,,,,,,,,,,,,,,574.6635157999699,574.6728892999818,574.6728892999818,574.6728892999818,577.6724948000046,577.6724948000046,577.6724948000046,577.6566604999825,j,1.5772498999722302,0.17600020003737882,577.6567179999547,577.6567309999955,None,,,,,,,,,,,,,,00023,001,2026-01-20_17h20.47.244,MST_task,2024.2.0,60.033090246702386,2026-01-20 17h20.54.597714 +0530,
,Scenes\120a.jpg,123,0,124,,,,,j,1.1409482000162825,0.15208679996430874,None,,,,,,124,0,123,577.6724948000046,,,,,,,,,,,,,,,,,,,,,,,577.6567994999932,577.6724948000046,578.1733473999775,578.1560280999984,,,,,,,,,,,,,,,,,,,,,,578.1644678000011,578.1733473999775,578.1733473999775,578.1733473999775,581.1725669999723,581.1725669999723,581.1725669999723,581.1564204999595,j,1.1409482000162825,0.15208679996430874,581.1564701999887,581.1564816999598,None,,,,,,,,,,,,,,00023,001,2026-01-20_17h20.47.244,MST_task,2024.2.0,60.033090246702386,2026-01-20 17h20.54.597714 +0530,
,Scenes\065a.jpg,124,0,125,,,,,j,0.7455988999572583,0.19281580002279952,None,,,,,,125,0,124,581.1725669999723,,,,,,,,,,,,,,,,,,,,,,,581.1565648000105,581.1725669999723,581.6732710999786,581.6561905999552,,,,,,,,,,,,,,,,,,,,,,581.6623778999783,581.6732710999786,581.6732710999786,581.6732710999786,584.6725639000069,584.6725639000069,584.6725639000069,584.6564418000053,j,0.7455988999572583,0.19281580002279952,584.6564933999907,584.6565053999657,None,,,,,,,,,,,,,,00023,001,2026-01-20_17h20.47.244,MST_task,2024.2.0,60.033090246702386,2026-01-20 17h20.54.597714 +0530,
,Scenes\146a.jpg,125,0,126,,,,,j,0.7237702000420541,0.19095660001039505,None,,,,,,126,0,125,584.6725639000069,,,,,,,,,,,,,,,,,,,,,,,584.6565897999681,584.6725639000069,585.17593019997,585.1560954999877,,,,,,,,,,,,,,,,,,,,,,585.1734666999546,585.17593019997,585.17593019997,585.17593019997,,,,588.1726229999913,j,0.7237702000420541,0.19095660001039505,588.1726904999814,588.1727042999701,None,,,,,,,,,,,,,,00023,001,2026-01-20_17h20.47.244,MST_task,2024.2.0,60.033090246702386,2026-01-20 17h20.54.597714 +0530,
,Objects\001a.jpg,126,0,127,,,,,f,2.1136126999626867,0.1997620000038296,None,,,,,,127,0,126,588.1891469999682,,,,,,,,,,,,,,,,,,,,,,,588.1728092999547,588.1891469999682,588.6896584999631,588.6727141999872,,,,,,,,,,,,,,,,,,,,,,588.675854799978,588.6896584999631,588.6896584999631,588.6896584999631,591.6892731999978,591.6892731999978,591.6892731999978,591.6729304000037,f,2.1136126999626867,0.1997620000038296,591.672981199983,591.6729923000094,None,,,,,,,,,,,,,,00023,001,2026-01-20_17h20.47.244,MST_task,2024.2.0,60.033090246702386,2026-01-20 17h20.54.597714 +0530,
,Objects\033a.jpg,127,0,128,,,,,f,1.013732000021264,0.21529159997589886,None,,,,,,128,0,127,591.6892731999978,,,,,,,,,,,,,,,,,,,,,,,591.6730560999713,591.6892731999978,592.189514299971,592.1727241000044,,,,,,,,,,,,,,,,,,,,,,592.182134600007,592.189514299971,592.189514299971,592.189514299971,595.1892420999939,595.1892420999939,595.1892420999939,595.1730525000021,f,1.013732000021264,0.21529159997589886,595.1731056999997,595.1731166999671,None,,,,,,,,,,,,,,00023,001,2026-01-20_17h20.47.244,MST_task,2024.2.0,60.033090246702386,2026-01-20 17h20.54.597714 +0530,
,Objects\147a.jpg,128,0,129,,,,,f,0.7774027999839745,0.20846769999479875,None,,,,,,129,0,128,595.1892420999939,,,,,,,,,,,,,,,,,,,,,,,595.1731861999724,595.1892420999939,595.6893440999556,595.6726539999945,,,,,,,,,,,,,,,,,,,,,,595.6754046999849,595.6893440999556,595.6893440999556,595.6893440999556,598.6891017999733,598.6891017999733,598.6891017999733,598.6730650999816,f,0.7774027999839745,0.20846769999479875,598.6731251999736,598.6731370000052,None,,,,,,,,,,,,,,00023,001,2026-01-20_17h20.47.244,MST_task,2024.2.0,60.033090246702386,2026-01-20 17h20.54.597714 +0530,
,Objects\032a.jpg,129,0,130,,,,,j,0.7095734999747947,0.28753789997426793,None,,,,,,130,0,129,598.6891017999733,,,,,,,,,,,,,,,,,,,,,,,598.6732039999915,598.6891017999733,599.1893751999596,599.1727580999723,,,,,,,,,,,,,,,,,,,,,,599.175207399996,599.1893751999596,599.1893751999596,599.1893751999596,602.1891464999644,602.1891464999644,602.1891464999644,602.1730858999654,j,0.7095734999747947,0.28753789997426793,602.1731372000067,602.1731478999718,None,,,,,,,,,,,,,,00023,001,2026-01-20_17h20.47.244,MST_task,2024.2.0,60.033090246702386,2026-01-20 17h20.54.597714 +0530,
,Objects\072a.jpg,130,0,131,,,,,f,1.2888450000318699,0.22423130000242963,None,,,,,,131,0,130,602.1891464999644,,,,,,,,,,,,,,,,,,,,,,,602.1732324999757,602.1891464999644,602.689443399955,602.6726240999997,,,,,,,,,,,,,,,,,,,,,,602.6826674999902,602.689443399955,602.689443399955,602.689443399955,605.6892217999557,605.6892217999557,605.6892217999557,605.6732610999607,f,1.2888450000318699,0.22423130000242963,605.6733295999584,605.6733424999984,None,,,,,,,,,,,,,,00023,001,2026-01-20_17h20.47.244,MST_task,2024.2.0,60.033090246702386,2026-01-20 17h20.54.597714 +0530,
,Objects\108a.jpg,131,0,132,,,,,j,1.7877860000007786,0.29573059995891526,None,,,,,,132,0,131,605.6892217999557,,,,,,,,,,,,,,,,,,,,,,,605.6734131999547,605.6892217999557,606.1905346999993,606.1729130999884,,,,,,,,,,,,,,,,,,,,,,606.1838755999925,606.1905346999993,606.1905346999993,606.1905346999993,,,,609.1893326999852,j,1.7877860000007786,0.29573059995891526,609.1893942999886,609.1894067999674,None,,,,,,,,,,,,,,00023,001,2026-01-20_17h20.47.244,MST_task,2024.2.0,60.033090246702386,2026-01-20 17h20.54.597714 +0530,
,Objects\173a.jpg,132,0,133,,,,,f,1.4480065999669023,0.2004373000236228,None,,,,,,133,0,132,609.2057522999821,,,,,,,,,,,,,,,,,,,,,,,609.1894995999755,609.2057522999821,609.7061017999658,609.6894644999993,,,,,,,,,,,,,,,,,,,,,,609.6921956999577,609.7061017999658,609.7061017999658,609.7061017999658,,,,612.6894753999659,f,1.4480065999669023,0.2004373000236228,612.6895267000073,612.6895386999822,None,,,,,,,,,,,,,,00023,001,2026-01-20_17h20.47.244,MST_task,2024.2.0,60.033090246702386,2026-01-20 17h20.54.597714 +0530,
,Scenes\015a.jpg,133,0,134,,,,,j,0.9719574999762699,0.20809850003570318,None,,,,,,134,0,133,612.7059616000042,,,,,,,,,,,,,,,,,,,,,,,612.6896260000067,612.7059616000042,613.2064304999658,613.1896987999789,,,,,,,,,,,,,,,,,,,,,,613.201447999978,613.2064304999658,613.2064304999658,613.2064304999658,616.2058691999991,616.2058691999991,616.2058691999991,616.1897601999808,j,0.9719574999762699,0.20809850003570318,616.1898198999697,616.1898317000014,None,,,,,,,,,,,,,,00023,001,2026-01-20_17h20.47.244,MST_task,2024.2.0,60.033090246702386,2026-01-20 17h20.54.597714 +0530,
,Scenes\097a.jpg,134,0,135,,,,,None,,,j,0.5688813999877311,None,,,,135,0,134,616.2058691999991,,,,,,,,,,,,,,,,,,,,,,,616.189919699973,616.2058691999991,616.7064040999976,616.6893635999877,,,,,,,,,,,,,,,,,,,,,,616.6921700999956,616.7064040999976,616.7064040999976,616.7064040999976,619.7057896999759,619.7057896999759,619.7057896999759,619.689740700007,None,,,619.6897940000053,620.2896686999593,j,619.7057896999759,619.7057896999759,0.5688813999877311,None,,,,,,,,,,00023,001,2026-01-20_17h20.47.244,MST_task,2024.2.0,60.033090246702386,2026-01-20 17h20.54.597714 +0530,
,Scenes\147a.jpg,135,0,136,,,,,j,0.9490729000535794,0.1986914999433793,None,,,,,,136,0,135,620.3058119000052,,,,,,,,,,,,,,,,,,,,,,,620.2897896000068,620.3058119000052,620.8062426999677,620.7895893999957,,,,,,,,,,,,,,,,,,,,,,620.7953804999706,620.8062426999677,620.8062426999677,620.8062426999677,623.8058693999774,623.8058693999774,623.8058693999774,623.7897953999927,j,0.9490729000535794,0.1986914999433793,623.7898486999911,623.7898607999668,None,,,,,,,,,,,,,,00023,001,2026-01-20_17h20.47.244,MST_task,2024.2.0,60.033090246702386,2026-01-20 17h20.54.597714 +0530,
,Scenes\089a.jpg,136,0,137,,,,,j,1.2084639000240713,0.20823559997370467,None,,,,,,137,0,136,623.8058693999774,,,,,,,,,,,,,,,,,,,,,,,623.7899552999879,623.8058693999774,624.3064426999772,624.2893846000079,,,,,,,,,,,,,,,,,,,,,,624.3017759000068,624.3064426999772,624.3064426999772,624.3064426999772,627.3057340999949,627.3057340999949,627.3057340999949,627.28972229996,j,1.2084639000240713,0.20823559997370467,627.2897741000052,627.2897853999748,None,,,,,,,,,,,,,,00023,001,2026-01-20_17h20.47.244,MST_task,2024.2.0,60.033090246702386,2026-01-20 17h20.54.597714 +0530,
,Scenes\141a.jpg,137,0,138,,,,,j,0.8678456000052392,0.1850233000004664,None,,,,,,138,0,137,627.3057340999949,,,,,,,,,,,,,,,,,,,,,,,627.2898548999801,627.3057340999949,627.8063003999996,627.7893928000121,,,,,,,,,,,,,,,,,,,,,,627.7946531999623,627.8063003999996,627.8063003999996,627.8063003999996,630.805762199976,630.805762199976,630.805762199976,630.7900126999593,j,0.8678456000052392,0.1850233000004664,630.7900722000049,630.7900841999799,None,,,,,,,,,,,,,,00023,001,2026-01-20_17h20.47.244,MST_task,2024.2.0,60.033090246702386,2026-01-20 17h20.54.597714 +0530,
,Scenes\161a.jpg,138,0,139,,,,,j,0.936618100036867,0.19252509996294975,None,,,,,,139,0,138,630.805762199976,,,,,,,,,,,,,,,,,,,,,,,630.7901724000112,630.805762199976,631.3063691999996,631.2897024999838,,,,,,,,,,,,,,,,,,,,,,631.2999953000108,631.3063691999996,631.3063691999996,631.3063691999996,634.3057221999625,634.3057221999625,634.3057221999625,634.2896961999941,j,0.936618100036867,0.19252509996294975,634.289747599978,634.2897593000089,None,,,,,,,,,,,,,,00023,001,2026-01-20_17h20.47.244,MST_task,2024.2.0,60.033090246702386,2026-01-20 17h20.54.597714 +0530,
,Scenes\124a.jpg,139,0,140,,,,,j,1.4025811000028625,0.22419059998355806,None,,,,,,140,0,139,634.3057221999625,,,,,,,,,,,,,,,,,,,,,,,634.2898455999675,634.3057221999625,634.8077067999984,634.7893743999884,,,,,,,,,,,,,,,,,,,,,,634.8052158000064,634.8077067999984,634.8077067999984,634.8077067999984,,,,637.80608879996,j,1.4025811000028625,0.22419059998355806,637.8061571999569,637.8061710000038,None,,,,,,,,,,,,,,00023,001,2026-01-20_17h20.47.244,MST_task,2024.2.0,60.033090246702386,2026-01-20 17h20.54.597714 +0530,
,Objects\150a.jpg,140,0,141,,,,,f,2.327787199988961,0.26337390003027394,None,,,,,,141,0,140,637.8223349999753,,,,,,,,,,,,,,,,,,,,,,,637.8062679999857,637.8223349999753,638.3228948999895,638.3060810999596,,,,,,,,,,,,,,,,,,,,,,638.3098885999643,638.3228948999895,638.3228948999895,638.3228948999895,641.3223208999843,641.3223208999843,641.3223208999843,641.3064460000023,f,2.327787199988961,0.26337390003027394,641.3064957999741,641.3065074000042,None,,,,,,,,,,,,,,00023,001,2026-01-20_17h20.47.244,MST_task,2024.2.0,60.033090246702386,2026-01-20 17h20.54.597714 +0530,
,Objects\128a.jpg,141,0,142,,,,,f,1.996952000015881,0.25638639996759593,None,,,,,,142,0,141,641.3223208999843,,,,,,,,,,,,,,,,,,,,,,,641.3065723999753,641.3223208999843,641.8226190999849,641.8060770999873,,,,,,,,,,,,,,,,,,,,,,641.8086631000042,641.8226190999849,641.8226190999849,641.8226190999849,644.8224972999888,644.8224972999888,644.8224972999888,644.8065611000056,f,1.996952000015881,0.25638639996759593,644.8066255999729,644.8066379000084,None,,,,,,,,,,,,,,00023,001,2026-01-20_17h20.47.244,MST_task,2024.2.0,60.033090246702386,2026-01-20 17h20.54.597714 +0530,
,Objects\120a.jpg,142,0,143,,,,,f,1.2402279999805614,0.1919018000480719,None,,,,,,143,0,142,644.8224972999888,,,,,,,,,,,,,,,,,,,,,,,644.8067078999593,644.8224972999888,645.322517499968,645.3060222999775,,,,,,,,,,,,,,,,,,,,,,645.315574600012,645.322517499968,645.322517499968,645.322517499968,648.32240309997,648.32240309997,648.32240309997,648.3062571999617,f,1.2402279999805614,0.1919018000480719,648.3063095000107,648.3063210999826,None,,,,,,,,,,,,,,00023,001,2026-01-20_17h20.47.244,MST_task,2024.2.0,60.033090246702386,2026-01-20 17h20.54.597714 +0530,
,Objects\119a.jpg,143,0,144,,,,,None,,,f,0.5327697999891825,None,,,,144,0,143,648.32240309997,,,,,,,,,,,,,,,,,,,,,,,648.3063855000073,648.32240309997,648.8226129999966,648.8062922999961,,,,,,,,,,,,,,,,,,,,,,648.8089194999775,648.8226129999966,648.8226129999966,648.8226129999966,651.8224958999781,651.8224958999781,651.8224958999781,651.8066695999587,None,,,651.806734999991,652.3561396999867,f,651.8224958999781,651.8224958999781,0.5327697999891825,None,,,,,,,,,,00023,001,2026-01-20_17h20.47.244,MST_task,2024.2.0,60.033090246702386,2026-01-20 17h20.54.597714 +0530,
,Objects\133a.jpg,144,0,145,,,,,j,1.6979102999903262,0.17709750001085922,None,,,,,,145,0,144,652.3722837999812,,,,,,,,,,,,,,,,,,,,,,,652.3562657999573,652.3722837999812,652.8724615999963,652.8560410999926,,,,,,,,,,,,,,,,,,,,,,652.8587608999806,652.8724615999963,652.8724615999963,652.8724615999963,,,,655.856250199955,j,1.6979102999903262,0.17709750001085922,655.8563207999687,655.856335599965,None,,,,,,,,,,,,,,00023,001,2026-01-20_17h20.47.244,MST_task,2024.2.0,60.033090246702386,2026-01-20 17h20.54.597714 +0530,
,Objects\038a.jpg,145,0,146,,,,,f,0.8297837999998592,0.2077108999947086,None,,,,,,146,0,145,655.8725506999763,,,,,,,,,,,,,,,,,,,,,,,655.8564082999947,655.8725506999763,656.3733760999748,656.3565250000102,,,,,,,,,,,,,,,,,,,,,,656.3595949999872,656.3733760999748,656.3733760999748,656.3733760999748,659.3722905999748,659.3722905999748,659.3722905999748,659.3564122999669,f,0.8297837999998592,0.2077108999947086,659.3564732999657,659.3564852999989,None,,,,,,,,,,,,,,00023,001,2026-01-20_17h20.47.244,MST_task,2024.2.0,60.033090246702386,2026-01-20 17h20.54.597714 +0530,
,Objects\009a.jpg,146,0,147,,,,,f,0.9465045999968424,0.17563450004672632,None,,,,,,147,0,146,659.3722905999748,,,,,,,,,,,,,,,,,,,,,,,659.3565776000032,659.3722905999748,659.8725582999759,659.8560959000024,,,,,,,,,,,,,,,,,,,,,,659.8659659000114,659.8725582999759,659.8725582999759,659.8725582999759,662.8723976999754,662.8723976999754,662.8723976999754,662.8563056999701,f,0.9465045999968424,0.17563450004672632,662.8563574999571,662.8563685999834,None,,,,,,,,,,,,,,00023,001,2026-01-20_17h20.47.244,MST_task,2024.2.0,60.033090246702386,2026-01-20 17h20.54.597714 +0530,
,Scenes\023a.jpg,147,0,148,,,,,f,1.4290269000339322,0.2005970999598503,None,,,,,,148,0,147,662.8723976999754,,,,,,,,,,,,,,,,,,,,,,,662.8564323000028,662.8723976999754,663.373248799995,663.3560495999991,,,,,,,,,,,,,,,,,,,,,,663.3684771999833,663.373248799995,663.373248799995,663.373248799995,666.372333999956,666.372333999956,666.372333999956,666.3565804999671,f,1.4290269000339322,0.2005970999598503,666.3566433999804,666.3566547000082,None,,,,,,,,,,,,,,00023,001,2026-01-20_17h20.47.244,MST_task,2024.2.0,60.033090246702386,2026-01-20 17h20.54.597714 +0530,
,Scenes\051a.jpg,148,0,149,,,,,j,0.8659974999609403,0.2556514000170864,None,,,,,,149,0,148,666.372333999956,,,,,,,,,,,,,,,,,,,,,,,666.3567499999772,666.372333999956,666.8729961999925,666.8562751999707,,,,,,,,,,,,,,,,,,,,,,666.8625162999961,666.8729961999925,666.8729961999925,666.8729961999925,669.8723796999548,669.8723796999548,669.8723796999548,669.8565413999604,j,0.8659974999609403,0.2556514000170864,669.856602899963,669.8566147999954,None,,,,,,,,,,,,,,00023,001,2026-01-20_17h20.47.244,MST_task,2024.2.0,60.033090246702386,2026-01-20 17h20.54.597714 +0530,
,Scenes\182a.jpg,149,0,150,,,,,f,1.6132217000122182,0.24046480003744364,None,,,,,,150,0,149,669.8723796999548,,,,,,,,,,,,,,,,,,,,,,,669.8567133999895,669.8723796999548,670.37296899996,670.3559979999554,,,,,,,,,,,,,,,,,,,,,,670.3628404999617,670.37296899996,670.37296899996,670.37296899996,673.3723373999819,673.3723373999819,673.3723373999819,673.3564075999893,f,1.6132217000122182,0.24046480003744364,673.3564593999763,673.3564707000041,None,,,,,,,,,,,,,,00023,001,2026-01-20_17h20.47.244,MST_task,2024.2.0,60.033090246702386,2026-01-20 17h20.54.597714 +0530,
,Scenes\022a.jpg,150,0,151,,,,,j,1.0580973000032827,0.21557699999539182,None,,,,,,151,0,150,673.3723373999819,,,,,,,,,,,,,,,,,,,,,,,673.3565364999813,673.3723373999819,673.8730301999603,673.8560510000098,,,,,,,,,,,,,,,,,,,,,,673.8669978000107,673.8730301999603,673.8730301999603,673.8730301999603,676.8724647999625,676.8724647999625,676.8724647999625,676.8565707000089,j,1.0580973000032827,0.21557699999539182,676.8566344999708,676.8566472000093,None,,,,,,,,,,,,,,00023,001,2026-01-20_17h20.47.244,MST_task,2024.2.0,60.033090246702386,2026-01-20 17h20.54.597714 +0530,
,Scenes\003a.jpg,151,0,152,,,,,f,1.2692886000149883,0.15998789999866858,None,,,,,,152,0,151,676.8724647999625,,,,,,,,,,,,,,,,,,,,,,,676.8567568999715,676.8724647999625,677.3728379000095,677.3563097000006,,,,,,,,,,,,,,,,,,,,,,677.3667761000106,677.3728379000095,677.3728379000095,677.3728379000095,680.3722879000125,680.3722879000125,680.3722879000125,680.3563000999857,f,1.2692886000149883,0.15998789999866858,680.3563632000005,680.3563746999716,None,,,,,,,,,,,,,,00023,001,2026-01-20_17h20.47.244,MST_task,2024.2.0,60.033090246702386,2026-01-20 17h20.54.597714 +0530,
,Scenes\025a.jpg,152,0,153,,,,,j,2.274169599986635,0.21568780002417043,None,,,,,,153,0,152,680.3722879000125,,,,,,,,,,,,,,,,,,,,,,,680.3564634000068,680.3722879000125,680.8729541999637,680.856042600004,,,,,,,,,,,,,,,,,,,,,,680.8680465999641,680.8729541999637,680.8729541999637,680.8729541999637,683.8724888999714,683.8724888999714,683.8724888999714,683.8563246999984,j,2.274169599986635,0.21568780002417043,683.8563777999952,683.8563889999641,None,,,,,,,,,,,,,,00023,001,2026-01-20_17h20.47.244,MST_task,2024.2.0,60.033090246702386,2026-01-20 17h20.54.597714 +0530,
,Scenes\027a.jpg,153,0,154,,,,,f,1.1092901999945752,0.20009050000226125,None,,,,,,154,0,153,683.8724888999714,,,,,,,,,,,,,,,,,,,,,,,683.856456599955,683.8724888999714,684.3730072999606,684.3563935999991,,,,,,,,,,,,,,,,,,,,,,684.3631909000105,684.3730072999606,684.3730072999606,684.3730072999606,687.3725741999806,687.3725741999806,687.3725741999806,687.3563519999734,f,1.1092901999945752,0.20009050000226125,687.3564032999566,687.3564149999875,None,,,,,,,,,,,,,,00023,001,2026-01-20_17h20.47.244,MST_task,2024.2.0,60.033090246702386,2026-01-20 17h20.54.597714 +0530,
,Objects\143a.jpg,154,0,155,,,,,j,1.7133052000426687,0.17655159998685122,None,,,,,,155,0,154,687.3725741999806,,,,,,,,,,,,,,,,,,,,,,,687.3564809999662,687.3725741999806,687.8728397999657,687.8561532999738,,,,,,,,,,,,,,,,,,,,,,687.8593354999903,687.8728397999657,687.8728397999657,687.8728397999657,690.8724233999965,690.8724233999965,690.8724233999965,690.8566769000026,j,1.7133052000426687,0.17655159998685122,690.8567473999574,690.8567602999974,None,,,,,,,,,,,,,,00023,001,2026-01-20_17h20.47.244,MST_task,2024.2.0,60.033090246702386,2026-01-20 17h20.54.597714 +0530,
,Objects\066a.jpg,155,0,156,,,,,j,1.5020065000280738,0.19199560000561178,None,,,,,,156,0,155,690.8724233999965,,,,,,,,,,,,,,,,,,,,,,,690.8568325999659,690.8724233999965,691.3728217000025,691.3561348000076,,,,,,,,,,,,,,,,,,,,,,691.3682726999978,691.3728217000025,691.3728217000025,691.3728217000025,694.3725394000066,694.3725394000066,694.3725394000066,694.3563686999842,j,1.5020065000280738,0.19199560000561178,694.3564195999643,694.3564307999914,None,,,,,,,,,,,,,,00023,001,2026-01-20_17h20.47.244,MST_task,2024.2.0,60.033090246702386,2026-01-20 17h20.54.597714 +0530,
,Objects\083a.jpg,156,0,157,,,,,f,0.9541405999916606,0.23997549997875467,None,,,,,,157,0,156,694.3725394000066,,,,,,,,,,,,,,,,,,,,,,,694.3564970999723,694.3725394000066,694.8727290999959,694.8561663999571,,,,,,,,,,,,,,,,,,,,,,694.8589994999929,694.8727290999959,694.8727290999959,694.8727290999959,697.8724641999579,697.8724641999579,697.8724641999579,697.8564702000003,f,0.9541405999916606,0.23997549997875467,697.8565243000048,697.8565387999988,None,,,,,,,,,,,,,,00023,001,2026-01-20_17h20.47.244,MST_task,2024.2.0,60.033090246702386,2026-01-20 17h20.54.597714 +0530,
,Objects\151a.jpg,157,0,158,,,,,f,1.9014849999803118,0.15991970000322908,None,,,,,,158,0,157,697.8724641999579,,,,,,,,,,,,,,,,,,,,,,,697.8566054999828,697.8724641999579,698.3726678999956,698.3561479999917,,,,,,,,,,,,,,,,,,,,,,698.3661887999624,698.3726678999956,698.3726678999956,698.3726678999956,701.3723353999667,701.3723353999667,701.3723353999667,701.3564327000058,f,1.9014849999803118,0.15991970000322908,701.3564948999556,701.3565073999926,None,,,,,,,,,,,,,,00023,001,2026-01-20_17h20.47.244,MST_task,2024.2.0,60.033090246702386,2026-01-20 17h20.54.597714 +0530,
,Objects\086a.jpg,158,0,159,,,,,None,,,f,0.009497400023974478,None,,,,159,0,158,701.3723353999667,,,,,,,,,,,,,,,,,,,,,,,701.356575599988,701.3723353999667,701.8728199999896,701.85606739996,,,,,,,,,,,,,,,,,,,,,,701.8657144999597,701.8728199999896,701.8728199999896,701.8728199999896,704.872589799983,704.872589799983,704.872589799983,704.856440100004,None,,,704.8564888999681,704.8896047999733,f,704.872589799983,704.872589799983,0.009497400023974478,None,,,,,,,,,,00023,001,2026-01-20_17h20.47.244,MST_task,2024.2.0,60.033090246702386,2026-01-20 17h20.54.597714 +0530,
,Objects\169a.jpg,159,0,160,,,,,j,1.3647113000042737,0.19235579995438457,None,,,,,,160,0,159,704.9058940999676,,,,,,,,,,,,,,,,,,,,,,,704.8897141999914,704.9058940999676,705.4059830000042,705.3893649000092,,,,,,,,,,,,,,,,,,,,,,705.3919653999619,705.4059830000042,705.4059830000042,705.4059830000042,708.4059078999562,708.4059078999562,708.4059078999562,708.3899072000058,j,1.3647113000042737,0.19235579995438457,708.38997259998,708.3899848999572,None,,,,,,,,,,,,,,00023,001,2026-01-20_17h20.47.244,MST_task,2024.2.0,60.033090246702386,2026-01-20 17h20.54.597714 +0530,
,Objects\084a.jpg,160,0,161,,,,,f,1.2880187000264414,0.18399410002166405,None,,,,,,161,0,160,708.4059078999562,,,,,,,,,,,,,,,,,,,,,,,708.3900560999755,708.4059078999562,708.9062136999564,708.8894982999773,,,,,,,,,,,,,,,,,,,,,,708.8922392000095,708.9062136999564,708.9062136999564,708.9062136999564,711.9058029999724,711.9058029999724,711.9058029999724,711.8897455999977,f,1.2880187000264414,0.18399410002166405,711.8898089999566,711.889821299992,None,,,,,,,,,,,,,,00023,001,2026-01-20_17h20.47.244,MST_task,2024.2.0,60.033090246702386,2026-01-20 17h20.54.597714 +0530,
