thisN,thisTrialN,thisRepN,key_resp_3.keys,key_resp_3.rt,key_resp_3.duration,trials.thisRepN,trials.thisTrialN,trials.thisN,thisRow.t,notes,intro_page.started,text.started,key_resp.started,intro_page.stopped,key_resp.keys,key_resp.rt,key_resp.duration,instructions.started,text_2.started,key_resp_2.started,instructions.stopped,key_resp_2.keys,key_resp_2.rt,key_resp_2.duration,demo1.started,image_1.started,image_2.started,text_7.started,key_resp_6.started,text_9.started,demo1.stopped,key_resp_6.keys,key_resp_6.rt,key_resp_6.duration,demo2.started,image_5.started,image_6.started,text_11.started,text_12.started,key_resp_8.started,demo2.stopped,key_resp_8.keys,key_resp_8.rt,key_resp_8.duration,demo_conclusion.started,text_13.started,key_resp_9.started,demo_conclusion.stopped,key_resp_9.keys,key_resp_9.rt,key_resp_9.duration,start_test.started,text_6.started,key_resp_5.started,start_test.stopped,key_resp_5.keys,key_resp_5.rt,key_resp_5.duration,ISI.started,text_4.started,text_4.stopped,ISI.stopped,routine_1.started,image.started,text_3.started,key_resp_3.started,routine_1.stopped,image_path,position_of_stimuli,trials.key_resp_3.keys,trials.key_resp_3.rt,trials.key_resp_3.duration,End_page.started,text_5.started,key_resp_4.started,participant,session,date,expName,psychopyVersion,frameRate,expStart,
,,,,,,,,,,,0.0012022000009892508,0.0028846999921370298,0.0028846999921370298,5.658381699991878,space,5.635294299994712,None,,,,,,,,,,,,,,,,,,,,,,,,,,,,,,,,,,,,,,,,,,,,,,,,,,,,,,,,,,,00025,001,2026-01-20_19h32.59.931,MST_test,2024.2.0,59.986634977217975,2026-01-20 19h33.07.588164 +0530,
,,,,,,,,,,,,,,,,,,5.658457099998486,5.669693999996525,5.669693999996525,18.951697600001353,space,13.272456500009866,None,,,,,,,,,,,,,,,,,,,,,,,,,,,,,,,,,,,,,,,,,,,,,,,,,,,,00025,001,2026-01-20_19h32.59.931,MST_test,2024.2.0,59.986634977217975,2026-01-20 19h33.07.588164 +0530,
,,,,,,,,,,,,,,,,,,,,,,,,,18.951806800003396,18.993062699999427,18.993062699999427,18.993062699999427,18.993062699999427,18.993062699999427,25.201978899989626,space,6.205090000003111,None,,,,,,,,,,,,,,,,,,,,,,,,,,,,,,,,,,,,,,,,,,00025,001,2026-01-20_19h32.59.931,MST_test,2024.2.0,59.986634977217975,2026-01-20 19h33.07.588164 +0530,
,,,,,,,,,,,,,,,,,,,,,,,,,,,,,,,,,,,25.2020843999926,25.2182221999974,25.2182221999974,25.2182221999974,25.2182221999974,25.2182221999974,29.43513840000378,space,4.203366799993091,None,,,,,,,,,,,,,,,,,,,,,,,,,,,,,,,,00025,001,2026-01-20_19h32.59.931,MST_test,2024.2.0,59.986634977217975,2026-01-20 19h33.07.588164 +0530,
,,,,,,,,,,,,,,,,,,,,,,,,,,,,,,,,,,,,,,,,,,,,,29.43524959999195,29.451013600002625,29.451013600002625,46.484623600001214,space,17.027143800005433,None,,,,,,,,,,,,,,,,,,,,,,,,,00025,001,2026-01-20_19h32.59.931,MST_test,2024.2.0,59.986634977217975,2026-01-20 19h33.07.588164 +0530,
,,,,,,,,,,,,,,,,,,,,,,,,,,,,,,,,,,,,,,,,,,,,,,,,,,,,46.48473899999226,46.50081519999367,46.50081519999367,97.31846339999174,space,50.80941429999075,None,,,,,,,,,,,,,,,,,,00025,001,2026-01-20_19h32.59.931,MST_test,2024.2.0,59.986634977217975,2026-01-20 19h33.07.588164 +0530,
0,0,1,s,2.4114465000020573,None,1,0,0,97.33440690000134,,,,,,,,,,,,,,,,,,,,,,,,,,,,,,,,,,,,,,,,,,,,,,,,,,97.328016200001,97.33440690000134,97.83391919999849,97.81821289999061,97.83172459999332,97.83391919999849,97.83391919999849,97.83391919999849,100.2517927000008,Objects\151b.jpg,mid,s,2.4114465000020573,None,,,,00025,001,2026-01-20_19h32.59.931,MST_test,2024.2.0,59.986634977217975,2026-01-20 19h33.07.588164 +0530,
1,0,2,o,2.2940654999983963,None,2,0,1,100.26780359999975,,,,,,,,,,,,,,,,,,,,,,,,,,,,,,,,,,,,,,,,,,,,,,,,,,100.25215759999992,100.26780359999975,100.7680171999964,100.75151580000238,100.76524169999175,100.7680171999964,100.7680171999964,100.7680171999964,103.06849890000012,Scenes\191a.jpg,post,o,2.2940654999983963,None,,,,00025,001,2026-01-20_19h32.59.931,MST_test,2024.2.0,59.986634977217975,2026-01-20 19h33.07.588164 +0530,
2,0,3,n,1.8128087000077358,None,3,0,2,103.08439519999956,,,,,,,,,,,,,,,,,,,,,,,,,,,,,,,,,,,,,,,,,,,,,,,,,,103.06889059999958,103.08439519999956,103.58453989999543,103.56820769999467,103.57947260000219,103.58453989999543,103.58453989999543,103.58453989999543,105.40185690000362,Foils\scenes30.jpg,none,n,1.8128087000077358,None,,,,00025,001,2026-01-20_19h32.59.931,MST_test,2024.2.0,59.986634977217975,2026-01-20 19h33.07.588164 +0530,
3,0,4,n,1.7835825999936787,None,4,0,3,105.41781749999791,,,,,,,,,,,,,,,,,,,,,,,,,,,,,,,,,,,,,,,,,,,,,,,,,,105.40221649999148,105.41781749999791,105.9181482999993,105.90136239999265,105.90710739999486,105.9181482999993,105.9181482999993,105.9181482999993,107.71851489999972,Foils\042a.jpg,none,n,1.7835825999936787,None,,,,00025,001,2026-01-20_19h32.59.931,MST_test,2024.2.0,59.986634977217975,2026-01-20 19h33.07.588164 +0530,
4,0,5,s,2.4915390000096522,None,5,0,4,107.73442039999645,,,,,,,,,,,,,,,,,,,,,,,,,,,,,,,,,,,,,,,,,,,,,,,,,,107.71892459999071,107.73442039999645,108.23482990000048,108.2181869999913,108.2252429999935,108.23482990000048,108.23482990000048,108.23482990000048,110.73508589999983,Foils\scenes29.jpg,none,s,2.4915390000096522,None,,,,00025,001,2026-01-20_19h32.59.931,MST_test,2024.2.0,59.986634977217975,2026-01-20 19h33.07.588164 +0530,
5,0,6,o,3.1060170999990078,None,6,0,5,110.75095139999758,,,,,,,,,,,,,,,,,,,,,,,,,,,,,,,,,,,,,,,,,,,,,,,,,,110.73547259999032,110.75095139999758,111.25188359999447,111.2344895999995,111.24412859999575,111.25188359999447,111.25188359999447,111.25188359999447,114.36847419998958,Objects\133a.jpg,post,o,3.1060170999990078,None,,,,00025,001,2026-01-20_19h32.59.931,MST_test,2024.2.0,59.986634977217975,2026-01-20 19h33.07.588164 +0530,
6,0,7,n,1.5609441999986302,None,7,0,6,114.38423119999061,,,,,,,,,,,,,,,,,,,,,,,,,,,,,,,,,,,,,,,,,,,,,,,,,,114.36882930000138,114.38423119999061,114.88464249999379,114.86826190000284,114.874470499999,114.88464249999379,114.88464249999379,114.88464249999379,116.45167100000253,Foils\098a.jpg,none,n,1.5609441999986302,None,,,,00025,001,2026-01-20_19h32.59.931,MST_test,2024.2.0,59.986634977217975,2026-01-20 19h33.07.588164 +0530,
7,0,8,n,2.7337633999995887,None,8,0,7,116.46778949999134,,,,,,,,,,,,,,,,,,,,,,,,,,,,,,,,,,,,,,,,,,,,,,,,,,116.45211899999413,116.46778949999134,116.96781829999236,116.95155030000024,116.95856839999033,116.96781829999236,116.96781829999236,116.96781829999236,119.71851109999989,Foils\086a.jpg,none,n,2.7337633999995887,None,,,,00025,001,2026-01-20_19h32.59.931,MST_test,2024.2.0,59.986634977217975,2026-01-20 19h33.07.588164 +0530,
8,0,9,o,1.9836627999902703,None,9,0,8,119.73442470000009,,,,,,,,,,,,,,,,,,,,,,,,,,,,,,,,,,,,,,,,,,,,,,,,,,119.71889570000349,119.73442470000009,120.24606320000021,120.21824799999013,120.24371589999646,120.24606320000021,120.24606320000021,120.24606320000021,122.23484029999236,Scenes\149a.jpg,post,o,1.9836627999902703,None,,,,00025,001,2026-01-20_19h32.59.931,MST_test,2024.2.0,59.986634977217975,2026-01-20 19h33.07.588164 +0530,
9,0,10,o,1.3658113999990746,None,10,0,9,122.25115509999159,,,,,,,,,,,,,,,,,,,,,,,,,,,,,,,,,,,,,,,,,,,,,,,,,,122.2352275000012,122.25115509999159,122.75165289999859,122.73507579999568,122.74908939999295,122.75165289999859,122.75165289999859,122.75165289999859,124.11863939999603,Scenes\144a.jpg,post,o,1.3658113999990746,None,,,,00025,001,2026-01-20_19h32.59.931,MST_test,2024.2.0,59.986634977217975,2026-01-20 19h33.07.588164 +0530,
10,0,11,n,1.9629834000079427,None,11,0,10,124.1344165999908,,,,,,,,,,,,,,,,,,,,,,,,,,,,,,,,,,,,,,,,,,,,,,,,,,124.11899799999082,124.1344165999908,124.635017099994,124.61821819999022,124.62693169999693,124.635017099994,124.635017099994,124.635017099994,126.60158849999425,Foils\010a.jpg,none,n,1.9629834000079427,None,,,,00025,001,2026-01-20_19h32.59.931,MST_test,2024.2.0,59.986634977217975,2026-01-20 19h33.07.588164 +0530,
11,0,12,s,1.793154399987543,None,12,0,11,126.61776660000032,,,,,,,,,,,,,,,,,,,,,,,,,,,,,,,,,,,,,,,,,,,,,,,,,,126.60197429999243,126.61776660000032,127.12425619999703,127.10153629998968,127.12161289999494,127.12425619999703,127.12425619999703,127.12425619999703,128.917901599998,Foils\scenes22.jpg,none,s,1.793154399987543,None,,,,00025,001,2026-01-20_19h32.59.931,MST_test,2024.2.0,59.986634977217975,2026-01-20 19h33.07.588164 +0530,
12,0,13,o,1.4533133000077214,None,13,0,12,128.93402760000026,,,,,,,,,,,,,,,,,,,,,,,,,,,,,,,,,,,,,,,,,,,,,,,,,,128.9182290000026,128.93402760000026,,129.41910449998977,129.43756340000255,129.44054450000112,129.44054450000112,129.44054450000112,130.9017862000037,Scenes\084a.jpg,pre,o,1.4533133000077214,None,,,,00025,001,2026-01-20_19h32.59.931,MST_test,2024.2.0,59.986634977217975,2026-01-20 19h33.07.588164 +0530,
13,0,14,o,1.7073267999949167,None,14,0,13,130.91783359998954,,,,,,,,,,,,,,,,,,,,,,,,,,,,,,,,,,,,,,,,,,,,,,,,,,130.90213849999418,130.91783359998954,131.41802820000157,131.40145330000087,131.41146269999444,131.41802820000157,131.41802820000157,131.41802820000157,133.1346576999931,Foils\066a.jpg,none,o,1.7073267999949167,None,,,,00025,001,2026-01-20_19h32.59.931,MST_test,2024.2.0,59.986634977217975,2026-01-20 19h33.07.588164 +0530,
14,0,15,n,2.665847500000382,None,15,0,14,133.15071010000247,,,,,,,,,,,,,,,,,,,,,,,,,,,,,,,,,,,,,,,,,,,,,,,,,,133.13498989999061,133.15071010000247,133.65158249999513,133.6348020000005,133.64222500000324,133.65158249999513,133.65158249999513,133.65158249999513,136.31824999999662,Foils\scenes20.jpg,none,n,2.665847500000382,None,,,,00025,001,2026-01-20_19h32.59.931,MST_test,2024.2.0,59.986634977217975,2026-01-20 19h33.07.588164 +0530,
15,0,16,o,1.4904678000020795,None,16,0,15,136.33441860000312,,,,,,,,,,,,,,,,,,,,,,,,,,,,,,,,,,,,,,,,,,,,,,,,,,136.3186044999893,136.33441860000312,136.83553280000342,136.81825630000094,136.83116600000358,136.83553280000342,136.83553280000342,136.83553280000342,138.33476189999783,Scenes\172a.jpg,pre,o,1.4904678000020795,None,,,,00025,001,2026-01-20_19h32.59.931,MST_test,2024.2.0,59.986634977217975,2026-01-20 19h33.07.588164 +0530,
16,0,17,o,1.8577038000075845,None,17,0,16,138.35083250000025,,,,,,,,,,,,,,,,,,,,,,,,,,,,,,,,,,,,,,,,,,,,,,,,,,138.33514129999094,138.35083250000025,138.85169349999342,138.83479490000173,138.84374579999712,138.85169349999342,138.85169349999342,138.85169349999342,140.71850609999092,Objects\148a.jpg,mid,o,1.8577038000075845,None,,,,00025,001,2026-01-20_19h32.59.931,MST_test,2024.2.0,59.986634977217975,2026-01-20 19h33.07.588164 +0530,
17,0,18,o,1.5873467000055825,None,18,0,17,140.734466599999,,,,,,,,,,,,,,,,,,,,,,,,,,,,,,,,,,,,,,,,,,,,,,,,,,140.71889589999046,140.734466599999,141.23462439999275,141.2182102999941,141.2266743999935,141.23462439999275,141.23462439999275,141.23462439999275,142.83486459999403,Objects\125a.jpg,post,o,1.5873467000055825,None,,,,00025,001,2026-01-20_19h32.59.931,MST_test,2024.2.0,59.986634977217975,2026-01-20 19h33.07.588164 +0530,
18,0,19,o,1.1637759000004735,None,19,0,18,142.85095569999248,,,,,,,,,,,,,,,,,,,,,,,,,,,,,,,,,,,,,,,,,,,,,,,,,,142.83522039999662,142.85095569999248,143.35365449999517,143.33485879999353,143.35117589999572,143.35365449999517,143.35365449999517,143.35365449999517,144.5186304999952,Scenes\183a.jpg,mid,o,1.1637759000004735,None,,,,00025,001,2026-01-20_19h32.59.931,MST_test,2024.2.0,59.986634977217975,2026-01-20 19h33.07.588164 +0530,
19,0,20,o,0.9704181999986758,None,20,0,19,144.5344286000036,,,,,,,,,,,,,,,,,,,,,,,,,,,,,,,,,,,,,,,,,,,,,,,,,,144.51898369999253,144.5344286000036,145.03492179999012,145.01820939999016,145.0277664000023,145.03492179999012,145.03492179999012,145.03492179999012,146.01810909999767,Objects\145a.jpg,mid,o,0.9704181999986758,None,,,,00025,001,2026-01-20_19h32.59.931,MST_test,2024.2.0,59.986634977217975,2026-01-20 19h33.07.588164 +0530,
20,0,21,s,1.5594235000025947,None,21,0,20,146.034322099993,,,,,,,,,,,,,,,,,,,,,,,,,,,,,,,,,,,,,,,,,,,,,,,,,,146.01845849999518,146.034322099993,146.5345576999971,146.51825989999634,146.52731249999488,146.5345576999971,146.5345576999971,146.5345576999971,148.10186369999428,Objects\139b.jpg,mid,s,1.5594235000025947,None,,,,00025,001,2026-01-20_19h32.59.931,MST_test,2024.2.0,59.986634977217975,2026-01-20 19h33.07.588164 +0530,
21,0,22,o,0.9393038999987766,None,22,0,21,148.11752810000326,,,,,,,,,,,,,,,,,,,,,,,,,,,,,,,,,,,,,,,,,,,,,,,,,,148.1023109999951,148.11752810000326,148.61803620000137,148.60155249999661,148.60974369999894,148.61803620000137,148.61803620000137,148.61803620000137,149.56848639999225,Objects\170a.jpg,pre,o,0.9393038999987766,None,,,,00025,001,2026-01-20_19h32.59.931,MST_test,2024.2.0,59.986634977217975,2026-01-20 19h33.07.588164 +0530,
22,0,23,o,1.0055489000078524,None,23,0,22,149.58406259999902,,,,,,,,,,,,,,,,,,,,,,,,,,,,,,,,,,,,,,,,,,,,,,,,,,149.5688436999917,149.58406259999902,150.0884553999931,150.0683280999947,150.08499639999354,150.0884553999931,150.0884553999931,150.0884553999931,151.10179139999673,Scenes\052a.jpg,post,o,1.0055489000078524,None,,,,00025,001,2026-01-20_19h32.59.931,MST_test,2024.2.0,59.986634977217975,2026-01-20 19h33.07.588164 +0530,
23,0,24,o,0.8669438999932026,None,24,0,23,151.11780890000227,,,,,,,,,,,,,,,,,,,,,,,,,,,,,,,,,,,,,,,,,,,,,,,,,,151.10214170000108,151.11780890000227,151.61837260000175,151.60154829999374,151.609684199997,151.61837260000175,151.61837260000175,151.61837260000175,152.50185549999878,Objects\192a.jpg,mid,o,0.8669438999932026,None,,,,00025,001,2026-01-20_19h32.59.931,MST_test,2024.2.0,59.986634977217975,2026-01-20 19h33.07.588164 +0530,
24,0,25,n,2.059969699999783,None,25,0,24,152.5178326000023,,,,,,,,,,,,,,,,,,,,,,,,,,,,,,,,,,,,,,,,,,,,,,,,,,152.5022394999978,152.5178326000023,153.01800129999174,153.0015696999908,153.01048479999008,153.01800129999174,153.01800129999174,153.01800129999174,155.08517249999568,Foils\017a.jpg,none,n,2.059969699999783,None,,,,00025,001,2026-01-20_19h32.59.931,MST_test,2024.2.0,59.986634977217975,2026-01-20 19h33.07.588164 +0530,
25,0,26,n,1.9487105000007432,None,26,0,25,155.10086140000203,,,,,,,,,,,,,,,,,,,,,,,,,,,,,,,,,,,,,,,,,,,,,,,,,,155.08552629999758,155.10086140000203,,155.58542209998996,155.59185009999783,155.60137910000049,155.60137910000049,155.60137910000049,157.55202760000248,Foils\073a.jpg,none,n,1.9487105000007432,None,,,,00025,001,2026-01-20_19h32.59.931,MST_test,2024.2.0,59.986634977217975,2026-01-20 19h33.07.588164 +0530,
26,0,27,o,1.1699762000062037,None,27,0,26,157.5677888999926,,,,,,,,,,,,,,,,,,,,,,,,,,,,,,,,,,,,,,,,,,,,,,,,,,157.55249419999018,157.5677888999926,158.06802900000184,158.0512030999962,158.05724699998973,158.06802900000184,158.06802900000184,158.06802900000184,159.25178900000174,Objects\157a.jpg,mid,o,1.1699762000062037,None,,,,00025,001,2026-01-20_19h32.59.931,MST_test,2024.2.0,59.986634977217975,2026-01-20 19h33.07.588164 +0530,
27,0,28,o,1.1703867000032915,None,28,0,27,159.26780619999045,,,,,,,,,,,,,,,,,,,,,,,,,,,,,,,,,,,,,,,,,,,,,,,,,,159.2521424000006,159.26780619999045,159.77101830000174,159.75155099999392,159.76853390000178,159.77101830000174,159.77101830000174,159.77101830000174,160.95188130000315,Scenes\026b.jpg,post,o,1.1703867000032915,None,,,,00025,001,2026-01-20_19h32.59.931,MST_test,2024.2.0,59.986634977217975,2026-01-20 19h33.07.588164 +0530,
28,0,29,o,1.146221199989668,None,29,0,28,160.96780329999456,,,,,,,,,,,,,,,,,,,,,,,,,,,,,,,,,,,,,,,,,,,,,,,,,,160.95228820000193,160.96780329999456,161.49113480000233,161.45157160000235,161.4887552,161.49113480000233,161.49113480000233,161.49113480000233,162.65180779999355,Objects\181b.jpg,pre,o,1.146221199989668,None,,,,00025,001,2026-01-20_19h32.59.931,MST_test,2024.2.0,59.986634977217975,2026-01-20 19h33.07.588164 +0530,
29,0,30,o,1.3717710000055376,None,30,0,29,162.66781040000205,,,,,,,,,,,,,,,,,,,,,,,,,,,,,,,,,,,,,,,,,,,,,,,,,,162.65217020000273,162.66781040000205,163.1702290999965,163.1515603000007,163.16787959999056,163.1702290999965,163.1702290999965,163.1702290999965,164.55186839999806,Scenes\104b.jpg,mid,o,1.3717710000055376,None,,,,00025,001,2026-01-20_19h32.59.931,MST_test,2024.2.0,59.986634977217975,2026-01-20 19h33.07.588164 +0530,
30,0,31,s,1.6558642000018153,None,31,0,30,164.56783669999277,,,,,,,,,,,,,,,,,,,,,,,,,,,,,,,,,,,,,,,,,,,,,,,,,,164.55225949999294,164.56783669999277,165.07015800000227,165.05155760000343,165.06769429999986,165.07015800000227,165.07015800000227,165.07015800000227,166.7347146999964,Scenes\055a.jpg,pre,s,1.6558642000018153,None,,,,00025,001,2026-01-20_19h32.59.931,MST_test,2024.2.0,59.986634977217975,2026-01-20 19h33.07.588164 +0530,
31,0,32,n,3.1660775000054855,None,32,0,31,166.75117039999168,,,,,,,,,,,,,,,,,,,,,,,,,,,,,,,,,,,,,,,,,,,,,,,,,,166.73510479999823,166.75117039999168,167.27947019999556,167.23447899999155,167.27701309999975,167.27947019999556,167.27947019999556,167.27947019999556,170.45169639999222,Scenes\187b.jpg,post,n,3.1660775000054855,None,,,,00025,001,2026-01-20_19h32.59.931,MST_test,2024.2.0,59.986634977217975,2026-01-20 19h33.07.588164 +0530,
32,0,33,o,1.2532477000058861,None,33,0,32,170.46765700000105,,,,,,,,,,,,,,,,,,,,,,,,,,,,,,,,,,,,,,,,,,,,,,,,,,170.45214999999735,170.46765700000105,170.96825569999055,170.951550999991,170.96059010000317,170.96825569999055,170.96825569999055,170.96825569999055,172.2350710000028,Objects\008a.jpg,post,o,1.2532477000058861,None,,,,00025,001,2026-01-20_19h32.59.931,MST_test,2024.2.0,59.986634977217975,2026-01-20 19h33.07.588164 +0530,
33,0,34,o,2.3105741000035778,None,34,0,33,172.2511031999893,,,,,,,,,,,,,,,,,,,,,,,,,,,,,,,,,,,,,,,,,,,,,,,,,,172.23542359999556,172.2511031999893,172.75139409999247,172.73482469998999,172.74343190000218,172.75139409999247,172.75139409999247,172.75139409999247,175.06875789999322,Objects\011b.jpg,mid,o,2.3105741000035778,None,,,,00025,001,2026-01-20_19h32.59.931,MST_test,2024.2.0,59.986634977217975,2026-01-20 19h33.07.588164 +0530,
34,0,35,o,1.291180100000929,None,35,0,34,175.08440710000286,,,,,,,,,,,,,,,,,,,,,,,,,,,,,,,,,,,,,,,,,,,,,,,,,,175.06911919999402,175.08440710000286,175.5867436999979,175.56827239999257,175.5835139999981,175.5867436999979,175.5867436999979,175.5867436999979,176.88499039999442,Scenes\129a.jpg,mid,o,1.291180100000929,None,,,,00025,001,2026-01-20_19h32.59.931,MST_test,2024.2.0,59.986634977217975,2026-01-20 19h33.07.588164 +0530,
35,0,36,s,2.547898399992846,None,36,0,35,176.90087389999826,,,,,,,,,,,,,,,,,,,,,,,,,,,,,,,,,,,,,,,,,,,,,,,,,,176.88535080000293,176.90087389999826,177.43413969999528,177.38482079999812,177.43168090000108,177.43413969999528,177.43413969999528,177.43413969999528,179.98506199999247,Scenes\157b.jpg,pre,s,2.547898399992846,None,,,,00025,001,2026-01-20_19h32.59.931,MST_test,2024.2.0,59.986634977217975,2026-01-20 19h33.07.588164 +0530,
36,0,37,o,2.73584180000762,None,37,0,36,180.0010856000008,,,,,,,,,,,,,,,,,,,,,,,,,,,,,,,,,,,,,,,,,,,,,,,,,,179.98543210000207,180.0010856000008,180.50151319999713,180.4849392999895,180.49485629999253,180.50151319999713,180.50151319999713,180.50151319999713,183.25172369999927,Objects\178b.jpg,post,o,2.73584180000762,None,,,,00025,001,2026-01-20_19h32.59.931,MST_test,2024.2.0,59.986634977217975,2026-01-20 19h33.07.588164 +0530,
37,0,38,o,0.9215468999900622,None,38,0,37,183.2677979,,,,,,,,,,,,,,,,,,,,,,,,,,,,,,,,,,,,,,,,,,,,,,,,,,183.2520755000005,183.2677979,183.7732670999976,183.75151439999172,183.77081329999783,183.7732670999976,183.7732670999976,183.7732670999976,184.70151649999025,Scenes\159a.jpg,pre,o,0.9215468999900622,None,,,,00025,001,2026-01-20_19h32.59.931,MST_test,2024.2.0,59.986634977217975,2026-01-20 19h33.07.588164 +0530,
38,0,39,n,2.658640399997239,None,39,0,38,184.7178367000015,,,,,,,,,,,,,,,,,,,,,,,,,,,,,,,,,,,,,,,,,,,,,,,,,,184.70188939999207,184.7178367000015,185.24280809999618,185.2013411999942,185.2399557000026,185.24280809999618,185.24280809999618,185.24280809999618,187.91851619999215,Foils\026a.jpg,none,n,2.658640399997239,None,,,,00025,001,2026-01-20_19h32.59.931,MST_test,2024.2.0,59.986634977217975,2026-01-20 19h33.07.588164 +0530,
39,0,40,s,2.3878916000103345,None,40,0,39,187.93449919999694,,,,,,,,,,,,,,,,,,,,,,,,,,,,,,,,,,,,,,,,,,,,,,,,,,187.9189187000011,187.93449919999694,188.47407289998955,188.41822140000295,188.47126489999937,188.47407289998955,188.47407289998955,188.47407289998955,190.8684416999895,Scenes\088b.jpg,pre,s,2.3878916000103345,None,,,,00025,001,2026-01-20_19h32.59.931,MST_test,2024.2.0,59.986634977217975,2026-01-20 19h33.07.588164 +0530,
40,0,41,s,1.5793933999957517,None,41,0,40,190.8843704000028,,,,,,,,,,,,,,,,,,,,,,,,,,,,,,,,,,,,,,,,,,,,,,,,,,190.86885129999428,190.8843704000028,191.41060930000094,191.36789959999442,191.4077610999957,191.41060930000094,191.41060930000094,191.41060930000094,193.00185149999743,Scenes\150b.jpg,post,s,1.5793933999957517,None,,,,00025,001,2026-01-20_19h32.59.931,MST_test,2024.2.0,59.986634977217975,2026-01-20 19h33.07.588164 +0530,
41,0,42,o,1.6255616999987978,None,42,0,41,193.0178428999934,,,,,,,,,,,,,,,,,,,,,,,,,,,,,,,,,,,,,,,,,,,,,,,,,,193.0022348999919,193.0178428999934,193.5237153999915,193.50160340000002,193.520989800003,193.5237153999915,193.5237153999915,193.5237153999915,195.15143050000188,Scenes\115a.jpg,post,o,1.6255616999987978,None,,,,00025,001,2026-01-20_19h32.59.931,MST_test,2024.2.0,59.986634977217975,2026-01-20 19h33.07.588164 +0530,
42,0,43,o,2.121132700005546,None,43,0,42,195.16756849999365,,,,,,,,,,,,,,,,,,,,,,,,,,,,,,,,,,,,,,,,,,,,,,,,,,195.15179999999236,195.16756849999365,195.66829309999594,195.65160499999183,195.66061710000213,195.66829309999594,195.66829309999594,195.66829309999594,197.8017525999894,Objects\185b.jpg,pre,o,2.121132700005546,None,,,,00025,001,2026-01-20_19h32.59.931,MST_test,2024.2.0,59.986634977217975,2026-01-20 19h33.07.588164 +0530,
43,0,44,o,1.4474577000073623,None,44,0,43,197.81760880000365,,,,,,,,,,,,,,,,,,,,,,,,,,,,,,,,,,,,,,,,,,,,,,,,,,197.80213759999606,197.81760880000365,198.31828969999333,198.30155930000183,198.31427679999615,198.31828969999333,198.31828969999333,198.31828969999333,199.76827709999634,Scenes\039a.jpg,mid,o,1.4474577000073623,None,,,,00025,001,2026-01-20_19h32.59.931,MST_test,2024.2.0,59.986634977217975,2026-01-20 19h33.07.588164 +0530,
44,0,45,s,2.8409443000127794,None,45,0,44,199.78428929999063,,,,,,,,,,,,,,,,,,,,,,,,,,,,,,,,,,,,,,,,,,,,,,,,,,199.76869889999216,199.78428929999063,200.2850066999963,200.2681603999954,200.2769050999923,200.2850066999963,200.2850066999963,200.2850066999963,203.13511730000027,Objects\048b.jpg,post,s,2.8409443000127794,None,,,,00025,001,2026-01-20_19h32.59.931,MST_test,2024.2.0,59.986634977217975,2026-01-20 19h33.07.588164 +0530,
45,0,46,o,1.3025614000071073,None,46,0,45,203.15116880000278,,,,,,,,,,,,,,,,,,,,,,,,,,,,,,,,,,,,,,,,,,,,,,,,,,203.1355096999905,203.15116880000278,203.67131289999816,203.63492119999137,203.66929930000333,203.67131289999816,203.67131289999816,203.67131289999816,204.98519900000247,Objects\110b.jpg,pre,o,1.3025614000071073,None,,,,00025,001,2026-01-20_19h32.59.931,MST_test,2024.2.0,59.986634977217975,2026-01-20 19h33.07.588164 +0530,
46,0,47,n,3.1142477999965195,None,47,0,46,205.00118009999278,,,,,,,,,,,,,,,,,,,,,,,,,,,,,,,,,,,,,,,,,,,,,,,,,,204.9856798999972,205.00118009999278,,205.48550609999802,205.51369779999368,205.5156527999934,205.5156527999934,205.5156527999934,208.6351849999919,Objects\049b.jpg,pre,n,3.1142477999965195,None,,,,00025,001,2026-01-20_19h32.59.931,MST_test,2024.2.0,59.986634977217975,2026-01-20 19h33.07.588164 +0530,
47,0,48,o,1.2086175000004005,None,48,0,47,208.65117620000092,,,,,,,,,,,,,,,,,,,,,,,,,,,,,,,,,,,,,,,,,,,,,,,,,,208.63559589999204,208.65117620000092,209.17267549999815,209.13490869999805,209.1702646999911,209.17267549999815,209.17267549999815,209.17267549999815,210.3848646999977,Scenes\091b.jpg,post,o,1.2086175000004005,None,,,,00025,001,2026-01-20_19h32.59.931,MST_test,2024.2.0,59.986634977217975,2026-01-20 19h33.07.588164 +0530,
48,0,49,s,1.5564522999920882,None,49,0,48,210.4011754999956,,,,,,,,,,,,,,,,,,,,,,,,,,,,,,,,,,,,,,,,,,,,,,,,,,210.38527719999547,210.4011754999956,210.9054746000038,210.88488539999526,210.90308309999818,210.9054746000038,210.9054746000038,210.9054746000038,212.4681447999901,Scenes\092b.jpg,post,s,1.5564522999920882,None,,,,00025,001,2026-01-20_19h32.59.931,MST_test,2024.2.0,59.986634977217975,2026-01-20 19h33.07.588164 +0530,
49,0,50,o,1.0850599999976112,None,50,0,49,212.48451569999452,,,,,,,,,,,,,,,,,,,,,,,,,,,,,,,,,,,,,,,,,,,,,,,,,,212.46852470000158,212.48451569999452,212.98472019999463,212.9680464999983,212.98202239999955,212.98472019999463,212.98472019999463,212.98472019999463,214.0855201999948,Scenes\180a.jpg,pre,o,1.0850599999976112,None,,,,00025,001,2026-01-20_19h32.59.931,MST_test,2024.2.0,59.986634977217975,2026-01-20 19h33.07.588164 +0530,
50,0,51,s,2.5406957999948645,None,51,0,50,214.10094499999832,,,,,,,,,,,,,,,,,,,,,,,,,,,,,,,,,,,,,,,,,,,,,,,,,,214.08590879999974,214.10094499999832,214.6012585999997,214.58488529999158,214.5939739000023,214.6012585999997,214.6012585999997,214.6012585999997,217.1518849999993,Scenes\118a.jpg,mid,s,2.5406957999948645,None,,,,00025,001,2026-01-20_19h32.59.931,MST_test,2024.2.0,59.986634977217975,2026-01-20 19h33.07.588164 +0530,
51,0,52,o,0.9434162999968976,None,52,0,51,217.1675918999972,,,,,,,,,,,,,,,,,,,,,,,,,,,,,,,,,,,,,,,,,,,,,,,,,,217.15226819999225,217.1675918999972,217.69393539999146,217.65149419999216,217.69100439999602,217.69393539999146,217.69393539999146,217.69393539999146,218.65181719999237,Scenes\114b.jpg,mid,o,0.9434162999968976,None,,,,00025,001,2026-01-20_19h32.59.931,MST_test,2024.2.0,59.986634977217975,2026-01-20 19h33.07.588164 +0530,
52,0,53,n,2.866359499996179,None,53,0,52,218.66778160000104,,,,,,,,,,,,,,,,,,,,,,,,,,,,,,,,,,,,,,,,,,,,,,,,,,218.6521955999924,218.66778160000104,219.17103929999575,219.15155519999098,219.16849349999393,219.17103929999575,219.17103929999575,219.17103929999575,222.05163619999075,Scenes\145a.jpg,mid,n,2.866359499996179,None,,,,00025,001,2026-01-20_19h32.59.931,MST_test,2024.2.0,59.986634977217975,2026-01-20 19h33.07.588164 +0530,
53,0,54,s,3.2773019000014756,None,54,0,53,222.0678295999969,,,,,,,,,,,,,,,,,,,,,,,,,,,,,,,,,,,,,,,,,,,,,,,,,,222.05201089999173,222.0678295999969,222.56867890000285,222.55151999999362,222.56094060000032,222.56867890000285,222.56867890000285,222.56867890000285,225.85179469999275,Objects\122a.jpg,pre,s,3.2773019000014756,None,,,,00025,001,2026-01-20_19h32.59.931,MST_test,2024.2.0,59.986634977217975,2026-01-20 19h33.07.588164 +0530,
54,0,55,s,2.694040300004417,None,55,0,54,225.8677813999966,,,,,,,,,,,,,,,,,,,,,,,,,,,,,,,,,,,,,,,,,,,,,,,,,,225.85218219998933,225.8677813999966,226.3679231999995,226.35131899999396,226.35872589999053,226.3679231999995,226.3679231999995,226.3679231999995,229.06832769999164,Foils\scenes19.jpg,none,s,2.694040300004417,None,,,,00025,001,2026-01-20_19h32.59.931,MST_test,2024.2.0,59.986634977217975,2026-01-20 19h33.07.588164 +0530,
55,0,56,o,1.7066656999959378,None,56,0,55,229.08452409999154,,,,,,,,,,,,,,,,,,,,,,,,,,,,,,,,,,,,,,,,,,,,,,,,,,229.06878999999026,229.08452409999154,229.61062989999482,229.5681876000017,229.6083104999998,229.61062989999482,229.61062989999482,229.61062989999482,231.31861649999337,Scenes\063b.jpg,post,o,1.7066656999959378,None,,,,00025,001,2026-01-20_19h32.59.931,MST_test,2024.2.0,59.986634977217975,2026-01-20 19h33.07.588164 +0530,
56,0,57,o,0.9050791000045137,None,57,0,56,231.33536810000078,,,,,,,,,,,,,,,,,,,,,,,,,,,,,,,,,,,,,,,,,,,,,,,,,,231.31900339999993,231.33536810000078,,231.83472919999622,231.84784590000345,231.8522026999999,231.8522026999999,231.8522026999999,232.7684455999988,Objects\030b.jpg,mid,o,0.9050791000045137,None,,,,00025,001,2026-01-20_19h32.59.931,MST_test,2024.2.0,59.986634977217975,2026-01-20 19h33.07.588164 +0530,
57,0,58,o,0.933444900001632,None,58,0,57,232.78431219999038,,,,,,,,,,,,,,,,,,,,,,,,,,,,,,,,,,,,,,,,,,,,,,,,,,232.76885089999996,232.78431219999038,233.28850149999198,233.26818220000132,233.28621930000372,233.28850149999198,233.28850149999198,233.28850149999198,234.23514789999172,Scenes\012a.jpg,mid,o,0.933444900001632,None,,,,00025,001,2026-01-20_19h32.59.931,MST_test,2024.2.0,59.986634977217975,2026-01-20 19h33.07.588164 +0530,
58,0,59,o,1.5452069999882951,None,59,0,58,234.25086319999536,,,,,,,,,,,,,,,,,,,,,,,,,,,,,,,,,,,,,,,,,,,,,,,,,,234.23553479999828,234.25086319999536,234.76423119999527,234.73470999998972,234.761076099996,234.76423119999527,234.76423119999527,234.76423119999527,236.31819999999425,Scenes\089a.jpg,mid,o,1.5452069999882951,None,,,,00025,001,2026-01-20_19h32.59.931,MST_test,2024.2.0,59.986634977217975,2026-01-20 19h33.07.588164 +0530,
59,0,60,s,1.5350409999955446,None,60,0,59,236.33450129999255,,,,,,,,,,,,,,,,,,,,,,,,,,,,,,,,,,,,,,,,,,,,,,,,,,236.31856639999023,236.33450129999255,236.83866519998992,236.81815369999094,236.83573569999135,236.83866519998992,236.83866519998992,236.83866519998992,238.38481770000362,Scenes\182b.jpg,mid,s,1.5350409999955446,None,,,,00025,001,2026-01-20_19h32.59.931,MST_test,2024.2.0,59.986634977217975,2026-01-20 19h33.07.588164 +0530,
60,0,61,o,0.8932571999903303,None,61,0,60,238.40118339999754,,,,,,,,,,,,,,,,,,,,,,,,,,,,,,,,,,,,,,,,,,,,,,,,,,238.3851738999947,238.40118339999754,238.92004080000333,238.88458349999564,238.9178302999935,238.92004080000333,238.92004080000333,238.92004080000333,239.81844909999927,Objects\025b.jpg,mid,o,0.8932571999903303,None,,,,00025,001,2026-01-20_19h32.59.931,MST_test,2024.2.0,59.986634977217975,2026-01-20 19h33.07.588164 +0530,
61,0,62,o,1.0414391000085743,None,62,0,61,239.8343443999911,,,,,,,,,,,,,,,,,,,,,,,,,,,,,,,,,,,,,,,,,,,,,,,,,,239.81883560000279,239.8343443999911,240.34921689999464,240.31812409999839,240.3471292000031,240.34921689999464,240.34921689999464,240.34921689999464,241.4015514999919,Objects\056b.jpg,pre,o,1.0414391000085743,None,,,,00025,001,2026-01-20_19h32.59.931,MST_test,2024.2.0,59.986634977217975,2026-01-20 19h33.07.588164 +0530,
62,0,63,o,0.8623775000014575,None,63,0,62,241.41751939999813,,,,,,,,,,,,,,,,,,,,,,,,,,,,,,,,,,,,,,,,,,,,,,,,,,241.40190810000058,241.41751939999813,241.91886389999127,241.9015531999903,241.9094677999965,241.91886389999127,241.91886389999127,241.91886389999127,242.78498669998953,Objects\006a.jpg,post,o,0.8623775000014575,None,,,,00025,001,2026-01-20_19h32.59.931,MST_test,2024.2.0,59.986634977217975,2026-01-20 19h33.07.588164 +0530,
63,0,64,s,1.9044733000046108,None,64,0,63,242.8009788999916,,,,,,,,,,,,,,,,,,,,,,,,,,,,,,,,,,,,,,,,,,,,,,,,,,242.78534149999905,242.8009788999916,243.30141990000266,243.28491639999265,243.2926177999907,243.30141990000266,243.30141990000266,243.30141990000266,245.21845129999565,Objects\042b.jpg,post,s,1.9044733000046108,None,,,,00025,001,2026-01-20_19h32.59.931,MST_test,2024.2.0,59.986634977217975,2026-01-20 19h33.07.588164 +0530,
64,0,65,o,1.7723154000123031,None,65,0,64,245.23437799999374,,,,,,,,,,,,,,,,,,,,,,,,,,,,,,,,,,,,,,,,,,,,,,,,,,245.2189115999936,245.23437799999374,245.7450286999956,245.71815509999578,245.74282469999162,245.7450286999956,245.7450286999956,245.7450286999956,247.51832069999364,Objects\161b.jpg,post,o,1.7723154000123031,None,,,,00025,001,2026-01-20_19h32.59.931,MST_test,2024.2.0,59.986634977217975,2026-01-20 19h33.07.588164 +0530,
65,0,66,s,1.1073902000061935,None,66,0,65,247.53427829999418,,,,,,,,,,,,,,,,,,,,,,,,,,,,,,,,,,,,,,,,,,,,,,,,,,247.518745399997,247.53427829999418,248.0345166999905,248.01772930000152,248.0251747000002,248.0345166999905,248.0345166999905,248.0345166999905,249.15179779999016,Objects\143b.jpg,pre,s,1.1073902000061935,None,,,,00025,001,2026-01-20_19h32.59.931,MST_test,2024.2.0,59.986634977217975,2026-01-20 19h33.07.588164 +0530,
66,0,67,s,2.600692300009541,None,67,0,66,249.16777279999224,,,,,,,,,,,,,,,,,,,,,,,,,,,,,,,,,,,,,,,,,,,,,,,,,,249.15215120000357,249.16777279999224,249.66873089999717,249.6513937999989,249.66642500000307,249.66873089999717,249.66873089999717,249.66873089999717,252.28512099999352,Scenes\127b.jpg,post,s,2.600692300009541,None,,,,00025,001,2026-01-20_19h32.59.931,MST_test,2024.2.0,59.986634977217975,2026-01-20 19h33.07.588164 +0530,
67,0,68,o,1.060510700001032,None,68,0,67,252.30115990000195,,,,,,,,,,,,,,,,,,,,,,,,,,,,,,,,,,,,,,,,,,,,,,,,,,252.2855045000033,252.30115990000195,252.8014056999964,252.78455450000183,252.79326809999475,252.8014056999964,252.8014056999964,252.8014056999964,253.86848089999694,Objects\009a.jpg,mid,o,1.060510700001032,None,,,,00025,001,2026-01-20_19h32.59.931,MST_test,2024.2.0,59.986634977217975,2026-01-20 19h33.07.588164 +0530,
68,0,69,o,0.89259379998839,None,69,0,68,253.88443920000282,,,,,,,,,,,,,,,,,,,,,,,,,,,,,,,,,,,,,,,,,,,,,,,,,,253.8688617000007,253.88443920000282,254.38470179999422,254.36813229999098,254.38188829999126,254.38470179999422,254.38470179999422,254.38470179999422,255.28549359999306,Scenes\075a.jpg,pre,o,0.89259379998839,None,,,,00025,001,2026-01-20_19h32.59.931,MST_test,2024.2.0,59.986634977217975,2026-01-20 19h33.07.588164 +0530,
69,0,70,s,1.5130695999978343,None,70,0,69,255.30083100000047,,,,,,,,,,,,,,,,,,,,,,,,,,,,,,,,,,,,,,,,,,,,,,,,,,255.28561349998927,255.30083100000047,255.82039909999003,255.7845604000031,255.8180990999972,255.82039909999003,255.82039909999003,255.82039909999003,257.33508799999254,Objects\095b.jpg,pre,s,1.5130695999978343,None,,,,00025,001,2026-01-20_19h32.59.931,MST_test,2024.2.0,59.986634977217975,2026-01-20 19h33.07.588164 +0530,
70,0,71,o,1.2580981999926735,None,71,0,70,257.35081649999483,,,,,,,,,,,,,,,,,,,,,,,,,,,,,,,,,,,,,,,,,,,,,,,,,,257.3354829000018,257.35081649999483,257.8513638000004,257.8345687999972,257.8429487999965,257.8513638000004,257.8513638000004,257.8513638000004,259.11840069999744,Objects\016b.jpg,mid,o,1.2580981999926735,None,,,,00025,001,2026-01-20_19h32.59.931,MST_test,2024.2.0,59.986634977217975,2026-01-20 19h33.07.588164 +0530,
71,0,72,o,0.858016400001361,None,72,0,71,259.1345069999952,,,,,,,,,,,,,,,,,,,,,,,,,,,,,,,,,,,,,,,,,,,,,,,,,,259.1187551999901,259.1345069999952,259.65188099999796,259.6181418999913,259.6497481999977,259.65188099999796,259.65188099999796,259.65188099999796,260.5181883999903,Objects\090b.jpg,pre,o,0.858016400001361,None,,,,00025,001,2026-01-20_19h32.59.931,MST_test,2024.2.0,59.986634977217975,2026-01-20 19h33.07.588164 +0530,
72,0,73,s,1.2048448999994434,None,73,0,72,260.5344974000036,,,,,,,,,,,,,,,,,,,,,,,,,,,,,,,,,,,,,,,,,,,,,,,,,,260.5185613999929,260.5344974000036,261.10507599999255,261.0177865000005,261.1025728999957,261.10507599999255,261.10507599999255,261.10507599999255,262.318429299994,Scenes\158b.jpg,post,s,1.2048448999994434,None,,,,00025,001,2026-01-20_19h32.59.931,MST_test,2024.2.0,59.986634977217975,2026-01-20 19h33.07.588164 +0530,
73,0,74,s,1.1926666000072146,None,74,0,73,262.33452930000203,,,,,,,,,,,,,,,,,,,,,,,,,,,,,,,,,,,,,,,,,,,,,,,,,,262.31886469999154,262.33452930000203,,262.81869259999075,262.8346506999951,262.8366435999924,262.8366435999924,262.8366435999924,264.03515529999277,Scenes\143a.jpg,mid,s,1.1926666000072146,None,,,,00025,001,2026-01-20_19h32.59.931,MST_test,2024.2.0,59.986634977217975,2026-01-20 19h33.07.588164 +0530,
74,0,75,s,2.606050599992159,None,75,0,74,264.0512061999907,,,,,,,,,,,,,,,,,,,,,,,,,,,,,,,,,,,,,,,,,,,,,,,,,,264.035512699993,264.0512061999907,264.551885199995,264.53488859999925,264.5462492999941,264.551885199995,264.551885199995,264.551885199995,267.16824800000177,Objects\004a.jpg,mid,s,2.606050599992159,None,,,,00025,001,2026-01-20_19h32.59.931,MST_test,2024.2.0,59.986634977217975,2026-01-20 19h33.07.588164 +0530,
75,0,76,n,1.209170100002666,None,76,0,75,267.18436620000284,,,,,,,,,,,,,,,,,,,,,,,,,,,,,,,,,,,,,,,,,,,,,,,,,,267.1684901999979,267.18436620000284,267.6847124999913,267.66818500000227,267.67606810000143,267.6847124999913,267.6847124999913,267.6847124999913,268.9018922999967,Foils\113a.jpg,none,n,1.209170100002666,None,,,,00025,001,2026-01-20_19h32.59.931,MST_test,2024.2.0,59.986634977217975,2026-01-20 19h33.07.588164 +0530,
76,0,77,n,1.1560433999984525,None,77,0,76,268.9177924999967,,,,,,,,,,,,,,,,,,,,,,,,,,,,,,,,,,,,,,,,,,,,,,,,,,268.90226750000147,268.9177924999967,269.41784349999216,269.40134039999975,269.4078012999962,269.41784349999216,269.41784349999216,269.41784349999216,270.5851374999911,Foils\058a.jpg,none,n,1.1560433999984525,None,,,,00025,001,2026-01-20_19h32.59.931,MST_test,2024.2.0,59.986634977217975,2026-01-20 19h33.07.588164 +0530,
77,0,78,n,1.024549299996579,None,78,0,77,270.60086809999484,,,,,,,,,,,,,,,,,,,,,,,,,,,,,,,,,,,,,,,,,,,,,,,,,,270.58549060000223,270.60086809999484,271.101327700002,271.08479320000333,271.0927062999981,271.101327700002,271.101327700002,271.101327700002,272.134894399991,Foils\106a.jpg,none,n,1.024549299996579,None,,,,00025,001,2026-01-20_19h32.59.931,MST_test,2024.2.0,59.986634977217975,2026-01-20 19h33.07.588164 +0530,
78,0,79,o,2.306584499994642,None,79,0,78,272.1511876000004,,,,,,,,,,,,,,,,,,,,,,,,,,,,,,,,,,,,,,,,,,,,,,,,,,272.13524649999454,272.1511876000004,272.6513586999936,272.63457129999006,272.6419751999929,272.6513586999936,272.6513586999936,272.6513586999936,274.96843959999387,Objects\038a.jpg,post,o,2.306584499994642,None,,,,00025,001,2026-01-20_19h32.59.931,MST_test,2024.2.0,59.986634977217975,2026-01-20 19h33.07.588164 +0530,
79,0,80,s,2.5438568999961717,None,80,0,79,274.98453639999207,,,,,,,,,,,,,,,,,,,,,,,,,,,,,,,,,,,,,,,,,,,,,,,,,,274.96882979999646,274.98453639999207,275.5093424999941,275.4681555999996,275.5069402999943,275.5093424999941,275.5093424999941,275.5093424999941,278.0685261999897,Scenes\077b.jpg,mid,s,2.5438568999961717,None,,,,00025,001,2026-01-20_19h32.59.931,MST_test,2024.2.0,59.986634977217975,2026-01-20 19h33.07.588164 +0530,
80,0,81,o,0.940731800001231,None,81,0,80,278.0843190000014,,,,,,,,,,,,,,,,,,,,,,,,,,,,,,,,,,,,,,,,,,,,,,,,,,278.06891170000017,278.0843190000014,278.5851064000017,278.56815469999856,278.57967229999485,278.5851064000017,278.5851064000017,278.5851064000017,279.53516610000224,Objects\166a.jpg,mid,o,0.940731800001231,None,,,,00025,001,2026-01-20_19h32.59.931,MST_test,2024.2.0,59.986634977217975,2026-01-20 19h33.07.588164 +0530,
81,0,82,o,1.205479700001888,None,82,0,81,279.55116659999476,,,,,,,,,,,,,,,,,,,,,,,,,,,,,,,,,,,,,,,,,,,,,,,,,,279.5355108999938,279.55116659999476,280.07214699999895,280.0349381999986,280.069699899992,280.07214699999895,280.07214699999895,280.07214699999895,281.28550909999467,Scenes\141b.jpg,post,o,1.205479700001888,None,,,,00025,001,2026-01-20_19h32.59.931,MST_test,2024.2.0,59.986634977217975,2026-01-20 19h33.07.588164 +0530,
82,0,83,s,1.4169880999979796,None,83,0,82,281.3009266000008,,,,,,,,,,,,,,,,,,,,,,,,,,,,,,,,,,,,,,,,,,,,,,,,,,281.28588039999886,281.3009266000008,281.8289317000017,281.7849334999919,281.82649669999955,281.8289317000017,281.8289317000017,281.8289317000017,283.2518892999942,Scenes\019b.jpg,mid,s,1.4169880999979796,None,,,,00025,001,2026-01-20_19h32.59.931,MST_test,2024.2.0,59.986634977217975,2026-01-20 19h33.07.588164 +0530,
83,0,84,o,2.1832310000027064,None,84,0,83,283.267775100001,,,,,,,,,,,,,,,,,,,,,,,,,,,,,,,,,,,,,,,,,,,,,,,,,,283.2522564999963,283.267775100001,283.77464869999676,283.75150260000373,283.77195799999754,283.77464869999676,283.77464869999676,283.77464869999676,285.9684186999948,Scenes\076a.jpg,pre,o,2.1832310000027064,None,,,,00025,001,2026-01-20_19h32.59.931,MST_test,2024.2.0,59.986634977217975,2026-01-20 19h33.07.588164 +0530,
84,0,85,s,1.1923017999943113,None,85,0,84,285.9845012000005,,,,,,,,,,,,,,,,,,,,,,,,,,,,,,,,,,,,,,,,,,,,,,,,,,285.9687632999994,285.9845012000005,286.48514160000195,286.46811600000365,286.4771793999971,286.48514160000195,286.48514160000195,286.48514160000195,287.6851433999982,Objects\078b.jpg,mid,s,1.1923017999943113,None,,,,00025,001,2026-01-20_19h32.59.931,MST_test,2024.2.0,59.986634977217975,2026-01-20 19h33.07.588164 +0530,
85,0,86,s,3.893349100006162,None,86,0,85,287.70083609998983,,,,,,,,,,,,,,,,,,,,,,,,,,,,,,,,,,,,,,,,,,,,,,,,,,287.68551670000306,287.70083609998983,288.20797489999677,288.18483669999114,288.2060368999955,288.20797489999677,288.20797489999677,288.20797489999677,292.118461399994,Objects\101b.jpg,mid,s,3.893349100006162,None,,,,00025,001,2026-01-20_19h32.59.931,MST_test,2024.2.0,59.986634977217975,2026-01-20 19h33.07.588164 +0530,
86,0,87,n,2.034368500011624,None,87,0,86,292.1345139999903,,,,,,,,,,,,,,,,,,,,,,,,,,,,,,,,,,,,,,,,,,,,,,,,,,292.11883559999114,292.1345139999903,292.6348416999972,292.61818569999014,292.62484859999677,292.6348416999972,292.6348416999972,292.6348416999972,294.6849033000035,Foils\scenes5.jpg,none,n,2.034368500011624,None,,,,00025,001,2026-01-20_19h32.59.931,MST_test,2024.2.0,59.986634977217975,2026-01-20 19h33.07.588164 +0530,
87,0,88,n,2.510357999999542,None,88,0,87,294.7008341999899,,,,,,,,,,,,,,,,,,,,,,,,,,,,,,,,,,,,,,,,,,,,,,,,,,294.68528229999356,294.7008341999899,295.2468735000002,295.18489379998937,295.2445374999952,295.2468735000002,295.2468735000002,295.2468735000002,297.7685302000027,Objects\033b.jpg,post,n,2.510357999999542,None,,,,00025,001,2026-01-20_19h32.59.931,MST_test,2024.2.0,59.986634977217975,2026-01-20 19h33.07.588164 +0530,
88,0,89,n,3.600467000011122,None,89,0,88,297.78445929999,,,,,,,,,,,,,,,,,,,,,,,,,,,,,,,,,,,,,,,,,,,,,,,,,,297.76893259999633,297.78445929999,298.3091207999969,298.2682676999975,298.3067023999902,298.3091207999969,298.3091207999969,298.3091207999969,301.9182707,Scenes\137b.jpg,mid,n,3.600467000011122,None,,,,00025,001,2026-01-20_19h32.59.931,MST_test,2024.2.0,59.986634977217975,2026-01-20 19h33.07.588164 +0530,
89,0,90,n,2.0662570999993477,None,90,0,89,301.93515150000167,,,,,,,,,,,,,,,,,,,,,,,,,,,,,,,,,,,,,,,,,,,,,,,,,,301.91864439999335,301.93515150000167,302.43498700000055,302.4182348000031,302.42636440000206,302.43498700000055,302.43498700000055,302.43498700000055,304.5018408999895,Objects\160b.jpg,pre,n,2.0662570999993477,None,,,,00025,001,2026-01-20_19h32.59.931,MST_test,2024.2.0,59.986634977217975,2026-01-20 19h33.07.588164 +0530,
90,0,91,s,5.340033900007256,None,91,0,90,304.517772399995,,,,,,,,,,,,,,,,,,,,,,,,,,,,,,,,,,,,,,,,,,,,,,,,,,304.50218219999806,304.517772399995,305.01785940000264,305.00133440000354,305.00985729999957,305.01785940000264,305.01785940000264,305.01785940000264,310.36851220000244,Objects\071a.jpg,post,s,5.340033900007256,None,,,,00025,001,2026-01-20_19h32.59.931,MST_test,2024.2.0,59.986634977217975,2026-01-20 19h33.07.588164 +0530,
91,0,92,s,1.2446767999936128,None,92,0,91,310.3840912000014,,,,,,,,,,,,,,,,,,,,,,,,,,,,,,,,,,,,,,,,,,,,,,,,,,310.36891299999843,310.3840912000014,310.920858700003,310.8682442999998,310.9186411999981,310.920858700003,310.920858700003,310.920858700003,312.16833990000305,Objects\158b.jpg,post,s,1.2446767999936128,None,,,,00025,001,2026-01-20_19h32.59.931,MST_test,2024.2.0,59.986634977217975,2026-01-20 19h33.07.588164 +0530,
92,0,93,s,2.3371926000108942,None,93,0,92,312.18418899999233,,,,,,,,,,,,,,,,,,,,,,,,,,,,,,,,,,,,,,,,,,,,,,,,,,312.1687130999926,312.18418899999233,312.6847071999946,312.66823509999085,312.6764339999936,312.6847071999946,312.6847071999946,312.6847071999946,315.03595510000014,Objects\177b.jpg,mid,s,2.3371926000108942,None,,,,00025,001,2026-01-20_19h32.59.931,MST_test,2024.2.0,59.986634977217975,2026-01-20 19h33.07.588164 +0530,
93,0,94,s,6.046953299999586,None,94,0,93,315.05107449999196,,,,,,,,,,,,,,,,,,,,,,,,,,,,,,,,,,,,,,,,,,,,,,,,,,315.03630779999366,315.05107449999196,315.5508906999894,315.5348929000029,315.54353280000214,315.5508906999894,315.5508906999894,315.5508906999894,321.60147139999026,Foils\034a.jpg,none,s,6.046953299999586,None,,,,00025,001,2026-01-20_19h32.59.931,MST_test,2024.2.0,59.986634977217975,2026-01-20 19h33.07.588164 +0530,
94,0,95,n,1.3217199000064284,None,95,0,94,321.6178455999907,,,,,,,,,,,,,,,,,,,,,,,,,,,,,,,,,,,,,,,,,,,,,,,,,,321.60182209999766,321.6178455999907,322.1235300999979,322.1015371999965,322.1206325999956,322.1235300999979,322.1235300999979,322.1235300999979,323.4516061000031,Foils\scenes28.jpg,none,n,1.3217199000064284,None,,,,00025,001,2026-01-20_19h32.59.931,MST_test,2024.2.0,59.986634977217975,2026-01-20 19h33.07.588164 +0530,
95,0,96,n,3.8570914000010816,None,96,0,95,323.46782269999676,,,,,,,,,,,,,,,,,,,,,,,,,,,,,,,,,,,,,,,,,,,,,,,,,,323.45195489999605,323.46782269999676,323.9885191999929,323.95092059999297,323.98557769999024,323.9885191999929,323.9885191999929,323.9885191999929,327.85180639999453,Objects\184b.jpg,post,n,3.8570914000010816,None,,,,00025,001,2026-01-20_19h32.59.931,MST_test,2024.2.0,59.986634977217975,2026-01-20 19h33.07.588164 +0530,
96,0,97,o,1.197776699991664,None,97,0,96,327.8678648999921,,,,,,,,,,,,,,,,,,,,,,,,,,,,,,,,,,,,,,,,,,,,,,,,,,327.8521815999993,327.8678648999921,328.3680432999972,328.3515478999907,328.3608540999994,328.3680432999972,328.3680432999972,328.3680432999972,329.5681331999949,Objects\084a.jpg,post,o,1.197776699991664,None,,,,00025,001,2026-01-20_19h32.59.931,MST_test,2024.2.0,59.986634977217975,2026-01-20 19h33.07.588164 +0530,
97,0,98,o,2.2877351000061026,None,98,0,97,329.584514999995,,,,,,,,,,,,,,,,,,,,,,,,,,,,,,,,,,,,,,,,,,,,,,,,,,329.5684818000009,329.584514999995,,330.06965520000085,330.07626619999064,330.08553029999894,330.08553029999894,330.08553029999894,332.385200299992,Objects\114b.jpg,mid,o,2.2877351000061026,None,,,,00025,001,2026-01-20_19h32.59.931,MST_test,2024.2.0,59.986634977217975,2026-01-20 19h33.07.588164 +0530,
98,0,99,o,1.0961584000033326,None,99,0,98,332.40113450000354,,,,,,,,,,,,,,,,,,,,,,,,,,,,,,,,,,,,,,,,,,,,,,,,,,332.38557279999077,332.40113450000354,332.9096783999994,332.88469929998973,332.9071791000024,332.9096783999994,332.9096783999994,332.9096783999994,334.0182053000026,Scenes\062a.jpg,mid,o,1.0961584000033326,None,,,,00025,001,2026-01-20_19h32.59.931,MST_test,2024.2.0,59.986634977217975,2026-01-20 19h33.07.588164 +0530,
99,0,100,s,1.1474962000065716,None,100,0,99,334.03493989999697,,,,,,,,,,,,,,,,,,,,,,,,,,,,,,,,,,,,,,,,,,,,,,,,,,334.0185518999933,334.03493989999697,334.53784299999825,334.51823459999287,334.5353766999906,334.53784299999825,334.53784299999825,334.53784299999825,335.7017710999935,Scenes\105a.jpg,pre,s,1.1474962000065716,None,,,,00025,001,2026-01-20_19h32.59.931,MST_test,2024.2.0,59.986634977217975,2026-01-20 19h33.07.588164 +0530,
100,0,101,n,1.65071970000281,None,101,0,100,335.71837139999843,,,,,,,,,,,,,,,,,,,,,,,,,,,,,,,,,,,,,,,,,,,,,,,,,,335.7021253999992,335.71837139999843,336.21842160000233,336.20152139999846,336.21117629999935,336.21842160000233,336.21842160000233,336.21842160000233,337.88529469999776,Foils\020b.jpg,none,n,1.65071970000281,None,,,,00025,001,2026-01-20_19h32.59.931,MST_test,2024.2.0,59.986634977217975,2026-01-20 19h33.07.588164 +0530,
101,0,102,o,1.2038627000001725,None,102,0,101,337.9013057999982,,,,,,,,,,,,,,,,,,,,,,,,,,,,,,,,,,,,,,,,,,,,,,,,,,337.88568680000026,337.9013057999982,338.40131809999,338.3845908999938,338.3933809000009,338.40131809999,338.40131809999,338.40131809999,339.61854100000346,Objects\164b.jpg,pre,o,1.2038627000001725,None,,,,00025,001,2026-01-20_19h32.59.931,MST_test,2024.2.0,59.986634977217975,2026-01-20 19h33.07.588164 +0530,
102,0,103,o,1.4266612000064924,None,103,0,102,339.63452269999834,,,,,,,,,,,,,,,,,,,,,,,,,,,,,,,,,,,,,,,,,,,,,,,,,,339.6189153000014,339.63452269999834,340.1468726000021,340.1182345999987,340.1442151999945,340.1468726000021,340.1468726000021,340.1468726000021,341.5851469999907,Objects\106b.jpg,mid,o,1.4266612000064924,None,,,,00025,001,2026-01-20_19h32.59.931,MST_test,2024.2.0,59.986634977217975,2026-01-20 19h33.07.588164 +0530,
103,0,104,o,1.036027499998454,None,104,0,103,341.6011470999947,,,,,,,,,,,,,,,,,,,,,,,,,,,,,,,,,,,,,,,,,,,,,,,,,,341.58551669999724,341.6011470999947,342.11385300000256,342.0848842999985,342.1112812999927,342.11385300000256,342.11385300000256,342.11385300000256,343.15145009999105,Scenes\020a.jpg,pre,o,1.036027499998454,None,,,,00025,001,2026-01-20_19h32.59.931,MST_test,2024.2.0,59.986634977217975,2026-01-20 19h33.07.588164 +0530,
104,0,105,o,0.9745152999967104,None,105,0,104,343.16785820000223,,,,,,,,,,,,,,,,,,,,,,,,,,,,,,,,,,,,,,,,,,,,,,,,,,343.15179669999634,343.16785820000223,343.67135039999266,343.65149889999884,343.66880149999633,343.67135039999266,343.67135039999266,343.67135039999266,344.6520978999906,Scenes\174a.jpg,pre,o,0.9745152999967104,None,,,,00025,001,2026-01-20_19h32.59.931,MST_test,2024.2.0,59.986634977217975,2026-01-20 19h33.07.588164 +0530,
105,0,106,s,1.4295839000114938,None,106,0,105,344.66785399999935,,,,,,,,,,,,,,,,,,,,,,,,,,,,,,,,,,,,,,,,,,,,,,,,,,344.6524842999934,344.66785399999935,345.16824679999263,345.15149399999063,345.16316209999786,345.16824679999263,345.16824679999263,345.16824679999263,346.6016699000029,Scenes\087a.jpg,post,s,1.4295839000114938,None,,,,00025,001,2026-01-20_19h32.59.931,MST_test,2024.2.0,59.986634977217975,2026-01-20 19h33.07.588164 +0530,
106,0,107,s,1.1102003999985754,None,107,0,106,346.6178632999945,,,,,,,,,,,,,,,,,,,,,,,,,,,,,,,,,,,,,,,,,,,,,,,,,,346.6020407999895,346.6178632999945,347.12693719999515,347.1013452999905,347.1241265999997,347.12693719999515,347.12693719999515,347.12693719999515,348.25178599999344,Scenes\112a.jpg,pre,s,1.1102003999985754,None,,,,00025,001,2026-01-20_19h32.59.931,MST_test,2024.2.0,59.986634977217975,2026-01-20 19h33.07.588164 +0530,
107,0,108,s,3.9781199999997625,None,108,0,107,348.26784939999925,,,,,,,,,,,,,,,,,,,,,,,,,,,,,,,,,,,,,,,,,,,,,,,,,,348.25215619998926,348.26784939999925,348.7957367999916,348.7514979999978,348.7930145999999,348.7957367999916,348.7957367999916,348.7957367999916,352.7851803999947,Scenes\124b.jpg,post,s,3.9781199999997625,None,,,,00025,001,2026-01-20_19h32.59.931,MST_test,2024.2.0,59.986634977217975,2026-01-20 19h33.07.588164 +0530,
108,0,109,s,2.5290774000022793,None,109,0,108,352.8011247999966,,,,,,,,,,,,,,,,,,,,,,,,,,,,,,,,,,,,,,,,,,,,,,,,,,352.7855555999995,352.8011247999966,353.30810799999745,353.2849644999951,353.3053193999949,353.30810799999745,353.30810799999745,353.30810799999745,355.85182719999284,Scenes\038a.jpg,post,s,2.5290774000022793,None,,,,00025,001,2026-01-20_19h32.59.931,MST_test,2024.2.0,59.986634977217975,2026-01-20 19h33.07.588164 +0530,
109,0,110,s,1.8271163000026718,None,110,0,109,355.86848619999364,,,,,,,,,,,,,,,,,,,,,,,,,,,,,,,,,,,,,,,,,,,,,,,,,,355.8522787999973,355.86848619999364,356.3707762999984,356.3513469000027,356.36813039999106,356.3707762999984,356.3707762999984,356.3707762999984,358.2018176999991,Scenes\004a.jpg,mid,s,1.8271163000026718,None,,,,00025,001,2026-01-20_19h32.59.931,MST_test,2024.2.0,59.986634977217975,2026-01-20 19h33.07.588164 +0530,
110,0,111,s,1.3604368999949656,None,111,0,110,358.2178073999967,,,,,,,,,,,,,,,,,,,,,,,,,,,,,,,,,,,,,,,,,,,,,,,,,,358.2022152999998,358.2178073999967,358.79693260000204,358.7014971000026,358.7934940999985,358.79693260000204,358.79693260000204,358.79693260000204,360.1683473000012,Objects\152b.jpg,pre,s,1.3604368999949656,None,,,,00025,001,2026-01-20_19h32.59.931,MST_test,2024.2.0,59.986634977217975,2026-01-20 19h33.07.588164 +0530,
111,0,112,o,4.013100200012559,None,112,0,111,360.1845139999932,,,,,,,,,,,,,,,,,,,,,,,,,,,,,,,,,,,,,,,,,,,,,,,,,,360.1687416999921,360.1845139999932,360.6881826000026,360.66831409999577,360.6857750999916,360.6881826000026,360.6881826000026,360.6881826000026,364.70191029999114,Scenes\042a.jpg,post,o,4.013100200012559,None,,,,00025,001,2026-01-20_19h32.59.931,MST_test,2024.2.0,59.986634977217975,2026-01-20 19h33.07.588164 +0530,
112,0,113,o,4.483194100001128,None,113,0,112,364.717862599995,,,,,,,,,,,,,,,,,,,,,,,,,,,,,,,,,,,,,,,,,,,,,,,,,,364.7023935000034,364.717862599995,365.2180870000011,365.2011404999939,365.2148262999981,365.2180870000011,365.2180870000011,365.2180870000011,369.7019004999893,Scenes\179a.jpg,pre,o,4.483194100001128,None,,,,00025,001,2026-01-20_19h32.59.931,MST_test,2024.2.0,59.986634977217975,2026-01-20 19h33.07.588164 +0530,
113,0,114,n,3.8028109000006225,None,114,0,113,369.71785859999363,,,,,,,,,,,,,,,,,,,,,,,,,,,,,,,,,,,,,,,,,,,,,,,,,,369.7023121999955,369.71785859999363,370.2184505999903,370.20154169999296,370.21226410000236,370.2184505999903,370.2184505999903,370.2184505999903,374.03509730000223,Foils\081a.jpg,none,n,3.8028109000006225,None,,,,00025,001,2026-01-20_19h32.59.931,MST_test,2024.2.0,59.986634977217975,2026-01-20 19h33.07.588164 +0530,
114,0,115,n,5.288653199997498,None,115,0,114,374.0509230000025,,,,,,,,,,,,,,,,,,,,,,,,,,,,,,,,,,,,,,,,,,,,,,,,,,374.03546970000025,374.0509230000025,374.56480490000104,374.53523029999633,374.56216299999505,374.56480490000104,374.56480490000104,374.56480490000104,379.86878949998936,Foils\scenes23.jpg,none,n,5.288653199997498,None,,,,00025,001,2026-01-20_19h32.59.931,MST_test,2024.2.0,59.986634977217975,2026-01-20 19h33.07.588164 +0530,
115,0,116,n,2.777016000007279,None,116,0,115,379.8845444000035,,,,,,,,,,,,,,,,,,,,,,,,,,,,,,,,,,,,,,,,,,,,,,,,,,379.86918519999017,379.8845444000035,380.38860219999333,380.36793880000187,380.3859741999913,380.38860219999333,380.38860219999333,380.38860219999333,383.1680747999926,Foils\090a.jpg,none,n,2.777016000007279,None,,,,00025,001,2026-01-20_19h32.59.931,MST_test,2024.2.0,59.986634977217975,2026-01-20 19h33.07.588164 +0530,
116,0,117,n,1.8247449999907985,None,117,0,116,383.1845070999989,,,,,,,,,,,,,,,,,,,,,,,,,,,,,,,,,,,,,,,,,,,,,,,,,,383.16842929999984,383.1845070999989,383.70905109999876,383.6682765000005,383.70627959999547,383.70905109999876,383.70905109999876,383.70905109999876,385.5354219000001,Scenes\190b.jpg,mid,n,1.8247449999907985,None,,,,00025,001,2026-01-20_19h32.59.931,MST_test,2024.2.0,59.986634977217975,2026-01-20 19h33.07.588164 +0530,
117,0,118,o,0.9927119000058156,None,118,0,117,385.5511184999923,,,,,,,,,,,,,,,,,,,,,,,,,,,,,,,,,,,,,,,,,,,,,,,,,,385.53580669999064,385.5511184999923,386.0526703999931,386.0349503000034,386.04110930000024,386.0526703999931,386.0526703999931,386.0526703999931,387.0520725999959,Objects\172a.jpg,pre,o,0.9927119000058156,None,,,,00025,001,2026-01-20_19h32.59.931,MST_test,2024.2.0,59.986634977217975,2026-01-20 19h33.07.588164 +0530,
118,0,119,o,0.7495459000056144,None,119,0,118,387.0678889999981,,,,,,,,,,,,,,,,,,,,,,,,,,,,,,,,,,,,,,,,,,,,,,,,,,387.05246449999686,387.0678889999981,387.5677282999968,387.5515593000018,387.5605157999962,387.5677282999968,387.5677282999968,387.5677282999968,388.3186136000004,Objects\120a.jpg,pre,o,0.7495459000056144,None,,,,00025,001,2026-01-20_19h32.59.931,MST_test,2024.2.0,59.986634977217975,2026-01-20 19h33.07.588164 +0530,
119,0,120,o,2.2987473999965005,None,120,0,119,388.334534900001,,,,,,,,,,,,,,,,,,,,,,,,,,,,,,,,,,,,,,,,,,,,,,,,,,388.31898830000137,388.334534900001,388.8347982999985,388.8182502999989,388.8268962000002,388.8347982999985,388.8347982999985,388.8347982999985,391.13506499999494,Objects\096a.jpg,mid,o,2.2987473999965005,None,,,,00025,001,2026-01-20_19h32.59.931,MST_test,2024.2.0,59.986634977217975,2026-01-20 19h33.07.588164 +0530,
120,0,121,s,1.8583797000028426,None,121,0,120,391.1509137999965,,,,,,,,,,,,,,,,,,,,,,,,,,,,,,,,,,,,,,,,,,,,,,,,,,391.13541350000014,391.1509137999965,391.6513406000013,391.63515599998937,391.64494620000187,391.6513406000013,391.6513406000013,391.6513406000013,393.51847680000355,Objects\099b.jpg,pre,s,1.8583797000028426,None,,,,00025,001,2026-01-20_19h32.59.931,MST_test,2024.2.0,59.986634977217975,2026-01-20 19h33.07.588164 +0530,
121,0,122,o,1.106438300004811,None,122,0,121,393.5345057999948,,,,,,,,,,,,,,,,,,,,,,,,,,,,,,,,,,,,,,,,,,,,,,,,,,393.51882230000047,393.5345057999948,394.0346823,394.01827349999803,394.0314153999934,394.0346823,394.0346823,394.0346823,395.1517496000015,Scenes\166a.jpg,post,o,1.106438300004811,None,,,,00025,001,2026-01-20_19h32.59.931,MST_test,2024.2.0,59.986634977217975,2026-01-20 19h33.07.588164 +0530,
122,0,123,s,1.102802099994733,None,123,0,122,395.1678421999968,,,,,,,,,,,,,,,,,,,,,,,,,,,,,,,,,,,,,,,,,,,,,,,,,,395.1521891000011,395.1678421999968,395.6788210999948,395.6515020999941,395.6763654999959,395.6788210999948,395.6788210999948,395.6788210999948,396.785223400002,Scenes\060b.jpg,post,s,1.102802099994733,None,,,,00025,001,2026-01-20_19h32.59.931,MST_test,2024.2.0,59.986634977217975,2026-01-20 19h33.07.588164 +0530,
123,0,124,s,4.2470395999989705,None,124,0,123,396.80113110000093,,,,,,,,,,,,,,,,,,,,,,,,,,,,,,,,,,,,,,,,,,,,,,,,,,396.7855770000024,396.80113110000093,397.30217789999733,397.2849159000034,397.30018140000175,397.30217789999733,397.30217789999733,397.30217789999733,401.5514286999969,Scenes\119a.jpg,pre,s,4.2470395999989705,None,,,,00025,001,2026-01-20_19h32.59.931,MST_test,2024.2.0,59.986634977217975,2026-01-20 19h33.07.588164 +0530,
124,0,125,o,1.1239554999920074,None,125,0,124,401.5678489999991,,,,,,,,,,,,,,,,,,,,,,,,,,,,,,,,,,,,,,,,,,,,,,,,,,401.55179430000135,401.5678489999991,,402.05196339999384,402.07949219999136,402.0818345000007,402.0818345000007,402.0818345000007,403.21855089999735,Objects\088b.jpg,post,o,1.1239554999920074,None,,,,00025,001,2026-01-20_19h32.59.931,MST_test,2024.2.0,59.986634977217975,2026-01-20 19h33.07.588164 +0530,
125,0,126,s,1.1587770999904023,None,126,0,125,403.23452699999325,,,,,,,,,,,,,,,,,,,,,,,,,,,,,,,,,,,,,,,,,,,,,,,,,,403.2189326999942,403.23452699999325,403.73439009999856,403.7179061999923,403.7288644999935,403.73439009999856,403.73439009999856,403.73439009999856,404.9009772999998,Foils\scenes17.jpg,none,s,1.1587770999904023,None,,,,00025,001,2026-01-20_19h32.59.931,MST_test,2024.2.0,59.986634977217975,2026-01-20 19h33.07.588164 +0530,
126,0,127,o,1.0271900000079768,None,127,0,126,404.9173230000015,,,,,,,,,,,,,,,,,,,,,,,,,,,,,,,,,,,,,,,,,,,,,,,,,,404.90110629999253,404.9173230000015,,405.40135569999984,405.4110820999922,405.4182400999998,405.4182400999998,405.4182400999998,406.4518215999997,Objects\037a.jpg,pre,o,1.0271900000079768,None,,,,00025,001,2026-01-20_19h32.59.931,MST_test,2024.2.0,59.986634977217975,2026-01-20 19h33.07.588164 +0530,
127,0,128,o,1.6792469999927562,None,128,0,127,406.4678672000009,,,,,,,,,,,,,,,,,,,,,,,,,,,,,,,,,,,,,,,,,,,,,,,,,,406.45219599999837,406.4678672000009,406.9985878000007,406.95117709999613,406.9960216999898,406.9985878000007,406.9985878000007,406.9985878000007,408.6852460999944,Scenes\072b.jpg,pre,o,1.6792469999927562,None,,,,00025,001,2026-01-20_19h32.59.931,MST_test,2024.2.0,59.986634977217975,2026-01-20 19h33.07.588164 +0530,
128,0,129,o,0.9720264000061434,None,129,0,128,408.70111189999443,,,,,,,,,,,,,,,,,,,,,,,,,,,,,,,,,,,,,,,,,,,,,,,,,,408.6857309999905,408.70111189999443,409.20136069999717,409.1846933999914,409.1969374999899,409.20136069999717,409.20136069999717,409.20136069999717,410.185150099991,Objects\039a.jpg,post,o,0.9720264000061434,None,,,,00025,001,2026-01-20_19h32.59.931,MST_test,2024.2.0,59.986634977217975,2026-01-20 19h33.07.588164 +0530,
129,0,130,o,1.599837599991588,None,130,0,129,410.20110749999003,,,,,,,,,,,,,,,,,,,,,,,,,,,,,,,,,,,,,,,,,,,,,,,,,,410.18549570000323,410.20110749999003,410.701356199992,410.68497289999505,410.694158600003,410.701356199992,410.701356199992,410.701356199992,412.30183599999873,Objects\136a.jpg,pre,o,1.599837599991588,None,,,,00025,001,2026-01-20_19h32.59.931,MST_test,2024.2.0,59.986634977217975,2026-01-20 19h33.07.588164 +0530,
130,0,131,s,3.0352513000107137,None,131,0,130,412.3177649999998,,,,,,,,,,,,,,,,,,,,,,,,,,,,,,,,,,,,,,,,,,,,,,,,,,412.3022146000003,412.3177649999998,412.81790359999286,412.80216979999386,412.81060979999893,412.81790359999286,412.81790359999286,412.81790359999286,415.8681940999959,Objects\073a.jpg,post,s,3.0352513000107137,None,,,,00025,001,2026-01-20_19h32.59.931,MST_test,2024.2.0,59.986634977217975,2026-01-20 19h33.07.588164 +0530,
131,0,132,s,1.1724306999967666,None,132,0,131,415.88435670000035,,,,,,,,,,,,,,,,,,,,,,,,,,,,,,,,,,,,,,,,,,,,,,,,,,415.86854029999813,415.88435670000035,416.3846727999917,416.36829669999133,416.375985199993,416.3846727999917,416.3846727999917,416.3846727999917,417.56855579999683,Objects\028b.jpg,pre,s,1.1724306999967666,None,,,,00025,001,2026-01-20_19h32.59.931,MST_test,2024.2.0,59.986634977217975,2026-01-20 19h33.07.588164 +0530,
132,0,133,s,0.9448089000070468,None,133,0,132,417.58452730000135,,,,,,,,,,,,,,,,,,,,,,,,,,,,,,,,,,,,,,,,,,,,,,,,,,417.5689953999972,417.58452730000135,418.0845671999996,418.068145199999,418.07554579999123,418.0845671999996,418.0845671999996,418.0845671999996,419.03516839999065,Foils\scenes7.jpg,none,s,0.9448089000070468,None,,,,00025,001,2026-01-20_19h32.59.931,MST_test,2024.2.0,59.986634977217975,2026-01-20 19h33.07.588164 +0530,
133,0,134,s,1.049985799996648,None,134,0,133,419.05081580000115,,,,,,,,,,,,,,,,,,,,,,,,,,,,,,,,,,,,,,,,,,,,,,,,,,419.0355118000007,419.05081580000115,419.5871797,419.53487789999053,419.58457959999214,419.5871797,419.5871797,419.5871797,420.65184299999964,Scenes\146b.jpg,mid,s,1.049985799996648,None,,,,00025,001,2026-01-20_19h32.59.931,MST_test,2024.2.0,59.986634977217975,2026-01-20 19h33.07.588164 +0530,
134,0,135,s,1.3255271000089124,None,135,0,134,420.66775829999824,,,,,,,,,,,,,,,,,,,,,,,,,,,,,,,,,,,,,,,,,,,,,,,,,,420.6521855000028,420.66775829999824,421.1680953000032,421.1516199000034,421.16334509999433,421.1680953000032,421.1680953000032,421.1680953000032,422.5019886999944,Objects\171a.jpg,post,s,1.3255271000089124,None,,,,00025,001,2026-01-20_19h32.59.931,MST_test,2024.2.0,59.986634977217975,2026-01-20 19h33.07.588164 +0530,
135,0,136,o,1.3627775999921141,None,136,0,135,422.5177682999929,,,,,,,,,,,,,,,,,,,,,,,,,,,,,,,,,,,,,,,,,,,,,,,,,,422.50233849999495,422.5177682999929,423.018279099997,423.0015937999997,423.0129395999975,423.018279099997,423.018279099997,423.018279099997,424.3864106999972,Scenes\184a.jpg,pre,o,1.3627775999921141,None,,,,00025,001,2026-01-20_19h32.59.931,MST_test,2024.2.0,59.986634977217975,2026-01-20 19h33.07.588164 +0530,
136,0,137,s,1.2560651999956463,None,137,0,136,424.40118359999906,,,,,,,,,,,,,,,,,,,,,,,,,,,,,,,,,,,,,,,,,,,,,,,,,,424.3865408999991,424.40118359999906,424.9016999000014,424.88491589999467,424.89339529999415,424.9016999000014,424.9016999000014,424.9016999000014,426.1684802999953,Objects\035b.jpg,post,s,1.2560651999956463,None,,,,00025,001,2026-01-20_19h32.59.931,MST_test,2024.2.0,59.986634977217975,2026-01-20 19h33.07.588164 +0530,
137,0,138,n,2.0883702999999514,None,138,0,137,426.18451829999685,,,,,,,,,,,,,,,,,,,,,,,,,,,,,,,,,,,,,,,,,,,,,,,,,,426.1688584999938,426.18451829999685,426.68476399999054,426.6679742999986,426.67462399999204,426.68476399999054,426.68476399999054,426.68476399999054,428.7851503999991,Foils\scenes2.jpg,none,n,2.0883702999999514,None,,,,00025,001,2026-01-20_19h32.59.931,MST_test,2024.2.0,59.986634977217975,2026-01-20 19h33.07.588164 +0530,
138,0,139,n,1.1249984999885783,None,139,0,138,428.8011882999999,,,,,,,,,,,,,,,,,,,,,,,,,,,,,,,,,,,,,,,,,,,,,,,,,,428.78549719999137,428.8011882999999,429.30477309999696,429.28496489999816,429.30119349999586,429.30477309999696,429.30477309999696,429.30477309999696,430.43520599999465,Scenes\155a.jpg,mid,n,1.1249984999885783,None,,,,00025,001,2026-01-20_19h32.59.931,MST_test,2024.2.0,59.986634977217975,2026-01-20 19h33.07.588164 +0530,
139,0,140,n,4.086080900000525,None,140,0,139,430.45085709998966,,,,,,,,,,,,,,,,,,,,,,,,,,,,,,,,,,,,,,,,,,,,,,,,,,430.43555809999816,430.45085709998966,430.95964410000306,430.9349300000031,430.95697929999733,430.95964410000306,430.95964410000306,430.95964410000306,435.05188069998985,Scenes\108b.jpg,pre,n,4.086080900000525,None,,,,00025,001,2026-01-20_19h32.59.931,MST_test,2024.2.0,59.986634977217975,2026-01-20 19h33.07.588164 +0530,
140,0,141,o,0.9548655999969924,None,141,0,140,435.06785389999277,,,,,,,,,,,,,,,,,,,,,,,,,,,,,,,,,,,,,,,,,,,,,,,,,,435.0522606000013,435.06785389999277,435.5949352000025,435.55121679999866,435.5923977999919,435.5949352000025,435.5949352000025,435.5949352000025,436.5515565999958,Objects\174b.jpg,mid,o,0.9548655999969924,None,,,,00025,001,2026-01-20_19h32.59.931,MST_test,2024.2.0,59.986634977217975,2026-01-20 19h33.07.588164 +0530,
141,0,142,s,1.6765760999987833,None,142,0,141,436.56767029999173,,,,,,,,,,,,,,,,,,,,,,,,,,,,,,,,,,,,,,,,,,,,,,,,,,436.55193030000373,436.56767029999173,437.08919539999624,437.0515984999947,437.0865954000037,437.08919539999624,437.08919539999624,437.08919539999624,438.7680923000007,Objects\129b.jpg,pre,s,1.6765760999987833,None,,,,00025,001,2026-01-20_19h32.59.931,MST_test,2024.2.0,59.986634977217975,2026-01-20 19h33.07.588164 +0530,
142,0,143,s,1.3304705999908037,None,143,0,142,438.78439790000266,,,,,,,,,,,,,,,,,,,,,,,,,,,,,,,,,,,,,,,,,,,,,,,,,,438.76843830000143,438.78439790000266,439.32267259999935,439.2682136999938,439.3198540000012,439.32267259999935,439.32267259999935,439.32267259999935,440.6685565999942,Scenes\001b.jpg,pre,s,1.3304705999908037,None,,,,00025,001,2026-01-20_19h32.59.931,MST_test,2024.2.0,59.986634977217975,2026-01-20 19h33.07.588164 +0530,
143,0,144,s,1.324234499988961,None,144,0,143,440.684227699996,,,,,,,,,,,,,,,,,,,,,,,,,,,,,,,,,,,,,,,,,,,,,,,,,,440.6689056999894,440.684227699996,441.18554429999494,441.1681331,441.1828095999954,441.18554429999494,441.18554429999494,441.18554429999494,442.5185698999994,Scenes\049a.jpg,mid,s,1.324234499988961,None,,,,00025,001,2026-01-20_19h32.59.931,MST_test,2024.2.0,59.986634977217975,2026-01-20 19h33.07.588164 +0530,
144,0,145,o,2.818251799995778,None,145,0,144,442.5344838000019,,,,,,,,,,,,,,,,,,,,,,,,,,,,,,,,,,,,,,,,,,,,,,,,,,442.51894670000183,442.5344838000019,443.0350080999924,443.0182505999983,443.0277851999999,443.0350080999924,443.0350080999924,443.0350080999924,445.86822029999166,Objects\123a.jpg,post,o,2.818251799995778,None,,,,00025,001,2026-01-20_19h32.59.931,MST_test,2024.2.0,59.986634977217975,2026-01-20 19h33.07.588164 +0530,
145,0,146,s,0.9087287000002107,None,146,0,145,445.8844575999974,,,,,,,,,,,,,,,,,,,,,,,,,,,,,,,,,,,,,,,,,,,,,,,,,,445.86859719999484,445.8844575999974,446.38473029999295,446.3682495999965,446.37506759999087,446.38473029999295,446.38473029999295,446.38473029999295,447.30184559999907,Foils\scenes4.jpg,none,s,0.9087287000002107,None,,,,00025,001,2026-01-20_19h32.59.931,MST_test,2024.2.0,59.986634977217975,2026-01-20 19h33.07.588164 +0530,
146,0,147,o,3.21182760001102,None,147,0,146,447.31785310000123,,,,,,,,,,,,,,,,,,,,,,,,,,,,,,,,,,,,,,,,,,,,,,,,,,447.3021962999919,447.31785310000123,447.8179322999931,447.8015777999972,447.81559109999216,447.8179322999931,447.8179322999931,447.8179322999931,451.03515219999827,Scenes\040b.jpg,pre,o,3.21182760001102,None,,,,00025,001,2026-01-20_19h32.59.931,MST_test,2024.2.0,59.986634977217975,2026-01-20 19h33.07.588164 +0530,
147,0,148,n,1.477932099995087,None,148,0,147,451.0512189000001,,,,,,,,,,,,,,,,,,,,,,,,,,,,,,,,,,,,,,,,,,,,,,,,,,451.0355344999989,451.0512189000001,451.5518033999979,451.5348914999922,451.54451749999134,451.5518033999979,451.5518033999979,451.5518033999979,453.03493690000323,Foils\018a.jpg,none,n,1.477932099995087,None,,,,00025,001,2026-01-20_19h32.59.931,MST_test,2024.2.0,59.986634977217975,2026-01-20 19h33.07.588164 +0530,
148,0,149,n,2.3017719000054058,None,149,0,148,453.0512103999936,,,,,,,,,,,,,,,,,,,,,,,,,,,,,,,,,,,,,,,,,,,,,,,,,,453.0353191999893,453.0512103999936,453.55132169999706,453.5348945000005,453.5421145,453.55132169999706,453.55132169999706,453.55132169999706,455.86853919998975,Foils\scenes1.jpg,none,n,2.3017719000054058,None,,,,00025,001,2026-01-20_19h32.59.931,MST_test,2024.2.0,59.986634977217975,2026-01-20 19h33.07.588164 +0530,
149,0,150,n,1.2048984999855747,None,150,0,149,455.8843991999893,,,,,,,,,,,,,,,,,,,,,,,,,,,,,,,,,,,,,,,,,,,,,,,,,,455.86892100000114,455.8843991999893,456.3848441000009,456.36827169999015,456.37742530000105,456.3848441000009,456.3848441000009,456.3848441000009,457.601900499998,Foils\050a.jpg,none,n,1.2048984999855747,None,,,,00025,001,2026-01-20_19h32.59.931,MST_test,2024.2.0,59.986634977217975,2026-01-20 19h33.07.588164 +0530,
,,,,,,,,,,,,,,,,,,,,,,,,,,,,,,,,,,,,,,,,,,,,,,,,,,,,,,,,,,,,,,,,,,,,,,,,,457.60212769999634,457.61788340000203,457.61788340000203,,,,,,,,
