thisN,thisTrialN,thisRepN,key_resp_3.keys,key_resp_3.rt,key_resp_3.duration,trials.thisRepN,trials.thisTrialN,trials.thisN,thisRow.t,notes,intro_page.started,text.started,key_resp.started,intro_page.stopped,key_resp.keys,key_resp.rt,key_resp.duration,instructions.started,text_2.started,key_resp_2.started,instructions.stopped,key_resp_2.keys,key_resp_2.rt,key_resp_2.duration,demo1.started,image_1.started,image_2.started,text_7.started,key_resp_6.started,text_9.started,demo1.stopped,key_resp_6.keys,key_resp_6.rt,key_resp_6.duration,demo2.started,image_5.started,image_6.started,text_11.started,text_12.started,key_resp_8.started,demo2.stopped,key_resp_8.keys,key_resp_8.rt,key_resp_8.duration,demo_conclusion.started,text_13.started,key_resp_9.started,demo_conclusion.stopped,key_resp_9.keys,key_resp_9.rt,key_resp_9.duration,start_test.started,text_6.started,key_resp_5.started,start_test.stopped,key_resp_5.keys,key_resp_5.rt,key_resp_5.duration,ISI.started,text_4.started,text_4.stopped,ISI.stopped,routine_1.started,image.started,text_3.started,key_resp_3.started,routine_1.stopped,image_path,position_of_stimuli,trials.key_resp_3.keys,trials.key_resp_3.rt,trials.key_resp_3.duration,End_page.started,text_5.started,key_resp_4.started,End_page.stopped,key_resp_4.keys,key_resp_4.rt,key_resp_4.duration,participant,session,date,expName,psychopyVersion,frameRate,expStart,
,,,,,,,,,,,0.0011416000197641551,0.0026082000113092363,0.0026082000113092363,2.2228304000454955,space,2.1684389999718405,None,,,,,,,,,,,,,,,,,,,,,,,,,,,,,,,,,,,,,,,,,,,,,,,,,,,,,,,,,,,,,,,00026,001,2026-01-20_19h45.56.914,MST_test,2024.2.0,59.87661824894223,2026-01-20 19h46.05.228894 +0530,
,,,,,,,,,,,,,,,,,,2.2228718000114895,2.231050000002142,2.231050000002142,14.163535300001968,space,11.92468260001624,None,,,,,,,,,,,,,,,,,,,,,,,,,,,,,,,,,,,,,,,,,,,,,,,,,,,,,,,,00026,001,2026-01-20_19h45.56.914,MST_test,2024.2.0,59.87661824894223,2026-01-20 19h46.05.228894 +0530,
,,,,,,,,,,,,,,,,,,,,,,,,,14.163564399990719,14.180001100001391,14.180001100001391,14.180001100001391,14.180001100001391,14.180001100001391,22.280666500038933,space,8.087048000015784,None,,,,,,,,,,,,,,,,,,,,,,,,,,,,,,,,,,,,,,,,,,,,,,00026,001,2026-01-20_19h45.56.914,MST_test,2024.2.0,59.87661824894223,2026-01-20 19h46.05.228894 +0530,
,,,,,,,,,,,,,,,,,,,,,,,,,,,,,,,,,,,22.280698999995366,22.296844199998304,22.296844199998304,22.296844199998304,22.296844199998304,22.296844199998304,25.613828300032765,space,3.3147624999983236,None,,,,,,,,,,,,,,,,,,,,,,,,,,,,,,,,,,,,00026,001,2026-01-20_19h45.56.914,MST_test,2024.2.0,59.87661824894223,2026-01-20 19h46.05.228894 +0530,
,,,,,,,,,,,,,,,,,,,,,,,,,,,,,,,,,,,,,,,,,,,,,25.61385760002304,25.629745100042783,25.629745100042783,73.98006010003155,space,48.33406429999741,None,,,,,,,,,,,,,,,,,,,,,,,,,,,,,00026,001,2026-01-20_19h45.56.914,MST_test,2024.2.0,59.87661824894223,2026-01-20 19h46.05.228894 +0530,
,,,,,,,,,,,,,,,,,,,,,,,,,,,,,,,,,,,,,,,,,,,,,,,,,,,,73.98009240004467,73.99618350004312,73.99618350004312,94.58008220000193,space,20.576116299955174,None,,,,,,,,,,,,,,,,,,,,,,00026,001,2026-01-20_19h45.56.914,MST_test,2024.2.0,59.87661824894223,2026-01-20 19h46.05.228894 +0530,
0,0,1,o,2.417867899988778,None,1,0,0,94.59612340002786,,,,,,,,,,,,,,,,,,,,,,,,,,,,,,,,,,,,,,,,,,,,,,,,,,94.58390920003876,94.59612340002786,95.09765210002661,95.07987690001028,95.09514630003832,95.09765210002661,95.09765210002661,95.09765210002661,97.5301252999925,Objects\121a.jpg,post,o,2.417867899988778,None,,,,,,,,00026,001,2026-01-20_19h45.56.914,MST_test,2024.2.0,59.87661824894223,2026-01-20 19h46.05.228894 +0530,
1,0,2,s,4.786950399982743,None,2,0,1,97.54623140004696,,,,,,,,,,,,,,,,,,,,,,,,,,,,,,,,,,,,,,,,,,,,,,,,,,97.53021930000978,97.54623140004696,98.04860120004741,98.03007290000096,98.04641539999284,98.04860120004741,98.04860120004741,98.04860120004741,102.84707100002561,Scenes\077b.jpg,mid,s,4.786950399982743,None,,,,,,,,00026,001,2026-01-20_19h45.56.914,MST_test,2024.2.0,59.87661824894223,2026-01-20 19h46.05.228894 +0530,
2,0,3,o,1.5439563000109047,None,3,0,2,102.86301390000153,,,,,,,,,,,,,,,,,,,,,,,,,,,,,,,,,,,,,,,,,,,,,,,,,,102.84717080002883,102.86301390000153,103.36323300004005,103.34647400001995,103.35675680002896,103.36323300004005,103.36323300004005,103.36323300004005,104.91353720001644,Objects\038a.jpg,pre,o,1.5439563000109047,None,,,,,,,,00026,001,2026-01-20_19h45.56.914,MST_test,2024.2.0,59.87661824894223,2026-01-20 19h46.05.228894 +0530,
3,0,4,o,1.6696733999997377,None,4,0,3,104.92958729999373,,,,,,,,,,,,,,,,,,,,,,,,,,,,,,,,,,,,,,,,,,,,,,,,,,104.91363010002533,104.92958729999373,105.43015440000454,105.41322270000819,105.42595120001351,105.43015440000454,105.43015440000454,105.43015440000454,107.1134608000284,Scenes\069a.jpg,mid,o,1.6696733999997377,None,,,,,,,,00026,001,2026-01-20_19h45.56.914,MST_test,2024.2.0,59.87661824894223,2026-01-20 19h46.05.228894 +0530,
4,0,5,o,1.5563890999765135,None,5,0,4,107.12964860000648,,,,,,,,,,,,,,,,,,,,,,,,,,,,,,,,,,,,,,,,,,,,,,,,,,107.11355310003273,107.12964860000648,107.63150220003445,107.61364360002335,107.62936379999155,107.63150220003445,107.63150220003445,107.63150220003445,109.19701270002406,Scenes\083a.jpg,pre,o,1.5563890999765135,None,,,,,,,,00026,001,2026-01-20_19h45.56.914,MST_test,2024.2.0,59.87661824894223,2026-01-20 19h46.05.228894 +0530,
5,0,6,s,1.6489827000186779,None,6,0,5,109.21298060001573,,,,,,,,,,,,,,,,,,,,,,,,,,,,,,,,,,,,,,,,,,,,,,,,,,109.19711010000901,109.21298060001573,109.71429410000565,109.69646530004684,109.71192249999149,109.71429410000565,109.71429410000565,109.71429410000565,111.36416320002172,Scenes\078a.jpg,mid,s,1.6489827000186779,None,,,,,,,,00026,001,2026-01-20_19h45.56.914,MST_test,2024.2.0,59.87661824894223,2026-01-20 19h46.05.228894 +0530,
6,0,7,o,2.3786643000203185,None,7,0,6,111.37970180000411,,,,,,,,,,,,,,,,,,,,,,,,,,,,,,,,,,,,,,,,,,,,,,,,,,111.36426920001395,111.37970180000411,111.88035470002797,111.863178300031,111.87600190000376,111.88035470002797,111.88035470002797,111.88035470002797,114.26377370004775,Scenes\116a.jpg,post,o,2.3786643000203185,None,,,,,,,,00026,001,2026-01-20_19h45.56.914,MST_test,2024.2.0,59.87661824894223,2026-01-20 19h46.05.228894 +0530,
7,0,8,n,1.4318718999857083,None,8,0,7,114.27964180003619,,,,,,,,,,,,,,,,,,,,,,,,,,,,,,,,,,,,,,,,,,,,,,,,,,114.26387070002966,114.27964180003619,114.78003030002583,114.76321760000428,114.77232839999488,114.78003030002583,114.78003030002583,114.78003030002583,116.21355899999617,Foils\scenes4.jpg,none,n,1.4318718999857083,None,,,,,,,,00026,001,2026-01-20_19h45.56.914,MST_test,2024.2.0,59.87661824894223,2026-01-20 19h46.05.228894 +0530,
8,0,9,s,1.598841099999845,None,9,0,8,116.22964100004174,,,,,,,,,,,,,,,,,,,,,,,,,,,,,,,,,,,,,,,,,,,,,,,,,,116.21365029999288,116.22964100004174,,116.71450860000914,116.73027830000501,116.73217460000888,116.73217460000888,116.73217460000888,118.34672700002557,Scenes\073b.jpg,pre,s,1.598841099999845,None,,,,,,,,00026,001,2026-01-20_19h45.56.914,MST_test,2024.2.0,59.87661824894223,2026-01-20 19h46.05.228894 +0530,
9,0,10,o,1.4763820000225678,None,10,0,9,118.36298610002268,,,,,,,,,,,,,,,,,,,,,,,,,,,,,,,,,,,,,,,,,,,,,,,,,,118.34682179999072,118.36298610002268,118.86344069999177,118.84667910001008,118.85665900004096,118.86344069999177,118.86344069999177,118.86344069999177,120.34682100004284,Objects\174a.jpg,pre,o,1.4763820000225678,None,,,,,,,,00026,001,2026-01-20_19h45.56.914,MST_test,2024.2.0,59.87661824894223,2026-01-20 19h46.05.228894 +0530,
10,0,11,o,2.819837399991229,None,11,0,10,120.3629025000264,,,,,,,,,,,,,,,,,,,,,,,,,,,,,,,,,,,,,,,,,,,,,,,,,,120.34691459999885,120.3629025000264,120.86339780001435,120.84648360003484,120.85633750003763,120.86339780001435,120.86339780001435,120.86339780001435,123.69674280000618,Scenes\033a.jpg,pre,o,2.819837399991229,None,,,,,,,,00026,001,2026-01-20_19h45.56.914,MST_test,2024.2.0,59.87661824894223,2026-01-20 19h46.05.228894 +0530,
11,0,12,s,1.6470373999909498,None,12,0,11,123.71297280001454,,,,,,,,,,,,,,,,,,,,,,,,,,,,,,,,,,,,,,,,,,,,,,,,,,123.6968364000204,123.71297280001454,124.21334700001171,124.19647260004422,124.20651889999863,124.21334700001171,124.21334700001171,124.21334700001171,125.86391090002144,Objects\114b.jpg,pre,s,1.6470373999909498,None,,,,,,,,00026,001,2026-01-20_19h45.56.914,MST_test,2024.2.0,59.87661824894223,2026-01-20 19h46.05.228894 +0530,
12,0,13,o,3.48438709997572,None,13,0,12,125.87967400002526,,,,,,,,,,,,,,,,,,,,,,,,,,,,,,,,,,,,,,,,,,,,,,,,,,125.8640119000338,125.87967400002526,126.38266619999195,126.36323270003777,126.3804788000416,126.38266619999195,126.38266619999195,126.38266619999195,129.88037230004556,Scenes\171a.jpg,mid,o,3.48438709997572,None,,,,,,,,00026,001,2026-01-20_19h45.56.914,MST_test,2024.2.0,59.87661824894223,2026-01-20 19h46.05.228894 +0530,
13,0,14,o,3.0454466000082903,None,14,0,13,129.89618060004432,,,,,,,,,,,,,,,,,,,,,,,,,,,,,,,,,,,,,,,,,,,,,,,,,,129.8804692000267,129.89618060004432,130.39847000001464,130.380136199994,130.39623350003967,130.39847000001464,130.39847000001464,130.39847000001464,133.4475854000193,Scenes\142a.jpg,post,o,3.0454466000082903,None,,,,,,,,00026,001,2026-01-20_19h45.56.914,MST_test,2024.2.0,59.87661824894223,2026-01-20 19h46.05.228894 +0530,
14,0,15,o,2.9514576999936253,None,15,0,14,133.46304390003206,,,,,,,,,,,,,,,,,,,,,,,,,,,,,,,,,,,,,,,,,,,,,,,,,,133.4476775000221,133.46304390003206,133.96422560000792,133.94662430003518,133.9624161000247,133.96422560000792,133.96422560000792,133.96422560000792,136.93024310003966,Scenes\070b.jpg,post,o,2.9514576999936253,None,,,,,,,,00026,001,2026-01-20_19h45.56.914,MST_test,2024.2.0,59.87661824894223,2026-01-20 19h46.05.228894 +0530,
15,0,16,s,1.6025864999974146,None,16,0,15,136.94639980001375,,,,,,,,,,,,,,,,,,,,,,,,,,,,,,,,,,,,,,,,,,,,,,,,,,136.9303356000455,136.94639980001375,137.44909270002972,137.43004290002864,137.44695210002828,137.44909270002972,137.44909270002972,137.44909270002972,139.06386650004424,Scenes\082b.jpg,pre,s,1.6025864999974146,None,,,,,,,,00026,001,2026-01-20_19h45.56.914,MST_test,2024.2.0,59.87661824894223,2026-01-20 19h46.05.228894 +0530,
16,0,17,n,2.831027200038079,None,17,0,16,139.08011500001885,,,,,,,,,,,,,,,,,,,,,,,,,,,,,,,,,,,,,,,,,,,,,,,,,,139.06396060000407,139.08011500001885,139.58033180003986,139.56338030000916,139.5731740000192,139.58033180003986,139.58033180003986,139.58033180003986,142.41370450000977,Foils\082a.jpg,none,n,2.831027200038079,None,,,,,,,,00026,001,2026-01-20_19h45.56.914,MST_test,2024.2.0,59.87661824894223,2026-01-20 19h46.05.228894 +0530,
17,0,18,n,2.065852400031872,None,18,0,17,142.42972590000136,,,,,,,,,,,,,,,,,,,,,,,,,,,,,,,,,,,,,,,,,,,,,,,,,,142.4137965000118,142.42972590000136,142.92982449999545,142.91337600001134,142.92287300003227,142.92982449999545,142.92982449999545,142.92982449999545,144.99700830003712,Foils\090a.jpg,none,n,2.065852400031872,None,,,,,,,,00026,001,2026-01-20_19h45.56.914,MST_test,2024.2.0,59.87661824894223,2026-01-20 19h46.05.228894 +0530,
18,0,19,o,1.9285320999915712,None,19,0,18,145.01301880000392,,,,,,,,,,,,,,,,,,,,,,,,,,,,,,,,,,,,,,,,,,,,,,,,,,144.99710660002893,145.01301880000392,145.51527120004175,145.4967315000249,145.5131899000262,145.51527120004175,145.51527120004175,145.51527120004175,147.4470697999932,Scenes\040a.jpg,pre,o,1.9285320999915712,None,,,,,,,,00026,001,2026-01-20_19h45.56.914,MST_test,2024.2.0,59.87661824894223,2026-01-20 19h46.05.228894 +0530,
19,0,20,s,3.727503300004173,None,20,0,19,147.4630996999913,,,,,,,,,,,,,,,,,,,,,,,,,,,,,,,,,,,,,,,,,,,,,,,,,,147.44716330000665,147.4630996999913,147.96370050002588,147.94661119999364,147.9598330000299,147.96370050002588,147.96370050002588,147.96370050002588,151.6968910000287,Scenes\024b.jpg,post,s,3.727503300004173,None,,,,,,,,00026,001,2026-01-20_19h45.56.914,MST_test,2024.2.0,59.87661824894223,2026-01-20 19h46.05.228894 +0530,
20,0,21,s,3.6274279000354,None,21,0,20,151.7131033000187,,,,,,,,,,,,,,,,,,,,,,,,,,,,,,,,,,,,,,,,,,,,,,,,,,151.69698900001822,151.7131033000187,152.21570310002426,152.19663760002004,152.2135064000031,152.21570310002426,152.21570310002426,152.21570310002426,155.846899199998,Scenes\105a.jpg,mid,s,3.6274279000354,None,,,,,,,,00026,001,2026-01-20_19h45.56.914,MST_test,2024.2.0,59.87661824894223,2026-01-20 19h46.05.228894 +0530,
21,0,22,o,1.3699247000040486,None,22,0,21,155.8630999000161,,,,,,,,,,,,,,,,,,,,,,,,,,,,,,,,,,,,,,,,,,,,,,,,,,155.84699370001908,155.8630999000161,156.369876700046,156.3467375000473,156.3676191000268,156.369876700046,156.369876700046,156.369876700046,157.74699190002866,Scenes\003b.jpg,mid,o,1.3699247000040486,None,,,,,,,,00026,001,2026-01-20_19h45.56.914,MST_test,2024.2.0,59.87661824894223,2026-01-20 19h46.05.228894 +0530,
22,0,23,o,1.0117729000048712,None,23,0,22,157.7630719000008,,,,,,,,,,,,,,,,,,,,,,,,,,,,,,,,,,,,,,,,,,,,,,,,,,157.7470963000087,157.7630719000008,158.2637402000255,158.2467372000101,158.25762720004423,158.2637402000255,158.2637402000255,158.2637402000255,159.28041810001014,Objects\093b.jpg,mid,o,1.0117729000048712,None,,,,,,,,00026,001,2026-01-20_19h45.56.914,MST_test,2024.2.0,59.87661824894223,2026-01-20 19h46.05.228894 +0530,
23,0,24,s,2.1429487999994308,None,24,0,23,159.29643109999597,,,,,,,,,,,,,,,,,,,,,,,,,,,,,,,,,,,,,,,,,,,,,,,,,,159.2805121000274,159.29643109999597,159.79654710000614,159.7801574000041,159.78971860004822,159.79654710000614,159.79654710000614,159.79654710000614,161.94709700002568,Objects\154b.jpg,pre,s,2.1429487999994308,None,,,,,,,,00026,001,2026-01-20_19h45.56.914,MST_test,2024.2.0,59.87661824894223,2026-01-20 19h46.05.228894 +0530,
24,0,25,s,2.204236999968998,None,25,0,24,161.96310610004002,,,,,,,,,,,,,,,,,,,,,,,,,,,,,,,,,,,,,,,,,,,,,,,,,,161.94719380000606,161.96310610004002,162.4633263000287,162.44663399999263,162.4562165000243,162.4633263000287,162.4633263000287,162.4633263000287,164.68029590003425,Objects\008b.jpg,mid,s,2.204236999968998,None,,,,,,,,00026,001,2026-01-20_19h45.56.914,MST_test,2024.2.0,59.87661824894223,2026-01-20 19h46.05.228894 +0530,
25,0,26,n,3.19859169999836,None,26,0,25,164.69639980001375,,,,,,,,,,,,,,,,,,,,,,,,,,,,,,,,,,,,,,,,,,,,,,,,,,164.68038950004848,164.69639980001375,165.19645380001748,165.1800050000311,165.1897139000357,165.19645380001748,165.19645380001748,165.19645380001748,168.39696550002554,Foils\scenes17.jpg,none,n,3.19859169999836,None,,,,,,,,00026,001,2026-01-20_19h45.56.914,MST_test,2024.2.0,59.87661824894223,2026-01-20 19h46.05.228894 +0530,
26,0,27,o,3.337818600004539,None,27,0,26,168.41305880004074,,,,,,,,,,,,,,,,,,,,,,,,,,,,,,,,,,,,,,,,,,,,,,,,,,168.39706300001126,168.41305880004074,168.91333120001946,168.89671270002145,168.90671920002205,168.91333120001946,168.91333120001946,168.91333120001946,172.26351660001092,Objects\051a.jpg,pre,o,3.337818600004539,None,,,,,,,,00026,001,2026-01-20_19h45.56.914,MST_test,2024.2.0,59.87661824894223,2026-01-20 19h46.05.228894 +0530,
27,0,28,o,1.8879217999638058,None,28,0,27,172.27977310004644,,,,,,,,,,,,,,,,,,,,,,,,,,,,,,,,,,,,,,,,,,,,,,,,,,172.2636108000297,172.27977310004644,172.77998490002938,172.7633883000235,172.77233340003295,172.77998490002938,172.77998490002938,172.77998490002938,174.68030350003392,Objects\137a.jpg,post,o,1.8879217999638058,None,,,,,,,,00026,001,2026-01-20_19h45.56.914,MST_test,2024.2.0,59.87661824894223,2026-01-20 19h46.05.228894 +0530,
28,0,29,n,1.9995180999976583,None,29,0,28,174.69615319999866,,,,,,,,,,,,,,,,,,,,,,,,,,,,,,,,,,,,,,,,,,,,,,,,,,174.68040120002115,174.69615319999866,175.19644950004295,175.18008650001138,175.19102110003587,175.19644950004295,175.19644950004295,175.19644950004295,177.19692610000493,Foils\002a.jpg,none,n,1.9995180999976583,None,,,,,,,,00026,001,2026-01-20_19h45.56.914,MST_test,2024.2.0,59.87661824894223,2026-01-20 19h46.05.228894 +0530,
29,0,30,s,4.321687599993311,None,30,0,29,177.21301599999424,,,,,,,,,,,,,,,,,,,,,,,,,,,,,,,,,,,,,,,,,,,,,,,,,,177.1970241999952,177.21301599999424,177.7133315000101,177.69676350004738,177.7057916999911,177.7133315000101,177.7133315000101,177.7133315000101,182.04701020003995,Objects\111b.jpg,pre,s,4.321687599993311,None,,,,,,,,00026,001,2026-01-20_19h45.56.914,MST_test,2024.2.0,59.87661824894223,2026-01-20 19h46.05.228894 +0530,
30,0,31,n,1.4389439999940805,None,31,0,30,182.06305480003357,,,,,,,,,,,,,,,,,,,,,,,,,,,,,,,,,,,,,,,,,,,,,,,,,,182.04711010004394,182.06305480003357,182.56517900002655,182.546516900009,182.56298500002595,182.56517900002655,182.56517900002655,182.56517900002655,184.0136499000364,Foils\scenes22.jpg,none,n,1.4389439999940805,None,,,,,,,,00026,001,2026-01-20_19h45.56.914,MST_test,2024.2.0,59.87661824894223,2026-01-20 19h46.05.228894 +0530,
31,0,32,o,1.1766054999898188,None,32,0,31,184.0297559000319,,,,,,,,,,,,,,,,,,,,,,,,,,,,,,,,,,,,,,,,,,,,,,,,,,184.01374490000308,184.0297559000319,184.53036940004677,184.51354210003046,184.52327360003255,184.53036940004677,184.53036940004677,184.53036940004677,185.71356430003652,Objects\013a.jpg,pre,o,1.1766054999898188,None,,,,,,,,00026,001,2026-01-20_19h45.56.914,MST_test,2024.2.0,59.87661824894223,2026-01-20 19h46.05.228894 +0530,
32,0,33,s,1.357730099989567,None,33,0,32,185.729778500041,,,,,,,,,,,,,,,,,,,,,,,,,,,,,,,,,,,,,,,,,,,,,,,,,,185.7136565000401,185.729778500041,186.22998190001817,186.21337100001983,186.22286770003848,186.22998190001817,186.22998190001817,186.22998190001817,187.5969435000443,Objects\043b.jpg,mid,s,1.357730099989567,None,,,,,,,,00026,001,2026-01-20_19h45.56.914,MST_test,2024.2.0,59.87661824894223,2026-01-20 19h46.05.228894 +0530,
33,0,34,s,1.7199121000012383,None,34,0,33,187.61299500003224,,,,,,,,,,,,,,,,,,,,,,,,,,,,,,,,,,,,,,,,,,,,,,,,,,187.59704100003,187.61299500003224,188.11587919999147,188.0966133000329,188.11365210002987,188.11587919999147,188.11587919999147,188.11587919999147,189.84701810003025,Scenes\134a.jpg,post,s,1.7199121000012383,None,,,,,,,,00026,001,2026-01-20_19h45.56.914,MST_test,2024.2.0,59.87661824894223,2026-01-20 19h46.05.228894 +0530,
34,0,35,n,3.101380500011146,None,35,0,34,189.86303360003512,,,,,,,,,,,,,,,,,,,,,,,,,,,,,,,,,,,,,,,,,,,,,,,,,,189.84710980003,189.86303360003512,190.36609840003075,190.3465360000264,190.36391320003895,190.36609840003075,190.36609840003075,190.36609840003075,193.48015980003402,Scenes\015b.jpg,pre,n,3.101380500011146,None,,,,,,,,00026,001,2026-01-20_19h45.56.914,MST_test,2024.2.0,59.87661824894223,2026-01-20 19h46.05.228894 +0530,
35,0,36,s,1.3824023000197485,None,36,0,35,193.4962066000444,,,,,,,,,,,,,,,,,,,,,,,,,,,,,,,,,,,,,,,,,,,,,,,,,,193.4802525000414,193.4962066000444,193.99666980002075,193.98002540000016,193.9905490000383,193.99666980002075,193.99666980002075,193.99666980002075,195.38038089999463,Objects\138b.jpg,pre,s,1.3824023000197485,None,,,,,,,,00026,001,2026-01-20_19h45.56.914,MST_test,2024.2.0,59.87661824894223,2026-01-20 19h46.05.228894 +0530,
36,0,37,o,1.2424975999747403,None,37,0,36,195.39626280002994,,,,,,,,,,,,,,,,,,,,,,,,,,,,,,,,,,,,,,,,,,,,,,,,,,195.38049050001428,195.39626280002994,195.896729900036,195.87998250004603,195.89057240000693,195.896729900036,195.896729900036,195.896729900036,197.14680410001893,Scenes\087a.jpg,pre,o,1.2424975999747403,None,,,,,,,,00026,001,2026-01-20_19h45.56.914,MST_test,2024.2.0,59.87661824894223,2026-01-20 19h46.05.228894 +0530,
37,0,38,s,1.8036506999633275,None,38,0,37,197.16300240001874,,,,,,,,,,,,,,,,,,,,,,,,,,,,,,,,,,,,,,,,,,,,,,,,,,197.14689690002706,197.16300240001874,197.66404120001243,197.64651779999258,197.6617371000466,197.66404120001243,197.66404120001243,197.66404120001243,199.4801875000121,Scenes\005b.jpg,pre,s,1.8036506999633275,None,,,,,,,,00026,001,2026-01-20_19h45.56.914,MST_test,2024.2.0,59.87661824894223,2026-01-20 19h46.05.228894 +0530,
38,0,39,s,1.2874056000146084,None,39,0,38,199.4962688999949,,,,,,,,,,,,,,,,,,,,,,,,,,,,,,,,,,,,,,,,,,,,,,,,,,199.48027970001567,199.4962688999949,199.99682540004142,199.97995790001005,199.99249650002457,199.99682540004142,199.99682540004142,199.99682540004142,201.29669300001115,Scenes\151b.jpg,post,s,1.2874056000146084,None,,,,,,,,00026,001,2026-01-20_19h45.56.914,MST_test,2024.2.0,59.87661824894223,2026-01-20 19h46.05.228894 +0530,
39,0,40,s,1.2288396999938414,None,40,0,39,201.31300510000437,,,,,,,,,,,,,,,,,,,,,,,,,,,,,,,,,,,,,,,,,,,,,,,,,,201.29678770003375,201.31300510000437,201.81495890003862,201.79643550002947,201.81284060003236,201.81495890003862,201.81495890003862,201.81495890003862,203.0471014000359,Scenes\167b.jpg,mid,s,1.2288396999938414,None,,,,,,,,00026,001,2026-01-20_19h45.56.914,MST_test,2024.2.0,59.87661824894223,2026-01-20 19h46.05.228894 +0530,
40,0,41,s,1.4332065000198781,None,41,0,40,203.06309549999423,,,,,,,,,,,,,,,,,,,,,,,,,,,,,,,,,,,,,,,,,,,,,,,,,,203.04720339999767,203.06309549999423,203.56350079999538,203.54643600003328,203.55615170003148,203.56350079999538,203.56350079999538,203.56350079999538,204.99742730002617,Objects\175b.jpg,post,s,1.4332065000198781,None,,,,,,,,00026,001,2026-01-20_19h45.56.914,MST_test,2024.2.0,59.87661824894223,2026-01-20 19h46.05.228894 +0530,
41,0,42,s,1.2118207000312395,None,42,0,41,205.01301799999783,,,,,,,,,,,,,,,,,,,,,,,,,,,,,,,,,,,,,,,,,,,,,,,,,,204.9975248000119,205.01301799999783,205.51334470004076,205.49674790003337,205.50682020001113,205.51334470004076,205.51334470004076,205.51334470004076,206.73040709999623,Objects\029b.jpg,pre,s,1.2118207000312395,None,,,,,,,,00026,001,2026-01-20_19h45.56.914,MST_test,2024.2.0,59.87661824894223,2026-01-20 19h46.05.228894 +0530,
42,0,43,s,1.1733370999572799,None,43,0,42,206.74621670000488,,,,,,,,,,,,,,,,,,,,,,,,,,,,,,,,,,,,,,,,,,,,,,,,,,206.73050200002035,206.74621670000488,207.2470001000329,207.22997859999305,207.24191540002357,207.2470001000329,207.2470001000329,207.2470001000329,208.43036030000076,Objects\162b.jpg,pre,s,1.1733370999572799,None,,,,,,,,00026,001,2026-01-20_19h45.56.914,MST_test,2024.2.0,59.87661824894223,2026-01-20 19h46.05.228894 +0530,
43,0,44,o,1.2651784000336193,None,44,0,43,208.44620030000806,,,,,,,,,,,,,,,,,,,,,,,,,,,,,,,,,,,,,,,,,,,,,,,,,,208.43045290000737,208.44620030000806,208.9464447000064,208.93005870003253,208.93923750001704,208.9464447000064,208.9464447000064,208.9464447000064,210.21362990001217,Objects\024a.jpg,post,o,1.2651784000336193,None,,,,,,,,00026,001,2026-01-20_19h45.56.914,MST_test,2024.2.0,59.87661824894223,2026-01-20 19h46.05.228894 +0530,
44,0,45,o,1.936969299975317,None,45,0,44,210.22970070003066,,,,,,,,,,,,,,,,,,,,,,,,,,,,,,,,,,,,,,,,,,,,,,,,,,210.2137201000005,210.22970070003066,210.7301104000071,210.71319890004816,210.72603660001187,210.7301104000071,210.7301104000071,210.7301104000071,212.68027080001775,Scenes\007a.jpg,pre,o,1.936969299975317,None,,,,,,,,00026,001,2026-01-20_19h45.56.914,MST_test,2024.2.0,59.87661824894223,2026-01-20 19h46.05.228894 +0530,
45,0,46,s,5.351012700004503,None,46,0,45,212.69619410001906,,,,,,,,,,,,,,,,,,,,,,,,,,,,,,,,,,,,,,,,,,,,,,,,,,212.68036550004035,212.69619410001906,213.196785200038,213.17992310004774,213.19228340004338,213.196785200038,213.196785200038,213.196785200038,218.5635290000355,Scenes\168a.jpg,pre,s,5.351012700004503,None,,,,,,,,00026,001,2026-01-20_19h45.56.914,MST_test,2024.2.0,59.87661824894223,2026-01-20 19h46.05.228894 +0530,
46,0,47,s,1.8761220999876969,None,47,0,46,218.57967780000763,,,,,,,,,,,,,,,,,,,,,,,,,,,,,,,,,,,,,,,,,,,,,,,,,,218.5636255000136,218.57967780000763,219.08019900001818,219.06363129999954,219.07576289999997,219.08019900001818,219.08019900001818,219.08019900001818,220.9636151000159,Objects\046b.jpg,pre,s,1.8761220999876969,None,,,,,,,,00026,001,2026-01-20_19h45.56.914,MST_test,2024.2.0,59.87661824894223,2026-01-20 19h46.05.228894 +0530,
47,0,48,n,4.175903700001072,None,48,0,47,220.9796653999947,,,,,,,,,,,,,,,,,,,,,,,,,,,,,,,,,,,,,,,,,,,,,,,,,,220.9637059000088,220.9796653999947,221.48325049999403,221.46332050004276,221.48115210002288,221.48325049999403,221.48325049999403,221.48325049999403,225.66359970002668,Scenes\035b.jpg,post,n,4.175903700001072,None,,,,,,,,00026,001,2026-01-20_19h45.56.914,MST_test,2024.2.0,59.87661824894223,2026-01-20 19h46.05.228894 +0530,
48,0,49,n,2.4308667999575846,None,49,0,48,225.6796684000292,,,,,,,,,,,,,,,,,,,,,,,,,,,,,,,,,,,,,,,,,,,,,,,,,,225.66369710001163,225.6796684000292,226.18022530002054,226.16343180002877,226.1740258000209,226.18022530002054,226.18022530002054,226.18022530002054,228.6135653000092,Objects\191b.jpg,mid,n,2.4308667999575846,None,,,,,,,,00026,001,2026-01-20_19h45.56.914,MST_test,2024.2.0,59.87661824894223,2026-01-20 19h46.05.228894 +0530,
49,0,50,o,1.1137693000491709,None,50,0,49,228.62967190000927,,,,,,,,,,,,,,,,,,,,,,,,,,,,,,,,,,,,,,,,,,,,,,,,,,228.6136567000067,228.62967190000927,229.13000860001193,229.1131713000359,229.12281720002647,229.13000860001193,229.13000860001193,229.13000860001193,230.24687840003753,Objects\037a.jpg,mid,o,1.1137693000491709,None,,,,,,,,00026,001,2026-01-20_19h45.56.914,MST_test,2024.2.0,59.87661824894223,2026-01-20 19h46.05.228894 +0530,
50,0,51,s,1.6150237999972887,None,51,0,50,230.26294570002938,,,,,,,,,,,,,,,,,,,,,,,,,,,,,,,,,,,,,,,,,,,,,,,,,,230.24697090004338,230.26294570002938,230.76453410001704,230.74655760003952,230.7620802000165,230.76453410001704,230.76453410001704,230.76453410001704,232.38044820004143,Scenes\131a.jpg,post,s,1.6150237999972887,None,,,,,,,,00026,001,2026-01-20_19h45.56.914,MST_test,2024.2.0,59.87661824894223,2026-01-20 19h46.05.228894 +0530,
51,0,52,s,2.690974500030279,None,52,0,51,232.3962699000258,,,,,,,,,,,,,,,,,,,,,,,,,,,,,,,,,,,,,,,,,,,,,,,,,,232.380554900039,232.3962699000258,232.89673189999303,232.88003540004138,232.88968990003923,232.89673189999303,232.89673189999303,232.89673189999303,235.59720930003095,Objects\187a.jpg,mid,s,2.690974500030279,None,,,,,,,,00026,001,2026-01-20_19h45.56.914,MST_test,2024.2.0,59.87661824894223,2026-01-20 19h46.05.228894 +0530,
52,0,53,o,1.2828316999948584,None,53,0,52,235.61296240001684,,,,,,,,,,,,,,,,,,,,,,,,,,,,,,,,,,,,,,,,,,,,,,,,,,235.59730250004213,235.61296240001684,236.11350880004466,236.09650500002317,236.10771420004312,236.11350880004466,236.11350880004466,236.11350880004466,237.39724930003285,Scenes\179a.jpg,mid,o,1.2828316999948584,None,,,,,,,,00026,001,2026-01-20_19h45.56.914,MST_test,2024.2.0,59.87661824894223,2026-01-20 19h46.05.228894 +0530,
53,0,54,s,1.9295841999701224,None,54,0,53,237.4131447999971,,,,,,,,,,,,,,,,,,,,,,,,,,,,,,,,,,,,,,,,,,,,,,,,,,237.3973506000475,237.4131447999971,237.9135576999979,237.89644680003403,237.9062593000126,237.9135576999979,237.9135576999979,237.9135576999979,239.84694610000588,Objects\071b.jpg,post,s,1.9295841999701224,None,,,,,,,,00026,001,2026-01-20_19h45.56.914,MST_test,2024.2.0,59.87661824894223,2026-01-20 19h46.05.228894 +0530,
54,0,55,o,1.2556886000093073,None,55,0,54,239.86301650002133,,,,,,,,,,,,,,,,,,,,,,,,,,,,,,,,,,,,,,,,,,,,,,,,,,239.8470477000228,239.86301650002133,240.36342300003162,240.3465580000193,240.35893210000359,240.36342300003162,240.36342300003162,240.36342300003162,241.630300800025,Scenes\039a.jpg,post,o,1.2556886000093073,None,,,,,,,,00026,001,2026-01-20_19h45.56.914,MST_test,2024.2.0,59.87661824894223,2026-01-20 19h46.05.228894 +0530,
55,0,56,s,1.2412669999757782,None,56,0,55,241.64621640002588,,,,,,,,,,,,,,,,,,,,,,,,,,,,,,,,,,,,,,,,,,,,,,,,,,241.63039180001942,241.64621640002588,242.1467469999916,242.13021090003895,242.14093739999225,242.1467469999916,242.1467469999916,242.1467469999916,243.39696270000422,Objects\015b.jpg,pre,s,1.2412669999757782,None,,,,,,,,00026,001,2026-01-20_19h45.56.914,MST_test,2024.2.0,59.87661824894223,2026-01-20 19h46.05.228894 +0530,
56,0,57,n,1.1377750999527052,None,57,0,56,243.41301530000055,,,,,,,,,,,,,,,,,,,,,,,,,,,,,,,,,,,,,,,,,,,,,,,,,,243.39706049999222,243.41301530000055,243.91337110003224,243.8965848000371,243.90502350003226,243.91337110003224,243.91337110003224,243.91337110003224,245.06357610004488,Foils\scenes6.jpg,none,n,1.1377750999527052,None,,,,,,,,00026,001,2026-01-20_19h45.56.914,MST_test,2024.2.0,59.87661824894223,2026-01-20 19h46.05.228894 +0530,
57,0,58,o,3.5396491000428796,None,58,0,57,245.07967180002015,,,,,,,,,,,,,,,,,,,,,,,,,,,,,,,,,,,,,,,,,,,,,,,,,,245.0636674000416,245.07967180002015,245.5836566000362,245.56332400004612,245.5816517000203,245.5836566000362,245.5836566000362,245.5836566000362,249.13036430004286,Scenes\159a.jpg,pre,o,3.5396491000428796,None,,,,,,,,00026,001,2026-01-20_19h45.56.914,MST_test,2024.2.0,59.87661824894223,2026-01-20 19h46.05.228894 +0530,
58,0,59,s,3.2531358000123873,None,59,0,58,249.14625450002495,,,,,,,,,,,,,,,,,,,,,,,,,,,,,,,,,,,,,,,,,,,,,,,,,,249.13046100002248,249.14625450002495,249.64675590000115,249.63003270002082,249.64408790000016,249.64675590000115,249.64675590000115,249.64675590000115,252.9135246000369,Foils\scenes27.jpg,none,s,3.2531358000123873,None,,,,,,,,00026,001,2026-01-20_19h45.56.914,MST_test,2024.2.0,59.87661824894223,2026-01-20 19h46.05.228894 +0530,
59,0,60,n,2.2528882999904454,None,60,0,59,252.92979439999908,,,,,,,,,,,,,,,,,,,,,,,,,,,,,,,,,,,,,,,,,,,,,,,,,,252.91361720004352,252.92979439999908,253.43014810001478,253.41337260004366,253.42312029999448,253.43014810001478,253.43014810001478,253.43014810001478,255.6969360000221,Foils\097a.jpg,none,n,2.2528882999904454,None,,,,,,,,00026,001,2026-01-20_19h45.56.914,MST_test,2024.2.0,59.87661824894223,2026-01-20 19h46.05.228894 +0530,
60,0,61,n,1.158097799983807,None,61,0,60,255.7131514000357,,,,,,,,,,,,,,,,,,,,,,,,,,,,,,,,,,,,,,,,,,,,,,,,,,255.69703030004166,255.7131514000357,256.21322790003615,256.196472700045,256.2053589000134,256.21322790003615,256.21322790003615,256.21322790003615,257.38044350000564,Foils\058a.jpg,none,n,1.158097799983807,None,,,,,,,,00026,001,2026-01-20_19h45.56.914,MST_test,2024.2.0,59.87661824894223,2026-01-20 19h46.05.228894 +0530,
61,0,62,o,2.2889069999800995,None,62,0,61,257.39631480001844,,,,,,,,,,,,,,,,,,,,,,,,,,,,,,,,,,,,,,,,,,,,,,,,,,257.3805416999967,257.39631480001844,257.8990303000319,257.88039980002213,257.89686640002765,257.8990303000319,257.8990303000319,257.8990303000319,260.1971345000202,Scenes\072a.jpg,pre,o,2.2889069999800995,None,,,,,,,,00026,001,2026-01-20_19h45.56.914,MST_test,2024.2.0,59.87661824894223,2026-01-20 19h46.05.228894 +0530,
62,0,63,s,1.1062899000244215,None,63,0,62,260.21305200003553,,,,,,,,,,,,,,,,,,,,,,,,,,,,,,,,,,,,,,,,,,,,,,,,,,260.19722999999067,260.21305200003553,260.71398130001035,260.6968731000088,260.71163490001345,260.71398130001035,260.71398130001035,260.71398130001035,261.8305707999971,Scenes\037b.jpg,mid,s,1.1062899000244215,None,,,,,,,,00026,001,2026-01-20_19h45.56.914,MST_test,2024.2.0,59.87661824894223,2026-01-20 19h46.05.228894 +0530,
63,0,64,n,1.0568226000177674,None,64,0,63,261.84629860002315,,,,,,,,,,,,,,,,,,,,,,,,,,,,,,,,,,,,,,,,,,,,,,,,,,261.83067819999997,261.84629860002315,262.3469594999915,262.3300932000275,262.3401095000445,262.3469594999915,262.3469594999915,262.3469594999915,263.4137614000356,Foils\106a.jpg,none,n,1.0568226000177674,None,,,,,,,,00026,001,2026-01-20_19h45.56.914,MST_test,2024.2.0,59.87661824894223,2026-01-20 19h46.05.228894 +0530,
64,0,65,o,1.082412399991881,None,65,0,64,263.4297629999928,,,,,,,,,,,,,,,,,,,,,,,,,,,,,,,,,,,,,,,,,,,,,,,,,,263.4138547000475,263.4297629999928,263.92998280003667,263.91331979999086,263.9223256999976,263.92998280003667,263.92998280003667,263.92998280003667,265.0137684000074,Objects\039a.jpg,pre,o,1.082412399991881,None,,,,,,,,00026,001,2026-01-20_19h45.56.914,MST_test,2024.2.0,59.87661824894223,2026-01-20 19h46.05.228894 +0530,
65,0,66,o,1.1938111999770626,None,66,0,65,265.02982759999577,,,,,,,,,,,,,,,,,,,,,,,,,,,,,,,,,,,,,,,,,,,,,,,,,,265.0138618000201,265.02982759999577,265.53000440000324,265.5135309000034,265.5225685000187,265.53000440000324,265.53000440000324,265.53000440000324,266.73038630001247,Objects\063a.jpg,pre,o,1.1938111999770626,None,,,,,,,,00026,001,2026-01-20_19h45.56.914,MST_test,2024.2.0,59.87661824894223,2026-01-20 19h46.05.228894 +0530,
66,0,67,n,1.6770328999846242,None,67,0,66,266.74620819999836,,,,,,,,,,,,,,,,,,,,,,,,,,,,,,,,,,,,,,,,,,,,,,,,,,266.73049170000013,266.74620819999836,267.2466011000215,267.2300260000047,267.23929590004263,267.2466011000215,267.2466011000215,267.2466011000215,268.93029119999846,Objects\122b.jpg,post,n,1.6770328999846242,None,,,,,,,,00026,001,2026-01-20_19h45.56.914,MST_test,2024.2.0,59.87661824894223,2026-01-20 19h46.05.228894 +0530,
67,0,68,n,1.0770486000110395,None,68,0,67,268.9464652000461,,,,,,,,,,,,,,,,,,,,,,,,,,,,,,,,,,,,,,,,,,,,,,,,,,268.93038309999974,268.9464652000461,269.44682310003554,269.4299533000449,269.4386092000059,269.44682310003554,269.44682310003554,269.44682310003554,270.5303467999911,Foils\scenes2.jpg,none,n,1.0770486000110395,None,,,,,,,,00026,001,2026-01-20_19h45.56.914,MST_test,2024.2.0,59.87661824894223,2026-01-20 19h46.05.228894 +0530,
68,0,69,o,1.1086962000117637,None,69,0,68,270.54645470000105,,,,,,,,,,,,,,,,,,,,,,,,,,,,,,,,,,,,,,,,,,,,,,,,,,270.5304373000399,270.54645470000105,271.046802100027,271.02995779999765,271.0420040000463,271.046802100027,271.046802100027,271.046802100027,272.1637916000327,Scenes\153a.jpg,post,o,1.1086962000117637,None,,,,,,,,00026,001,2026-01-20_19h45.56.914,MST_test,2024.2.0,59.87661824894223,2026-01-20 19h46.05.228894 +0530,
69,0,70,o,1.203135999967344,None,70,0,69,272.17968270002166,,,,,,,,,,,,,,,,,,,,,,,,,,,,,,,,,,,,,,,,,,,,,,,,,,272.16389550000895,272.17968270002166,272.6802905999939,272.6633740999969,272.67279390001204,272.6802905999939,272.6802905999939,272.6802905999939,273.89696080004796,Objects\105a.jpg,mid,o,1.203135999967344,None,,,,,,,,00026,001,2026-01-20_19h45.56.914,MST_test,2024.2.0,59.87661824894223,2026-01-20 19h46.05.228894 +0530,
70,0,71,n,2.248098000010941,None,71,0,70,273.9131342000328,,,,,,,,,,,,,,,,,,,,,,,,,,,,,,,,,,,,,,,,,,,,,,,,,,273.8970530999941,273.9131342000328,274.45243460003985,274.3968663000269,274.4496301000472,274.45243460003985,274.45243460003985,274.45243460003985,276.71392330003437,Foils\scenes15.jpg,none,n,2.248098000010941,None,,,,,,,,00026,001,2026-01-20_19h45.56.914,MST_test,2024.2.0,59.87661824894223,2026-01-20 19h46.05.228894 +0530,
71,0,72,n,2.555060599988792,None,72,0,71,276.72982850001426,,,,,,,,,,,,,,,,,,,,,,,,,,,,,,,,,,,,,,,,,,,,,,,,,,276.71404049999546,276.72982850001426,277.2400587000302,277.2133837000001,277.2379431000445,277.2400587000302,277.2400587000302,277.2400587000302,279.7968641000334,Scenes\180a.jpg,mid,n,2.555060599988792,None,,,,,,,,00026,001,2026-01-20_19h45.56.914,MST_test,2024.2.0,59.87661824894223,2026-01-20 19h46.05.228894 +0530,
72,0,73,n,1.0266974999685772,None,73,0,72,279.8129799000453,,,,,,,,,,,,,,,,,,,,,,,,,,,,,,,,,,,,,,,,,,,,,,,,,,279.79695660003927,279.8129799000453,280.3134699999937,280.2966101000202,280.30565200001,280.3134699999937,280.3134699999937,280.3134699999937,281.3470440999954,Foils\scenes20.jpg,none,n,1.0266974999685772,None,,,,,,,,00026,001,2026-01-20_19h45.56.914,MST_test,2024.2.0,59.87661824894223,2026-01-20 19h46.05.228894 +0530,
73,0,74,o,0.9968124000006355,None,74,0,73,281.3629600999993,,,,,,,,,,,,,,,,,,,,,,,,,,,,,,,,,,,,,,,,,,,,,,,,,,281.347151199996,281.3629600999993,281.8634422000032,281.84669830003986,281.8563971000258,281.8634422000032,281.8634422000032,281.8634422000032,282.8637421000167,Objects\053a.jpg,pre,o,0.9968124000006355,None,,,,,,,,00026,001,2026-01-20_19h45.56.914,MST_test,2024.2.0,59.87661824894223,2026-01-20 19h46.05.228894 +0530,
74,0,75,o,0.8951155000249855,None,75,0,74,282.8796855999972,,,,,,,,,,,,,,,,,,,,,,,,,,,,,,,,,,,,,,,,,,,,,,,,,,282.8638398000039,282.8796855999972,283.3799270000309,283.3632559000398,283.3722886000178,283.3799270000309,283.3799270000309,283.3799270000309,284.28038519999245,Objects\135a.jpg,post,o,0.8951155000249855,None,,,,,,,,00026,001,2026-01-20_19h45.56.914,MST_test,2024.2.0,59.87661824894223,2026-01-20 19h46.05.228894 +0530,
75,0,76,o,3.7404780000215396,None,76,0,75,284.29629580001347,,,,,,,,,,,,,,,,,,,,,,,,,,,,,,,,,,,,,,,,,,,,,,,,,,284.2804827000364,284.29629580001347,284.79917050001677,284.7798871000414,284.7971518000122,284.79917050001677,284.79917050001677,284.79917050001677,288.54730020003626,Scenes\012a.jpg,mid,o,3.7404780000215396,None,,,,,,,,00026,001,2026-01-20_19h45.56.914,MST_test,2024.2.0,59.87661824894223,2026-01-20 19h46.05.228894 +0530,
76,0,77,n,2.87993130000541,None,77,0,76,288.56303730001673,,,,,,,,,,,,,,,,,,,,,,,,,,,,,,,,,,,,,,,,,,,,,,,,,,288.54739980003797,288.56303730001673,289.0676050000475,289.04663250001613,289.0653339000419,289.0676050000475,289.0676050000475,289.0676050000475,291.96354280004743,Foils\scenes28.jpg,none,n,2.87993130000541,None,,,,,,,,00026,001,2026-01-20_19h45.56.914,MST_test,2024.2.0,59.87661824894223,2026-01-20 19h46.05.228894 +0530,
77,0,78,o,1.7066067999694496,None,78,0,77,291.9796731999959,,,,,,,,,,,,,,,,,,,,,,,,,,,,,,,,,,,,,,,,,,,,,,,,,,291.96364130004076,291.9796731999959,292.481582300039,292.46317410003394,292.4791461999994,292.481582300039,292.481582300039,292.481582300039,294.19693219999317,Scenes\058a.jpg,mid,o,1.7066067999694496,None,,,,,,,,00026,001,2026-01-20_19h45.56.914,MST_test,2024.2.0,59.87661824894223,2026-01-20 19h46.05.228894 +0530,
78,0,79,o,1.9613546000327915,None,79,0,78,294.2129597000312,,,,,,,,,,,,,,,,,,,,,,,,,,,,,,,,,,,,,,,,,,,,,,,,,,294.19702379999217,294.2129597000312,294.71362350002164,294.6965994000202,294.7080452000373,294.71362350002164,294.71362350002164,294.71362350002164,296.680285200011,Scenes\061a.jpg,post,o,1.9613546000327915,None,,,,,,,,00026,001,2026-01-20_19h45.56.914,MST_test,2024.2.0,59.87661824894223,2026-01-20 19h46.05.228894 +0530,
79,0,80,s,1.1268465999746695,None,80,0,79,296.69666580000194,,,,,,,,,,,,,,,,,,,,,,,,,,,,,,,,,,,,,,,,,,,,,,,,,,296.6803783000214,296.69666580000194,297.1966987000196,297.18001250003,297.1902362999972,297.1966987000196,297.1966987000196,297.1966987000196,298.3302137000137,Objects\164b.jpg,mid,s,1.1268465999746695,None,,,,,,,,00026,001,2026-01-20_19h45.56.914,MST_test,2024.2.0,59.87661824894223,2026-01-20 19h46.05.228894 +0530,
80,0,81,o,2.0204748999676667,None,81,0,80,298.346372400003,,,,,,,,,,,,,,,,,,,,,,,,,,,,,,,,,,,,,,,,,,,,,,,,,,298.3303053000127,298.346372400003,298.84656790003646,298.8299306000117,298.8392503000214,298.84656790003646,298.84656790003646,298.84656790003646,300.8804059000104,Objects\098b.jpg,pre,o,2.0204748999676667,None,,,,,,,,00026,001,2026-01-20_19h45.56.914,MST_test,2024.2.0,59.87661824894223,2026-01-20 19h46.05.228894 +0530,
81,0,82,n,1.4546919999993406,None,82,0,81,300.89641909999773,,,,,,,,,,,,,,,,,,,,,,,,,,,,,,,,,,,,,,,,,,,,,,,,,,300.8804984000162,300.89641909999773,301.3967066000332,301.3799243000103,301.3887210999965,301.3967066000332,301.3967066000332,301.3967066000332,302.8635784999933,Foils\scenes7.jpg,none,n,1.4546919999993406,None,,,,,,,,00026,001,2026-01-20_19h45.56.914,MST_test,2024.2.0,59.87661824894223,2026-01-20 19h46.05.228894 +0530,
82,0,83,s,0.9517585000139661,None,83,0,82,302.8796371000353,,,,,,,,,,,,,,,,,,,,,,,,,,,,,,,,,,,,,,,,,,,,,,,,,,302.86366790003376,302.8796371000353,303.3799546000082,303.3631235000212,303.37296810001135,303.3799546000082,303.3799546000082,303.3799546000082,304.3470825999975,Objects\011b.jpg,mid,s,0.9517585000139661,None,,,,,,,,00026,001,2026-01-20_19h45.56.914,MST_test,2024.2.0,59.87661824894223,2026-01-20 19h46.05.228894 +0530,
83,0,84,o,1.3160726000205614,None,84,0,83,304.36285910004517,,,,,,,,,,,,,,,,,,,,,,,,,,,,,,,,,,,,,,,,,,,,,,,,,,304.3471794000361,304.36285910004517,304.8632310000248,304.846751300036,304.85550720000174,304.8632310000248,304.8632310000248,304.8632310000248,306.18024439999135,Objects\143a.jpg,mid,o,1.3160726000205614,None,,,,,,,,00026,001,2026-01-20_19h45.56.914,MST_test,2024.2.0,59.87661824894223,2026-01-20 19h46.05.228894 +0530,
84,0,85,o,1.1463447000132874,None,85,0,84,306.19641350000165,,,,,,,,,,,,,,,,,,,,,,,,,,,,,,,,,,,,,,,,,,,,,,,,,,306.1803465000121,306.19641350000165,306.69662360002985,306.67999550001696,306.68915550003294,306.69662360002985,306.69662360002985,306.69662360002985,307.84699150000233,Objects\133a.jpg,post,o,1.1463447000132874,None,,,,,,,,00026,001,2026-01-20_19h45.56.914,MST_test,2024.2.0,59.87661824894223,2026-01-20 19h46.05.228894 +0530,
85,0,86,s,1.464431300002616,None,86,0,85,307.86290470004315,,,,,,,,,,,,,,,,,,,,,,,,,,,,,,,,,,,,,,,,,,,,,,,,,,307.84708100004354,307.86290470004315,308.36320820002584,308.3468059000443,308.3562535000383,308.36320820002584,308.36320820002584,308.36320820002584,309.8302249000408,Foils\042a.jpg,none,s,1.464431300002616,None,,,,,,,,00026,001,2026-01-20_19h45.56.914,MST_test,2024.2.0,59.87661824894223,2026-01-20 19h46.05.228894 +0530,
86,0,87,n,4.34489599999506,None,87,0,86,309.84655860002385,,,,,,,,,,,,,,,,,,,,,,,,,,,,,,,,,,,,,,,,,,,,,,,,,,309.8303214000189,309.84655860002385,310.34669000003487,310.3299592999974,310.33875779999653,310.34669000003487,310.34669000003487,310.34669000003487,314.6971701000002,Objects\169b.jpg,mid,n,4.34489599999506,None,,,,,,,,00026,001,2026-01-20_19h45.56.914,MST_test,2024.2.0,59.87661824894223,2026-01-20 19h46.05.228894 +0530,
87,0,88,o,1.1418961000163108,None,88,0,87,314.7129667000263,,,,,,,,,,,,,,,,,,,,,,,,,,,,,,,,,,,,,,,,,,,,,,,,,,314.69726420001825,314.7129667000263,315.2131884000264,315.19661530002486,315.20575660001487,315.2131884000264,315.2131884000264,315.2131884000264,316.3634600000223,Objects\125a.jpg,post,o,1.1418961000163108,None,,,,,,,,00026,001,2026-01-20_19h45.56.914,MST_test,2024.2.0,59.87661824894223,2026-01-20 19h46.05.228894 +0530,
88,0,89,o,1.0494793999823742,None,89,0,88,316.37970580003457,,,,,,,,,,,,,,,,,,,,,,,,,,,,,,,,,,,,,,,,,,,,,,,,,,316.3635514000198,316.37970580003457,316.88224890001584,316.863261600025,316.8801761000068,316.88224890001584,316.88224890001584,316.88224890001584,317.94706160004716,Scenes\021b.jpg,pre,o,1.0494793999823742,None,,,,,,,,00026,001,2026-01-20_19h45.56.914,MST_test,2024.2.0,59.87661824894223,2026-01-20 19h46.05.228894 +0530,
89,0,90,s,5.3725721999653615,None,90,0,89,317.96290290000616,,,,,,,,,,,,,,,,,,,,,,,,,,,,,,,,,,,,,,,,,,,,,,,,,,317.94716280000284,317.96290290000616,318.463409900025,318.4466224000207,318.4595826000441,318.463409900025,318.463409900025,318.463409900025,323.84695989999454,Scenes\147b.jpg,pre,s,5.3725721999653615,None,,,,,,,,00026,001,2026-01-20_19h45.56.914,MST_test,2024.2.0,59.87661824894223,2026-01-20 19h46.05.228894 +0530,
90,0,91,s,1.8883055999758653,None,91,0,90,323.8628746000468,,,,,,,,,,,,,,,,,,,,,,,,,,,,,,,,,,,,,,,,,,,,,,,,,,323.8470487000304,323.8628746000468,324.36344260000624,324.34661760000745,324.35706130001927,324.36344260000624,324.36344260000624,324.36344260000624,326.263448600017,Objects\052b.jpg,mid,s,1.8883055999758653,None,,,,,,,,00026,001,2026-01-20_19h45.56.914,MST_test,2024.2.0,59.87661824894223,2026-01-20 19h46.05.228894 +0530,
91,0,92,o,1.503795699973125,None,92,0,91,326.279713099997,,,,,,,,,,,,,,,,,,,,,,,,,,,,,,,,,,,,,,,,,,,,,,,,,,326.2635391000076,326.279713099997,326.78009600000223,326.7631493000081,326.77525310002966,326.78009600000223,326.78009600000223,326.78009600000223,328.2970360000036,Scenes\175a.jpg,mid,o,1.503795699973125,None,,,,,,,,00026,001,2026-01-20_19h45.56.914,MST_test,2024.2.0,59.87661824894223,2026-01-20 19h46.05.228894 +0530,
92,0,93,s,1.2459865999990143,None,93,0,92,328.31289050000487,,,,,,,,,,,,,,,,,,,,,,,,,,,,,,,,,,,,,,,,,,,,,,,,,,328.2971280000056,328.31289050000487,328.8134844000451,328.7971971000079,328.8072580000153,328.8134844000451,328.8134844000451,328.8134844000451,330.06350550003117,Objects\056b.jpg,pre,s,1.2459865999990143,None,,,,,,,,00026,001,2026-01-20_19h45.56.914,MST_test,2024.2.0,59.87661824894223,2026-01-20 19h46.05.228894 +0530,
93,0,94,o,2.0925045000039972,None,94,0,93,330.07963580003707,,,,,,,,,,,,,,,,,,,,,,,,,,,,,,,,,,,,,,,,,,,,,,,,,,330.06360080000013,330.07963580003707,330.58386579999933,330.56346700002905,330.58179230004316,330.58386579999933,330.58386579999933,330.58386579999933,332.6804037000402,Scenes\045b.jpg,pre,o,2.0925045000039972,None,,,,,,,,00026,001,2026-01-20_19h45.56.914,MST_test,2024.2.0,59.87661824894223,2026-01-20 19h46.05.228894 +0530,
94,0,95,s,4.757441400026437,None,95,0,94,332.6964005000191,,,,,,,,,,,,,,,,,,,,,,,,,,,,,,,,,,,,,,,,,,,,,,,,,,332.6804926000186,332.6964005000191,333.19776480004657,333.1799941000063,333.1955590000143,333.19776480004657,333.19776480004657,333.19776480004657,337.9635677000042,Scenes\146a.jpg,post,s,4.757441400026437,None,,,,,,,,00026,001,2026-01-20_19h45.56.914,MST_test,2024.2.0,59.87661824894223,2026-01-20 19h46.05.228894 +0530,
95,0,96,s,4.786689199972898,None,96,0,95,337.97969940002076,,,,,,,,,,,,,,,,,,,,,,,,,,,,,,,,,,,,,,,,,,,,,,,,,,337.96365869999863,337.97969940002076,338.4815880000242,338.46329129999503,338.47934990003705,338.4815880000242,338.4815880000242,338.4815880000242,343.28048090002267,Scenes\156a.jpg,post,s,4.786689199972898,None,,,,,,,,00026,001,2026-01-20_19h45.56.914,MST_test,2024.2.0,59.87661824894223,2026-01-20 19h46.05.228894 +0530,
96,0,97,n,0.9187623999896459,None,97,0,96,343.29639700002735,,,,,,,,,,,,,,,,,,,,,,,,,,,,,,,,,,,,,,,,,,,,,,,,,,343.2805874000187,343.29639700002735,343.7968955000397,343.7800782000413,343.78873380000005,343.7968955000397,343.7968955000397,343.7968955000397,344.730365800031,Foils\scenes13.jpg,none,n,0.9187623999896459,None,,,,,,,,00026,001,2026-01-20_19h45.56.914,MST_test,2024.2.0,59.87661824894223,2026-01-20 19h46.05.228894 +0530,
97,0,98,s,1.2847675999510102,None,98,0,97,344.7463677999913,,,,,,,,,,,,,,,,,,,,,,,,,,,,,,,,,,,,,,,,,,,,,,,,,,344.7304577000323,344.7463677999913,345.2466912000091,345.2299779000459,345.2424786000047,345.2466912000091,345.2466912000091,345.2466912000091,346.54700399999274,Objects\104b.jpg,mid,s,1.2847675999510102,None,,,,,,,,00026,001,2026-01-20_19h45.56.914,MST_test,2024.2.0,59.87661824894223,2026-01-20 19h46.05.228894 +0530,
98,0,99,s,5.817746799963061,None,99,0,98,346.56301450001774,,,,,,,,,,,,,,,,,,,,,,,,,,,,,,,,,,,,,,,,,,,,,,,,,,346.5471038999967,346.56301450001774,347.0656040000031,347.04662470001495,347.0631041000015,347.0656040000031,347.0656040000031,347.0656040000031,352.89692950004246,Scenes\174a.jpg,post,s,5.817746799963061,None,,,,,,,,00026,001,2026-01-20_19h45.56.914,MST_test,2024.2.0,59.87661824894223,2026-01-20 19h46.05.228894 +0530,
99,0,100,o,1.014358899963554,None,100,0,99,352.9129694000003,,,,,,,,,,,,,,,,,,,,,,,,,,,,,,,,,,,,,,,,,,,,,,,,,,352.89701930002775,352.9129694000003,353.41339770000195,353.3966738000163,353.4059775000205,353.41339770000195,353.41339770000195,353.41339770000195,354.4303895000485,Objects\040a.jpg,post,o,1.014358899963554,None,,,,,,,,00026,001,2026-01-20_19h45.56.914,MST_test,2024.2.0,59.87661824894223,2026-01-20 19h46.05.228894 +0530,
100,0,101,s,1.2483400999917649,None,101,0,100,354.44636820000596,,,,,,,,,,,,,,,,,,,,,,,,,,,,,,,,,,,,,,,,,,,,,,,,,,354.43048740003724,354.44636820000596,354.94678640004713,354.9302844000049,354.9414044000441,354.94678640004713,354.94678640004713,354.94678640004713,356.19720940000843,Objects\036b.jpg,post,s,1.2483400999917649,None,,,,,,,,00026,001,2026-01-20_19h45.56.914,MST_test,2024.2.0,59.87661824894223,2026-01-20 19h46.05.228894 +0530,
101,0,102,n,1.1461006000172347,None,102,0,101,356.21294850000413,,,,,,,,,,,,,,,,,,,,,,,,,,,,,,,,,,,,,,,,,,,,,,,,,,356.19730719999643,356.21294850000413,356.7132645000238,356.6967405000469,356.7056866000057,356.7132645000238,356.7132645000238,356.7132645000238,357.86359600001015,Foils\scenes14.jpg,none,n,1.1461006000172347,None,,,,,,,,00026,001,2026-01-20_19h45.56.914,MST_test,2024.2.0,59.87661824894223,2026-01-20 19h46.05.228894 +0530,
102,0,103,s,1.2314102000091225,None,103,0,102,357.87965330004226,,,,,,,,,,,,,,,,,,,,,,,,,,,,,,,,,,,,,,,,,,,,,,,,,,357.86368710000534,357.87965330004226,358.38002929999493,358.3632115999935,358.372363100003,358.38002929999493,358.38002929999493,358.38002929999493,359.6135597000248,Objects\016b.jpg,post,s,1.2314102000091225,None,,,,,,,,00026,001,2026-01-20_19h45.56.914,MST_test,2024.2.0,59.87661824894223,2026-01-20 19h46.05.228894 +0530,
103,0,104,o,2.809390800015535,None,104,0,103,359.62970640003914,,,,,,,,,,,,,,,,,,,,,,,,,,,,,,,,,,,,,,,,,,,,,,,,,,359.61365499999374,359.62970640003914,360.1299210000434,360.11331919999793,360.1220774000394,360.1299210000434,360.1299210000434,360.1299210000434,362.9471595000359,Objects\049a.jpg,post,o,2.809390800015535,None,,,,,,,,00026,001,2026-01-20_19h45.56.914,MST_test,2024.2.0,59.87661824894223,2026-01-20 19h46.05.228894 +0530,
104,0,105,s,1.6443090999964625,None,105,0,104,362.9631070000469,,,,,,,,,,,,,,,,,,,,,,,,,,,,,,,,,,,,,,,,,,,,,,,,,,362.9472578000277,362.9631070000469,363.463318300026,363.44665570004145,363.4610488000326,363.463318300026,363.463318300026,363.463318300026,365.11410020000767,Scenes\124b.jpg,mid,s,1.6443090999964625,None,,,,,,,,00026,001,2026-01-20_19h45.56.914,MST_test,2024.2.0,59.87661824894223,2026-01-20 19h46.05.228894 +0530,
105,0,106,n,1.3667218000045978,None,106,0,105,365.12989209999796,,,,,,,,,,,,,,,,,,,,,,,,,,,,,,,,,,,,,,,,,,,,,,,,,,365.11419960000785,365.12989209999796,365.6302257000352,365.613290600013,365.62651830003597,365.6302257000352,365.6302257000352,365.6302257000352,367.0135037000291,Scenes\050b.jpg,pre,n,1.3667218000045978,None,,,,,,,,00026,001,2026-01-20_19h45.56.914,MST_test,2024.2.0,59.87661824894223,2026-01-20 19h46.05.228894 +0530,
106,0,107,s,1.089003800007049,None,107,0,106,367.0297276999918,,,,,,,,,,,,,,,,,,,,,,,,,,,,,,,,,,,,,,,,,,,,,,,,,,367.0135950000258,367.0297276999918,367.53024370002095,367.5132615000475,367.5234521999955,367.53024370002095,367.53024370002095,367.53024370002095,368.63032729999395,Objects\167b.jpg,post,s,1.089003800007049,None,,,,,,,,00026,001,2026-01-20_19h45.56.914,MST_test,2024.2.0,59.87661824894223,2026-01-20 19h46.05.228894 +0530,
107,0,108,n,1.8165498999878764,None,108,0,107,368.6464021000429,,,,,,,,,,,,,,,,,,,,,,,,,,,,,,,,,,,,,,,,,,,,,,,,,,368.6304170000367,368.6464021000429,369.14664440002525,369.13013639999554,369.14082750002854,369.14664440002525,369.14664440002525,369.14664440002525,370.96389559999807,Foils\073a.jpg,none,n,1.8165498999878764,None,,,,,,,,00026,001,2026-01-20_19h45.56.914,MST_test,2024.2.0,59.87661824894223,2026-01-20 19h46.05.228894 +0530,
108,0,109,n,1.363861399993766,None,109,0,108,370.97971680003684,,,,,,,,,,,,,,,,,,,,,,,,,,,,,,,,,,,,,,,,,,,,,,,,,,370.9639907000237,370.97971680003684,371.4799291000236,371.463251600042,371.4718067999929,371.4799291000236,371.4799291000236,371.4799291000236,372.84705690003466,Objects\159b.jpg,mid,n,1.363861399993766,None,,,,,,,,00026,001,2026-01-20_19h45.56.914,MST_test,2024.2.0,59.87661824894223,2026-01-20 19h46.05.228894 +0530,
109,0,110,o,2.152243099990301,None,110,0,109,372.8628790000221,,,,,,,,,,,,,,,,,,,,,,,,,,,,,,,,,,,,,,,,,,,,,,,,,,372.8471527000074,372.8628790000221,373.36331480002264,373.3467840999947,373.35574240004644,373.36331480002264,373.36331480002264,373.36331480002264,375.53036890004296,Objects\089a.jpg,mid,o,2.152243099990301,None,,,,,,,,00026,001,2026-01-20_19h45.56.914,MST_test,2024.2.0,59.87661824894223,2026-01-20 19h46.05.228894 +0530,
110,0,111,s,1.6273705000057817,None,111,0,110,375.5464646000182,,,,,,,,,,,,,,,,,,,,,,,,,,,,,,,,,,,,,,,,,,,,,,,,,,375.5304693999933,375.5464646000182,376.0484873999958,376.0300431000069,376.0462496000109,376.0484873999958,376.0484873999958,376.0484873999958,377.6803742000484,Scenes\122a.jpg,mid,s,1.6273705000057817,None,,,,,,,,00026,001,2026-01-20_19h45.56.914,MST_test,2024.2.0,59.87661824894223,2026-01-20 19h46.05.228894 +0530,
111,0,112,s,2.0701462000142783,None,112,0,111,377.69649320002645,,,,,,,,,,,,,,,,,,,,,,,,,,,,,,,,,,,,,,,,,,,,,,,,,,377.68046540004434,377.69649320002645,378.19691290002083,378.1800712000113,378.1907586000161,378.19691290002083,378.19691290002083,378.19691290002083,380.2804229000467,Objects\020b.jpg,mid,s,2.0701462000142783,None,,,,,,,,00026,001,2026-01-20_19h45.56.914,MST_test,2024.2.0,59.87661824894223,2026-01-20 19h46.05.228894 +0530,
112,0,113,s,1.1184622999862768,None,113,0,112,380.29648680001264,,,,,,,,,,,,,,,,,,,,,,,,,,,,,,,,,,,,,,,,,,,,,,,,,,380.2805142000434,380.29648680001264,380.79670340003213,380.78007209999487,380.7896335000405,380.79670340003213,380.79670340003213,380.79670340003213,381.93046040000627,Objects\157b.jpg,post,s,1.1184622999862768,None,,,,,,,,00026,001,2026-01-20_19h45.56.914,MST_test,2024.2.0,59.87661824894223,2026-01-20 19h46.05.228894 +0530,
113,0,114,n,1.2127944999956526,None,114,0,113,381.9464055999997,,,,,,,,,,,,,,,,,,,,,,,,,,,,,,,,,,,,,,,,,,,,,,,,,,381.930551700003,381.9464055999997,382.446653800027,382.4301907000481,382.44014950003475,382.446653800027,382.446653800027,382.446653800027,383.66387869999744,Foils\101b.jpg,none,n,1.2127944999956526,None,,,,,,,,00026,001,2026-01-20_19h45.56.914,MST_test,2024.2.0,59.87661824894223,2026-01-20 19h46.05.228894 +0530,
114,0,115,n,1.1437861999729648,None,115,0,114,383.6798017999972,,,,,,,,,,,,,,,,,,,,,,,,,,,,,,,,,,,,,,,,,,,,,,,,,,383.66397410002537,383.6798017999972,384.1799975000322,384.16351030004444,384.17266710003605,384.1799975000322,384.1799975000322,384.1799975000322,385.3303167000413,Foils\026a.jpg,none,n,1.1437861999729648,None,,,,,,,,00026,001,2026-01-20_19h45.56.914,MST_test,2024.2.0,59.87661824894223,2026-01-20 19h46.05.228894 +0530,
115,0,116,s,1.0683344000135548,None,116,0,115,385.3464940999984,,,,,,,,,,,,,,,,,,,,,,,,,,,,,,,,,,,,,,,,,,,,,,,,,,385.33041380002396,385.3464940999984,385.8467142000445,385.82998460001545,385.83892010001,385.8467142000445,385.8467142000445,385.8467142000445,386.93036400002893,Objects\120a.jpg,mid,s,1.0683344000135548,None,,,,,,,,00026,001,2026-01-20_19h45.56.914,MST_test,2024.2.0,59.87661824894223,2026-01-20 19h46.05.228894 +0530,
116,0,117,o,1.7160784000298008,None,117,0,116,386.9465006000246,,,,,,,,,,,,,,,,,,,,,,,,,,,,,,,,,,,,,,,,,,,,,,,,,,386.93045939999865,386.9465006000246,387.44875730003696,387.43023640004685,387.44675659999484,387.44875730003696,387.44875730003696,387.44875730003696,389.1805446000071,Scenes\189a.jpg,mid,o,1.7160784000298008,None,,,,,,,,00026,001,2026-01-20_19h45.56.914,MST_test,2024.2.0,59.87661824894223,2026-01-20 19h46.05.228894 +0530,
117,0,118,n,1.2100109999882989,None,118,0,117,389.1965158000239,,,,,,,,,,,,,,,,,,,,,,,,,,,,,,,,,,,,,,,,,,,,,,,,,,389.1806337000453,389.1965158000239,389.6970589000266,389.6801766999997,389.69371240003966,389.6970589000266,389.6970589000266,389.6970589000266,390.91364760004217,Scenes\160a.jpg,pre,n,1.2100109999882989,None,,,,,,,,00026,001,2026-01-20_19h45.56.914,MST_test,2024.2.0,59.87661824894223,2026-01-20 19h46.05.228894 +0530,
118,0,119,s,2.4586475000251085,None,119,0,118,390.92983380000805,,,,,,,,,,,,,,,,,,,,,,,,,,,,,,,,,,,,,,,,,,,,,,,,,,390.91374280001037,390.92983380000805,391.4328315000166,391.4132917000097,391.43034040002385,391.4328315000166,391.4328315000166,391.4328315000166,393.89705710002454,Scenes\150b.jpg,post,s,2.4586475000251085,None,,,,,,,,00026,001,2026-01-20_19h45.56.914,MST_test,2024.2.0,59.87661824894223,2026-01-20 19h46.05.228894 +0530,
119,0,120,n,2.333743199997116,None,120,0,119,393.91308880003635,,,,,,,,,,,,,,,,,,,,,,,,,,,,,,,,,,,,,,,,,,,,,,,,,,393.8971565000247,393.91308880003635,394.41371230001096,394.3968060000334,394.4099566999939,394.41371230001096,394.41371230001096,394.41371230001096,396.763771500031,Scenes\155b.jpg,post,n,2.333743199997116,None,,,,,,,,00026,001,2026-01-20_19h45.56.914,MST_test,2024.2.0,59.87661824894223,2026-01-20 19h46.05.228894 +0530,
120,0,121,s,1.3999991999589838,None,121,0,120,396.77971020003315,,,,,,,,,,,,,,,,,,,,,,,,,,,,,,,,,,,,,,,,,,,,,,,,,,396.76387870003236,396.77971020003315,397.28304390003905,397.26357220002683,397.28091380000114,397.28304390003905,397.28304390003905,397.28304390003905,398.69711210002424,Scenes\028b.jpg,post,s,1.3999991999589838,None,,,,,,,,00026,001,2026-01-20_19h45.56.914,MST_test,2024.2.0,59.87661824894223,2026-01-20 19h46.05.228894 +0530,
121,0,122,n,1.0618181999889202,None,122,0,121,398.713091600046,,,,,,,,,,,,,,,,,,,,,,,,,,,,,,,,,,,,,,,,,,,,,,,,,,398.69720370002324,398.713091600046,399.2135843000142,399.1968131000176,399.2063951000455,399.2135843000142,399.2135843000142,399.2135843000142,400.2804543999955,Foils\010a.jpg,none,n,1.0618181999889202,None,,,,,,,,00026,001,2026-01-20_19h45.56.914,MST_test,2024.2.0,59.87661824894223,2026-01-20 19h46.05.228894 +0530,
122,0,123,n,1.1266221000114456,None,123,0,122,400.29647310002474,,,,,,,,,,,,,,,,,,,,,,,,,,,,,,,,,,,,,,,,,,,,,,,,,,400.2805502000265,400.29647310002474,400.79687280004146,400.78001159999985,400.78852940001525,400.79687280004146,400.79687280004146,400.79687280004146,401.93045680003706,Foils\scenes18.jpg,none,n,1.1266221000114456,None,,,,,,,,00026,001,2026-01-20_19h45.56.914,MST_test,2024.2.0,59.87661824894223,2026-01-20 19h46.05.228894 +0530,
123,0,124,o,0.9724569999962114,None,124,0,123,401.9464427999919,,,,,,,,,,,,,,,,,,,,,,,,,,,,,,,,,,,,,,,,,,,,,,,,,,401.930560000008,401.9464427999919,402.44685619999655,402.43005250004353,402.4394324000459,402.44685619999655,402.44685619999655,402.44685619999655,403.43040529999416,Objects\090a.jpg,mid,o,0.9724569999962114,None,,,,,,,,00026,001,2026-01-20_19h45.56.914,MST_test,2024.2.0,59.87661824894223,2026-01-20 19h46.05.228894 +0530,
124,0,125,n,1.425264999968931,None,125,0,124,403.44657680002274,,,,,,,,,,,,,,,,,,,,,,,,,,,,,,,,,,,,,,,,,,,,,,,,,,403.4304992000107,403.44657680002274,403.94665420003,403.93010779999895,403.940192900016,403.94665420003,403.94665420003,403.94665420003,405.3803546000272,Foils\121a.jpg,none,n,1.425264999968931,None,,,,,,,,00026,001,2026-01-20_19h45.56.914,MST_test,2024.2.0,59.87661824894223,2026-01-20 19h46.05.228894 +0530,
125,0,126,n,2.8167124000028707,None,126,0,125,405.39649900002405,,,,,,,,,,,,,,,,,,,,,,,,,,,,,,,,,,,,,,,,,,,,,,,,,,405.38044430001173,405.39649900002405,405.89885880000656,405.8801042000414,405.8967721000081,405.89885880000656,405.89885880000656,405.89885880000656,408.7306748999981,Scenes\047b.jpg,pre,n,2.8167124000028707,None,,,,,,,,00026,001,2026-01-20_19h45.56.914,MST_test,2024.2.0,59.87661824894223,2026-01-20 19h46.05.228894 +0530,
126,0,127,s,4.2445820000139065,None,127,0,126,408.74652670003707,,,,,,,,,,,,,,,,,,,,,,,,,,,,,,,,,,,,,,,,,,,,,,,,,,408.73078220000025,408.74652670003707,409.2469062000164,409.2300527000334,409.2419909000164,409.2469062000164,409.2469062000164,409.2469062000164,413.49740049999673,Objects\005b.jpg,post,s,4.2445820000139065,None,,,,,,,,00026,001,2026-01-20_19h45.56.914,MST_test,2024.2.0,59.87661824894223,2026-01-20 19h46.05.228894 +0530,
127,0,128,o,1.3187158000073396,None,128,0,127,413.513096700015,,,,,,,,,,,,,,,,,,,,,,,,,,,,,,,,,,,,,,,,,,,,,,,,,,413.49750270001823,413.513096700015,414.01321250002366,413.9967603000114,414.005867400032,414.01321250002366,414.01321250002366,414.01321250002366,415.3472737999982,Objects\171a.jpg,post,o,1.3187158000073396,None,,,,,,,,00026,001,2026-01-20_19h45.56.914,MST_test,2024.2.0,59.87661824894223,2026-01-20 19h46.05.228894 +0530,
128,0,129,n,1.6124703999958,None,129,0,128,415.3631164000253,,,,,,,,,,,,,,,,,,,,,,,,,,,,,,,,,,,,,,,,,,,,,,,,,,415.3473833000171,415.3631164000253,415.86326120002195,415.8467774000019,415.85534390003886,415.86326120002195,415.86326120002195,415.86326120002195,417.4803502000286,Foils\scenes1.jpg,none,n,1.6124703999958,None,,,,,,,,00026,001,2026-01-20_19h45.56.914,MST_test,2024.2.0,59.87661824894223,2026-01-20 19h46.05.228894 +0530,
129,0,130,n,4.6310451999888755,None,130,0,129,417.4964045000379,,,,,,,,,,,,,,,,,,,,,,,,,,,,,,,,,,,,,,,,,,,,,,,,,,417.48044120002305,417.4964045000379,417.9968149000197,417.9801005999907,417.9899563000072,417.9968149000197,417.9968149000197,417.9968149000197,422.6306692000362,Foils\074a.jpg,none,n,4.6310451999888755,None,,,,,,,,00026,001,2026-01-20_19h45.56.914,MST_test,2024.2.0,59.87661824894223,2026-01-20 19h46.05.228894 +0530,
130,0,131,s,1.2723861999693327,None,131,0,130,422.6464984000195,,,,,,,,,,,,,,,,,,,,,,,,,,,,,,,,,,,,,,,,,,,,,,,,,,422.63076900003944,422.6464984000195,423.14689329999965,423.13014960003784,423.1440479000448,423.14689329999965,423.14689329999965,423.14689329999965,424.43047520000255,Scenes\181b.jpg,post,s,1.2723861999693327,None,,,,,,,,00026,001,2026-01-20_19h45.56.914,MST_test,2024.2.0,59.87661824894223,2026-01-20 19h46.05.228894 +0530,
131,0,132,s,2.3451766000362113,None,132,0,131,424.44650200003525,,,,,,,,,,,,,,,,,,,,,,,,,,,,,,,,,,,,,,,,,,,,,,,,,,424.43056569999317,424.44650200003525,424.94684560003225,424.9299877000158,424.93937460001325,424.94684560003225,424.94684560003225,424.94684560003225,427.29717969999183,Objects\091a.jpg,mid,s,2.3451766000362113,None,,,,,,,,00026,001,2026-01-20_19h45.56.914,MST_test,2024.2.0,59.87661824894223,2026-01-20 19h46.05.228894 +0530,
132,0,133,s,1.6459245000150986,None,133,0,132,427.3131540000322,,,,,,,,,,,,,,,,,,,,,,,,,,,,,,,,,,,,,,,,,,,,,,,,,,427.2972786000464,427.3131540000322,427.81335210002726,427.7967501000385,427.80612250004197,427.81335210002726,427.81335210002726,427.81335210002726,429.463893200038,Foils\050a.jpg,none,s,1.6459245000150986,None,,,,,,,,00026,001,2026-01-20_19h45.56.914,MST_test,2024.2.0,59.87661824894223,2026-01-20 19h46.05.228894 +0530,
133,0,134,n,1.9755469000083394,None,134,0,133,429.47979280003347,,,,,,,,,,,,,,,,,,,,,,,,,,,,,,,,,,,,,,,,,,,,,,,,,,429.4639970000135,429.47979280003347,429.98035430000164,429.96343570004683,429.9769762000069,429.98035430000164,429.98035430000164,429.98035430000164,431.96381410001777,Scenes\188b.jpg,mid,n,1.9755469000083394,None,,,,,,,,00026,001,2026-01-20_19h45.56.914,MST_test,2024.2.0,59.87661824894223,2026-01-20 19h46.05.228894 +0530,
134,0,135,o,1.198910299979616,None,135,0,134,431.9797901000129,,,,,,,,,,,,,,,,,,,,,,,,,,,,,,,,,,,,,,,,,,,,,,,,,,431.96390700002667,431.9797901000129,432.4849700999912,432.46378600003663,432.48270610003965,432.4849700999912,432.4849700999912,432.4849700999912,433.69719949999126,Scenes\026b.jpg,post,o,1.198910299979616,None,,,,,,,,00026,001,2026-01-20_19h45.56.914,MST_test,2024.2.0,59.87661824894223,2026-01-20 19h46.05.228894 +0530,
135,0,136,n,3.701465099991765,None,136,0,135,433.712949400011,,,,,,,,,,,,,,,,,,,,,,,,,,,,,,,,,,,,,,,,,,,,,,,,,,433.69729470001766,433.712949400011,434.2147816999932,434.19676900003105,434.2126229000278,434.2147816999932,434.2147816999932,434.2147816999932,437.93038900004467,Scenes\126b.jpg,mid,n,3.701465099991765,None,,,,,,,,00026,001,2026-01-20_19h45.56.914,MST_test,2024.2.0,59.87661824894223,2026-01-20 19h46.05.228894 +0530,
136,0,137,s,1.2287321999901906,None,137,0,136,437.94633100001374,,,,,,,,,,,,,,,,,,,,,,,,,,,,,,,,,,,,,,,,,,,,,,,,,,437.9304797000368,437.94633100001374,438.4468179999967,438.43000739999115,438.4402189000393,438.4468179999967,438.4468179999967,438.4468179999967,439.6803349000402,Objects\041b.jpg,post,s,1.2287321999901906,None,,,,,,,,00026,001,2026-01-20_19h45.56.914,MST_test,2024.2.0,59.87661824894223,2026-01-20 19h46.05.228894 +0530,
137,0,138,o,2.070499299967196,None,138,0,137,439.69639460003236,,,,,,,,,,,,,,,,,,,,,,,,,,,,,,,,,,,,,,,,,,,,,,,,,,439.68043480004417,439.69639460003236,440.196645500022,440.1799113000161,440.1887848000042,440.196645500022,440.196645500022,440.196645500022,442.2803830000339,Objects\180a.jpg,pre,o,2.070499299967196,None,,,,,,,,00026,001,2026-01-20_19h45.56.914,MST_test,2024.2.0,59.87661824894223,2026-01-20 19h46.05.228894 +0530,
138,0,139,s,1.1347077999962494,None,139,0,138,442.2963283000281,,,,,,,,,,,,,,,,,,,,,,,,,,,,,,,,,,,,,,,,,,,,,,,,,,442.28047470003366,442.2963283000281,442.79684770002495,442.77992990001803,442.79246880003484,442.79684770002495,442.79684770002495,442.79684770002495,443.9470763000427,Scenes\098b.jpg,mid,s,1.1347077999962494,None,,,,,,,,00026,001,2026-01-20_19h45.56.914,MST_test,2024.2.0,59.87661824894223,2026-01-20 19h46.05.228894 +0530,
139,0,140,o,1.5525178000098094,None,140,0,139,443.96293189999415,,,,,,,,,,,,,,,,,,,,,,,,,,,,,,,,,,,,,,,,,,,,,,,,,,443.9471736000269,443.96293189999415,444.4669311000034,444.4467899000156,444.46478310000384,444.4669311000034,444.4669311000034,444.4669311000034,446.03024160000496,Scenes\086a.jpg,mid,o,1.5525178000098094,None,,,,,,,,00026,001,2026-01-20_19h45.56.914,MST_test,2024.2.0,59.87661824894223,2026-01-20 19h46.05.228894 +0530,
140,0,141,n,1.6729894999880344,None,141,0,140,446.0464036000194,,,,,,,,,,,,,,,,,,,,,,,,,,,,,,,,,,,,,,,,,,,,,,,,,,446.0303317999933,446.0464036000194,446.54684930003714,446.5301188000012,446.54054000001634,446.54684930003714,446.54684930003714,446.54684930003714,448.23031930002617,Foils\081a.jpg,none,n,1.6729894999880344,None,,,,,,,,00026,001,2026-01-20_19h45.56.914,MST_test,2024.2.0,59.87661824894223,2026-01-20 19h46.05.228894 +0530,
141,0,142,o,1.455201099975966,None,142,0,141,448.2463923000032,,,,,,,,,,,,,,,,,,,,,,,,,,,,,,,,,,,,,,,,,,,,,,,,,,448.2304092000122,448.2463923000032,448.7492766000214,448.73003680002876,448.74706750002224,448.7492766000214,448.7492766000214,448.7492766000214,450.21373090002453,Scenes\094a.jpg,pre,o,1.455201099975966,None,,,,,,,,00026,001,2026-01-20_19h45.56.914,MST_test,2024.2.0,59.87661824894223,2026-01-20 19h46.05.228894 +0530,
142,0,143,o,1.897393400024157,None,143,0,142,450.22982020000927,,,,,,,,,,,,,,,,,,,,,,,,,,,,,,,,,,,,,,,,,,,,,,,,,,450.21383150003385,450.22982020000927,450.73022780002793,450.71318110002903,450.72295310004847,450.73022780002793,450.73022780002793,450.73022780002793,452.6303217000095,Objects\085a.jpg,pre,o,1.897393400024157,None,,,,,,,,00026,001,2026-01-20_19h45.56.914,MST_test,2024.2.0,59.87661824894223,2026-01-20 19h46.05.228894 +0530,
143,0,144,o,2.097082699998282,None,144,0,143,452.6464024000452,,,,,,,,,,,,,,,,,,,,,,,,,,,,,,,,,,,,,,,,,,,,,,,,,,452.6304154000245,452.6464024000452,453.1465703000431,453.1299636000185,453.1394739000243,453.1465703000431,453.1465703000431,453.1465703000431,455.2470558999921,Objects\054b.jpg,mid,o,2.097082699998282,None,,,,,,,,00026,001,2026-01-20_19h45.56.914,MST_test,2024.2.0,59.87661824894223,2026-01-20 19h46.05.228894 +0530,
144,0,145,s,2.309840899950359,None,145,0,144,455.2629545000382,,,,,,,,,,,,,,,,,,,,,,,,,,,,,,,,,,,,,,,,,,,,,,,,,,455.2471538000391,455.2629545000382,455.76534129999345,455.7465846000123,455.76309560000664,455.76534129999345,455.76534129999345,455.76534129999345,458.0803111999994,Scenes\093b.jpg,post,s,2.309840899950359,None,,,,,,,,00026,001,2026-01-20_19h45.56.914,MST_test,2024.2.0,59.87661824894223,2026-01-20 19h46.05.228894 +0530,
145,0,146,s,1.1755258000339381,None,146,0,145,458.0964069000329,,,,,,,,,,,,,,,,,,,,,,,,,,,,,,,,,,,,,,,,,,,,,,,,,,458.08040530001745,458.0964069000329,458.5968208000413,458.58003790001385,458.59083739999915,458.5968208000413,458.5968208000413,458.5968208000413,459.78046330000507,Objects\081b.jpg,pre,s,1.1755258000339381,None,,,,,,,,00026,001,2026-01-20_19h45.56.914,MST_test,2024.2.0,59.87661824894223,2026-01-20 19h46.05.228894 +0530,
146,0,147,s,1.2994253000360914,None,147,0,146,459.79649740003515,,,,,,,,,,,,,,,,,,,,,,,,,,,,,,,,,,,,,,,,,,,,,,,,,,459.7805584000307,459.79649740003515,460.2969012000249,460.2800620000344,460.2945886999951,460.2969012000249,460.2969012000249,460.2969012000249,461.5972580999951,Scenes\101a.jpg,pre,s,1.2994253000360914,None,,,,,,,,00026,001,2026-01-20_19h45.56.914,MST_test,2024.2.0,59.87661824894223,2026-01-20 19h46.05.228894 +0530,
147,0,148,n,2.2424424000200815,None,148,0,147,461.6130819999962,,,,,,,,,,,,,,,,,,,,,,,,,,,,,,,,,,,,,,,,,,,,,,,,,,461.59736040001735,461.6130819999962,462.1139359000372,462.0966221000417,462.10693250002805,462.1139359000372,462.1139359000372,462.1139359000372,464.36373050004477,Foils\105a.jpg,none,n,2.2424424000200815,None,,,,,,,,00026,001,2026-01-20_19h45.56.914,MST_test,2024.2.0,59.87661824894223,2026-01-20 19h46.05.228894 +0530,
148,0,149,s,1.3879268000018783,None,149,0,148,464.3796857999987,,,,,,,,,,,,,,,,,,,,,,,,,,,,,,,,,,,,,,,,,,,,,,,,,,464.36382289999165,464.3796857999987,464.88002899999265,464.8630895999959,464.87241990002804,464.88002899999265,464.88002899999265,464.88002899999265,466.2806922000018,Objects\030b.jpg,post,s,1.3879268000018783,None,,,,,,,,00026,001,2026-01-20_19h45.56.914,MST_test,2024.2.0,59.87661824894223,2026-01-20 19h46.05.228894 +0530,
149,0,150,s,2.342905699973926,None,150,0,149,466.296431499999,,,,,,,,,,,,,,,,,,,,,,,,,,,,,,,,,,,,,,,,,,,,,,,,,,466.28079710004386,466.296431499999,466.79664280003635,466.78008039999986,466.7893316000118,466.79664280003635,466.79664280003635,466.79664280003635,469.14748010004405,Objects\110a.jpg,post,s,2.342905699973926,None,,,,,,,,00026,001,2026-01-20_19h45.56.914,MST_test,2024.2.0,59.87661824894223,2026-01-20 19h46.05.228894 +0530,
,,,,,,,,,,,,,,,,,,,,,,,,,,,,,,,,,,,,,,,,,,,,,,,,,,,,,,,,,,,,,,,,,,,,,,,,,469.14754400000675,469.1629697000026,469.1629697000026,471.813335200015,space,2.648897200007923,None,00026,001,2026-01-20_19h45.56.914,MST_test,2024.2.0,59.87661824894223,2026-01-20 19h46.05.228894 +0530,
