Sl_no,image_path,thisN,thisTrialN,thisRepN,key_resp_5.keys,key_resp_7.keys,key_resp_7.rt,key_resp_7.duration,key_resp_5.rt,key_resp_5.duration,key_resp_9.keys,key_resp_9.rt,key_resp_9.duration,key_resp_8.keys,key_resp_8.rt,key_resp_8.duration,practice.thisRepN,practice.thisTrialN,practice.thisN,trials.thisRepN,trials.thisTrialN,trials.thisN,thisRow.t,notes,welcome_page.started,text.started,key_resp.started,welcome_page.stopped,key_resp.keys,key_resp.rt,key_resp.duration,instructions.started,ins.started,key_resp_2.started,instructions.stopped,key_resp_2.keys,key_resp_2.rt,key_resp_2.duration,objects_only_instruction.started,text_3.started,key_resp_3.started,objects_only_instruction.stopped,key_resp_3.keys,key_resp_3.rt,key_resp_3.duration,ISI.started,text_4.started,text_4.stopped,ISI.stopped,practice_block.started,image.started,text_5.started,key_resp_5.started,practice_block.stopped,practice.key_resp_5.keys,indoor_outdoor.started,text_7.started,key_resp_7.started,indoor_outdoor.stopped,practice.key_resp_7.keys,practice.key_resp_7.rt,practice.key_resp_7.duration,image.stopped,text_5.stopped,key_resp_5.stopped,practice.key_resp_5.rt,practice.key_resp_5.duration,practice_to_main.started,text_2.started,key_resp_4.started,practice_to_main.stopped,key_resp_4.keys,key_resp_4.rt,key_resp_4.duration,objects.started,image_2.started,text_9.started,key_resp_9.started,image_2.stopped,text_9.stopped,key_resp_9.stopped,objects.stopped,trials.key_resp_9.keys,trials.key_resp_9.rt,trials.key_resp_9.duration,encoding_task.started,encoding_task.stopped,trials.key_resp_8.keys,text_8.started,key_resp_8.started,trials.key_resp_8.rt,trials.key_resp_8.duration,end_experiment.started,text_6.started,key_resp_6.started,end_experiment.stopped,key_resp_6.keys,key_resp_6.rt,key_resp_6.duration,list_of_stimuli,encoding_task_accuracy,participant,session,date,expName,psychopyVersion,frameRate,expStart,
,,,,,,,,,,,,,,,,,,,,,,,,,0.001328400001511909,0.003105900002992712,0.003105900002992712,316.1818970000022,space,316.1645494999975,None,,,,,,,,,,,,,,,,,,,,,,,,,,,,,,,,,,,,,,,,,,,,,,,,,,,,,,,,,,,,,,,,,,,,,,,00025,001,2026-01-20_19h03.31.875,MST_task,2024.2.0,60.04895190258923,2026-01-20 19h03.39.499711 +0530,
,,,,,,,,,,,,,,,,,,,,,,,,,,,,,,,,316.18198320000374,316.19955999999365,316.19955999999365,339.72884499999054,space,23.520480300008785,None,,,,,,,,,,,,,,,,,,,,,,,,,,,,,,,,,,,,,,,,,,,,,,,,,,,,,,,,,,,,,,,,00025,001,2026-01-20_19h03.31.875,MST_task,2024.2.0,60.04895190258923,2026-01-20 19h03.39.499711 +0530,
,,,,,,,,,,,,,,,,,,,,,,,,,,,,,,,,,,,,,,,339.72897539999394,339.7491377999977,339.7491377999977,367.1775048999989,space,27.426876300000004,None,,,,,,,,,,,,,,,,,,,,,,,,,,,,,,,,,,,,,,,,,,,,,,,,,,,,,,,,,00025,001,2026-01-20_19h03.31.875,MST_task,2024.2.0,60.04895190258923,2026-01-20 19h03.39.499711 +0530,
7,practice_images/166a.jpg,0,0,1,None,f,1.8889102999964962,None,,,,,,,,,1,0,0,,,,367.19401759999164,,,,,,,,,,,,,,,,,,,,,,,367.18679720000364,367.19401759999164,367.7212328000023,367.6772600999975,367.68995649999124,367.7212328000023,367.7212328000023,367.7212328000023,370.6943467999954,None,370.70116810000036,370.7106236999971,370.7106236999971,372.61113679999835,f,1.8889102999964962,None,,,,,,,,,,,,,,,,,,,,,,,,,,,,,,,,,,,,,,,,00025,001,2026-01-20_19h03.31.875,MST_task,2024.2.0,60.04895190258923,2026-01-20 19h03.39.499711 +0530,
9,practice_images/180a.jpg,1,1,1,f,None,,,1.7928204999916488,0.07984020000731107,,,,,,,1,1,1,,,,372.6272311999928,,,,,,,,,,,,,,,,,,,,,,,372.6114696000004,372.6272311999928,373.12710369999695,373.1113258999976,373.1170388000028,373.12710369999695,373.12710369999695,373.12710369999695,376.11124479999125,f,376.11143769999035,,,376.11150509999425,None,,,376.12721910000255,376.12721910000255,376.12721910000255,1.7928204999916488,0.07984020000731107,,,,,,,,,,,,,,,,,,,,,,,,,,,,,,,,,,,00025,001,2026-01-20_19h03.31.875,MST_task,2024.2.0,60.04895190258923,2026-01-20 19h03.39.499711 +0530,
1,practice_images/013a.jpg,2,2,1,j,None,,,1.6522935000102734,0.1520124999951804,,,,,,,1,2,2,,,,376.12721910000255,,,,,,,,,,,,,,,,,,,,,,,376.11184830000275,376.12721910000255,376.62710230000084,376.61060339999676,376.61640009999974,376.62710230000084,376.62710230000084,376.62710230000084,379.61129449999135,j,379.611505199995,,,379.611576299998,None,,,379.62724889999663,379.62724889999663,379.62724889999663,1.6522935000102734,0.1520124999951804,,,,,,,,,,,,,,,,,,,,,,,,,,,,,,,,,,,00025,001,2026-01-20_19h03.31.875,MST_task,2024.2.0,60.04895190258923,2026-01-20 19h03.39.499711 +0530,
8,practice_images/178a.jpg,3,3,1,j,None,,,1.6404115000041202,0.11950989998877048,,,,,,,1,3,3,,,,379.62724889999663,,,,,,,,,,,,,,,,,,,,,,,379.61187729999074,379.62724889999663,380.12748529999226,380.1110061999934,380.1163281999907,380.12748529999226,380.12748529999226,380.12748529999226,383.1110181999975,j,383.1111976999964,,,383.11126309999963,None,,,383.12691949999135,383.12691949999135,383.12691949999135,1.6404115000041202,0.11950989998877048,,,,,,,,,,,,,,,,,,,,,,,,,,,,,,,,,,,00025,001,2026-01-20_19h03.31.875,MST_task,2024.2.0,60.04895190258923,2026-01-20 19h03.39.499711 +0530,
3,practice_images/037a.jpg,4,4,1,f,None,,,1.3719306999992114,0.15254060000006575,,,,,,,1,4,4,,,,383.12691949999135,,,,,,,,,,,,,,,,,,,,,,,383.1115387000027,383.12691949999135,383.62738599999284,383.6108743999939,383.61621130000276,383.62738599999284,383.62738599999284,383.62738599999284,386.611193299992,f,386.61137260000396,,,386.6114375000034,None,,,386.6272417,386.6272417,386.6272417,1.3719306999992114,0.15254060000006575,,,,,,,,,,,,,,,,,,,,,,,,,,,,,,,,,,,00025,001,2026-01-20_19h03.31.875,MST_task,2024.2.0,60.04895190258923,2026-01-20 19h03.39.499711 +0530,
4,practice_images/002b.jpg,5,5,1,f,None,,,1.9041143000067677,0.14473269999143668,,,,,,,1,5,5,,,,386.6272417,,,,,,,,,,,,,,,,,,,,,,,386.6117718000023,386.6272417,387.1271078999998,387.1107206000015,387.1152388000046,387.1271078999998,387.1271078999998,387.1271078999998,390.11188019999827,f,390.11207170000125,,,390.11214309999195,None,,,,,,1.9041143000067677,0.14473269999143668,,,,,,,,,,,,,,,,,,,,,,,,,,,,,,,,,,,00025,001,2026-01-20_19h03.31.875,MST_task,2024.2.0,60.04895190258923,2026-01-20 19h03.39.499711 +0530,
10,practice_images/182a.jpg,6,6,1,None,f,0.3566802999994252,None,,,,,,,,,1,6,6,,,,390.12723529999494,,,,,,,,,,,,,,,,,,,,,,,390.11244050000096,390.12723529999494,390.6271401999984,390.61070859999745,390.61545299999125,390.6271401999984,390.6271401999984,390.6271401999984,393.6111841999955,None,393.61134659999516,393.6272270000045,393.6272270000045,393.9945502000046,f,0.3566802999994252,None,393.6272270000045,393.6272270000045,393.6272270000045,,,,,,,,,,,,,,,,,,,,,,,,,,,,,,,,,,,,,00025,001,2026-01-20_19h03.31.875,MST_task,2024.2.0,60.04895190258923,2026-01-20 19h03.39.499711 +0530,
6,practice_images/158a.jpg,7,7,1,j,None,,,1.2886487000068882,0.1440825999889057,,,,,,,1,7,7,,,,394.01034910000453,,,,,,,,,,,,,,,,,,,,,,,393.99490979999246,394.01034910000453,394.5105723000015,394.4940839000046,394.49910400000226,394.5105723000015,394.5105723000015,394.5105723000015,397.4945158999908,j,397.49469690000114,,,397.4947622000036,None,,,397.5105879000039,397.5105879000039,397.5105879000039,1.2886487000068882,0.1440825999889057,,,,,,,,,,,,,,,,,,,,,,,,,,,,,,,,,,,00025,001,2026-01-20_19h03.31.875,MST_task,2024.2.0,60.04895190258923,2026-01-20 19h03.39.499711 +0530,
2,practice_images/031a.jpg,8,8,1,f,None,,,1.91646480000054,0.12058750000142027,,,,,,,1,8,8,,,,397.5105879000039,,,,,,,,,,,,,,,,,,,,,,,397.49503099999856,397.5105879000039,398.01082250000036,397.9944020999974,397.99962999999116,398.01082250000036,398.01082250000036,398.01082250000036,400.9943035000033,f,400.994497599997,,,400.99456759999157,None,,,401.01074759999756,401.01074759999756,401.01074759999756,1.91646480000054,0.12058750000142027,,,,,,,,,,,,,,,,,,,,,,,,,,,,,,,,,,,00025,001,2026-01-20_19h03.31.875,MST_task,2024.2.0,60.04895190258923,2026-01-20 19h03.39.499711 +0530,
5,practice_images/139a.jpg,9,9,1,j,None,,,2.4570777000044473,0.1359725999936927,,,,,,,1,9,9,,,,401.01074759999756,,,,,,,,,,,,,,,,,,,,,,,400.99486569999135,401.01074759999756,401.5108137999923,401.4943704000034,401.49975170000107,401.5108137999923,401.5108137999923,401.5108137999923,404.49456789999385,j,404.4947517999972,,,404.49481540000124,None,,,404.5107397999964,404.5107397999964,404.5107397999964,2.4570777000044473,0.1359725999936927,,,,,,,,,,,,,,,,,,,,,,,,,,,,,,,,,,,00025,001,2026-01-20_19h03.31.875,MST_task,2024.2.0,60.04895190258923,2026-01-20 19h03.39.499711 +0530,
,,,,,,,,,,,,,,,,,,,,,,,,,,,,,,,,,,,,,,,,,,,,,,,,,,,,,,,,,,,,,,,,,,,,404.4949993999908,404.5107397999964,404.5107397999964,419.0775685999979,space,14.552640699999756,None,,,,,,,,,,,,,,,,,,,,,,,,,,,,00025,001,2026-01-20_19h03.31.875,MST_task,2024.2.0,60.04895190258923,2026-01-20 19h03.39.499711 +0530,
,Objects\171a.jpg,0,0,1,,,,,,,f,1.1659136000089347,0.1440044999908423,None,,,,,,1,0,0,419.0937305999978,,,,,,,,,,,,,,,,,,,,,,,419.0808248999965,419.0937305999978,419.5939437999914,419.5773072000011,,,,,,,,,,,,,,,,,,,,,,,,,,419.5899519999948,419.5939437999914,419.5939437999914,419.5939437999914,422.5937846000015,422.5937846000015,422.5937846000015,422.5783189999929,f,1.1659136000089347,0.1440044999908423,422.5848781999957,422.5849292999919,None,,,,,,,,,,,,,,00025,001,2026-01-20_19h03.31.875,MST_task,2024.2.0,60.04895190258923,2026-01-20 19h03.39.499711 +0530,
,Objects\124a.jpg,1,0,2,,,,,,,f,2.753787599998759,0.13581530000374187,None,,,,,,2,0,1,422.5937846000015,,,,,,,,,,,,,,,,,,,,,,,422.5851595999993,422.5937846000015,423.09389889999875,423.0772808000038,,,,,,,,,,,,,,,,,,,,,,,,,,423.08712879999075,423.09389889999875,423.09389889999875,423.09389889999875,426.0939872000017,426.0939872000017,426.0939872000017,426.0784125999926,f,2.753787599998759,0.13581530000374187,426.0786247999931,426.07868629999575,None,,,,,,,,,,,,,,00025,001,2026-01-20_19h03.31.875,MST_task,2024.2.0,60.04895190258923,2026-01-20 19h03.39.499711 +0530,
,Objects\069a.jpg,2,0,3,,,,,,,j,1.389452600007644,0.14368150000518654,None,,,,,,3,0,2,426.0939872000017,,,,,,,,,,,,,,,,,,,,,,,426.0790738999931,426.0939872000017,426.59420029999455,426.5776668000035,,,,,,,,,,,,,,,,,,,,,,,,,,426.58762469999783,426.59420029999455,426.59420029999455,426.59420029999455,429.5939645000035,429.5939645000035,429.5939645000035,429.5784571999975,j,1.389452600007644,0.14368150000518654,429.5786752999993,429.578743799997,None,,,,,,,,,,,,,,00025,001,2026-01-20_19h03.31.875,MST_task,2024.2.0,60.04895190258923,2026-01-20 19h03.39.499711 +0530,
,Objects\078a.jpg,3,0,4,,,,,,,None,,,j,0.7372139000071911,None,,,,4,0,3,429.5939645000035,,,,,,,,,,,,,,,,,,,,,,,429.5791576999909,429.5939645000035,430.09420300000056,430.07768580000266,,,,,,,,,,,,,,,,,,,,,,,,,,430.08752499999537,430.09420300000056,430.09420300000056,430.09420300000056,433.09397859999444,433.09397859999444,433.09397859999444,433.0784638999903,None,,,433.0786434000038,433.84448050000356,j,433.09397859999444,433.09397859999444,0.7372139000071911,None,,,,,,,,,,00025,001,2026-01-20_19h03.31.875,MST_task,2024.2.0,60.04895190258923,2026-01-20 19h03.39.499711 +0530,
,Objects\167a.jpg,4,0,5,,,,,,,f,1.7823322000040207,0.16818619999685325,None,,,,,,5,0,4,433.86099859999376,,,,,,,,,,,,,,,,,,,,,,,433.8448325999925,433.86099859999376,434.360918499995,434.34421779999684,,,,,,,,,,,,,,,,,,,,,,,,,,434.35369059999357,434.360918499995,434.360918499995,434.360918499995,437.360308599993,437.360308599993,437.360308599993,437.34520460000203,f,1.7823322000040207,0.16818619999685325,437.3454034000024,437.34546850000334,None,,,,,,,,,,,,,,00025,001,2026-01-20_19h03.31.875,MST_task,2024.2.0,60.04895190258923,2026-01-20 19h03.39.499711 +0530,
,Objects\116a.jpg,5,0,6,,,,,,,None,,,f,0.6508969999995315,None,,,,6,0,5,437.360308599993,,,,,,,,,,,,,,,,,,,,,,,437.3457764999912,437.360308599993,437.8605163000029,437.844448799995,,,,,,,,,,,,,,,,,,,,,,,,,,437.85132180000073,437.8605163000029,437.8605163000029,437.8605163000029,440.86033110000426,440.86033110000426,440.86033110000426,440.84526390000246,None,,,440.84544779999123,441.5276726000011,f,440.86033110000426,440.86033110000426,0.6508969999995315,None,,,,,,,,,,00025,001,2026-01-20_19h03.31.875,MST_task,2024.2.0,60.04895190258923,2026-01-20 19h03.39.499711 +0530,
,Objects\170a.jpg,6,0,7,,,,,,,f,2.779560599999968,0.13608159999421332,None,,,,,,7,0,6,441.5438312999904,,,,,,,,,,,,,,,,,,,,,,,441.5281313000014,441.5438312999904,442.0442336999986,442.0272702999937,,,,,,,,,,,,,,,,,,,,,,,,,,442.03669880000234,442.0442336999986,442.0442336999986,442.0442336999986,445.0438017999986,445.0438017999986,445.0438017999986,445.02816509999684,f,2.779560599999968,0.13608159999421332,445.02836260000186,445.02842479999526,None,,,,,,,,,,,,,,00025,001,2026-01-20_19h03.31.875,MST_task,2024.2.0,60.04895190258923,2026-01-20 19h03.39.499711 +0530,
,Scenes\026a.jpg,7,0,8,,,,,,,j,1.3784811000077752,0.16789139999309555,None,,,,,,8,0,7,445.0438017999986,,,,,,,,,,,,,,,,,,,,,,,445.02872539999953,445.0438017999986,445.5488633999921,445.5279589999991,,,,,,,,,,,,,,,,,,,,,,,,,,445.54620989999967,445.5488633999921,445.5488633999921,445.5488633999921,,,,448.5441157000023,j,1.3784811000077752,0.16789139999309555,448.54431679999107,448.5443816999905,None,,,,,,,,,,,,,,00025,001,2026-01-20_19h03.31.875,MST_task,2024.2.0,60.04895190258923,2026-01-20 19h03.39.499711 +0530,
,Scenes\173a.jpg,8,0,9,,,,,,,j,1.329640500000096,0.11967770000046585,None,,,,,,9,0,8,448.56062789999123,,,,,,,,,,,,,,,,,,,,,,,448.5446789999987,448.56062789999123,449.06224459999066,449.04440869999235,,,,,,,,,,,,,,,,,,,,,,,,,,449.059482800003,449.06224459999066,449.06224459999066,449.06224459999066,,,,452.04512460000115,j,1.329640500000096,0.11967770000046585,452.045334800001,452.04540299999644,None,,,,,,,,,,,,,,00025,001,2026-01-20_19h03.31.875,MST_task,2024.2.0,60.04895190258923,2026-01-20 19h03.39.499711 +0530,
,Scenes\168a.jpg,9,0,10,,,,,,,j,1.7817787999956636,0.15189170000667218,None,,,,,,10,0,9,452.0606592999975,,,,,,,,,,,,,,,,,,,,,,,452.0456989999948,452.0606592999975,452.56147719999717,452.54440529999556,,,,,,,,,,,,,,,,,,,,,,,,,,452.5585788000026,452.56147719999717,452.56147719999717,452.56147719999717,455.56067199999234,455.56067199999234,455.56067199999234,455.5452338000032,j,1.7817787999956636,0.15189170000667218,455.5454381000018,455.54549899999984,None,,,,,,,,,,,,,,00025,001,2026-01-20_19h03.31.875,MST_task,2024.2.0,60.04895190258923,2026-01-20 19h03.39.499711 +0530,
,Scenes\004a.jpg,10,0,11,,,,,,,j,1.2694416000013007,0.1683958000066923,None,,,,,,11,0,10,455.56067199999234,,,,,,,,,,,,,,,,,,,,,,,455.5458054999908,455.56067199999234,456.06602980000025,456.04421169999114,,,,,,,,,,,,,,,,,,,,,,,,,,456.06335039999976,456.06602980000025,456.06602980000025,456.06602980000025,,,,459.06104620000406,j,1.2694416000013007,0.1683958000066923,459.0612506000034,459.061317899992,None,,,,,,,,,,,,,,00025,001,2026-01-20_19h03.31.875,MST_task,2024.2.0,60.04895190258923,2026-01-20 19h03.39.499711 +0530,
,Scenes\130a.jpg,11,0,12,,,,,,,j,1.4095536000095308,0.14458680000097957,None,,,,,,12,0,11,459.0768964000017,,,,,,,,,,,,,,,,,,,,,,,459.06169629999204,459.0768964000017,459.5817406999995,459.5606909999915,,,,,,,,,,,,,,,,,,,,,,,,,,459.5788748999912,459.5817406999995,459.5817406999995,459.5817406999995,,,,462.5776593000046,j,1.4095536000095308,0.14458680000097957,462.577893099995,462.57796500000404,None,,,,,,,,,,,,,,00025,001,2026-01-20_19h03.31.875,MST_task,2024.2.0,60.04895190258923,2026-01-20 19h03.39.499711 +0530,
,Scenes\162a.jpg,12,0,13,,,,,,,j,1.6590858999988995,0.11959370000113267,None,,,,,,13,0,12,462.59398710000096,,,,,,,,,,,,,,,,,,,,,,,462.57829499999934,462.59398710000096,463.1005528999958,463.07762039999943,,,,,,,,,,,,,,,,,,,,,,,,,,463.0974523999903,463.1005528999958,463.1005528999958,463.1005528999958,,,,466.0943791000027,j,1.6590858999988995,0.11959370000113267,466.0946014999936,466.09467530000256,None,,,,,,,,,,,,,,00025,001,2026-01-20_19h03.31.875,MST_task,2024.2.0,60.04895190258923,2026-01-20 19h03.39.499711 +0530,
,Scenes\001a.jpg,13,0,14,,,,,,,None,,,f,0.6359129999909783,None,,,,14,0,13,466.1106686999992,,,,,,,,,,,,,,,,,,,,,,,466.0950645999983,466.1106686999992,466.6156386999937,466.5944759999984,,,,,,,,,,,,,,,,,,,,,,,,,,466.61299660000077,466.6156386999937,466.6156386999937,466.6156386999937,,,,469.6110445999948,None,,,469.61123999999836,470.27784759999486,f,469.62725540000247,469.62725540000247,0.6359129999909783,None,,,,,,,,,,00025,001,2026-01-20_19h03.31.875,MST_task,2024.2.0,60.04895190258923,2026-01-20 19h03.39.499711 +0530,
,Objects\008a.jpg,14,0,15,,,,,,,None,,,f,0.510035000013886,None,,,,15,0,14,470.2940013000043,,,,,,,,,,,,,,,,,,,,,,,470.27841790000093,470.2940013000043,470.7940227999934,470.7772840999969,,,,,,,,,,,,,,,,,,,,,,,,,,470.7905749999918,470.7940227999934,470.7940227999934,470.7940227999934,473.79377459999523,473.79377459999523,473.79377459999523,473.7783830999979,None,,,473.7785584999947,474.31119449999824,f,473.79377459999523,473.79377459999523,0.510035000013886,None,,,,,,,,,,00025,001,2026-01-20_19h03.31.875,MST_task,2024.2.0,60.04895190258923,2026-01-20 19h03.39.499711 +0530,
,Objects\168a.jpg,15,0,16,,,,,,,None,,,f,0.06847660000494216,None,,,,16,0,15,474.3272444000031,,,,,,,,,,,,,,,,,,,,,,,474.3117626000021,474.3272444000031,474.8274539999984,474.8107186999987,,,,,,,,,,,,,,,,,,,,,,,,,,474.8173517999967,474.8274539999984,474.8274539999984,474.8274539999984,477.8268048000027,477.8268048000027,477.8268048000027,477.81146250000165,None,,,477.81165930000134,477.9111743999965,f,477.8268048000027,477.8268048000027,0.06847660000494216,None,,,,,,,,,,00025,001,2026-01-20_19h03.31.875,MST_task,2024.2.0,60.04895190258923,2026-01-20 19h03.39.499711 +0530,
,Objects\086a.jpg,16,0,17,,,,,,,f,2.251986000002944,0.14396129999659024,None,,,,,,17,0,16,477.92724199999066,,,,,,,,,,,,,,,,,,,,,,,477.9116379000043,477.92724199999066,478.42746209999314,478.41103940000175,,,,,,,,,,,,,,,,,,,,,,,,,,478.4196785999957,478.42746209999314,478.42746209999314,478.42746209999314,481.42720949999057,481.42720949999057,481.42720949999057,481.411680899997,f,2.251986000002944,0.14396129999659024,481.41187450000143,481.4119347999949,None,,,,,,,,,,,,,,00025,001,2026-01-20_19h03.31.875,MST_task,2024.2.0,60.04895190258923,2026-01-20 19h03.39.499711 +0530,
,Objects\139a.jpg,17,0,18,,,,,,,f,2.4647172999975737,0.15135130000999197,None,,,,,,18,0,17,481.42720949999057,,,,,,,,,,,,,,,,,,,,,,,481.41231230000267,481.42720949999057,481.92711699999927,481.91148290000274,,,,,,,,,,,,,,,,,,,,,,,,,,481.9206017999968,481.92711699999927,481.92711699999927,481.92711699999927,484.927233800001,484.927233800001,484.927233800001,484.9118118000042,f,2.4647172999975737,0.15135130000999197,484.9120152999967,484.91207730000315,None,,,,,,,,,,,,,,00025,001,2026-01-20_19h03.31.875,MST_task,2024.2.0,60.04895190258923,2026-01-20 19h03.39.499711 +0530,
,Objects\082a.jpg,18,0,19,,,,,,,f,2.8043608000007225,0.11998560000211,None,,,,,,19,0,18,484.927233800001,,,,,,,,,,,,,,,,,,,,,,,484.9123785999982,484.927233800001,485.4274465999915,485.4110354000004,,,,,,,,,,,,,,,,,,,,,,,,,,485.4200905000034,485.4274465999915,485.4274465999915,485.4274465999915,488.42723390000174,488.42723390000174,488.42723390000174,488.4116454000032,f,2.8043608000007225,0.11998560000211,488.41184220000287,488.411904099994,None,,,,,,,,,,,,,,00025,001,2026-01-20_19h03.31.875,MST_task,2024.2.0,60.04895190258923,2026-01-20 19h03.39.499711 +0530,
,Objects\015a.jpg,19,0,20,,,,,,,None,,,f,0.5604382000019541,None,,,,20,0,19,488.42723390000174,,,,,,,,,,,,,,,,,,,,,,,488.4122798000026,488.42723390000174,488.92756440000085,488.91174409999803,,,,,,,,,,,,,,,,,,,,,,,,,,488.9184851000027,488.92756440000085,488.92756440000085,488.92756440000085,491.9272698999994,491.9272698999994,491.9272698999994,491.9118817999988,None,,,491.9120619000023,492.4944777999917,f,491.9272698999994,491.9272698999994,0.5604382000019541,None,,,,,,,,,,00025,001,2026-01-20_19h03.31.875,MST_task,2024.2.0,60.04895190258923,2026-01-20 19h03.39.499711 +0530,
,Objects\095a.jpg,20,0,21,,,,,,,f,2.9158629000012297,None,None,,,,,,21,0,20,492.5106322999927,,,,,,,,,,,,,,,,,,,,,,,492.4949363999913,492.5106322999927,493.01133979999577,492.99436679999053,,,,,,,,,,,,,,,,,,,,,,,,,,493.00412779999897,493.01133979999577,493.01133979999577,493.01133979999577,496.0111934000015,496.0111934000015,496.0111934000015,495.99528380000265,f,2.9158629000012297,None,495.99548450000293,495.9955450999987,None,,,,,,,,,,,,,,00025,001,2026-01-20_19h03.31.875,MST_task,2024.2.0,60.04895190258923,2026-01-20 19h03.39.499711 +0530,
,Scenes\052a.jpg,21,0,22,,,,,,,j,1.3275246000121115,0.1525751000008313,None,,,,,,22,0,21,496.0111934000015,,,,,,,,,,,,,,,,,,,,,,,495.99590989999706,496.0111934000015,496.51969879999524,496.4943828999967,,,,,,,,,,,,,,,,,,,,,,,,,,496.51683179999236,496.51969879999524,496.51969879999524,496.51969879999524,,,,499.5110538000008,j,1.3275246000121115,0.1525751000008313,499.5112544000003,499.5113207999966,None,,,,,,,,,,,,,,00025,001,2026-01-20_19h03.31.875,MST_task,2024.2.0,60.04895190258923,2026-01-20 19h03.39.499711 +0530,
,Scenes\122a.jpg,22,0,23,,,,,,,None,,,f,0.6040721999888774,None,,,,23,0,22,499.52723870000045,,,,,,,,,,,,,,,,,,,,,,,499.5116382999986,499.52723870000045,500.03090240000165,500.01103789999615,,,,,,,,,,,,,,,,,,,,,,,,,,500.0282703999983,500.03090240000165,500.03090240000165,500.03090240000165,,,,503.0120112000004,None,,,503.01220759999705,503.64412149999407,f,503.0271494999906,503.0271494999906,0.6040721999888774,None,,,,,,,,,,00025,001,2026-01-20_19h03.31.875,MST_task,2024.2.0,60.04895190258923,2026-01-20 19h03.39.499711 +0530,
,Scenes\041a.jpg,23,0,24,,,,,,,j,1.1573648000048706,0.18405509999138303,None,,,,,,24,0,23,503.66045080000185,,,,,,,,,,,,,,,,,,,,,,,503.6445856999926,503.66045080000185,504.1618087999959,504.1443867999915,,,,,,,,,,,,,,,,,,,,,,,,,,504.15912789999857,504.1618087999959,504.1618087999959,504.1618087999959,,,,507.16087849999894,j,1.1573648000048706,0.18405509999138303,507.1610840999929,507.16115079999145,None,,,,,,,,,,,,,,00025,001,2026-01-20_19h03.31.875,MST_task,2024.2.0,60.04895190258923,2026-01-20 19h03.39.499711 +0530,
,Scenes\012a.jpg,24,0,25,,,,,,,j,1.1437408000056166,0.18451989999448415,None,,,,,,25,0,24,507.1768980999914,,,,,,,,,,,,,,,,,,,,,,,507.1614511999942,507.1768980999914,507.679575999995,507.66072749999876,,,,,,,,,,,,,,,,,,,,,,,,,,507.67695919999096,507.679575999995,507.679575999995,507.679575999995,,,,510.67757440000423,j,1.1437408000056166,0.18451989999448415,510.677803700004,510.6778765999916,None,,,,,,,,,,,,,,00025,001,2026-01-20_19h03.31.875,MST_task,2024.2.0,60.04895190258923,2026-01-20 19h03.39.499711 +0530,
,Scenes\131a.jpg,25,0,26,,,,,,,j,1.181442999994033,0.1673233000037726,None,,,,,,26,0,25,510.6936318999942,,,,,,,,,,,,,,,,,,,,,,,510.67831540000043,510.6936318999942,511.1943992000015,511.1773108999914,,,,,,,,,,,,,,,,,,,,,,,,,,511.1895189999923,511.1943992000015,511.1943992000015,511.1943992000015,,,,514.178228299992,j,1.181442999994033,0.1673233000037726,514.178433699999,514.1785013999906,None,,,,,,,,,,,,,,00025,001,2026-01-20_19h03.31.875,MST_task,2024.2.0,60.04895190258923,2026-01-20 19h03.39.499711 +0530,
,Scenes\022a.jpg,26,0,27,,,,,,,j,1.9128037000045879,0.152414600001066,None,,,,,,27,0,26,514.1939170999976,,,,,,,,,,,,,,,,,,,,,,,514.1787970000005,514.1939170999976,514.6945888999908,514.6776753000013,,,,,,,,,,,,,,,,,,,,,,,,,,514.6874657000008,514.6945888999908,514.6945888999908,514.6945888999908,517.6939775999926,517.6939775999926,517.6939775999926,517.6785968999902,j,1.9128037000045879,0.152414600001066,517.6788180000003,517.6788845999981,None,,,,,,,,,,,,,,00025,001,2026-01-20_19h03.31.875,MST_task,2024.2.0,60.04895190258923,2026-01-20 19h03.39.499711 +0530,
,Scenes\108a.jpg,27,0,28,,,,,,,None,,,j,1.0206426000077045,None,,,,28,0,27,517.6939775999926,,,,,,,,,,,,,,,,,,,,,,,517.6792959000013,517.6939775999926,518.1964183999953,518.177440799991,,,,,,,,,,,,,,,,,,,,,,,,,,518.1937693999935,518.1964183999953,518.1964183999953,518.1964183999953,,,,521.1941939999961,None,,,521.1943879000028,522.2443134999921,j,521.2105376999971,521.2105376999971,1.0206426000077045,None,,,,,,,,,,00025,001,2026-01-20_19h03.31.875,MST_task,2024.2.0,60.04895190258923,2026-01-20 19h03.39.499711 +0530,
,Objects\039a.jpg,28,0,29,,,,,,,f,1.6301801000081468,0.16038469999330118,None,,,,,,29,0,28,522.2606412000023,,,,,,,,,,,,,,,,,,,,,,,522.2445164999954,522.2606412000023,522.761218899992,522.7443600999977,,,,,,,,,,,,,,,,,,,,,,,,,,522.7540879000007,522.761218899992,522.761218899992,522.761218899992,525.7604533999984,525.7604533999984,525.7604533999984,525.7449507999991,f,1.6301801000081468,0.16038469999330118,525.7451488999941,525.7452118999936,None,,,,,,,,,,,,,,00025,001,2026-01-20_19h03.31.875,MST_task,2024.2.0,60.04895190258923,2026-01-20 19h03.39.499711 +0530,
,Objects\017a.jpg,29,0,30,,,,,,,None,,,f,0.8347353999997722,None,,,,30,0,29,525.7604533999984,,,,,,,,,,,,,,,,,,,,,,,525.7455961999949,525.7604533999984,526.2609414000035,526.244375299997,,,,,,,,,,,,,,,,,,,,,,,,,,526.2528583999956,526.2609414000035,526.2609414000035,526.2609414000035,529.2606415999908,529.2606415999908,529.2606415999908,529.2451655999903,None,,,529.2453452000045,530.111169900003,f,529.2606415999908,529.2606415999908,0.8347353999997722,None,,,,,,,,,,00025,001,2026-01-20_19h03.31.875,MST_task,2024.2.0,60.04895190258923,2026-01-20 19h03.39.499711 +0530,
,Objects\094a.jpg,30,0,31,,,,,,,f,2.156311300001107,0.10431099998822901,None,,,,,,31,0,30,530.1272396999993,,,,,,,,,,,,,,,,,,,,,,,530.111515800003,530.1272396999993,530.6274600000033,530.6110514000029,,,,,,,,,,,,,,,,,,,,,,,,,,530.6199046999973,530.6274600000033,530.6274600000033,530.6274600000033,,,,533.6121571999975,f,2.156311300001107,0.10431099998822901,533.6123627999914,533.6124307999999,None,,,,,,,,,,,,,,00025,001,2026-01-20_19h03.31.875,MST_task,2024.2.0,60.04895190258923,2026-01-20 19h03.39.499711 +0530,
,Objects\025a.jpg,31,0,32,,,,,,,None,,,f,1.7039953999919817,None,,,,32,0,31,533.6272319999989,,,,,,,,,,,,,,,,,,,,,,,533.6128061999916,533.6272319999989,534.127376199991,534.1111320999917,,,,,,,,,,,,,,,,,,,,,,,,,,534.1199600999971,534.127376199991,534.127376199991,534.127376199991,537.1272536000033,537.1272536000033,537.1272536000033,537.1119039000041,None,,,537.1120928000018,538.8443407000013,f,537.1272536000033,537.1272536000033,1.7039953999919817,None,,,,,,,,,,00025,001,2026-01-20_19h03.31.875,MST_task,2024.2.0,60.04895190258923,2026-01-20 19h03.39.499711 +0530,
,Objects\005a.jpg,32,0,33,,,,,,,f,2.159327999994275,0.11139720000210218,None,,,,,,33,0,32,538.8604055000033,,,,,,,,,,,,,,,,,,,,,,,538.844800299994,538.8604055000033,539.3604009999981,539.3441394999973,,,,,,,,,,,,,,,,,,,,,,,,,,539.3533043999923,539.3604009999981,539.3604009999981,539.3604009999981,542.3603755999939,542.3603755999939,542.3603755999939,542.3452175999992,f,2.159327999994275,0.11139720000210218,542.3454135999928,542.3454934000038,None,,,,,,,,,,,,,,00025,001,2026-01-20_19h03.31.875,MST_task,2024.2.0,60.04895190258923,2026-01-20 19h03.39.499711 +0530,
,Objects\044a.jpg,33,0,34,,,,,,,f,1.970417600008659,0.1437796999962302,None,,,,,,34,0,33,542.3603755999939,,,,,,,,,,,,,,,,,,,,,,,542.3458702999924,542.3603755999939,542.8608740999916,542.8443785999989,,,,,,,,,,,,,,,,,,,,,,,,,,542.8526808000024,542.8608740999916,542.8608740999916,542.8608740999916,545.8602898999961,545.8602898999961,545.8602898999961,545.844821199993,f,1.970417600008659,0.1437796999962302,545.8450097000023,545.8450654000044,None,,,,,,,,,,,,,,00025,001,2026-01-20_19h03.31.875,MST_task,2024.2.0,60.04895190258923,2026-01-20 19h03.39.499711 +0530,
,Objects\172a.jpg,34,0,35,,,,,,,j,1.2788824000017485,0.16736020000826102,None,,,,,,35,0,34,545.8602898999961,,,,,,,,,,,,,,,,,,,,,,,545.8453356999962,545.8602898999961,546.3608946000022,546.3443870999909,,,,,,,,,,,,,,,,,,,,,,,,,,546.3508411999937,546.3608946000022,546.3608946000022,546.3608946000022,549.3606412999943,549.3606412999943,549.3606412999943,549.3451367999951,j,1.2788824000017485,0.16736020000826102,549.345338500003,549.3453987999965,None,,,,,,,,,,,,,,00025,001,2026-01-20_19h03.31.875,MST_task,2024.2.0,60.04895190258923,2026-01-20 19h03.39.499711 +0530,
,Scenes\124a.jpg,35,0,36,,,,,,,f,1.842429299998912,0.14374620000307914,None,,,,,,36,0,35,549.3606412999943,,,,,,,,,,,,,,,,,,,,,,,549.3457790999964,549.3606412999943,549.8609596000024,549.8443793999904,,,,,,,,,,,,,,,,,,,,,,,,,,549.8579685000004,549.8609596000024,549.8609596000024,549.8609596000024,552.8606550999975,552.8606550999975,552.8606550999975,552.845307800002,f,1.842429299998912,0.14374620000307914,552.8455058999971,552.845567700002,None,,,,,,,,,,,,,,00025,001,2026-01-20_19h03.31.875,MST_task,2024.2.0,60.04895190258923,2026-01-20 19h03.39.499711 +0530,
,Scenes\053a.jpg,36,0,37,,,,,,,j,1.3425524000049336,0.16799610000452958,None,,,,,,37,0,36,552.8606550999975,,,,,,,,,,,,,,,,,,,,,,,552.8459442000021,552.8606550999975,553.3611968000041,553.344437199994,,,,,,,,,,,,,,,,,,,,,,,,,,553.3528462999966,553.3611968000041,553.3611968000041,553.3611968000041,556.3604890999995,556.3604890999995,556.3604890999995,556.3449947999907,j,1.3425524000049336,0.16799610000452958,556.3451950000017,556.3452556999982,None,,,,,,,,,,,,,,00025,001,2026-01-20_19h03.31.875,MST_task,2024.2.0,60.04895190258923,2026-01-20 19h03.39.499711 +0530,
,Scenes\097a.jpg,37,0,38,,,,,,,f,2.138366800005315,0.12036149999767076,None,,,,,,38,0,37,556.3604890999995,,,,,,,,,,,,,,,,,,,,,,,556.3456502999907,556.3604890999995,556.8610041999927,556.8443852999917,,,,,,,,,,,,,,,,,,,,,,,,,,556.8530954000016,556.8610041999927,556.8610041999927,556.8610041999927,559.8606524999923,559.8606524999923,559.8606524999923,559.8452780999942,f,2.138366800005315,0.12036149999767076,559.8454913000023,559.8455586999917,None,,,,,,,,,,,,,,00025,001,2026-01-20_19h03.31.875,MST_task,2024.2.0,60.04895190258923,2026-01-20 19h03.39.499711 +0530,
,Scenes\183a.jpg,38,0,39,,,,,,,f,1.2051532000041334,0.17536130000371486,None,,,,,,39,0,38,559.8606524999923,,,,,,,,,,,,,,,,,,,,,,,559.8459813999943,559.8606524999923,560.3626355000015,560.3439398999908,,,,,,,,,,,,,,,,,,,,,,,,,,560.3598420999915,560.3626355000015,560.3626355000015,560.3626355000015,,,,563.3610806999932,f,1.2051532000041334,0.17536130000371486,563.3612990999973,563.3613669999904,None,,,,,,,,,,,,,,00025,001,2026-01-20_19h03.31.875,MST_task,2024.2.0,60.04895190258923,2026-01-20 19h03.39.499711 +0530,
,Scenes\024a.jpg,39,0,40,,,,,,,j,1.2495992999902228,0.1605102000030456,None,,,,,,40,0,39,563.3782136999944,,,,,,,,,,,,,,,,,,,,,,,563.3617646999919,563.3782136999944,563.8776612999936,563.8609846000036,,,,,,,,,,,,,,,,,,,,,,,,,,563.8744940000033,563.8776612999936,563.8776612999936,563.8776612999936,566.8772623999976,566.8772623999976,566.8772623999976,566.8619075000024,j,1.2495992999902228,0.1605102000030456,566.8621195000014,566.8621847000031,None,,,,,,,,,,,,,,00025,001,2026-01-20_19h03.31.875,MST_task,2024.2.0,60.04895190258923,2026-01-20 19h03.39.499711 +0530,
,Scenes\164a.jpg,40,0,41,,,,,,,None,,,f,0.22179650000180118,None,,,,41,0,40,566.8772623999976,,,,,,,,,,,,,,,,,,,,,,,566.8626004999969,566.8772623999976,567.3792331000004,567.3610214999935,,,,,,,,,,,,,,,,,,,,,,,,,,567.3764387999981,567.3792331000004,567.3792331000004,567.3792331000004,,,,570.3775540999923,None,,,570.3777351000026,570.6274872999929,f,570.3939888000023,570.3939888000023,0.22179650000180118,None,,,,,,,,,,00025,001,2026-01-20_19h03.31.875,MST_task,2024.2.0,60.04895190258923,2026-01-20 19h03.39.499711 +0530,
,Scenes\040a.jpg,41,0,42,,,,,,,f,1.596052699998836,0.14467310000327416,None,,,,,,42,0,41,570.6436085000023,,,,,,,,,,,,,,,,,,,,,,,570.6279358000029,570.6436085000023,571.1470583999908,571.1276482999965,,,,,,,,,,,,,,,,,,,,,,,,,,571.144358599995,571.1470583999908,571.1470583999908,571.1470583999908,,,,574.1443642999948,f,1.596052699998836,0.14467310000327416,574.1445726999955,574.1446406000032,None,,,,,,,,,,,,,,00025,001,2026-01-20_19h03.31.875,MST_task,2024.2.0,60.04895190258923,2026-01-20 19h03.39.499711 +0530,
,Objects\071a.jpg,42,0,43,,,,,,,f,1.9538338000129443,0.13597579998895526,None,,,,,,43,0,42,574.1606702999998,,,,,,,,,,,,,,,,,,,,,,,574.1450114000036,574.1606702999998,574.6619120999967,574.6443524999922,,,,,,,,,,,,,,,,,,,,,,,,,,574.6565327999997,574.6619120999967,574.6619120999967,574.6619120999967,,,,577.6610712999973,f,1.9538338000129443,0.13597579998895526,577.6612836999993,577.6613510000025,None,,,,,,,,,,,,,,00025,001,2026-01-20_19h03.31.875,MST_task,2024.2.0,60.04895190258923,2026-01-20 19h03.39.499711 +0530,
,Objects\054a.jpg,43,0,44,,,,,,,f,1.246417599992128,0.16883910000615288,None,,,,,,44,0,43,577.6772001999925,,,,,,,,,,,,,,,,,,,,,,,577.6617314000032,577.6772001999925,578.1768981999921,578.1606942999933,,,,,,,,,,,,,,,,,,,,,,,,,,578.1663724999962,578.1768981999921,578.1768981999921,578.1768981999921,581.1772476000042,581.1772476000042,581.1772476000042,581.1619132999913,f,1.246417599992128,0.16883910000615288,581.1621150999999,581.1621770999918,None,,,,,,,,,,,,,,00025,001,2026-01-20_19h03.31.875,MST_task,2024.2.0,60.04895190258923,2026-01-20 19h03.39.499711 +0530,
,Objects\130a.jpg,44,0,45,,,,,,,f,0.9542027999996208,0.12804069998674095,None,,,,,,45,0,44,581.1772476000042,,,,,,,,,,,,,,,,,,,,,,,581.162559000004,581.1772476000042,581.6775091000018,581.6608199000038,,,,,,,,,,,,,,,,,,,,,,,,,,581.6697557000007,581.6775091000018,581.6775091000018,581.6775091000018,584.6772555999923,584.6772555999923,584.6772555999923,584.6618251000036,f,0.9542027999996208,0.12804069998674095,584.6620210999972,584.6620825999998,None,,,,,,,,,,,,,,00025,001,2026-01-20_19h03.31.875,MST_task,2024.2.0,60.04895190258923,2026-01-20 19h03.39.499711 +0530,
,Objects\166a.jpg,45,0,46,,,,,,,f,1.2536990999942645,0.14413440000498667,None,,,,,,46,0,45,584.6772555999923,,,,,,,,,,,,,,,,,,,,,,,584.6623849000025,584.6772555999923,585.1774070999963,585.1609633000044,,,,,,,,,,,,,,,,,,,,,,,,,,585.1698674999934,585.1774070999963,585.1774070999963,585.1774070999963,588.1772630999913,588.1772630999913,588.1772630999913,588.1619001999934,f,1.2536990999942645,0.14413440000498667,588.1621141999931,588.1621825000038,None,,,,,,,,,,,,,,00025,001,2026-01-20_19h03.31.875,MST_task,2024.2.0,60.04895190258923,2026-01-20 19h03.39.499711 +0530,
,Objects\064a.jpg,46,0,47,,,,,,,f,1.9536779000045499,0.14396819999092259,None,,,,,,47,0,46,588.1772630999913,,,,,,,,,,,,,,,,,,,,,,,588.1626040999981,588.1772630999913,588.6774666999991,588.6608042000007,,,,,,,,,,,,,,,,,,,,,,,,,,588.669433499992,588.6774666999991,588.6774666999991,588.6774666999991,591.6769234999956,591.6769234999956,591.6769234999956,591.6618294999935,f,1.9536779000045499,0.14396819999092259,591.6620735000033,591.6621363000013,None,,,,,,,,,,,,,,00025,001,2026-01-20_19h03.31.875,MST_task,2024.2.0,60.04895190258923,2026-01-20 19h03.39.499711 +0530,
,Objects\156a.jpg,47,0,48,,,,,,,f,0.925323200004641,0.12792759999865666,None,,,,,,48,0,47,591.6769234999956,,,,,,,,,,,,,,,,,,,,,,,591.6625149000029,591.6769234999956,592.1938877999928,592.1611091999948,,,,,,,,,,,,,,,,,,,,,,,,,,592.1916084999975,592.1938877999928,592.1938877999928,592.1938877999928,,,,595.1773055999947,f,0.925323200004641,0.12792759999865666,595.1775132000039,595.1775799000025,None,,,,,,,,,,,,,,00025,001,2026-01-20_19h03.31.875,MST_task,2024.2.0,60.04895190258923,2026-01-20 19h03.39.499711 +0530,
,Objects\099a.jpg,48,0,49,,,,,,,f,1.3615031000081217,0.10329250000359025,None,,,,,,49,0,48,595.193979299991,,,,,,,,,,,,,,,,,,,,,,,595.1778909999994,595.193979299991,595.6942181999912,595.6776645999926,,,,,,,,,,,,,,,,,,,,,,,,,,595.6880643999903,595.6942181999912,595.6942181999912,595.6942181999912,598.6939877999976,598.6939877999976,598.6939877999976,598.6784918999911,f,1.3615031000081217,0.10329250000359025,598.6786943000043,598.6787562999962,None,,,,,,,,,,,,,,00025,001,2026-01-20_19h03.31.875,MST_task,2024.2.0,60.04895190258923,2026-01-20 19h03.39.499711 +0530,
,Scenes\149a.jpg,49,0,50,,,,,,,f,1.4660329000034835,0.14421310000761878,None,,,,,,50,0,49,598.6939877999976,,,,,,,,,,,,,,,,,,,,,,,598.6790597999934,598.6939877999976,599.1973727000004,599.1776111999934,,,,,,,,,,,,,,,,,,,,,,,,,,599.1946503999934,599.1973727000004,599.1973727000004,599.1973727000004,,,,602.1944041999959,f,1.4660329000034835,0.14421310000761878,602.1946190000017,602.194689099997,None,,,,,,,,,,,,,,00025,001,2026-01-20_19h03.31.875,MST_task,2024.2.0,60.04895190258923,2026-01-20 19h03.39.499711 +0530,
,Scenes\178a.jpg,50,0,51,,,,,,,j,1.6405394000030356,0.12731569999596104,None,,,,,,51,0,50,602.2106716999988,,,,,,,,,,,,,,,,,,,,,,,602.1950042999961,602.2106716999988,602.711229499997,602.6943916000018,,,,,,,,,,,,,,,,,,,,,,,,,,602.7085411000007,602.711229499997,602.711229499997,602.711229499997,605.7106544999988,605.7106544999988,605.7106544999988,605.6951260999922,j,1.6405394000030356,0.12731569999596104,605.695324699991,605.6953853000014,None,,,,,,,,,,,,,,00025,001,2026-01-20_19h03.31.875,MST_task,2024.2.0,60.04895190258923,2026-01-20 19h03.39.499711 +0530,
,Scenes\093a.jpg,51,0,52,,,,,,,f,1.0655530999938492,0.1763381000055233,None,,,,,,52,0,51,605.7106544999988,,,,,,,,,,,,,,,,,,,,,,,605.6957074999955,605.7106544999988,606.2137475999916,606.1944407999981,,,,,,,,,,,,,,,,,,,,,,,,,,606.2111066999933,606.2137475999916,606.2137475999916,606.2137475999916,,,,609.210934399991,f,1.0655530999938492,0.1763381000055233,609.2111703999981,609.2112429999979,None,,,,,,,,,,,,,,00025,001,2026-01-20_19h03.31.875,MST_task,2024.2.0,60.04895190258923,2026-01-20 19h03.39.499711 +0530,
,Scenes\089a.jpg,52,0,53,,,,,,,j,2.021866399998544,0.13550600000598934,None,,,,,,53,0,52,609.2271773999964,,,,,,,,,,,,,,,,,,,,,,,609.2116517999966,609.2271773999964,609.7298646999989,609.7109036000038,,,,,,,,,,,,,,,,,,,,,,,,,,609.7270644999953,609.7298646999989,609.7298646999989,609.7298646999989,,,,612.7277088999981,j,2.021866399998544,0.13550600000598934,612.7279113999975,612.7279770000023,None,,,,,,,,,,,,,,00025,001,2026-01-20_19h03.31.875,MST_task,2024.2.0,60.04895190258923,2026-01-20 19h03.39.499711 +0530,
,Scenes\073a.jpg,53,0,54,,,,,,,j,1.0847230000072159,0.17608879999897908,None,,,,,,54,0,53,612.7440270999941,,,,,,,,,,,,,,,,,,,,,,,612.7282717999915,612.7440270999941,613.2506182999932,613.2276896999974,,,,,,,,,,,,,,,,,,,,,,,,,,613.2479806999909,613.2506182999932,613.2506182999932,613.2506182999932,,,,616.2442056,j,1.0847230000072159,0.17608879999897908,616.244409299994,616.2444754000026,None,,,,,,,,,,,,,,00025,001,2026-01-20_19h03.31.875,MST_task,2024.2.0,60.04895190258923,2026-01-20 19h03.39.499711 +0530,
,Scenes\061a.jpg,54,0,55,,,,,,,j,0.8384772999997949,0.11998269999457989,None,,,,,,55,0,54,616.2606753,,,,,,,,,,,,,,,,,,,,,,,616.2448441000015,616.2606753,616.7612172999943,616.7444469000038,,,,,,,,,,,,,,,,,,,,,,,,,,616.7518768000009,616.7612172999943,616.7612172999943,616.7612172999943,619.7604917999997,619.7604917999997,619.7604917999997,619.7452198999963,j,0.8384772999997949,0.11998269999457989,619.745433899996,619.7454960000032,None,,,,,,,,,,,,,,00025,001,2026-01-20_19h03.31.875,MST_task,2024.2.0,60.04895190258923,2026-01-20 19h03.39.499711 +0530,
,Scenes\055a.jpg,55,0,56,,,,,,,j,1.6413928999972995,0.13622190000023693,None,,,,,,56,0,55,619.7604917999997,,,,,,,,,,,,,,,,,,,,,,,619.745871799998,619.7604917999997,620.2619242999936,620.2442059000023,,,,,,,,,,,,,,,,,,,,,,,,,,620.2591926000023,620.2619242999936,620.2619242999936,620.2619242999936,,,,623.2611072,j,1.6413928999972995,0.13622190000023693,623.2613271000009,623.2613941000018,None,,,,,,,,,,,,,,00025,001,2026-01-20_19h03.31.875,MST_task,2024.2.0,60.04895190258923,2026-01-20 19h03.39.499711 +0530,
,Objects\042a.jpg,56,0,57,,,,,,,f,1.526048500003526,0.11994530000083614,None,,,,,,57,0,56,623.2773157999909,,,,,,,,,,,,,,,,,,,,,,,623.2616968999937,623.2773157999909,623.7776793999947,623.7607349000027,,,,,,,,,,,,,,,,,,,,,,,,,,623.7700433999998,623.7776793999947,623.7776793999947,623.7776793999947,626.7772713000013,626.7772713000013,626.7772713000013,626.7620162999956,f,1.526048500003526,0.11994530000083614,626.7622339999944,626.7622988999938,None,,,,,,,,,,,,,,00025,001,2026-01-20_19h03.31.875,MST_task,2024.2.0,60.04895190258923,2026-01-20 19h03.39.499711 +0530,
,Objects\147a.jpg,57,0,58,,,,,,,f,0.9062125000054948,0.14341429999331012,None,,,,,,58,0,57,626.7772713000013,,,,,,,,,,,,,,,,,,,,,,,626.7626229000016,626.7772713000013,627.2774801999913,627.2610367000016,,,,,,,,,,,,,,,,,,,,,,,,,,627.2688113999902,627.2774801999913,627.2774801999913,627.2774801999913,630.2772992999962,630.2772992999962,630.2772992999962,630.2618974999932,f,0.9062125000054948,0.14341429999331012,630.2620962999936,630.2621507000003,None,,,,,,,,,,,,,,00025,001,2026-01-20_19h03.31.875,MST_task,2024.2.0,60.04895190258923,2026-01-20 19h03.39.499711 +0530,
,Objects\051a.jpg,58,0,59,,,,,,,f,0.6695431000116514,0.1446047999925213,None,,,,,,59,0,58,630.2772992999962,,,,,,,,,,,,,,,,,,,,,,,630.2624589999905,630.2772992999962,630.7775387000002,630.7608623999986,,,,,,,,,,,,,,,,,,,,,,,,,,630.7688437000033,630.7775387000002,630.7775387000002,630.7775387000002,633.7787509999907,633.7787509999907,633.7787509999907,633.7618141999992,f,0.6695431000116514,0.1446047999925213,633.7620117999904,633.7620736999961,None,,,,,,,,,,,,,,00025,001,2026-01-20_19h03.31.875,MST_task,2024.2.0,60.04895190258923,2026-01-20 19h03.39.499711 +0530,
,Objects\096a.jpg,59,0,60,,,,,,,f,1.9133490000094753,0.13540379999903962,None,,,,,,60,0,59,633.7787509999907,,,,,,,,,,,,,,,,,,,,,,,633.7623748999904,633.7787509999907,,634.2775205999933,,,,,,,,,,,,,,,,,,,,,,,,,,634.2863050000014,634.2943105000013,634.2943105000013,634.2943105000013,,,,637.2776837999991,f,1.9133490000094753,0.13540379999903962,637.2779013999971,637.2779328000033,None,,,,,,,,,,,,,,00025,001,2026-01-20_19h03.31.875,MST_task,2024.2.0,60.04895190258923,2026-01-20 19h03.39.499711 +0530,
,Objects\155a.jpg,60,0,61,,,,,,,f,2.781480700010434,0.11135579999245238,None,,,,,,61,0,60,637.2940041999973,,,,,,,,,,,,,,,,,,,,,,,637.2780753999978,637.2940041999973,637.7941989999963,637.7777055000042,,,,,,,,,,,,,,,,,,,,,,,,,,637.7865724000003,637.7941989999963,637.7941989999963,637.7941989999963,640.7940051999904,640.7940051999904,640.7940051999904,640.7783823999926,f,2.781480700010434,0.11135579999245238,640.7785842000012,640.7786472000007,None,,,,,,,,,,,,,,00025,001,2026-01-20_19h03.31.875,MST_task,2024.2.0,60.04895190258923,2026-01-20 19h03.39.499711 +0530,
,Objects\105a.jpg,61,0,62,,,,,,,f,1.1293723000126192,0.11198229998990428,None,,,,,,62,0,61,640.7940051999904,,,,,,,,,,,,,,,,,,,,,,,640.7790397999925,640.7940051999904,641.2943095999944,641.2777617999964,,,,,,,,,,,,,,,,,,,,,,,,,,641.2867765999981,641.2943095999944,641.2943095999944,641.2943095999944,644.2940205999912,644.2940205999912,644.2940205999912,644.2785972999991,f,1.1293723000126192,0.11198229998990428,644.278793599995,644.2788560999907,None,,,,,,,,,,,,,,00025,001,2026-01-20_19h03.31.875,MST_task,2024.2.0,60.04895190258923,2026-01-20 19h03.39.499711 +0530,
,Objects\122a.jpg,62,0,63,,,,,,,f,0.693392600005609,0.14357749999908265,None,,,,,,63,0,62,644.2940205999912,,,,,,,,,,,,,,,,,,,,,,,644.2791838999983,644.2940205999912,644.7942866999947,644.7776989999984,,,,,,,,,,,,,,,,,,,,,,,,,,644.7868047999946,644.7942866999947,644.7942866999947,644.7942866999947,647.7939927999978,647.7939927999978,647.7939927999978,647.7788852999947,f,0.693392600005609,0.14357749999908265,647.7790816999914,647.7791415999964,None,,,,,,,,,,,,,,00025,001,2026-01-20_19h03.31.875,MST_task,2024.2.0,60.04895190258923,2026-01-20 19h03.39.499711 +0530,
,Scenes\187a.jpg,63,0,64,,,,,,,j,0.823818199991365,0.1594251000060467,None,,,,,,64,0,63,647.7939927999978,,,,,,,,,,,,,,,,,,,,,,,647.7794269000005,647.7939927999978,648.2958625000028,648.2777108000009,,,,,,,,,,,,,,,,,,,,,,,,,,648.2926966999948,648.2958625000028,648.2958625000028,648.2958625000028,,,,651.2943926000007,j,0.823818199991365,0.1594251000060467,651.2946007999999,651.2946675999992,None,,,,,,,,,,,,,,00025,001,2026-01-20_19h03.31.875,MST_task,2024.2.0,60.04895190258923,2026-01-20 19h03.39.499711 +0530,
,Scenes\071a.jpg,64,0,65,,,,,,,j,0.8903114999993704,0.11199320000014268,None,,,,,,65,0,64,651.3107391999947,,,,,,,,,,,,,,,,,,,,,,,651.2949762999924,651.3107391999947,651.8134182999929,651.7943846999988,,,,,,,,,,,,,,,,,,,,,,,,,,651.8107573000016,651.8134182999929,651.8134182999929,651.8134182999929,,,,654.8108259,j,0.8903114999993704,0.11199320000014268,654.8110403000028,654.8111059999937,None,,,,,,,,,,,,,,00025,001,2026-01-20_19h03.31.875,MST_task,2024.2.0,60.04895190258923,2026-01-20 19h03.39.499711 +0530,
,Scenes\095a.jpg,65,0,66,,,,,,,j,2.4120624999923166,0.119966000012937,None,,,,,,66,0,65,654.8269445999904,,,,,,,,,,,,,,,,,,,,,,,654.8114112000039,654.8269445999904,655.3312155000021,655.3110844000039,,,,,,,,,,,,,,,,,,,,,,,,,,655.3283507000015,655.3312155000021,655.3312155000021,655.3312155000021,,,,658.3274333000008,j,2.4120624999923166,0.119966000012937,658.3276399000024,658.3277051999903,None,,,,,,,,,,,,,,00025,001,2026-01-20_19h03.31.875,MST_task,2024.2.0,60.04895190258923,2026-01-20 19h03.39.499711 +0530,
,Scenes\137a.jpg,66,0,67,,,,,,,j,0.8474657999904593,0.1442518999974709,None,,,,,,67,0,66,658.3440116999991,,,,,,,,,,,,,,,,,,,,,,,658.3281016999972,658.3440116999991,658.8475234999933,658.8277057999949,,,,,,,,,,,,,,,,,,,,,,,,,,658.8440088999923,658.8475234999933,658.8475234999933,658.8475234999933,,,,661.8444076000014,j,0.8474657999904593,0.1442518999974709,661.8446088999917,661.8446745999972,None,,,,,,,,,,,,,,00025,001,2026-01-20_19h03.31.875,MST_task,2024.2.0,60.04895190258923,2026-01-20 19h03.39.499711 +0530,
,Scenes\034a.jpg,67,0,68,,,,,,,f,2.7507678999972995,0.1433039999974426,None,,,,,,68,0,67,661.8606856999977,,,,,,,,,,,,,,,,,,,,,,,661.845061999993,661.8606856999977,662.3689788999909,662.3441454999993,,,,,,,,,,,,,,,,,,,,,,,,,,662.3662203999993,662.3689788999909,662.3689788999909,662.3689788999909,,,,665.361000799996,f,2.7507678999972995,0.1433039999974426,665.3612383,665.3613124999974,None,,,,,,,,,,,,,,00025,001,2026-01-20_19h03.31.875,MST_task,2024.2.0,60.04895190258923,2026-01-20 19h03.39.499711 +0530,
,Scenes\007a.jpg,68,0,69,,,,,,,f,1.3241386999870883,0.13605150001239963,None,,,,,,69,0,68,665.3769420000026,,,,,,,,,,,,,,,,,,,,,,,665.3617529000039,665.3769420000026,665.8829842999985,665.8609381999995,,,,,,,,,,,,,,,,,,,,,,,,,,665.8797189000034,665.8829842999985,665.8829842999985,665.8829842999985,,,,668.8774661999923,f,1.3241386999870883,0.13605150001239963,668.8776955999929,668.877768899998,None,,,,,,,,,,,,,,00025,001,2026-01-20_19h03.31.875,MST_task,2024.2.0,60.04895190258923,2026-01-20 19h03.39.499711 +0530,
,Scenes\119a.jpg,69,0,70,,,,,,,j,2.3366135000105714,0.15198869998857845,None,,,,,,70,0,69,668.8937623999955,,,,,,,,,,,,,,,,,,,,,,,668.878094899992,668.8937623999955,669.3984121999965,669.3777525999903,,,,,,,,,,,,,,,,,,,,,,,,,,669.3947749999934,669.3984121999965,669.3984121999965,669.3984121999965,,,,672.3944310999941,j,2.3366135000105714,0.15198869998857845,672.3946455999976,672.3947168000013,None,,,,,,,,,,,,,,00025,001,2026-01-20_19h03.31.875,MST_task,2024.2.0,60.04895190258923,2026-01-20 19h03.39.499711 +0530,
,Objects\125a.jpg,70,0,71,,,,,,,f,1.5918871000030776,0.12021540000569075,None,,,,,,71,0,70,672.4106118999916,,,,,,,,,,,,,,,,,,,,,,,672.3951828999998,672.4106118999916,672.9111383999989,672.8944021999923,,,,,,,,,,,,,,,,,,,,,,,,,,672.9027535999921,672.9111383999989,672.9111383999989,672.9111383999989,675.9102669999993,675.9102669999993,675.9102669999993,675.8948732999997,f,1.5918871000030776,0.12021540000569075,675.8950706000032,675.8951315000013,None,,,,,,,,,,,,,,00025,001,2026-01-20_19h03.31.875,MST_task,2024.2.0,60.04895190258923,2026-01-20 19h03.39.499711 +0530,
,Objects\104a.jpg,71,0,72,,,,,,,None,,,f,0.9006818999914685,None,,,,72,0,71,675.9102669999993,,,,,,,,,,,,,,,,,,,,,,,675.8954959999974,675.9102669999993,676.4108860999986,676.3950055000023,,,,,,,,,,,,,,,,,,,,,,,,,,676.4010821999982,676.4108860999986,676.4108860999986,676.4108860999986,679.4105744999979,679.4105744999979,679.4105744999979,679.3949896999984,None,,,679.3951760999917,680.3276620999968,f,679.4105744999979,679.4105744999979,0.9006818999914685,None,,,,,,,,,,00025,001,2026-01-20_19h03.31.875,MST_task,2024.2.0,60.04895190258923,2026-01-20 19h03.39.499711 +0530,
,Objects\002a.jpg,72,0,73,,,,,,,f,1.7868166999978712,0.17651380000461359,None,,,,,,73,0,72,680.3440246999962,,,,,,,,,,,,,,,,,,,,,,,680.3281203999941,680.3440246999962,680.8442726999929,680.8276626000006,,,,,,,,,,,,,,,,,,,,,,,,,,680.8364237999922,680.8442726999929,680.8442726999929,680.8442726999929,683.8439932000038,683.8439932000038,683.8439932000038,683.828416999997,f,1.7868166999978712,0.17651380000461359,683.8286125000013,683.8286733999994,None,,,,,,,,,,,,,,00025,001,2026-01-20_19h03.31.875,MST_task,2024.2.0,60.04895190258923,2026-01-20 19h03.39.499711 +0530,
,Objects\145a.jpg,73,0,74,,,,,,,f,0.9828446000028634,0.16781830000400078,None,,,,,,74,0,73,683.8439932000038,,,,,,,,,,,,,,,,,,,,,,,683.829050100001,683.8439932000038,684.3442221000005,684.3276368999941,,,,,,,,,,,,,,,,,,,,,,,,,,684.3361788000038,684.3442221000005,684.3442221000005,684.3442221000005,687.3438631000026,687.3438631000026,687.3438631000026,687.3285304000019,f,0.9828446000028634,0.16781830000400078,687.328723899991,687.3287839999975,None,,,,,,,,,,,,,,00025,001,2026-01-20_19h03.31.875,MST_task,2024.2.0,60.04895190258923,2026-01-20 19h03.39.499711 +0530,
,Objects\014a.jpg,74,0,75,,,,,,,f,2.282857199999853,0.11985269999422599,None,,,,,,75,0,74,687.3438631000026,,,,,,,,,,,,,,,,,,,,,,,687.3291625999991,687.3438631000026,687.8442534999922,687.8276417000015,,,,,,,,,,,,,,,,,,,,,,,,,,687.8369979999989,687.8442534999922,687.8442534999922,687.8442534999922,690.8440256000031,690.8440256000031,690.8440256000031,690.8284452999942,f,2.282857199999853,0.11985269999422599,690.828640599997,690.8287018999981,None,,,,,,,,,,,,,,00025,001,2026-01-20_19h03.31.875,MST_task,2024.2.0,60.04895190258923,2026-01-20 19h03.39.499711 +0530,
,Objects\150a.jpg,75,0,76,,,,,,,None,,,f,0.9836873000022024,None,,,,76,0,75,690.8440256000031,,,,,,,,,,,,,,,,,,,,,,,690.8290755999915,690.8440256000031,691.3442226999905,691.3279173999908,,,,,,,,,,,,,,,,,,,,,,,,,,691.3378317000024,691.3442226999905,691.3442226999905,691.3442226999905,694.3434277999913,694.3434277999913,694.3434277999913,694.3276164999988,None,,,694.3277727999957,695.3278257999918,f,694.3434277999913,694.3434277999913,0.9836873000022024,None,,,,,,,,,,00025,001,2026-01-20_19h03.31.875,MST_task,2024.2.0,60.04895190258923,2026-01-20 19h03.39.499711 +0530,
,Objects\136a.jpg,76,0,77,,,,,,,f,1.387266300007468,0.15944190000300296,None,,,,,,77,0,76,695.3441012999974,,,,,,,,,,,,,,,,,,,,,,,695.328164599996,695.3441012999974,695.844228899994,695.8276520999934,,,,,,,,,,,,,,,,,,,,,,,,,,695.8367339999968,695.844228899994,695.844228899994,695.844228899994,698.8439972999913,698.8439972999913,698.8439972999913,698.8284624999942,f,1.387266300007468,0.15944190000300296,698.8286670999951,698.8287285999977,None,,,,,,,,,,,,,,00025,001,2026-01-20_19h03.31.875,MST_task,2024.2.0,60.04895190258923,2026-01-20 19h03.39.499711 +0530,
,Scenes\127a.jpg,77,0,78,,,,,,,j,2.564067500003148,0.1360839999979362,None,,,,,,78,0,77,698.8439972999913,,,,,,,,,,,,,,,,,,,,,,,698.8291113000014,698.8439972999913,699.3468760999967,699.3276776999992,,,,,,,,,,,,,,,,,,,,,,,,,,699.3443058999983,699.3468760999967,699.3468760999967,699.3468760999967,,,,702.3443903000007,j,2.564067500003148,0.1360839999979362,702.344592399997,702.3446597000002,None,,,,,,,,,,,,,,00025,001,2026-01-20_19h03.31.875,MST_task,2024.2.0,60.04895190258923,2026-01-20 19h03.39.499711 +0530,
,Scenes\027a.jpg,78,0,79,,,,,,,f,1.865747999996529,0.10399590000452008,None,,,,,,79,0,78,702.3606588999974,,,,,,,,,,,,,,,,,,,,,,,702.3450277999946,702.3606588999974,702.8692456999997,702.8444439000014,,,,,,,,,,,,,,,,,,,,,,,,,,702.8660937999957,702.8692456999997,702.8692456999997,702.8692456999997,,,,705.8610477000038,f,1.865747999996529,0.10399590000452008,705.8612441000005,705.8613106999983,None,,,,,,,,,,,,,,00025,001,2026-01-20_19h03.31.875,MST_task,2024.2.0,60.04895190258923,2026-01-20 19h03.39.499711 +0530,
,Scenes\046a.jpg,79,0,80,,,,,,,j,0.9396237999899313,0.15186790000007022,None,,,,,,80,0,79,705.877261799993,,,,,,,,,,,,,,,,,,,,,,,705.8616043999937,705.877261799993,706.3875073999952,706.3607245000021,,,,,,,,,,,,,,,,,,,,,,,,,,706.3847261999908,706.3875073999952,706.3875073999952,706.3875073999952,,,,709.3777115999983,j,0.9396237999899313,0.15186790000007022,709.3779590999911,709.378031699991,None,,,,,,,,,,,,,,00025,001,2026-01-20_19h03.31.875,MST_task,2024.2.0,60.04895190258923,2026-01-20 19h03.39.499711 +0530,
,Scenes\143a.jpg,80,0,81,,,,,,,j,0.9569580999959726,0.16792039999563713,None,,,,,,81,0,80,709.3940158999903,,,,,,,,,,,,,,,,,,,,,,,709.3785338000016,709.3940158999903,709.8987024999951,709.8776806999958,,,,,,,,,,,,,,,,,,,,,,,,,,709.8958347000007,709.8987024999951,709.8987024999951,709.8987024999951,,,,712.8944082999951,j,0.9569580999959726,0.16792039999563713,712.8946037999995,712.8946714999911,None,,,,,,,,,,,,,,00025,001,2026-01-20_19h03.31.875,MST_task,2024.2.0,60.04895190258923,2026-01-20 19h03.39.499711 +0530,
,Scenes\083a.jpg,81,0,82,,,,,,,j,1.0043961000046693,0.16798469999048393,None,,,,,,82,0,81,712.9111290000001,,,,,,,,,,,,,,,,,,,,,,,712.8950390999962,712.9111290000001,713.4112779999996,713.3944428999966,,,,,,,,,,,,,,,,,,,,,,,,,,713.4090310000029,713.4112779999996,713.4112779999996,713.4112779999996,716.4106695999944,716.4106695999944,716.4106695999944,716.3950937999907,j,1.0043961000046693,0.16798469999048393,716.3953063999943,716.3953733999952,None,,,,,,,,,,,,,,00025,001,2026-01-20_19h03.31.875,MST_task,2024.2.0,60.04895190258923,2026-01-20 19h03.39.499711 +0530,
,Scenes\169a.jpg,82,0,83,,,,,,,j,1.2246569999988424,0.14335889999347273,None,,,,,,83,0,82,716.4106695999944,,,,,,,,,,,,,,,,,,,,,,,716.3957823999954,716.4106695999944,716.9110013000027,716.8941027999972,,,,,,,,,,,,,,,,,,,,,,,,,,716.9083956999966,716.9110013000027,716.9110013000027,716.9110013000027,719.9105868999904,719.9105868999904,719.9105868999904,719.8953046999959,j,1.2246569999988424,0.14335889999347273,719.8955092999968,719.895575100003,None,,,,,,,,,,,,,,00025,001,2026-01-20_19h03.31.875,MST_task,2024.2.0,60.04895190258923,2026-01-20 19h03.39.499711 +0530,
,Scenes\172a.jpg,83,0,84,,,,,,,j,1.1962773999985075,0.14407380000920966,None,,,,,,84,0,83,719.9105868999904,,,,,,,,,,,,,,,,,,,,,,,719.8959124999965,719.9105868999904,720.4109997999913,720.3947195999936,,,,,,,,,,,,,,,,,,,,,,,,,,720.4052326999954,720.4109997999913,720.4109997999913,720.4109997999913,723.4105492999952,723.4105492999952,723.4105492999952,723.3952775999933,j,1.1962773999985075,0.14407380000920966,723.3954806999973,723.395541299993,None,,,,,,,,,,,,,,00025,001,2026-01-20_19h03.31.875,MST_task,2024.2.0,60.04895190258923,2026-01-20 19h03.39.499711 +0530,
,Objects\123a.jpg,84,0,85,,,,,,,f,0.7677873000066029,0.10411459999158978,None,,,,,,85,0,84,723.4105492999952,,,,,,,,,,,,,,,,,,,,,,,723.3958287999994,723.4105492999952,723.9112366000045,723.8944563999976,,,,,,,,,,,,,,,,,,,,,,,,,,723.9035354999942,723.9112366000045,723.9112366000045,723.9112366000045,726.9105294000037,726.9105294000037,726.9105294000037,726.8951786999969,f,0.7677873000066029,0.10411459999158978,726.8953780000011,726.8954376000038,None,,,,,,,,,,,,,,00025,001,2026-01-20_19h03.31.875,MST_task,2024.2.0,60.04895190258923,2026-01-20 19h03.39.499711 +0530,
,Objects\031a.jpg,85,0,86,,,,,,,f,0.7086557000002358,0.16759159999492113,None,,,,,,86,0,85,726.9105294000037,,,,,,,,,,,,,,,,,,,,,,,726.8957366999966,726.9105294000037,727.410973799997,727.3940969999967,,,,,,,,,,,,,,,,,,,,,,,,,,727.4030018999911,727.410973799997,727.410973799997,727.410973799997,730.4106727000035,730.4106727000035,730.4106727000035,730.3961692000012,f,0.7086557000002358,0.16759159999492113,730.3963674999977,730.3964276000042,None,,,,,,,,,,,,,,00025,001,2026-01-20_19h03.31.875,MST_task,2024.2.0,60.04895190258923,2026-01-20 19h03.39.499711 +0530,
,Objects\067a.jpg,86,0,87,,,,,,,f,0.9520097999920836,0.14431220000551548,None,,,,,,87,0,86,730.4106727000035,,,,,,,,,,,,,,,,,,,,,,,730.396805299999,730.4106727000035,730.9109456000006,730.8944529,,,,,,,,,,,,,,,,,,,,,,,,,,730.9033601999981,730.9109456000006,730.9109456000006,730.9109456000006,733.9108220999915,733.9108220999915,733.9108220999915,733.8957898999943,f,0.9520097999920836,0.14431220000551548,733.8959969999996,733.8960631999944,None,,,,,,,,,,,,,,00025,001,2026-01-20_19h03.31.875,MST_task,2024.2.0,60.04895190258923,2026-01-20 19h03.39.499711 +0530,
,Objects\148a.jpg,87,0,88,,,,,,,f,1.3320311999996193,0.1684979999990901,None,,,,,,88,0,87,733.9108220999915,,,,,,,,,,,,,,,,,,,,,,,733.8963688999938,733.9108220999915,734.4107116999949,734.394217699999,,,,,,,,,,,,,,,,,,,,,,,,,,734.4031822999968,734.4107116999949,734.4107116999949,734.4107116999949,737.410585199992,737.410585199992,737.410585199992,737.3951909000025,f,1.3320311999996193,0.1684979999990901,737.3953865999938,737.3954479999957,None,,,,,,,,,,,,,,00025,001,2026-01-20_19h03.31.875,MST_task,2024.2.0,60.04895190258923,2026-01-20 19h03.39.499711 +0530,
,Objects\187a.jpg,88,0,89,,,,,,,f,0.6726849999977276,0.16791679999732878,None,,,,,,89,0,88,737.410585199992,,,,,,,,,,,,,,,,,,,,,,,737.3957453999901,737.410585199992,737.9109103999945,737.8944188000023,,,,,,,,,,,,,,,,,,,,,,,,,,737.9038090999966,737.9109103999945,737.9109103999945,737.9109103999945,740.9106208000012,740.9106208000012,740.9106208000012,740.8952907999919,f,0.6726849999977276,0.16791679999732878,740.8954851000017,740.8955454999959,None,,,,,,,,,,,,,,00025,001,2026-01-20_19h03.31.875,MST_task,2024.2.0,60.04895190258923,2026-01-20 19h03.39.499711 +0530,
,Objects\182a.jpg,89,0,90,,,,,,,f,1.0762801999953808,0.14373680000426248,None,,,,,,90,0,89,740.9106208000012,,,,,,,,,,,,,,,,,,,,,,,740.8959234999929,740.9106208000012,741.4109430999961,741.3944076999906,,,,,,,,,,,,,,,,,,,,,,,,,,741.4033673999947,741.4109430999961,741.4109430999961,741.4109430999961,744.4106719999982,744.4106719999982,744.4106719999982,744.3949791999912,f,1.0762801999953808,0.14373680000426248,744.3951687999943,744.3952292000031,None,,,,,,,,,,,,,,00025,001,2026-01-20_19h03.31.875,MST_task,2024.2.0,60.04895190258923,2026-01-20 19h03.39.499711 +0530,
,Objects\160a.jpg,90,0,91,,,,,,,f,1.1760850999999093,0.16858340000908356,None,,,,,,91,0,90,744.4106719999982,,,,,,,,,,,,,,,,,,,,,,,744.3955148999958,744.4106719999982,744.9109083999938,744.8940834999958,,,,,,,,,,,,,,,,,,,,,,,,,,744.9004501000018,744.9109083999938,744.9109083999938,744.9109083999938,747.9106996000046,747.9106996000046,747.9106996000046,747.8951749999978,f,1.1760850999999093,0.16858340000908356,747.8953770999942,747.8954400999937,None,,,,,,,,,,,,,,00025,001,2026-01-20_19h03.31.875,MST_task,2024.2.0,60.04895190258923,2026-01-20 19h03.39.499711 +0530,
,Scenes\091a.jpg,91,0,92,,,,,,,j,0.8759697000059532,0.15197799999441486,None,,,,,,92,0,91,747.9106996000046,,,,,,,,,,,,,,,,,,,,,,,747.8957384999958,747.9106996000046,748.4116817000031,748.3940631000005,,,,,,,,,,,,,,,,,,,,,,,,,,748.409147600003,748.4116817000031,748.4116817000031,748.4116817000031,,,,751.4109037000017,j,0.8759697000059532,0.15197799999441486,751.4111172999983,751.4111852999922,None,,,,,,,,,,,,,,00025,001,2026-01-20_19h03.31.875,MST_task,2024.2.0,60.04895190258923,2026-01-20 19h03.39.499711 +0530,
,Scenes\082a.jpg,92,0,93,,,,,,,f,1.4452133000013418,0.16027999999641906,None,,,,,,93,0,92,751.4271192000015,,,,,,,,,,,,,,,,,,,,,,,751.4115638999938,751.4271192000015,,751.9123244999937,,,,,,,,,,,,,,,,,,,,,,,,,,751.9274136000022,751.9301042000006,751.9301042000006,751.9301042000006,,,,754.9277046999923,f,1.4452133000013418,0.16027999999641906,754.9279215999995,754.927992500001,None,,,,,,,,,,,,,,00025,001,2026-01-20_19h03.31.875,MST_task,2024.2.0,60.04895190258923,2026-01-20 19h03.39.499711 +0530,
,Scenes\106a.jpg,93,0,94,,,,,,,j,0.7179954000021098,0.16735639999387786,None,,,,,,94,0,93,754.9454220999905,,,,,,,,,,,,,,,,,,,,,,,754.9284625,754.9454220999905,,755.4442727999995,,,,,,,,,,,,,,,,,,,,,,,,,,755.4622987000039,755.4656187999935,755.4656187999935,755.4656187999935,,,,758.4444870000007,j,0.7179954000021098,0.16735639999387786,758.4446874999994,758.4447501999966,None,,,,,,,,,,,,,,00025,001,2026-01-20_19h03.31.875,MST_task,2024.2.0,60.04895190258923,2026-01-20 19h03.39.499711 +0530,
,Scenes\049a.jpg,94,0,95,,,,,,,j,1.3176717000023928,0.1284111999993911,None,,,,,,95,0,94,758.4605260999961,,,,,,,,,,,,,,,,,,,,,,,758.4449495000008,758.4605260999961,758.9612995999923,758.9444741999905,,,,,,,,,,,,,,,,,,,,,,,,,,758.9586947999924,758.9612995999923,758.9612995999923,758.9612995999923,761.9603524999984,761.9603524999984,761.9603524999984,761.9449501999916,j,1.3176717000023928,0.1284111999993911,761.945144199999,761.9452030999964,None,,,,,,,,,,,,,,00025,001,2026-01-20_19h03.31.875,MST_task,2024.2.0,60.04895190258923,2026-01-20 19h03.39.499711 +0530,
,Scenes\098a.jpg,95,0,96,,,,,,,f,2.1131061000050977,0.12863599999400321,None,,,,,,96,0,95,761.9603524999984,,,,,,,,,,,,,,,,,,,,,,,761.9455940000043,761.9603524999984,762.461851,762.4444178999984,,,,,,,,,,,,,,,,,,,,,,,,,,762.4586603999924,762.461851,762.461851,762.461851,,,,765.4609074000036,f,2.1131061000050977,0.12863599999400321,765.461129000003,765.4611941999901,None,,,,,,,,,,,,,,00025,001,2026-01-20_19h03.31.875,MST_task,2024.2.0,60.04895190258923,2026-01-20 19h03.39.499711 +0530,
,Scenes\015a.jpg,96,0,97,,,,,,,j,1.236662700001034,0.144169499995769,None,,,,,,97,0,96,765.4772860999947,,,,,,,,,,,,,,,,,,,,,,,765.4615027999971,765.4772860999947,765.9869468999968,765.9610814999905,,,,,,,,,,,,,,,,,,,,,,,,,,765.9841280999972,765.9869468999968,765.9869468999968,765.9869468999968,,,,768.9776679999923,j,1.236662700001034,0.144169499995769,768.9778682000033,768.9779333999904,None,,,,,,,,,,,,,,00025,001,2026-01-20_19h03.31.875,MST_task,2024.2.0,60.04895190258923,2026-01-20 19h03.39.499711 +0530,
,Scenes\105a.jpg,97,0,98,,,,,,,f,2.1686943999957293,0.10392629999842029,None,,,,,,98,0,97,768.994002899999,,,,,,,,,,,,,,,,,,,,,,,768.9783070999983,768.994002899999,769.4945178999915,769.4778876999917,,,,,,,,,,,,,,,,,,,,,,,,,,769.4908605999954,769.4945178999915,769.4945178999915,769.4945178999915,772.4935261999926,772.4935261999926,772.4935261999926,772.4781324999931,f,2.1686943999957293,0.10392629999842029,772.4782536999992,772.4782902000006,None,,,,,,,,,,,,,,00025,001,2026-01-20_19h03.31.875,MST_task,2024.2.0,60.04895190258923,2026-01-20 19h03.39.499711 +0530,
,Objects\033a.jpg,98,0,99,,,,,,,None,,,f,0.11715860001277179,None,,,,99,0,98,772.4935261999926,,,,,,,,,,,,,,,,,,,,,,,772.4785069999925,772.4935261999926,772.9943648999906,772.9777521999931,,,,,,,,,,,,,,,,,,,,,,,,,,772.9872894,772.9943648999906,772.9943648999906,772.9943648999906,775.9938872999919,775.9938872999919,775.9938872999919,775.9787453000026,None,,,775.9789375999972,776.1276354000001,f,775.9938872999919,775.9938872999919,0.11715860001277179,None,,,,,,,,,,00025,001,2026-01-20_19h03.31.875,MST_task,2024.2.0,60.04895190258923,2026-01-20 19h03.39.499711 +0530,
,Objects\041a.jpg,99,0,100,,,,,,,f,1.075731100005214,0.16796639999665786,None,,,,,,100,0,99,776.143906199999,,,,,,,,,,,,,,,,,,,,,,,776.1280004,776.143906199999,776.6438624000002,776.627628599992,,,,,,,,,,,,,,,,,,,,,,,,,,776.6364096000034,776.6438624000002,776.6438624000002,776.6438624000002,779.6440148999973,779.6440148999973,779.6440148999973,779.6284487999947,f,1.075731100005214,0.16796639999665786,779.6286481999996,779.6287082999916,None,,,,,,,,,,,,,,00025,001,2026-01-20_19h03.31.875,MST_task,2024.2.0,60.04895190258923,2026-01-20 19h03.39.499711 +0530,
,Objects\180a.jpg,100,0,101,,,,,,,f,0.9346598999982234,0.14464830000360962,None,,,,,,101,0,100,779.6440148999973,,,,,,,,,,,,,,,,,,,,,,,779.6290793999942,779.6440148999973,780.1442506000021,780.1276654999965,,,,,,,,,,,,,,,,,,,,,,,,,,780.1369620999903,780.1442506000021,780.1442506000021,780.1442506000021,783.1438610000041,783.1438610000041,783.1438610000041,783.1283193999989,f,0.9346598999982234,0.14464830000360962,783.1285253999959,783.1285862999939,None,,,,,,,,,,,,,,00025,001,2026-01-20_19h03.31.875,MST_task,2024.2.0,60.04895190258923,2026-01-20 19h03.39.499711 +0530,
,Objects\009a.jpg,101,0,102,,,,,,,f,0.9069646999996621,0.15217989998927806,None,,,,,,102,0,101,783.1438610000041,,,,,,,,,,,,,,,,,,,,,,,783.128887999992,783.1438610000041,783.6439963000012,783.6276753999991,,,,,,,,,,,,,,,,,,,,,,,,,,783.6367151000013,783.6439963000012,783.6439963000012,783.6439963000012,786.6444307999918,786.6444307999918,786.6444307999918,786.6285666999902,f,0.9069646999996621,0.15217989998927806,786.6287608999992,786.6288222000003,None,,,,,,,,,,,,,,00025,001,2026-01-20_19h03.31.875,MST_task,2024.2.0,60.04895190258923,2026-01-20 19h03.39.499711 +0530,
,Objects\010a.jpg,102,0,103,,,,,,,f,1.1913195999950403,0.1194653999991715,None,,,,,,103,0,102,786.6444307999918,,,,,,,,,,,,,,,,,,,,,,,786.6291209999908,786.6444307999918,787.1442667999945,787.1276739000023,,,,,,,,,,,,,,,,,,,,,,,,,,787.1358399000019,787.1442667999945,787.1442667999945,787.1442667999945,790.1440415999969,790.1440415999969,790.1440415999969,790.1284569999989,f,1.1913195999950403,0.1194653999991715,790.1286480999988,790.1287066999939,None,,,,,,,,,,,,,,00025,001,2026-01-20_19h03.31.875,MST_task,2024.2.0,60.04895190258923,2026-01-20 19h03.39.499711 +0530,
,Objects\027a.jpg,103,0,104,,,,,,,f,0.8746532000077423,0.12058849999448285,None,,,,,,104,0,103,790.1440415999969,,,,,,,,,,,,,,,,,,,,,,,790.1290031999961,790.1440415999969,790.6442905000004,790.6276655999973,,,,,,,,,,,,,,,,,,,,,,,,,,790.6364583999966,790.6442905000004,790.6442905000004,790.6442905000004,793.6440116000012,793.6440116000012,793.6440116000012,793.6283377999935,f,0.8746532000077423,0.12058849999448285,793.6285306999926,793.6285892000014,None,,,,,,,,,,,,,,00025,001,2026-01-20_19h03.31.875,MST_task,2024.2.0,60.04895190258923,2026-01-20 19h03.39.499711 +0530,
,Objects\056a.jpg,104,0,105,,,,,,,f,0.7233773000043584,0.15967899998940993,None,,,,,,105,0,104,793.6440116000012,,,,,,,,,,,,,,,,,,,,,,,793.628887999992,793.6440116000012,794.1638972999936,794.1277055999963,,,,,,,,,,,,,,,,,,,,,,,,,,794.1606988999993,794.1638972999936,794.1638972999936,794.1638972999936,,,,797.1444134999911,f,0.7233773000043584,0.15967899998940993,797.1446357999957,797.1447024999943,None,,,,,,,,,,,,,,00025,001,2026-01-20_19h03.31.875,MST_task,2024.2.0,60.04895190258923,2026-01-20 19h03.39.499711 +0530,
,Scenes\150a.jpg,105,0,106,,,,,,,j,0.9675725999986753,0.09598559999722056,None,,,,,,106,0,105,797.1606936000026,,,,,,,,,,,,,,,,,,,,,,,797.1450065999961,797.1606936000026,797.6634556999925,797.6442960999993,,,,,,,,,,,,,,,,,,,,,,,,,,797.660968199998,797.6634556999925,797.6634556999925,797.6634556999925,,,,800.6608735000045,j,0.9675725999986753,0.09598559999722056,800.6611031999928,800.661174599998,None,,,,,,,,,,,,,,00025,001,2026-01-20_19h03.31.875,MST_task,2024.2.0,60.04895190258923,2026-01-20 19h03.39.499711 +0530,
,Scenes\133a.jpg,106,0,107,,,,,,,j,0.7076140999997733,0.16840910000610165,None,,,,,,107,0,106,800.6772820999904,,,,,,,,,,,,,,,,,,,,,,,800.6615659999952,800.6772820999904,801.1794687999936,801.1609164999973,,,,,,,,,,,,,,,,,,,,,,,,,,801.1767550999939,801.1794687999936,801.1794687999936,801.1794687999936,,,,804.177575499998,j,0.7076140999997733,0.16840910000610165,804.177787099994,804.1778588000016,None,,,,,,,,,,,,,,00025,001,2026-01-20_19h03.31.875,MST_task,2024.2.0,60.04895190258923,2026-01-20 19h03.39.499711 +0530,
,Scenes\035a.jpg,107,0,108,,,,,,,j,2.141481600003317,0.15951579999818932,None,,,,,,108,0,107,804.1940425999928,,,,,,,,,,,,,,,,,,,,,,,804.1782865999994,804.1940425999928,804.6981216999993,804.6777376999962,,,,,,,,,,,,,,,,,,,,,,,,,,804.6950645000034,804.6981216999993,804.6981216999993,804.6981216999993,,,,807.6944146000023,j,2.141481600003317,0.15951579999818932,807.6946139999927,807.694679799999,None,,,,,,,,,,,,,,00025,001,2026-01-20_19h03.31.875,MST_task,2024.2.0,60.04895190258923,2026-01-20 19h03.39.499711 +0530,
,Scenes\182a.jpg,108,0,109,,,,,,,j,0.9156665000045905,0.13605260000622366,None,,,,,,109,0,108,807.7103817000025,,,,,,,,,,,,,,,,,,,,,,,807.6949724000006,807.7103817000025,808.2113725999952,808.1944616999972,,,,,,,,,,,,,,,,,,,,,,,,,,808.2085103999998,808.2113725999952,808.2113725999952,808.2113725999952,811.2106914000033,811.2106914000033,811.2106914000033,811.1953215999965,j,0.9156665000045905,0.13605260000622366,811.1955481000041,811.1956124999997,None,,,,,,,,,,,,,,00025,001,2026-01-20_19h03.31.875,MST_task,2024.2.0,60.04895190258923,2026-01-20 19h03.39.499711 +0530,
,Scenes\074a.jpg,109,0,110,,,,,,,f,0.9108726999984356,0.11965619999682531,None,,,,,,110,0,109,811.2106914000033,,,,,,,,,,,,,,,,,,,,,,,811.1959508,811.2106914000033,811.7127270999918,811.6942385000002,,,,,,,,,,,,,,,,,,,,,,,,,,811.7100636999967,811.7127270999918,811.7127270999918,811.7127270999918,,,,814.7110790000006,f,0.9108726999984356,0.11965619999682531,814.7112991000031,814.711381400004,None,,,,,,,,,,,,,,00025,001,2026-01-20_19h03.31.875,MST_task,2024.2.0,60.04895190258923,2026-01-20 19h03.39.499711 +0530,
,Scenes\153a.jpg,110,0,111,,,,,,,j,1.7155821999913314,0.1916823000065051,None,,,,,,111,0,110,814.7272786999965,,,,,,,,,,,,,,,,,,,,,,,814.7118206000014,814.7272786999965,815.227662499994,815.2107737000042,,,,,,,,,,,,,,,,,,,,,,,,,,815.2245665999944,815.227662499994,815.227662499994,815.227662499994,818.2268404999922,818.2268404999922,818.2268404999922,818.2116825999983,j,1.7155821999913314,0.1916823000065051,818.2118788999942,818.2119387999992,None,,,,,,,,,,,,,,00025,001,2026-01-20_19h03.31.875,MST_task,2024.2.0,60.04895190258923,2026-01-20 19h03.39.499711 +0530,
,Scenes\179a.jpg,111,0,112,,,,,,,j,0.8791168999887304,0.15217250000569038,None,,,,,,112,0,111,818.2268404999922,,,,,,,,,,,,,,,,,,,,,,,818.2122906000004,818.2268404999922,818.727848399998,818.7110871999903,,,,,,,,,,,,,,,,,,,,,,,,,,818.7231430999964,818.727848399998,818.727848399998,818.727848399998,821.7271966999979,821.7271966999979,821.7271966999979,821.7118887999968,j,0.8791168999887304,0.15217250000569038,821.7120974999998,821.7121638999961,None,,,,,,,,,,,,,,00025,001,2026-01-20_19h03.31.875,MST_task,2024.2.0,60.04895190258923,2026-01-20 19h03.39.499711 +0530,
,Objects\178a.jpg,112,0,113,,,,,,,j,1.7232186999899568,0.10439990001032129,None,,,,,,113,0,112,821.7271966999979,,,,,,,,,,,,,,,,,,,,,,,821.7124966999982,821.7271966999979,822.2279020999995,822.2109952000028,,,,,,,,,,,,,,,,,,,,,,,,,,822.2212965999934,822.2279020999995,822.2279020999995,822.2279020999995,825.2274349999934,825.2274349999934,825.2274349999934,825.2118578999944,j,1.7232186999899568,0.10439990001032129,825.2120579000039,825.2121171000035,None,,,,,,,,,,,,,,00025,001,2026-01-20_19h03.31.875,MST_task,2024.2.0,60.04895190258923,2026-01-20 19h03.39.499711 +0530,
,Objects\102a.jpg,113,0,114,,,,,,,f,1.0799884000007296,0.15209439999307506,None,,,,,,114,0,113,825.2274349999934,,,,,,,,,,,,,,,,,,,,,,,825.2124161999964,825.2274349999934,825.7275706999935,825.7110941999999,,,,,,,,,,,,,,,,,,,,,,,,,,825.7196400999965,825.7275706999935,825.7275706999935,825.7275706999935,828.7271799000009,828.7271799000009,828.7271799000009,828.7117369000043,f,1.0799884000007296,0.15209439999307506,828.7119337999902,828.7119942999998,None,,,,,,,,,,,,,,00025,001,2026-01-20_19h03.31.875,MST_task,2024.2.0,60.04895190258923,2026-01-20 19h03.39.499711 +0530,
,Objects\023a.jpg,114,0,115,,,,,,,f,1.0120498000032967,0.12001149999559857,None,,,,,,115,0,114,828.7271799000009,,,,,,,,,,,,,,,,,,,,,,,828.7122937999957,828.7271799000009,829.2274979999929,829.2110932999931,,,,,,,,,,,,,,,,,,,,,,,,,,829.2190893999941,829.2274979999929,829.2274979999929,829.2274979999929,832.2269354000018,832.2269354000018,832.2269354000018,832.2116903999995,f,1.0120498000032967,0.12001149999559857,832.2118838000024,832.2119445999997,None,,,,,,,,,,,,,,00025,001,2026-01-20_19h03.31.875,MST_task,2024.2.0,60.04895190258923,2026-01-20 19h03.39.499711 +0530,
,Objects\177a.jpg,115,0,116,,,,,,,j,1.240024300001096,0.15999149999697693,None,,,,,,116,0,115,832.2269354000018,,,,,,,,,,,,,,,,,,,,,,,832.2122476999939,832.2269354000018,832.7274988999998,832.7110077999969,,,,,,,,,,,,,,,,,,,,,,,,,,832.7171073999925,832.7274988999998,832.7274988999998,832.7274988999998,835.7273000999994,835.7273000999994,835.7273000999994,835.7118809999956,j,1.240024300001096,0.15999149999697693,835.7120835999958,835.7121460999915,None,,,,,,,,,,,,,,00025,001,2026-01-20_19h03.31.875,MST_task,2024.2.0,60.04895190258923,2026-01-20 19h03.39.499711 +0530,
,Objects\159a.jpg,116,0,117,,,,,,,f,1.1398823000054108,0.15237039999919944,None,,,,,,117,0,116,835.7273000999994,,,,,,,,,,,,,,,,,,,,,,,835.7125320999912,835.7273000999994,836.2272606000042,836.2111431999947,,,,,,,,,,,,,,,,,,,,,,,,,,836.2199258000037,836.2272606000042,836.2272606000042,836.2272606000042,839.2269588999916,839.2269588999916,839.2269588999916,839.2117987999954,f,1.1398823000054108,0.15237039999919944,839.2119900999969,839.212049099995,None,,,,,,,,,,,,,,00025,001,2026-01-20_19h03.31.875,MST_task,2024.2.0,60.04895190258923,2026-01-20 19h03.39.499711 +0530,
,Objects\107a.jpg,117,0,118,,,,,,,f,1.8157869999995455,0.14403569999558385,None,,,,,,118,0,117,839.2269588999916,,,,,,,,,,,,,,,,,,,,,,,839.2124219999969,839.2269588999916,839.7273021000001,839.7108124999941,,,,,,,,,,,,,,,,,,,,,,,,,,839.7202548999921,839.7273021000001,839.7273021000001,839.7273021000001,842.7273061000014,842.7273061000014,842.7273061000014,842.711862600001,f,1.8157869999995455,0.14403569999558385,842.7120526999934,842.7121125999984,None,,,,,,,,,,,,,,00025,001,2026-01-20_19h03.31.875,MST_task,2024.2.0,60.04895190258923,2026-01-20 19h03.39.499711 +0530,
,Objects\037a.jpg,118,0,119,,,,,,,f,1.2514955999940867,0.1446332000050461,None,,,,,,119,0,118,842.7273061000014,,,,,,,,,,,,,,,,,,,,,,,842.7124851999979,842.7273061000014,843.2273758999945,843.2111097000015,,,,,,,,,,,,,,,,,,,,,,,,,,843.2194217999931,843.2273758999945,843.2273758999945,843.2273758999945,846.2270321999968,846.2270321999968,846.2270321999968,846.2119928000029,f,1.2514955999940867,0.1446332000050461,846.2121861999913,846.2122462999978,None,,,,,,,,,,,,,,00025,001,2026-01-20_19h03.31.875,MST_task,2024.2.0,60.04895190258923,2026-01-20 19h03.39.499711 +0530,
,Scenes\141a.jpg,119,0,120,,,,,,,j,0.8813063999987207,0.12806719999935012,None,,,,,,120,0,119,846.2270321999968,,,,,,,,,,,,,,,,,,,,,,,846.2126526999928,846.2270321999968,846.7335539999913,846.7118346999923,,,,,,,,,,,,,,,,,,,,,,,,,,846.7301239999942,846.7335539999913,846.7335539999913,846.7335539999913,,,,849.7275554999942,j,0.8813063999987207,0.12806719999935012,849.7277667000017,849.727839500003,None,,,,,,,,,,,,,,00025,001,2026-01-20_19h03.31.875,MST_task,2024.2.0,60.04895190258923,2026-01-20 19h03.39.499711 +0530,
,Scenes\079a.jpg,120,0,121,,,,,,,j,1.2058114999963436,0.12842619999719318,None,,,,,,121,0,120,849.7440384999936,,,,,,,,,,,,,,,,,,,,,,,849.7282410999906,849.7440384999936,850.2492782999907,850.2279837999959,,,,,,,,,,,,,,,,,,,,,,,,,,850.2462621000013,850.2492782999907,850.2492782999907,850.2492782999907,,,,853.2446745999914,j,1.2058114999963436,0.12842619999719318,853.2448713999911,853.2449360000028,None,,,,,,,,,,,,,,00025,001,2026-01-20_19h03.31.875,MST_task,2024.2.0,60.04895190258923,2026-01-20 19h03.39.499711 +0530,
,Scenes\044a.jpg,121,0,122,,,,,,,j,2.517216100008227,0.15202519999002106,None,,,,,,122,0,121,853.260720899998,,,,,,,,,,,,,,,,,,,,,,,853.2453042999987,853.260720899998,853.7617082999932,853.7444282999932,,,,,,,,,,,,,,,,,,,,,,,,,,853.755033399997,853.7617082999932,853.7617082999932,853.7617082999932,856.760706999994,856.760706999994,856.760706999994,856.7453070999909,j,2.517216100008227,0.15202519999002106,856.7455232999928,856.7455896000029,None,,,,,,,,,,,,,,00025,001,2026-01-20_19h03.31.875,MST_task,2024.2.0,60.04895190258923,2026-01-20 19h03.39.499711 +0530,
,Scenes\114a.jpg,122,0,123,,,,,,,f,1.4234250000008615,0.12001990000135265,None,,,,,,123,0,122,856.760706999994,,,,,,,,,,,,,,,,,,,,,,,856.7459352000005,856.760706999994,857.2641077000007,857.2443214999948,,,,,,,,,,,,,,,,,,,,,,,,,,857.2614541999938,857.2641077000007,857.2641077000007,857.2641077000007,,,,860.261725999997,f,1.4234250000008615,0.12001990000135265,860.2619386000006,860.2620098999905,None,,,,,,,,,,,,,,00025,001,2026-01-20_19h03.31.875,MST_task,2024.2.0,60.04895190258923,2026-01-20 19h03.39.499711 +0530,
,Scenes\033a.jpg,123,0,124,,,,,,,j,0.8456830999930389,0.15938209999876563,None,,,,,,124,0,123,860.2769944000029,,,,,,,,,,,,,,,,,,,,,,,860.2624129000033,860.2769944000029,860.7778322999948,860.7615445999982,,,,,,,,,,,,,,,,,,,,,,,,,,860.7717085999902,860.7778322999948,860.7778322999948,860.7778322999948,863.7771207000042,863.7771207000042,863.7771207000042,863.7625667999964,j,0.8456830999930389,0.15938209999876563,863.762756600001,863.7628182000044,None,,,,,,,,,,,,,,00025,001,2026-01-20_19h03.31.875,MST_task,2024.2.0,60.04895190258923,2026-01-20 19h03.39.499711 +0530,
,Scenes\058a.jpg,124,0,125,,,,,,,f,2.473643900011666,0.10439719998976216,None,,,,,,125,0,124,863.7771207000042,,,,,,,,,,,,,,,,,,,,,,,863.7631220000039,863.7771207000042,864.2774442999944,864.260827399994,,,,,,,,,,,,,,,,,,,,,,,,,,864.2747993999947,864.2774442999944,864.2774442999944,864.2774442999944,867.2771135999938,867.2771135999938,867.2771135999938,867.2618299000023,f,2.473643900011666,0.10439719998976216,867.2620530999993,867.2621177999972,None,,,,,,,,,,,,,,00025,001,2026-01-20_19h03.31.875,MST_task,2024.2.0,60.04895190258923,2026-01-20 19h03.39.499711 +0530,
,Scenes\075a.jpg,125,0,126,,,,,,,j,1.013414399989415,0.1517457000009017,None,,,,,,126,0,125,867.2771135999938,,,,,,,,,,,,,,,,,,,,,,,867.2625469999912,867.2771135999938,867.7780923999962,867.7611037000024,,,,,,,,,,,,,,,,,,,,,,,,,,867.7733073999989,867.7780923999962,867.7780923999962,867.7780923999962,870.7773040000029,870.7773040000029,870.7773040000029,870.7618823999946,j,1.013414399989415,0.1517457000009017,870.7620771999937,870.7621368999971,None,,,,,,,,,,,,,,00025,001,2026-01-20_19h03.31.875,MST_task,2024.2.0,60.04895190258923,2026-01-20 19h03.39.499711 +0530,
,Objects\038a.jpg,126,0,127,,,,,,,f,0.7850644999998622,0.1606212000042433,None,,,,,,127,0,126,870.7773040000029,,,,,,,,,,,,,,,,,,,,,,,870.7625232999999,870.7773040000029,871.2777900999936,871.2611090999999,,,,,,,,,,,,,,,,,,,,,,,,,,871.2704723999923,871.2777900999936,871.2777900999936,871.2777900999936,874.2772938999988,874.2772938999988,874.2772938999988,874.2615503999987,f,0.7850644999998622,0.1606212000042433,874.2617559999926,874.2618226999912,None,,,,,,,,,,,,,,00025,001,2026-01-20_19h03.31.875,MST_task,2024.2.0,60.04895190258923,2026-01-20 19h03.39.499711 +0530,
,Objects\154a.jpg,127,0,128,,,,,,,f,0.9421885999909136,0.16742530000919942,None,,,,,,128,0,127,874.2772938999988,,,,,,,,,,,,,,,,,,,,,,,874.2622318999929,874.2772938999988,874.7773272999912,874.7615822999942,,,,,,,,,,,,,,,,,,,,,,,,,,874.7710259000014,874.7773272999912,874.7773272999912,874.7773272999912,877.7772906000027,877.7772906000027,877.7772906000027,877.7617615999916,f,0.9421885999909136,0.16742530000919942,877.761957499999,877.7620178999932,None,,,,,,,,,,,,,,00025,001,2026-01-20_19h03.31.875,MST_task,2024.2.0,60.04895190258923,2026-01-20 19h03.39.499711 +0530,
,Objects\176a.jpg,128,0,129,,,,,,,f,0.9133261000097264,0.1687033999915002,None,,,,,,129,0,128,877.7772906000027,,,,,,,,,,,,,,,,,,,,,,,877.7623826999916,877.7772906000027,878.2775331000012,878.2610655000026,,,,,,,,,,,,,,,,,,,,,,,,,,878.2706112000014,878.2775331000012,878.2775331000012,878.2775331000012,881.2771646000037,881.2771646000037,881.2771646000037,881.2615781999921,f,0.9133261000097264,0.1687033999915002,881.2617706000019,881.2618298000016,None,,,,,,,,,,,,,,00025,001,2026-01-20_19h03.31.875,MST_task,2024.2.0,60.04895190258923,2026-01-20 19h03.39.499711 +0530,
,Objects\174a.jpg,129,0,130,,,,,,,f,0.7818899999983842,0.11984020000090823,None,,,,,,130,0,129,881.2771646000037,,,,,,,,,,,,,,,,,,,,,,,881.2622129999945,881.2771646000037,881.777665799993,881.761161699993,,,,,,,,,,,,,,,,,,,,,,,,,,881.7705808000028,881.777665799993,881.777665799993,881.777665799993,884.7771721000026,884.7771721000026,884.7771721000026,884.7618834000023,f,0.7818899999983842,0.11984020000090823,884.7620919000037,884.7621565000009,None,,,,,,,,,,,,,,00025,001,2026-01-20_19h03.31.875,MST_task,2024.2.0,60.04895190258923,2026-01-20 19h03.39.499711 +0530,
,Objects\021a.jpg,130,0,131,,,,,,,f,1.0982065999996848,0.11196140000538435,None,,,,,,131,0,130,884.7771721000026,,,,,,,,,,,,,,,,,,,,,,,884.762550799991,884.7771721000026,885.2772958999994,885.2609192999953,,,,,,,,,,,,,,,,,,,,,,,,,,885.2691531000019,885.2772958999994,885.2772958999994,885.2772958999994,888.2772909999912,888.2772909999912,888.2772909999912,888.261855299992,f,1.0982065999996848,0.11196140000538435,888.2620480999904,888.2621075999923,None,,,,,,,,,,,,,,00025,001,2026-01-20_19h03.31.875,MST_task,2024.2.0,60.04895190258923,2026-01-20 19h03.39.499711 +0530,
,Objects\137a.jpg,131,0,132,,,,,,,None,,,f,0.1660624999931315,None,,,,132,0,131,888.2772909999912,,,,,,,,,,,,,,,,,,,,,,,888.2624020999938,888.2772909999912,888.7775519999996,888.7611857000011,,,,,,,,,,,,,,,,,,,,,,,,,,888.7696226999979,888.7775519999996,888.7775519999996,888.7775519999996,891.7772647999955,891.7772647999955,891.7772647999955,891.7618624000024,None,,,891.7620412999968,891.9447043999971,f,891.7772647999955,891.7772647999955,0.1660624999931315,None,,,,,,,,,,00025,001,2026-01-20_19h03.31.875,MST_task,2024.2.0,60.04895190258923,2026-01-20 19h03.39.499711 +0530,
,Objects\120a.jpg,132,0,133,,,,,,,f,0.9703029999946011,0.16855820000637323,None,,,,,,133,0,132,891.9606955999916,,,,,,,,,,,,,,,,,,,,,,,891.9450718000007,891.9606955999916,892.4606091000023,892.443967500003,,,,,,,,,,,,,,,,,,,,,,,,,,892.4526688000042,892.4606091000023,892.4606091000023,892.4606091000023,895.4606884999957,895.4606884999957,895.4606884999957,895.4453694999975,f,0.9703029999946011,0.16855820000637323,895.4455634000042,895.4456256999983,None,,,,,,,,,,,,,,00025,001,2026-01-20_19h03.31.875,MST_task,2024.2.0,60.04895190258923,2026-01-20 19h03.39.499711 +0530,
,Scenes\038a.jpg,133,0,134,,,,,,,j,0.8111193999939132,0.16031459999794606,None,,,,,,134,0,133,895.4606884999957,,,,,,,,,,,,,,,,,,,,,,,895.4459251999942,895.4606884999957,895.9640762999916,895.9446446999937,,,,,,,,,,,,,,,,,,,,,,,,,,895.9615661999997,895.9640762999916,895.9640762999916,895.9640762999916,,,,898.9608720999968,j,0.8111193999939132,0.16031459999794606,898.9610707999964,898.9611323999998,None,,,,,,,,,,,,,,00025,001,2026-01-20_19h03.31.875,MST_task,2024.2.0,60.04895190258923,2026-01-20 19h03.39.499711 +0530,
,Scenes\167a.jpg,134,0,135,,,,,,,f,1.3979632999980822,0.18406320000940468,None,,,,,,135,0,134,898.9769072999916,,,,,,,,,,,,,,,,,,,,,,,898.9613828000001,898.9769072999916,899.4808898999909,899.4611004000035,,,,,,,,,,,,,,,,,,,,,,,,,,899.4780490999983,899.4808898999909,899.4808898999909,899.4808898999909,,,,902.478311999992,f,1.3979632999980822,0.18406320000940468,902.4785082000017,902.4785741999949,None,,,,,,,,,,,,,,00025,001,2026-01-20_19h03.31.875,MST_task,2024.2.0,60.04895190258923,2026-01-20 19h03.39.499711 +0530,
,Scenes\125a.jpg,135,0,136,,,,,,,j,0.9003924999997253,0.1446540000033565,None,,,,,,136,0,135,902.4940286999918,,,,,,,,,,,,,,,,,,,,,,,902.4789443999907,902.4940286999918,902.9944445000001,902.9773043000023,,,,,,,,,,,,,,,,,,,,,,,,,,902.9915456000017,902.9944445000001,902.9944445000001,902.9944445000001,905.9941779999936,905.9941779999936,905.9941779999936,905.9786328000046,j,0.9003924999997253,0.1446540000033565,905.9788253000006,905.9788847000018,None,,,,,,,,,,,,,,00025,001,2026-01-20_19h03.31.875,MST_task,2024.2.0,60.04895190258923,2026-01-20 19h03.39.499711 +0530,
,Scenes\118a.jpg,136,0,137,,,,,,,j,1.536402800003998,0.09592989999509882,None,,,,,,137,0,136,905.9941779999936,,,,,,,,,,,,,,,,,,,,,,,905.9792731999914,905.9941779999936,906.4944412999903,906.4774973000021,,,,,,,,,,,,,,,,,,,,,,,,,,906.489677599995,906.4944412999903,906.4944412999903,906.4944412999903,909.493916499996,909.493916499996,909.493916499996,909.4785701999936,j,1.536402800003998,0.09592989999509882,909.4787589999905,909.4788179000025,None,,,,,,,,,,,,,,00025,001,2026-01-20_19h03.31.875,MST_task,2024.2.0,60.04895190258923,2026-01-20 19h03.39.499711 +0530,
,Scenes\102a.jpg,137,0,138,,,,,,,f,1.2713997999962885,0.16002490000391845,None,,,,,,138,0,137,909.493916499996,,,,,,,,,,,,,,,,,,,,,,,909.4791939999996,909.493916499996,909.9994836999977,909.9777162999962,,,,,,,,,,,,,,,,,,,,,,,,,,909.9967153000034,909.9994836999977,909.9994836999977,909.9994836999977,,,,912.9945092999988,f,1.2713997999962885,0.16002490000391845,912.9947322999942,912.9947995999974,None,,,,,,,,,,,,,,00025,001,2026-01-20_19h03.31.875,MST_task,2024.2.0,60.04895190258923,2026-01-20 19h03.39.499711 +0530,
,Scenes\117a.jpg,138,0,139,,,,,,,j,0.7288461999996798,0.1504757999937283,None,,,,,,139,0,138,913.0106654999981,,,,,,,,,,,,,,,,,,,,,,,912.9951890999946,913.0106654999981,913.5114241999981,913.4943072000024,,,,,,,,,,,,,,,,,,,,,,,,,,913.5041493000026,913.5114241999981,913.5114241999981,913.5114241999981,916.5104558000021,916.5104558000021,916.5104558000021,916.4952029999986,j,0.7288461999996798,0.1504757999937283,916.4953929999901,916.4954522000044,None,,,,,,,,,,,,,,00025,001,2026-01-20_19h03.31.875,MST_task,2024.2.0,60.04895190258923,2026-01-20 19h03.39.499711 +0530,
,Scenes\174a.jpg,139,0,140,,,,,,,j,1.208573299998534,0.151988400000846,None,,,,,,140,0,139,916.5104558000021,,,,,,,,,,,,,,,,,,,,,,,916.4958344000042,916.5104558000021,917.0149431000027,916.9944756999903,,,,,,,,,,,,,,,,,,,,,,,,,,917.0121918999939,917.0149431000027,917.0149431000027,917.0149431000027,,,,920.0111196999933,j,1.208573299998534,0.151988400000846,920.0113274000032,920.0113986999932,None,,,,,,,,,,,,,,00025,001,2026-01-20_19h03.31.875,MST_task,2024.2.0,60.04895190258923,2026-01-20 19h03.39.499711 +0530,
,Objects\035a.jpg,140,0,141,,,,,,,f,1.4073324000055436,0.12037779999081977,None,,,,,,141,0,140,920.0273139999917,,,,,,,,,,,,,,,,,,,,,,,920.0117122999945,920.0273139999917,920.5277170999907,920.5109720000037,,,,,,,,,,,,,,,,,,,,,,,,,,920.5191336999997,920.5277170999907,920.5277170999907,920.5277170999907,923.5272950999934,923.5272950999934,923.5272950999934,923.5118576999957,f,1.4073324000055436,0.12037779999081977,923.5120456000004,923.5121042999963,None,,,,,,,,,,,,,,00025,001,2026-01-20_19h03.31.875,MST_task,2024.2.0,60.04895190258923,2026-01-20 19h03.39.499711 +0530,
,Objects\020a.jpg,141,0,142,,,,,,,f,1.067227500010631,0.14461730000039097,None,,,,,,142,0,141,923.5272950999934,,,,,,,,,,,,,,,,,,,,,,,923.5123846999923,923.5272950999934,924.0275784999976,924.0111398000008,,,,,,,,,,,,,,,,,,,,,,,,,,924.020475199999,924.0275784999976,924.0275784999976,924.0275784999976,927.027331099991,927.027331099991,927.027331099991,927.0118878999929,f,1.067227500010631,0.14461730000039097,927.0120849999948,927.0121599999984,None,,,,,,,,,,,,,,00025,001,2026-01-20_19h03.31.875,MST_task,2024.2.0,60.04895190258923,2026-01-20 19h03.39.499711 +0530,
,Objects\047a.jpg,142,0,143,,,,,,,f,0.8884126999910222,0.16786560000036843,None,,,,,,143,0,142,927.027331099991,,,,,,,,,,,,,,,,,,,,,,,927.012539599993,927.027331099991,927.5271841999929,927.5106826999981,,,,,,,,,,,,,,,,,,,,,,,,,,927.5166327999905,927.5271841999929,927.5271841999929,927.5271841999929,930.5286034000019,930.5286034000019,930.5286034000019,930.5116199999902,f,0.8884126999910222,0.16786560000036843,930.5118301000039,930.5118954999925,None,,,,,,,,,,,,,,00025,001,2026-01-20_19h03.31.875,MST_task,2024.2.0,60.04895190258923,2026-01-20 19h03.39.499711 +0530,
,Objects\114a.jpg,143,0,144,,,,,,,f,0.8023575999977766,0.14464589999988675,None,,,,,,144,0,143,930.5286034000019,,,,,,,,,,,,,,,,,,,,,,,930.5122869000043,930.5286034000019,,931.0273719999968,,,,,,,,,,,,,,,,,,,,,,,,,,931.0342957999965,931.0444264999969,931.0444264999969,931.0444264999969,,,,934.0274475999904,f,0.8023575999977766,0.14464589999988675,934.027640100001,934.0277046999981,None,,,,,,,,,,,,,,00025,001,2026-01-20_19h03.31.875,MST_task,2024.2.0,60.04895190258923,2026-01-20 19h03.39.499711 +0530,
,Objects\043a.jpg,144,0,145,,,,,,,f,2.166759700005059,0.1443859999999404,None,,,,,,145,0,144,934.043803099994,,,,,,,,,,,,,,,,,,,,,,,934.0280028999987,934.043803099994,934.5442708000046,934.5276416999986,,,,,,,,,,,,,,,,,,,,,,,,,,934.5374837999989,934.5442708000046,934.5442708000046,934.5442708000046,937.5440581000003,937.5440581000003,937.5440581000003,937.5285427999916,f,2.166759700005059,0.1443859999999404,937.5287553999951,937.5288160999917,None,,,,,,,,,,,,,,00025,001,2026-01-20_19h03.31.875,MST_task,2024.2.0,60.04895190258923,2026-01-20 19h03.39.499711 +0530,
,Objects\007a.jpg,145,0,146,,,,,,,f,1.1386754000122892,0.19211669999640435,None,,,,,,146,0,145,937.5440581000003,,,,,,,,,,,,,,,,,,,,,,,937.5291144999937,937.5440581000003,938.0440353000013,938.0275747999985,,,,,,,,,,,,,,,,,,,,,,,,,,938.034093299997,938.0440353000013,938.0440353000013,938.0440353000013,941.0440619000001,941.0440619000001,941.0440619000001,941.0281538999989,f,1.1386754000122892,0.19211669999640435,941.0283598999958,941.028424499993,None,,,,,,,,,,,,,,00025,001,2026-01-20_19h03.31.875,MST_task,2024.2.0,60.04895190258923,2026-01-20 19h03.39.499711 +0530,
,Objects\129a.jpg,146,0,147,,,,,,,f,1.750794899999164,0.1519140000018524,None,,,,,,147,0,146,941.0440619000001,,,,,,,,,,,,,,,,,,,,,,,941.0287470000039,941.0440619000001,941.544038299995,941.5277492000023,,,,,,,,,,,,,,,,,,,,,,,,,,941.5368304000003,941.544038299995,941.544038299995,941.544038299995,944.5440414000041,944.5440414000041,944.5440414000041,944.5284628999943,f,1.750794899999164,0.1519140000018524,944.5286581999972,944.5287166999915,None,,,,,,,,,,,,,,00025,001,2026-01-20_19h03.31.875,MST_task,2024.2.0,60.04895190258923,2026-01-20 19h03.39.499711 +0530,
,Scenes\144a.jpg,147,0,148,,,,,,,j,0.815599999987171,0.15177560001029633,None,,,,,,148,0,147,944.5440414000041,,,,,,,,,,,,,,,,,,,,,,,944.5290934999939,944.5440414000041,945.0474606999924,945.0276944999932,,,,,,,,,,,,,,,,,,,,,,,,,,945.0449495999928,945.0474606999924,945.0474606999924,945.0474606999924,,,,948.0445580999949,j,0.815599999987171,0.15177560001029633,948.0447578000021,948.0448259999976,None,,,,,,,,,,,,,,00025,001,2026-01-20_19h03.31.875,MST_task,2024.2.0,60.04895190258923,2026-01-20 19h03.39.499711 +0530,
,Scenes\123a.jpg,148,0,149,,,,,,,j,0.6614411000045948,0.16801639999903273,None,,,,,,149,0,148,948.0606071999937,,,,,,,,,,,,,,,,,,,,,,,948.0451900999906,948.0606071999937,948.5620266000042,948.5444874999957,,,,,,,,,,,,,,,,,,,,,,,,,,948.559348099996,948.5620266000042,948.5620266000042,948.5620266000042,,,,951.5611654999957,j,0.6614411000045948,0.16801639999903273,951.5613916000002,951.5614624000009,None,,,,,,,,,,,,,,00025,001,2026-01-20_19h03.31.875,MST_task,2024.2.0,60.04895190258923,2026-01-20 19h03.39.499711 +0530,
,Scenes\054a.jpg,149,0,150,,,,,,,j,2.0687255000084406,0.13574489999155048,None,,,,,,150,0,149,951.5773375999997,,,,,,,,,,,,,,,,,,,,,,,951.5618630999961,951.5773375999997,952.0827591999987,952.0611501999956,,,,,,,,,,,,,,,,,,,,,,,,,,952.0800270000036,952.0827591999987,952.0827591999987,952.0827591999987,,,,955.0776333999966,j,2.0687255000084406,0.13574489999155048,955.0778437999979,955.0779089999996,None,,,,,,,,,,,,,,00025,001,2026-01-20_19h03.31.875,MST_task,2024.2.0,60.04895190258923,2026-01-20 19h03.39.499711 +0530,
,Scenes\077a.jpg,150,0,151,,,,,,,j,1.8296734999894397,0.15261080001073424,None,,,,,,151,0,150,955.0940406000009,,,,,,,,,,,,,,,,,,,,,,,955.0783407999988,955.0940406000009,955.6011094999994,955.5776941999939,,,,,,,,,,,,,,,,,,,,,,,,,,955.5980607999954,955.6011094999994,955.6011094999994,955.6011094999994,,,,958.5947749000043,j,1.8296734999894397,0.15261080001073424,958.595064699999,958.595138699995,None,,,,,,,,,,,,,,00025,001,2026-01-20_19h03.31.875,MST_task,2024.2.0,60.04895190258923,2026-01-20 19h03.39.499711 +0530,
,Scenes\017a.jpg,151,0,152,,,,,,,f,1.87606439999945,0.11941470000601839,None,,,,,,152,0,151,958.6107305999903,,,,,,,,,,,,,,,,,,,,,,,958.5954663000011,958.6107305999903,959.1154351000005,959.094515299992,,,,,,,,,,,,,,,,,,,,,,,,,,959.1127081000013,959.1154351000005,959.1154351000005,959.1154351000005,,,,962.1110860999906,f,1.87606439999945,0.11941470000601839,962.1112907999923,962.1113566999993,None,,,,,,,,,,,,,,00025,001,2026-01-20_19h03.31.875,MST_task,2024.2.0,60.04895190258923,2026-01-20 19h03.39.499711 +0530,
,Scenes\018a.jpg,152,0,153,,,,,,,None,,,f,0.6029319999943255,None,,,,153,0,152,962.1271295000042,,,,,,,,,,,,,,,,,,,,,,,962.1117377000046,962.1271295000042,962.6332320999936,962.6111490999901,,,,,,,,,,,,,,,,,,,,,,,,,,962.629683399995,962.6332320999936,962.6332320999936,962.6332320999936,,,,965.6277090999938,None,,,965.6278887999943,966.2612615999969,f,965.6439438999951,965.6439438999951,0.6029319999943255,None,,,,,,,,,,00025,001,2026-01-20_19h03.31.875,MST_task,2024.2.0,60.04895190258923,2026-01-20 19h03.39.499711 +0530,
,Scenes\112a.jpg,153,0,154,,,,,,,j,1.393069400000968,0.15989229999831878,None,,,,,,154,0,153,966.2772977999994,,,,,,,,,,,,,,,,,,,,,,,966.2616254000022,966.2772977999994,966.782022799991,966.7609436999919,,,,,,,,,,,,,,,,,,,,,,,,,,966.7789276999974,966.782022799991,966.782022799991,966.782022799991,,,,969.7773551999999,j,1.393069400000968,0.15989229999831878,969.7775630999968,969.7776296999946,None,,,,,,,,,,,,,,00025,001,2026-01-20_19h03.31.875,MST_task,2024.2.0,60.04895190258923,2026-01-20 19h03.39.499711 +0530,
,Objects\161a.jpg,154,0,155,,,,,,,f,2.5129005999915535,0.1279631000070367,None,,,,,,155,0,154,969.7940510999906,,,,,,,,,,,,,,,,,,,,,,,969.777943299996,969.7940510999906,970.2945408999949,970.2777557999943,,,,,,,,,,,,,,,,,,,,,,,,,,970.2876106999902,970.2945408999949,970.2945408999949,970.2945408999949,973.2940750999987,973.2940750999987,973.2940750999987,973.278556899997,f,2.5129005999915535,0.1279631000070367,973.2787704999937,973.2788300999964,None,,,,,,,,,,,,,,00025,001,2026-01-20_19h03.31.875,MST_task,2024.2.0,60.04895190258923,2026-01-20 19h03.39.499711 +0530,
,Objects\190a.jpg,155,0,156,,,,,,,f,2.300559899988002,0.12853970000287518,None,,,,,,156,0,155,973.2940750999987,,,,,,,,,,,,,,,,,,,,,,,973.2791313999915,973.2940750999987,973.7942970000004,973.7777156999946,,,,,,,,,,,,,,,,,,,,,,,,,,973.7863823999942,973.7942970000004,973.7942970000004,973.7942970000004,976.7936756999989,976.7936756999989,976.7936756999989,976.7784842999972,f,2.300559899988002,0.12853970000287518,976.7786751999956,976.7787343999953,None,,,,,,,,,,,,,,00025,001,2026-01-20_19h03.31.875,MST_task,2024.2.0,60.04895190258923,2026-01-20 19h03.39.499711 +0530,
,Objects\062a.jpg,156,0,157,,,,,,,f,1.8726284999866039,0.1765235000057146,None,,,,,,157,0,156,976.7936756999989,,,,,,,,,,,,,,,,,,,,,,,976.779039400004,976.7936756999989,977.2941234000027,977.2775737999909,,,,,,,,,,,,,,,,,,,,,,,,,,977.2854086000007,977.2941234000027,977.2941234000027,977.2941234000027,980.293808699993,980.293808699993,980.293808699993,980.2787230999966,f,1.8726284999866039,0.1765235000057146,980.278939900003,980.2790056999947,None,,,,,,,,,,,,,,00025,001,2026-01-20_19h03.31.875,MST_task,2024.2.0,60.04895190258923,2026-01-20 19h03.39.499711 +0530,
,Objects\011a.jpg,157,0,158,,,,,,,f,1.4687758999934886,0.16801890000351705,None,,,,,,158,0,157,980.293808699993,,,,,,,,,,,,,,,,,,,,,,,980.2793297000026,980.293808699993,980.7939484999952,980.7775832999905,,,,,,,,,,,,,,,,,,,,,,,,,,980.7864143000043,980.7939484999952,980.7939484999952,980.7939484999952,983.7938545999932,983.7938545999932,983.7938545999932,983.7784741999931,f,1.4687758999934886,0.16801890000351705,983.7786763999902,983.7787366999983,None,,,,,,,,,,,,,,00025,001,2026-01-20_19h03.31.875,MST_task,2024.2.0,60.04895190258923,2026-01-20 19h03.39.499711 +0530,
,Objects\066a.jpg,158,0,159,,,,,,,f,2.224859200010542,0.16876709999633022,None,,,,,,159,0,158,983.7938545999932,,,,,,,,,,,,,,,,,,,,,,,983.7790401999955,983.7938545999932,984.2939509999997,984.2778528999916,,,,,,,,,,,,,,,,,,,,,,,,,,984.2876833999908,984.2939509999997,984.2939509999997,984.2939509999997,987.2940495999937,987.2940495999937,987.2940495999937,987.2786235999956,f,2.224859200010542,0.16876709999633022,987.2788347000023,987.2788994000002,None,,,,,,,,,,,,,,00025,001,2026-01-20_19h03.31.875,MST_task,2024.2.0,60.04895190258923,2026-01-20 19h03.39.499711 +0530,
,Objects\029a.jpg,159,0,160,,,,,,,f,1.5087823000067146,0.1523382000013953,None,,,,,,160,0,159,987.2940495999937,,,,,,,,,,,,,,,,,,,,,,,987.2792337999999,987.2940495999937,987.7942780000012,987.7774093999906,,,,,,,,,,,,,,,,,,,,,,,,,,987.7862126999971,987.7942780000012,987.7942780000012,987.7942780000012,990.7940635999985,990.7940635999985,990.7940635999985,990.778528099996,f,1.5087823000067146,0.1523382000013953,990.7787245999934,990.7787841999962,None,,,,,,,,,,,,,,00025,001,2026-01-20_19h03.31.875,MST_task,2024.2.0,60.04895190258923,2026-01-20 19h03.39.499711 +0530,
,Objects\164a.jpg,160,0,161,,,,,,,None,,,f,1.1373465999931796,None,,,,161,0,160,990.7940635999985,,,,,,,,,,,,,,,,,,,,,,,990.7791811999923,990.7940635999985,991.2943573999946,991.2777411999996,,,,,,,,,,,,,,,,,,,,,,,,,,991.2867316999909,991.2943573999946,991.2943573999946,991.2943573999946,994.2940522999997,994.2940522999997,994.2940522999997,994.2784852999903,None,,,994.2786629000038,995.4445689999993,f,994.2940522999997,994.2940522999997,1.1373465999931796,None,,,,,,,,,,00025,001,2026-01-20_19h03.31.875,MST_task,2024.2.0,60.04895190258923,2026-01-20 19h03.39.499711 +0530,
,Scenes\158a.jpg,161,0,162,,,,,,,j,1.410626400000183,0.16801049999776296,None,,,,,,162,0,161,995.4607060999988,,,,,,,,,,,,,,,,,,,,,,,995.4450187000039,995.4607060999988,995.9644499999995,995.9445495999971,,,,,,,,,,,,,,,,,,,,,,,,,,995.9618258999981,995.9644499999995,995.9644499999995,995.9644499999995,,,,998.9611466999922,j,1.410626400000183,0.16801049999776296,998.9613611999957,998.961434900004,None,,,,,,,,,,,,,,00025,001,2026-01-20_19h03.31.875,MST_task,2024.2.0,60.04895190258923,2026-01-20 19h03.39.499711 +0530,
,Scenes\170a.jpg,162,0,163,,,,,,,j,0.8480913999956101,0.18403220000618603,None,,,,,,163,0,162,998.9773292000027,,,,,,,,,,,,,,,,,,,,,,,998.9617546999943,998.9773292000027,999.4786874999991,999.4611348000035,,,,,,,,,,,,,,,,,,,,,,,,,,999.4759623999998,999.4786874999991,999.4786874999991,999.4786874999991,,,,1002.4775711999973,j,0.8480913999956101,0.18403220000618603,1002.4777701999992,1002.4778346999956,None,,,,,,,,,,,,,,00025,001,2026-01-20_19h03.31.875,MST_task,2024.2.0,60.04895190258923,2026-01-20 19h03.39.499711 +0530,
,Scenes\047a.jpg,163,0,164,,,,,,,j,1.0416945999895688,0.12810950000130106,None,,,,,,164,0,163,1002.4939285,,,,,,,,,,,,,,,,,,,,,,,1002.4781987000024,1002.4939285,1002.997338599991,1002.9777245000005,,,,,,,,,,,,,,,,,,,,,,,,,,1002.9946605000005,1002.997338599991,1002.997338599991,1002.997338599991,,,,1005.9941952999943,j,1.0416945999895688,0.12810950000130106,1005.9943925999978,1005.9944589999941,None,,,,,,,,,,,,,,00025,001,2026-01-20_19h03.31.875,MST_task,2024.2.0,60.04895190258923,2026-01-20 19h03.39.499711 +0530,
,Scenes\190a.jpg,164,0,165,,,,,,,j,0.8282773999962956,0.14410160000261385,None,,,,,,165,0,164,1006.0102264000016,,,,,,,,,,,,,,,,,,,,,,,1005.9948302999983,1006.0102264000016,1006.5150140000042,1006.4944688999967,,,,,,,,,,,,,,,,,,,,,,,,,,1006.512043499999,1006.5150140000042,1006.5150140000042,1006.5150140000042,,,,1009.511148199992,j,0.8282773999962956,0.14410160000261385,1009.5113574999996,1009.5114302000002,None,,,,,,,,,,,,,,00025,001,2026-01-20_19h03.31.875,MST_task,2024.2.0,60.04895190258923,2026-01-20 19h03.39.499711 +0530,
