thisN,thisTrialN,thisRepN,key_resp_3.keys,key_resp_3.rt,key_resp_3.duration,trials.thisRepN,trials.thisTrialN,trials.thisN,thisRow.t,notes,intro_page.started,text.started,key_resp.started,intro_page.stopped,key_resp.keys,key_resp.rt,key_resp.duration,instructions.started,text_2.started,key_resp_2.started,instructions.stopped,key_resp_2.keys,key_resp_2.rt,key_resp_2.duration,demo1.started,image_1.started,image_2.started,text_7.started,key_resp_6.started,text_9.started,demo1.stopped,key_resp_6.keys,key_resp_6.rt,key_resp_6.duration,demo2.started,image_5.started,image_6.started,text_11.started,text_12.started,key_resp_8.started,demo2.stopped,key_resp_8.keys,key_resp_8.rt,key_resp_8.duration,demo_conclusion.started,text_13.started,key_resp_9.started,demo_conclusion.stopped,key_resp_9.keys,key_resp_9.rt,key_resp_9.duration,start_test.started,text_6.started,key_resp_5.started,start_test.stopped,key_resp_5.keys,key_resp_5.rt,key_resp_5.duration,ISI.started,text_4.started,text_4.stopped,ISI.stopped,routine_1.started,image.started,text_3.started,key_resp_3.started,routine_1.stopped,image_path,position_of_stimuli,trials.key_resp_3.keys,trials.key_resp_3.rt,trials.key_resp_3.duration,End_page.started,text_5.started,key_resp_4.started,End_page.stopped,key_resp_4.keys,key_resp_4.rt,key_resp_4.duration,participant,session,date,expName,psychopyVersion,frameRate,expStart,
,,,,,,,,,,,0.0012584000069182366,0.0030423999996855855,0.0030423999996855855,2.7774639000126626,space,2.7676097999792546,None,,,,,,,,,,,,,,,,,,,,,,,,,,,,,,,,,,,,,,,,,,,,,,,,,,,,,,,,,,,,,,,00039,001,2026-01-23_17h27.51.140,MST_test,2024.2.0,60.17727020381961,2026-01-23 17h28.00.486278 +0530,
,,,,,,,,,,,,,,,,,,2.77750319999177,2.7915076999925077,2.7915076999925077,11.359011299995473,space,8.563074100005906,None,,,,,,,,,,,,,,,,,,,,,,,,,,,,,,,,,,,,,,,,,,,,,,,,,,,,,,,,00039,001,2026-01-23_17h27.51.140,MST_test,2024.2.0,60.17727020381961,2026-01-23 17h28.00.486278 +0530,
,,,,,,,,,,,,,,,,,,,,,,,,,11.359050200000638,11.37528890001704,11.37528890001704,11.37528890001704,11.37528890001704,11.37528890001704,15.809225700009847,space,4.427040400012629,None,,,,,,,,,,,,,,,,,,,,,,,,,,,,,,,,,,,,,,,,,,,,,,00039,001,2026-01-23_17h27.51.140,MST_test,2024.2.0,60.17727020381961,2026-01-23 17h28.00.486278 +0530,
,,,,,,,,,,,,,,,,,,,,,,,,,,,,,,,,,,,15.809292399993865,15.825444999994943,15.825444999994943,15.825444999994943,15.825444999994943,15.825444999994943,20.97580280000693,space,5.136645000020508,None,,,,,,,,,,,,,,,,,,,,,,,,,,,,,,,,,,,,00039,001,2026-01-23_17h27.51.140,MST_test,2024.2.0,60.17727020381961,2026-01-23 17h28.00.486278 +0530,
,,,,,,,,,,,,,,,,,,,,,,,,,,,,,,,,,,,,,,,,,,,,,20.97583989999839,20.991872700018575,20.991872700018575,104.32516810001107,space,83.33061000000453,None,,,,,,,,,,,,,,,,,,,,,,,,,,,,,00039,001,2026-01-23_17h27.51.140,MST_test,2024.2.0,60.17727020381961,2026-01-23 17h28.00.486278 +0530,
,,,,,,,,,,,,,,,,,,,,,,,,,,,,,,,,,,,,,,,,,,,,,,,,,,,,104.32521529999212,104.34149600000819,104.34149600000819,120.3087759000191,space,15.957062000001315,None,,,,,,,,,,,,,,,,,,,,,,00039,001,2026-01-23_17h27.51.140,MST_test,2024.2.0,60.17727020381961,2026-01-23 17h28.00.486278 +0530,
0,0,1,n,7.747515099996235,None,1,0,0,120.32446090001031,,,,,,,,,,,,,,,,,,,,,,,,,,,,,,,,,,,,,,,,,,,,,,,,,,120.31296900002053,120.32446090001031,120.83068569999887,120.80912140000146,120.82785160001367,120.83068569999887,120.83068569999887,120.83068569999887,128.59220380001352,Foils\081a.jpg,none,n,7.747515099996235,None,,,,,,,,00039,001,2026-01-23_17h27.51.140,MST_test,2024.2.0,60.17727020381961,2026-01-23 17h28.00.486278 +0530,
1,0,2,n,3.150103600026341,None,2,0,1,128.6081978000002,,,,,,,,,,,,,,,,,,,,,,,,,,,,,,,,,,,,,,,,,,,,,,,,,,128.59236569999484,128.6081978000002,129.10849090002012,129.09176670000306,129.10284310000134,129.10849090002012,129.10849090002012,129.10849090002012,132.25973370001884,Foils\scenes18.jpg,none,n,3.150103600026341,None,,,,,,,,00039,001,2026-01-23_17h27.51.140,MST_test,2024.2.0,60.17727020381961,2026-01-23 17h28.00.486278 +0530,
2,0,3,s,4.858873100019991,None,3,0,2,132.27461350001977,,,,,,,,,,,,,,,,,,,,,,,,,,,,,,,,,,,,,,,,,,,,,,,,,,132.25984199999948,132.27461350001977,132.7753011000168,132.75831999999355,132.77162159999716,132.7753011000168,132.7753011000168,132.7753011000168,137.64235290000215,Scenes\190a.jpg,pre,s,4.858873100019991,None,,,,,,,,00039,001,2026-01-23_17h27.51.140,MST_test,2024.2.0,60.17727020381961,2026-01-23 17h28.00.486278 +0530,
3,0,4,n,3.5269018999824766,None,4,0,3,137.65816009999253,,,,,,,,,,,,,,,,,,,,,,,,,,,,,,,,,,,,,,,,,,,,,,,,,,137.6424648000102,137.65816009999253,138.16297930001747,138.14179379999405,138.1603270000196,138.16297930001747,138.16297930001747,138.16297930001747,141.69223250000505,Foils\scenes28.jpg,none,n,3.5269018999824766,None,,,,,,,,00039,001,2026-01-23_17h27.51.140,MST_test,2024.2.0,60.17727020381961,2026-01-23 17h28.00.486278 +0530,
4,0,5,s,2.2419814000022598,None,5,0,4,141.70837160001975,,,,,,,,,,,,,,,,,,,,,,,,,,,,,,,,,,,,,,,,,,,,,,,,,,141.69234270000015,141.70837160001975,142.20863400000962,142.1917201000033,142.20196310000028,142.20863400000962,142.20863400000962,142.20863400000962,144.45959250000305,Objects\112a.jpg,pre,s,2.2419814000022598,None,,,,,,,,00039,001,2026-01-23_17h27.51.140,MST_test,2024.2.0,60.17727020381961,2026-01-23 17h28.00.486278 +0530,
5,0,6,o,1.9632404999865685,None,6,0,5,144.47461269999621,,,,,,,,,,,,,,,,,,,,,,,,,,,,,,,,,,,,,,,,,,,,,,,,,,144.4597269000078,144.47461269999621,144.97506399999838,144.95831909999833,144.96936390001792,144.97506399999838,144.97506399999838,144.97506399999838,146.94267469999613,Scenes\125a.jpg,mid,o,1.9632404999865685,None,,,,,,,,00039,001,2026-01-23_17h27.51.140,MST_test,2024.2.0,60.17727020381961,2026-01-23 17h28.00.486278 +0530,
6,0,7,n,5.800244499987457,None,7,0,6,146.9584373999969,,,,,,,,,,,,,,,,,,,,,,,,,,,,,,,,,,,,,,,,,,,,,,,,,,146.94278250000207,146.9584373999969,147.45809790000203,147.44190239999443,147.4473101000185,147.45809790000203,147.45809790000203,147.45809790000203,153.27544900000794,Foils\scenes11.jpg,none,n,5.800244499987457,None,,,,,,,,00039,001,2026-01-23_17h27.51.140,MST_test,2024.2.0,60.17727020381961,2026-01-23 17h28.00.486278 +0530,
7,0,8,n,2.281971899996279,None,8,0,7,153.29118470000685,,,,,,,,,,,,,,,,,,,,,,,,,,,,,,,,,,,,,,,,,,,,,,,,,,153.27556589999585,153.29118470000685,153.79177080001682,153.7755662999989,153.78591440001037,153.79177080001682,153.79177080001682,153.79177080001682,156.07562290001079,Foils\scenes12.jpg,none,n,2.281971899996279,None,,,,,,,,00039,001,2026-01-23_17h27.51.140,MST_test,2024.2.0,60.17727020381961,2026-01-23 17h28.00.486278 +0530,
8,0,9,s,2.0586418000166304,None,9,0,8,156.0918722000206,,,,,,,,,,,,,,,,,,,,,,,,,,,,,,,,,,,,,,,,,,,,,,,,,,156.07574610001757,156.0918722000206,156.59926469999482,156.5750987000065,156.5961634000123,156.59926469999482,156.59926469999482,156.59926469999482,158.6588507000124,Foils\scenes23.jpg,none,s,2.0586418000166304,None,,,,,,,,00039,001,2026-01-23_17h27.51.140,MST_test,2024.2.0,60.17727020381961,2026-01-23 17h28.00.486278 +0530,
9,0,10,s,15.466706500010332,None,10,0,9,158.67449430000852,,,,,,,,,,,,,,,,,,,,,,,,,,,,,,,,,,,,,,,,,,,,,,,,,,158.65896760000032,158.67449430000852,159.17523230001098,159.1582280000148,159.17245340000954,159.17523230001098,159.17523230001098,159.17523230001098,174.658834700007,Objects\050b.jpg,pre,s,15.466706500010332,None,,,,,,,,00039,001,2026-01-23_17h27.51.140,MST_test,2024.2.0,60.17727020381961,2026-01-23 17h28.00.486278 +0530,
10,0,11,s,3.601727100001881,None,11,0,10,174.67446000000928,,,,,,,,,,,,,,,,,,,,,,,,,,,,,,,,,,,,,,,,,,,,,,,,,,174.6589573000092,174.67446000000928,175.17680859999382,175.15832310001133,175.1742398000206,175.17680859999382,175.17680859999382,175.17680859999382,178.7926870000083,Scenes\129b.jpg,pre,s,3.601727100001881,None,,,,,,,,00039,001,2026-01-23_17h27.51.140,MST_test,2024.2.0,60.17727020381961,2026-01-23 17h28.00.486278 +0530,
11,0,12,o,1.734000800002832,None,12,0,11,178.8082701000094,,,,,,,,,,,,,,,,,,,,,,,,,,,,,,,,,,,,,,,,,,,,,,,,,,178.79280379999545,178.8082701000094,179.3085587999958,179.2916177000152,179.3012555000023,179.3085587999958,179.3085587999958,179.3085587999958,181.05894660000922,Scenes\104a.jpg,post,o,1.734000800002832,None,,,,,,,,00039,001,2026-01-23_17h27.51.140,MST_test,2024.2.0,60.17727020381961,2026-01-23 17h28.00.486278 +0530,
12,0,13,s,3.0827764999994542,None,13,0,12,181.075052900007,,,,,,,,,,,,,,,,,,,,,,,,,,,,,,,,,,,,,,,,,,,,,,,,,,181.0590566000028,181.075052900007,181.57570430001942,181.55836910000653,181.5713614000124,181.57570430001942,181.57570430001942,181.57570430001942,184.67502210001112,Foils\105a.jpg,none,s,3.0827764999994542,None,,,,,,,,00039,001,2026-01-23_17h27.51.140,MST_test,2024.2.0,60.17727020381961,2026-01-23 17h28.00.486278 +0530,
13,0,14,o,1.6189350000058766,None,14,0,13,184.6911342999956,,,,,,,,,,,,,,,,,,,,,,,,,,,,,,,,,,,,,,,,,,,,,,,,,,184.6751421999943,184.6911342999956,185.19144630001392,185.1751310999971,185.17817830000422,185.19144630001392,185.19144630001392,185.19144630001392,186.8254094000149,Objects\142a.jpg,pre,o,1.6189350000058766,None,,,,,,,,00039,001,2026-01-23_17h27.51.140,MST_test,2024.2.0,60.17727020381961,2026-01-23 17h28.00.486278 +0530,
14,0,15,o,0.9244882000202779,None,15,0,14,186.8414574000053,,,,,,,,,,,,,,,,,,,,,,,,,,,,,,,,,,,,,,,,,,,,,,,,,,186.8255209000199,186.8414574000053,187.34217109999736,187.3250775000197,187.32822830000077,187.34217109999736,187.34217109999736,187.34217109999736,188.27549339999678,Objects\126a.jpg,post,o,0.9244882000202779,None,,,,,,,,00039,001,2026-01-23_17h27.51.140,MST_test,2024.2.0,60.17727020381961,2026-01-23 17h28.00.486278 +0530,
15,0,16,s,1.6109564999933355,None,16,0,15,188.29131329999655,,,,,,,,,,,,,,,,,,,,,,,,,,,,,,,,,,,,,,,,,,,,,,,,,,188.27562080000644,188.29131329999655,188.79967500001658,188.7749308999919,188.79738500001258,188.79967500001658,188.79967500001658,188.79967500001658,190.42541210001218,Scenes\002b.jpg,pre,s,1.6109564999933355,None,,,,,,,,00039,001,2026-01-23_17h27.51.140,MST_test,2024.2.0,60.17727020381961,2026-01-23 17h28.00.486278 +0530,
16,0,17,n,4.476057799998671,None,17,0,16,190.4416549000016,,,,,,,,,,,,,,,,,,,,,,,,,,,,,,,,,,,,,,,,,,,,,,,,,,190.42552010001964,190.4416549000016,190.94206739999936,190.92495010001585,190.93531450000592,190.94206739999936,190.94206739999936,190.94206739999936,195.4256635000056,Foils\scenes16.jpg,none,n,4.476057799998671,None,,,,,,,,00039,001,2026-01-23_17h27.51.140,MST_test,2024.2.0,60.17727020381961,2026-01-23 17h28.00.486278 +0530,
17,0,18,n,3.1956627999898046,None,18,0,17,195.4418099000177,,,,,,,,,,,,,,,,,,,,,,,,,,,,,,,,,,,,,,,,,,,,,,,,,,195.42577180001535,195.4418099000177,195.94222420000006,195.92572389999987,195.92872590001207,195.94222420000006,195.94222420000006,195.94222420000006,199.14231510000536,Foils\scenes17.jpg,none,n,3.1956627999898046,None,,,,,,,,00039,001,2026-01-23_17h27.51.140,MST_test,2024.2.0,60.17727020381961,2026-01-23 17h28.00.486278 +0530,
18,0,19,o,1.2958704000047874,None,19,0,18,199.15874340001028,,,,,,,,,,,,,,,,,,,,,,,,,,,,,,,,,,,,,,,,,,,,,,,,,,199.14242400001967,199.15874340001028,199.6592784000095,199.6417740000179,199.65307770000072,199.6592784000095,199.6592784000095,199.6592784000095,200.95975929999258,Scenes\043a.jpg,post,o,1.2958704000047874,None,,,,,,,,00039,001,2026-01-23_17h27.51.140,MST_test,2024.2.0,60.17727020381961,2026-01-23 17h28.00.486278 +0530,
19,0,20,o,1.2304625999822747,None,20,0,19,200.97455260000424,,,,,,,,,,,,,,,,,,,,,,,,,,,,,,,,,,,,,,,,,,,,,,,,,,200.9598651000124,200.97455260000424,201.47537450000527,201.45908860000782,201.46245120000094,201.47537450000527,201.47537450000527,201.47537450000527,202.7085350000125,Objects\057a.jpg,post,o,1.2304625999822747,None,,,,,,,,00039,001,2026-01-23_17h27.51.140,MST_test,2024.2.0,60.17727020381961,2026-01-23 17h28.00.486278 +0530,
20,0,21,o,0.9617699999944307,None,21,0,20,202.7244456000044,,,,,,,,,,,,,,,,,,,,,,,,,,,,,,,,,,,,,,,,,,,,,,,,,,202.7086501000158,202.7244456000044,203.22475310001755,203.20866010000464,203.21145870001055,203.22475310001755,203.22475310001755,203.22475310001755,204.1924241000088,Objects\062a.jpg,pre,o,0.9617699999944307,None,,,,,,,,00039,001,2026-01-23_17h27.51.140,MST_test,2024.2.0,60.17727020381961,2026-01-23 17h28.00.486278 +0530,
21,0,22,o,0.90196570000262,None,22,0,21,204.20805539999856,,,,,,,,,,,,,,,,,,,,,,,,,,,,,,,,,,,,,,,,,,,,,,,,,,204.1925441000203,204.20805539999856,204.70851540000876,204.69163220000337,204.69885570000042,204.70851540000876,204.70851540000876,204.70851540000876,205.6258325999952,Scenes\154a.jpg,pre,o,0.90196570000262,None,,,,,,,,00039,001,2026-01-23_17h27.51.140,MST_test,2024.2.0,60.17727020381961,2026-01-23 17h28.00.486278 +0530,
22,0,23,o,0.8443975000118371,None,23,0,22,205.64147910001338,,,,,,,,,,,,,,,,,,,,,,,,,,,,,,,,,,,,,,,,,,,,,,,,,,205.6259410000057,205.64147910001338,206.14210870000534,206.12507740000729,206.13532309999573,206.14210870000534,206.14210870000534,206.14210870000534,206.9922787999967,Scenes\007a.jpg,post,o,0.8443975000118371,None,,,,,,,,00039,001,2026-01-23_17h27.51.140,MST_test,2024.2.0,60.17727020381961,2026-01-23 17h28.00.486278 +0530,
23,0,24,o,1.2459993000084069,None,24,0,23,207.0080147999979,,,,,,,,,,,,,,,,,,,,,,,,,,,,,,,,,,,,,,,,,,,,,,,,,,206.99240809999174,207.0080147999979,207.50869160000002,207.4915536000044,207.49646100000245,207.50869160000002,207.50869160000002,207.50869160000002,208.75882420002017,Objects\118a.jpg,post,o,1.2459993000084069,None,,,,,,,,00039,001,2026-01-23_17h27.51.140,MST_test,2024.2.0,60.17727020381961,2026-01-23 17h28.00.486278 +0530,
24,0,25,s,2.1906853999826126,None,25,0,24,208.77470219999668,,,,,,,,,,,,,,,,,,,,,,,,,,,,,,,,,,,,,,,,,,,,,,,,,,208.75893159999396,208.77470219999668,209.2751430000062,209.25874509999994,209.2720060000138,209.2751430000062,209.2751430000062,209.2751430000062,211.4754277000029,Foils\scenes19.jpg,none,s,2.1906853999826126,None,,,,,,,,00039,001,2026-01-23_17h27.51.140,MST_test,2024.2.0,60.17727020381961,2026-01-23 17h28.00.486278 +0530,
25,0,26,n,5.929282000026433,None,26,0,25,211.49278920001234,,,,,,,,,,,,,,,,,,,,,,,,,,,,,,,,,,,,,,,,,,,,,,,,,,211.47553729999345,211.49278920001234,,211.99152400001185,211.99575780000305,212.00889460000326,212.00889460000326,212.00889460000326,217.94286890001968,Foils\082a.jpg,none,n,5.929282000026433,None,,,,,,,,00039,001,2026-01-23_17h27.51.140,MST_test,2024.2.0,60.17727020381961,2026-01-23 17h28.00.486278 +0530,
26,0,27,n,2.1913805000076536,None,27,0,26,217.95822770000086,,,,,,,,,,,,,,,,,,,,,,,,,,,,,,,,,,,,,,,,,,,,,,,,,,217.9429850000015,217.95822770000086,218.45947140001226,218.4417376999918,218.45686090001254,218.45947140001226,218.45947140001226,218.45947140001226,220.65887730001123,Scenes\177b.jpg,mid,n,2.1913805000076536,None,,,,,,,,00039,001,2026-01-23_17h27.51.140,MST_test,2024.2.0,60.17727020381961,2026-01-23 17h28.00.486278 +0530,
27,0,28,s,1.9960558000020683,None,28,0,27,220.67444990001968,,,,,,,,,,,,,,,,,,,,,,,,,,,,,,,,,,,,,,,,,,,,,,,,,,220.65898649999872,220.67444990001968,221.17503750001197,221.15830680000363,221.1697806000011,221.17503750001197,221.17503750001197,221.17503750001197,223.1752744000114,Objects\111b.jpg,pre,s,1.9960558000020683,None,,,,,,,,00039,001,2026-01-23_17h27.51.140,MST_test,2024.2.0,60.17727020381961,2026-01-23 17h28.00.486278 +0530,
28,0,29,o,1.1985325000132434,None,29,0,28,223.19139340001857,,,,,,,,,,,,,,,,,,,,,,,,,,,,,,,,,,,,,,,,,,,,,,,,,,223.1753849000088,223.19139340001857,223.69182430001092,223.675206600019,223.6784639999969,223.69182430001092,223.69182430001092,223.69182430001092,224.892336000019,Objects\191a.jpg,post,o,1.1985325000132434,None,,,,,,,,00039,001,2026-01-23_17h27.51.140,MST_test,2024.2.0,60.17727020381961,2026-01-23 17h28.00.486278 +0530,
29,0,30,n,2.7613216000027023,None,30,0,29,224.90797040000325,,,,,,,,,,,,,,,,,,,,,,,,,,,,,,,,,,,,,,,,,,,,,,,,,,224.89245169999776,224.90797040000325,225.40869559999555,225.39215709999553,225.40223310000147,225.40869559999555,225.40869559999555,225.40869559999555,228.1759802000015,Foils\scenes27.jpg,none,n,2.7613216000027023,None,,,,,,,,00039,001,2026-01-23_17h27.51.140,MST_test,2024.2.0,60.17727020381961,2026-01-23 17h28.00.486278 +0530,
30,0,31,s,5.310879900003783,None,31,0,30,228.1912852000096,,,,,,,,,,,,,,,,,,,,,,,,,,,,,,,,,,,,,,,,,,,,,,,,,,228.1760973999917,228.1912852000096,228.6916157999949,228.67478840000695,228.68669840000803,228.6916157999949,228.6916157999949,228.6916157999949,234.00934509999934,Objects\171b.jpg,mid,s,5.310879900003783,None,,,,,,,,00039,001,2026-01-23_17h27.51.140,MST_test,2024.2.0,60.17727020381961,2026-01-23 17h28.00.486278 +0530,
31,0,32,s,1.728355900006136,None,32,0,31,234.02441010001348,,,,,,,,,,,,,,,,,,,,,,,,,,,,,,,,,,,,,,,,,,,,,,,,,,234.00945370001136,234.02441010001348,234.52952670000377,234.5085284000088,234.52659490000224,234.52952670000377,234.52952670000377,234.52952670000377,236.2587848000112,Scenes\127b.jpg,mid,s,1.728355900006136,None,,,,,,,,00039,001,2026-01-23_17h27.51.140,MST_test,2024.2.0,60.17727020381961,2026-01-23 17h28.00.486278 +0530,
32,0,33,s,2.860289800009923,None,33,0,32,236.2745031999948,,,,,,,,,,,,,,,,,,,,,,,,,,,,,,,,,,,,,,,,,,,,,,,,,,236.25890050001908,236.2745031999948,236.78252830001293,236.7588626999932,236.7792790000094,236.78252830001293,236.78252830001293,236.78252830001293,239.65857709999545,Scenes\073b.jpg,post,s,2.860289800009923,None,,,,,,,,00039,001,2026-01-23_17h27.51.140,MST_test,2024.2.0,60.17727020381961,2026-01-23 17h28.00.486278 +0530,
33,0,34,s,1.9552414999925531,None,34,0,33,239.67470840000897,,,,,,,,,,,,,,,,,,,,,,,,,,,,,,,,,,,,,,,,,,,,,,,,,,239.65868990001036,239.67470840000897,240.1748871000018,240.15860590001103,240.16984680001042,240.1748871000018,240.1748871000018,240.1748871000018,242.14225010000519,Objects\072b.jpg,mid,s,1.9552414999925531,None,,,,,,,,00039,001,2026-01-23_17h27.51.140,MST_test,2024.2.0,60.17727020381961,2026-01-23 17h28.00.486278 +0530,
34,0,35,o,1.5597815999935847,None,35,0,34,242.15823900001124,,,,,,,,,,,,,,,,,,,,,,,,,,,,,,,,,,,,,,,,,,,,,,,,,,242.14235710000503,242.15823900001124,242.65862860000925,242.64152810000814,242.65324559999863,242.65862860000925,242.65862860000925,242.65862860000925,244.22577370001818,Scenes\031a.jpg,post,o,1.5597815999935847,None,,,,,,,,00039,001,2026-01-23_17h27.51.140,MST_test,2024.2.0,60.17727020381961,2026-01-23 17h28.00.486278 +0530,
35,0,36,s,2.3398977000033483,None,36,0,35,244.24154909999925,,,,,,,,,,,,,,,,,,,,,,,,,,,,,,,,,,,,,,,,,,,,,,,,,,244.22588159999577,244.24154909999925,244.7419038999942,244.72474560001865,244.73566360000405,244.7419038999942,244.7419038999942,244.7419038999942,247.0921262000047,Objects\087b.jpg,pre,s,2.3398977000033483,None,,,,,,,,00039,001,2026-01-23_17h27.51.140,MST_test,2024.2.0,60.17727020381961,2026-01-23 17h28.00.486278 +0530,
36,0,37,s,2.3700241000042297,None,37,0,36,247.1078506000049,,,,,,,,,,,,,,,,,,,,,,,,,,,,,,,,,,,,,,,,,,,,,,,,,,247.0922370000044,247.1078506000049,247.60904430001392,247.59171969999443,247.60237730000517,247.60904430001392,247.60904430001392,247.60904430001392,249.9918985000113,Scenes\055b.jpg,pre,s,2.3700241000042297,None,,,,,,,,00039,001,2026-01-23_17h27.51.140,MST_test,2024.2.0,60.17727020381961,2026-01-23 17h28.00.486278 +0530,
37,0,38,n,3.286869999981718,None,38,0,37,250.0083134000015,,,,,,,,,,,,,,,,,,,,,,,,,,,,,,,,,,,,,,,,,,,,,,,,,,249.99201990000438,250.0083134000015,250.51557930000126,250.49188499999582,250.5126463000197,250.51557930000126,250.51557930000126,250.51557930000126,253.80878890000167,Scenes\090b.jpg,post,n,3.286869999981718,None,,,,,,,,00039,001,2026-01-23_17h27.51.140,MST_test,2024.2.0,60.17727020381961,2026-01-23 17h28.00.486278 +0530,
38,0,39,o,1.109332300024107,None,39,0,38,253.8245709000039,,,,,,,,,,,,,,,,,,,,,,,,,,,,,,,,,,,,,,,,,,,,,,,,,,253.80890299999737,253.8245709000039,254.32511790000717,254.30819130002055,254.31545759999426,254.32511790000717,254.32511790000717,254.32511790000717,255.44218119999277,Scenes\006a.jpg,pre,o,1.109332300024107,None,,,,,,,,00039,001,2026-01-23_17h27.51.140,MST_test,2024.2.0,60.17727020381961,2026-01-23 17h28.00.486278 +0530,
39,0,40,o,0.8274403999967035,None,40,0,39,255.4578560999944,,,,,,,,,,,,,,,,,,,,,,,,,,,,,,,,,,,,,,,,,,,,,,,,,,255.44229720000294,255.4578560999944,255.95828769999207,255.94234589999542,255.94557909999276,255.95828769999207,255.95828769999207,255.95828769999207,256.7920771999925,Objects\146a.jpg,post,o,0.8274403999967035,None,,,,,,,,00039,001,2026-01-23_17h27.51.140,MST_test,2024.2.0,60.17727020381961,2026-01-23 17h28.00.486278 +0530,
40,0,41,n,5.014344700000947,None,41,0,40,256.8084043000126,,,,,,,,,,,,,,,,,,,,,,,,,,,,,,,,,,,,,,,,,,,,,,,,,,256.7921927999996,256.8084043000126,257.3082546000078,257.2915886999981,257.29677370001446,257.3082546000078,257.3082546000078,257.3082546000078,262.3259095000103,Scenes\022a.jpg,pre,n,5.014344700000947,None,,,,,,,,00039,001,2026-01-23_17h27.51.140,MST_test,2024.2.0,60.17727020381961,2026-01-23 17h28.00.486278 +0530,
41,0,42,o,1.5605050000012852,None,42,0,41,262.34142880002037,,,,,,,,,,,,,,,,,,,,,,,,,,,,,,,,,,,,,,,,,,,,,,,,,,262.3260223999969,262.34142880002037,262.8417446000094,262.82512049999787,262.83812590001617,262.8417446000094,262.8417446000094,262.8417446000094,264.4086927000026,Scenes\032a.jpg,mid,o,1.5605050000012852,None,,,,,,,,00039,001,2026-01-23_17h27.51.140,MST_test,2024.2.0,60.17727020381961,2026-01-23 17h28.00.486278 +0530,
42,0,43,n,1.3732722999993712,None,43,0,42,264.42474780001794,,,,,,,,,,,,,,,,,,,,,,,,,,,,,,,,,,,,,,,,,,,,,,,,,,264.40880999999354,264.42474780001794,264.925502099999,264.9083707999962,264.9125053000171,264.925502099999,264.925502099999,264.925502099999,266.3091922000167,Foils\026a.jpg,none,n,1.3732722999993712,None,,,,,,,,00039,001,2026-01-23_17h27.51.140,MST_test,2024.2.0,60.17727020381961,2026-01-23 17h28.00.486278 +0530,
43,0,44,o,1.4010504999896511,None,44,0,43,266.3244387000159,,,,,,,,,,,,,,,,,,,,,,,,,,,,,,,,,,,,,,,,,,,,,,,,,,266.3093024000118,266.3244387000159,266.82561440000427,266.8085216000036,266.8122938000015,266.82561440000427,266.82561440000427,266.82561440000427,268.24196050001774,Objects\144a.jpg,mid,o,1.4010504999896511,None,,,,,,,,00039,001,2026-01-23_17h27.51.140,MST_test,2024.2.0,60.17727020381961,2026-01-23 17h28.00.486278 +0530,
44,0,45,o,0.8118797999923117,None,45,0,44,268.2578777000017,,,,,,,,,,,,,,,,,,,,,,,,,,,,,,,,,,,,,,,,,,,,,,,,,,268.2420674000168,268.2578777000017,268.7584543999983,268.7416130999918,268.74449240000104,268.7584543999983,268.7584543999983,268.7584543999983,269.57549980000476,Objects\046a.jpg,mid,o,0.8118797999923117,None,,,,,,,,00039,001,2026-01-23_17h27.51.140,MST_test,2024.2.0,60.17727020381961,2026-01-23 17h28.00.486278 +0530,
45,0,46,s,1.52595549999387,None,46,0,45,269.5914807000081,,,,,,,,,,,,,,,,,,,,,,,,,,,,,,,,,,,,,,,,,,,,,,,,,,269.57561890000943,269.5914807000081,270.0923843999917,270.0749364999938,270.08999910001876,270.0923843999917,270.0923843999917,270.0923843999917,271.62541540001985,Objects\183b.jpg,post,s,1.52595549999387,None,,,,,,,,00039,001,2026-01-23_17h27.51.140,MST_test,2024.2.0,60.17727020381961,2026-01-23 17h28.00.486278 +0530,
46,0,47,o,1.3001002999953926,None,47,0,46,271.64127710001776,,,,,,,,,,,,,,,,,,,,,,,,,,,,,,,,,,,,,,,,,,,,,,,,,,271.6255311999994,271.64127710001776,272.14193169999635,272.12470620000386,272.13716209999984,272.14193169999635,272.14193169999635,272.14193169999635,273.4426583000168,Scenes\089a.jpg,pre,o,1.3001002999953926,None,,,,,,,,00039,001,2026-01-23_17h27.51.140,MST_test,2024.2.0,60.17727020381961,2026-01-23 17h28.00.486278 +0530,
47,0,48,s,3.673828999977559,None,48,0,47,273.4582117999962,,,,,,,,,,,,,,,,,,,,,,,,,,,,,,,,,,,,,,,,,,,,,,,,,,273.442778800003,273.4582117999962,273.9598915000097,273.9415804000164,273.9572912000003,273.9598915000097,273.9598915000097,273.9598915000097,277.64237200000207,Scenes\191b.jpg,mid,s,3.673828999977559,None,,,,,,,,00039,001,2026-01-23_17h27.51.140,MST_test,2024.2.0,60.17727020381961,2026-01-23 17h28.00.486278 +0530,
48,0,49,s,1.4921901000197977,None,49,0,48,277.65856390001136,,,,,,,,,,,,,,,,,,,,,,,,,,,,,,,,,,,,,,,,,,,,,,,,,,277.6424814000202,277.65856390001136,278.1583765000105,278.14194100000896,278.1528935999959,278.1583765000105,278.1583765000105,278.1583765000105,279.6592495999939,Objects\192b.jpg,post,s,1.4921901000197977,None,,,,,,,,00039,001,2026-01-23_17h27.51.140,MST_test,2024.2.0,60.17727020381961,2026-01-23 17h28.00.486278 +0530,
49,0,50,s,1.827816700009862,None,50,0,49,279.6745474000054,,,,,,,,,,,,,,,,,,,,,,,,,,,,,,,,,,,,,,,,,,,,,,,,,,279.6593681999948,279.6745474000054,280.1747755999968,280.15888810000615,280.16955510000116,280.1747755999968,280.1747755999968,280.1747755999968,282.00922710000305,Objects\158b.jpg,pre,s,1.827816700009862,None,,,,,,,,00039,001,2026-01-23_17h27.51.140,MST_test,2024.2.0,60.17727020381961,2026-01-23 17h28.00.486278 +0530,
50,0,51,o,2.3168982000206597,None,51,0,50,282.02554190001683,,,,,,,,,,,,,,,,,,,,,,,,,,,,,,,,,,,,,,,,,,,,,,,,,,282.00934089999646,282.02554190001683,282.5249594000052,282.5086089000106,282.5146595000115,282.5249594000052,282.5249594000052,282.5249594000052,284.84297680002055,Scenes\024a.jpg,post,o,2.3168982000206597,None,,,,,,,,00039,001,2026-01-23_17h27.51.140,MST_test,2024.2.0,60.17727020381961,2026-01-23 17h28.00.486278 +0530,
51,0,52,s,1.411982599995099,None,52,0,51,284.8583316000004,,,,,,,,,,,,,,,,,,,,,,,,,,,,,,,,,,,,,,,,,,,,,,,,,,284.8430977000098,284.8583316000004,285.35822850000113,285.34168450001744,285.3534520000103,285.35822850000113,285.35822850000113,285.35822850000113,286.77562749999925,Objects\089b.jpg,post,s,1.411982599995099,None,,,,,,,,00039,001,2026-01-23_17h27.51.140,MST_test,2024.2.0,60.17727020381961,2026-01-23 17h28.00.486278 +0530,
52,0,53,n,3.046703100000741,None,53,0,52,286.7914732999925,,,,,,,,,,,,,,,,,,,,,,,,,,,,,,,,,,,,,,,,,,,,,,,,,,286.77574470001855,286.7914732999925,287.2918039000069,287.2752182999975,287.280350200017,287.2918039000069,287.2918039000069,287.2918039000069,290.3424997999973,Scenes\061b.jpg,pre,n,3.046703100000741,None,,,,,,,,00039,001,2026-01-23_17h27.51.140,MST_test,2024.2.0,60.17727020381961,2026-01-23 17h28.00.486278 +0530,
53,0,54,o,1.5289919000060763,None,54,0,53,290.3583804999944,,,,,,,,,,,,,,,,,,,,,,,,,,,,,,,,,,,,,,,,,,,,,,,,,,290.34261789999437,290.3583804999944,290.8585496000014,290.8416158000182,290.85168170000543,290.8585496000014,290.8585496000014,290.8585496000014,292.3924446000019,Scenes\183a.jpg,pre,o,1.5289919000060763,None,,,,,,,,00039,001,2026-01-23_17h27.51.140,MST_test,2024.2.0,60.17727020381961,2026-01-23 17h28.00.486278 +0530,
54,0,55,s,1.7120932000107132,None,55,0,54,292.40786540001864,,,,,,,,,,,,,,,,,,,,,,,,,,,,,,,,,,,,,,,,,,,,,,,,,,292.39258939999854,292.40786540001864,292.915453900001,292.89161530000274,292.9128367000085,292.915453900001,292.915453900001,292.915453900001,294.64189960001386,Scenes\092b.jpg,mid,s,1.7120932000107132,None,,,,,,,,00039,001,2026-01-23_17h27.51.140,MST_test,2024.2.0,60.17727020381961,2026-01-23 17h28.00.486278 +0530,
55,0,56,o,1.9000115000235382,None,56,0,55,294.6579548000009,,,,,,,,,,,,,,,,,,,,,,,,,,,,,,,,,,,,,,,,,,,,,,,,,,294.64201470001717,294.6579548000009,295.1586143000168,295.1419569000136,295.15323520000675,295.1586143000168,295.1586143000168,295.1586143000168,297.07556789999944,Objects\086b.jpg,pre,o,1.9000115000235382,None,,,,,,,,00039,001,2026-01-23_17h27.51.140,MST_test,2024.2.0,60.17727020381961,2026-01-23 17h28.00.486278 +0530,
56,0,57,o,0.9221337000199128,None,57,0,56,297.09156520001125,,,,,,,,,,,,,,,,,,,,,,,,,,,,,,,,,,,,,,,,,,,,,,,,,,297.07568999999785,297.09156520001125,297.59174659999553,297.57539710000856,297.57846300001256,297.59174659999553,297.59174659999553,297.59174659999553,298.525547199999,Objects\009a.jpg,mid,o,0.9221337000199128,None,,,,,,,,00039,001,2026-01-23_17h27.51.140,MST_test,2024.2.0,60.17727020381961,2026-01-23 17h28.00.486278 +0530,
57,0,58,o,0.7200583999801893,None,58,0,57,298.54167160001816,,,,,,,,,,,,,,,,,,,,,,,,,,,,,,,,,,,,,,,,,,,,,,,,,,298.52566159999697,298.54167160001816,299.0425569000072,299.02544920000946,299.02856140001677,299.0425569000072,299.0425569000072,299.0425569000072,299.7757144999923,Objects\028a.jpg,mid,o,0.7200583999801893,None,,,,,,,,00039,001,2026-01-23_17h27.51.140,MST_test,2024.2.0,60.17727020381961,2026-01-23 17h28.00.486278 +0530,
58,0,59,o,0.9341053000243846,None,59,0,58,299.7913074000098,,,,,,,,,,,,,,,,,,,,,,,,,,,,,,,,,,,,,,,,,,,,,,,,,,299.7758286000171,299.7913074000098,300.29177490001894,300.27539490000345,300.28582980000647,300.29177490001894,300.29177490001894,300.29177490001894,301.24211160000414,Scenes\120a.jpg,pre,o,0.9341053000243846,None,,,,,,,,00039,001,2026-01-23_17h27.51.140,MST_test,2024.2.0,60.17727020381961,2026-01-23 17h28.00.486278 +0530,
59,0,60,o,1.2433935000153724,None,60,0,59,301.25794820001465,,,,,,,,,,,,,,,,,,,,,,,,,,,,,,,,,,,,,,,,,,,,,,,,,,301.24222849999205,301.25794820001465,301.7588189000089,301.7419974000077,301.7509715000051,301.7588189000089,301.7588189000089,301.7588189000089,303.00911499999347,Scenes\144a.jpg,post,o,1.2433935000153724,None,,,,,,,,00039,001,2026-01-23_17h27.51.140,MST_test,2024.2.0,60.17727020381961,2026-01-23 17h28.00.486278 +0530,
60,0,61,o,1.453283000009833,None,61,0,60,303.0252936000179,,,,,,,,,,,,,,,,,,,,,,,,,,,,,,,,,,,,,,,,,,,,,,,,,,303.0092322000128,303.0252936000179,303.5251228999987,303.50867030001245,303.52240580000216,303.5251228999987,303.5251228999987,303.5251228999987,304.9921381000022,Scenes\086a.jpg,post,o,1.453283000009833,None,,,,,,,,00039,001,2026-01-23_17h27.51.140,MST_test,2024.2.0,60.17727020381961,2026-01-23 17h28.00.486278 +0530,
61,0,62,s,2.7651632000051904,None,62,0,61,305.0079444000148,,,,,,,,,,,,,,,,,,,,,,,,,,,,,,,,,,,,,,,,,,,,,,,,,,304.9922423000098,305.0079444000148,305.5087318000151,305.4915267000033,305.4955500999931,305.5087318000151,305.5087318000151,305.5087318000151,308.27574189999723,Objects\040b.jpg,post,s,2.7651632000051904,None,,,,,,,,00039,001,2026-01-23_17h27.51.140,MST_test,2024.2.0,60.17727020381961,2026-01-23 17h28.00.486278 +0530,
62,0,63,s,1.4965492000046652,None,63,0,62,308.29149570001755,,,,,,,,,,,,,,,,,,,,,,,,,,,,,,,,,,,,,,,,,,,,,,,,,,308.2758665000147,308.29149570001755,308.79381520001334,308.7751474000106,308.7911681999976,308.79381520001334,308.79381520001334,308.79381520001334,310.29197170000407,Scenes\170b.jpg,mid,s,1.4965492000046652,None,,,,,,,,00039,001,2026-01-23_17h27.51.140,MST_test,2024.2.0,60.17727020381961,2026-01-23 17h28.00.486278 +0530,
63,0,64,o,1.7618591000209562,None,64,0,63,310.3078235000139,,,,,,,,,,,,,,,,,,,,,,,,,,,,,,,,,,,,,,,,,,,,,,,,,,310.2920924999926,310.3078235000139,310.8086767999921,310.7920117000176,310.798492300004,310.8086767999921,310.8086767999921,310.8086767999921,312.5753282000078,Scenes\051a.jpg,post,o,1.7618591000209562,None,,,,,,,,00039,001,2026-01-23_17h27.51.140,MST_test,2024.2.0,60.17727020381961,2026-01-23 17h28.00.486278 +0530,
64,0,65,s,1.5662208999856375,None,65,0,64,312.59124259999953,,,,,,,,,,,,,,,,,,,,,,,,,,,,,,,,,,,,,,,,,,,,,,,,,,312.57545170001686,312.59124259999953,313.0919920000015,313.07519040000625,313.0875038999948,313.0919920000015,313.0919920000015,313.0919920000015,314.6591738999996,Scenes\142b.jpg,post,s,1.5662208999856375,None,,,,,,,,00039,001,2026-01-23_17h27.51.140,MST_test,2024.2.0,60.17727020381961,2026-01-23 17h28.00.486278 +0530,
65,0,66,s,1.388030499976594,None,66,0,65,314.674700100004,,,,,,,,,,,,,,,,,,,,,,,,,,,,,,,,,,,,,,,,,,,,,,,,,,314.65928809999605,314.674700100004,315.17467740000575,315.15819030001876,315.171536400012,315.17467740000575,315.17467740000575,315.17467740000575,316.5751236999931,Objects\170b.jpg,post,s,1.388030499976594,None,,,,,,,,00039,001,2026-01-23_17h27.51.140,MST_test,2024.2.0,60.17727020381961,2026-01-23 17h28.00.486278 +0530,
66,0,67,n,1.4145332000043709,None,67,0,66,316.5910700999957,,,,,,,,,,,,,,,,,,,,,,,,,,,,,,,,,,,,,,,,,,,,,,,,,,316.5752335000143,316.5910700999957,317.0917737999989,317.07470190001186,317.0858298999956,317.0917737999989,317.0917737999989,317.0917737999989,318.5087149000028,Foils\113a.jpg,none,n,1.4145332000043709,None,,,,,,,,00039,001,2026-01-23_17h27.51.140,MST_test,2024.2.0,60.17727020381961,2026-01-23 17h28.00.486278 +0530,
67,0,68,o,2.4735254000115674,None,68,0,67,318.5244695000001,,,,,,,,,,,,,,,,,,,,,,,,,,,,,,,,,,,,,,,,,,,,,,,,,,318.50882320001256,318.5244695000001,319.0247687000083,319.00832799999625,319.01911250001285,319.0247687000083,319.0247687000083,319.0247687000083,321.5090981000103,Objects\109b.jpg,post,o,2.4735254000115674,None,,,,,,,,00039,001,2026-01-23_17h27.51.140,MST_test,2024.2.0,60.17727020381961,2026-01-23 17h28.00.486278 +0530,
68,0,69,s,1.6977389000239782,None,69,0,68,321.5243228000181,,,,,,,,,,,,,,,,,,,,,,,,,,,,,,,,,,,,,,,,,,,,,,,,,,321.50921419999213,321.5243228000181,322.0247834000038,322.00849390000803,322.0122460999992,322.0247834000038,322.0247834000038,322.0247834000038,323.7254179000156,Objects\042b.jpg,pre,s,1.6977389000239782,None,,,,,,,,00039,001,2026-01-23_17h27.51.140,MST_test,2024.2.0,60.17727020381961,2026-01-23 17h28.00.486278 +0530,
69,0,70,s,1.624616299988702,None,70,0,69,323.74150980002014,,,,,,,,,,,,,,,,,,,,,,,,,,,,,,,,,,,,,,,,,,,,,,,,,,323.7255395000102,323.74150980002014,324.24129219999304,324.22501160000684,324.2286641999963,324.24129219999304,324.24129219999304,324.24129219999304,325.8755871000176,Objects\070b.jpg,mid,s,1.624616299988702,None,,,,,,,,00039,001,2026-01-23_17h27.51.140,MST_test,2024.2.0,60.17727020381961,2026-01-23 17h28.00.486278 +0530,
70,0,71,s,1.2895781999977771,None,71,0,70,325.8919084999943,,,,,,,,,,,,,,,,,,,,,,,,,,,,,,,,,,,,,,,,,,,,,,,,,,325.87570490001235,325.8919084999943,326.39226220001,326.3752400999947,326.38784919999307,326.39226220001,326.39226220001,326.39226220001,327.6923001999967,Objects\078b.jpg,pre,s,1.2895781999977771,None,,,,,,,,00039,001,2026-01-23_17h27.51.140,MST_test,2024.2.0,60.17727020381961,2026-01-23 17h28.00.486278 +0530,
71,0,72,s,1.2351747000066098,None,72,0,71,327.7085839000065,,,,,,,,,,,,,,,,,,,,,,,,,,,,,,,,,,,,,,,,,,,,,,,,,,327.69240759999957,327.7085839000065,328.20817520000855,328.1915777999966,328.2024745999952,328.20817520000855,328.20817520000855,328.20817520000855,329.4589419999975,Objects\110b.jpg,post,s,1.2351747000066098,None,,,,,,,,00039,001,2026-01-23_17h27.51.140,MST_test,2024.2.0,60.17727020381961,2026-01-23 17h28.00.486278 +0530,
72,0,73,s,2.5018555999849923,None,73,0,72,329.47473529999843,,,,,,,,,,,,,,,,,,,,,,,,,,,,,,,,,,,,,,,,,,,,,,,,,,329.45905229999335,329.47473529999843,329.9799611000053,329.95869709999533,329.97715640001115,329.9799611000053,329.9799611000053,329.9799611000053,332.492485499999,Scenes\115b.jpg,mid,s,2.5018555999849923,None,,,,,,,,00039,001,2026-01-23_17h27.51.140,MST_test,2024.2.0,60.17727020381961,2026-01-23 17h28.00.486278 +0530,
73,0,74,n,1.578145699982997,None,74,0,73,332.5078735999996,,,,,,,,,,,,,,,,,,,,,,,,,,,,,,,,,,,,,,,,,,,,,,,,,,332.49259639999946,332.5078735999996,333.0085551000084,332.9917236000183,333.00335400001495,333.0085551000084,333.0085551000084,333.0085551000084,334.59194760001265,Foils\097a.jpg,none,n,1.578145699982997,None,,,,,,,,00039,001,2026-01-23_17h27.51.140,MST_test,2024.2.0,60.17727020381961,2026-01-23 17h28.00.486278 +0530,
74,0,75,o,1.8463406000228133,None,75,0,74,334.60797589999856,,,,,,,,,,,,,,,,,,,,,,,,,,,,,,,,,,,,,,,,,,,,,,,,,,334.5920659000112,334.60797589999856,335.108908299997,335.0920795999991,335.1054409999924,335.108908299997,335.108908299997,335.108908299997,336.95922069999506,Scenes\130a.jpg,pre,o,1.8463406000228133,None,,,,,,,,00039,001,2026-01-23_17h27.51.140,MST_test,2024.2.0,60.17727020381961,2026-01-23 17h28.00.486278 +0530,
75,0,76,s,1.9109610000159591,None,76,0,75,336.97477120000985,,,,,,,,,,,,,,,,,,,,,,,,,,,,,,,,,,,,,,,,,,,,,,,,,,336.95933280000463,336.97477120000985,337.47513830001117,337.45836489999783,337.4624343000178,337.47513830001117,337.47513830001117,337.47513830001117,339.39304210001137,Objects\025b.jpg,post,s,1.9109610000159591,None,,,,,,,,00039,001,2026-01-23_17h27.51.140,MST_test,2024.2.0,60.17727020381961,2026-01-23 17h28.00.486278 +0530,
76,0,77,n,3.508840099995723,None,77,0,76,339.4085266000184,,,,,,,,,,,,,,,,,,,,,,,,,,,,,,,,,,,,,,,,,,,,,,,,,,339.3931622999953,339.4085266000184,339.9088685000024,339.89141529999324,339.8980404000031,339.9088685000024,339.9088685000024,339.9088685000024,343.42566860001534,Scenes\173a.jpg,mid,n,3.508840099995723,None,,,,,,,,00039,001,2026-01-23_17h27.51.140,MST_test,2024.2.0,60.17727020381961,2026-01-23 17h28.00.486278 +0530,
77,0,78,o,1.2681681000103708,None,78,0,77,343.4413912000018,,,,,,,,,,,,,,,,,,,,,,,,,,,,,,,,,,,,,,,,,,,,,,,,,,343.4257797000173,343.4413912000018,343.9419256999972,343.9246822000132,343.9286973999988,343.9419256999972,343.9419256999972,343.9419256999972,345.2255817000114,Scenes\066a.jpg,post,o,1.2681681000103708,None,,,,,,,,00039,001,2026-01-23_17h27.51.140,MST_test,2024.2.0,60.17727020381961,2026-01-23 17h28.00.486278 +0530,
78,0,79,s,1.5328184999816585,None,79,0,78,345.2411788000027,,,,,,,,,,,,,,,,,,,,,,,,,,,,,,,,,,,,,,,,,,,,,,,,,,345.22568810000666,345.2411788000027,345.74147800001083,345.7249199000071,345.73561669999617,345.74147800001083,345.74147800001083,345.74147800001083,347.2751539000019,Objects\140b.jpg,mid,s,1.5328184999816585,None,,,,,,,,00039,001,2026-01-23_17h27.51.140,MST_test,2024.2.0,60.17727020381961,2026-01-23 17h28.00.486278 +0530,
79,0,80,o,1.441741299990099,None,80,0,79,347.29146750000655,,,,,,,,,,,,,,,,,,,,,,,,,,,,,,,,,,,,,,,,,,,,,,,,,,347.2752693000075,347.29146750000655,347.7926912000112,347.77483140002005,347.77769210000406,347.7926912000112,347.7926912000112,347.7926912000112,349.2421234000067,Objects\125a.jpg,pre,o,1.441741299990099,None,,,,,,,,00039,001,2026-01-23_17h27.51.140,MST_test,2024.2.0,60.17727020381961,2026-01-23 17h28.00.486278 +0530,
80,0,81,o,1.4281205000006594,None,81,0,80,349.25768949999474,,,,,,,,,,,,,,,,,,,,,,,,,,,,,,,,,,,,,,,,,,,,,,,,,,349.2422357000178,349.25768949999474,349.76649629999883,349.74183889999404,349.76354260000517,349.76649629999883,349.76649629999883,349.76649629999883,351.2091036000056,Scenes\023b.jpg,post,o,1.4281205000006594,None,,,,,,,,00039,001,2026-01-23_17h27.51.140,MST_test,2024.2.0,60.17727020381961,2026-01-23 17h28.00.486278 +0530,
81,0,82,o,2.4041910000087228,None,82,0,81,351.224715999997,,,,,,,,,,,,,,,,,,,,,,,,,,,,,,,,,,,,,,,,,,,,,,,,,,351.2092154000129,351.224715999997,351.72594269999536,351.70858810000937,351.7119883999985,351.72594269999536,351.72594269999536,351.72594269999536,354.14257650001673,Objects\113a.jpg,pre,o,2.4041910000087228,None,,,,,,,,00039,001,2026-01-23_17h27.51.140,MST_test,2024.2.0,60.17727020381961,2026-01-23 17h28.00.486278 +0530,
82,0,83,s,2.623564500012435,None,83,0,82,354.1584057,,,,,,,,,,,,,,,,,,,,,,,,,,,,,,,,,,,,,,,,,,,,,,,,,,354.14270060000126,354.1584057,354.6585272999946,354.6416798999999,354.65297910000663,354.6585272999946,354.6585272999946,354.6585272999946,357.2924495000043,Scenes\047a.jpg,mid,s,2.623564500012435,None,,,,,,,,00039,001,2026-01-23_17h27.51.140,MST_test,2024.2.0,60.17727020381961,2026-01-23 17h28.00.486278 +0530,
83,0,84,s,1.803113600006327,None,84,0,83,357.30792839999776,,,,,,,,,,,,,,,,,,,,,,,,,,,,,,,,,,,,,,,,,,,,,,,,,,357.2925581000163,357.30792839999776,357.81530030001886,357.7916725999967,357.8126959000074,357.81530030001886,357.81530030001886,357.81530030001886,359.62591830000747,Scenes\010b.jpg,mid,s,1.803113600006327,None,,,,,,,,00039,001,2026-01-23_17h27.51.140,MST_test,2024.2.0,60.17727020381961,2026-01-23 17h28.00.486278 +0530,
84,0,85,n,1.4198228000022937,None,85,0,84,359.6411864999973,,,,,,,,,,,,,,,,,,,,,,,,,,,,,,,,,,,,,,,,,,,,,,,,,,359.6260290000064,359.6411864999973,360.14194200001657,360.12493290001294,360.13553339999635,360.14194200001657,360.14194200001657,360.14194200001657,361.57543440000154,Scenes\004a.jpg,mid,n,1.4198228000022937,None,,,,,,,,00039,001,2026-01-23_17h27.51.140,MST_test,2024.2.0,60.17727020381961,2026-01-23 17h28.00.486278 +0530,
85,0,86,o,1.4550586999976076,None,86,0,85,361.5917121999955,,,,,,,,,,,,,,,,,,,,,,,,,,,,,,,,,,,,,,,,,,,,,,,,,,361.5755494000041,361.5917121999955,362.0917906000104,362.0753489000199,362.08702380000614,362.0917906000104,362.0917906000104,362.0917906000104,363.5589086000109,Objects\167b.jpg,pre,o,1.4550586999976076,None,,,,,,,,00039,001,2026-01-23_17h27.51.140,MST_test,2024.2.0,60.17727020381961,2026-01-23 17h28.00.486278 +0530,
86,0,87,s,1.7203059000021312,None,87,0,86,363.57468610000797,,,,,,,,,,,,,,,,,,,,,,,,,,,,,,,,,,,,,,,,,,,,,,,,,,363.55902260000585,363.57468610000797,364.08194880001247,364.0582320000103,364.0796304999967,364.08194880001247,364.08194880001247,364.08194880001247,365.8090506000153,Scenes\054b.jpg,pre,s,1.7203059000021312,None,,,,,,,,00039,001,2026-01-23_17h27.51.140,MST_test,2024.2.0,60.17727020381961,2026-01-23 17h28.00.486278 +0530,
87,0,88,s,2.6767375000054017,None,88,0,87,365.82487219999894,,,,,,,,,,,,,,,,,,,,,,,,,,,,,,,,,,,,,,,,,,,,,,,,,,365.8091655000171,365.82487219999894,366.3252381999919,366.3082873999956,366.3154358000029,366.3252381999919,366.3252381999919,366.3252381999919,369.0092140000197,Scenes\188b.jpg,post,s,2.6767375000054017,None,,,,,,,,00039,001,2026-01-23_17h27.51.140,MST_test,2024.2.0,60.17727020381961,2026-01-23 17h28.00.486278 +0530,
88,0,89,s,2.837732000014512,None,89,0,88,369.02444900001865,,,,,,,,,,,,,,,,,,,,,,,,,,,,,,,,,,,,,,,,,,,,,,,,,,369.00931320001837,369.02444900001865,369.5249621999974,369.50826750000124,369.51152349999757,369.5249621999974,369.5249621999974,369.5249621999974,372.37513030000264,Objects\115a.jpg,pre,s,2.837732000014512,None,,,,,,,,00039,001,2026-01-23_17h27.51.140,MST_test,2024.2.0,60.17727020381961,2026-01-23 17h28.00.486278 +0530,
89,0,90,s,2.4054416000144556,None,90,0,89,372.39173659999506,,,,,,,,,,,,,,,,,,,,,,,,,,,,,,,,,,,,,,,,,,,,,,,,,,372.37523710000096,372.39173659999506,372.89273920000414,372.8747476999997,372.89027220002026,372.89273920000414,372.89273920000414,372.89273920000414,375.30909739999333,Scenes\153b.jpg,post,s,2.4054416000144556,None,,,,,,,,00039,001,2026-01-23_17h27.51.140,MST_test,2024.2.0,60.17727020381961,2026-01-23 17h28.00.486278 +0530,
90,0,91,o,1.185346699989168,None,91,0,90,375.3245031000115,,,,,,,,,,,,,,,,,,,,,,,,,,,,,,,,,,,,,,,,,,,,,,,,,,375.3092114000174,375.3245031000115,375.82496009999886,375.80823039999814,375.811354400008,375.82496009999886,375.82496009999886,375.82496009999886,377.0255321000004,Objects\124a.jpg,mid,o,1.185346699989168,None,,,,,,,,00039,001,2026-01-23_17h27.51.140,MST_test,2024.2.0,60.17727020381961,2026-01-23 17h28.00.486278 +0530,
91,0,92,o,1.296889099990949,None,92,0,91,377.0410938000132,,,,,,,,,,,,,,,,,,,,,,,,,,,,,,,,,,,,,,,,,,,,,,,,,,377.0256416000193,377.0410938000132,377.54476750001777,377.52506430001813,377.5423562999931,377.54476750001777,377.54476750001777,377.54476750001777,378.8428170999978,Scenes\126b.jpg,post,o,1.296889099990949,None,,,,,,,,00039,001,2026-01-23_17h27.51.140,MST_test,2024.2.0,60.17727020381961,2026-01-23 17h28.00.486278 +0530,
92,0,93,n,1.9556872000102885,None,93,0,92,378.8589811999991,,,,,,,,,,,,,,,,,,,,,,,,,,,,,,,,,,,,,,,,,,,,,,,,,,378.8429351999948,378.8589811999991,,379.35795710000093,379.371793600003,379.3749583000026,379.3749583000026,379.3749583000026,381.34224379999796,Scenes\163b.jpg,mid,n,1.9556872000102885,None,,,,,,,,00039,001,2026-01-23_17h27.51.140,MST_test,2024.2.0,60.17727020381961,2026-01-23 17h28.00.486278 +0530,
93,0,94,n,1.79139669999131,None,94,0,93,381.35821969999233,,,,,,,,,,,,,,,,,,,,,,,,,,,,,,,,,,,,,,,,,,,,,,,,,,381.3423651000194,381.35821969999233,381.85846909999964,381.84236130001955,381.8556310000131,381.85846909999964,381.85846909999964,381.85846909999964,383.6586932000064,Foils\090a.jpg,none,n,1.79139669999131,None,,,,,,,,00039,001,2026-01-23_17h27.51.140,MST_test,2024.2.0,60.17727020381961,2026-01-23 17h28.00.486278 +0530,
94,0,95,o,1.8919243999989703,None,95,0,94,383.67457810000633,,,,,,,,,,,,,,,,,,,,,,,,,,,,,,,,,,,,,,,,,,,,,,,,,,383.6588192000054,383.67457810000633,384.1747869999963,384.1585257000115,384.1647217000136,384.1747869999963,384.1747869999963,384.1747869999963,386.0753540000005,Scenes\132a.jpg,mid,o,1.8919243999989703,None,,,,,,,,00039,001,2026-01-23_17h27.51.140,MST_test,2024.2.0,60.17727020381961,2026-01-23 17h28.00.486278 +0530,
95,0,96,o,1.4577782000123989,None,96,0,95,386.0911870000127,,,,,,,,,,,,,,,,,,,,,,,,,,,,,,,,,,,,,,,,,,,,,,,,,,386.0754743000143,386.0911870000127,386.5923115000187,386.5752352999989,386.5784818000102,386.5923115000187,386.5923115000187,386.5923115000187,388.0588010000065,Objects\065a.jpg,mid,o,1.4577782000123989,None,,,,,,,,00039,001,2026-01-23_17h27.51.140,MST_test,2024.2.0,60.17727020381961,2026-01-23 17h28.00.486278 +0530,
96,0,97,s,2.7473459000175353,None,97,0,96,388.07483490000595,,,,,,,,,,,,,,,,,,,,,,,,,,,,,,,,,,,,,,,,,,,,,,,,,,388.0589187000005,388.07483490000595,388.57520980000845,388.5584890000173,388.56510810001055,388.57520980000845,388.57520980000845,388.57520980000845,391.32563520001713,Scenes\169a.jpg,pre,s,2.7473459000175353,None,,,,,,,,00039,001,2026-01-23_17h27.51.140,MST_test,2024.2.0,60.17727020381961,2026-01-23 17h28.00.486278 +0530,
97,0,98,s,1.520535799994832,None,98,0,97,391.3412998999993,,,,,,,,,,,,,,,,,,,,,,,,,,,,,,,,,,,,,,,,,,,,,,,,,,391.3257489000098,391.3412998999993,391.84187770000426,391.82501960001537,391.83153310001944,391.84187770000426,391.84187770000426,391.84187770000426,393.3756866000185,Scenes\124a.jpg,post,s,1.520535799994832,None,,,,,,,,00039,001,2026-01-23_17h27.51.140,MST_test,2024.2.0,60.17727020381961,2026-01-23 17h28.00.486278 +0530,
98,0,99,o,1.6934093000018038,None,99,0,98,393.39152390000527,,,,,,,,,,,,,,,,,,,,,,,,,,,,,,,,,,,,,,,,,,,,,,,,,,393.37580370000796,393.39152390000527,393.89297640000586,393.87542650001706,393.87844299999415,393.89297640000586,393.89297640000586,393.89297640000586,395.5923741000006,Objects\128a.jpg,post,o,1.6934093000018038,None,,,,,,,,00039,001,2026-01-23_17h27.51.140,MST_test,2024.2.0,60.17727020381961,2026-01-23 17h28.00.486278 +0530,
99,0,100,n,1.4214761000184808,None,100,0,99,395.60790560001624,,,,,,,,,,,,,,,,,,,,,,,,,,,,,,,,,,,,,,,,,,,,,,,,,,395.59249120001914,395.60790560001624,396.1084644999937,396.0926188000012,396.0969385000062,396.1084644999937,396.1084644999937,396.1084644999937,397.5418208000192,Foils\002a.jpg,none,n,1.4214761000184808,None,,,,,,,,00039,001,2026-01-23_17h27.51.140,MST_test,2024.2.0,60.17727020381961,2026-01-23 17h28.00.486278 +0530,
100,0,101,o,1.4562733999919146,None,101,0,100,397.558079200011,,,,,,,,,,,,,,,,,,,,,,,,,,,,,,,,,,,,,,,,,,,,,,,,,,397.541933600005,397.558079200011,398.058426100004,398.04178160001175,398.04500139999436,398.058426100004,398.058426100004,398.058426100004,399.5253436000203,Objects\063a.jpg,mid,o,1.4562733999919146,None,,,,,,,,00039,001,2026-01-23_17h27.51.140,MST_test,2024.2.0,60.17727020381961,2026-01-23 17h28.00.486278 +0530,
101,0,102,s,1.8966568000032566,None,102,0,101,399.54134039999917,,,,,,,,,,,,,,,,,,,,,,,,,,,,,,,,,,,,,,,,,,,,,,,,,,399.52546500001336,399.54134039999917,400.041586700012,400.0248652000155,400.02901270001894,400.041586700012,400.041586700012,400.041586700012,401.9426367999986,Objects\011b.jpg,mid,s,1.8966568000032566,None,,,,,,,,00039,001,2026-01-23_17h27.51.140,MST_test,2024.2.0,60.17727020381961,2026-01-23 17h28.00.486278 +0530,
102,0,103,s,4.400348099996336,None,103,0,102,401.95810150000034,,,,,,,,,,,,,,,,,,,,,,,,,,,,,,,,,,,,,,,,,,,,,,,,,,401.9427535000141,401.95810150000034,402.458034100011,402.4415287000011,402.45328220000374,402.458034100011,402.458034100011,402.458034100011,406.8591364000167,Scenes\003a.jpg,pre,s,4.400348099996336,None,,,,,,,,00039,001,2026-01-23_17h27.51.140,MST_test,2024.2.0,60.17727020381961,2026-01-23 17h28.00.486278 +0530,
103,0,104,o,1.3067828000057489,None,104,0,103,406.8745015000168,,,,,,,,,,,,,,,,,,,,,,,,,,,,,,,,,,,,,,,,,,,,,,,,,,406.8592668999918,406.8745015000168,407.3749272999994,407.3586123000132,407.36273799999617,407.3749272999994,407.3749272999994,407.3749272999994,408.6925354000123,Objects\027a.jpg,pre,o,1.3067828000057489,None,,,,,,,,00039,001,2026-01-23_17h27.51.140,MST_test,2024.2.0,60.17727020381961,2026-01-23 17h28.00.486278 +0530,
104,0,105,n,1.5857744000095408,None,105,0,104,408.70855939999456,,,,,,,,,,,,,,,,,,,,,,,,,,,,,,,,,,,,,,,,,,,,,,,,,,408.6926635999989,408.70855939999456,409.2082456999924,409.1917964000022,409.1959193999937,409.2082456999924,409.2082456999924,409.2082456999924,410.8087666000065,Foils\034a.jpg,none,n,1.5857744000095408,None,,,,,,,,00039,001,2026-01-23_17h27.51.140,MST_test,2024.2.0,60.17727020381961,2026-01-23 17h28.00.486278 +0530,
105,0,106,o,1.7254695000010543,None,106,0,105,410.8244503000169,,,,,,,,,,,,,,,,,,,,,,,,,,,,,,,,,,,,,,,,,,,,,,,,,,410.8088827000174,410.8244503000169,411.3250725000107,411.30842960000155,411.31127070001094,411.3250725000107,411.3250725000107,411.3250725000107,413.0593749000109,Objects\052a.jpg,post,o,1.7254695000010543,None,,,,,,,,00039,001,2026-01-23_17h27.51.140,MST_test,2024.2.0,60.17727020381961,2026-01-23 17h28.00.486278 +0530,
106,0,107,n,2.179491800023243,None,107,0,106,413.0744764000119,,,,,,,,,,,,,,,,,,,,,,,,,,,,,,,,,,,,,,,,,,,,,,,,,,413.0594828000176,413.0744764000119,413.5750770000159,413.55810389999533,413.5698980000161,413.5750770000159,413.5750770000159,413.5750770000159,415.75934400002006,Foils\scenes22.jpg,none,n,2.179491800023243,None,,,,,,,,00039,001,2026-01-23_17h27.51.140,MST_test,2024.2.0,60.17727020381961,2026-01-23 17h28.00.486278 +0530,
107,0,108,n,1.9002269000047818,None,108,0,107,415.774590200017,,,,,,,,,,,,,,,,,,,,,,,,,,,,,,,,,,,,,,,,,,,,,,,,,,415.7594829000009,415.774590200017,416.28628800000297,416.2584793000133,416.2832398000173,416.28628800000297,416.28628800000297,416.28628800000297,418.1926230000099,Scenes\009b.jpg,mid,n,1.9002269000047818,None,,,,,,,,00039,001,2026-01-23_17h27.51.140,MST_test,2024.2.0,60.17727020381961,2026-01-23 17h28.00.486278 +0530,
108,0,109,s,1.4369099999894388,None,109,0,108,418.20848719999776,,,,,,,,,,,,,,,,,,,,,,,,,,,,,,,,,,,,,,,,,,,,,,,,,,418.1927291000029,418.20848719999776,418.70889710000483,418.69155849999515,418.70343530000537,418.70889710000483,418.70889710000483,418.70889710000483,420.15934760001255,Objects\082b.jpg,pre,s,1.4369099999894388,None,,,,,,,,00039,001,2026-01-23_17h27.51.140,MST_test,2024.2.0,60.17727020381961,2026-01-23 17h28.00.486278 +0530,
109,0,110,s,2.3187955000030342,None,110,0,109,420.17428850001306,,,,,,,,,,,,,,,,,,,,,,,,,,,,,,,,,,,,,,,,,,,,,,,,,,420.1594536000048,420.17428850001306,420.6753466000082,420.65908470001887,420.6684784000099,420.6753466000082,420.6753466000082,420.6753466000082,423.0085817000072,Scenes\131a.jpg,mid,s,2.3187955000030342,None,,,,,,,,00039,001,2026-01-23_17h27.51.140,MST_test,2024.2.0,60.17727020381961,2026-01-23 17h28.00.486278 +0530,
110,0,111,n,1.5158838999923319,None,111,0,110,423.02425930000027,,,,,,,,,,,,,,,,,,,,,,,,,,,,,,,,,,,,,,,,,,,,,,,,,,423.0086901000177,423.02425930000027,423.5259825999965,423.5086727000016,423.5123617000063,423.5259825999965,423.5259825999965,423.5259825999965,425.0426206999982,Foils\121a.jpg,none,n,1.5158838999923319,None,,,,,,,,00039,001,2026-01-23_17h27.51.140,MST_test,2024.2.0,60.17727020381961,2026-01-23 17h28.00.486278 +0530,
111,0,112,s,1.515687600011006,None,112,0,111,425.0578926000162,,,,,,,,,,,,,,,,,,,,,,,,,,,,,,,,,,,,,,,,,,,,,,,,,,425.0427299000148,425.0578926000162,,425.5428654999996,425.54740400001174,425.5583042000071,425.5583042000071,425.5583042000071,427.07564450000064,Foils\086a.jpg,none,s,1.515687600011006,None,,,,,,,,00039,001,2026-01-23_17h27.51.140,MST_test,2024.2.0,60.17727020381961,2026-01-23 17h28.00.486278 +0530,
112,0,113,n,2.0580006999953184,None,113,0,112,427.09161880001193,,,,,,,,,,,,,,,,,,,,,,,,,,,,,,,,,,,,,,,,,,,,,,,,,,427.0757491000113,427.09161880001193,427.5921406999987,427.5749965000141,427.58667550000246,427.5921406999987,427.5921406999987,427.5921406999987,429.65908110002056,Foils\020b.jpg,none,n,2.0580006999953184,None,,,,,,,,00039,001,2026-01-23_17h27.51.140,MST_test,2024.2.0,60.17727020381961,2026-01-23 17h28.00.486278 +0530,
113,0,114,s,1.5637692000018433,None,114,0,113,429.6755691000144,,,,,,,,,,,,,,,,,,,,,,,,,,,,,,,,,,,,,,,,,,,,,,,,,,429.6591896000027,429.6755691000144,430.1747716999962,430.1584525000071,430.16959700000007,430.1747716999962,430.1747716999962,430.1747716999962,431.7426939000143,Scenes\128a.jpg,mid,s,1.5637692000018433,None,,,,,,,,00039,001,2026-01-23_17h27.51.140,MST_test,2024.2.0,60.17727020381961,2026-01-23 17h28.00.486278 +0530,
114,0,115,s,2.1516037000110373,None,115,0,114,431.75820880001993,,,,,,,,,,,,,,,,,,,,,,,,,,,,,,,,,,,,,,,,,,,,,,,,,,431.7428035000048,431.75820880001993,432.25828840001486,432.2415433000133,432.2528474999999,432.25828840001486,432.25828840001486,432.25828840001486,434.4252107999928,Objects\020b.jpg,pre,s,2.1516037000110373,None,,,,,,,,00039,001,2026-01-23_17h27.51.140,MST_test,2024.2.0,60.17727020381961,2026-01-23 17h28.00.486278 +0530,
115,0,116,s,5.280507199990097,None,116,0,115,434.44127239999943,,,,,,,,,,,,,,,,,,,,,,,,,,,,,,,,,,,,,,,,,,,,,,,,,,434.4253146999981,434.44127239999943,434.9460289000126,434.92517230001977,434.9432910000032,434.9460289000126,434.9460289000126,434.9460289000126,440.24188620000496,Scenes\067b.jpg,mid,s,5.280507199990097,None,,,,,,,,00039,001,2026-01-23_17h27.51.140,MST_test,2024.2.0,60.17727020381961,2026-01-23 17h28.00.486278 +0530,
116,0,117,s,2.091657699987991,None,117,0,116,440.25819560000673,,,,,,,,,,,,,,,,,,,,,,,,,,,,,,,,,,,,,,,,,,,,,,,,,,440.2419950000185,440.25819560000673,440.7583389999927,440.741609699995,440.7449975000054,440.7583389999927,440.7583389999927,440.7583389999927,442.8587564000045,Objects\147a.jpg,mid,s,2.091657699987991,None,,,,,,,,00039,001,2026-01-23_17h27.51.140,MST_test,2024.2.0,60.17727020381961,2026-01-23 17h28.00.486278 +0530,
117,0,118,s,0.7316409999912139,None,118,0,117,442.8744709000166,,,,,,,,,,,,,,,,,,,,,,,,,,,,,,,,,,,,,,,,,,,,,,,,,,442.85886259999825,442.8744709000166,443.3747594000015,443.3584073999955,443.3616823000193,443.3747594000015,443.3747594000015,443.3747594000015,444.1091187999991,Objects\023a.jpg,post,s,0.7316409999912139,None,,,,,,,,00039,001,2026-01-23_17h27.51.140,MST_test,2024.2.0,60.17727020381961,2026-01-23 17h28.00.486278 +0530,
118,0,119,s,2.143337399989832,None,119,0,118,444.12532429999555,,,,,,,,,,,,,,,,,,,,,,,,,,,,,,,,,,,,,,,,,,,,,,,,,,444.10922270000447,444.12532429999555,444.63428580001346,444.60877540000365,444.63154200001736,444.63428580001346,444.63428580001346,444.63428580001346,446.79236940000555,Scenes\045b.jpg,post,s,2.143337399989832,None,,,,,,,,00039,001,2026-01-23_17h27.51.140,MST_test,2024.2.0,60.17727020381961,2026-01-23 17h28.00.486278 +0530,
119,0,120,s,1.9069475999858696,None,120,0,119,446.8079314000206,,,,,,,,,,,,,,,,,,,,,,,,,,,,,,,,,,,,,,,,,,,,,,,,,,446.7924854000157,446.8079314000206,447.3111194999947,447.2916770000011,447.3082784000144,447.3111194999947,447.3111194999947,447.3111194999947,449.2252298000094,Scenes\018b.jpg,pre,s,1.9069475999858696,None,,,,,,,,00039,001,2026-01-23_17h27.51.140,MST_test,2024.2.0,60.17727020381961,2026-01-23 17h28.00.486278 +0530,
120,0,121,s,1.6726538999937475,None,121,0,120,449.24130409999634,,,,,,,,,,,,,,,,,,,,,,,,,,,,,,,,,,,,,,,,,,,,,,,,,,449.2253411000129,449.24130409999634,449.7449176000082,449.72500900001614,449.74171000000206,449.7449176000082,449.7449176000082,449.7449176000082,451.4256124999956,Scenes\077b.jpg,post,s,1.6726538999937475,None,,,,,,,,00039,001,2026-01-23_17h27.51.140,MST_test,2024.2.0,60.17727020381961,2026-01-23 17h28.00.486278 +0530,
121,0,122,o,1.2520193999807816,None,122,0,121,451.44130989999394,,,,,,,,,,,,,,,,,,,,,,,,,,,,,,,,,,,,,,,,,,,,,,,,,,451.425728000002,451.44130989999394,451.94236620000447,451.92486780000036,451.9281955000188,451.94236620000447,451.94236620000447,451.94236620000447,453.20886959999916,Objects\024a.jpg,pre,o,1.2520193999807816,None,,,,,,,,00039,001,2026-01-23_17h27.51.140,MST_test,2024.2.0,60.17727020381961,2026-01-23 17h28.00.486278 +0530,
122,0,123,n,2.237960900005419,None,123,0,122,453.2246634000039,,,,,,,,,,,,,,,,,,,,,,,,,,,,,,,,,,,,,,,,,,,,,,,,,,453.2089859000116,453.2246634000039,453.72490450000623,453.7086449000053,453.7118674000085,453.72490450000623,453.72490450000623,453.72490450000623,455.9755906999926,Foils\scenes30.jpg,none,n,2.237960900005419,None,,,,,,,,00039,001,2026-01-23_17h27.51.140,MST_test,2024.2.0,60.17727020381961,2026-01-23 17h28.00.486278 +0530,
123,0,124,s,1.270543299993733,None,124,0,123,455.9915944999957,,,,,,,,,,,,,,,,,,,,,,,,,,,,,,,,,,,,,,,,,,,,,,,,,,455.97570390001056,455.9915944999957,456.49207790000946,456.4749291000189,456.48638879999635,456.49207790000946,456.49207790000946,456.49207790000946,457.7752237000095,Objects\105b.jpg,post,s,1.270543299993733,None,,,,,,,,00039,001,2026-01-23_17h27.51.140,MST_test,2024.2.0,60.17727020381961,2026-01-23 17h28.00.486278 +0530,
124,0,125,o,1.838302600022871,None,125,0,124,457.7913699000201,,,,,,,,,,,,,,,,,,,,,,,,,,,,,,,,,,,,,,,,,,,,,,,,,,457.77533130001393,457.7913699000201,458.2916857000091,458.27486659999704,458.2810844000196,458.2916857000091,458.2916857000091,458.2916857000091,460.1427486000175,Scenes\118a.jpg,post,o,1.838302600022871,None,,,,,,,,00039,001,2026-01-23_17h27.51.140,MST_test,2024.2.0,60.17727020381961,2026-01-23 17h28.00.486278 +0530,
125,0,126,s,3.527462199999718,None,126,0,125,460.15792100000544,,,,,,,,,,,,,,,,,,,,,,,,,,,,,,,,,,,,,,,,,,,,,,,,,,460.14285590001964,460.15792100000544,460.65865389999817,460.6416082000069,460.6533023999946,460.65865389999817,460.65865389999817,460.65865389999817,464.1919503000099,Objects\122b.jpg,mid,s,3.527462199999718,None,,,,,,,,00039,001,2026-01-23_17h27.51.140,MST_test,2024.2.0,60.17727020381961,2026-01-23 17h28.00.486278 +0530,
126,0,127,n,4.254097199998796,None,127,0,126,464.2080115000135,,,,,,,,,,,,,,,,,,,,,,,,,,,,,,,,,,,,,,,,,,,,,,,,,,464.19206299999496,464.2080115000135,464.70873430001666,464.69152510000276,464.6951740999939,464.70873430001666,464.70873430001666,464.70873430001666,468.9758957000158,Foils\049a.jpg,none,n,4.254097199998796,None,,,,,,,,00039,001,2026-01-23_17h27.51.140,MST_test,2024.2.0,60.17727020381961,2026-01-23 17h28.00.486278 +0530,
127,0,128,s,3.6227962999837473,None,128,0,127,468.99171440000646,,,,,,,,,,,,,,,,,,,,,,,,,,,,,,,,,,,,,,,,,,,,,,,,,,468.9760376000195,468.99171440000646,469.4917886000185,469.4750355000142,469.48749170001247,469.4917886000185,469.4917886000185,469.4917886000185,473.12527439999394,Objects\059b.jpg,mid,s,3.6227962999837473,None,,,,,,,,00039,001,2026-01-23_17h27.51.140,MST_test,2024.2.0,60.17727020381961,2026-01-23 17h28.00.486278 +0530,
128,0,129,n,2.2408520999888424,None,129,0,128,473.1412125999923,,,,,,,,,,,,,,,,,,,,,,,,,,,,,,,,,,,,,,,,,,,,,,,,,,473.1253887999919,473.1412125999923,473.64167499999166,473.62466870000935,473.63243379999767,473.64167499999166,473.64167499999166,473.64167499999166,475.89279400001396,Scenes\185a.jpg,pre,n,2.2408520999888424,None,,,,,,,,00039,001,2026-01-23_17h27.51.140,MST_test,2024.2.0,60.17727020381961,2026-01-23 17h28.00.486278 +0530,
129,0,130,s,1.4893102000060026,None,130,0,129,475.90806360001443,,,,,,,,,,,,,,,,,,,,,,,,,,,,,,,,,,,,,,,,,,,,,,,,,,475.89291379999486,475.90806360001443,476.4084984000074,476.3920582999999,476.4036420000193,476.4084984000074,476.4084984000074,476.4084984000074,477.9090037000133,Objects\123b.jpg,post,s,1.4893102000060026,None,,,,,,,,00039,001,2026-01-23_17h27.51.140,MST_test,2024.2.0,60.17727020381961,2026-01-23 17h28.00.486278 +0530,
130,0,131,o,1.3058217999932822,None,131,0,130,477.9247272000066,,,,,,,,,,,,,,,,,,,,,,,,,,,,,,,,,,,,,,,,,,,,,,,,,,477.9091092000017,477.9247272000066,478.4246376999945,478.4081717999943,478.41130000000703,478.4246376999945,478.4246376999945,478.4246376999945,479.7421639999957,Objects\143a.jpg,mid,o,1.3058217999932822,None,,,,,,,,00039,001,2026-01-23_17h27.51.140,MST_test,2024.2.0,60.17727020381961,2026-01-23 17h28.00.486278 +0530,
131,0,132,s,4.3373393999936525,None,132,0,131,479.7578382999927,,,,,,,,,,,,,,,,,,,,,,,,,,,,,,,,,,,,,,,,,,,,,,,,,,479.7422778000182,479.7578382999927,480.26499719999265,480.2414864000166,480.2623858000152,480.26499719999265,480.26499719999265,480.26499719999265,484.6087858999963,Scenes\062b.jpg,mid,s,4.3373393999936525,None,,,,,,,,00039,001,2026-01-23_17h27.51.140,MST_test,2024.2.0,60.17727020381961,2026-01-23 17h28.00.486278 +0530,
132,0,133,n,1.7812238999758847,None,133,0,132,484.6240777000203,,,,,,,,,,,,,,,,,,,,,,,,,,,,,,,,,,,,,,,,,,,,,,,,,,484.6088953000144,484.6240777000203,485.1247505999927,485.10877439999604,485.11168500001077,485.1247505999927,485.1247505999927,485.1247505999927,486.9086823000107,Foils\scenes4.jpg,none,n,1.7812238999758847,None,,,,,,,,00039,001,2026-01-23_17h27.51.140,MST_test,2024.2.0,60.17727020381961,2026-01-23 17h28.00.486278 +0530,
133,0,134,n,1.8749063000141177,None,134,0,133,486.9244280999992,,,,,,,,,,,,,,,,,,,,,,,,,,,,,,,,,,,,,,,,,,,,,,,,,,486.9087940000172,486.9244280999992,487.74339899999904,487.4085152000189,487.73829559999285,487.74339899999904,487.74339899999904,487.74339899999904,489.62549150001723,Foils\scenes26.jpg,none,n,1.8749063000141177,None,,,,,,,,00039,001,2026-01-23_17h27.51.140,MST_test,2024.2.0,60.17727020381961,2026-01-23 17h28.00.486278 +0530,
134,0,135,s,2.497172999981558,None,135,0,134,489.64137650001794,,,,,,,,,,,,,,,,,,,,,,,,,,,,,,,,,,,,,,,,,,,,,,,,,,489.62559519999195,489.64137650001794,490.17698390001897,490.12480770002,490.17430250000325,490.17698390001897,490.17698390001897,490.17698390001897,492.6752419999975,Objects\030b.jpg,pre,s,2.497172999981558,None,,,,,,,,00039,001,2026-01-23_17h27.51.140,MST_test,2024.2.0,60.17727020381961,2026-01-23 17h28.00.486278 +0530,
135,0,136,n,2.1709875999949872,None,136,0,135,492.69208500001696,,,,,,,,,,,,,,,,,,,,,,,,,,,,,,,,,,,,,,,,,,,,,,,,,,492.67534750001505,492.69208500001696,493.19139190000715,493.175286600017,493.18616490002023,493.19139190000715,493.19139190000715,493.19139190000715,495.3759127999947,Objects\026b.jpg,mid,n,2.1709875999949872,None,,,,,,,,00039,001,2026-01-23_17h27.51.140,MST_test,2024.2.0,60.17727020381961,2026-01-23 17h28.00.486278 +0530,
136,0,137,n,1.295030899986159,None,137,0,136,495.39103500000783,,,,,,,,,,,,,,,,,,,,,,,,,,,,,,,,,,,,,,,,,,,,,,,,,,495.37601949999225,495.39103500000783,495.8912454000092,495.8749294000154,495.8865814000019,495.8912454000092,495.8912454000092,495.8912454000092,497.1923517000105,Objects\156b.jpg,post,n,1.295030899986159,None,,,,,,,,00039,001,2026-01-23_17h27.51.140,MST_test,2024.2.0,60.17727020381961,2026-01-23 17h28.00.486278 +0530,
137,0,138,s,3.7506516999856103,None,138,0,137,497.208423700009,,,,,,,,,,,,,,,,,,,,,,,,,,,,,,,,,,,,,,,,,,,,,,,,,,497.19246630001,497.208423700009,497.70795300000464,497.6916600000113,497.69467490000534,497.70795300000464,497.70795300000464,497.70795300000464,501.4749480000173,Objects\134a.jpg,mid,s,3.7506516999856103,None,,,,,,,,00039,001,2026-01-23_17h27.51.140,MST_test,2024.2.0,60.17727020381961,2026-01-23 17h28.00.486278 +0530,
138,0,139,o,1.475011500006076,None,139,0,138,501.4913927000016,,,,,,,,,,,,,,,,,,,,,,,,,,,,,,,,,,,,,,,,,,,,,,,,,,501.47506670001894,501.4913927000016,501.9912325000041,501.97472260001814,501.97771219999413,501.9912325000041,501.9912325000041,501.9912325000041,503.47527389999595,Objects\001a.jpg,post,o,1.475011500006076,None,,,,,,,,00039,001,2026-01-23_17h27.51.140,MST_test,2024.2.0,60.17727020381961,2026-01-23 17h28.00.486278 +0530,
139,0,140,o,1.1629939999838825,None,140,0,139,503.4910979999986,,,,,,,,,,,,,,,,,,,,,,,,,,,,,,,,,,,,,,,,,,,,,,,,,,503.47538720001467,503.4910979999986,503.9914417999971,503.97482220001984,503.9809402000101,503.9914417999971,503.9914417999971,503.9914417999971,505.1590283999976,Scenes\096a.jpg,pre,o,1.1629939999838825,None,,,,,,,,00039,001,2026-01-23_17h27.51.140,MST_test,2024.2.0,60.17727020381961,2026-01-23 17h28.00.486278 +0530,
140,0,141,s,1.3982289000123274,None,141,0,140,505.1751809999987,,,,,,,,,,,,,,,,,,,,,,,,,,,,,,,,,,,,,,,,,,,,,,,,,,505.15914550001617,505.1751809999987,505.67573950000224,505.6582117000071,505.67171160000726,505.67573950000224,505.67573950000224,505.67573950000224,507.07568690000335,Objects\152b.jpg,pre,s,1.3982289000123274,None,,,,,,,,00039,001,2026-01-23_17h27.51.140,MST_test,2024.2.0,60.17727020381961,2026-01-23 17h28.00.486278 +0530,
141,0,142,s,5.314782600005856,None,142,0,141,507.0910872000095,,,,,,,,,,,,,,,,,,,,,,,,,,,,,,,,,,,,,,,,,,,,,,,,,,507.0757936000009,507.0910872000095,507.5917621999979,507.57488070000545,507.58645329999854,507.5917621999979,507.5917621999979,507.5917621999979,512.9100601999962,Scenes\017a.jpg,mid,s,5.314782600005856,None,,,,,,,,00039,001,2026-01-23_17h27.51.140,MST_test,2024.2.0,60.17727020381961,2026-01-23 17h28.00.486278 +0530,
142,0,143,n,2.7689213999838103,None,143,0,142,512.9250429999956,,,,,,,,,,,,,,,,,,,,,,,,,,,,,,,,,,,,,,,,,,,,,,,,,,512.9101819999923,512.9250429999956,513.4254652000091,513.4084112000128,513.4189664000005,513.4254652000091,513.4254652000091,513.4254652000091,516.2094262000173,Foils\scenes29.jpg,none,n,2.7689213999838103,None,,,,,,,,00039,001,2026-01-23_17h27.51.140,MST_test,2024.2.0,60.17727020381961,2026-01-23 17h28.00.486278 +0530,
143,0,144,s,1.679331200022716,None,144,0,143,516.224570099992,,,,,,,,,,,,,,,,,,,,,,,,,,,,,,,,,,,,,,,,,,,,,,,,,,516.2095419999969,516.224570099992,516.7306126000185,516.7085931000183,516.7281696000136,516.7306126000185,516.7306126000185,516.7306126000185,518.4252486000187,Scenes\101b.jpg,pre,s,1.679331200022716,None,,,,,,,,00039,001,2026-01-23_17h27.51.140,MST_test,2024.2.0,60.17727020381961,2026-01-23 17h28.00.486278 +0530,
144,0,145,s,1.5881024999835063,None,145,0,144,518.4415236999921,,,,,,,,,,,,,,,,,,,,,,,,,,,,,,,,,,,,,,,,,,,,,,,,,,518.425356599997,518.4415236999921,518.9415069000097,518.9254704000195,518.9374422999972,518.9415069000097,518.9415069000097,518.9415069000097,520.5418522999971,Objects\190b.jpg,mid,s,1.5881024999835063,None,,,,,,,,00039,001,2026-01-23_17h27.51.140,MST_test,2024.2.0,60.17727020381961,2026-01-23 17h28.00.486278 +0530,
145,0,146,n,1.6240724000090268,None,146,0,145,520.5578837000066,,,,,,,,,,,,,,,,,,,,,,,,,,,,,,,,,,,,,,,,,,,,,,,,,,520.5419682000065,520.5578837000066,,521.0419589999947,521.0523206999933,521.0582271000021,521.0582271000021,521.0582271000021,522.6919984999986,Foils\074a.jpg,none,n,1.6240724000090268,None,,,,,,,,00039,001,2026-01-23_17h27.51.140,MST_test,2024.2.0,60.17727020381961,2026-01-23 17h28.00.486278 +0530,
146,0,147,s,2.0817432000185363,None,147,0,146,522.7078628000163,,,,,,,,,,,,,,,,,,,,,,,,,,,,,,,,,,,,,,,,,,,,,,,,,,522.6921214000031,522.7078628000163,523.2087279999978,523.1916523000109,523.1944002000091,523.2087279999978,523.2087279999978,523.2087279999978,525.2915908000141,Foils\scenes6.jpg,none,s,2.0817432000185363,None,,,,,,,,00039,001,2026-01-23_17h27.51.140,MST_test,2024.2.0,60.17727020381961,2026-01-23 17h28.00.486278 +0530,
147,0,148,s,2.173317600012524,None,148,0,147,525.3084039000096,,,,,,,,,,,,,,,,,,,,,,,,,,,,,,,,,,,,,,,,,,,,,,,,,,525.2917006000062,525.3084039000096,525.812505000009,525.7913262000075,525.8094278000062,525.812505000009,525.812505000009,525.812505000009,527.991895300016,Scenes\005b.jpg,pre,s,2.173317600012524,None,,,,,,,,00039,001,2026-01-23_17h27.51.140,MST_test,2024.2.0,60.17727020381961,2026-01-23 17h28.00.486278 +0530,
148,0,149,o,1.9889827000151854,None,149,0,148,528.0078511000029,,,,,,,,,,,,,,,,,,,,,,,,,,,,,,,,,,,,,,,,,,,,,,,,,,527.992012600007,528.0078511000029,528.5087772000115,528.491388800001,528.4950797000201,528.5087772000115,528.5087772000115,528.5087772000115,530.5085962000012,Objects\189a.jpg,mid,o,1.9889827000151854,None,,,,,,,,00039,001,2026-01-23_17h27.51.140,MST_test,2024.2.0,60.17727020381961,2026-01-23 17h28.00.486278 +0530,
149,0,150,n,2.6414961999980733,None,150,0,149,530.5245020000148,,,,,,,,,,,,,,,,,,,,,,,,,,,,,,,,,,,,,,,,,,,,,,,,,,530.5087106999999,530.5245020000148,531.0249066000106,531.0082832000044,531.0181087999954,531.0249066000106,531.0249066000106,531.0249066000106,533.6757597000105,Foils\scenes3.jpg,none,n,2.6414961999980733,None,,,,,,,,00039,001,2026-01-23_17h27.51.140,MST_test,2024.2.0,60.17727020381961,2026-01-23 17h28.00.486278 +0530,
,,,,,,,,,,,,,,,,,,,,,,,,,,,,,,,,,,,,,,,,,,,,,,,,,,,,,,,,,,,,,,,,,,,,,,,,,533.675834499998,533.6915347000177,533.6915347000177,535.675610300008,space,1.9829071999993175,None,00039,001,2026-01-23_17h27.51.140,MST_test,2024.2.0,60.17727020381961,2026-01-23 17h28.00.486278 +0530,
