thisN,thisTrialN,thisRepN,key_resp_3.keys,key_resp_3.rt,key_resp_3.duration,trials.thisRepN,trials.thisTrialN,trials.thisN,thisRow.t,notes,intro_page.started,text.started,key_resp.started,intro_page.stopped,key_resp.keys,key_resp.rt,key_resp.duration,instructions.started,text_2.started,key_resp_2.started,instructions.stopped,key_resp_2.keys,key_resp_2.rt,key_resp_2.duration,demo1.started,image_1.started,image_2.started,text_7.started,key_resp_6.started,text_9.started,demo1.stopped,key_resp_6.keys,key_resp_6.rt,key_resp_6.duration,demo2.started,image_5.started,image_6.started,text_11.started,text_12.started,key_resp_8.started,demo2.stopped,key_resp_8.keys,key_resp_8.rt,key_resp_8.duration,demo_conclusion.started,text_13.started,key_resp_9.started,demo_conclusion.stopped,key_resp_9.keys,key_resp_9.rt,key_resp_9.duration,start_test.started,text_6.started,key_resp_5.started,start_test.stopped,key_resp_5.keys,key_resp_5.rt,key_resp_5.duration,ISI.started,text_4.started,text_4.stopped,ISI.stopped,routine_1.started,image.started,text_3.started,key_resp_3.started,routine_1.stopped,image_path,position_of_stimuli,trials.key_resp_3.keys,trials.key_resp_3.rt,trials.key_resp_3.duration,End_page.started,text_5.started,key_resp_4.started,End_page.stopped,key_resp_4.keys,key_resp_4.rt,key_resp_4.duration,participant,session,date,expName,psychopyVersion,frameRate,expStart,
,,,,,,,,,,,0.0016841000178828835,0.003711700002895668,0.003711700002895668,1.9205173999944236,space,1.9050420999992639,None,,,,,,,,,,,,,,,,,,,,,,,,,,,,,,,,,,,,,,,,,,,,,,,,,,,,,,,,,,,,,,,00037,001,2026-01-23_16h33.26.226,MST_test,2024.2.0,59.99933999874208,2026-01-23 16h33.33.794410 +0530,
,,,,,,,,,,,,,,,,,,1.9205570000049192,1.934718200005591,1.934718200005591,19.73537939999369,space,17.797575600008713,None,,,,,,,,,,,,,,,,,,,,,,,,,,,,,,,,,,,,,,,,,,,,,,,,,,,,,,,,00037,001,2026-01-23_16h33.26.226,MST_test,2024.2.0,59.99933999874208,2026-01-23 16h33.33.794410 +0530,
,,,,,,,,,,,,,,,,,,,,,,,,,19.7354187000019,19.75217110000085,19.75217110000085,19.75217110000085,19.75217110000085,19.75217110000085,27.96898110001348,space,8.212730200000806,None,,,,,,,,,,,,,,,,,,,,,,,,,,,,,,,,,,,,,,,,,,,,,,00037,001,2026-01-23_16h33.26.226,MST_test,2024.2.0,59.99933999874208,2026-01-23 16h33.33.794410 +0530,
,,,,,,,,,,,,,,,,,,,,,,,,,,,,,,,,,,,27.969015800015768,27.98540820000926,27.98540820000926,27.98540820000926,27.98540820000926,27.98540820000926,33.218828999990365,space,5.219342500000494,None,,,,,,,,,,,,,,,,,,,,,,,,,,,,,,,,,,,,00037,001,2026-01-23_16h33.26.226,MST_test,2024.2.0,59.99933999874208,2026-01-23 16h33.33.794410 +0530,
,,,,,,,,,,,,,,,,,,,,,,,,,,,,,,,,,,,,,,,,,,,,,33.218865300004836,33.23468019999564,33.23468019999564,54.90253890000167,space,21.66610530001344,None,,,,,,,,,,,,,,,,,,,,,,,,,,,,,00037,001,2026-01-23_16h33.26.226,MST_test,2024.2.0,59.99933999874208,2026-01-23 16h33.33.794410 +0530,
,,,,,,,,,,,,,,,,,,,,,,,,,,,,,,,,,,,,,,,,,,,,,,,,,,,,54.90257639999618,54.91802840001765,54.91802840001765,111.30204949999461,space,56.3743981999869,None,,,,,,,,,,,,,,,,,,,,,,00037,001,2026-01-23_16h33.26.226,MST_test,2024.2.0,59.99933999874208,2026-01-23 16h33.33.794410 +0530,
0,0,1,o,5.1051892999967095,None,1,0,0,111.31789850001223,,,,,,,,,,,,,,,,,,,,,,,,,,,,,,,,,,,,,,,,,,,,,,,,,,111.30614560001413,111.31789850001223,111.82774219999555,111.80155360000208,111.8250979000004,111.82774219999555,111.82774219999555,111.82774219999555,116.93551670000306,Scenes\055b.jpg,post,o,5.1051892999967095,None,,,,,,,,00037,001,2026-01-23_16h33.26.226,MST_test,2024.2.0,59.99933999874208,2026-01-23 16h33.33.794410 +0530,
1,0,2,n,2.409523700014688,None,2,0,1,116.95130420001806,,,,,,,,,,,,,,,,,,,,,,,,,,,,,,,,,,,,,,,,,,,,,,,,,,116.93564189999597,116.95130420001806,117.45162239999627,117.4347812999913,117.44805959999212,117.45162239999627,117.45162239999627,117.45162239999627,119.86874070001068,Foils\010a.jpg,none,n,2.409523700014688,None,,,,,,,,00037,001,2026-01-23_16h33.26.226,MST_test,2024.2.0,59.99933999874208,2026-01-23 16h33.33.794410 +0530,
2,0,3,s,7.394506399985403,None,3,0,2,119.88447320001433,,,,,,,,,,,,,,,,,,,,,,,,,,,,,,,,,,,,,,,,,,,,,,,,,,119.86885470000561,119.88447320001433,120.38572610000847,120.36852530000033,120.37914550001733,120.38572610000847,120.38572610000847,120.38572610000847,127.78520129999379,Objects\132b.jpg,post,s,7.394506399985403,None,,,,,,,,00037,001,2026-01-23_16h33.26.226,MST_test,2024.2.0,59.99933999874208,2026-01-23 16h33.33.794410 +0530,
3,0,4,s,4.996041599981254,None,4,0,3,127.80188479999197,,,,,,,,,,,,,,,,,,,,,,,,,,,,,,,,,,,,,,,,,,,,,,,,,,127.78531750000548,127.80188479999197,128.3042122000188,128.28471989999525,128.30176450000727,128.3042122000188,128.3042122000188,128.3042122000188,133.30220050000935,Scenes\027b.jpg,post,s,4.996041599981254,None,,,,,,,,00037,001,2026-01-23_16h33.26.226,MST_test,2024.2.0,59.99933999874208,2026-01-23 16h33.33.794410 +0530,
4,0,5,s,3.8820784999988973,None,5,0,4,133.31819620000897,,,,,,,,,,,,,,,,,,,,,,,,,,,,,,,,,,,,,,,,,,,,,,,,,,133.30231150001055,133.31819620000897,133.81872119999025,133.80165090001537,133.81244290000177,133.81872119999025,133.81872119999025,133.81872119999025,137.70298180001555,Objects\034b.jpg,mid,s,3.8820784999988973,None,,,,,,,,00037,001,2026-01-23_16h33.26.226,MST_test,2024.2.0,59.99933999874208,2026-01-23 16h33.33.794410 +0530,
5,0,6,o,3.858502499992028,None,6,0,5,137.71788810001453,,,,,,,,,,,,,,,,,,,,,,,,,,,,,,,,,,,,,,,,,,,,,,,,,,137.70309039999847,137.71788810001453,138.21830410000985,138.20201770000858,138.2051865000103,138.21830410000985,138.21830410000985,138.21830410000985,142.08513739999034,Objects\114a.jpg,post,o,3.858502499992028,None,,,,,,,,00037,001,2026-01-23_16h33.26.226,MST_test,2024.2.0,59.99933999874208,2026-01-23 16h33.33.794410 +0530,
6,0,7,s,10.658956800005399,None,7,0,6,142.10166190000018,,,,,,,,,,,,,,,,,,,,,,,,,,,,,,,,,,,,,,,,,,,,,,,,,,142.08524829999078,142.10166190000018,142.6019219000009,142.5848937999981,142.59708820001106,142.6019219000009,142.6019219000009,142.6019219000009,153.2686583000177,Objects\032b.jpg,pre,s,10.658956800005399,None,,,,,,,,00037,001,2026-01-23_16h33.26.226,MST_test,2024.2.0,59.99933999874208,2026-01-23 16h33.33.794410 +0530,
7,0,8,o,5.459409500006586,None,8,0,7,153.284764800017,,,,,,,,,,,,,,,,,,,,,,,,,,,,,,,,,,,,,,,,,,,,,,,,,,153.26876300000004,153.284764800017,153.78486559999874,153.76827500000945,153.78027710001334,153.78486559999874,153.78486559999874,153.78486559999874,159.25200730000506,Scenes\012a.jpg,pre,o,5.459409500006586,None,,,,,,,,00037,001,2026-01-23_16h33.26.226,MST_test,2024.2.0,59.99933999874208,2026-01-23 16h33.33.794410 +0530,
8,0,9,n,2.7325641000061296,None,9,0,8,159.26765230001183,,,,,,,,,,,,,,,,,,,,,,,,,,,,,,,,,,,,,,,,,,,,,,,,,,159.25211279999348,159.26765230001183,159.76854509999976,159.75178930000402,159.76271760000964,159.76854509999976,159.76854509999976,159.76854509999976,162.50200690000202,Foils\121a.jpg,none,n,2.7325641000061296,None,,,,,,,,00037,001,2026-01-23_16h33.26.226,MST_test,2024.2.0,59.99933999874208,2026-01-23 16h33.33.794410 +0530,
9,0,10,o,2.153545600012876,None,10,0,9,162.51812940000673,,,,,,,,,,,,,,,,,,,,,,,,,,,,,,,,,,,,,,,,,,,,,,,,,,162.50212760001887,162.51812940000673,163.0187819999992,163.00177709999844,163.01597159999073,163.0187819999992,163.0187819999992,163.0187819999992,165.18565719999606,Scenes\181a.jpg,mid,o,2.153545600012876,None,,,,,,,,00037,001,2026-01-23_16h33.26.226,MST_test,2024.2.0,59.99933999874208,2026-01-23 16h33.33.794410 +0530,
10,0,11,s,4.959157099976437,None,11,0,10,165.2013050999958,,,,,,,,,,,,,,,,,,,,,,,,,,,,,,,,,,,,,,,,,,,,,,,,,,165.18580410000868,165.2013050999958,165.70167400001083,165.68501119999564,165.69680629999493,165.70167400001083,165.70167400001083,165.70167400001083,170.66915900001186,Scenes\008b.jpg,pre,s,4.959157099976437,None,,,,,,,,00037,001,2026-01-23_16h33.26.226,MST_test,2024.2.0,59.99933999874208,2026-01-23 16h33.33.794410 +0530,
11,0,12,o,1.491945299989311,None,12,0,11,170.6842556000047,,,,,,,,,,,,,,,,,,,,,,,,,,,,,,,,,,,,,,,,,,,,,,,,,,170.66926980001153,170.6842556000047,171.18468239999493,171.16863970001577,171.17178710000007,171.18468239999493,171.18468239999493,171.18468239999493,172.68583659999422,Objects\129a.jpg,post,o,1.491945299989311,None,,,,,,,,00037,001,2026-01-23_16h33.26.226,MST_test,2024.2.0,59.99933999874208,2026-01-23 16h33.33.794410 +0530,
12,0,13,o,0.8510118999984115,None,13,0,12,172.7014014000015,,,,,,,,,,,,,,,,,,,,,,,,,,,,,,,,,,,,,,,,,,,,,,,,,,172.68595040001674,172.7014014000015,173.20157180001843,173.18533350000507,173.18798340001376,173.20157180001843,173.20157180001843,173.20157180001843,174.0694261000026,Objects\001a.jpg,pre,o,0.8510118999984115,None,,,,,,,,00037,001,2026-01-23_16h33.26.226,MST_test,2024.2.0,59.99933999874208,2026-01-23 16h33.33.794410 +0530,
13,0,14,o,0.7477385000092909,None,14,0,13,174.08436870001606,,,,,,,,,,,,,,,,,,,,,,,,,,,,,,,,,,,,,,,,,,,,,,,,,,174.0695306000125,174.08436870001606,174.58495370001765,174.56828810001025,174.57825819999562,174.58495370001765,174.58495370001765,174.58495370001765,175.33551560001797,Scenes\005a.jpg,pre,o,0.7477385000092909,None,,,,,,,,00037,001,2026-01-23_16h33.26.226,MST_test,2024.2.0,59.99933999874208,2026-01-23 16h33.33.794410 +0530,
14,0,15,o,1.104926300002262,None,15,0,14,175.35122300000512,,,,,,,,,,,,,,,,,,,,,,,,,,,,,,,,,,,,,,,,,,,,,,,,,,175.33562309999252,175.35122300000512,175.8521366000059,175.83531870000297,175.83824859999004,175.8521366000059,175.8521366000059,175.8521366000059,176.96843450001325,Objects\091a.jpg,post,o,1.104926300002262,None,,,,,,,,00037,001,2026-01-23_16h33.26.226,MST_test,2024.2.0,59.99933999874208,2026-01-23 16h33.33.794410 +0530,
15,0,16,n,1.6870215999952052,None,16,0,15,176.98511559999315,,,,,,,,,,,,,,,,,,,,,,,,,,,,,,,,,,,,,,,,,,,,,,,,,,176.96854420000454,176.98511559999315,177.48530390000087,177.46844590001274,177.47848059999524,177.48530390000087,177.48530390000087,177.48530390000087,179.18524620000971,Foils\scenes2.jpg,none,n,1.6870215999952052,None,,,,,,,,00037,001,2026-01-23_16h33.26.226,MST_test,2024.2.0,59.99933999874208,2026-01-23 16h33.33.794410 +0530,
16,0,17,s,1.5023561000125483,None,17,0,16,179.20149279999896,,,,,,,,,,,,,,,,,,,,,,,,,,,,,,,,,,,,,,,,,,,,,,,,,,179.18536020000465,179.20149279999896,179.7020531000162,179.68486139999004,179.69547229999444,179.7020531000162,179.7020531000162,179.7020531000162,181.2191342000151,Objects\040b.jpg,post,s,1.5023561000125483,None,,,,,,,,00037,001,2026-01-23_16h33.26.226,MST_test,2024.2.0,59.99933999874208,2026-01-23 16h33.33.794410 +0530,
17,0,18,o,3.158201200014446,None,18,0,17,181.2344662999967,,,,,,,,,,,,,,,,,,,,,,,,,,,,,,,,,,,,,,,,,,,,,,,,,,181.2192411000142,181.2344662999967,181.73488820000784,181.7182359000144,181.72095340001397,181.73488820000784,181.73488820000784,181.73488820000784,184.90204149999772,Objects\086a.jpg,pre,o,3.158201200014446,None,,,,,,,,00037,001,2026-01-23_16h33.26.226,MST_test,2024.2.0,59.99933999874208,2026-01-23 16h33.33.794410 +0530,
18,0,19,o,1.0183888000028674,None,19,0,18,184.91829560001497,,,,,,,,,,,,,,,,,,,,,,,,,,,,,,,,,,,,,,,,,,,,,,,,,,184.9021492000029,184.91829560001497,185.41821979999077,185.4018817000033,185.4044264999975,185.41821979999077,185.41821979999077,185.41821979999077,186.4518359999929,Objects\190a.jpg,mid,o,1.0183888000028674,None,,,,,,,,00037,001,2026-01-23_16h33.26.226,MST_test,2024.2.0,59.99933999874208,2026-01-23 16h33.33.794410 +0530,
19,0,20,o,1.0522787000227254,None,20,0,19,186.46821490000002,,,,,,,,,,,,,,,,,,,,,,,,,,,,,,,,,,,,,,,,,,,,,,,,,,186.45194500000798,186.46821490000002,186.96816150000086,186.95172979999916,186.9621061999933,186.96816150000086,186.96816150000086,186.96816150000086,188.03509670001222,Objects\172b.jpg,post,o,1.0522787000227254,None,,,,,,,,00037,001,2026-01-23_16h33.26.226,MST_test,2024.2.0,59.99933999874208,2026-01-23 16h33.33.794410 +0530,
20,0,21,o,2.3565700999752153,None,21,0,20,188.05137830000604,,,,,,,,,,,,,,,,,,,,,,,,,,,,,,,,,,,,,,,,,,,,,,,,,,188.03521249999176,188.05137830000604,188.56005180001375,188.5350913000002,188.55696829999215,188.56005180001375,188.56005180001375,188.56005180001375,190.9193273000128,Scenes\029b.jpg,pre,o,2.3565700999752153,None,,,,,,,,00037,001,2026-01-23_16h33.26.226,MST_test,2024.2.0,59.99933999874208,2026-01-23 16h33.33.794410 +0530,
21,0,22,o,3.5695501000154763,None,22,0,21,190.93449770001462,,,,,,,,,,,,,,,,,,,,,,,,,,,,,,,,,,,,,,,,,,,,,,,,,,190.91943320000428,190.93449770001462,191.43483600000036,191.41866590001155,191.42620310001075,191.43483600000036,191.43483600000036,191.43483600000036,195.01929620001465,Scenes\154a.jpg,mid,o,3.5695501000154763,None,,,,,,,,00037,001,2026-01-23_16h33.26.226,MST_test,2024.2.0,59.99933999874208,2026-01-23 16h33.33.794410 +0530,
22,0,23,n,0.9019814000057522,None,23,0,22,195.03440589999082,,,,,,,,,,,,,,,,,,,,,,,,,,,,,,,,,,,,,,,,,,,,,,,,,,195.0194071000151,195.03440589999082,195.53477200001362,195.51830170000903,195.53025740000885,195.53477200001362,195.53477200001362,195.53477200001362,196.45296210001106,Foils\002a.jpg,none,n,0.9019814000057522,None,,,,,,,,00037,001,2026-01-23_16h33.26.226,MST_test,2024.2.0,59.99933999874208,2026-01-23 16h33.33.794410 +0530,
23,0,24,s,3.174839199986309,None,24,0,23,196.46826940000756,,,,,,,,,,,,,,,,,,,,,,,,,,,,,,,,,,,,,,,,,,,,,,,,,,196.45307650000905,196.46826940000756,197.2538359000173,196.95218230001046,197.24929330000305,197.2538359000173,197.2538359000173,197.2538359000173,200.4354522000067,Foils\scenes26.jpg,none,s,3.174839199986309,None,,,,,,,,00037,001,2026-01-23_16h33.26.226,MST_test,2024.2.0,59.99933999874208,2026-01-23 16h33.33.794410 +0530,
24,0,25,s,5.81968779998715,None,25,0,24,200.4511979999952,,,,,,,,,,,,,,,,,,,,,,,,,,,,,,,,,,,,,,,,,,,,,,,,,,200.4355681000161,200.4511979999952,200.99320500000613,200.9350783000118,200.99069020000752,200.99320500000613,200.99320500000613,200.99320500000613,206.8186052000092,Scenes\063b.jpg,post,s,5.81968779998715,None,,,,,,,,00037,001,2026-01-23_16h33.26.226,MST_test,2024.2.0,59.99933999874208,2026-01-23 16h33.33.794410 +0530,
25,0,26,n,2.9095349999843165,None,26,0,25,206.8343135000032,,,,,,,,,,,,,,,,,,,,,,,,,,,,,,,,,,,,,,,,,,,,,,,,,,206.81872189999558,206.8343135000032,207.3352891000104,207.31825969999772,207.32940220000455,207.3352891000104,207.3352891000104,207.3352891000104,210.25228829999105,Foils\057a.jpg,none,n,2.9095349999843165,None,,,,,,,,00037,001,2026-01-23_16h33.26.226,MST_test,2024.2.0,59.99933999874208,2026-01-23 16h33.33.794410 +0530,
26,0,27,o,3.060826000000816,None,27,0,26,210.26819200001773,,,,,,,,,,,,,,,,,,,,,,,,,,,,,,,,,,,,,,,,,,,,,,,,,,210.25240289999056,210.26819200001773,210.76808629999869,210.751751600008,210.75834150001174,210.76808629999869,210.76808629999869,210.76808629999869,213.83542540000053,Scenes\191a.jpg,mid,o,3.060826000000816,None,,,,,,,,00037,001,2026-01-23_16h33.26.226,MST_test,2024.2.0,59.99933999874208,2026-01-23 16h33.33.794410 +0530,
27,0,28,s,3.7408227999985684,None,28,0,27,213.8517131000117,,,,,,,,,,,,,,,,,,,,,,,,,,,,,,,,,,,,,,,,,,,,,,,,,,213.8355409000069,213.8517131000117,214.35187000001315,214.3350849999988,214.34626600000774,214.35187000001315,214.35187000001315,214.35187000001315,218.10299680000753,Objects\066b.jpg,mid,s,3.7408227999985684,None,,,,,,,,00037,001,2026-01-23_16h33.26.226,MST_test,2024.2.0,59.99933999874208,2026-01-23 16h33.33.794410 +0530,
28,0,29,s,2.8187056000169832,None,29,0,28,218.11794060000102,,,,,,,,,,,,,,,,,,,,,,,,,,,,,,,,,,,,,,,,,,,,,,,,,,218.1031168999907,218.11794060000102,218.61885520000942,218.60156760000973,218.61607250000816,218.61885520000942,218.61885520000942,218.61885520000942,221.45230520001496,Scenes\179b.jpg,post,s,2.8187056000169832,None,,,,,,,,00037,001,2026-01-23_16h33.26.226,MST_test,2024.2.0,59.99933999874208,2026-01-23 16h33.33.794410 +0530,
29,0,30,s,1.876553200010676,None,30,0,29,221.4678683000093,,,,,,,,,,,,,,,,,,,,,,,,,,,,,,,,,,,,,,,,,,,,,,,,,,221.45242079999298,221.4678683000093,221.96816509999917,221.95188380000764,221.9554286999919,221.96816509999917,221.96816509999917,221.96816509999917,223.8522302999918,Objects\048a.jpg,post,s,1.876553200010676,None,,,,,,,,00037,001,2026-01-23_16h33.26.226,MST_test,2024.2.0,59.99933999874208,2026-01-23 16h33.33.794410 +0530,
30,0,31,s,0.740416999993613,None,31,0,30,223.86794630001532,,,,,,,,,,,,,,,,,,,,,,,,,,,,,,,,,,,,,,,,,,,,,,,,,,223.8523453999951,223.86794630001532,224.3678404999955,224.35131430000183,224.36156240000855,224.3678404999955,224.3678404999955,224.3678404999955,225.11929400000372,Objects\062b.jpg,pre,s,0.740416999993613,None,,,,,,,,00037,001,2026-01-23_16h33.26.226,MST_test,2024.2.0,59.99933999874208,2026-01-23 16h33.33.794410 +0530,
31,0,32,o,3.3225345000100788,None,32,0,31,225.1347684999928,,,,,,,,,,,,,,,,,,,,,,,,,,,,,,,,,,,,,,,,,,,,,,,,,,225.11941499999375,225.1347684999928,225.63461249999818,225.6181043999968,225.6284045999928,225.63461249999818,225.63461249999818,225.63461249999818,228.96842429999379,Objects\022b.jpg,post,o,3.3225345000100788,None,,,,,,,,00037,001,2026-01-23_16h33.26.226,MST_test,2024.2.0,59.99933999874208,2026-01-23 16h33.33.794410 +0530,
32,0,33,s,3.159500299982028,None,33,0,32,228.98469420001493,,,,,,,,,,,,,,,,,,,,,,,,,,,,,,,,,,,,,,,,,,,,,,,,,,228.96853310000733,228.98469420001493,229.4847049000091,229.46787799999584,229.47794320000685,229.4847049000091,229.4847049000091,229.4847049000091,232.6520972000144,Objects\094b.jpg,pre,s,3.159500299982028,None,,,,,,,,00037,001,2026-01-23_16h33.26.226,MST_test,2024.2.0,59.99933999874208,2026-01-23 16h33.33.794410 +0530,
33,0,34,o,1.3806257999967784,None,34,0,33,232.6676707000006,,,,,,,,,,,,,,,,,,,,,,,,,,,,,,,,,,,,,,,,,,,,,,,,,,232.65220810001483,232.6676707000006,233.16845120000653,233.15143009999883,233.16034470000886,233.16845120000653,233.16845120000653,233.16845120000653,234.55238539999118,Scenes\144a.jpg,post,o,1.3806257999967784,None,,,,,,,,00037,001,2026-01-23_16h33.26.226,MST_test,2024.2.0,59.99933999874208,2026-01-23 16h33.33.794410 +0530,
34,0,35,n,1.0004612999910023,None,35,0,34,234.5680313000048,,,,,,,,,,,,,,,,,,,,,,,,,,,,,,,,,,,,,,,,,,,,,,,,,,234.5524953000131,234.5680313000048,235.06873620001716,235.0515408999927,235.06156890001148,235.06873620001716,235.06873620001716,235.06873620001716,236.0855004999903,Foils\scenes1.jpg,none,n,1.0004612999910023,None,,,,,,,,00037,001,2026-01-23_16h33.26.226,MST_test,2024.2.0,59.99933999874208,2026-01-23 16h33.33.794410 +0530,
35,0,36,o,1.4267107999767177,None,36,0,35,236.101312600018,,,,,,,,,,,,,,,,,,,,,,,,,,,,,,,,,,,,,,,,,,,,,,,,,,236.08561750000808,236.101312600018,236.60173719999148,236.58483860001434,236.58880090000457,236.60173719999148,236.60173719999148,236.60173719999148,238.035736299993,Objects\052a.jpg,post,o,1.4267107999767177,None,,,,,,,,00037,001,2026-01-23_16h33.26.226,MST_test,2024.2.0,59.99933999874208,2026-01-23 16h33.33.794410 +0530,
36,0,37,n,1.1811347999901045,None,37,0,36,238.05145389999961,,,,,,,,,,,,,,,,,,,,,,,,,,,,,,,,,,,,,,,,,,,,,,,,,,238.03585929999826,238.05145389999961,238.5518495000142,238.5351098999963,238.54666300001554,238.5518495000142,238.5518495000142,238.5518495000142,239.73567829999956,Scenes\097b.jpg,pre,n,1.1811347999901045,None,,,,,,,,00037,001,2026-01-23_16h33.26.226,MST_test,2024.2.0,59.99933999874208,2026-01-23 16h33.33.794410 +0530,
37,0,38,s,1.3053629000205547,None,38,0,37,239.75114110001596,,,,,,,,,,,,,,,,,,,,,,,,,,,,,,,,,,,,,,,,,,,,,,,,,,239.73579740000423,239.75114110001596,240.2515582999913,240.2347248000151,240.24584600000526,240.2515582999913,240.2515582999913,240.2515582999913,241.56967749999603,Objects\136b.jpg,pre,s,1.3053629000205547,None,,,,,,,,00037,001,2026-01-23_16h33.26.226,MST_test,2024.2.0,59.99933999874208,2026-01-23 16h33.33.794410 +0530,
38,0,39,s,5.5916800999839325,None,39,0,38,241.58461449999595,,,,,,,,,,,,,,,,,,,,,,,,,,,,,,,,,,,,,,,,,,,,,,,,,,241.5697891000018,241.58461449999595,242.084640999994,242.0685916999937,242.07960610001464,242.084640999994,242.084640999994,242.084640999994,247.6854907000088,Objects\025b.jpg,pre,s,5.5916800999839325,None,,,,,,,,00037,001,2026-01-23_16h33.26.226,MST_test,2024.2.0,59.99933999874208,2026-01-23 16h33.33.794410 +0530,
39,0,40,s,3.766140499996254,None,40,0,39,247.7013305000146,,,,,,,,,,,,,,,,,,,,,,,,,,,,,,,,,,,,,,,,,,,,,,,,,,247.6855940000096,247.7013305000146,,248.18565749999834,248.2030197000131,248.20653650001623,248.20653650001623,248.20653650001623,251.98547529999632,Scenes\167b.jpg,post,s,3.766140499996254,None,,,,,,,,00037,001,2026-01-23_16h33.26.226,MST_test,2024.2.0,59.99933999874208,2026-01-23 16h33.33.794410 +0530,
40,0,41,n,1.3754006999952253,None,41,0,40,252.00100889999885,,,,,,,,,,,,,,,,,,,,,,,,,,,,,,,,,,,,,,,,,,,,,,,,,,251.98559190001106,252.00100889999885,252.5017058000085,252.4856906000059,252.49643279999145,252.5017058000085,252.5017058000085,252.5017058000085,253.8859366000106,Foils\017a.jpg,none,n,1.3754006999952253,None,,,,,,,,00037,001,2026-01-23_16h33.26.226,MST_test,2024.2.0,59.99933999874208,2026-01-23 16h33.33.794410 +0530,
41,0,42,n,1.5584380000072997,None,42,0,41,253.90141369999037,,,,,,,,,,,,,,,,,,,,,,,,,,,,,,,,,,,,,,,,,,,,,,,,,,253.88606200000504,253.90141369999037,254.4146272999933,254.38538720001816,254.41176849999465,254.4146272999933,254.4146272999933,254.4146272999933,255.98570399999153,Foils\scenes23.jpg,none,n,1.5584380000072997,None,,,,,,,,00037,001,2026-01-23_16h33.26.226,MST_test,2024.2.0,59.99933999874208,2026-01-23 16h33.33.794410 +0530,
42,0,43,o,1.750919399986742,None,43,0,42,256.00114290000056,,,,,,,,,,,,,,,,,,,,,,,,,,,,,,,,,,,,,,,,,,,,,,,,,,255.98581060001743,256.00114290000056,256.5024592000118,256.48498810001183,256.49406570001156,256.5024592000118,256.5024592000118,256.5024592000118,258.26924910000525,Scenes\187a.jpg,pre,o,1.750919399986742,None,,,,,,,,00037,001,2026-01-23_16h33.26.226,MST_test,2024.2.0,59.99933999874208,2026-01-23 16h33.33.794410 +0530,
43,0,44,s,4.2752126999839675,None,44,0,43,258.28460240000277,,,,,,,,,,,,,,,,,,,,,,,,,,,,,,,,,,,,,,,,,,,,,,,,,,258.26937039999757,258.28460240000277,258.79331890001777,258.7689651999972,258.7901204999944,258.79331890001777,258.79331890001777,258.79331890001777,263.0852361000143,Scenes\047b.jpg,mid,s,4.2752126999839675,None,,,,,,,,00037,001,2026-01-23_16h33.26.226,MST_test,2024.2.0,59.99933999874208,2026-01-23 16h33.33.794410 +0530,
44,0,45,s,2.6029195000010077,None,45,0,44,263.10137380001834,,,,,,,,,,,,,,,,,,,,,,,,,,,,,,,,,,,,,,,,,,,,,,,,,,263.0853491000016,263.10137380001834,263.60166770001524,263.5848522000015,263.58807030000025,263.60166770001524,263.60166770001524,263.60166770001524,266.2188836999994,Objects\175a.jpg,mid,s,2.6029195000010077,None,,,,,,,,00037,001,2026-01-23_16h33.26.226,MST_test,2024.2.0,59.99933999874208,2026-01-23 16h33.33.794410 +0530,
45,0,46,n,4.861347199999727,None,46,0,45,266.23454609999317,,,,,,,,,,,,,,,,,,,,,,,,,,,,,,,,,,,,,,,,,,,,,,,,,,266.2190043000155,266.23454609999317,266.73526849999325,266.7186680000159,266.73266780000995,266.73526849999325,266.73526849999325,266.73526849999325,271.6023966000066,Scenes\188b.jpg,mid,n,4.861347199999727,None,,,,,,,,00037,001,2026-01-23_16h33.26.226,MST_test,2024.2.0,59.99933999874208,2026-01-23 16h33.33.794410 +0530,
46,0,47,o,1.4144011000171304,None,47,0,46,271.6182270999998,,,,,,,,,,,,,,,,,,,,,,,,,,,,,,,,,,,,,,,,,,,,,,,,,,271.6025060999964,271.6182270999998,272.11862799999653,272.1015452000138,272.10511360000237,272.11862799999653,272.11862799999653,272.11862799999653,273.53556129999924,Objects\152a.jpg,post,o,1.4144011000171304,None,,,,,,,,00037,001,2026-01-23_16h33.26.226,MST_test,2024.2.0,59.99933999874208,2026-01-23 16h33.33.794410 +0530,
47,0,48,n,4.368218399991747,None,48,0,47,273.55111510001007,,,,,,,,,,,,,,,,,,,,,,,,,,,,,,,,,,,,,,,,,,,,,,,,,,273.53566530000535,273.55111510001007,274.0520075999957,274.0349079000007,274.0490310000023,274.0520075999957,274.0520075999957,274.0520075999957,278.4357863999903,Scenes\118b.jpg,pre,n,4.368218399991747,None,,,,,,,,00037,001,2026-01-23_16h33.26.226,MST_test,2024.2.0,59.99933999874208,2026-01-23 16h33.33.794410 +0530,
48,0,49,n,1.0482802000187803,None,49,0,48,278.45120589999715,,,,,,,,,,,,,,,,,,,,,,,,,,,,,,,,,,,,,,,,,,,,,,,,,,278.4358901999949,278.45120589999715,278.9559480000171,278.9350276000041,278.9530526000017,278.9559480000171,278.9559480000171,278.9559480000171,280.01863520001643,Foils\scenes22.jpg,none,n,1.0482802000187803,None,,,,,,,,00037,001,2026-01-23_16h33.26.226,MST_test,2024.2.0,59.99933999874208,2026-01-23 16h33.33.794410 +0530,
49,0,50,s,1.6762382999877445,None,50,0,49,280.0349095000129,,,,,,,,,,,,,,,,,,,,,,,,,,,,,,,,,,,,,,,,,,,,,,,,,,280.0187634000031,280.0349095000129,280.5360797000176,280.5185651000065,280.53297610001755,280.5360797000176,280.5360797000176,280.5360797000176,282.2184618000174,Scenes\091b.jpg,mid,s,1.6762382999877445,None,,,,,,,,00037,001,2026-01-23_16h33.26.226,MST_test,2024.2.0,59.99933999874208,2026-01-23 16h33.33.794410 +0530,
50,0,51,o,2.4529266000026837,None,51,0,50,282.2344867000065,,,,,,,,,,,,,,,,,,,,,,,,,,,,,,,,,,,,,,,,,,,,,,,,,,282.21857550001005,282.2344867000065,282.73563440001453,282.71836260001874,282.7276980000024,282.73563440001453,282.73563440001453,282.73563440001453,285.2021354000026,Scenes\078a.jpg,pre,o,2.4529266000026837,None,,,,,,,,00037,001,2026-01-23_16h33.26.226,MST_test,2024.2.0,59.99933999874208,2026-01-23 16h33.33.794410 +0530,
51,0,52,n,1.9417467000021134,None,52,0,51,285.2177048000158,,,,,,,,,,,,,,,,,,,,,,,,,,,,,,,,,,,,,,,,,,,,,,,,,,285.2022482000175,285.2177048000158,285.726931000012,285.70160930001293,285.7244536000071,285.726931000012,285.726931000012,285.726931000012,287.68562850001035,Scenes\170b.jpg,mid,n,1.9417467000021134,None,,,,,,,,00037,001,2026-01-23_16h33.26.226,MST_test,2024.2.0,59.99933999874208,2026-01-23 16h33.33.794410 +0530,
52,0,53,s,3.4748888000031,None,53,0,52,287.70174039999256,,,,,,,,,,,,,,,,,,,,,,,,,,,,,,,,,,,,,,,,,,,,,,,,,,287.6857394000108,287.70174039999256,288.2017792999977,288.1854328000045,288.1972648999945,288.2017792999977,288.2017792999977,288.2017792999977,291.6854239999957,Objects\070b.jpg,post,s,3.4748888000031,None,,,,,,,,00037,001,2026-01-23_16h33.26.226,MST_test,2024.2.0,59.99933999874208,2026-01-23 16h33.33.794410 +0530,
53,0,54,n,1.2681664999981876,None,54,0,53,291.701315000013,,,,,,,,,,,,,,,,,,,,,,,,,,,,,,,,,,,,,,,,,,,,,,,,,,291.6855396000028,291.701315000013,292.2017171999905,292.18535109999357,292.1965584999998,292.2017171999905,292.2017171999905,292.2017171999905,293.48521320000873,Objects\067b.jpg,pre,n,1.2681664999981876,None,,,,,,,,00037,001,2026-01-23_16h33.26.226,MST_test,2024.2.0,59.99933999874208,2026-01-23 16h33.33.794410 +0530,
54,0,55,n,1.2294341000088025,None,55,0,54,293.50167120000697,,,,,,,,,,,,,,,,,,,,,,,,,,,,,,,,,,,,,,,,,,,,,,,,,,293.48532850001357,293.50167120000697,294.00720049999654,293.98541210000985,294.00435060000746,294.00720049999654,294.00720049999654,294.00720049999654,295.25334369999473,Scenes\183b.jpg,post,n,1.2294341000088025,None,,,,,,,,00037,001,2026-01-23_16h33.26.226,MST_test,2024.2.0,59.99933999874208,2026-01-23 16h33.33.794410 +0530,
55,0,56,o,1.1080309999815654,None,56,0,55,295.2683842999977,,,,,,,,,,,,,,,,,,,,,,,,,,,,,,,,,,,,,,,,,,,,,,,,,,295.2534580999927,295.2683842999977,295.76814200001536,295.75136650001514,295.7579690999992,295.76814200001536,295.76814200001536,295.76814200001536,296.8859264999919,Scenes\098a.jpg,pre,o,1.1080309999815654,None,,,,,,,,00037,001,2026-01-23_16h33.26.226,MST_test,2024.2.0,59.99933999874208,2026-01-23 16h33.33.794410 +0530,
56,0,57,o,1.0993403999891598,None,57,0,56,296.9012644000177,,,,,,,,,,,,,,,,,,,,,,,,,,,,,,,,,,,,,,,,,,,,,,,,,,296.88603069999954,296.9012644000177,297.40195810000296,297.3849715999968,297.38895660001435,297.40195810000296,297.40195810000296,297.40195810000296,298.50273770000786,Objects\079a.jpg,mid,o,1.0993403999891598,None,,,,,,,,00037,001,2026-01-23_16h33.26.226,MST_test,2024.2.0,59.99933999874208,2026-01-23 16h33.33.794410 +0530,
57,0,58,s,1.3303083000064362,None,58,0,57,298.51780100000906,,,,,,,,,,,,,,,,,,,,,,,,,,,,,,,,,,,,,,,,,,,,,,,,,,298.5028480000037,298.51780100000906,299.0182160999975,299.00208490001387,299.0120499000186,299.0182160999975,299.0182160999975,299.0182160999975,300.35237659999984,Objects\028b.jpg,pre,s,1.3303083000064362,None,,,,,,,,00037,001,2026-01-23_16h33.26.226,MST_test,2024.2.0,59.99933999874208,2026-01-23 16h33.33.794410 +0530,
58,0,59,s,1.17697619998944,None,59,0,58,300.3682966000051,,,,,,,,,,,,,,,,,,,,,,,,,,,,,,,,,,,,,,,,,,,,,,,,,,300.3524973000167,300.3682966000051,300.86802870000247,300.85158380001667,300.8621204000083,300.86802870000247,300.86802870000247,300.86802870000247,302.05190710001625,Objects\153b.jpg,pre,s,1.17697619998944,None,,,,,,,,00037,001,2026-01-23_16h33.26.226,MST_test,2024.2.0,59.99933999874208,2026-01-23 16h33.33.794410 +0530,
59,0,60,o,3.0920347000064794,None,60,0,59,302.068076399999,,,,,,,,,,,,,,,,,,,,,,,,,,,,,,,,,,,,,,,,,,,,,,,,,,302.05201290000696,302.068076399999,302.56844259999343,302.55144889999065,302.5616729000176,302.56844259999343,302.56844259999343,302.56844259999343,305.668928900006,Scenes\143a.jpg,mid,o,3.0920347000064794,None,,,,,,,,00037,001,2026-01-23_16h33.26.226,MST_test,2024.2.0,59.99933999874208,2026-01-23 16h33.33.794410 +0530,
60,0,61,o,1.8357019999821205,None,61,0,60,305.6846346000093,,,,,,,,,,,,,,,,,,,,,,,,,,,,,,,,,,,,,,,,,,,,,,,,,,305.66903300001286,305.6846346000093,306.1851176999917,306.16816729999846,306.17931949999183,306.1851176999917,306.1851176999917,306.1851176999917,308.0356228000019,Scenes\094a.jpg,post,o,1.8357019999821205,None,,,,,,,,00037,001,2026-01-23_16h33.26.226,MST_test,2024.2.0,59.99933999874208,2026-01-23 16h33.33.794410 +0530,
61,0,62,n,1.1250302999978885,None,62,0,61,308.0514916999964,,,,,,,,,,,,,,,,,,,,,,,,,,,,,,,,,,,,,,,,,,,,,,,,,,308.035738400009,308.0514916999964,308.55156870000064,308.53483300001244,308.5455152000068,308.55156870000064,308.55156870000064,308.55156870000064,309.6856592000113,Foils\049a.jpg,none,n,1.1250302999978885,None,,,,,,,,00037,001,2026-01-23_16h33.26.226,MST_test,2024.2.0,59.99933999874208,2026-01-23 16h33.33.794410 +0530,
62,0,63,o,2.02728060001391,None,63,0,62,309.7014172000054,,,,,,,,,,,,,,,,,,,,,,,,,,,,,,,,,,,,,,,,,,,,,,,,,,309.6857689000026,309.7014172000054,310.20160639999085,310.18530869999086,310.1913884000096,310.20160639999085,310.20160639999085,310.20160639999085,312.2350740999973,Scenes\117a.jpg,pre,o,2.02728060001391,None,,,,,,,,00037,001,2026-01-23_16h33.26.226,MST_test,2024.2.0,59.99933999874208,2026-01-23 16h33.33.794410 +0530,
63,0,64,o,0.949097000004258,None,64,0,63,312.2515990000102,,,,,,,,,,,,,,,,,,,,,,,,,,,,,,,,,,,,,,,,,,,,,,,,,,312.2351799000171,312.2515990000102,,312.7352666000079,312.73876470001414,312.7517596000107,312.7517596000107,312.7517596000107,313.7022990999976,Objects\123a.jpg,pre,o,0.949097000004258,None,,,,,,,,00037,001,2026-01-23_16h33.26.226,MST_test,2024.2.0,59.99933999874208,2026-01-23 16h33.33.794410 +0530,
64,0,65,s,13.786390799999936,None,65,0,64,313.71745960001135,,,,,,,,,,,,,,,,,,,,,,,,,,,,,,,,,,,,,,,,,,,,,,,,,,313.7024132999941,313.71745960001135,314.2178978000011,314.2015263999929,314.21225710000726,314.2178978000011,314.2178978000011,314.2178978000011,328.0190048000077,Foils\065a.jpg,none,s,13.786390799999936,None,,,,,,,,00037,001,2026-01-23_16h33.26.226,MST_test,2024.2.0,59.99933999874208,2026-01-23 16h33.33.794410 +0530,
65,0,66,n,1.5172230000025593,None,66,0,65,328.03450470001553,,,,,,,,,,,,,,,,,,,,,,,,,,,,,,,,,,,,,,,,,,,,,,,,,,328.0191264000023,328.03450470001553,328.53530930000124,328.5189076999959,328.5257559000165,328.53530930000124,328.53530930000124,328.53530930000124,330.0689318999939,Scenes\132a.jpg,post,n,1.5172230000025593,None,,,,,,,,00037,001,2026-01-23_16h33.26.226,MST_test,2024.2.0,59.99933999874208,2026-01-23 16h33.33.794410 +0530,
66,0,67,o,1.3074621999985538,None,67,0,66,330.08489960001316,,,,,,,,,,,,,,,,,,,,,,,,,,,,,,,,,,,,,,,,,,,,,,,,,,330.06904430000577,330.08489960001316,330.5851543000026,330.5685308999964,330.57205519999843,330.5851543000026,330.5851543000026,330.5851543000026,331.90229759999784,Objects\082a.jpg,mid,o,1.3074621999985538,None,,,,,,,,00037,001,2026-01-23_16h33.26.226,MST_test,2024.2.0,59.99933999874208,2026-01-23 16h33.33.794410 +0530,
67,0,68,n,1.3140333000046667,None,68,0,67,331.91772460000357,,,,,,,,,,,,,,,,,,,,,,,,,,,,,,,,,,,,,,,,,,,,,,,,,,331.90241120001883,331.91772460000357,332.4183886999963,332.4022139000008,332.4140327000059,332.4183886999963,332.4183886999963,332.4183886999963,333.7355833000038,Scenes\060a.jpg,pre,n,1.3140333000046667,None,,,,,,,,00037,001,2026-01-23_16h33.26.226,MST_test,2024.2.0,59.99933999874208,2026-01-23 16h33.33.794410 +0530,
68,0,69,o,4.712772899976699,None,69,0,68,333.7512556000147,,,,,,,,,,,,,,,,,,,,,,,,,,,,,,,,,,,,,,,,,,,,,,,,,,333.7356931999966,333.7512556000147,334.25181529999827,334.2350922000187,334.2441618000157,334.25181529999827,334.25181529999827,334.25181529999827,338.9685875000141,Scenes\155a.jpg,post,o,4.712772899976699,None,,,,,,,,00037,001,2026-01-23_16h33.26.226,MST_test,2024.2.0,59.99933999874208,2026-01-23 16h33.33.794410 +0530,
69,0,70,o,0.880157000006875,None,70,0,69,338.9845527000143,,,,,,,,,,,,,,,,,,,,,,,,,,,,,,,,,,,,,,,,,,,,,,,,,,338.9687047000043,338.9845527000143,339.484655200009,339.4680270999961,339.4710961999954,339.484655200009,339.484655200009,339.484655200009,340.3692594000022,Objects\115a.jpg,mid,o,0.880157000006875,None,,,,,,,,00037,001,2026-01-23_16h33.26.226,MST_test,2024.2.0,59.99933999874208,2026-01-23 16h33.33.794410 +0530,
70,0,71,o,1.2000910000060685,None,71,0,70,340.3845041000168,,,,,,,,,,,,,,,,,,,,,,,,,,,,,,,,,,,,,,,,,,,,,,,,,,340.36937590001617,340.3845041000168,340.88502859999426,340.8690503000107,340.8785485000117,340.88502859999426,340.88502859999426,340.88502859999426,342.08599170000525,Scenes\119a.jpg,mid,o,1.2000910000060685,None,,,,,,,,00037,001,2026-01-23_16h33.26.226,MST_test,2024.2.0,59.99933999874208,2026-01-23 16h33.33.794410 +0530,
71,0,72,o,1.202996299980441,None,72,0,71,342.101312600018,,,,,,,,,,,,,,,,,,,,,,,,,,,,,,,,,,,,,,,,,,,,,,,,,,342.0861072000116,342.101312600018,342.6019235000131,342.58508640000946,342.59210199999507,342.6019235000131,342.6019235000131,342.6019235000131,343.8186052000092,Scenes\069a.jpg,mid,o,1.202996299980441,None,,,,,,,,00037,001,2026-01-23_16h33.26.226,MST_test,2024.2.0,59.99933999874208,2026-01-23 16h33.33.794410 +0530,
72,0,73,n,1.0376699000189546,None,73,0,72,343.8348527000053,,,,,,,,,,,,,,,,,,,,,,,,,,,,,,,,,,,,,,,,,,,,,,,,,,343.8187249000184,343.8348527000053,344.335242000001,344.3183752000041,344.33098150001024,344.335242000001,344.335242000001,344.335242000001,345.3854685999977,Foils\082a.jpg,none,n,1.0376699000189546,None,,,,,,,,00037,001,2026-01-23_16h33.26.226,MST_test,2024.2.0,59.99933999874208,2026-01-23 16h33.33.794410 +0530,
73,0,74,o,0.9273400999954902,None,74,0,73,345.4013854000077,,,,,,,,,,,,,,,,,,,,,,,,,,,,,,,,,,,,,,,,,,,,,,,,,,345.3855845000071,345.4013854000077,345.90133409999544,345.8849174999923,345.887722799991,345.90133409999544,345.90133409999544,345.90133409999544,346.8355930999969,Objects\098a.jpg,pre,o,0.9273400999954902,None,,,,,,,,00037,001,2026-01-23_16h33.26.226,MST_test,2024.2.0,59.99933999874208,2026-01-23 16h33.33.794410 +0530,
74,0,75,s,10.391171600000234,None,75,0,74,346.85128530001384,,,,,,,,,,,,,,,,,,,,,,,,,,,,,,,,,,,,,,,,,,,,,,,,,,346.83574310000404,346.85128530001384,347.357516100019,347.33493430001545,347.35475349999615,347.357516100019,347.357516100019,347.357516100019,357.7521143000049,Scenes\165b.jpg,post,s,10.391171600000234,None,,,,,,,,00037,001,2026-01-23_16h33.26.226,MST_test,2024.2.0,59.99933999874208,2026-01-23 16h33.33.794410 +0530,
75,0,76,n,1.0142217999964487,None,76,0,75,357.76777510001557,,,,,,,,,,,,,,,,,,,,,,,,,,,,,,,,,,,,,,,,,,,,,,,,,,357.7522351999942,357.76777510001557,358.2787649999955,358.25174470001366,358.27596620001714,358.2787649999955,358.2787649999955,358.2787649999955,359.302111099998,Foils\scenes28.jpg,none,n,1.0142217999964487,None,,,,,,,,00037,001,2026-01-23_16h33.26.226,MST_test,2024.2.0,59.99933999874208,2026-01-23 16h33.33.794410 +0530,
76,0,77,o,2.1933816999953706,None,77,0,76,359.3176603000029,,,,,,,,,,,,,,,,,,,,,,,,,,,,,,,,,,,,,,,,,,,,,,,,,,359.3022113000043,359.3176603000029,359.81899990001693,359.8013857000042,359.8136591000075,359.81899990001693,359.81899990001693,359.81899990001693,362.0190193000017,Objects\036b.jpg,post,o,2.1933816999953706,None,,,,,,,,00037,001,2026-01-23_16h33.26.226,MST_test,2024.2.0,59.99933999874208,2026-01-23 16h33.33.794410 +0530,
77,0,78,o,0.9333190999750514,None,78,0,77,362.0343855000101,,,,,,,,,,,,,,,,,,,,,,,,,,,,,,,,,,,,,,,,,,,,,,,,,,362.01913040000363,362.0343855000101,362.5352002000145,362.518570300017,362.52891429999727,362.5352002000145,362.5352002000145,362.5352002000145,363.46920880000107,Scenes\146a.jpg,pre,o,0.9333190999750514,None,,,,,,,,00037,001,2026-01-23_16h33.26.226,MST_test,2024.2.0,59.99933999874208,2026-01-23 16h33.33.794410 +0530,
78,0,79,o,0.627831799996784,None,79,0,78,363.48465170001145,,,,,,,,,,,,,,,,,,,,,,,,,,,,,,,,,,,,,,,,,,,,,,,,,,363.46933039999567,363.48465170001145,363.9851835000154,363.9682268000033,363.9717382999952,363.9851835000154,363.9851835000154,363.9851835000154,364.6185828000016,Objects\069a.jpg,pre,o,0.627831799996784,None,,,,,,,,00037,001,2026-01-23_16h33.26.226,MST_test,2024.2.0,59.99933999874208,2026-01-23 16h33.33.794410 +0530,
79,0,80,o,0.8942753000010271,None,80,0,79,364.63463690000935,,,,,,,,,,,,,,,,,,,,,,,,,,,,,,,,,,,,,,,,,,,,,,,,,,364.61869190001744,364.63463690000935,365.1345397999976,365.1188725999964,365.1218451000168,365.1345397999976,365.1345397999976,365.1345397999976,366.03518770000665,Objects\027a.jpg,pre,o,0.8942753000010271,None,,,,,,,,00037,001,2026-01-23_16h33.26.226,MST_test,2024.2.0,59.99933999874208,2026-01-23 16h33.33.794410 +0530,
80,0,81,n,1.0692729000002146,None,81,0,80,366.05134669999825,,,,,,,,,,,,,,,,,,,,,,,,,,,,,,,,,,,,,,,,,,,,,,,,,,366.0352947000065,366.05134669999825,366.55159740001545,366.5351249999949,366.5453252000152,366.55159740001545,366.55159740001545,366.55159740001545,367.63564049999695,Foils\scenes7.jpg,none,n,1.0692729000002146,None,,,,,,,,00037,001,2026-01-23_16h33.26.226,MST_test,2024.2.0,59.99933999874208,2026-01-23 16h33.33.794410 +0530,
81,0,82,n,0.8209767999942414,None,82,0,81,367.65101560001494,,,,,,,,,,,,,,,,,,,,,,,,,,,,,,,,,,,,,,,,,,,,,,,,,,367.63574840000365,367.65101560001494,368.15166339999996,368.134979399998,368.14497220001067,368.15166339999996,368.15166339999996,368.15166339999996,368.98575439999695,Foils\scenes4.jpg,none,n,0.8209767999942414,None,,,,,,,,00037,001,2026-01-23_16h33.26.226,MST_test,2024.2.0,59.99933999874208,2026-01-23 16h33.33.794410 +0530,
82,0,83,s,3.073386499978369,None,83,0,82,369.00123240001267,,,,,,,,,,,,,,,,,,,,,,,,,,,,,,,,,,,,,,,,,,,,,,,,,,368.9858754000161,369.00123240001267,369.50711609999416,369.48478630001773,369.50493900000583,369.50711609999416,369.50711609999416,369.50711609999416,372.58545020001475,Scenes\035b.jpg,post,s,3.073386499978369,None,,,,,,,,00037,001,2026-01-23_16h33.26.226,MST_test,2024.2.0,59.99933999874208,2026-01-23 16h33.33.794410 +0530,
83,0,84,s,4.391777599987108,None,84,0,83,372.6013563000015,,,,,,,,,,,,,,,,,,,,,,,,,,,,,,,,,,,,,,,,,,,,,,,,,,372.5855606000114,372.6013563000015,373.1015963999962,373.084674600017,373.0956407999911,373.1015963999962,373.1015963999962,373.1015963999962,377.502312800003,Objects\169b.jpg,mid,s,4.391777599987108,None,,,,,,,,00037,001,2026-01-23_16h33.26.226,MST_test,2024.2.0,59.99933999874208,2026-01-23 16h33.33.794410 +0530,
84,0,85,o,1.3305084999883547,None,85,0,84,377.5181511999981,,,,,,,,,,,,,,,,,,,,,,,,,,,,,,,,,,,,,,,,,,,,,,,,,,377.5024299999932,377.5181511999981,378.01778500000364,378.00142829999095,378.004274100007,378.01778500000364,378.01778500000364,378.01778500000364,379.3520705999981,Objects\139a.jpg,post,o,1.3305084999883547,None,,,,,,,,00037,001,2026-01-23_16h33.26.226,MST_test,2024.2.0,59.99933999874208,2026-01-23 16h33.33.794410 +0530,
85,0,86,n,0.9035588999977335,None,86,0,85,379.3681574999937,,,,,,,,,,,,,,,,,,,,,,,,,,,,,,,,,,,,,,,,,,,,,,,,,,379.3521793000109,379.3681574999937,379.86852710001403,379.85154350000084,379.85775809999905,379.86852710001403,379.86852710001403,379.86852710001403,380.78515559999505,Scenes\024a.jpg,pre,n,0.9035588999977335,None,,,,,,,,00037,001,2026-01-23_16h33.26.226,MST_test,2024.2.0,59.99933999874208,2026-01-23 16h33.33.794410 +0530,
86,0,87,o,1.2147224999789614,None,87,0,86,380.80123830001685,,,,,,,,,,,,,,,,,,,,,,,,,,,,,,,,,,,,,,,,,,,,,,,,,,380.78527280001435,380.80123830001685,,381.28584769999725,381.29257039999356,381.30203650001204,381.30203650001204,381.30203650001204,382.5186371000018,Scenes\075a.jpg,post,o,1.2147224999789614,None,,,,,,,,00037,001,2026-01-23_16h33.26.226,MST_test,2024.2.0,59.99933999874208,2026-01-23 16h33.33.794410 +0530,
87,0,88,n,1.0573305000143591,None,88,0,87,382.53436620000866,,,,,,,,,,,,,,,,,,,,,,,,,,,,,,,,,,,,,,,,,,,,,,,,,,382.51874180001323,382.53436620000866,383.03487540001515,383.0179800000042,383.0264695000078,383.03487540001515,383.03487540001515,383.03487540001515,384.102052000002,Scenes\157a.jpg,mid,n,1.0573305000143591,None,,,,,,,,00037,001,2026-01-23_16h33.26.226,MST_test,2024.2.0,59.99933999874208,2026-01-23 16h33.33.794410 +0530,
88,0,89,o,1.0740822000079788,None,89,0,88,384.1183749999909,,,,,,,,,,,,,,,,,,,,,,,,,,,,,,,,,,,,,,,,,,,,,,,,,,384.10216989999753,384.1183749999909,384.61886260000756,384.6016862000106,384.6079654000059,384.61886260000756,384.61886260000756,384.61886260000756,385.7017863999936,Scenes\018a.jpg,pre,o,1.0740822000079788,None,,,,,,,,00037,001,2026-01-23_16h33.26.226,MST_test,2024.2.0,59.99933999874208,2026-01-23 16h33.33.794410 +0530,
89,0,90,s,2.609778699988965,None,90,0,89,385.71771240001544,,,,,,,,,,,,,,,,,,,,,,,,,,,,,,,,,,,,,,,,,,,,,,,,,,385.7018933999934,385.71771240001544,386.21881839999696,386.20153210000717,386.21601900001406,386.21881839999696,386.21881839999696,386.21881839999696,388.83557440000004,Objects\119b.jpg,post,s,2.609778699988965,None,,,,,,,,00037,001,2026-01-23_16h33.26.226,MST_test,2024.2.0,59.99933999874208,2026-01-23 16h33.33.794410 +0530,
90,0,91,n,5.525302099995315,None,91,0,90,388.8511547000089,,,,,,,,,,,,,,,,,,,,,,,,,,,,,,,,,,,,,,,,,,,,,,,,,,388.8356902000087,388.8511547000089,389.35130440001376,389.33488229999784,389.3451977999939,389.35130440001376,389.35130440001376,389.35130440001376,394.88583640000434,Foils\018a.jpg,none,n,5.525302099995315,None,,,,,,,,00037,001,2026-01-23_16h33.26.226,MST_test,2024.2.0,59.99933999874208,2026-01-23 16h33.33.794410 +0530,
91,0,92,n,2.595506200013915,None,92,0,91,394.90095820001443,,,,,,,,,,,,,,,,,,,,,,,,,,,,,,,,,,,,,,,,,,,,,,,,,,394.8859447000141,394.90095820001443,395.40147509999224,395.3855799000012,395.39632850000635,395.40147509999224,395.40147509999224,395.40147509999224,398.00241250000545,Foils\034a.jpg,none,n,2.595506200013915,None,,,,,,,,00037,001,2026-01-23_16h33.26.226,MST_test,2024.2.0,59.99933999874208,2026-01-23 16h33.33.794410 +0530,
92,0,93,o,1.2590380000183359,None,93,0,92,398.0175484000065,,,,,,,,,,,,,,,,,,,,,,,,,,,,,,,,,,,,,,,,,,,,,,,,,,398.00252740000724,398.0175484000065,398.5214238000044,398.501403000002,398.5191363999911,398.5214238000044,398.5214238000044,398.5214238000044,399.78525000001537,Scenes\052b.jpg,post,o,1.2590380000183359,None,,,,,,,,00037,001,2026-01-23_16h33.26.226,MST_test,2024.2.0,59.99933999874208,2026-01-23 16h33.33.794410 +0530,
93,0,94,o,0.9912376999855042,None,94,0,93,399.80111719999695,,,,,,,,,,,,,,,,,,,,,,,,,,,,,,,,,,,,,,,,,,,,,,,,,,399.7853602000105,399.80111719999695,400.30157539999345,400.2845104000007,400.28818550001597,400.30157539999345,400.30157539999345,400.30157539999345,401.3022067999991,Objects\014a.jpg,post,o,0.9912376999855042,None,,,,,,,,00037,001,2026-01-23_16h33.26.226,MST_test,2024.2.0,59.99933999874208,2026-01-23 16h33.33.794410 +0530,
94,0,95,n,1.066758499975549,None,95,0,94,401.3183124999923,,,,,,,,,,,,,,,,,,,,,,,,,,,,,,,,,,,,,,,,,,,,,,,,,,401.3023167999927,401.3183124999923,401.81812460001674,401.8015572000004,401.81143679999514,401.81812460001674,401.81812460001674,401.81812460001674,402.9019230999984,Foils\scenes6.jpg,none,n,1.066758499975549,None,,,,,,,,00037,001,2026-01-23_16h33.26.226,MST_test,2024.2.0,59.99933999874208,2026-01-23 16h33.33.794410 +0530,
95,0,96,o,1.1419830000086222,None,96,0,95,402.9177350999962,,,,,,,,,,,,,,,,,,,,,,,,,,,,,,,,,,,,,,,,,,,,,,,,,,402.9020293999929,402.9177350999962,403.4229505000112,403.40142700000433,403.4198464000074,403.4229505000112,403.4229505000112,403.4229505000112,404.569263900019,Scenes\038b.jpg,mid,o,1.1419830000086222,None,,,,,,,,00037,001,2026-01-23_16h33.26.226,MST_test,2024.2.0,59.99933999874208,2026-01-23 16h33.33.794410 +0530,
96,0,97,n,3.632680499984417,None,97,0,96,404.5848307000124,,,,,,,,,,,,,,,,,,,,,,,,,,,,,,,,,,,,,,,,,,,,,,,,,,404.569390699995,404.5848307000124,405.12384290000773,405.06789070001105,405.1207379999978,405.12384290000773,405.12384290000773,405.12384290000773,408.7690125000081,Foils\scenes15.jpg,none,n,3.632680499984417,None,,,,,,,,00037,001,2026-01-23_16h33.26.226,MST_test,2024.2.0,59.99933999874208,2026-01-23 16h33.33.794410 +0530,
97,0,98,s,2.0866382000094745,None,98,0,97,408.7843314000056,,,,,,,,,,,,,,,,,,,,,,,,,,,,,,,,,,,,,,,,,,,,,,,,,,408.7691165000142,408.7843314000056,409.2858652000141,409.2682399000041,409.27920180000365,409.2858652000141,409.2858652000141,409.2858652000141,411.38570929999696,Objects\097b.jpg,mid,s,2.0866382000094745,None,,,,,,,,00037,001,2026-01-23_16h33.26.226,MST_test,2024.2.0,59.99933999874208,2026-01-23 16h33.33.794410 +0530,
98,0,99,s,0.9427281999960542,None,99,0,98,411.4016449000046,,,,,,,,,,,,,,,,,,,,,,,,,,,,,,,,,,,,,,,,,,,,,,,,,,411.38582759999554,411.4016449000046,411.9015694000118,411.88482969999313,411.8953136999917,411.9015694000118,411.9015694000118,411.9015694000118,412.85198199999286,Scenes\053b.jpg,pre,s,0.9427281999960542,None,,,,,,,,00037,001,2026-01-23_16h33.26.226,MST_test,2024.2.0,59.99933999874208,2026-01-23 16h33.33.794410 +0530,
99,0,100,n,1.1808530999987852,None,100,0,99,412.867948900006,,,,,,,,,,,,,,,,,,,,,,,,,,,,,,,,,,,,,,,,,,,,,,,,,,412.8520883000165,412.867948900006,413.3680400000012,413.35195460001705,413.36234920000425,413.3680400000012,413.3680400000012,413.3680400000012,414.55215940001654,Foils\scenes11.jpg,none,n,1.1808530999987852,None,,,,,,,,00037,001,2026-01-23_16h33.26.226,MST_test,2024.2.0,59.99933999874208,2026-01-23 16h33.33.794410 +0530,
100,0,101,n,2.048334600025555,None,101,0,100,414.5681975999905,,,,,,,,,,,,,,,,,,,,,,,,,,,,,,,,,,,,,,,,,,,,,,,,,,414.55227040001773,414.5681975999905,415.0686301999958,415.05157619999954,415.0613302999991,415.0686301999958,415.0686301999958,415.0686301999958,417.11860439999145,Foils\scenes8.jpg,none,n,2.048334600025555,None,,,,,,,,00037,001,2026-01-23_16h33.26.226,MST_test,2024.2.0,59.99933999874208,2026-01-23 16h33.33.794410 +0530,
101,0,102,o,1.2099745000014082,None,102,0,101,417.1351913000108,,,,,,,,,,,,,,,,,,,,,,,,,,,,,,,,,,,,,,,,,,,,,,,,,,417.11871000000974,417.1351913000108,417.63485450000735,417.61827840001206,417.6212533999933,417.63485450000735,417.63485450000735,417.63485450000735,418.8521768999926,Objects\049a.jpg,post,o,1.2099745000014082,None,,,,,,,,00037,001,2026-01-23_16h33.26.226,MST_test,2024.2.0,59.99933999874208,2026-01-23 16h33.33.794410 +0530,
102,0,103,s,4.8623322999919765,None,103,0,102,418.86815349999233,,,,,,,,,,,,,,,,,,,,,,,,,,,,,,,,,,,,,,,,,,,,,,,,,,418.8522878999938,418.86815349999233,419.3745573000051,419.3515921999933,419.3719442000147,419.3745573000051,419.3745573000051,419.3745573000051,424.25204720001784,Scenes\031b.jpg,pre,s,4.8623322999919765,None,,,,,,,,00037,001,2026-01-23_16h33.26.226,MST_test,2024.2.0,59.99933999874208,2026-01-23 16h33.33.794410 +0530,
103,0,104,n,2.228166399989277,None,104,0,103,424.26792440001736,,,,,,,,,,,,,,,,,,,,,,,,,,,,,,,,,,,,,,,,,,,,,,,,,,424.2521664999949,424.26792440001736,424.76830480000353,424.75139650001074,424.7621166000026,424.76830480000353,424.76830480000353,424.76830480000353,427.0018049000064,Foils\scenes30.jpg,none,n,2.228166399989277,None,,,,,,,,00037,001,2026-01-23_16h33.26.226,MST_test,2024.2.0,59.99933999874208,2026-01-23 16h33.33.794410 +0530,
104,0,105,o,0.9096613999863621,None,105,0,104,427.01793580001686,,,,,,,,,,,,,,,,,,,,,,,,,,,,,,,,,,,,,,,,,,,,,,,,,,427.0019147999992,427.01793580001686,427.5187033000111,427.5016237999953,427.50484890001826,427.5187033000111,427.5187033000111,427.5187033000111,428.43546760000754,Objects\192a.jpg,pre,o,0.9096613999863621,None,,,,,,,,00037,001,2026-01-23_16h33.26.226,MST_test,2024.2.0,59.99933999874208,2026-01-23 16h33.33.794410 +0530,
105,0,106,o,0.8691477000247687,None,106,0,105,428.45134200001485,,,,,,,,,,,,,,,,,,,,,,,,,,,,,,,,,,,,,,,,,,,,,,,,,,428.4355665000039,428.45134200001485,428.95123569999123,428.9357488999958,428.94603660001303,428.95123569999123,428.95123569999123,428.95123569999123,429.8362433000002,Objects\121b.jpg,pre,o,0.8691477000247687,None,,,,,,,,00037,001,2026-01-23_16h33.26.226,MST_test,2024.2.0,59.99933999874208,2026-01-23 16h33.33.794410 +0530,
106,0,107,s,3.197059199999785,None,107,0,106,429.85113190000993,,,,,,,,,,,,,,,,,,,,,,,,,,,,,,,,,,,,,,,,,,,,,,,,,,429.8363709000114,429.85113190000993,430.3514093999984,430.3349004999909,430.34510219999356,430.3514093999984,430.3514093999984,430.3514093999984,433.5519722000172,Objects\096b.jpg,mid,s,3.197059199999785,None,,,,,,,,00037,001,2026-01-23_16h33.26.226,MST_test,2024.2.0,59.99933999874208,2026-01-23 16h33.33.794410 +0530,
107,0,108,n,0.8883804999932181,None,108,0,107,433.56768140001805,,,,,,,,,,,,,,,,,,,,,,,,,,,,,,,,,,,,,,,,,,,,,,,,,,433.552076699998,433.56768140001805,434.0681739000138,434.051781999995,434.0616403000022,434.0681739000138,434.0681739000138,434.0681739000138,434.96860399999423,Foils\scenes17.jpg,none,n,0.8883804999932181,None,,,,,,,,00037,001,2026-01-23_16h33.26.226,MST_test,2024.2.0,59.99933999874208,2026-01-23 16h33.33.794410 +0530,
108,0,109,s,4.311263999989023,None,109,0,108,434.9846749000135,,,,,,,,,,,,,,,,,,,,,,,,,,,,,,,,,,,,,,,,,,,,,,,,,,434.9687088000064,434.9846749000135,435.48502089999965,435.46865779999644,435.4806602000026,435.48502089999965,435.48502089999965,435.48502089999965,439.8019838000182,Objects\051b.jpg,post,s,4.311263999989023,None,,,,,,,,00037,001,2026-01-23_16h33.26.226,MST_test,2024.2.0,59.99933999874208,2026-01-23 16h33.33.794410 +0530,
109,0,110,s,3.5792889000149444,None,110,0,109,439.8185909000167,,,,,,,,,,,,,,,,,,,,,,,,,,,,,,,,,,,,,,,,,,,,,,,,,,439.802102000016,439.8185909000167,440.3208462999901,440.3017654000141,440.3181381000031,440.3208462999901,440.3208462999901,440.3208462999901,443.90209190000314,Scenes\022b.jpg,pre,s,3.5792889000149444,None,,,,,,,,00037,001,2026-01-23_16h33.26.226,MST_test,2024.2.0,59.99933999874208,2026-01-23 16h33.33.794410 +0530,
110,0,111,s,1.2582876000087708,None,111,0,110,443.9181724000082,,,,,,,,,,,,,,,,,,,,,,,,,,,,,,,,,,,,,,,,,,,,,,,,,,443.902228299994,443.9181724000082,444.4182923999906,444.40160000001197,444.41255840001395,444.4182923999906,444.4182923999906,444.4182923999906,445.685181000008,Objects\103b.jpg,mid,s,1.2582876000087708,None,,,,,,,,00037,001,2026-01-23_16h33.26.226,MST_test,2024.2.0,59.99933999874208,2026-01-23 16h33.33.794410 +0530,
111,0,112,o,5.5067084999755025,None,112,0,111,445.70168220001506,,,,,,,,,,,,,,,,,,,,,,,,,,,,,,,,,,,,,,,,,,,,,,,,,,445.68528930001776,445.70168220001506,446.20189950001077,446.1849295000138,446.19166770001175,446.20189950001077,446.20189950001077,446.20189950001077,451.71920570000657,Scenes\129a.jpg,mid,o,5.5067084999755025,None,,,,,,,,00037,001,2026-01-23_16h33.26.226,MST_test,2024.2.0,59.99933999874208,2026-01-23 16h33.33.794410 +0530,
112,0,113,o,0.8564848999958485,None,113,0,112,451.7345273999963,,,,,,,,,,,,,,,,,,,,,,,,,,,,,,,,,,,,,,,,,,,,,,,,,,451.7193101000157,451.7345273999963,452.2366520999931,452.2189170999918,452.22519810000085,452.2366520999931,452.2366520999931,452.2366520999931,453.10205340001266,Scenes\039a.jpg,mid,o,0.8564848999958485,None,,,,,,,,00037,001,2026-01-23_16h33.26.226,MST_test,2024.2.0,59.99933999874208,2026-01-23 16h33.33.794410 +0530,
113,0,114,s,2.946283899975242,None,114,0,113,453.1180781000003,,,,,,,,,,,,,,,,,,,,,,,,,,,,,,,,,,,,,,,,,,,,,,,,,,453.1021646000154,453.1180781000003,453.6182539000001,453.6014109000098,453.6128485999943,453.6182539000001,453.6182539000001,453.6182539000001,456.56867720000446,Objects\042b.jpg,post,s,2.946283899975242,None,,,,,,,,00037,001,2026-01-23_16h33.26.226,MST_test,2024.2.0,59.99933999874208,2026-01-23 16h33.33.794410 +0530,
114,0,115,o,1.0638883000065107,None,115,0,114,456.5844441000081,,,,,,,,,,,,,,,,,,,,,,,,,,,,,,,,,,,,,,,,,,,,,,,,,,456.5687897000171,456.5844441000081,457.085087000014,457.0681074000022,457.07864700001664,457.085087000014,457.085087000014,457.085087000014,458.1520048000093,Scenes\026a.jpg,pre,o,1.0638883000065107,None,,,,,,,,00037,001,2026-01-23_16h33.26.226,MST_test,2024.2.0,59.99933999874208,2026-01-23 16h33.33.794410 +0530,
115,0,116,n,8.159148799983086,None,116,0,115,458.16776320000645,,,,,,,,,,,,,,,,,,,,,,,,,,,,,,,,,,,,,,,,,,,,,,,,,,458.15211769999587,458.16776320000645,458.66964030000963,458.65168770001037,458.6619014000171,458.66964030000963,458.66964030000963,458.66964030000963,466.8351967000053,Foils\073a.jpg,none,n,8.159148799983086,None,,,,,,,,00037,001,2026-01-23_16h33.26.226,MST_test,2024.2.0,59.99933999874208,2026-01-23 16h33.33.794410 +0530,
116,0,117,s,1.2767923999927007,None,117,0,116,466.8512555999914,,,,,,,,,,,,,,,,,,,,,,,,,,,,,,,,,,,,,,,,,,,,,,,,,,466.8353090000164,466.8512555999914,467.3516568999912,467.33485590000055,467.3454302000173,467.3516568999912,467.3516568999912,467.3516568999912,468.6352029000118,Objects\010b.jpg,mid,s,1.2767923999927007,None,,,,,,,,00037,001,2026-01-23_16h33.26.226,MST_test,2024.2.0,59.99933999874208,2026-01-23 16h33.33.794410 +0530,
117,0,118,s,1.844990500016138,None,118,0,117,468.65107660001377,,,,,,,,,,,,,,,,,,,,,,,,,,,,,,,,,,,,,,,,,,,,,,,,,,468.63531479999074,468.65107660001377,469.151597899996,469.13481019999017,469.1455827000027,469.151597899996,469.151597899996,469.151597899996,471.0020893999899,Objects\138b.jpg,mid,s,1.844990500016138,None,,,,,,,,00037,001,2026-01-23_16h33.26.226,MST_test,2024.2.0,59.99933999874208,2026-01-23 16h33.33.794410 +0530,
118,0,119,o,2.1981467999867164,None,119,0,118,471.01784839999164,,,,,,,,,,,,,,,,,,,,,,,,,,,,,,,,,,,,,,,,,,,,,,,,,,471.00219410000136,471.01784839999164,471.5183117999986,471.50192480001715,471.5045853999909,471.5183117999986,471.5183117999986,471.5183117999986,473.7190346000134,Objects\101a.jpg,mid,o,2.1981467999867164,None,,,,,,,,00037,001,2026-01-23_16h33.26.226,MST_test,2024.2.0,59.99933999874208,2026-01-23 16h33.33.794410 +0530,
119,0,120,o,1.2811338000174146,None,120,0,119,473.73426050000126,,,,,,,,,,,,,,,,,,,,,,,,,,,,,,,,,,,,,,,,,,,,,,,,,,473.7191587999987,473.73426050000126,474.23535910001374,474.2185267000168,474.2249146999966,474.23535910001374,474.23535910001374,474.23535910001374,475.51863930001855,Scenes\007a.jpg,post,o,1.2811338000174146,None,,,,,,,,00037,001,2026-01-23_16h33.26.226,MST_test,2024.2.0,59.99933999874208,2026-01-23 16h33.33.794410 +0530,
120,0,121,s,10.936945299996296,None,121,0,120,475.53434990000096,,,,,,,,,,,,,,,,,,,,,,,,,,,,,,,,,,,,,,,,,,,,,,,,,,475.5187574000156,475.53434990000096,476.0353035000153,476.01827160001267,476.02586220001103,476.0353035000153,476.0353035000153,476.0353035000153,486.98552049999125,Scenes\173a.jpg,mid,s,10.936945299996296,None,,,,,,,,00037,001,2026-01-23_16h33.26.226,MST_test,2024.2.0,59.99933999874208,2026-01-23 16h33.33.794410 +0530,
121,0,122,s,2.518740200001048,None,122,0,121,487.00108210000326,,,,,,,,,,,,,,,,,,,,,,,,,,,,,,,,,,,,,,,,,,,,,,,,,,486.9856386000174,487.00108210000326,487.5019949999987,487.484881100012,487.49622430000454,487.5019949999987,487.5019949999987,487.5019949999987,490.03484539999045,Foils\066a.jpg,none,s,2.518740200001048,None,,,,,,,,00037,001,2026-01-23_16h33.26.226,MST_test,2024.2.0,59.99933999874208,2026-01-23 16h33.33.794410 +0530,
122,0,123,o,0.8529375000216532,None,123,0,122,490.05119950001244,,,,,,,,,,,,,,,,,,,,,,,,,,,,,,,,,,,,,,,,,,,,,,,,,,490.0349800999975,490.05119950001244,490.5520680999907,490.53486770001473,490.5488436000014,490.5520680999907,490.5520680999907,490.5520680999907,491.41900590001023,Scenes\046a.jpg,mid,o,0.8529375000216532,None,,,,,,,,00037,001,2026-01-23_16h33.26.226,MST_test,2024.2.0,59.99933999874208,2026-01-23 16h33.33.794410 +0530,
123,0,124,s,1.6345024000038393,None,124,0,123,491.43433690001257,,,,,,,,,,,,,,,,,,,,,,,,,,,,,,,,,,,,,,,,,,,,,,,,,,491.4191162000061,491.43433690001257,491.93832909999765,491.9186105999979,491.93524869999965,491.93832909999765,491.93832909999765,491.93832909999765,493.58537899999646,Foils\scenes27.jpg,none,s,1.6345024000038393,None,,,,,,,,00037,001,2026-01-23_16h33.26.226,MST_test,2024.2.0,59.99933999874208,2026-01-23 16h33.33.794410 +0530,
124,0,125,s,3.559090599999763,None,125,0,124,493.6010619000008,,,,,,,,,,,,,,,,,,,,,,,,,,,,,,,,,,,,,,,,,,,,,,,,,,493.5854896999954,493.6010619000008,494.1011972000124,494.08493559999624,494.0963851000124,494.1011972000124,494.1011972000124,494.1011972000124,497.6688049999939,Objects\033b.jpg,pre,s,3.559090599999763,None,,,,,,,,00037,001,2026-01-23_16h33.26.226,MST_test,2024.2.0,59.99933999874208,2026-01-23 16h33.33.794410 +0530,
125,0,126,s,1.2604099000163842,None,126,0,125,497.6846380000061,,,,,,,,,,,,,,,,,,,,,,,,,,,,,,,,,,,,,,,,,,,,,,,,,,497.66892409999855,497.6846380000061,498.184834100015,498.16823919999297,498.1790483999939,498.184834100015,498.184834100015,498.184834100015,499.45202090000384,Objects\102b.jpg,mid,s,1.2604099000163842,None,,,,,,,,00037,001,2026-01-23_16h33.26.226,MST_test,2024.2.0,59.99933999874208,2026-01-23 16h33.33.794410 +0530,
126,0,127,s,1.0607026999932714,None,127,0,126,499.46858580000116,,,,,,,,,,,,,,,,,,,,,,,,,,,,,,,,,,,,,,,,,,,,,,,,,,499.4521291000128,499.46858580000116,499.96850930000073,499.9517160000105,499.9645159000065,499.96850930000073,499.96850930000073,499.96850930000073,501.03543109999737,Objects\053b.jpg,pre,s,1.0607026999932714,None,,,,,,,,00037,001,2026-01-23_16h33.26.226,MST_test,2024.2.0,59.99933999874208,2026-01-23 16h33.33.794410 +0530,
127,0,128,s,3.1165589000156615,None,128,0,127,501.05136010001297,,,,,,,,,,,,,,,,,,,,,,,,,,,,,,,,,,,,,,,,,,,,,,,,,,501.03555820000474,501.05136010001297,501.55216220000875,501.5347229000181,501.54896559999906,501.55216220000875,501.55216220000875,501.55216220000875,504.6848726000171,Scenes\080b.jpg,mid,s,3.1165589000156615,None,,,,,,,,00037,001,2026-01-23_16h33.26.226,MST_test,2024.2.0,59.99933999874208,2026-01-23 16h33.33.794410 +0530,
128,0,129,o,1.0837920999911148,None,129,0,128,504.70100100000855,,,,,,,,,,,,,,,,,,,,,,,,,,,,,,,,,,,,,,,,,,,,,,,,,,504.6849868000136,504.70100100000855,505.2016105999937,505.1845084000088,505.18788070001756,505.2016105999937,505.2016105999937,505.2016105999937,506.3017067000037,Objects\105a.jpg,post,o,1.0837920999911148,None,,,,,,,,00037,001,2026-01-23_16h33.26.226,MST_test,2024.2.0,59.99933999874208,2026-01-23 16h33.33.794410 +0530,
129,0,130,s,3.753556600015145,None,130,0,129,506.31825400001253,,,,,,,,,,,,,,,,,,,,,,,,,,,,,,,,,,,,,,,,,,,,,,,,,,506.3018122999929,506.31825400001253,506.82702419999987,506.80176890001167,506.82426749999286,506.82702419999987,506.82702419999987,506.82702419999987,510.58543669999926,Scenes\082b.jpg,pre,s,3.753556600015145,None,,,,,,,,00037,001,2026-01-23_16h33.26.226,MST_test,2024.2.0,59.99933999874208,2026-01-23 16h33.33.794410 +0530,
130,0,131,o,0.9753842000209261,None,131,0,130,510.6011947999941,,,,,,,,,,,,,,,,,,,,,,,,,,,,,,,,,,,,,,,,,,,,,,,,,,510.5855404000031,510.6011947999941,511.1016487000161,511.08565330001875,511.0976953000063,511.1016487000161,511.1016487000161,511.1016487000161,512.0854326999979,Scenes\061b.jpg,mid,o,0.9753842000209261,None,,,,,,,,00037,001,2026-01-23_16h33.26.226,MST_test,2024.2.0,59.99933999874208,2026-01-23 16h33.33.794410 +0530,
131,0,132,o,2.0503215999924578,None,132,0,131,512.1013835000049,,,,,,,,,,,,,,,,,,,,,,,,,,,,,,,,,,,,,,,,,,,,,,,,,,512.0855449000082,512.1013835000049,512.6018601999967,512.5847650000069,512.5957672999939,512.6018601999967,512.6018601999967,512.6018601999967,514.6692038000037,Scenes\134a.jpg,post,o,2.0503215999924578,None,,,,,,,,00037,001,2026-01-23_16h33.26.226,MST_test,2024.2.0,59.99933999874208,2026-01-23 16h33.33.794410 +0530,
132,0,133,o,0.6623192999977618,None,133,0,132,514.6844079000002,,,,,,,,,,,,,,,,,,,,,,,,,,,,,,,,,,,,,,,,,,,,,,,,,,514.6693145000027,514.6844079000002,515.1906362000154,515.1681682000053,515.1882418000023,515.1906362000154,515.1906362000154,515.1906362000154,515.8687983000127,Scenes\142b.jpg,post,o,0.6623192999977618,None,,,,,,,,00037,001,2026-01-23_16h33.26.226,MST_test,2024.2.0,59.99933999874208,2026-01-23 16h33.33.794410 +0530,
133,0,134,o,0.7628880999982357,None,134,0,133,515.884367599996,,,,,,,,,,,,,,,,,,,,,,,,,,,,,,,,,,,,,,,,,,,,,,,,,,515.8689154000022,515.884367599996,516.3851455000113,516.368781600002,516.3722797000082,516.3851455000113,516.3851455000113,516.3851455000113,517.152006999997,Objects\180a.jpg,pre,o,0.7628880999982357,None,,,,,,,,00037,001,2026-01-23_16h33.26.226,MST_test,2024.2.0,59.99933999874208,2026-01-23 16h33.33.794410 +0530,
134,0,135,s,2.4314600999932736,None,135,0,134,517.1678756000183,,,,,,,,,,,,,,,,,,,,,,,,,,,,,,,,,,,,,,,,,,,,,,,,,,517.1521321000182,517.1678756000183,517.6689044999948,517.6517640000093,517.6617410000181,517.6689044999948,517.6689044999948,517.6689044999948,520.1026546999929,Objects\187b.jpg,mid,s,2.4314600999932736,None,,,,,,,,00037,001,2026-01-23_16h33.26.226,MST_test,2024.2.0,59.99933999874208,2026-01-23 16h33.33.794410 +0530,
135,0,136,n,3.0023157999967225,None,136,0,135,520.1180266000156,,,,,,,,,,,,,,,,,,,,,,,,,,,,,,,,,,,,,,,,,,,,,,,,,,520.1027950000134,520.1180266000156,520.6185393999913,520.6017614000011,520.612377500016,520.6185393999913,520.6185393999913,520.6185393999913,523.6355660000117,Foils\086a.jpg,none,n,3.0023157999967225,None,,,,,,,,00037,001,2026-01-23_16h33.26.226,MST_test,2024.2.0,59.99933999874208,2026-01-23 16h33.33.794410 +0530,
136,0,137,s,1.1086571000050753,None,137,0,136,523.651341299992,,,,,,,,,,,,,,,,,,,,,,,,,,,,,,,,,,,,,,,,,,,,,,,,,,523.6356915000069,523.651341299992,524.1519741000084,524.1348318000091,524.1450903000077,524.1519741000084,524.1519741000084,524.1519741000084,525.2691211999918,Objects\112b.jpg,mid,s,1.1086571000050753,None,,,,,,,,00037,001,2026-01-23_16h33.26.226,MST_test,2024.2.0,59.99933999874208,2026-01-23 16h33.33.794410 +0530,
137,0,138,s,0.836082499998156,None,138,0,137,525.2845373000018,,,,,,,,,,,,,,,,,,,,,,,,,,,,,,,,,,,,,,,,,,,,,,,,,,525.2692399999942,525.2845373000018,525.7847726000182,525.7683752000157,525.7785875000118,525.7847726000182,525.7847726000182,525.7847726000182,526.6353568999912,Objects\047b.jpg,mid,s,0.836082499998156,None,,,,,,,,00037,001,2026-01-23_16h33.26.226,MST_test,2024.2.0,59.99933999874208,2026-01-23 16h33.33.794410 +0530,
138,0,139,n,2.668904599995585,None,139,0,138,526.6509924000129,,,,,,,,,,,,,,,,,,,,,,,,,,,,,,,,,,,,,,,,,,,,,,,,,,526.6355417000013,526.6509924000129,527.1513113999972,527.1349709999922,527.1455599000037,527.1513113999972,527.1513113999972,527.1513113999972,529.8356102000107,Foils\026a.jpg,none,n,2.668904599995585,None,,,,,,,,00037,001,2026-01-23_16h33.26.226,MST_test,2024.2.0,59.99933999874208,2026-01-23 16h33.33.794410 +0530,
139,0,140,s,2.172391800006153,None,140,0,139,529.8510661000037,,,,,,,,,,,,,,,,,,,,,,,,,,,,,,,,,,,,,,,,,,,,,,,,,,529.8357193999982,529.8510661000037,530.3522205000045,530.3357529999921,530.3404955000151,530.3522205000045,530.3522205000045,530.3522205000045,532.5355319000082,Scenes\036a.jpg,mid,s,2.172391800006153,None,,,,,,,,00037,001,2026-01-23_16h33.26.226,MST_test,2024.2.0,59.99933999874208,2026-01-23 16h33.33.794410 +0530,
140,0,141,s,2.9206949999788776,None,141,0,140,532.5513164000004,,,,,,,,,,,,,,,,,,,,,,,,,,,,,,,,,,,,,,,,,,,,,,,,,,532.5356528999982,532.5513164000004,533.0520028000174,533.0348828000133,533.0419873000064,533.0520028000174,533.0520028000174,533.0520028000174,535.9852489999903,Scenes\162a.jpg,post,s,2.9206949999788776,None,,,,,,,,00037,001,2026-01-23_16h33.26.226,MST_test,2024.2.0,59.99933999874208,2026-01-23 16h33.33.794410 +0530,
141,0,142,o,2.110355699987849,None,142,0,141,536.001342500007,,,,,,,,,,,,,,,,,,,,,,,,,,,,,,,,,,,,,,,,,,,,,,,,,,535.985393800016,536.001342500007,536.5020855999901,536.485095400014,536.4987839999958,536.5020855999901,536.5020855999901,536.5020855999901,538.6193858000042,Scenes\076a.jpg,mid,o,2.110355699987849,None,,,,,,,,00037,001,2026-01-23_16h33.26.226,MST_test,2024.2.0,59.99933999874208,2026-01-23 16h33.33.794410 +0530,
142,0,143,o,1.6084542000025976,None,143,0,142,538.6348937000148,,,,,,,,,,,,,,,,,,,,,,,,,,,,,,,,,,,,,,,,,,,,,,,,,,538.619497000007,538.6348937000148,539.1400989000103,539.1184556999942,539.1374183000007,539.1400989000103,539.1400989000103,539.1400989000103,540.752383700019,Scenes\120b.jpg,post,o,1.6084542000025976,None,,,,,,,,00037,001,2026-01-23_16h33.26.226,MST_test,2024.2.0,59.99933999874208,2026-01-23 16h33.33.794410 +0530,
143,0,144,o,1.0558289000182413,None,144,0,143,540.7681694999919,,,,,,,,,,,,,,,,,,,,,,,,,,,,,,,,,,,,,,,,,,,,,,,,,,540.7526096999936,540.7681694999919,541.2688226000173,541.2514972999925,541.2629781000142,541.2688226000173,541.2688226000173,541.2688226000173,542.3356406000094,Scenes\145a.jpg,pre,o,1.0558289000182413,None,,,,,,,,00037,001,2026-01-23_16h33.26.226,MST_test,2024.2.0,59.99933999874208,2026-01-23 16h33.33.794410 +0530,
144,0,145,s,1.2174868999863975,None,145,0,144,542.3514304000128,,,,,,,,,,,,,,,,,,,,,,,,,,,,,,,,,,,,,,,,,,,,,,,,,,542.3357474000077,542.3514304000128,542.8516885999998,542.8344833000156,542.8464193000109,542.8516885999998,542.8516885999998,542.8516885999998,544.0851369000156,Objects\118b.jpg,mid,s,1.2174868999863975,None,,,,,,,,00037,001,2026-01-23_16h33.26.226,MST_test,2024.2.0,59.99933999874208,2026-01-23 16h33.33.794410 +0530,
145,0,146,n,0.9738626000180375,None,146,0,145,544.1009376000147,,,,,,,,,,,,,,,,,,,,,,,,,,,,,,,,,,,,,,,,,,,,,,,,,,544.0852592000156,544.1009376000147,544.6943445999932,544.5847312000114,544.6912202000094,544.6943445999932,544.6943445999932,544.6943445999932,545.6853064000024,Foils\scenes25.jpg,none,n,0.9738626000180375,None,,,,,,,,00037,001,2026-01-23_16h33.26.226,MST_test,2024.2.0,59.99933999874208,2026-01-23 16h33.33.794410 +0530,
146,0,147,o,1.2739357000100426,None,147,0,146,545.7007647000137,,,,,,,,,,,,,,,,,,,,,,,,,,,,,,,,,,,,,,,,,,,,,,,,,,545.6854223000119,545.7007647000137,546.2025633000012,546.184691100003,546.1881274000043,546.2025633000012,546.2025633000012,546.2025633000012,547.4851694999961,Objects\106a.jpg,mid,o,1.2739357000100426,None,,,,,,,,00037,001,2026-01-23_16h33.26.226,MST_test,2024.2.0,59.99933999874208,2026-01-23 16h33.33.794410 +0530,
147,0,148,o,1.0270389000070281,None,148,0,147,547.5011681000178,,,,,,,,,,,,,,,,,,,,,,,,,,,,,,,,,,,,,,,,,,,,,,,,,,547.485284800001,547.5011681000178,548.001345800003,547.9847894000122,547.9883640000189,548.001345800003,548.001345800003,548.001345800003,549.0351164000167,Objects\113a.jpg,post,o,1.0270389000070281,None,,,,,,,,00037,001,2026-01-23_16h33.26.226,MST_test,2024.2.0,59.99933999874208,2026-01-23 16h33.33.794410 +0530,
148,0,149,o,0.8850092999928165,None,149,0,148,549.0507914999907,,,,,,,,,,,,,,,,,,,,,,,,,,,,,,,,,,,,,,,,,,,,,,,,,,549.0352298000071,549.0507914999907,549.5513716000132,549.5346657999908,549.5441814000078,549.5513716000132,549.5513716000132,549.5513716000132,550.4520686000178,Scenes\100a.jpg,post,o,0.8850092999928165,None,,,,,,,,00037,001,2026-01-23_16h33.26.226,MST_test,2024.2.0,59.99933999874208,2026-01-23 16h33.33.794410 +0530,
149,0,150,s,2.507369099999778,None,150,0,149,550.4677469000162,,,,,,,,,,,,,,,,,,,,,,,,,,,,,,,,,,,,,,,,,,,,,,,,,,550.4521808999998,550.4677469000162,550.9694721999986,550.9515221000183,550.9619171000086,550.9694721999986,550.9694721999986,550.9694721999986,553.4854754999978,Objects\011b.jpg,pre,s,2.507369099999778,None,,,,,,,,00037,001,2026-01-23_16h33.26.226,MST_test,2024.2.0,59.99933999874208,2026-01-23 16h33.33.794410 +0530,
,,,,,,,,,,,,,,,,,,,,,,,,,,,,,,,,,,,,,,,,,,,,,,,,,,,,,,,,,,,,,,,,,,,,,,,,,553.4855541000143,553.5011213000107,553.5011213000107,557.2517716000148,space,3.7356756999797653,None,00037,001,2026-01-23_16h33.26.226,MST_test,2024.2.0,59.99933999874208,2026-01-23 16h33.33.794410 +0530,
