thisN,thisTrialN,thisRepN,key_resp_3.keys,key_resp_3.rt,key_resp_3.duration,trials.thisRepN,trials.thisTrialN,trials.thisN,thisRow.t,notes,intro_page.started,text.started,key_resp.started,intro_page.stopped,key_resp.keys,key_resp.rt,key_resp.duration,instructions.started,text_2.started,key_resp_2.started,instructions.stopped,key_resp_2.keys,key_resp_2.rt,key_resp_2.duration,demo1.started,image_1.started,image_2.started,text_7.started,key_resp_6.started,text_9.started,demo1.stopped,key_resp_6.keys,key_resp_6.rt,key_resp_6.duration,demo2.started,image_5.started,image_6.started,text_11.started,text_12.started,key_resp_8.started,demo2.stopped,key_resp_8.keys,key_resp_8.rt,key_resp_8.duration,demo_conclusion.started,text_13.started,key_resp_9.started,demo_conclusion.stopped,key_resp_9.keys,key_resp_9.rt,key_resp_9.duration,start_test.started,text_6.started,key_resp_5.started,start_test.stopped,key_resp_5.keys,key_resp_5.rt,key_resp_5.duration,ISI.started,text_4.started,ISI.stopped,routine_1.started,image.started,text_3.started,key_resp_3.started,routine_1.stopped,image_path,position_of_stimuli,trials.key_resp_3.keys,trials.key_resp_3.rt,trials.key_resp_3.duration,text_4.stopped,End_page.started,text_5.started,key_resp_4.started,End_page.stopped,key_resp_4.keys,key_resp_4.rt,key_resp_4.duration,participant,session,date,expName,psychopyVersion,frameRate,expStart,
,,,,,,,,,,,0.005535500007681549,0.021738900104537606,0.021738900104537606,4.6237866000737995,space,4.584916899912059,None,,,,,,,,,,,,,,,,,,,,,,,,,,,,,,,,,,,,,,,,,,,,,,,,,,,,,,,,,,,,,,,00033,001,2026-01-22_11h28.01.006,MST_test,2024.2.0,60.74791618952257,2026-01-22 11h28.12.866842 +0530,
,,,,,,,,,,,,,,,,,,4.623823300004005,4.639852200052701,4.639852200052701,17.836798300035298,space,13.182438499992713,None,,,,,,,,,,,,,,,,,,,,,,,,,,,,,,,,,,,,,,,,,,,,,,,,,,,,,,,,00033,001,2026-01-22_11h28.01.006,MST_test,2024.2.0,60.74791618952257,2026-01-22 11h28.12.866842 +0530,
,,,,,,,,,,,,,,,,,,,,,,,,,17.836827200022526,17.852820300031453,17.852820300031453,17.852820300031453,17.852820300031453,17.852820300031453,23.289138499996625,space,5.425924399984069,None,,,,,,,,,,,,,,,,,,,,,,,,,,,,,,,,,,,,,,,,,,,,,,00033,001,2026-01-22_11h28.01.006,MST_test,2024.2.0,60.74791618952257,2026-01-22 11h28.12.866842 +0530,
,,,,,,,,,,,,,,,,,,,,,,,,,,,,,,,,,,,23.289165700087324,23.30525920004584,23.30525920004584,23.30525920004584,23.30525920004584,23.30525920004584,26.182574900100008,space,2.869563499931246,None,,,,,,,,,,,,,,,,,,,,,,,,,,,,,,,,,,,,00033,001,2026-01-22_11h28.01.006,MST_test,2024.2.0,60.74791618952257,2026-01-22 11h28.12.866842 +0530,
,,,,,,,,,,,,,,,,,,,,,,,,,,,,,,,,,,,,,,,,,,,,,26.182605100097135,26.19869230000768,26.19869230000768,104.65717000002041,space,78.44787480006926,None,,,,,,,,,,,,,,,,,,,,,,,,,,,,,00033,001,2026-01-22_11h28.01.006,MST_test,2024.2.0,60.74791618952257,2026-01-22 11h28.12.866842 +0530,
,,,,,,,,,,,,,,,,,,,,,,,,,,,,,,,,,,,,,,,,,,,,,,,,,,,,104.65720050001983,104.67317110009026,104.67317110009026,126.85201470006723,space,22.16648080002051,None,,,,,,,,,,,,,,,,,,,,,,00033,001,2026-01-22_11h28.01.006,MST_test,2024.2.0,60.74791618952257,2026-01-22 11h28.12.866842 +0530,
0,0,1,n,20.88305029994808,None,1,0,0,126.86778190010227,,,,,,,,,,,,,,,,,,,,,,,,,,,,,,,,,,,,,,,,,,,,,,,,,,126.85537170001771,126.86778190010227,127.35297850007191,127.38874940003734,127.40410030004568,127.40410030004568,127.40410030004568,148.2929646000266,Foils\scenes22.jpg,none,n,20.88305029994808,None,,,,,,,,,00033,001,2026-01-22_11h28.01.006,MST_test,2024.2.0,60.74791618952257,2026-01-22 11h28.12.866842 +0530,
1,0,2,s,8.977764400071464,None,2,0,1,148.30935320002027,,,,,,,,,,,,,,,,,,,,,,,,,,,,,,,,,,,,,,,,,,,,,,,,,,148.29308100009803,148.30935320002027,148.79432980006095,148.81768070010003,148.84498270007316,148.84498270007316,148.84498270007316,157.82634570007212,Scenes\131b.jpg,mid,s,8.977764400071464,None,,,,,,,,,00033,001,2026-01-22_11h28.01.006,MST_test,2024.2.0,60.74791618952257,2026-01-22 11h28.12.866842 +0530,
2,0,3,o,3.0128940999275073,None,3,0,2,157.84261070005596,,,,,,,,,,,,,,,,,,,,,,,,,,,,,,,,,,,,,,,,,,,,,,,,,,157.82644239999354,157.84261070005596,158.3278425000608,158.3584700000938,158.3778988000704,158.3778988000704,158.3778988000704,161.4057256000815,Scenes\114b.jpg,pre,o,3.0128940999275073,None,,,,,,,,,00033,001,2026-01-22_11h28.01.006,MST_test,2024.2.0,60.74791618952257,2026-01-22 11h28.12.866842 +0530,
3,0,4,o,3.041062599979341,None,4,0,3,161.4218414000934,,,,,,,,,,,,,,,,,,,,,,,,,,,,,,,,,,,,,,,,,,,,,,,,,,161.40582139999606,161.4218414000934,161.90700540004764,161.92260060005356,161.94162290007807,161.94162290007807,161.94162290007807,164.98503770004027,Objects\130a.jpg,post,o,3.041062599979341,None,,,,,,,,,00033,001,2026-01-22_11h28.01.006,MST_test,2024.2.0,60.74791618952257,2026-01-22 11h28.12.866842 +0530,
4,0,5,n,28.599684400018305,None,5,0,4,165.00115460006054,,,,,,,,,,,,,,,,,,,,,,,,,,,,,,,,,,,,,,,,,,,,,,,,,,164.9851326000644,165.00115460006054,165.48611380008515,165.50986200000625,165.51958469999954,165.51958469999954,165.51958469999954,194.12075600004755,Foils\074a.jpg,none,n,28.599684400018305,None,,,,,,,,,00033,001,2026-01-22_11h28.01.006,MST_test,2024.2.0,60.74791618952257,2026-01-22 11h28.12.866842 +0530,
5,0,6,o,3.318683100049384,None,6,0,5,194.1366782000987,,,,,,,,,,,,,,,,,,,,,,,,,,,,,,,,,,,,,,,,,,,,,,,,,,194.1208524000831,194.1366782000987,194.6218712000409,194.64764100010507,194.67190780001692,194.67190780001692,194.67190780001692,198.00115170003846,Scenes\063b.jpg,post,o,3.318683100049384,None,,,,,,,,,00033,001,2026-01-22_11h28.01.006,MST_test,2024.2.0,60.74791618952257,2026-01-22 11h28.12.866842 +0530,
6,0,7,o,6.25566839997191,None,7,0,6,198.01709750003647,,,,,,,,,,,,,,,,,,,,,,,,,,,,,,,,,,,,,,,,,,,,,,,,,,198.00125140009914,198.01709750003647,198.5029138000682,198.51897620002273,198.53552320005838,198.53552320005838,198.53552320005838,204.80780290008988,Objects\027a.jpg,mid,o,6.25566839997191,None,,,,,,,,,00033,001,2026-01-22_11h28.01.006,MST_test,2024.2.0,60.74791618952257,2026-01-22 11h28.12.866842 +0530,
7,0,8,s,7.351617899956182,None,8,0,7,204.82404320000205,,,,,,,,,,,,,,,,,,,,,,,,,,,,,,,,,,,,,,,,,,,,,,,,,,204.80789980001282,204.82404320000205,205.3088781000115,205.33908780000638,205.35910730005708,205.35910730005708,205.35910730005708,212.7190667000832,Scenes\060b.jpg,mid,s,7.351617899956182,None,,,,,,,,,00033,001,2026-01-22_11h28.01.006,MST_test,2024.2.0,60.74791618952257,2026-01-22 11h28.12.866842 +0530,
8,0,9,s,8.13649990002159,None,9,0,8,212.73484910000116,,,,,,,,,,,,,,,,,,,,,,,,,,,,,,,,,,,,,,,,,,,,,,,,,,212.71918010001536,212.73484910000116,213.22005380003247,213.24035760003608,213.2541637000395,213.2541637000395,213.2541637000395,221.39945060003083,Foils\scenes16.jpg,none,s,8.13649990002159,None,,,,,,,,,00033,001,2026-01-22_11h28.01.006,MST_test,2024.2.0,60.74791618952257,2026-01-22 11h28.12.866842 +0530,
9,0,10,o,4.672341700061224,None,10,0,9,221.41534980002325,,,,,,,,,,,,,,,,,,,,,,,,,,,,,,,,,,,,,,,,,,,,,,,,,,221.3995544000063,221.41534980002325,221.90030430001207,221.9221697000321,221.93458110000938,221.93458110000938,221.93458110000938,226.61771060002502,Objects\032b.jpg,pre,o,4.672341700061224,None,,,,,,,,,00033,001,2026-01-22_11h28.01.006,MST_test,2024.2.0,60.74791618952257,2026-01-22 11h28.12.866842 +0530,
10,0,11,o,8.182656899909489,None,11,0,10,226.6335240000626,,,,,,,,,,,,,,,,,,,,,,,,,,,,,,,,,,,,,,,,,,,,,,,,,,226.61781230010092,226.6335240000626,227.11882030009292,227.1407906000968,227.15238189999945,227.15238189999945,227.15238189999945,235.34798290010076,Objects\176b.jpg,pre,o,8.182656899909489,None,,,,,,,,,00033,001,2026-01-22_11h28.01.006,MST_test,2024.2.0,60.74791618952257,2026-01-22 11h28.12.866842 +0530,
11,0,12,o,12.02875630010385,None,12,0,11,235.3641027000267,,,,,,,,,,,,,,,,,,,,,,,,,,,,,,,,,,,,,,,,,,,,,,,,,,235.3480782000115,235.3641027000267,235.84930160001386,235.8718407000415,235.8825363999931,235.8825363999931,235.8825363999931,247.9252553000115,Objects\015b.jpg,pre,o,12.02875630010385,None,,,,,,,,,00033,001,2026-01-22_11h28.01.006,MST_test,2024.2.0,60.74791618952257,2026-01-22 11h28.12.866842 +0530,
12,0,13,s,15.139014399959706,None,13,0,12,247.94174280005973,,,,,,,,,,,,,,,,,,,,,,,,,,,,,,,,,,,,,,,,,,,,,,,,,,247.9253611000022,247.94174280005973,248.4273802000098,248.4408265000675,248.46018530009314,248.46018530009314,248.46018530009314,263.613642900018,Objects\151a.jpg,mid,s,15.139014399959706,None,,,,,,,,,00033,001,2026-01-22_11h28.01.006,MST_test,2024.2.0,60.74791618952257,2026-01-22 11h28.12.866842 +0530,
13,0,14,o,6.07426869997289,None,14,0,13,263.6304615000263,,,,,,,,,,,,,,,,,,,,,,,,,,,,,,,,,,,,,,,,,,,,,,,,,,263.61374140006956,263.6304615000263,264.11484510009177,264.1294382000342,264.1485928000184,264.1485928000184,264.1485928000184,270.2367553000804,Objects\005a.jpg,pre,o,6.07426869997289,None,,,,,,,,,00033,001,2026-01-22_11h28.01.006,MST_test,2024.2.0,60.74791618952257,2026-01-22 11h28.12.866842 +0530,
14,0,15,o,3.6831766000250354,None,15,0,14,270.25307950004935,,,,,,,,,,,,,,,,,,,,,,,,,,,,,,,,,,,,,,,,,,,,,,,,,,270.23685810004827,270.25307950004935,270.7382225000765,270.7531430000672,270.7725336001022,270.7725336001022,270.7725336001022,274.4684171000263,Scenes\123a.jpg,mid,o,3.6831766000250354,None,,,,,,,,,00033,001,2026-01-22_11h28.01.006,MST_test,2024.2.0,60.74791618952257,2026-01-22 11h28.12.866842 +0530,
15,0,16,s,2.8668009999673814,None,16,0,15,274.48441160004586,,,,,,,,,,,,,,,,,,,,,,,,,,,,,,,,,,,,,,,,,,,,,,,,,,274.4685136000626,274.48441160004586,274.96960569999646,274.98928910004906,275.0038020000793,275.0038020000793,275.0038020000793,277.88023370003793,Foils\scenes3.jpg,none,s,2.8668009999673814,None,,,,,,,,,00033,001,2026-01-22_11h28.01.006,MST_test,2024.2.0,60.74791618952257,2026-01-22 11h28.12.866842 +0530,
16,0,17,o,4.190392099902965,None,17,0,16,277.8963705000933,,,,,,,,,,,,,,,,,,,,,,,,,,,,,,,,,,,,,,,,,,,,,,,,,,277.8803353999974,277.8963705000933,278.38159640005324,278.39617900003213,278.41589450009633,278.41589450009633,278.41589450009633,282.61338960006833,Objects\159a.jpg,pre,o,4.190392099902965,None,,,,,,,,,00033,001,2026-01-22_11h28.01.006,MST_test,2024.2.0,60.74791618952257,2026-01-22 11h28.12.866842 +0530,
17,0,18,n,5.449862600071356,None,18,0,17,282.62973360007163,,,,,,,,,,,,,,,,,,,,,,,,,,,,,,,,,,,,,,,,,,,,,,,,,,282.61351860000286,282.62973360007163,283.11468500003684,283.12882199999876,283.14827520004474,283.14827520004474,283.14827520004474,288.60125480010174,Objects\114a.jpg,post,n,5.449862600071356,None,,,,,,,,,00033,001,2026-01-22_11h28.01.006,MST_test,2024.2.0,60.74791618952257,2026-01-22 11h28.12.866842 +0530,
18,0,19,n,3.5012876000255346,None,19,0,18,288.61774390004575,,,,,,,,,,,,,,,,,,,,,,,,,,,,,,,,,,,,,,,,,,,,,,,,,,288.6013555000536,288.61774390004575,289.10264600010123,289.1199166000588,289.13695120008197,289.13695120008197,289.13695120008197,292.64853470004164,Scenes\145a.jpg,pre,n,3.5012876000255346,None,,,,,,,,,00033,001,2026-01-22_11h28.01.006,MST_test,2024.2.0,60.74791618952257,2026-01-22 11h28.12.866842 +0530,
19,0,20,o,6.078154499991797,None,20,0,19,292.66506780008785,,,,,,,,,,,,,,,,,,,,,,,,,,,,,,,,,,,,,,,,,,,,,,,,,,292.6486313000787,292.66506780008785,293.1501105000498,293.1631378000602,293.18449870008044,293.18449870008044,293.18449870008044,299.2722600999987,Scenes\179a.jpg,post,o,6.078154499991797,None,,,,,,,,,00033,001,2026-01-22_11h28.01.006,MST_test,2024.2.0,60.74791618952257,2026-01-22 11h28.12.866842 +0530,
20,0,21,s,4.135588899953291,None,21,0,20,299.28812939999625,,,,,,,,,,,,,,,,,,,,,,,,,,,,,,,,,,,,,,,,,,,,,,,,,,299.27235690003727,299.28812939999625,299.77330360002816,299.7890393000562,299.80740380007774,299.80740380007774,299.80740380007774,303.95532040006947,Objects\076a.jpg,mid,s,4.135588899953291,None,,,,,,,,,00033,001,2026-01-22_11h28.01.006,MST_test,2024.2.0,60.74791618952257,2026-01-22 11h28.12.866842 +0530,
21,0,22,s,5.1796954000601545,None,22,0,21,303.97115320002194,,,,,,,,,,,,,,,,,,,,,,,,,,,,,,,,,,,,,,,,,,,,,,,,,,303.9554222000297,303.97115320002194,304.4566739000147,304.48530530009884,304.507477200008,304.507477200008,304.507477200008,309.69194290007,Scenes\120b.jpg,post,s,5.1796954000601545,None,,,,,,,,,00033,001,2026-01-22_11h28.01.006,MST_test,2024.2.0,60.74791618952257,2026-01-22 11h28.12.866842 +0530,
22,0,23,n,3.972563200048171,None,23,0,22,309.7081673000939,,,,,,,,,,,,,,,,,,,,,,,,,,,,,,,,,,,,,,,,,,,,,,,,,,309.6920516000828,309.7081673000939,310.1931330000516,310.21577380003873,310.226737900055,310.226737900055,310.226737900055,314.20776230003685,Scenes\191b.jpg,pre,n,3.972563200048171,None,,,,,,,,,00033,001,2026-01-22_11h28.01.006,MST_test,2024.2.0,60.74791618952257,2026-01-22 11h28.12.866842 +0530,
23,0,24,o,4.800378000014462,None,24,0,23,314.22387270000763,,,,,,,,,,,,,,,,,,,,,,,,,,,,,,,,,,,,,,,,,,,,,,,,,,314.2078616000945,314.22387270000763,314.7097055000486,314.7340104000177,314.7433133000741,314.7433133000741,314.7433133000741,319.5595130000729,Objects\047b.jpg,post,o,4.800378000014462,None,,,,,,,,,00033,001,2026-01-22_11h28.01.006,MST_test,2024.2.0,60.74791618952257,2026-01-22 11h28.12.866842 +0530,
24,0,25,s,43.056866500061005,None,25,0,24,319.57564400008414,,,,,,,,,,,,,,,,,,,,,,,,,,,,,,,,,,,,,,,,,,,,,,,,,,319.5596105000004,319.57564400008414,320.06097550003324,320.08332219999284,320.0940879000118,320.0940879000118,320.0940879000118,363.16229290002957,Objects\170b.jpg,post,s,43.056866500061005,None,,,,,,,,,00033,001,2026-01-22_11h28.01.006,MST_test,2024.2.0,60.74791618952257,2026-01-22 11h28.12.866842 +0530,
25,0,26,n,3.5167643999448046,None,26,0,25,363.1784942999948,,,,,,,,,,,,,,,,,,,,,,,,,,,,,,,,,,,,,,,,,,,,,,,,,,363.16240320005454,363.1784942999948,363.6635571999941,363.68707020010334,363.7146774000721,363.7146774000721,363.7146774000721,367.24462040001526,Scenes\079b.jpg,mid,n,3.5167643999448046,None,,,,,,,,,00033,001,2026-01-22_11h28.01.006,MST_test,2024.2.0,60.74791618952257,2026-01-22 11h28.12.866842 +0530,
26,0,27,n,13.004448399995454,None,27,0,26,367.25929280009586,,,,,,,,,,,,,,,,,,,,,,,,,,,,,,,,,,,,,,,,,,,,,,,,,,367.2447200000752,367.25929280009586,367.74467400007416,367.76684739999473,367.77895910001826,367.77895910001826,367.77895910001826,380.79068330000155,Scenes\118b.jpg,pre,n,13.004448399995454,None,367.77895910001826,,,,,,,,00033,001,2026-01-22_11h28.01.006,MST_test,2024.2.0,60.74791618952257,2026-01-22 11h28.12.866842 +0530,
27,0,28,o,2.560940399998799,None,28,0,27,380.80745780002326,,,,,,,,,,,,,,,,,,,,,,,,,,,,,,,,,,,,,,,,,,,,,,,,,,380.7907854000805,380.80745780002326,381.2918149000034,381.30800550000276,381.3262118001003,381.3262118001003,381.3262118001003,383.9015982000856,Objects\078a.jpg,pre,o,2.560940399998799,None,,,,,,,,,00033,001,2026-01-22_11h28.01.006,MST_test,2024.2.0,60.74791618952257,2026-01-22 11h28.12.866842 +0530,
28,0,29,s,9.873907599947415,None,29,0,28,383.91773210000247,,,,,,,,,,,,,,,,,,,,,,,,,,,,,,,,,,,,,,,,,,,,,,,,,,383.9016990000382,383.91773210000247,384.4027057000203,384.421765300096,384.4370415000012,384.4370415000012,384.4370415000012,394.32154650008306,Foils\scenes18.jpg,none,s,9.873907599947415,None,,,,,,,,,00033,001,2026-01-22_11h28.01.006,MST_test,2024.2.0,60.74791618952257,2026-01-22 11h28.12.866842 +0530,
29,0,30,n,13.638089600019157,None,30,0,29,394.3377260999987,,,,,,,,,,,,,,,,,,,,,,,,,,,,,,,,,,,,,,,,,,,,,,,,,,394.3216408001026,394.3377260999987,394.8225244000787,394.8365791999968,394.8567994000623,394.8567994000623,394.8567994000623,408.5042745000683,Scenes\157a.jpg,pre,n,13.638089600019157,None,,,,,,,,,00033,001,2026-01-22_11h28.01.006,MST_test,2024.2.0,60.74791618952257,2026-01-22 11h28.12.866842 +0530,
30,0,31,n,1.3035732000134885,None,31,0,30,408.52044340001885,,,,,,,,,,,,,,,,,,,,,,,,,,,,,,,,,,,,,,,,,,,,,,,,,,408.50437239999883,408.52044340001885,409.00583570008166,409.0197349000955,409.03916360007133,409.03916360007133,409.03916360007133,410.34428990003653,Objects\009a.jpg,mid,n,1.3035732000134885,None,,,,,,,,,00033,001,2026-01-22_11h28.01.006,MST_test,2024.2.0,60.74791618952257,2026-01-22 11h28.12.866842 +0530,
31,0,32,o,2.439872400020249,None,32,0,31,410.3602215000428,,,,,,,,,,,,,,,,,,,,,,,,,,,,,,,,,,,,,,,,,,,,,,,,,,410.34438450005837,410.3602215000428,410.8455658000894,410.8593412000919,410.87883580010384,410.87883580010384,410.87883580010384,413.32113640010357,Objects\073a.jpg,post,o,2.439872400020249,None,,,,,,,,,00033,001,2026-01-22_11h28.01.006,MST_test,2024.2.0,60.74791618952257,2026-01-22 11h28.12.866842 +0530,
32,0,33,o,2.759530600043945,None,33,0,32,413.33743000007235,,,,,,,,,,,,,,,,,,,,,,,,,,,,,,,,,,,,,,,,,,,,,,,,,,413.3212290999945,413.33743000007235,413.8223935000133,413.83627840003464,413.8558649000479,413.8558649000479,413.8558649000479,416.61607560003176,Objects\022a.jpg,pre,o,2.759530600043945,None,,,,,,,,,00033,001,2026-01-22_11h28.01.006,MST_test,2024.2.0,60.74791618952257,2026-01-22 11h28.12.866842 +0530,
33,0,34,n,3.160130900098011,None,34,0,33,416.6321937000612,,,,,,,,,,,,,,,,,,,,,,,,,,,,,,,,,,,,,,,,,,,,,,,,,,416.6161730000749,416.6321937000612,417.11739460006356,417.1429848000407,417.15060729999095,417.15060729999095,417.15060729999095,420.3123398000607,Objects\188b.jpg,mid,n,3.160130900098011,None,,,,,,,,,00033,001,2026-01-22_11h28.01.006,MST_test,2024.2.0,60.74791618952257,2026-01-22 11h28.12.866842 +0530,
34,0,35,n,2.109609500039369,None,35,0,34,420.32845480006654,,,,,,,,,,,,,,,,,,,,,,,,,,,,,,,,,,,,,,,,,,,,,,,,,,420.31243160006125,420.32845480006654,420.81364270008635,420.8433801000938,420.86466640001163,420.86466640001163,420.86466640001163,422.9884976000758,Scenes\090b.jpg,mid,n,2.109609500039369,None,,,,,,,,,00033,001,2026-01-22_11h28.01.006,MST_test,2024.2.0,60.74791618952257,2026-01-22 11h28.12.866842 +0530,
35,0,36,o,2.0030209000688046,None,36,0,35,423.0044936001068,,,,,,,,,,,,,,,,,,,,,,,,,,,,,,,,,,,,,,,,,,,,,,,,,,422.9885917000938,423.0044936001068,423.4897048000712,423.5155458000954,423.53977980010677,423.53977980010677,423.53977980010677,425.54735590005293,Scenes\029b.jpg,post,o,2.0030209000688046,None,,,,,,,,,00033,001,2026-01-22_11h28.01.006,MST_test,2024.2.0,60.74791618952257,2026-01-22 11h28.12.866842 +0530,
36,0,37,s,2.0848875999217853,None,37,0,36,425.563564900076,,,,,,,,,,,,,,,,,,,,,,,,,,,,,,,,,,,,,,,,,,,,,,,,,,425.5474577000132,425.563564900076,426.048545800033,426.07287480006926,426.08189820009284,426.08189820009284,426.08189820009284,428.1733480000403,Objects\145b.jpg,post,s,2.0848875999217853,None,,,,,,,,,00033,001,2026-01-22_11h28.01.006,MST_test,2024.2.0,60.74791618952257,2026-01-22 11h28.12.866842 +0530,
37,0,38,s,3.3847207999788225,None,38,0,37,428.1893015000969,,,,,,,,,,,,,,,,,,,,,,,,,,,,,,,,,,,,,,,,,,,,,,,,,,428.17344360006973,428.1893015000969,428.67466370004695,428.7010027000215,428.725382200093,428.725382200093,428.725382200093,432.1205696000252,Scenes\034a.jpg,post,s,3.3847207999788225,None,,,,,,,,,00033,001,2026-01-22_11h28.01.006,MST_test,2024.2.0,60.74791618952257,2026-01-22 11h28.12.866842 +0530,
38,0,39,o,1.6874581999145448,None,39,0,38,432.1365979000693,,,,,,,,,,,,,,,,,,,,,,,,,,,,,,,,,,,,,,,,,,,,,,,,,,432.12066490005236,432.1365979000693,432.6215572000947,432.63673990010284,432.6549699000316,432.6549699000316,432.6549699000316,434.34484020003583,Objects\069a.jpg,post,o,1.6874581999145448,None,,,,,,,,,00033,001,2026-01-22_11h28.01.006,MST_test,2024.2.0,60.74791618952257,2026-01-22 11h28.12.866842 +0530,
39,0,40,n,1.7107471999479458,None,40,0,39,434.3609214000171,,,,,,,,,,,,,,,,,,,,,,,,,,,,,,,,,,,,,,,,,,,,,,,,,,434.34493490005843,434.3609214000171,434.846137000015,434.86016580008436,434.8794926000992,434.8794926000992,434.8794926000992,436.6027229001047,Objects\083a.jpg,pre,n,1.7107471999479458,None,,,,,,,,,00033,001,2026-01-22_11h28.01.006,MST_test,2024.2.0,60.74791618952257,2026-01-22 11h28.12.866842 +0530,
40,0,41,n,1.4775841999799013,None,41,0,40,436.61883450008463,,,,,,,,,,,,,,,,,,,,,,,,,,,,,,,,,,,,,,,,,,,,,,,,,,436.60282650007866,436.61883450008463,437.104038999998,437.1246570000658,437.13729119999334,437.13729119999334,437.13729119999334,438.6264302000636,Objects\105b.jpg,post,n,1.4775841999799013,None,,,,,,,,,00033,001,2026-01-22_11h28.01.006,MST_test,2024.2.0,60.74791618952257,2026-01-22 11h28.12.866842 +0530,
41,0,42,o,1.797689599916339,None,42,0,41,438.6425882000476,,,,,,,,,,,,,,,,,,,,,,,,,,,,,,,,,,,,,,,,,,,,,,,,,,438.6265312000178,438.6425882000476,439.12789010000415,439.1486161000794,439.1610284000635,439.1610284000635,439.1610284000635,440.96800140000414,Objects\063b.jpg,post,o,1.797689599916339,None,,,,,,,,,00033,001,2026-01-22_11h28.01.006,MST_test,2024.2.0,60.74791618952257,2026-01-22 11h28.12.866842 +0530,
42,0,43,o,5.984176199999638,None,43,0,42,440.9843931000214,,,,,,,,,,,,,,,,,,,,,,,,,,,,,,,,,,,,,,,,,,,,,,,,,,440.9681208000984,440.9843931000214,441.4691889000824,441.4920791001059,441.50291060004383,441.50291060004383,441.50291060004383,447.4908538000891,Foils\057a.jpg,none,o,5.984176199999638,None,,,,,,,,,00033,001,2026-01-22_11h28.01.006,MST_test,2024.2.0,60.74791618952257,2026-01-22 11h28.12.866842 +0530,
43,0,44,o,1.1327294999500737,None,44,0,43,447.5069439000217,,,,,,,,,,,,,,,,,,,,,,,,,,,,,,,,,,,,,,,,,,,,,,,,,,447.4909523000242,447.5069439000217,447.9921656000661,448.00598580006044,448.0254069000948,448.0254069000948,448.0254069000948,449.16336070001125,Objects\013a.jpg,pre,o,1.1327294999500737,None,,,,,,,,,00033,001,2026-01-22_11h28.01.006,MST_test,2024.2.0,60.74791618952257,2026-01-22 11h28.12.866842 +0530,
44,0,45,n,6.427504300023429,None,45,0,44,449.179604700068,,,,,,,,,,,,,,,,,,,,,,,,,,,,,,,,,,,,,,,,,,,,,,,,,,449.16346090007573,449.179604700068,449.6645685000112,449.686151000089,449.69907660002355,449.69907660002355,449.69907660002355,456.1377907000715,Scenes\141b.jpg,mid,n,6.427504300023429,None,,,,,,,,,00033,001,2026-01-22_11h28.01.006,MST_test,2024.2.0,60.74791618952257,2026-01-22 11h28.12.866842 +0530,
45,0,46,s,1.5180378999793902,None,46,0,45,456.15391130000353,,,,,,,,,,,,,,,,,,,,,,,,,,,,,,,,,,,,,,,,,,,,,,,,,,456.1378892000066,456.15391130000353,456.63911210000515,456.657206300064,456.67247440002393,456.67247440002393,456.67247440002393,458.1951461000135,Scenes\174a.jpg,post,s,1.5180378999793902,None,,,,,,,,,00033,001,2026-01-22_11h28.01.006,MST_test,2024.2.0,60.74791618952257,2026-01-22 11h28.12.866842 +0530,
46,0,47,o,8.132995199994184,None,47,0,46,458.2114539000904,,,,,,,,,,,,,,,,,,,,,,,,,,,,,,,,,,,,,,,,,,,,,,,,,,458.195246300078,458.2114539000904,458.69635610003024,458.7139667000156,458.72955350007396,458.72955350007396,458.72955350007396,466.87538430001587,Scenes\128a.jpg,pre,o,8.132995199994184,None,,,,,,,,,00033,001,2026-01-22_11h28.01.006,MST_test,2024.2.0,60.74791618952257,2026-01-22 11h28.12.866842 +0530,
47,0,48,n,7.684380499995314,None,48,0,47,466.89161630009767,,,,,,,,,,,,,,,,,,,,,,,,,,,,,,,,,,,,,,,,,,,,,,,,,,466.8754849000834,466.89161630009767,467.3766051999992,467.3993250000058,467.4102994001005,467.4102994001005,467.4102994001005,475.1042250000173,Scenes\015a.jpg,mid,n,7.684380499995314,None,,,,,,,,,00033,001,2026-01-22_11h28.01.006,MST_test,2024.2.0,60.74791618952257,2026-01-22 11h28.12.866842 +0530,
48,0,49,s,43.31934139993973,None,49,0,48,475.1204426001059,,,,,,,,,,,,,,,,,,,,,,,,,,,,,,,,,,,,,,,,,,,,,,,,,,475.1043216000544,475.1204426001059,475.60541380010545,475.62319780001417,475.6396263000788,475.6396263000788,475.6396263000788,518.9743785000173,Foils\scenes1.jpg,none,s,43.31934139993973,None,,,,,,,,,00033,001,2026-01-22_11h28.01.006,MST_test,2024.2.0,60.74791618952257,2026-01-22 11h28.12.866842 +0530,
49,0,50,s,5.463283100049011,None,50,0,49,518.9908860001015,,,,,,,,,,,,,,,,,,,,,,,,,,,,,,,,,,,,,,,,,,,,,,,,,,518.9744774000719,518.9908860001015,519.4757163000759,519.5105898000766,519.5267379001016,519.5267379001016,519.5267379001016,524.9954465000192,Foils\scenes28.jpg,none,s,5.463283100049011,None,,,,,,,,,00033,001,2026-01-22_11h28.01.006,MST_test,2024.2.0,60.74791618952257,2026-01-22 11h28.12.866842 +0530,
50,0,51,n,1.1391125000081956,None,51,0,50,525.011697400012,,,,,,,,,,,,,,,,,,,,,,,,,,,,,,,,,,,,,,,,,,,,,,,,,,524.9955435000593,525.011697400012,525.4970605000854,525.5185285001062,525.5311127000023,525.5311127000023,525.5311127000023,526.684900399996,Foils\scenes4.jpg,none,n,1.1391125000081956,None,,,,,,,,,00033,001,2026-01-22_11h28.01.006,MST_test,2024.2.0,60.74791618952257,2026-01-22 11h28.12.866842 +0530,
51,0,52,n,0.9065139000304043,None,52,0,51,526.7010667000432,,,,,,,,,,,,,,,,,,,,,,,,,,,,,,,,,,,,,,,,,,,,,,,,,,526.6849946000148,526.7010667000432,527.1866784000304,527.2052423000569,527.2194868000224,527.2194868000224,527.2194868000224,528.139960700064,Foils\scenes5.jpg,none,n,0.9065139000304043,None,,,,,,,,,00033,001,2026-01-22_11h28.01.006,MST_test,2024.2.0,60.74791618952257,2026-01-22 11h28.12.866842 +0530,
52,0,53,o,1.8584794000489637,None,53,0,52,528.1562366000144,,,,,,,,,,,,,,,,,,,,,,,,,,,,,,,,,,,,,,,,,,,,,,,,,,528.1400732001057,528.1562366000144,528.6411055000499,528.6628165000584,528.6755283999955,528.6755283999955,528.6755283999955,530.54840040009,Foils\066a.jpg,none,o,1.8584794000489637,None,,,,,,,,,00033,001,2026-01-22_11h28.01.006,MST_test,2024.2.0,60.74791618952257,2026-01-22 11h28.12.866842 +0530,
53,0,54,s,3.6410231000045314,None,54,0,53,530.5644794000546,,,,,,,,,,,,,,,,,,,,,,,,,,,,,,,,,,,,,,,,,,,,,,,,,,530.548497300013,530.5644794000546,531.0499138000887,531.0775301000103,531.1010911000194,531.1010911000194,531.1010911000194,534.7463280000957,Scenes\082b.jpg,pre,s,3.6410231000045314,None,,,,,,,,,00033,001,2026-01-22_11h28.01.006,MST_test,2024.2.0,60.74791618952257,2026-01-22 11h28.12.866842 +0530,
54,0,55,s,3.980582999996841,None,55,0,54,534.7626215000637,,,,,,,,,,,,,,,,,,,,,,,,,,,,,,,,,,,,,,,,,,,,,,,,,,534.7465103000868,534.7626215000637,535.2477004000684,535.2668970000232,535.2819431000389,535.2819431000389,535.2819431000389,539.2795107000275,Foils\scenes19.jpg,none,s,3.980582999996841,None,,,,,,,,,00033,001,2026-01-22_11h28.01.006,MST_test,2024.2.0,60.74791618952257,2026-01-22 11h28.12.866842 +0530,
55,0,56,o,1.5500693999929354,None,56,0,55,539.2955354000442,,,,,,,,,,,,,,,,,,,,,,,,,,,,,,,,,,,,,,,,,,,,,,,,,,539.2796055000508,539.2955354000442,539.7801103000529,539.8518080000067,539.8812497000908,539.8812497000908,539.8812497000908,541.4366297000088,Foils\scenes15.jpg,none,o,1.5500693999929354,None,,,,,,,,,00033,001,2026-01-22_11h28.01.006,MST_test,2024.2.0,60.74791618952257,2026-01-22 11h28.12.866842 +0530,
56,0,57,o,2.9221506000030786,None,57,0,56,541.4525988000678,,,,,,,,,,,,,,,,,,,,,,,,,,,,,,,,,,,,,,,,,,,,,,,,,,541.43672290002,541.4525988000678,541.9379421001067,541.9694631000748,541.9887814000249,541.9887814000249,541.9887814000249,544.9152825000929,Scenes\119a.jpg,post,o,2.9221506000030786,None,,,,,,,,,00033,001,2026-01-22_11h28.01.006,MST_test,2024.2.0,60.74791618952257,2026-01-22 11h28.12.866842 +0530,
57,0,58,n,7.28339130000677,None,58,0,57,544.9314414000837,,,,,,,,,,,,,,,,,,,,,,,,,,,,,,,,,,,,,,,,,,,,,,,,,,544.9153801000211,544.9314414000837,545.4166359000374,545.4548861000221,545.4675682000816,545.4675682000816,545.4675682000816,552.7598463000031,Scenes\001a.jpg,mid,n,7.28339130000677,None,,,,,,,,,00033,001,2026-01-22_11h28.01.006,MST_test,2024.2.0,60.74791618952257,2026-01-22 11h28.12.866842 +0530,
58,0,59,o,2.407385900034569,None,59,0,58,552.7755851000547,,,,,,,,,,,,,,,,,,,,,,,,,,,,,,,,,,,,,,,,,,,,,,,,,,552.7599514001049,552.7755851000547,553.2607713000616,553.3019725000486,553.3116331000347,553.3116331000347,553.3116331000347,555.7200309000909,Scenes\108b.jpg,pre,o,2.407385900034569,None,,,,,,,,,00033,001,2026-01-22_11h28.01.006,MST_test,2024.2.0,60.74791618952257,2026-01-22 11h28.12.866842 +0530,
59,0,60,o,1.615666399942711,None,60,0,59,555.7360643000575,,,,,,,,,,,,,,,,,,,,,,,,,,,,,,,,,,,,,,,,,,,,,,,,,,555.7201369000832,555.7360643000575,556.2210293000098,556.2368998000165,556.2551518999971,556.2551518999971,556.2551518999971,557.8781818000134,Objects\112a.jpg,mid,o,1.615666399942711,None,,,,,,,,,00033,001,2026-01-22_11h28.01.006,MST_test,2024.2.0,60.74791618952257,2026-01-22 11h28.12.866842 +0530,
60,0,61,s,10.720773500041105,None,61,0,60,557.8936625000788,,,,,,,,,,,,,,,,,,,,,,,,,,,,,,,,,,,,,,,,,,,,,,,,,,557.8782785000512,557.8936625000788,558.3788584000431,558.4114740000805,558.4297666000202,558.4297666000202,558.4297666000202,569.1670557000907,Scenes\050b.jpg,post,s,10.720773500041105,None,,,,,,,,,00033,001,2026-01-22_11h28.01.006,MST_test,2024.2.0,60.74791618952257,2026-01-22 11h28.12.866842 +0530,
61,0,62,o,2.136456900043413,None,62,0,61,569.1833167000441,,,,,,,,,,,,,,,,,,,,,,,,,,,,,,,,,,,,,,,,,,,,,,,,,,569.1671565000433,569.1833167000441,569.6681167000206,569.6908293000888,569.7017185000004,569.7017185000004,569.7017185000004,571.8429856000002,Scenes\138a.jpg,post,o,2.136456900043413,None,,,,,,,,,00033,001,2026-01-22_11h28.01.006,MST_test,2024.2.0,60.74791618952257,2026-01-22 11h28.12.866842 +0530,
62,0,63,o,3.165701900026761,None,63,0,62,571.8591804000316,,,,,,,,,,,,,,,,,,,,,,,,,,,,,,,,,,,,,,,,,,,,,,,,,,571.8430800000206,571.8591804000316,572.3441690000473,572.3657322000945,572.3774987000506,572.3774987000506,572.3774987000506,575.556008500047,Foils\017a.jpg,none,o,3.165701900026761,None,,,,,,,,,00033,001,2026-01-22_11h28.01.006,MST_test,2024.2.0,60.74791618952257,2026-01-22 11h28.12.866842 +0530,
63,0,64,n,7.9310359000228345,None,64,0,63,575.5721867000684,,,,,,,,,,,,,,,,,,,,,,,,,,,,,,,,,,,,,,,,,,,,,,,,,,575.5561037000734,575.5721867000684,576.057286700001,576.0774451000616,576.0917198000243,576.0917198000243,576.0917198000243,584.0357136999955,Foils\scenes6.jpg,none,n,7.9310359000228345,None,,,,,,,,,00033,001,2026-01-22_11h28.01.006,MST_test,2024.2.0,60.74791618952257,2026-01-22 11h28.12.866842 +0530,
64,0,65,s,7.747656400082633,None,65,0,64,584.0520862000994,,,,,,,,,,,,,,,,,,,,,,,,,,,,,,,,,,,,,,,,,,,,,,,,,,584.0358108000364,584.0520862000994,584.5368395000696,584.5608252000529,584.5712930000154,584.5712930000154,584.5712930000154,592.3314216000726,Scenes\107a.jpg,mid,s,7.747656400082633,None,,,,,,,,,00033,001,2026-01-22_11h28.01.006,MST_test,2024.2.0,60.74791618952257,2026-01-22 11h28.12.866842 +0530,
65,0,66,o,4.6745920000830665,None,66,0,65,592.3477293000324,,,,,,,,,,,,,,,,,,,,,,,,,,,,,,,,,,,,,,,,,,,,,,,,,,592.3315173001029,592.3477293000324,592.8326083000284,592.86088510009,592.8837563000852,592.8837563000852,592.8837563000852,597.5666217000689,Scenes\096b.jpg,post,o,4.6745920000830665,None,,,,,,,,,00033,001,2026-01-22_11h28.01.006,MST_test,2024.2.0,60.74791618952257,2026-01-22 11h28.12.866842 +0530,
66,0,67,n,2.724285800009966,None,67,0,66,597.5827210000716,,,,,,,,,,,,,,,,,,,,,,,,,,,,,,,,,,,,,,,,,,,,,,,,,,597.566719800001,597.5827210000716,598.0675569000887,598.1886674000416,598.2191406000638,598.2191406000638,598.2191406000638,600.9452258000383,Foils\scenes25.jpg,none,n,2.724285800009966,None,,,,,,,,,00033,001,2026-01-22_11h28.01.006,MST_test,2024.2.0,60.74791618952257,2026-01-22 11h28.12.866842 +0530,
67,0,68,n,1.5506096999160945,None,68,0,67,600.960977800074,,,,,,,,,,,,,,,,,,,,,,,,,,,,,,,,,,,,,,,,,,,,,,,,,,600.9453349000541,600.960977800074,601.4462015000172,601.4748519000132,601.4970447000815,601.4970447000815,601.4970447000815,603.0520773000317,Scenes\151a.jpg,mid,n,1.5506096999160945,None,,,,,,,,,00033,001,2026-01-22_11h28.01.006,MST_test,2024.2.0,60.74791618952257,2026-01-22 11h28.12.866842 +0530,
68,0,69,s,3.7230644000228494,None,69,0,68,603.0683501000749,,,,,,,,,,,,,,,,,,,,,,,,,,,,,,,,,,,,,,,,,,,,,,,,,,603.0521715000505,603.0683501000749,603.5535477000521,603.578337800107,603.5877137000207,603.5877137000207,603.5877137000207,607.3173049000325,Objects\006b.jpg,post,s,3.7230644000228494,None,,,,,,,,,00033,001,2026-01-22_11h28.01.006,MST_test,2024.2.0,60.74791618952257,2026-01-22 11h28.12.866842 +0530,
69,0,70,n,3.2086255999747664,None,70,0,69,607.3332989000482,,,,,,,,,,,,,,,,,,,,,,,,,,,,,,,,,,,,,,,,,,,,,,,,,,607.3174045000924,607.3332989000482,607.8184712000657,607.8650382000487,607.8859782000072,607.8859782000072,607.8859782000072,611.0971226000693,Scenes\009b.jpg,pre,n,3.2086255999747664,None,,,,,,,,,00033,001,2026-01-22_11h28.01.006,MST_test,2024.2.0,60.74791618952257,2026-01-22 11h28.12.866842 +0530,
70,0,71,n,1.270709399948828,None,71,0,70,611.1134527000831,,,,,,,,,,,,,,,,,,,,,,,,,,,,,,,,,,,,,,,,,,,,,,,,,,611.0972216000082,611.1134527000831,611.5982701000758,611.6199800000759,611.6316299000755,611.6316299000755,611.6316299000755,612.9034839000087,Foils\009a.jpg,none,n,1.270709399948828,None,,,,,,,,,00033,001,2026-01-22_11h28.01.006,MST_test,2024.2.0,60.74791618952257,2026-01-22 11h28.12.866842 +0530,
71,0,72,o,6.696021800045855,None,72,0,71,612.9196414001053,,,,,,,,,,,,,,,,,,,,,,,,,,,,,,,,,,,,,,,,,,,,,,,,,,612.9035823000595,612.9196414001053,613.4047241000226,613.4186101000523,613.4380701000337,613.4380701000337,613.4380701000337,620.1453748000786,Objects\192a.jpg,mid,o,6.696021800045855,None,,,,,,,,,00033,001,2026-01-22_11h28.01.006,MST_test,2024.2.0,60.74791618952257,2026-01-22 11h28.12.866842 +0530,
72,0,73,n,2.7808798000914976,None,73,0,72,620.161665200023,,,,,,,,,,,,,,,,,,,,,,,,,,,,,,,,,,,,,,,,,,,,,,,,,,620.1454743000213,620.161665200023,620.6466161001008,620.678927800036,620.6978339001071,620.6978339001071,620.6978339001071,623.4904628000222,Scenes\176b.jpg,mid,n,2.7808798000914976,None,,,,,,,,,00033,001,2026-01-22_11h28.01.006,MST_test,2024.2.0,60.74791618952257,2026-01-22 11h28.12.866842 +0530,
73,0,74,n,2.3580950000323355,None,74,0,73,623.5065934000304,,,,,,,,,,,,,,,,,,,,,,,,,,,,,,,,,,,,,,,,,,,,,,,,,,623.4905580000486,623.5065934000304,623.9917733001057,624.0070130000822,624.0253255000571,624.0253255000571,624.0253255000571,626.3842742000706,Objects\085a.jpg,mid,n,2.3580950000323355,None,,,,,,,,,00033,001,2026-01-22_11h28.01.006,MST_test,2024.2.0,60.74791618952257,2026-01-22 11h28.12.866842 +0530,
74,0,75,o,4.038301200023852,None,75,0,74,626.4003568000626,,,,,,,,,,,,,,,,,,,,,,,,,,,,,,,,,,,,,,,,,,,,,,,,,,626.384376400034,626.4003568000626,626.8853100000415,626.9130314000649,626.9364344000351,626.9364344000351,626.9364344000351,630.9838094000006,Scenes\014b.jpg,mid,o,4.038301200023852,None,,,,,,,,,00033,001,2026-01-22_11h28.01.006,MST_test,2024.2.0,60.74791618952257,2026-01-22 11h28.12.866842 +0530,
75,0,76,n,8.758258100016974,None,76,0,75,630.9996554000536,,,,,,,,,,,,,,,,,,,,,,,,,,,,,,,,,,,,,,,,,,,,,,,,,,630.9839064000407,630.9996554000536,631.4849020000547,631.5213240000885,631.5358178000897,631.5358178000897,631.5358178000897,640.2992777000181,Scenes\070b.jpg,pre,n,8.758258100016974,None,,,,,,,,,00033,001,2026-01-22_11h28.01.006,MST_test,2024.2.0,60.74791618952257,2026-01-22 11h28.12.866842 +0530,
76,0,77,n,3.013081100070849,None,77,0,76,640.3155843000859,,,,,,,,,,,,,,,,,,,,,,,,,,,,,,,,,,,,,,,,,,,,,,,,,,640.2993764000712,640.3155843000859,640.8005216000602,640.8357620000606,640.8507357999915,640.8507357999915,640.8507357999915,643.8788064999972,Scenes\093b.jpg,pre,n,3.013081100070849,None,,,,,,,,,00033,001,2026-01-22_11h28.01.006,MST_test,2024.2.0,60.74791618952257,2026-01-22 11h28.12.866842 +0530,
77,0,78,o,6.272853999980725,None,78,0,77,643.8954896000214,,,,,,,,,,,,,,,,,,,,,,,,,,,,,,,,,,,,,,,,,,,,,,,,,,643.8789061000571,643.8954896000214,644.3797182000708,644.3946044000331,644.4130767000606,644.4130767000606,644.4130767000606,650.702603999991,Objects\020a.jpg,pre,o,6.272853999980725,None,,,,,,,,,00033,001,2026-01-22_11h28.01.006,MST_test,2024.2.0,60.74791618952257,2026-01-22 11h28.12.866842 +0530,
78,0,79,s,3.8822194000240415,None,79,0,78,650.7185861000326,,,,,,,,,,,,,,,,,,,,,,,,,,,,,,,,,,,,,,,,,,,,,,,,,,650.702699800022,650.7185861000326,651.2036255000858,651.2262188000605,651.2371903000167,651.2371903000167,651.2371903000167,655.1346382000484,Objects\139b.jpg,mid,s,3.8822194000240415,None,,,,,,,,,00033,001,2026-01-22_11h28.01.006,MST_test,2024.2.0,60.74791618952257,2026-01-22 11h28.12.866842 +0530,
79,0,80,o,3.833796099992469,None,80,0,79,655.1508396000136,,,,,,,,,,,,,,,,,,,,,,,,,,,,,,,,,,,,,,,,,,,,,,,,,,655.1347341000801,655.1508396000136,655.6358208000893,655.6594679000555,655.6695405000355,655.6695405000355,655.6695405000355,659.5166083000368,Objects\119b.jpg,post,o,3.833796099992469,None,,,,,,,,,00033,001,2026-01-22_11h28.01.006,MST_test,2024.2.0,60.74791618952257,2026-01-22 11h28.12.866842 +0530,
80,0,81,o,2.922626900020987,None,81,0,80,659.5327434000792,,,,,,,,,,,,,,,,,,,,,,,,,,,,,,,,,,,,,,,,,,,,,,,,,,659.5167152000358,659.5327434000792,660.0179680000292,660.0410946999909,660.0513522000983,660.0513522000983,660.0513522000983,662.9786697000964,Scenes\073a.jpg,mid,o,2.922626900020987,None,,,,,,,,,00033,001,2026-01-22_11h28.01.006,MST_test,2024.2.0,60.74791618952257,2026-01-22 11h28.12.866842 +0530,
81,0,82,s,6.964648099965416,None,82,0,81,662.9948718000669,,,,,,,,,,,,,,,,,,,,,,,,,,,,,,,,,,,,,,,,,,,,,,,,,,662.9787674000254,662.9948718000669,663.4800602000905,663.5026139999973,663.5142748000799,663.5142748000799,663.5142748000799,670.4886133000255,Scenes\139a.jpg,post,s,6.964648099965416,None,,,,,,,,,00033,001,2026-01-22_11h28.01.006,MST_test,2024.2.0,60.74791618952257,2026-01-22 11h28.12.866842 +0530,
82,0,83,n,3.5988322999328375,None,83,0,82,670.5047426000237,,,,,,,,,,,,,,,,,,,,,,,,,,,,,,,,,,,,,,,,,,,,,,,,,,670.4887113000732,670.5047426000237,670.9895761000225,671.0055623000953,671.0236623000819,671.0236623000819,671.0236623000819,674.636385000078,Objects\144a.jpg,post,n,3.5988322999328375,None,,,,,,,,,00033,001,2026-01-22_11h28.01.006,MST_test,2024.2.0,60.74791618952257,2026-01-22 11h28.12.866842 +0530,
83,0,84,s,5.915907200076617,None,84,0,83,674.6529467999935,,,,,,,,,,,,,,,,,,,,,,,,,,,,,,,,,,,,,,,,,,,,,,,,,,674.6364852000261,674.6529467999935,675.1377299000742,675.162099200068,675.1709140000166,675.1709140000166,675.1709140000166,681.0923134000041,Foils\086a.jpg,none,s,5.915907200076617,None,,,,,,,,,00033,001,2026-01-22_11h28.01.006,MST_test,2024.2.0,60.74791618952257,2026-01-22 11h28.12.866842 +0530,
84,0,85,s,15.915888900053687,None,85,0,84,681.1084154000273,,,,,,,,,,,,,,,,,,,,,,,,,,,,,,,,,,,,,,,,,,,,,,,,,,681.0924145000754,681.1084154000273,681.5934852000792,681.6165888000978,681.6268532000249,681.6268532000249,681.6268532000249,697.5499804000137,Scenes\186a.jpg,post,s,15.915888900053687,None,,,,,,,,,00033,001,2026-01-22_11h28.01.006,MST_test,2024.2.0,60.74791618952257,2026-01-22 11h28.12.866842 +0530,
85,0,86,o,3.6097917000297457,None,86,0,85,697.5660893000895,,,,,,,,,,,,,,,,,,,,,,,,,,,,,,,,,,,,,,,,,,,,,,,,,,697.550079000066,697.5660893000895,698.0511411000043,698.069488100009,698.0846145000542,698.0846145000542,698.0846145000542,701.6977697000839,Objects\004a.jpg,mid,o,3.6097917000297457,None,,,,,,,,,00033,001,2026-01-22_11h28.01.006,MST_test,2024.2.0,60.74791618952257,2026-01-22 11h28.12.866842 +0530,
86,0,87,o,9.422398200025782,None,87,0,86,701.7137783000944,,,,,,,,,,,,,,,,,,,,,,,,,,,,,,,,,,,,,,,,,,,,,,,,,,701.6978659000015,701.7137783000944,702.1989867000375,702.2213339000009,702.2322336999932,702.2322336999932,702.2322336999932,711.6660035999957,Foils\113a.jpg,none,o,9.422398200025782,None,,,,,,,,,00033,001,2026-01-22_11h28.01.006,MST_test,2024.2.0,60.74791618952257,2026-01-22 11h28.12.866842 +0530,
87,0,88,n,1.3181984999682754,None,88,0,87,711.6820135000162,,,,,,,,,,,,,,,,,,,,,,,,,,,,,,,,,,,,,,,,,,,,,,,,,,711.6660969000077,711.6820135000162,712.1673506000079,712.1904379000189,712.2004548000405,712.2004548000405,712.2004548000405,713.5223119000439,Objects\136b.jpg,mid,n,1.3181984999682754,None,,,,,,,,,00033,001,2026-01-22_11h28.01.006,MST_test,2024.2.0,60.74791618952257,2026-01-22 11h28.12.866842 +0530,
88,0,89,n,1.1173322000540793,None,89,0,88,713.5385224000784,,,,,,,,,,,,,,,,,,,,,,,,,,,,,,,,,,,,,,,,,,,,,,,,,,713.5224044000497,713.5385224000784,714.0238517000107,714.0444841000717,714.0570847000927,714.0570847000927,714.0570847000927,715.1780982000055,Objects\097b.jpg,pre,n,1.1173322000540793,None,,,,,,,,,00033,001,2026-01-22_11h28.01.006,MST_test,2024.2.0,60.74791618952257,2026-01-22 11h28.12.866842 +0530,
89,0,90,n,3.3236053999280557,None,90,0,89,715.194313700078,,,,,,,,,,,,,,,,,,,,,,,,,,,,,,,,,,,,,,,,,,,,,,,,,,715.178192100022,715.194313700078,715.679932900006,715.7272144000744,715.7470083000371,715.7470083000371,715.7470083000371,719.0751344000455,Scenes\164b.jpg,pre,n,3.3236053999280557,None,,,,,,,,,00033,001,2026-01-22_11h28.01.006,MST_test,2024.2.0,60.74791618952257,2026-01-22 11h28.12.866842 +0530,
90,0,91,n,3.2367125999880955,None,91,0,90,719.0912931000348,,,,,,,,,,,,,,,,,,,,,,,,,,,,,,,,,,,,,,,,,,,,,,,,,,719.0752266000491,719.0912931000348,719.5765227000229,719.6006810000399,719.6099665000802,719.6099665000802,719.6099665000802,722.8551003000466,Objects\079b.jpg,post,n,3.2367125999880955,None,,,,,,,,,00033,001,2026-01-22_11h28.01.006,MST_test,2024.2.0,60.74791618952257,2026-01-22 11h28.12.866842 +0530,
91,0,92,o,9.423707899986766,None,92,0,91,722.8712015000638,,,,,,,,,,,,,,,,,,,,,,,,,,,,,,,,,,,,,,,,,,,,,,,,,,722.8551998001058,722.8712015000638,723.3563985000364,723.385792999994,723.4064878000645,723.4064878000645,723.4064878000645,732.8399858000921,Scenes\122a.jpg,post,o,9.423707899986766,None,,,,,,,,,00033,001,2026-01-22_11h28.01.006,MST_test,2024.2.0,60.74791618952257,2026-01-22 11h28.12.866842 +0530,
92,0,93,o,5.503122399910353,None,93,0,92,732.8564730000217,,,,,,,,,,,,,,,,,,,,,,,,,,,,,,,,,,,,,,,,,,,,,,,,,,732.840081900009,732.8564730000217,733.3414023000514,733.355798900011,733.3749019000679,733.3749019000679,733.3749019000679,738.8946221000515,Objects\054a.jpg,pre,o,5.503122399910353,None,,,,,,,,,00033,001,2026-01-22_11h28.01.006,MST_test,2024.2.0,60.74791618952257,2026-01-22 11h28.12.866842 +0530,
93,0,94,n,3.433690700097941,None,94,0,93,738.9107041000389,,,,,,,,,,,,,,,,,,,,,,,,,,,,,,,,,,,,,,,,,,,,,,,,,,738.8947150000604,738.9107041000389,739.3960914000636,739.417603900074,739.4291352001019,739.4291352001019,739.4291352001019,742.8751665001037,Foils\050a.jpg,none,n,3.433690700097941,None,,,,,,,,,00033,001,2026-01-22_11h28.01.006,MST_test,2024.2.0,60.74791618952257,2026-01-22 11h28.12.866842 +0530,
94,0,95,n,4.044869299978018,None,95,0,94,742.8916336999973,,,,,,,,,,,,,,,,,,,,,,,,,,,,,,,,,,,,,,,,,,,,,,,,,,742.8752644000342,742.8916336999973,743.3763840000611,743.3995218999917,743.4099714000477,743.4099714000477,743.4099714000477,747.4578430000693,Objects\131b.jpg,post,n,4.044869299978018,None,,,,,,,,,00033,001,2026-01-22_11h28.01.006,MST_test,2024.2.0,60.74791618952257,2026-01-22 11h28.12.866842 +0530,
95,0,96,s,5.445318300044164,None,96,0,95,747.4740899000317,,,,,,,,,,,,,,,,,,,,,,,,,,,,,,,,,,,,,,,,,,,,,,,,,,747.4580123000778,747.4740899000317,747.9592062000884,747.976952200057,747.9935174999991,747.9935174999991,747.9935174999991,753.4454924000893,Foils\scenes11.jpg,none,s,5.445318300044164,None,,,,,,,,,00033,001,2026-01-22_11h28.01.006,MST_test,2024.2.0,60.74791618952257,2026-01-22 11h28.12.866842 +0530,
96,0,97,s,1.4660656999330968,None,97,0,96,753.4617713000625,,,,,,,,,,,,,,,,,,,,,,,,,,,,,,,,,,,,,,,,,,,,,,,,,,753.4455927000381,753.4617713000625,753.9467412000522,753.9702957000118,753.9802290000953,753.9802290000953,753.9802290000953,755.4526892000576,Objects\166b.jpg,mid,s,1.4660656999330968,None,,,,,,,,,00033,001,2026-01-22_11h28.01.006,MST_test,2024.2.0,60.74791618952257,2026-01-22 11h28.12.866842 +0530,
97,0,98,s,2.9153932000044733,None,98,0,97,755.4688026000513,,,,,,,,,,,,,,,,,,,,,,,,,,,,,,,,,,,,,,,,,,,,,,,,,,755.4527841000818,755.4688026000513,755.9537865000311,755.9763750000857,755.9872470000992,755.9872470000992,755.9872470000992,758.9149150000885,Objects\106b.jpg,mid,s,2.9153932000044733,None,,,,,,,,,00033,001,2026-01-22_11h28.01.006,MST_test,2024.2.0,60.74791618952257,2026-01-22 11h28.12.866842 +0530,
98,0,99,o,5.341385500039905,None,99,0,98,758.9313479000703,,,,,,,,,,,,,,,,,,,,,,,,,,,,,,,,,,,,,,,,,,,,,,,,,,758.9150169000495,758.9313479000703,759.4160363000119,759.438365100068,759.4493666000199,759.4493666000199,759.4493666000199,764.8020014000358,Objects\127b.jpg,post,o,5.341385500039905,None,,,,,,,,,00033,001,2026-01-22_11h28.01.006,MST_test,2024.2.0,60.74791618952257,2026-01-22 11h28.12.866842 +0530,
99,0,100,n,1.1724268000107259,None,100,0,99,764.8184500000207,,,,,,,,,,,,,,,,,,,,,,,,,,,,,,,,,,,,,,,,,,,,,,,,,,764.8021042000037,764.8184500000207,765.3044052000623,765.326911500073,765.3376919000875,765.3376919000875,765.3376919000875,766.5245597000467,Foils\105a.jpg,none,n,1.1724268000107259,None,,,,,,,,,00033,001,2026-01-22_11h28.01.006,MST_test,2024.2.0,60.74791618952257,2026-01-22 11h28.12.866842 +0530,
100,0,101,o,4.866908399970271,None,101,0,100,766.5414680000395,,,,,,,,,,,,,,,,,,,,,,,,,,,,,,,,,,,,,,,,,,,,,,,,,,766.5246598999947,766.5414680000395,767.0263866001042,767.0399857000448,767.0595803000033,767.0595803000033,767.0595803000033,771.9438966000453,Objects\110a.jpg,pre,o,4.866908399970271,None,,,,,,,,,00033,001,2026-01-22_11h28.01.006,MST_test,2024.2.0,60.74791618952257,2026-01-22 11h28.12.866842 +0530,
101,0,102,n,1.6965121999382973,None,102,0,101,771.9597610000055,,,,,,,,,,,,,,,,,,,,,,,,,,,,,,,,,,,,,,,,,,,,,,,,,,771.9439952000976,771.9597610000055,772.4449521000497,772.4680797000183,772.4781923000701,772.4781923000701,772.4781923000701,774.184861900052,Foils\034a.jpg,none,n,1.6965121999382973,None,,,,,,,,,00033,001,2026-01-22_11h28.01.006,MST_test,2024.2.0,60.74791618952257,2026-01-22 11h28.12.866842 +0530,
102,0,103,o,2.9274858999997377,None,103,0,102,774.2010575000895,,,,,,,,,,,,,,,,,,,,,,,,,,,,,,,,,,,,,,,,,,,,,,,,,,774.1849543000571,774.2010575000895,774.6860505000222,774.6996559000108,774.7194968000986,774.7194968000986,774.7194968000986,777.6478042000672,Objects\010a.jpg,post,o,2.9274858999997377,None,,,,,,,,,00033,001,2026-01-22_11h28.01.006,MST_test,2024.2.0,60.74791618952257,2026-01-22 11h28.12.866842 +0530,
103,0,104,s,2.462742200004868,None,104,0,103,777.6630844000028,,,,,,,,,,,,,,,,,,,,,,,,,,,,,,,,,,,,,,,,,,,,,,,,,,777.6479233000427,777.6630844000028,778.1484966001008,778.1927667000564,778.2158524000552,778.2158524000552,778.2158524000552,780.691153599997,Scenes\065b.jpg,pre,s,2.462742200004868,None,,,,,,,,,00033,001,2026-01-22_11h28.01.006,MST_test,2024.2.0,60.74791618952257,2026-01-22 11h28.12.866842 +0530,
104,0,105,s,6.099230300053023,None,105,0,104,780.7070613000542,,,,,,,,,,,,,,,,,,,,,,,,,,,,,,,,,,,,,,,,,,,,,,,,,,780.6912508000387,780.7070613000542,781.1924121000338,781.2315144001041,781.2430242000846,781.2430242000846,781.2430242000846,787.3474666000111,Scenes\047b.jpg,pre,s,6.099230300053023,None,,,,,,,,,00033,001,2026-01-22_11h28.01.006,MST_test,2024.2.0,60.74791618952257,2026-01-22 11h28.12.866842 +0530,
105,0,106,n,3.275823999894783,None,106,0,105,787.3638109000167,,,,,,,,,,,,,,,,,,,,,,,,,,,,,,,,,,,,,,,,,,,,,,,,,,787.3475598000223,787.3638109000167,787.8488906000275,787.8870439000893,787.8989538000897,787.8989538000897,787.8989538000897,791.1777121000923,Scenes\024b.jpg,post,n,3.275823999894783,None,,,,,,,,,00033,001,2026-01-22_11h28.01.006,MST_test,2024.2.0,60.74791618952257,2026-01-22 11h28.12.866842 +0530,
106,0,107,n,1.7894688999513164,None,107,0,106,791.1940245000878,,,,,,,,,,,,,,,,,,,,,,,,,,,,,,,,,,,,,,,,,,,,,,,,,,791.1778085000115,791.1940245000878,791.6790391000686,791.7031581000192,791.7126552000409,791.7126552000409,791.7126552000409,793.5024781000102,Scenes\028a.jpg,post,n,1.7894688999513164,None,,,,,,,,,00033,001,2026-01-22_11h28.01.006,MST_test,2024.2.0,60.74791618952257,2026-01-22 11h28.12.866842 +0530,
107,0,108,s,5.271723999991082,None,108,0,107,793.5187157000182,,,,,,,,,,,,,,,,,,,,,,,,,,,,,,,,,,,,,,,,,,,,,,,,,,793.5025834999979,793.5187157000182,794.0037857000716,794.0288055000128,794.0384207000025,794.0384207000025,794.0384207000025,799.322723200079,Objects\036b.jpg,post,s,5.271723999991082,None,,,,,,,,,00033,001,2026-01-22_11h28.01.006,MST_test,2024.2.0,60.74791618952257,2026-01-22 11h28.12.866842 +0530,
108,0,109,o,4.083828700007871,None,109,0,108,799.3389662000118,,,,,,,,,,,,,,,,,,,,,,,,,,,,,,,,,,,,,,,,,,,,,,,,,,799.3228179001017,799.3389662000118,799.8241699000355,799.8550154000986,799.8750450999942,799.8750450999942,799.8750450999942,803.9732212000526,Scenes\071b.jpg,mid,o,4.083828700007871,None,,,,,,,,,00033,001,2026-01-22_11h28.01.006,MST_test,2024.2.0,60.74791618952257,2026-01-22 11h28.12.866842 +0530,
109,0,110,o,2.722263600095175,None,110,0,109,803.9886080001015,,,,,,,,,,,,,,,,,,,,,,,,,,,,,,,,,,,,,,,,,,,,,,,,,,803.9733228000114,803.9886080001015,804.474003600073,804.5141796000535,804.5249141000677,804.5249141000677,804.5249141000677,807.250725000049,Scenes\085b.jpg,pre,o,2.722263600095175,None,,,,,,,,,00033,001,2026-01-22_11h28.01.006,MST_test,2024.2.0,60.74791618952257,2026-01-22 11h28.12.866842 +0530,
110,0,111,o,2.1170710999285802,None,111,0,110,807.2667817000765,,,,,,,,,,,,,,,,,,,,,,,,,,,,,,,,,,,,,,,,,,,,,,,,,,807.2508452000329,807.2667817000765,807.7520569000626,807.7758325000759,807.7860383000225,807.7860383000225,807.7860383000225,809.9101635999978,Objects\058b.jpg,pre,o,2.1170710999285802,None,,,,,,,,,00033,001,2026-01-22_11h28.01.006,MST_test,2024.2.0,60.74791618952257,2026-01-22 11h28.12.866842 +0530,
111,0,112,o,1.8979343000100926,None,112,0,111,809.926224200055,,,,,,,,,,,,,,,,,,,,,,,,,,,,,,,,,,,,,,,,,,,,,,,,,,809.9102906000335,809.926224200055,810.4113273000112,810.4258930000942,810.444484100095,810.444484100095,810.444484100095,812.3517706000712,Objects\143a.jpg,pre,o,1.8979343000100926,None,,,,,,,,,00033,001,2026-01-22_11h28.01.006,MST_test,2024.2.0,60.74791618952257,2026-01-22 11h28.12.866842 +0530,
112,0,113,o,2.166750999982469,None,113,0,112,812.3680441000033,,,,,,,,,,,,,,,,,,,,,,,,,,,,,,,,,,,,,,,,,,,,,,,,,,812.351870500017,812.3680441000033,812.8529993999982,812.8861789000221,812.9040555000538,812.9040555000538,812.9040555000538,815.0780341000063,Scenes\147b.jpg,post,o,2.166750999982469,None,,,,,,,,,00033,001,2026-01-22_11h28.01.006,MST_test,2024.2.0,60.74791618952257,2026-01-22 11h28.12.866842 +0530,
113,0,114,n,1.8662604000419378,None,114,0,113,815.0941411000676,,,,,,,,,,,,,,,,,,,,,,,,,,,,,,,,,,,,,,,,,,,,,,,,,,815.0781320000533,815.0941411000676,815.5793230000418,815.6004507000325,815.6125742000295,815.6125742000295,815.6125742000295,817.4864969000919,Foils\026a.jpg,none,n,1.8662604000419378,None,,,,,,,,,00033,001,2026-01-22_11h28.01.006,MST_test,2024.2.0,60.74791618952257,2026-01-22 11h28.12.866842 +0530,
114,0,115,n,5.4725897999014705,None,115,0,114,817.5027373000048,,,,,,,,,,,,,,,,,,,,,,,,,,,,,,,,,,,,,,,,,,,,,,,,,,817.4865994000575,817.5027373000048,817.9879495000932,818.0054584000027,818.0220288001001,818.0220288001001,818.0220288001001,823.5080634000478,Foils\scenes30.jpg,none,n,5.4725897999014705,None,,,,,,,,,00033,001,2026-01-22_11h28.01.006,MST_test,2024.2.0,60.74791618952257,2026-01-22 11h28.12.866842 +0530,
115,0,116,n,1.330607600044459,None,116,0,115,823.5237871001009,,,,,,,,,,,,,,,,,,,,,,,,,,,,,,,,,,,,,,,,,,,,,,,,,,823.5081613000948,823.5237871001009,824.008889400051,824.042765900027,824.0599671000382,824.0599671000382,824.0599671000382,825.3976863001008,Scenes\115b.jpg,pre,n,1.330607600044459,None,,,,,,,,,00033,001,2026-01-22_11h28.01.006,MST_test,2024.2.0,60.74791618952257,2026-01-22 11h28.12.866842 +0530,
116,0,117,o,4.7446735999546945,None,117,0,116,825.4136094000423,,,,,,,,,,,,,,,,,,,,,,,,,,,,,,,,,,,,,,,,,,,,,,,,,,825.3977823000168,825.4136094000423,825.8995304000564,825.9393338999944,825.949892600067,825.949892600067,825.949892600067,830.6995350000216,Scenes\046a.jpg,post,o,4.7446735999546945,None,,,,,,,,,00033,001,2026-01-22_11h28.01.006,MST_test,2024.2.0,60.74791618952257,2026-01-22 11h28.12.866842 +0530,
117,0,118,n,5.2129334000637755,None,118,0,117,830.7155124000274,,,,,,,,,,,,,,,,,,,,,,,,,,,,,,,,,,,,,,,,,,,,,,,,,,830.6996280000312,830.7155124000274,831.2007121000206,831.2236826000735,831.2348353000125,831.2348353000125,831.2348353000125,836.4528552000411,Scenes\109a.jpg,post,n,5.2129334000637755,None,,,,,,,,,00033,001,2026-01-22_11h28.01.006,MST_test,2024.2.0,60.74791618952257,2026-01-22 11h28.12.866842 +0530,
118,0,119,n,1.2169278000947088,None,119,0,118,836.4691036000149,,,,,,,,,,,,,,,,,,,,,,,,,,,,,,,,,,,,,,,,,,,,,,,,,,836.4529518000782,836.4691036000149,836.9540612000274,836.9886671000859,837.0050429000985,837.0050429000985,837.0050429000985,838.2258207000559,Scenes\004b.jpg,mid,n,1.2169278000947088,None,,,,,,,,,00033,001,2026-01-22_11h28.01.006,MST_test,2024.2.0,60.74791618952257,2026-01-22 11h28.12.866842 +0530,
119,0,120,s,11.397444799891673,None,120,0,119,838.2419764000224,,,,,,,,,,,,,,,,,,,,,,,,,,,,,,,,,,,,,,,,,,,,,,,,,,838.2259210000047,838.2419764000224,838.7269845000701,838.7437009999994,838.7614734000526,838.7614734000526,838.7614734000526,850.167838399997,Objects\088a.jpg,pre,s,11.397444799891673,None,,,,,,,,,00033,001,2026-01-22_11h28.01.006,MST_test,2024.2.0,60.74791618952257,2026-01-22 11h28.12.866842 +0530,
120,0,121,n,3.639210099936463,None,121,0,120,850.1836832000408,,,,,,,,,,,,,,,,,,,,,,,,,,,,,,,,,,,,,,,,,,,,,,,,,,850.1679337000242,850.1836832000408,850.6689782000612,850.6990322000347,850.7188357000705,850.7188357000705,850.7188357000705,854.3656061000656,Scenes\170a.jpg,mid,n,3.639210099936463,None,,,,,,,,,00033,001,2026-01-22_11h28.01.006,MST_test,2024.2.0,60.74791618952257,2026-01-22 11h28.12.866842 +0530,
121,0,122,s,3.064651299966499,None,122,0,121,854.3820266000694,,,,,,,,,,,,,,,,,,,,,,,,,,,,,,,,,,,,,,,,,,,,,,,,,,854.365711200051,854.3820266000694,854.8668029000983,854.9036597000668,854.9178446000442,854.9178446000442,854.9178446000442,857.9948314999929,Scenes\027b.jpg,mid,s,3.064651299966499,None,,,,,,,,,00033,001,2026-01-22_11h28.01.006,MST_test,2024.2.0,60.74791618952257,2026-01-22 11h28.12.866842 +0530,
122,0,123,o,6.451920400024392,None,123,0,122,858.0111570000881,,,,,,,,,,,,,,,,,,,,,,,,,,,,,,,,,,,,,,,,,,,,,,,,,,857.9949235999957,858.0111570000881,858.4962979000993,858.5284338000929,858.5463865000056,858.5463865000056,858.5463865000056,865.0030002000276,Scenes\160b.jpg,mid,o,6.451920400024392,None,,,,,,,,,00033,001,2026-01-22_11h28.01.006,MST_test,2024.2.0,60.74791618952257,2026-01-22 11h28.12.866842 +0530,
123,0,124,o,18.77255570003763,None,124,0,123,865.0190567000536,,,,,,,,,,,,,,,,,,,,,,,,,,,,,,,,,,,,,,,,,,,,,,,,,,865.0030989000807,865.0190567000536,865.5041457000189,865.5193029000657,865.5382372000022,865.5382372000022,865.5382372000022,884.3203491000459,Objects\147a.jpg,pre,o,18.77255570003763,None,,,,,,,,,00033,001,2026-01-22_11h28.01.006,MST_test,2024.2.0,60.74791618952257,2026-01-22 11h28.12.866842 +0530,
124,0,125,s,1.3512574000051245,None,125,0,124,884.3375663000625,,,,,,,,,,,,,,,,,,,,,,,,,,,,,,,,,,,,,,,,,,,,,,,,,,884.3204453000799,884.3375663000625,884.8219261000631,884.8440917000407,884.8550521000288,884.8550521000288,884.8550521000288,886.2106040000217,Objects\123b.jpg,post,s,1.3512574000051245,None,,,,,,,,,00033,001,2026-01-22_11h28.01.006,MST_test,2024.2.0,60.74791618952257,2026-01-22 11h28.12.866842 +0530,
125,0,126,o,3.4046393999597058,None,126,0,125,886.2265509000281,,,,,,,,,,,,,,,,,,,,,,,,,,,,,,,,,,,,,,,,,,,,,,,,,,886.2106973000336,886.2265509000281,886.7118933000602,886.7348146000877,886.7458173000487,886.7458173000487,886.7458173000487,890.1575252000475,Scenes\033b.jpg,pre,o,3.4046393999597058,None,,,,,,,,,00033,001,2026-01-22_11h28.01.006,MST_test,2024.2.0,60.74791618952257,2026-01-22 11h28.12.866842 +0530,
126,0,127,n,1.2799854999175295,None,127,0,126,890.1738298001001,,,,,,,,,,,,,,,,,,,,,,,,,,,,,,,,,,,,,,,,,,,,,,,,,,890.1576279000146,890.1738298001001,890.6589101999998,890.6764055000385,890.6938619000139,890.6938619000139,890.6938619000139,891.9806906000013,Scenes\022a.jpg,mid,n,1.2799854999175295,None,,,,,,,,,00033,001,2026-01-22_11h28.01.006,MST_test,2024.2.0,60.74791618952257,2026-01-22 11h28.12.866842 +0530,
127,0,128,n,2.2666279000695795,None,128,0,127,891.9968754000729,,,,,,,,,,,,,,,,,,,,,,,,,,,,,,,,,,,,,,,,,,,,,,,,,,891.9807854000246,891.9968754000729,892.4821039000526,892.5149962001015,892.5328812000807,892.5328812000807,892.5328812000807,894.8073289000895,Scenes\169b.jpg,mid,n,2.2666279000695795,None,,,,,,,,,00033,001,2026-01-22_11h28.01.006,MST_test,2024.2.0,60.74791618952257,2026-01-22 11h28.12.866842 +0530,
128,0,129,o,1.1023170000407845,None,129,0,128,894.8233326000627,,,,,,,,,,,,,,,,,,,,,,,,,,,,,,,,,,,,,,,,,,,,,,,,,,894.8074240999995,894.8233326000627,895.3086539000506,895.3308024000144,895.3761919999961,895.3761919999961,895.3761919999961,896.479874300072,Foils\010a.jpg,none,o,1.1023170000407845,None,,,,,,,,,00033,001,2026-01-22_11h28.01.006,MST_test,2024.2.0,60.74791618952257,2026-01-22 11h28.12.866842 +0530,
129,0,130,o,3.6549158000852913,None,130,0,129,896.4961266000755,,,,,,,,,,,,,,,,,,,,,,,,,,,,,,,,,,,,,,,,,,,,,,,,,,896.4799685000908,896.4961266000755,896.9810104999924,897.0142887000693,897.031615300104,897.031615300104,897.031615300104,900.6948239000048,Scenes\075b.jpg,post,o,3.6549158000852913,None,,,,,,,,,00033,001,2026-01-22_11h28.01.006,MST_test,2024.2.0,60.74791618952257,2026-01-22 11h28.12.866842 +0530,
130,0,131,o,2.7605487999971956,None,131,0,130,900.7108947000233,,,,,,,,,,,,,,,,,,,,,,,,,,,,,,,,,,,,,,,,,,,,,,,,,,900.6949222000549,900.7108947000233,901.1958749000914,901.2091517000226,901.2292679999955,901.2292679999955,901.2292679999955,904.0065886999946,Objects\057a.jpg,post,o,2.7605487999971956,None,,,,,,,,,00033,001,2026-01-22_11h28.01.006,MST_test,2024.2.0,60.74791618952257,2026-01-22 11h28.12.866842 +0530,
131,0,132,o,1.3781877000583336,None,132,0,131,904.022454900085,,,,,,,,,,,,,,,,,,,,,,,,,,,,,,,,,,,,,,,,,,,,,,,,,,904.0066867000423,904.022454900085,904.5074353000382,904.5212225000141,904.5408140000654,904.5408140000654,904.5408140000654,905.9294660000596,Objects\002a.jpg,post,o,1.3781877000583336,None,,,,,,,,,00033,001,2026-01-22_11h28.01.006,MST_test,2024.2.0,60.74791618952257,2026-01-22 11h28.12.866842 +0530,
132,0,133,s,2.325728200026788,None,133,0,132,905.9456231000368,,,,,,,,,,,,,,,,,,,,,,,,,,,,,,,,,,,,,,,,,,,,,,,,,,905.9295731000602,905.9456231000368,906.4309594000224,906.4517887000693,906.464214000036,906.464214000036,906.464214000036,908.8061479000608,Foils\081a.jpg,none,s,2.325728200026788,None,,,,,,,,,00033,001,2026-01-22_11h28.01.006,MST_test,2024.2.0,60.74791618952257,2026-01-22 11h28.12.866842 +0530,
133,0,134,o,1.273780700052157,None,134,0,133,908.8226410000352,,,,,,,,,,,,,,,,,,,,,,,,,,,,,,,,,,,,,,,,,,,,,,,,,,908.8062482000096,908.8226410000352,909.3074479000643,909.3221770999953,909.3409103000304,909.3409103000304,909.3409103000304,910.6294053000165,Objects\157a.jpg,pre,o,1.273780700052157,None,,,,,,,,,00033,001,2026-01-22_11h28.01.006,MST_test,2024.2.0,60.74791618952257,2026-01-22 11h28.12.866842 +0530,
134,0,135,o,2.1143988000694662,None,135,0,134,910.6455115000717,,,,,,,,,,,,,,,,,,,,,,,,,,,,,,,,,,,,,,,,,,,,,,,,,,910.6294994000345,910.6455115000717,911.1304768000264,911.1446491000243,911.1640638000099,911.1640638000099,911.1640638000099,913.2885996000841,Objects\173a.jpg,mid,o,2.1143988000694662,None,,,,,,,,,00033,001,2026-01-22_11h28.01.006,MST_test,2024.2.0,60.74791618952257,2026-01-22 11h28.12.866842 +0530,
135,0,136,n,4.486726499977522,None,136,0,135,913.3048345000716,,,,,,,,,,,,,,,,,,,,,,,,,,,,,,,,,,,,,,,,,,,,,,,,,,913.2886917000869,913.3048345000716,913.7897868000437,913.8127119001001,913.8232668000273,913.8232668000273,913.8232668000273,918.3229837000836,Foils\033a.jpg,none,n,4.486726499977522,None,,,,,,,,,00033,001,2026-01-22_11h28.01.006,MST_test,2024.2.0,60.74791618952257,2026-01-22 11h28.12.866842 +0530,
136,0,137,o,3.549099799944088,None,137,0,136,918.3392826000927,,,,,,,,,,,,,,,,,,,,,,,,,,,,,,,,,,,,,,,,,,,,,,,,,,918.3230831000255,918.3392826000927,918.8242530000862,918.8380561000668,918.8577335000737,918.8577335000737,918.8577335000737,922.4204781000735,Objects\072a.jpg,mid,o,3.549099799944088,None,,,,,,,,,00033,001,2026-01-22_11h28.01.006,MST_test,2024.2.0,60.74791618952257,2026-01-22 11h28.12.866842 +0530,
137,0,138,o,2.314031600020826,None,138,0,137,922.4369723000564,,,,,,,,,,,,,,,,,,,,,,,,,,,,,,,,,,,,,,,,,,,,,,,,,,922.4205718000885,922.4369723000564,922.9219329000916,922.9467618000926,922.9562928000232,922.9562928000232,922.9562928000232,925.2803131000837,Scenes\140a.jpg,pre,o,2.314031600020826,None,,,,,,,,,00033,001,2026-01-22_11h28.01.006,MST_test,2024.2.0,60.74791618952257,2026-01-22 11h28.12.866842 +0530,
138,0,139,o,5.0634758999804035,None,139,0,138,925.2969900000608,,,,,,,,,,,,,,,,,,,,,,,,,,,,,,,,,,,,,,,,,,,,,,,,,,925.2804095000029,925.2969900000608,925.7822715000948,925.8067900000606,925.815566000063,925.815566000063,925.815566000063,930.8837405000813,Objects\092b.jpg,pre,o,5.0634758999804035,None,,,,,,,,,00033,001,2026-01-22_11h28.01.006,MST_test,2024.2.0,60.74791618952257,2026-01-22 11h28.12.866842 +0530,
139,0,140,s,1.2914689000463113,None,140,0,139,930.8999074000167,,,,,,,,,,,,,,,,,,,,,,,,,,,,,,,,,,,,,,,,,,,,,,,,,,930.8838393000187,930.8999074000167,931.3848660000367,931.4063484000508,931.4192728000926,931.4192728000926,931.4192728000926,932.7232732000994,Scenes\132a.jpg,post,s,1.2914689000463113,None,,,,,,,,,00033,001,2026-01-22_11h28.01.006,MST_test,2024.2.0,60.74791618952257,2026-01-22 11h28.12.866842 +0530,
140,0,141,o,1.380569199915044,None,141,0,140,932.7395945000462,,,,,,,,,,,,,,,,,,,,,,,,,,,,,,,,,,,,,,,,,,,,,,,,,,932.7233894000528,932.7395945000462,933.2251565000042,933.2402456999989,933.2578849000856,933.2578849000856,933.2578849000856,934.646946300054,Objects\184a.jpg,mid,o,1.380569199915044,None,,,,,,,,,00033,001,2026-01-22_11h28.01.006,MST_test,2024.2.0,60.74791618952257,2026-01-22 11h28.12.866842 +0530,
141,0,142,o,1.8088928000070155,None,142,0,141,934.6631401000777,,,,,,,,,,,,,,,,,,,,,,,,,,,,,,,,,,,,,,,,,,,,,,,,,,934.6470542000607,934.6631401000777,935.1482241000049,935.1620466000168,935.1815497000935,935.1815497000935,935.1815497000935,937.0052096000873,Objects\031a.jpg,mid,o,1.8088928000070155,None,,,,,,,,,00033,001,2026-01-22_11h28.01.006,MST_test,2024.2.0,60.74791618952257,2026-01-22 11h28.12.866842 +0530,
142,0,143,s,5.129451100016013,None,143,0,142,937.0212654999923,,,,,,,,,,,,,,,,,,,,,,,,,,,,,,,,,,,,,,,,,,,,,,,,,,937.0053042999934,937.0212654999923,937.5064727000427,937.5237932000309,937.5408054,937.5408054,937.5408054,942.6746799000539,Foils\scenes13.jpg,none,s,5.129451100016013,None,,,,,,,,,00033,001,2026-01-22_11h28.01.006,MST_test,2024.2.0,60.74791618952257,2026-01-22 11h28.12.866842 +0530,
143,0,144,o,9.669919800013304,None,144,0,143,942.6910673000384,,,,,,,,,,,,,,,,,,,,,,,,,,,,,,,,,,,,,,,,,,,,,,,,,,942.6747818000149,942.6910673000384,943.1761781000532,943.1905916000251,943.2095784000121,943.2095784000121,943.2095784000121,952.8942210000241,Objects\060a.jpg,pre,o,9.669919800013304,None,,,,,,,,,00033,001,2026-01-22_11h28.01.006,MST_test,2024.2.0,60.74791618952257,2026-01-22 11h28.12.866842 +0530,
144,0,145,s,6.338852999964729,None,145,0,144,952.9101973000215,,,,,,,,,,,,,,,,,,,,,,,,,,,,,,,,,,,,,,,,,,,,,,,,,,952.8943176000612,952.9101973000215,953.3964795999927,953.4189102000091,953.4285132000223,953.4285132000223,953.4285132000223,959.7680934000527,Objects\189b.jpg,mid,s,6.338852999964729,None,,,,,,,,,00033,001,2026-01-22_11h28.01.006,MST_test,2024.2.0,60.74791618952257,2026-01-22 11h28.12.866842 +0530,
145,0,146,s,1.903891000081785,None,146,0,145,959.7841275000246,,,,,,,,,,,,,,,,,,,,,,,,,,,,,,,,,,,,,,,,,,,,,,,,,,959.7681963000214,959.7841275000246,960.2694107000716,960.2898453000234,960.3025753000984,960.3025753000984,960.3025753000984,962.2099744000006,Foils\049a.jpg,none,s,1.903891000081785,None,,,,,,,,,00033,001,2026-01-22_11h28.01.006,MST_test,2024.2.0,60.74791618952257,2026-01-22 11h28.12.866842 +0530,
146,0,147,n,4.901505499961786,None,147,0,146,962.226144800079,,,,,,,,,,,,,,,,,,,,,,,,,,,,,,,,,,,,,,,,,,,,,,,,,,962.2100705000339,962.226144800079,962.711100500077,962.7358546000905,962.7455161000835,962.7455161000835,962.7455161000835,967.6623194999993,Scenes\188a.jpg,pre,n,4.901505499961786,None,,,,,,,,,00033,001,2026-01-22_11h28.01.006,MST_test,2024.2.0,60.74791618952257,2026-01-22 11h28.12.866842 +0530,
147,0,148,o,1.881480999989435,None,148,0,147,967.678567300085,,,,,,,,,,,,,,,,,,,,,,,,,,,,,,,,,,,,,,,,,,,,,,,,,,967.6624207000714,967.678567300085,968.1635123000015,968.187602500082,968.1971308999928,968.1971308999928,968.1971308999928,970.0878292000853,Objects\038b.jpg,mid,o,1.881480999989435,None,,,,,,,,,00033,001,2026-01-22_11h28.01.006,MST_test,2024.2.0,60.74791618952257,2026-01-22 11h28.12.866842 +0530,
148,0,149,o,3.911107899970375,None,149,0,148,970.1037101000547,,,,,,,,,,,,,,,,,,,,,,,,,,,,,,,,,,,,,,,,,,,,,,,,,,970.0879237001063,970.1037101000547,970.5889068000251,970.6210852999939,970.6397232000018,970.6397232000018,970.6397232000018,974.5534844000358,Scenes\030a.jpg,pre,o,3.911107899970375,None,,,,,,,,,00033,001,2026-01-22_11h28.01.006,MST_test,2024.2.0,60.74791618952257,2026-01-22 11h28.12.866842 +0530,
149,0,150,s,2.2872805000515655,None,150,0,149,974.5692398000974,,,,,,,,,,,,,,,,,,,,,,,,,,,,,,,,,,,,,,,,,,,,,,,,,,974.5535808000714,974.5692398000974,975.0544444000116,975.0773892001016,975.0876831000205,975.0876831000205,975.0876831000205,977.3803256000392,Objects\179b.jpg,mid,s,2.2872805000515655,None,,,,,,,,,00033,001,2026-01-22_11h28.01.006,MST_test,2024.2.0,60.74791618952257,2026-01-22 11h28.12.866842 +0530,
,,,,,,,,,,,,,,,,,,,,,,,,,,,,,,,,,,,,,,,,,,,,,,,,,,,,,,,,,,,,,,,,,,,,,,,,,977.3803893000586,977.3960146000609,977.3960146000609,979.5209363000467,space,2.114374600001611,None,00033,001,2026-01-22_11h28.01.006,MST_test,2024.2.0,60.74791618952257,2026-01-22 11h28.12.866842 +0530,
