thisN,thisTrialN,thisRepN,key_resp_3.keys,key_resp_3.rt,key_resp_3.duration,trials.thisRepN,trials.thisTrialN,trials.thisN,thisRow.t,notes,intro_page.started,text.started,key_resp.started,intro_page.stopped,key_resp.keys,key_resp.rt,key_resp.duration,instructions.started,text_2.started,key_resp_2.started,instructions.stopped,key_resp_2.keys,key_resp_2.rt,key_resp_2.duration,demo1.started,image_1.started,image_2.started,text_7.started,key_resp_6.started,text_9.started,demo1.stopped,key_resp_6.keys,key_resp_6.rt,key_resp_6.duration,demo2.started,image_5.started,image_6.started,text_11.started,text_12.started,key_resp_8.started,demo2.stopped,key_resp_8.keys,key_resp_8.rt,key_resp_8.duration,demo_conclusion.started,text_13.started,key_resp_9.started,demo_conclusion.stopped,key_resp_9.keys,key_resp_9.rt,key_resp_9.duration,start_test.started,text_6.started,key_resp_5.started,start_test.stopped,key_resp_5.keys,key_resp_5.rt,key_resp_5.duration,ISI.started,text_4.started,text_4.stopped,ISI.stopped,routine_1.started,image.started,text_3.started,key_resp_3.started,routine_1.stopped,image_path,position_of_stimuli,trials.key_resp_3.keys,trials.key_resp_3.rt,trials.key_resp_3.duration,End_page.started,text_5.started,key_resp_4.started,End_page.stopped,key_resp_4.keys,key_resp_4.rt,key_resp_4.duration,participant,session,date,expName,psychopyVersion,frameRate,expStart,
,,,,,,,,,,,0.001319299975875765,0.0028729999903589487,0.0028729999903589487,3.493085300025996,space,3.4722890999983065,None,,,,,,,,,,,,,,,,,,,,,,,,,,,,,,,,,,,,,,,,,,,,,,,,,,,,,,,,,,,,,,,00036,001,2026-01-23_16h28.22.558,MST_test,2024.2.0,59.83999980929077,2026-01-23 16h28.31.081409 +0530,
,,,,,,,,,,,,,,,,,,3.493155099975411,3.504432199988514,3.504432199988514,16.403079500014428,space,12.891191000002436,None,,,,,,,,,,,,,,,,,,,,,,,,,,,,,,,,,,,,,,,,,,,,,,,,,,,,,,,,00036,001,2026-01-23_16h28.22.558,MST_test,2024.2.0,59.83999980929077,2026-01-23 16h28.31.081409 +0530,
,,,,,,,,,,,,,,,,,,,,,,,,,16.403191999997944,16.44055539998226,16.44055539998226,16.44055539998226,16.44055539998226,16.44055539998226,21.653096300025936,space,5.210639700002503,None,,,,,,,,,,,,,,,,,,,,,,,,,,,,,,,,,,,,,,,,,,,,,,00036,001,2026-01-23_16h28.22.558,MST_test,2024.2.0,59.83999980929077,2026-01-23 16h28.31.081409 +0530,
,,,,,,,,,,,,,,,,,,,,,,,,,,,,,,,,,,,21.65319179999642,21.66979239997454,21.66979239997454,21.66979239997454,21.66979239997454,21.66979239997454,24.070204799994826,space,2.389291600033175,None,,,,,,,,,,,,,,,,,,,,,,,,,,,,,,,,,,,,00036,001,2026-01-23_16h28.22.558,MST_test,2024.2.0,59.83999980929077,2026-01-23 16h28.31.081409 +0530,
,,,,,,,,,,,,,,,,,,,,,,,,,,,,,,,,,,,,,,,,,,,,,24.07029240002157,24.086038400011603,24.086038400011603,35.76991159998579,space,11.669288699980825,None,,,,,,,,,,,,,,,,,,,,,,,,,,,,,00036,001,2026-01-23_16h28.22.558,MST_test,2024.2.0,59.83999980929077,2026-01-23 16h28.31.081409 +0530,
,,,,,,,,,,,,,,,,,,,,,,,,,,,,,,,,,,,,,,,,,,,,,,,,,,,,35.77000959997531,35.785942999995314,35.785942999995314,104.20331020001322,space,68.40897849999601,None,,,,,,,,,,,,,,,,,,,,,,00036,001,2026-01-23_16h28.22.558,MST_test,2024.2.0,59.83999980929077,2026-01-23 16h28.31.081409 +0530,
0,0,1,o,11.580347799987067,None,1,0,0,104.21916380000766,,,,,,,,,,,,,,,,,,,,,,,,,,,,,,,,,,,,,,,,,,,,,,,,,,104.21259389998158,104.21916380000766,104.77476190001471,104.70294280000962,104.77214660000755,104.77476190001471,104.77476190001471,104.77476190001471,116.36997330002487,Scenes\106b.jpg,post,o,11.580347799987067,None,,,,,,,,00036,001,2026-01-23_16h28.22.558,MST_test,2024.2.0,59.83999980929077,2026-01-23 16h28.31.081409 +0530,
1,0,2,o,2.860086800006684,None,2,0,1,116.38589799997862,,,,,,,,,,,,,,,,,,,,,,,,,,,,,,,,,,,,,,,,,,,,,,,,,,116.37035420001484,116.38589799997862,116.8874080000096,116.86964879999869,116.88474629999837,116.8874080000096,116.8874080000096,116.8874080000096,119.75338609999744,Scenes\095a.jpg,post,o,2.860086800006684,None,,,,,,,,00036,001,2026-01-23_16h28.22.558,MST_test,2024.2.0,59.83999980929077,2026-01-23 16h28.31.081409 +0530,
2,0,3,n,5.734585999976844,None,3,0,2,119.76967359997798,,,,,,,,,,,,,,,,,,,,,,,,,,,,,,,,,,,,,,,,,,,,,,,,,,119.7537522999919,119.76967359997798,120.29291369998828,120.25312130001839,120.29019460000563,120.29291369998828,120.29291369998828,120.29291369998828,126.0368411000236,Scenes\168b.jpg,pre,n,5.734585999976844,None,,,,,,,,00036,001,2026-01-23_16h28.22.558,MST_test,2024.2.0,59.83999980929077,2026-01-23 16h28.31.081409 +0530,
3,0,4,o,5.883004500006791,None,4,0,3,126.05240240000421,,,,,,,,,,,,,,,,,,,,,,,,,,,,,,,,,,,,,,,,,,,,,,,,,,126.03719820000697,126.05240240000421,126.55248219997156,126.53609960002359,126.54980580002302,126.55248219997156,126.55248219997156,126.55248219997156,132.43683319998672,Objects\098a.jpg,post,o,5.883004500006791,None,,,,,,,,00036,001,2026-01-23_16h28.22.558,MST_test,2024.2.0,59.83999980929077,2026-01-23 16h28.31.081409 +0530,
4,0,5,o,6.124537599971518,None,5,0,4,132.45244889997412,,,,,,,,,,,,,,,,,,,,,,,,,,,,,,,,,,,,,,,,,,,,,,,,,,132.43719440000132,132.45244889997412,132.99089820001973,132.93621900002472,132.98856989998603,132.99089820001973,132.99089820001973,132.99089820001973,139.11996789998375,Scenes\016b.jpg,mid,o,6.124537599971518,None,,,,,,,,00036,001,2026-01-23_16h28.22.558,MST_test,2024.2.0,59.83999980929077,2026-01-23 16h28.31.081409 +0530,
5,0,6,n,7.183307100029197,None,6,0,5,139.1362726999796,,,,,,,,,,,,,,,,,,,,,,,,,,,,,,,,,,,,,,,,,,,,,,,,,,139.1203498999821,139.1362726999796,139.65169869997771,139.62010659999214,139.64903969998704,139.65169869997771,139.65169869997771,139.65169869997771,146.8363110999926,Foils\033a.jpg,none,n,7.183307100029197,None,,,,,,,,00036,001,2026-01-23_16h28.22.558,MST_test,2024.2.0,59.83999980929077,2026-01-23 16h28.31.081409 +0530,
6,0,7,s,7.392500599962659,None,7,0,6,146.85288810002385,,,,,,,,,,,,,,,,,,,,,,,,,,,,,,,,,,,,,,,,,,,,,,,,,,146.8366396999918,146.85288810002385,147.37092670000857,147.33613140002126,147.36835579999024,147.37092670000857,147.37092670000857,147.37092670000857,154.77002960001118,Foils\065a.jpg,none,s,7.392500599962659,None,,,,,,,,00036,001,2026-01-23_16h28.22.558,MST_test,2024.2.0,59.83999980929077,2026-01-23 16h28.31.081409 +0530,
7,0,8,o,2.236347600002773,None,8,0,7,154.78591679997044,,,,,,,,,,,,,,,,,,,,,,,,,,,,,,,,,,,,,,,,,,,,,,,,,,154.77038990001893,154.78591679997044,155.28645860002143,155.2697262999718,155.27805099997204,155.28645860002143,155.28645860002143,155.28645860002143,157.53657499997644,Objects\044a.jpg,mid,o,2.236347600002773,None,,,,,,,,00036,001,2026-01-23_16h28.22.558,MST_test,2024.2.0,59.83999980929077,2026-01-23 16h28.31.081409 +0530,
8,0,9,o,4.185094700020272,None,9,0,8,157.55265510000754,,,,,,,,,,,,,,,,,,,,,,,,,,,,,,,,,,,,,,,,,,,,,,,,,,157.53692949999822,157.55265510000754,158.06596029998036,158.03635329997633,158.06389160000253,158.06596029998036,158.06596029998036,158.06596029998036,162.25294209999265,Objects\084b.jpg,pre,o,4.185094700020272,None,,,,,,,,00036,001,2026-01-23_16h28.22.558,MST_test,2024.2.0,59.83999980929077,2026-01-23 16h28.31.081409 +0530,
9,0,10,n,7.028521400003228,None,10,0,9,162.26916909997817,,,,,,,,,,,,,,,,,,,,,,,,,,,,,,,,,,,,,,,,,,,,,,,,,,162.25331569998525,162.26916909997817,162.79028130002553,162.75277129997266,162.78803759999573,162.79028130002553,162.79028130002553,162.79028130002553,169.82022860000143,Foils\scenes12.jpg,none,n,7.028521400003228,None,,,,,,,,00036,001,2026-01-23_16h28.22.558,MST_test,2024.2.0,59.83999980929077,2026-01-23 16h28.31.081409 +0530,
10,0,11,n,1.8561165999853984,None,11,0,10,169.8356919999933,,,,,,,,,,,,,,,,,,,,,,,,,,,,,,,,,,,,,,,,,,,,,,,,,,169.82059199997457,169.8356919999933,170.35510300000897,170.3197415000177,170.35202130000107,170.35510300000897,170.35510300000897,170.35510300000897,172.21998599998187,Foils\058a.jpg,none,n,1.8561165999853984,None,,,,,,,,00036,001,2026-01-23_16h28.22.558,MST_test,2024.2.0,59.83999980929077,2026-01-23 16h28.31.081409 +0530,
11,0,12,o,6.860829200013541,None,12,0,11,172.23569599998882,,,,,,,,,,,,,,,,,,,,,,,,,,,,,,,,,,,,,,,,,,,,,,,,,,172.22033350000856,172.23569599998882,172.7504785999772,172.71973140002228,172.74810600001365,172.7504785999772,172.7504785999772,172.7504785999772,179.6207242999808,Objects\040b.jpg,mid,o,6.860829200013541,None,,,,,,,,00036,001,2026-01-23_16h28.22.558,MST_test,2024.2.0,59.83999980929077,2026-01-23 16h28.31.081409 +0530,
12,0,13,o,1.0824413999798708,None,13,0,12,179.6356861999957,,,,,,,,,,,,,,,,,,,,,,,,,,,,,,,,,,,,,,,,,,,,,,,,,,179.62107870000182,179.6356861999957,180.136459500005,180.11997150001116,180.128973999992,180.136459500005,180.136459500005,180.136459500005,181.2202188000083,Scenes\014a.jpg,post,o,1.0824413999798708,None,,,,,,,,00036,001,2026-01-23_16h28.22.558,MST_test,2024.2.0,59.83999980929077,2026-01-23 16h28.31.081409 +0530,
13,0,14,n,17.73600669996813,None,14,0,13,181.23570959997596,,,,,,,,,,,,,,,,,,,,,,,,,,,,,,,,,,,,,,,,,,,,,,,,,,181.22057649999624,181.23570959997596,181.74683770001866,181.7193980999873,181.74411410000175,181.74683770001866,181.74683770001866,181.74683770001866,199.48638730001403,Foils\scenes13.jpg,none,n,17.73600669996813,None,,,,,,,,00036,001,2026-01-23_16h28.22.558,MST_test,2024.2.0,59.83999980929077,2026-01-23 16h28.31.081409 +0530,
14,0,15,s,38.036902600026224,None,15,0,14,199.50271749997046,,,,,,,,,,,,,,,,,,,,,,,,,,,,,,,,,,,,,,,,,,,,,,,,,,199.48680720000993,199.50271749997046,200.0462679999764,199.9863276000251,200.0439938000054,200.0462679999764,200.0462679999764,200.0462679999764,238.0864383999724,Scenes\123b.jpg,post,s,38.036902600026224,None,,,,,,,,00036,001,2026-01-23_16h28.22.558,MST_test,2024.2.0,59.83999980929077,2026-01-23 16h28.31.081409 +0530,
15,0,16,o,1.976535799971316,None,16,0,15,238.10257829999318,,,,,,,,,,,,,,,,,,,,,,,,,,,,,,,,,,,,,,,,,,,,,,,,,,238.08685199997853,238.10257829999318,238.60285079997266,238.58592649997445,238.59821650001686,238.60285079997266,238.60285079997266,238.60285079997266,240.5866736000171,Scenes\007a.jpg,pre,o,1.976535799971316,None,,,,,,,,00036,001,2026-01-23_16h28.22.558,MST_test,2024.2.0,59.83999980929077,2026-01-23 16h28.31.081409 +0530,
16,0,17,s,3.6940223000128753,None,17,0,16,240.60226660000626,,,,,,,,,,,,,,,,,,,,,,,,,,,,,,,,,,,,,,,,,,,,,,,,,,240.58702069998253,240.60226660000626,241.12477469997248,241.0861142000067,241.1222062999732,241.12477469997248,241.12477469997248,241.12477469997248,244.8202077000169,Objects\053b.jpg,pre,s,3.6940223000128753,None,,,,,,,,00036,001,2026-01-23_16h28.22.558,MST_test,2024.2.0,59.83999980929077,2026-01-23 16h28.31.081409 +0530,
17,0,18,s,7.118080899992492,None,18,0,17,244.8360510999919,,,,,,,,,,,,,,,,,,,,,,,,,,,,,,,,,,,,,,,,,,,,,,,,,,244.82056299998658,244.8360510999919,245.34953240002505,245.31942860002164,245.34727299999213,245.34953240002505,245.34953240002505,245.34953240002505,252.47004769998603,Foils\scenes14.jpg,none,s,7.118080899992492,None,,,,,,,,00036,001,2026-01-23_16h28.22.558,MST_test,2024.2.0,59.83999980929077,2026-01-23 16h28.31.081409 +0530,
18,0,19,o,1.1522835999494419,None,19,0,18,252.4857032999862,,,,,,,,,,,,,,,,,,,,,,,,,,,,,,,,,,,,,,,,,,,,,,,,,,252.47040260001086,252.4857032999862,252.98640410002554,252.96973569999682,252.9842079000082,252.98640410002554,252.98640410002554,252.98640410002554,254.15292810002575,Scenes\107a.jpg,post,o,1.1522835999494419,None,,,,,,,,00036,001,2026-01-23_16h28.22.558,MST_test,2024.2.0,59.83999980929077,2026-01-23 16h28.31.081409 +0530,
19,0,20,s,9.114550500002224,None,20,0,19,254.16912869998487,,,,,,,,,,,,,,,,,,,,,,,,,,,,,,,,,,,,,,,,,,,,,,,,,,254.1532828999916,254.16912869998487,254.68823069997597,254.65324249997502,254.6854522000067,254.68823069997597,254.68823069997597,254.68823069997597,263.80338619998656,Objects\124b.jpg,pre,s,9.114550500002224,None,,,,,,,,00036,001,2026-01-23_16h28.22.558,MST_test,2024.2.0,59.83999980929077,2026-01-23 16h28.31.081409 +0530,
20,0,21,s,5.029272300016601,None,21,0,20,263.8201263999799,,,,,,,,,,,,,,,,,,,,,,,,,,,,,,,,,,,,,,,,,,,,,,,,,,263.8037506000255,263.8201263999799,,264.3195769999875,264.36250500002643,264.36530900001526,264.36530900001526,264.36530900001526,269.40310499997577,Objects\047b.jpg,mid,s,5.029272300016601,None,,,,,,,,00036,001,2026-01-23_16h28.22.558,MST_test,2024.2.0,59.83999980929077,2026-01-23 16h28.31.081409 +0530,
21,0,22,n,2.232406099967193,None,22,0,21,269.4193508999888,,,,,,,,,,,,,,,,,,,,,,,,,,,,,,,,,,,,,,,,,,,,,,,,,,269.40346110000974,269.4193508999888,269.9623059000005,269.9031662999769,269.95979950000765,269.9623059000005,269.9623059000005,269.9623059000005,272.2033620000002,Foils\scenes27.jpg,none,n,2.232406099967193,None,,,,,,,,00036,001,2026-01-23_16h28.22.558,MST_test,2024.2.0,59.83999980929077,2026-01-23 16h28.31.081409 +0530,
22,0,23,n,3.5709735000273213,None,23,0,22,272.21932420000667,,,,,,,,,,,,,,,,,,,,,,,,,,,,,,,,,,,,,,,,,,,,,,,,,,272.2037164000212,272.21932420000667,272.7517272999976,272.7030392999877,272.7490860000253,272.7517272999976,272.7517272999976,272.7517272999976,276.33691559999716,Scenes\039b.jpg,post,n,3.5709735000273213,None,,,,,,,,00036,001,2026-01-23_16h28.22.558,MST_test,2024.2.0,59.83999980929077,2026-01-23 16h28.31.081409 +0530,
23,0,24,n,8.190187500033062,None,24,0,23,276.3527788000065,,,,,,,,,,,,,,,,,,,,,,,,,,,,,,,,,,,,,,,,,,,,,,,,,,276.3372681000037,276.3527788000065,276.8606901000021,276.83611279999604,276.8577024000115,276.8606901000021,276.8606901000021,276.8606901000021,285.05318260000786,Scenes\126a.jpg,pre,n,8.190187500033062,None,,,,,,,,00036,001,2026-01-23_16h28.22.558,MST_test,2024.2.0,59.83999980929077,2026-01-23 16h28.31.081409 +0530,
24,0,25,s,7.8223064000485465,None,25,0,24,285.06919339997694,,,,,,,,,,,,,,,,,,,,,,,,,,,,,,,,,,,,,,,,,,,,,,,,,,285.0535354000167,285.06919339997694,285.58041479997337,285.55308270000387,285.57781470002374,285.58041479997337,285.58041479997337,285.58041479997337,293.4198628999875,Objects\096b.jpg,post,s,7.8223064000485465,None,,,,,,,,00036,001,2026-01-23_16h28.22.558,MST_test,2024.2.0,59.83999980929077,2026-01-23 16h28.31.081409 +0530,
25,0,26,n,1.613155100028962,None,26,0,25,293.4362963999738,,,,,,,,,,,,,,,,,,,,,,,,,,,,,,,,,,,,,,,,,,,,,,,,,,293.4202253000112,293.4362963999738,293.9976951999706,293.91938689997187,293.99391520000063,293.9976951999706,293.9976951999706,293.9976951999706,295.6199296999839,Foils\scenes15.jpg,none,n,1.613155100028962,None,,,,,,,,00036,001,2026-01-23_16h28.22.558,MST_test,2024.2.0,59.83999980929077,2026-01-23 16h28.31.081409 +0530,
26,0,27,n,1.1387782000238076,None,27,0,26,295.63600840000436,,,,,,,,,,,,,,,,,,,,,,,,,,,,,,,,,,,,,,,,,,,,,,,,,,295.6203091000207,295.63600840000436,296.19980150001356,296.11966989998473,296.19762749999063,296.19980150001356,296.19980150001356,296.19980150001356,297.3532709000283,Scenes\124b.jpg,mid,n,1.1387782000238076,None,,,,,,,,00036,001,2026-01-23_16h28.22.558,MST_test,2024.2.0,59.83999980929077,2026-01-23 16h28.31.081409 +0530,
27,0,28,n,3.5369831999996677,None,28,0,27,297.36934799997834,,,,,,,,,,,,,,,,,,,,,,,,,,,,,,,,,,,,,,,,,,,,,,,,,,297.3536375000258,297.36934799997834,297.90573190001305,297.85310000000754,297.90317100001266,297.90573190001305,297.90573190001305,297.90573190001305,301.4530950000044,Scenes\080b.jpg,post,n,3.5369831999996677,None,,,,,,,,00036,001,2026-01-23_16h28.22.558,MST_test,2024.2.0,59.83999980929077,2026-01-23 16h28.31.081409 +0530,
28,0,29,s,6.428921599988826,None,29,0,28,301.4692721000174,,,,,,,,,,,,,,,,,,,,,,,,,,,,,,,,,,,,,,,,,,,,,,,,,,301.4534551000106,301.4692721000174,301.99836289999075,301.9528344999999,301.9945143000223,301.99836289999075,301.99836289999075,301.99836289999075,308.43758109997725,Foils\026a.jpg,none,s,6.428921599988826,None,,,,,,,,00036,001,2026-01-23_16h28.22.558,MST_test,2024.2.0,59.83999980929077,2026-01-23 16h28.31.081409 +0530,
29,0,30,o,16.913021500047762,None,30,0,29,308.4530009999871,,,,,,,,,,,,,,,,,,,,,,,,,,,,,,,,,,,,,,,,,,,,,,,,,,308.43794949998846,308.4530009999871,309.0736718000262,308.93622799997684,309.07148649997544,309.0736718000262,309.0736718000262,309.0736718000262,326.00349109998206,Objects\107b.jpg,post,o,16.913021500047762,None,,,,,,,,00036,001,2026-01-23_16h28.22.558,MST_test,2024.2.0,59.83999980929077,2026-01-23 16h28.31.081409 +0530,
30,0,31,o,0.7867417000234127,None,31,0,30,326.0197409000248,,,,,,,,,,,,,,,,,,,,,,,,,,,,,,,,,,,,,,,,,,,,,,,,,,326.0038966999855,326.0197409000248,326.5367097000126,326.50310480000917,326.5338817000156,326.5367097000126,326.5367097000126,326.5367097000126,327.336666600022,Objects\006b.jpg,pre,o,0.7867417000234127,None,,,,,,,,00036,001,2026-01-23_16h28.22.558,MST_test,2024.2.0,59.83999980929077,2026-01-23 16h28.31.081409 +0530,
31,0,32,n,3.5830864000017755,None,32,0,31,327.3534540000255,,,,,,,,,,,,,,,,,,,,,,,,,,,,,,,,,,,,,,,,,,,,,,,,,,327.33702189999167,327.3534540000255,327.86760060000233,327.83641320001334,327.8655909000081,327.86760060000233,327.86760060000233,327.86760060000233,331.4532784000039,Foils\101b.jpg,none,n,3.5830864000017755,None,,,,,,,,00036,001,2026-01-23_16h28.22.558,MST_test,2024.2.0,59.83999980929077,2026-01-23 16h28.31.081409 +0530,
32,0,33,o,5.230631600017659,None,33,0,32,331.4694215999916,,,,,,,,,,,,,,,,,,,,,,,,,,,,,,,,,,,,,,,,,,,,,,,,,,331.45364780002274,331.4694215999916,332.0121282999753,331.95276469999226,332.0094332000008,332.0121282999753,332.0121282999753,332.0121282999753,337.25323660002323,Scenes\090b.jpg,post,o,5.230631600017659,None,,,,,,,,00036,001,2026-01-23_16h28.22.558,MST_test,2024.2.0,59.83999980929077,2026-01-23 16h28.31.081409 +0530,
33,0,34,n,2.223435199994128,None,34,0,33,337.26921779999975,,,,,,,,,,,,,,,,,,,,,,,,,,,,,,,,,,,,,,,,,,,,,,,,,,337.2536172000109,337.26921779999975,337.78006540000206,337.75309269997524,337.7772157000145,337.78006540000206,337.78006540000206,337.78006540000206,340.00448489998234,Foils\009a.jpg,none,n,2.223435199994128,None,,,,,,,,00036,001,2026-01-23_16h28.22.558,MST_test,2024.2.0,59.83999980929077,2026-01-23 16h28.31.081409 +0530,
34,0,35,s,3.473239000013564,None,35,0,34,340.0192377999774,,,,,,,,,,,,,,,,,,,,,,,,,,,,,,,,,,,,,,,,,,,,,,,,,,340.0048571000225,340.0192377999774,340.55363759998,340.5034746999736,340.55101910000667,340.55363759998,340.55363759998,340.55363759998,344.03641719999723,Scenes\075b.jpg,mid,s,3.473239000013564,None,,,,,,,,00036,001,2026-01-23_16h28.22.558,MST_test,2024.2.0,59.83999980929077,2026-01-23 16h28.31.081409 +0530,
35,0,36,s,3.1074555999948643,None,36,0,35,344.0527276999783,,,,,,,,,,,,,,,,,,,,,,,,,,,,,,,,,,,,,,,,,,,,,,,,,,344.0367788000149,344.0527276999783,344.56775980000384,344.5364039000124,344.56542759999866,344.56775980000384,344.56775980000384,344.56775980000384,347.6863846000051,Objects\066b.jpg,post,s,3.1074555999948643,None,,,,,,,,00036,001,2026-01-23_16h28.22.558,MST_test,2024.2.0,59.83999980929077,2026-01-23 16h28.31.081409 +0530,
36,0,37,s,6.855684800015297,None,37,0,36,347.70235719997436,,,,,,,,,,,,,,,,,,,,,,,,,,,,,,,,,,,,,,,,,,,,,,,,,,347.68673770001624,347.70235719997436,348.2029434000142,348.1859878000105,348.19960079999873,348.2029434000142,348.2029434000142,348.2029434000142,355.06988550000824,Scenes\187a.jpg,post,s,6.855684800015297,None,,,,,,,,00036,001,2026-01-23_16h28.22.558,MST_test,2024.2.0,59.83999980929077,2026-01-23 16h28.31.081409 +0530,
37,0,38,n,1.124661499983631,None,38,0,37,355.08566719997907,,,,,,,,,,,,,,,,,,,,,,,,,,,,,,,,,,,,,,,,,,,,,,,,,,355.0702051999979,355.08566719997907,355.6061483999947,355.5689055999974,355.6033904000069,355.6061483999947,355.6061483999947,355.6061483999947,356.7364712000126,Foils\scenes28.jpg,none,n,1.124661499983631,None,,,,,,,,00036,001,2026-01-23_16h28.22.558,MST_test,2024.2.0,59.83999980929077,2026-01-23 16h28.31.081409 +0530,
38,0,39,o,12.867205000016838,None,39,0,38,356.75224379997235,,,,,,,,,,,,,,,,,,,,,,,,,,,,,,,,,,,,,,,,,,,,,,,,,,356.73682529997313,356.75224379997235,357.31239300000016,357.23577149998164,357.3095390999806,357.31239300000016,357.31239300000016,357.31239300000016,370.18660780001665,Objects\002b.jpg,post,o,12.867205000016838,None,,,,,,,,00036,001,2026-01-23_16h28.22.558,MST_test,2024.2.0,59.83999980929077,2026-01-23 16h28.31.081409 +0530,
39,0,40,o,0.9879869000287727,None,40,0,39,370.20277759997407,,,,,,,,,,,,,,,,,,,,,,,,,,,,,,,,,,,,,,,,,,,,,,,,,,370.186967000016,370.20277759997407,370.70256940001855,370.6867423999938,370.6949743999867,370.70256940001855,370.70256940001855,370.70256940001855,371.7031451999792,Objects\125a.jpg,pre,o,0.9879869000287727,None,,,,,,,,00036,001,2026-01-23_16h28.22.558,MST_test,2024.2.0,59.83999980929077,2026-01-23 16h28.31.081409 +0530,
40,0,41,s,2.5922808999894187,None,41,0,40,371.719357999973,,,,,,,,,,,,,,,,,,,,,,,,,,,,,,,,,,,,,,,,,,,,,,,,,,371.7035152000026,371.719357999973,372.306947199977,372.2031175000011,372.3044426999986,372.306947199977,372.306947199977,372.306947199977,374.90294830000494,Objects\166b.jpg,mid,s,2.5922808999894187,None,,,,,,,,00036,001,2026-01-23_16h28.22.558,MST_test,2024.2.0,59.83999980929077,2026-01-23 16h28.31.081409 +0530,
41,0,42,n,3.5492682999465615,None,42,0,41,374.91917820001254,,,,,,,,,,,,,,,,,,,,,,,,,,,,,,,,,,,,,,,,,,,,,,,,,,374.9033141999971,374.91917820001254,375.4458105000085,375.4030115000205,375.4428967999993,375.4458105000085,375.4458105000085,375.4458105000085,379.00315479998244,Foils\scenes22.jpg,none,n,3.5492682999465615,None,,,,,,,,00036,001,2026-01-23_16h28.22.558,MST_test,2024.2.0,59.83999980929077,2026-01-23 16h28.31.081409 +0530,
42,0,43,o,2.115299099998083,None,43,0,42,379.01932490000036,,,,,,,,,,,,,,,,,,,,,,,,,,,,,,,,,,,,,,,,,,,,,,,,,,379.00352909998037,379.01932490000036,379.52010580000933,379.5029954999918,379.5169714000076,379.52010580000933,379.52010580000933,379.52010580000933,381.6371670999797,Scenes\094a.jpg,mid,o,2.115299099998083,None,,,,,,,,00036,001,2026-01-23_16h28.22.558,MST_test,2024.2.0,59.83999980929077,2026-01-23 16h28.31.081409 +0530,
43,0,44,o,2.9738595000235364,None,44,0,43,381.6523710999754,,,,,,,,,,,,,,,,,,,,,,,,,,,,,,,,,,,,,,,,,,,,,,,,,,381.6375509999925,381.6523710999754,382.15739110001596,382.13645519997226,382.1551713999943,382.15739110001596,382.15739110001596,382.15739110001596,385.13667979999445,Scenes\054a.jpg,post,o,2.9738595000235364,None,,,,,,,,00036,001,2026-01-23_16h28.22.558,MST_test,2024.2.0,59.83999980929077,2026-01-23 16h28.31.081409 +0530,
44,0,45,n,18.19880330003798,None,45,0,44,385.1526166999829,,,,,,,,,,,,,,,,,,,,,,,,,,,,,,,,,,,,,,,,,,,,,,,,,,385.13705209997715,385.1526166999829,385.755452900019,385.6360645000241,385.7532105999999,385.755452900019,385.755452900019,385.755452900019,403.9698340999894,Scenes\121b.jpg,pre,n,18.19880330003798,None,,,,,,,,00036,001,2026-01-23_16h28.22.558,MST_test,2024.2.0,59.83999980929077,2026-01-23 16h28.31.081409 +0530,
45,0,46,s,2.458967299957294,None,46,0,45,403.98559110000497,,,,,,,,,,,,,,,,,,,,,,,,,,,,,,,,,,,,,,,,,,,,,,,,,,403.97018760000356,403.98559110000497,404.5281586999772,404.4694395000115,404.52398980001453,404.5281586999772,404.5281586999772,404.5281586999772,407.003203100001,Objects\115b.jpg,pre,s,2.458967299957294,None,,,,,,,,00036,001,2026-01-23_16h28.22.558,MST_test,2024.2.0,59.83999980929077,2026-01-23 16h28.31.081409 +0530,
46,0,47,s,4.613473900011741,None,47,0,46,407.0190348000033,,,,,,,,,,,,,,,,,,,,,,,,,,,,,,,,,,,,,,,,,,,,,,,,,,407.00357210001675,407.0190348000033,407.53316009999253,407.50304659997346,407.5308804999804,407.53316009999253,407.53316009999253,407.53316009999253,412.1534275999875,Foils\018a.jpg,none,s,4.613473900011741,None,,,,,,,,00036,001,2026-01-23_16h28.22.558,MST_test,2024.2.0,59.83999980929077,2026-01-23 16h28.31.081409 +0530,
47,0,48,o,4.310515400022268,None,48,0,47,412.16935250000097,,,,,,,,,,,,,,,,,,,,,,,,,,,,,,,,,,,,,,,,,,,,,,,,,,412.1538031999953,412.16935250000097,412.7081745999749,412.6534037999809,412.7053674000199,412.7081745999749,412.7081745999749,412.7081745999749,417.01987499999814,Scenes\023b.jpg,post,o,4.310515400022268,None,,,,,,,,00036,001,2026-01-23_16h28.22.558,MST_test,2024.2.0,59.83999980929077,2026-01-23 16h28.31.081409 +0530,
48,0,49,o,1.586138500017114,None,49,0,48,417.0358338999795,,,,,,,,,,,,,,,,,,,,,,,,,,,,,,,,,,,,,,,,,,,,,,,,,,417.0202748000156,417.0358338999795,417.5365182000096,417.51948140002787,417.5288323999848,417.5365182000096,417.5365182000096,417.5365182000096,419.1364060000051,Objects\129a.jpg,post,o,1.586138500017114,None,,,,,,,,00036,001,2026-01-23_16h28.22.558,MST_test,2024.2.0,59.83999980929077,2026-01-23 16h28.31.081409 +0530,
49,0,50,n,4.92850300000282,None,50,0,49,419.152722000028,,,,,,,,,,,,,,,,,,,,,,,,,,,,,,,,,,,,,,,,,,,,,,,,,,419.1367533999728,419.152722000028,419.67412370000966,419.63643509999383,419.6716179000214,419.67412370000966,419.67412370000966,419.67412370000966,424.61956740001915,Foils\086a.jpg,none,n,4.92850300000282,None,,,,,,,,00036,001,2026-01-23_16h28.22.558,MST_test,2024.2.0,59.83999980929077,2026-01-23 16h28.31.081409 +0530,
50,0,51,o,3.729964600002859,None,51,0,50,424.63589350000257,,,,,,,,,,,,,,,,,,,,,,,,,,,,,,,,,,,,,,,,,,,,,,,,,,424.61991770000895,424.63589350000257,425.14488119998714,425.1195561999921,425.1424106999766,425.14488119998714,425.14488119998714,425.14488119998714,428.8867206000141,Scenes\119a.jpg,mid,o,3.729964600002859,None,,,,,,,,00036,001,2026-01-23_16h28.22.558,MST_test,2024.2.0,59.83999980929077,2026-01-23 16h28.31.081409 +0530,
51,0,52,s,4.6238221999956295,None,52,0,51,428.90267809998477,,,,,,,,,,,,,,,,,,,,,,,,,,,,,,,,,,,,,,,,,,,,,,,,,,428.8870755999815,428.90267809998477,429.4428373000119,429.38619829999516,429.4403837000136,429.4428373000119,429.4428373000119,429.4428373000119,434.0702663999982,Objects\056b.jpg,mid,s,4.6238221999956295,None,,,,,,,,00036,001,2026-01-23_16h28.22.558,MST_test,2024.2.0,59.83999980929077,2026-01-23 16h28.31.081409 +0530,
52,0,53,o,1.176465000025928,None,53,0,52,434.0859553000191,,,,,,,,,,,,,,,,,,,,,,,,,,,,,,,,,,,,,,,,,,,,,,,,,,434.070637399971,434.0859553000191,434.58622200001264,434.56975169997895,434.5781428000191,434.58622200001264,434.58622200001264,434.58622200001264,435.7700590000022,Objects\093a.jpg,pre,o,1.176465000025928,None,,,,,,,,00036,001,2026-01-23_16h28.22.558,MST_test,2024.2.0,59.83999980929077,2026-01-23 16h28.31.081409 +0530,
53,0,54,o,6.560879099997692,None,54,0,53,435.7866751999827,,,,,,,,,,,,,,,,,,,,,,,,,,,,,,,,,,,,,,,,,,,,,,,,,,435.7704060000251,435.7866751999827,436.29039659997215,436.2697170000174,436.28804559999844,436.29039659997215,436.29039659997215,436.29039659997215,442.8530615000054,Scenes\108a.jpg,pre,o,6.560879099997692,None,,,,,,,,00036,001,2026-01-23_16h28.22.558,MST_test,2024.2.0,59.83999980929077,2026-01-23 16h28.31.081409 +0530,
54,0,55,o,1.3293627999955788,None,55,0,54,442.8694827000145,,,,,,,,,,,,,,,,,,,,,,,,,,,,,,,,,,,,,,,,,,,,,,,,,,442.85342519998085,442.8694827000145,443.3697765999823,443.35315480001736,443.3621061000158,443.3697765999823,443.3697765999823,443.3697765999823,444.70338590000756,Objects\122a.jpg,post,o,1.3293627999955788,None,,,,,,,,00036,001,2026-01-23_16h28.22.558,MST_test,2024.2.0,59.83999980929077,2026-01-23 16h28.31.081409 +0530,
55,0,56,n,11.599588700046297,None,56,0,55,444.7190661000204,,,,,,,,,,,,,,,,,,,,,,,,,,,,,,,,,,,,,,,,,,,,,,,,,,444.7037427999894,444.7190661000204,445.2671634000144,445.2033617999987,445.2643668000237,445.2671634000144,445.2671634000144,445.2671634000144,456.869959499978,Scenes\081b.jpg,pre,n,11.599588700046297,None,,,,,,,,00036,001,2026-01-23_16h28.22.558,MST_test,2024.2.0,59.83999980929077,2026-01-23 16h28.31.081409 +0530,
56,0,57,s,1.777628400013782,None,57,0,56,456.88603870000225,,,,,,,,,,,,,,,,,,,,,,,,,,,,,,,,,,,,,,,,,,,,,,,,,,456.8703447000007,456.88603870000225,457.42500619997736,457.3697682999773,457.4223888000124,457.42500619997736,457.42500619997736,457.42500619997736,459.20405320002465,Scenes\159b.jpg,mid,s,1.777628400013782,None,,,,,,,,00036,001,2026-01-23_16h28.22.558,MST_test,2024.2.0,59.83999980929077,2026-01-23 16h28.31.081409 +0530,
57,0,58,o,2.2828128000255674,None,58,0,57,459.219806100009,,,,,,,,,,,,,,,,,,,,,,,,,,,,,,,,,,,,,,,,,,,,,,,,,,459.20441309997113,459.219806100009,459.71999750001123,459.70275619998574,459.7177399999928,459.71999750001123,459.71999750001123,459.71999750001123,462.0198673999985,Scenes\189a.jpg,mid,o,2.2828128000255674,None,,,,,,,,00036,001,2026-01-23_16h28.22.558,MST_test,2024.2.0,59.83999980929077,2026-01-23 16h28.31.081409 +0530,
58,0,59,n,1.6855362000060268,None,59,0,58,462.03571879997617,,,,,,,,,,,,,,,,,,,,,,,,,,,,,,,,,,,,,,,,,,,,,,,,,,462.0202255999902,462.03571879997617,462.549711700005,462.51968430000124,462.54563870001584,462.549711700005,462.549711700005,462.549711700005,464.2366795000271,Foils\scenes29.jpg,none,n,1.6855362000060268,None,,,,,,,,00036,001,2026-01-23_16h28.22.558,MST_test,2024.2.0,59.83999980929077,2026-01-23 16h28.31.081409 +0530,
59,0,60,o,2.6661150000290945,None,60,0,59,464.2530507000047,,,,,,,,,,,,,,,,,,,,,,,,,,,,,,,,,,,,,,,,,,,,,,,,,,464.2370322999777,464.2530507000047,464.753080399998,464.7364335000166,464.7452129999874,464.753080399998,464.753080399998,464.753080399998,467.4208118999959,Objects\113a.jpg,post,o,2.6661150000290945,None,,,,,,,,00036,001,2026-01-23_16h28.22.558,MST_test,2024.2.0,59.83999980929077,2026-01-23 16h28.31.081409 +0530,
60,0,61,o,1.226548200007528,None,61,0,60,467.4359084999887,,,,,,,,,,,,,,,,,,,,,,,,,,,,,,,,,,,,,,,,,,,,,,,,,,467.42116600001464,467.4359084999887,467.9363538000034,467.9197043000022,467.9340142000001,467.9363538000034,467.9363538000034,467.9363538000034,469.16997609997634,Scenes\163a.jpg,pre,o,1.226548200007528,None,,,,,,,,00036,001,2026-01-23_16h28.22.558,MST_test,2024.2.0,59.83999980929077,2026-01-23 16h28.31.081409 +0530,
61,0,62,o,0.939672700013034,None,62,0,61,469.1857684000279,,,,,,,,,,,,,,,,,,,,,,,,,,,,,,,,,,,,,,,,,,,,,,,,,,469.170327299973,469.1857684000279,469.7188119000057,469.669596199994,469.71634059998905,469.7188119000057,469.7188119000057,469.7188119000057,470.6699530999758,Scenes\008b.jpg,pre,o,0.939672700013034,None,,,,,,,,00036,001,2026-01-23_16h28.22.558,MST_test,2024.2.0,59.83999980929077,2026-01-23 16h28.31.081409 +0530,
62,0,63,s,5.269085500040092,None,63,0,62,470.6859475999954,,,,,,,,,,,,,,,,,,,,,,,,,,,,,,,,,,,,,,,,,,,,,,,,,,470.67030439997325,470.6859475999954,471.189863800013,471.16979030001676,471.18723290000344,471.189863800013,471.189863800013,471.189863800013,476.4702834999771,Scenes\038a.jpg,pre,s,5.269085500040092,None,,,,,,,,00036,001,2026-01-23_16h28.22.558,MST_test,2024.2.0,59.83999980929077,2026-01-23 16h28.31.081409 +0530,
63,0,64,n,6.4567600000300445,None,64,0,63,476.4859622999793,,,,,,,,,,,,,,,,,,,,,,,,,,,,,,,,,,,,,,,,,,,,,,,,,,476.4706398000126,476.4859622999793,477.00994660001015,476.97009469999466,477.00723719998496,477.00994660001015,477.00994660001015,477.00994660001015,483.46976150001865,Scenes\155b.jpg,post,n,6.4567600000300445,None,,,,,,,,00036,001,2026-01-23_16h28.22.558,MST_test,2024.2.0,59.83999980929077,2026-01-23 16h28.31.081409 +0530,
64,0,65,o,1.2244543000124395,None,65,0,64,483.485953699972,,,,,,,,,,,,,,,,,,,,,,,,,,,,,,,,,,,,,,,,,,,,,,,,,,483.47013789997436,483.485953699972,483.9862717000069,483.9696162000182,483.9810490999953,483.9862717000069,483.9862717000069,483.9862717000069,485.21988829999464,Objects\148a.jpg,post,o,1.2244543000124395,None,,,,,,,,00036,001,2026-01-23_16h28.22.558,MST_test,2024.2.0,59.83999980929077,2026-01-23 16h28.31.081409 +0530,
65,0,66,o,0.7220480000250973,None,66,0,65,485.236076399975,,,,,,,,,,,,,,,,,,,,,,,,,,,,,,,,,,,,,,,,,,,,,,,,,,485.22026009997353,485.236076399975,485.73660609999206,485.71979130001273,485.7271061000065,485.73660609999206,485.73660609999206,485.73660609999206,486.4697331999778,Objects\079a.jpg,mid,o,0.7220480000250973,None,,,,,,,,00036,001,2026-01-23_16h28.22.558,MST_test,2024.2.0,59.83999980929077,2026-01-23 16h28.31.081409 +0530,
66,0,67,s,1.4270149000221863,None,67,0,66,486.4857383000199,,,,,,,,,,,,,,,,,,,,,,,,,,,,,,,,,,,,,,,,,,,,,,,,,,486.4700797999976,486.4857383000199,487.02412710001227,486.9695689000073,487.02145030000247,487.02412710001227,487.02412710001227,487.02412710001227,488.4529326999909,Objects\085b.jpg,pre,s,1.4270149000221863,None,,,,,,,,00036,001,2026-01-23_16h28.22.558,MST_test,2024.2.0,59.83999980929077,2026-01-23 16h28.31.081409 +0530,
67,0,68,s,1.9181269999826327,None,68,0,67,488.4693727000267,,,,,,,,,,,,,,,,,,,,,,,,,,,,,,,,,,,,,,,,,,,,,,,,,,488.4532864000066,488.4693727000267,488.9730567000224,488.9530512000201,488.9704019000055,488.9730567000224,488.9730567000224,488.9730567000224,490.9032588999835,Scenes\170a.jpg,post,s,1.9181269999826327,None,,,,,,,,00036,001,2026-01-23_16h28.22.558,MST_test,2024.2.0,59.83999980929077,2026-01-23 16h28.31.081409 +0530,
68,0,69,n,5.478540299984161,None,69,0,68,490.9193207999924,,,,,,,,,,,,,,,,,,,,,,,,,,,,,,,,,,,,,,,,,,,,,,,,,,490.90367889998015,490.9193207999924,491.4199581000139,491.40303799998946,491.4152788000065,491.4199581000139,491.4199581000139,491.4199581000139,496.9030558000086,Scenes\141a.jpg,mid,n,5.478540299984161,None,,,,,,,,00036,001,2026-01-23_16h28.22.558,MST_test,2024.2.0,59.83999980929077,2026-01-23 16h28.31.081409 +0530,
69,0,70,s,1.4577073999680579,None,70,0,69,496.918906899984,,,,,,,,,,,,,,,,,,,,,,,,,,,,,,,,,,,,,,,,,,,,,,,,,,496.90346110000974,496.918906899984,497.45711469999515,497.4031422000262,497.45422319998033,497.45711469999515,497.45711469999515,497.45711469999515,498.9204945000238,Objects\076b.jpg,post,s,1.4577073999680579,None,,,,,,,,00036,001,2026-01-23_16h28.22.558,MST_test,2024.2.0,59.83999980929077,2026-01-23 16h28.31.081409 +0530,
70,0,71,s,1.4790265999617986,None,71,0,70,498.93579309998313,,,,,,,,,,,,,,,,,,,,,,,,,,,,,,,,,,,,,,,,,,,,,,,,,,498.9208469999721,498.93579309998313,499.4757237000158,499.4197077000281,499.4726456999779,499.4757237000158,499.4757237000158,499.4757237000158,500.9700319999829,Scenes\043b.jpg,pre,s,1.4790265999617986,None,,,,,,,,00036,001,2026-01-23_16h28.22.558,MST_test,2024.2.0,59.83999980929077,2026-01-23 16h28.31.081409 +0530,
71,0,72,o,11.452266199979931,None,72,0,71,500.98597219999647,,,,,,,,,,,,,,,,,,,,,,,,,,,,,,,,,,,,,,,,,,,,,,,,,,500.97038760001305,500.98597219999647,,501.4703645000118,501.4794563999749,501.4862308999873,501.4862308999873,501.4862308999873,512.9533833999885,Objects\067a.jpg,mid,o,11.452266199979931,None,,,,,,,,00036,001,2026-01-23_16h28.22.558,MST_test,2024.2.0,59.83999980929077,2026-01-23 16h28.31.081409 +0530,
72,0,73,n,2.4530252999975346,None,73,0,72,512.9693983999896,,,,,,,,,,,,,,,,,,,,,,,,,,,,,,,,,,,,,,,,,,,,,,,,,,512.9537519000005,512.9693983999896,513.5016426999937,513.4530997999827,513.4991406999761,513.5016426999937,513.5016426999937,513.5016426999937,515.9700382999727,Scenes\175b.jpg,post,n,2.4530252999975346,None,,,,,,,,00036,001,2026-01-23_16h28.22.558,MST_test,2024.2.0,59.83999980929077,2026-01-23 16h28.31.081409 +0530,
73,0,74,o,1.3690239999559708,None,74,0,73,515.9860442000208,,,,,,,,,,,,,,,,,,,,,,,,,,,,,,,,,,,,,,,,,,,,,,,,,,515.9704156999942,515.9860442000208,516.489428300003,516.4698145000148,516.4868622000213,516.489428300003,516.489428300003,516.489428300003,517.8698110000114,Scenes\084a.jpg,mid,o,1.3690239999559708,None,,,,,,,,00036,001,2026-01-23_16h28.22.558,MST_test,2024.2.0,59.83999980929077,2026-01-23 16h28.31.081409 +0530,
74,0,75,o,1.3423636000370607,None,75,0,74,517.8860418000259,,,,,,,,,,,,,,,,,,,,,,,,,,,,,,,,,,,,,,,,,,,,,,,,,,517.8701591999852,517.8860418000259,518.4207440000027,518.3695523000206,518.4178367999848,518.4207440000027,518.4207440000027,518.4207440000027,519.7699528000085,Scenes\150b.jpg,mid,o,1.3423636000370607,None,,,,,,,,00036,001,2026-01-23_16h28.22.558,MST_test,2024.2.0,59.83999980929077,2026-01-23 16h28.31.081409 +0530,
75,0,76,o,2.810386099969037,None,76,0,75,519.7858770000166,,,,,,,,,,,,,,,,,,,,,,,,,,,,,,,,,,,,,,,,,,,,,,,,,,519.770330099971,519.7858770000166,520.3121524999733,520.2698087000172,520.3088743999833,520.3121524999733,520.3121524999733,520.3121524999733,523.1365336999879,Objects\099b.jpg,pre,o,2.810386099969037,None,,,,,,,,00036,001,2026-01-23_16h28.22.558,MST_test,2024.2.0,59.83999980929077,2026-01-23 16h28.31.081409 +0530,
76,0,77,o,0.9075339999981225,None,77,0,76,523.1523922000197,,,,,,,,,,,,,,,,,,,,,,,,,,,,,,,,,,,,,,,,,,,,,,,,,,523.136879800004,523.1523922000197,523.6552843999816,523.6363166000228,523.6526990000275,523.6552843999816,523.6552843999816,523.6552843999816,524.5700186999748,Scenes\074a.jpg,mid,o,0.9075339999981225,None,,,,,,,,00036,001,2026-01-23_16h28.22.558,MST_test,2024.2.0,59.83999980929077,2026-01-23 16h28.31.081409 +0530,
77,0,78,o,0.651873400027398,None,78,0,77,524.585993500019,,,,,,,,,,,,,,,,,,,,,,,,,,,,,,,,,,,,,,,,,,,,,,,,,,524.5704068000196,524.585993500019,525.0865318999859,525.0697014000034,525.0782890000264,525.0865318999859,525.0865318999859,525.0865318999859,525.7533923999872,Objects\023a.jpg,pre,o,0.651873400027398,None,,,,,,,,00036,001,2026-01-23_16h28.22.558,MST_test,2024.2.0,59.83999980929077,2026-01-23 16h28.31.081409 +0530,
78,0,79,o,0.8527475000009872,None,79,0,78,525.7693126000231,,,,,,,,,,,,,,,,,,,,,,,,,,,,,,,,,,,,,,,,,,,,,,,,,,525.7537436999846,525.7693126000231,526.2778550999938,526.2529069000157,526.2753081999836,526.2778550999938,526.2778550999938,526.2778550999938,527.1367083999794,Scenes\009a.jpg,pre,o,0.8527475000009872,None,,,,,,,,00036,001,2026-01-23_16h28.22.558,MST_test,2024.2.0,59.83999980929077,2026-01-23 16h28.31.081409 +0530,
79,0,80,o,0.797465999959968,None,80,0,79,527.152459200006,,,,,,,,,,,,,,,,,,,,,,,,,,,,,,,,,,,,,,,,,,,,,,,,,,527.1370639000088,527.152459200006,527.6536153000197,527.6364787999773,527.6458121999749,527.6536153000197,527.6536153000197,527.6536153000197,528.4527816000045,Objects\019a.jpg,mid,o,0.797465999959968,None,,,,,,,,00036,001,2026-01-23_16h28.22.558,MST_test,2024.2.0,59.83999980929077,2026-01-23 16h28.31.081409 +0530,
80,0,81,n,2.0355056000407785,None,81,0,80,528.4693240000051,,,,,,,,,,,,,,,,,,,,,,,,,,,,,,,,,,,,,,,,,,,,,,,,,,528.4530075999792,528.4693240000051,,528.952941800002,528.9727045000182,528.9751926999888,528.9751926999888,528.9751926999888,531.0201828000136,Scenes\060a.jpg,pre,n,2.0355056000407785,None,,,,,,,,00036,001,2026-01-23_16h28.22.558,MST_test,2024.2.0,59.83999980929077,2026-01-23 16h28.31.081409 +0530,
81,0,82,o,1.4981292000156827,None,82,0,81,531.0358088000212,,,,,,,,,,,,,,,,,,,,,,,,,,,,,,,,,,,,,,,,,,,,,,,,,,531.0205585000222,531.0358088000212,531.560392400017,531.5198262999766,531.5574258000124,531.560392400017,531.560392400017,531.560392400017,533.0699946000241,Objects\137b.jpg,post,o,1.4981292000156827,None,,,,,,,,00036,001,2026-01-23_16h28.22.558,MST_test,2024.2.0,59.83999980929077,2026-01-23 16h28.31.081409 +0530,
82,0,83,o,1.14656029996695,None,83,0,82,533.0860826999997,,,,,,,,,,,,,,,,,,,,,,,,,,,,,,,,,,,,,,,,,,,,,,,,,,533.0703417999903,533.0860826999997,533.5918640000164,533.5696908999817,533.5892329000053,533.5918640000164,533.5918640000164,533.5918640000164,534.7533825000282,Scenes\191a.jpg,pre,o,1.14656029996695,None,,,,,,,,00036,001,2026-01-23_16h28.22.558,MST_test,2024.2.0,59.83999980929077,2026-01-23 16h28.31.081409 +0530,
83,0,84,s,2.5606559999869205,None,84,0,83,534.7694047000259,,,,,,,,,,,,,,,,,,,,,,,,,,,,,,,,,,,,,,,,,,,,,,,,,,534.7537417999702,534.7694047000259,535.3064558000187,535.2528609000146,535.3040654999786,535.3064558000187,535.3064558000187,535.3064558000187,537.8697884000139,Objects\033b.jpg,mid,s,2.5606559999869205,None,,,,,,,,00036,001,2026-01-23_16h28.22.558,MST_test,2024.2.0,59.83999980929077,2026-01-23 16h28.31.081409 +0530,
84,0,85,o,2.360797100001946,None,85,0,84,537.8858939000056,,,,,,,,,,,,,,,,,,,,,,,,,,,,,,,,,,,,,,,,,,,,,,,,,,537.8701303999987,537.8858939000056,538.3862766000093,538.3696377999731,538.3784317999962,538.3862766000093,538.3862766000093,538.3862766000093,540.7533549999935,Objects\118a.jpg,pre,o,2.360797100001946,None,,,,,,,,00036,001,2026-01-23_16h28.22.558,MST_test,2024.2.0,59.83999980929077,2026-01-23 16h28.31.081409 +0530,
85,0,86,o,1.8029509999905713,None,86,0,85,540.769378500001,,,,,,,,,,,,,,,,,,,,,,,,,,,,,,,,,,,,,,,,,,,,,,,,,,540.7537935000146,540.769378500001,541.3355095000006,541.2533575000125,541.3327471999801,541.3355095000006,541.3355095000006,541.3355095000006,543.1532263000263,Scenes\003b.jpg,mid,o,1.8029509999905713,None,,,,,,,,00036,001,2026-01-23_16h28.22.558,MST_test,2024.2.0,59.83999980929077,2026-01-23 16h28.31.081409 +0530,
86,0,87,o,0.9057609000010416,None,87,0,86,543.1700537999859,,,,,,,,,,,,,,,,,,,,,,,,,,,,,,,,,,,,,,,,,,,,,,,,,,543.15357949998,543.1700537999859,543.7053193000029,543.6531193000264,543.702447800024,543.7053193000029,543.7053193000029,543.7053193000029,544.6200322000077,Objects\016b.jpg,post,o,0.9057609000010416,None,,,,,,,,00036,001,2026-01-23_16h28.22.558,MST_test,2024.2.0,59.83999980929077,2026-01-23 16h28.31.081409 +0530,
87,0,88,n,2.948862100020051,None,88,0,87,544.6358793000109,,,,,,,,,,,,,,,,,,,,,,,,,,,,,,,,,,,,,,,,,,,,,,,,,,544.6203792999731,544.6358793000109,545.4459261000156,545.119745199976,545.439165799995,545.4459261000156,545.4459261000156,545.4459261000156,548.4034830000019,Foils\scenes26.jpg,none,n,2.948862100020051,None,,,,,,,,00036,001,2026-01-23_16h28.22.558,MST_test,2024.2.0,59.83999980929077,2026-01-23 16h28.31.081409 +0530,
88,0,89,o,1.0424993999768049,None,89,0,88,548.4193976999959,,,,,,,,,,,,,,,,,,,,,,,,,,,,,,,,,,,,,,,,,,,,,,,,,,548.4038507000078,548.4193976999959,548.960141699994,548.9028027000022,548.9578785999911,548.960141699994,548.960141699994,548.960141699994,550.0035475000041,Scenes\114a.jpg,mid,o,1.0424993999768049,None,,,,,,,,00036,001,2026-01-23_16h28.22.558,MST_test,2024.2.0,59.83999980929077,2026-01-23 16h28.31.081409 +0530,
89,0,90,o,1.361696700041648,None,90,0,89,550.0199788999744,,,,,,,,,,,,,,,,,,,,,,,,,,,,,,,,,,,,,,,,,,,,,,,,,,550.0039269999834,550.0199788999744,550.5849089000258,550.5030816000071,550.5818770999904,550.5849089000258,550.5849089000258,550.5849089000258,551.9532433999702,Scenes\093b.jpg,pre,o,1.361696700041648,None,,,,,,,,00036,001,2026-01-23_16h28.22.558,MST_test,2024.2.0,59.83999980929077,2026-01-23 16h28.31.081409 +0530,
90,0,91,o,0.8496029999805614,None,91,0,90,551.9693821999826,,,,,,,,,,,,,,,,,,,,,,,,,,,,,,,,,,,,,,,,,,,,,,,,,,551.9535949000274,551.9693821999826,552.4728982999804,552.4529159999802,552.4708221000037,552.4728982999804,552.4728982999804,552.4728982999804,553.3367195000174,Scenes\082a.jpg,pre,o,0.8496029999805614,None,,,,,,,,00036,001,2026-01-23_16h28.22.558,MST_test,2024.2.0,59.83999980929077,2026-01-23 16h28.31.081409 +0530,
91,0,92,o,0.9655863000079989,None,92,0,91,553.3526440999703,,,,,,,,,,,,,,,,,,,,,,,,,,,,,,,,,,,,,,,,,,,,,,,,,,553.3370610999991,553.3526440999703,553.8529895999818,553.8364665000117,553.8485631999793,553.8529895999818,553.8529895999818,553.8529895999818,554.8199358999846,Objects\036a.jpg,post,o,0.9655863000079989,None,,,,,,,,00036,001,2026-01-23_16h28.22.558,MST_test,2024.2.0,59.83999980929077,2026-01-23 16h28.31.081409 +0530,
92,0,93,s,1.9810433999518864,None,93,0,92,554.8360541000147,,,,,,,,,,,,,,,,,,,,,,,,,,,,,,,,,,,,,,,,,,,,,,,,,,554.8202804999892,554.8360541000147,555.373352500028,555.3197765999939,555.370809199987,555.373352500028,555.373352500028,555.373352500028,557.3699692999944,Scenes\117b.jpg,pre,s,1.9810433999518864,None,,,,,,,,00036,001,2026-01-23_16h28.22.558,MST_test,2024.2.0,59.83999980929077,2026-01-23 16h28.31.081409 +0530,
93,0,94,o,1.2017840999760665,None,94,0,93,557.3864788999781,,,,,,,,,,,,,,,,,,,,,,,,,,,,,,,,,,,,,,,,,,,,,,,,,,557.3703458000091,557.3864788999781,557.9052813000162,557.8696568000014,557.9023112999857,557.9052813000162,557.9052813000162,557.9052813000162,559.1199989999877,Objects\001b.jpg,mid,o,1.2017840999760665,None,,,,,,,,00036,001,2026-01-23_16h28.22.558,MST_test,2024.2.0,59.83999980929077,2026-01-23 16h28.31.081409 +0530,
94,0,95,n,2.2155385999940336,None,95,0,94,559.135907799995,,,,,,,,,,,,,,,,,,,,,,,,,,,,,,,,,,,,,,,,,,,,,,,,,,559.1203465000144,559.135907799995,,559.6202606000006,559.6963816999923,559.6989832000108,559.6989832000108,559.6989832000108,561.9200472999946,Scenes\046b.jpg,pre,n,2.2155385999940336,None,,,,,,,,00036,001,2026-01-23_16h28.22.558,MST_test,2024.2.0,59.83999980929077,2026-01-23 16h28.31.081409 +0530,
95,0,96,n,2.671186099993065,None,96,0,95,561.9359974000254,,,,,,,,,,,,,,,,,,,,,,,,,,,,,,,,,,,,,,,,,,,,,,,,,,561.920416900015,561.9359974000254,562.4831575999851,562.4198292000219,562.4801017999998,562.4831575999851,562.4831575999851,562.4831575999851,565.169985399989,Scenes\055b.jpg,post,n,2.671186099993065,None,,,,,,,,00036,001,2026-01-23_16h28.22.558,MST_test,2024.2.0,59.83999980929077,2026-01-23 16h28.31.081409 +0530,
96,0,97,o,13.524526700028218,None,97,0,96,565.1860516999732,,,,,,,,,,,,,,,,,,,,,,,,,,,,,,,,,,,,,,,,,,,,,,,,,,565.1703289999859,565.1860516999732,565.6865402000258,565.6697211000137,565.6823965000222,565.6865402000258,565.6865402000258,565.6865402000258,579.2202433000202,Scenes\136a.jpg,mid,o,13.524526700028218,None,,,,,,,,00036,001,2026-01-23_16h28.22.558,MST_test,2024.2.0,59.83999980929077,2026-01-23 16h28.31.081409 +0530,
97,0,98,o,1.0792378999758512,None,98,0,97,579.2357198999962,,,,,,,,,,,,,,,,,,,,,,,,,,,,,,,,,,,,,,,,,,,,,,,,,,579.2206026000204,579.2357198999962,579.8118371000164,579.7197173999739,579.80908430001,579.8118371000164,579.8118371000164,579.8118371000164,580.9033813999849,Scenes\066b.jpg,mid,o,1.0792378999758512,None,,,,,,,,00036,001,2026-01-23_16h28.22.558,MST_test,2024.2.0,59.83999980929077,2026-01-23 16h28.31.081409 +0530,
98,0,99,s,2.896633699943777,None,99,0,98,580.9193223000038,,,,,,,,,,,,,,,,,,,,,,,,,,,,,,,,,,,,,,,,,,,,,,,,,,580.9037283000071,580.9193223000038,581.458661200013,581.4031963999732,581.454508099996,581.458661200013,581.458661200013,581.458661200013,584.3701401000144,Objects\156b.jpg,mid,s,2.896633699943777,None,,,,,,,,00036,001,2026-01-23_16h28.22.558,MST_test,2024.2.0,59.83999980929077,2026-01-23 16h28.31.081409 +0530,
99,0,100,o,1.0916774000506848,None,100,0,99,584.3856963000144,,,,,,,,,,,,,,,,,,,,,,,,,,,,,,,,,,,,,,,,,,,,,,,,,,584.3705272999941,584.3856963000144,584.8950604000129,584.8697876000078,584.8920489000157,584.8950604000129,584.8950604000129,584.8950604000129,586.0033872000058,Scenes\156a.jpg,post,o,1.0916774000506848,None,,,,,,,,00036,001,2026-01-23_16h28.22.558,MST_test,2024.2.0,59.83999980929077,2026-01-23 16h28.31.081409 +0530,
100,0,101,o,1.5066389000276104,None,101,0,100,586.0193807000178,,,,,,,,,,,,,,,,,,,,,,,,,,,,,,,,,,,,,,,,,,,,,,,,,,586.0037420999724,586.0193807000178,,586.5036132999812,586.5106892000185,586.5199471000233,586.5199471000233,586.5199471000233,588.0363375999732,Objects\092a.jpg,post,o,1.5066389000276104,None,,,,,,,,00036,001,2026-01-23_16h28.22.558,MST_test,2024.2.0,59.83999980929077,2026-01-23 16h28.31.081409 +0530,
101,0,102,n,1.8940259999944828,None,102,0,101,588.0524829999777,,,,,,,,,,,,,,,,,,,,,,,,,,,,,,,,,,,,,,,,,,,,,,,,,,588.0367018000106,588.0524829999777,588.5723654999747,588.5365788000054,588.5690338999848,588.5723654999747,588.5723654999747,588.5723654999747,590.4697124999948,Foils\scenes3.jpg,none,n,1.8940259999944828,None,,,,,,,,00036,001,2026-01-23_16h28.22.558,MST_test,2024.2.0,59.83999980929077,2026-01-23 16h28.31.081409 +0530,
102,0,103,s,3.6962386000086553,None,103,0,102,590.4857661999995,,,,,,,,,,,,,,,,,,,,,,,,,,,,,,,,,,,,,,,,,,,,,,,,,,590.4700628999854,590.4857661999995,591.0107923999894,590.969991800026,591.0084036000189,591.0107923999894,591.0107923999894,591.0107923999894,594.7202802000102,Objects\020b.jpg,pre,s,3.6962386000086553,None,,,,,,,,00036,001,2026-01-23_16h28.22.558,MST_test,2024.2.0,59.83999980929077,2026-01-23 16h28.31.081409 +0530,
103,0,104,o,4.075674600026105,None,104,0,103,594.7355783000239,,,,,,,,,,,,,,,,,,,,,,,,,,,,,,,,,,,,,,,,,,,,,,,,,,594.7206851000083,594.7355783000239,595.2627677000128,595.2196071000071,595.2602827000082,595.2627677000128,595.2627677000128,595.2627677000128,599.3530935000163,Scenes\052b.jpg,post,o,4.075674600026105,None,,,,,,,,00036,001,2026-01-23_16h28.22.558,MST_test,2024.2.0,59.83999980929077,2026-01-23 16h28.31.081409 +0530,
104,0,105,o,1.1940555000328459,None,105,0,104,599.3694027999882,,,,,,,,,,,,,,,,,,,,,,,,,,,,,,,,,,,,,,,,,,,,,,,,,,599.353447499976,599.3694027999882,599.8730258999858,599.8528954000212,599.8704577999888,599.8730258999858,599.8730258999858,599.8730258999858,601.0698872000212,Scenes\045a.jpg,pre,o,1.1940555000328459,None,,,,,,,,00036,001,2026-01-23_16h28.22.558,MST_test,2024.2.0,59.83999980929077,2026-01-23 16h28.31.081409 +0530,
105,0,106,o,2.5762220000033267,None,106,0,105,601.0863716999884,,,,,,,,,,,,,,,,,,,,,,,,,,,,,,,,,,,,,,,,,,,,,,,,,,601.0702450000099,601.0863716999884,601.5868216999806,601.5697863000096,601.5826643999899,601.5868216999806,601.5868216999806,601.5868216999806,604.1698616999784,Scenes\024a.jpg,mid,o,2.5762220000033267,None,,,,,,,,00036,001,2026-01-23_16h28.22.558,MST_test,2024.2.0,59.83999980929077,2026-01-23 16h28.31.081409 +0530,
106,0,107,s,5.548092600016389,None,107,0,106,604.1858632999938,,,,,,,,,,,,,,,,,,,,,,,,,,,,,,,,,,,,,,,,,,,,,,,,,,604.1702200999716,604.1858632999938,604.6865377000067,604.6695239000255,604.6784512000158,604.6865377000067,604.6865377000067,604.6865377000067,610.236305599974,Objects\186a.jpg,mid,s,5.548092600016389,None,,,,,,,,00036,001,2026-01-23_16h28.22.558,MST_test,2024.2.0,59.83999980929077,2026-01-23 16h28.31.081409 +0530,
107,0,108,n,1.4393047000048682,None,108,0,107,610.2527241000207,,,,,,,,,,,,,,,,,,,,,,,,,,,,,,,,,,,,,,,,,,,,,,,,,,610.2366735999822,610.2527241000207,610.7713093999773,610.7360154999769,610.7692873000051,610.7713093999773,610.7713093999773,610.7713093999773,612.2200624999823,Foils\106a.jpg,none,n,1.4393047000048682,None,,,,,,,,00036,001,2026-01-23_16h28.22.558,MST_test,2024.2.0,59.83999980929077,2026-01-23 16h28.31.081409 +0530,
108,0,109,n,7.143519000033848,None,109,0,108,612.2359840000281,,,,,,,,,,,,,,,,,,,,,,,,,,,,,,,,,,,,,,,,,,,,,,,,,,612.2204257000121,612.2359840000281,612.7475784000126,612.7198085000273,612.7455755000119,612.7475784000126,612.7475784000126,612.7475784000126,619.9039432000136,Foils\034a.jpg,none,n,7.143519000033848,None,,,,,,,,00036,001,2026-01-23_16h28.22.558,MST_test,2024.2.0,59.83999980929077,2026-01-23 16h28.31.081409 +0530,
109,0,110,s,2.7272134000086226,None,110,0,109,619.9193962999852,,,,,,,,,,,,,,,,,,,,,,,,,,,,,,,,,,,,,,,,,,,,,,,,,,619.9043182000169,619.9193962999852,620.4518423000118,620.4029907999793,620.4493692999822,620.4518423000118,620.4518423000118,620.4518423000118,623.1863536000019,Objects\077b.jpg,pre,s,2.7272134000086226,None,,,,,,,,00036,001,2026-01-23_16h28.22.558,MST_test,2024.2.0,59.83999980929077,2026-01-23 16h28.31.081409 +0530,
110,0,111,o,18.675627699994948,None,111,0,110,623.2022566000232,,,,,,,,,,,,,,,,,,,,,,,,,,,,,,,,,,,,,,,,,,,,,,,,,,623.186700100021,623.2022566000232,623.702874700015,623.6864456000039,623.7004722999991,623.702874700015,623.702874700015,623.702874700015,642.3875120999874,Scenes\042a.jpg,post,o,18.675627699994948,None,,,,,,,,00036,001,2026-01-23_16h28.22.558,MST_test,2024.2.0,59.83999980929077,2026-01-23 16h28.31.081409 +0530,
111,0,112,o,1.0589023000211455,None,112,0,111,642.4026576000033,,,,,,,,,,,,,,,,,,,,,,,,,,,,,,,,,,,,,,,,,,,,,,,,,,642.3878896000097,642.4026576000033,642.9034703000216,642.8861753999954,642.8931969000259,642.9034703000216,642.9034703000216,642.9034703000216,643.9700316999806,Objects\106a.jpg,pre,o,1.0589023000211455,None,,,,,,,,00036,001,2026-01-23_16h28.22.558,MST_test,2024.2.0,59.83999980929077,2026-01-23 16h28.31.081409 +0530,
112,0,113,o,0.8621927000349388,None,113,0,112,643.9860612999764,,,,,,,,,,,,,,,,,,,,,,,,,,,,,,,,,,,,,,,,,,,,,,,,,,643.9703887000214,643.9860612999764,,644.4702468999894,644.4898847999866,644.4922944999998,644.4922944999998,644.4922944999998,645.3706416999921,Scenes\086a.jpg,pre,o,0.8621927000349388,None,,,,,,,,00036,001,2026-01-23_16h28.22.558,MST_test,2024.2.0,59.83999980929077,2026-01-23 16h28.31.081409 +0530,
113,0,114,o,4.164017600007355,None,114,0,113,645.3859278999735,,,,,,,,,,,,,,,,,,,,,,,,,,,,,,,,,,,,,,,,,,,,,,,,,,645.3710092999972,645.3859278999735,645.8865972000058,645.8698842999875,645.8782732000109,645.8865972000058,645.8865972000058,645.8865972000058,650.0535931999912,Objects\070a.jpg,post,o,4.164017600007355,None,,,,,,,,00036,001,2026-01-23_16h28.22.558,MST_test,2024.2.0,59.83999980929077,2026-01-23 16h28.31.081409 +0530,
114,0,115,o,0.8826544999610633,None,115,0,114,650.0701684000087,,,,,,,,,,,,,,,,,,,,,,,,,,,,,,,,,,,,,,,,,,,,,,,,,,650.0539405000163,650.0701684000087,,650.5696497000172,650.5899859999772,650.5923656999948,650.5923656999948,650.5923656999948,651.4867524000001,Scenes\089a.jpg,post,o,0.8826544999610633,None,,,,,,,,00036,001,2026-01-23_16h28.22.558,MST_test,2024.2.0,59.83999980929077,2026-01-23 16h28.31.081409 +0530,
115,0,116,o,0.7167210000334308,None,116,0,115,651.5025726999738,,,,,,,,,,,,,,,,,,,,,,,,,,,,,,,,,,,,,,,,,,,,,,,,,,651.4871472999803,651.5025726999738,652.0142570000025,651.9866400000174,652.0116052000085,652.0142570000025,652.0142570000025,652.0142570000025,652.7374748999719,Scenes\161a.jpg,pre,o,0.7167210000334308,None,,,,,,,,00036,001,2026-01-23_16h28.22.558,MST_test,2024.2.0,59.83999980929077,2026-01-23 16h28.31.081409 +0530,
116,0,117,o,0.763029900030233,None,117,0,116,652.7525121999788,,,,,,,,,,,,,,,,,,,,,,,,,,,,,,,,,,,,,,,,,,,,,,,,,,652.7378218999947,652.7525121999788,653.2794211999862,653.2363400000031,653.2765517000225,653.2794211999862,653.2794211999862,653.2794211999862,654.0533170999843,Scenes\146b.jpg,post,o,0.763029900030233,None,,,,,,,,00036,001,2026-01-23_16h28.22.558,MST_test,2024.2.0,59.83999980929077,2026-01-23 16h28.31.081409 +0530,
117,0,118,o,1.0278608999797143,None,118,0,117,654.0701595999999,,,,,,,,,,,,,,,,,,,,,,,,,,,,,,,,,,,,,,,,,,,,,,,,,,654.0537052999716,654.0701595999999,654.5745842999895,654.5531663000002,654.5721594999777,654.5745842999895,654.5745842999895,654.5745842999895,655.6041283999803,Scenes\118a.jpg,mid,o,1.0278608999797143,None,,,,,,,,00036,001,2026-01-23_16h28.22.558,MST_test,2024.2.0,59.83999980929077,2026-01-23 16h28.31.081409 +0530,
118,0,119,s,2.506103199964855,None,119,0,118,655.619382600009,,,,,,,,,,,,,,,,,,,,,,,,,,,,,,,,,,,,,,,,,,,,,,,,,,655.604482900002,655.619382600009,656.1448475000216,656.1030715000234,656.1420153999934,656.1448475000216,656.1448475000216,656.1448475000216,658.6533851000131,Objects\126b.jpg,pre,s,2.506103199964855,None,,,,,,,,00036,001,2026-01-23_16h28.22.558,MST_test,2024.2.0,59.83999980929077,2026-01-23 16h28.31.081409 +0530,
119,0,120,s,1.7345937000354752,None,120,0,119,658.6694037999841,,,,,,,,,,,,,,,,,,,,,,,,,,,,,,,,,,,,,,,,,,,,,,,,,,658.653783900023,658.6694037999841,659.1957347000134,659.1531076999963,659.1930014999816,659.1957347000134,659.1957347000134,659.1957347000134,660.9368172999821,Scenes\053b.jpg,mid,s,1.7345937000354752,None,,,,,,,,00036,001,2026-01-23_16h28.22.558,MST_test,2024.2.0,59.83999980929077,2026-01-23 16h28.31.081409 +0530,
120,0,121,o,1.1894560999935493,None,121,0,120,660.9528005999746,,,,,,,,,,,,,,,,,,,,,,,,,,,,,,,,,,,,,,,,,,,,,,,,,,660.9371901000268,660.9528005999746,661.4528840999701,661.4363007000065,661.445218799985,661.4528840999701,661.4528840999701,661.4528840999701,662.6533210999914,Objects\022a.jpg,pre,o,1.1894560999935493,None,,,,,,,,00036,001,2026-01-23_16h28.22.558,MST_test,2024.2.0,59.83999980929077,2026-01-23 16h28.31.081409 +0530,
121,0,122,s,1.9977809999836609,None,122,0,121,662.669396799989,,,,,,,,,,,,,,,,,,,,,,,,,,,,,,,,,,,,,,,,,,,,,,,,,,662.6536889999988,662.669396799989,663.1886112000211,663.152840099996,663.1851720000268,663.1886112000211,663.1886112000211,663.1886112000211,665.2037336999783,Foils\scenes6.jpg,none,s,1.9977809999836609,None,,,,,,,,00036,001,2026-01-23_16h28.22.558,MST_test,2024.2.0,59.83999980929077,2026-01-23 16h28.31.081409 +0530,
122,0,123,n,1.5123770000063814,None,123,0,122,665.2193929000059,,,,,,,,,,,,,,,,,,,,,,,,,,,,,,,,,,,,,,,,,,,,,,,,,,665.2040835000225,665.2193929000059,665.7382400999777,665.7029927999829,665.7345537000219,665.7382400999777,665.7382400999777,665.7382400999777,667.2530145000201,Foils\042a.jpg,none,n,1.5123770000063814,None,,,,,,,,00036,001,2026-01-23_16h28.22.558,MST_test,2024.2.0,59.83999980929077,2026-01-23 16h28.31.081409 +0530,
123,0,124,s,4.720889799995348,None,124,0,123,667.2692441000254,,,,,,,,,,,,,,,,,,,,,,,,,,,,,,,,,,,,,,,,,,,,,,,,,,667.2533642000053,667.2692441000254,,667.7532176999957,667.7612329000258,667.7696651999722,667.7696651999722,667.7696651999722,672.503201399988,Objects\161a.jpg,pre,s,4.720889799995348,None,,,,,,,,00036,001,2026-01-23_16h28.22.558,MST_test,2024.2.0,59.83999980929077,2026-01-23 16h28.31.081409 +0530,
124,0,125,n,1.7936758999712765,None,125,0,124,672.51923049998,,,,,,,,,,,,,,,,,,,,,,,,,,,,,,,,,,,,,,,,,,,,,,,,,,672.5035425000242,672.51923049998,673.0408439000021,673.0031101999921,673.0384054000024,673.0408439000021,673.0408439000021,673.0408439000021,674.8363267999957,Foils\121a.jpg,none,n,1.7936758999712765,None,,,,,,,,00036,001,2026-01-23_16h28.22.558,MST_test,2024.2.0,59.83999980929077,2026-01-23 16h28.31.081409 +0530,
125,0,126,o,1.2174265999929048,None,126,0,125,674.8524490999989,,,,,,,,,,,,,,,,,,,,,,,,,,,,,,,,,,,,,,,,,,,,,,,,,,674.8366959000123,674.8524490999989,675.3528676999849,675.3361476999708,675.3442149999901,675.3528676999849,675.3528676999849,675.3528676999849,676.5862942999811,Objects\181a.jpg,post,o,1.2174265999929048,None,,,,,,,,00036,001,2026-01-23_16h28.22.558,MST_test,2024.2.0,59.83999980929077,2026-01-23 16h28.31.081409 +0530,
126,0,127,n,1.448349300015252,None,127,0,126,676.6026798000094,,,,,,,,,,,,,,,,,,,,,,,,,,,,,,,,,,,,,,,,,,,,,,,,,,676.5866205000202,676.6026798000094,677.1384577999706,677.0864622999798,677.1363132999977,677.1384577999706,677.1384577999706,677.1384577999706,678.6039282000274,Foils\017a.jpg,none,n,1.448349300015252,None,,,,,,,,00036,001,2026-01-23_16h28.22.558,MST_test,2024.2.0,59.83999980929077,2026-01-23 16h28.31.081409 +0530,
127,0,128,o,1.4507763999863528,None,128,0,127,678.6188606999931,,,,,,,,,,,,,,,,,,,,,,,,,,,,,,,,,,,,,,,,,,,,,,,,,,678.6043612000067,678.6188606999931,679.1195810000063,679.1031842000084,679.1123981000273,679.1195810000063,679.1195810000063,679.1195810000063,680.5870982999913,Objects\131a.jpg,mid,o,1.4507763999863528,None,,,,,,,,00036,001,2026-01-23_16h28.22.558,MST_test,2024.2.0,59.83999980929077,2026-01-23 16h28.31.081409 +0530,
128,0,129,n,1.7132868999615312,None,129,0,128,680.6032797999796,,,,,,,,,,,,,,,,,,,,,,,,,,,,,,,,,,,,,,,,,,,,,,,,,,680.5874460000196,680.6032797999796,681.1211662000278,681.0864867999917,681.1184050000156,681.1211662000278,681.1211662000278,681.1211662000278,682.8359365999931,Objects\191b.jpg,pre,n,1.7132868999615312,None,,,,,,,,00036,001,2026-01-23_16h28.22.558,MST_test,2024.2.0,59.83999980929077,2026-01-23 16h28.31.081409 +0530,
129,0,130,n,2.1965230999630876,None,130,0,129,682.8525301999762,,,,,,,,,,,,,,,,,,,,,,,,,,,,,,,,,,,,,,,,,,,,,,,,,,682.8360945999739,682.8525301999762,,683.3363348999992,683.3719682000228,683.3741749000037,683.3741749000037,683.3741749000037,685.5868262000149,Objects\139b.jpg,pre,n,2.1965230999630876,None,,,,,,,,00036,001,2026-01-23_16h28.22.558,MST_test,2024.2.0,59.83999980929077,2026-01-23 16h28.31.081409 +0530,
130,0,131,n,6.796865799988154,None,131,0,130,685.6028300999897,,,,,,,,,,,,,,,,,,,,,,,,,,,,,,,,,,,,,,,,,,,,,,,,,,685.5871729999781,685.6028300999897,686.1175105000148,686.0864773999783,686.1148751999717,686.1175105000148,686.1175105000148,686.1175105000148,692.9197996999719,Objects\157b.jpg,post,n,6.796865799988154,None,,,,,,,,00036,001,2026-01-23_16h28.22.558,MST_test,2024.2.0,59.83999980929077,2026-01-23 16h28.31.081409 +0530,
131,0,132,o,2.0309556999709457,None,132,0,131,692.9360873000114,,,,,,,,,,,,,,,,,,,,,,,,,,,,,,,,,,,,,,,,,,,,,,,,,,692.9202078999951,692.9360873000114,693.4360200000228,693.4195437000017,693.4276780000073,693.4360200000228,693.4360200000228,693.4360200000228,695.4699566999916,Objects\128a.jpg,post,o,2.0309556999709457,None,,,,,,,,00036,001,2026-01-23_16h28.22.558,MST_test,2024.2.0,59.83999980929077,2026-01-23 16h28.31.081409 +0530,
132,0,133,n,2.6499679000116885,None,133,0,132,695.4858208000078,,,,,,,,,,,,,,,,,,,,,,,,,,,,,,,,,,,,,,,,,,,,,,,,,,695.4703055999707,695.4858208000078,695.9927079000045,695.9696219000034,695.9904890999896,695.9927079000045,695.9927079000045,695.9927079000045,698.6532686999999,Foils\scenes5.jpg,none,n,2.6499679000116885,None,,,,,,,,00036,001,2026-01-23_16h28.22.558,MST_test,2024.2.0,59.83999980929077,2026-01-23 16h28.31.081409 +0530,
133,0,134,n,3.329699599999003,None,134,0,133,698.6697503000032,,,,,,,,,,,,,,,,,,,,,,,,,,,,,,,,,,,,,,,,,,,,,,,,,,698.653617599979,698.6697503000032,699.1766888999846,699.1529281000257,699.1743430999923,699.1766888999846,699.1766888999846,699.1766888999846,702.5200530000147,Foils\057a.jpg,none,n,3.329699599999003,None,,,,,,,,00036,001,2026-01-23_16h28.22.558,MST_test,2024.2.0,59.83999980929077,2026-01-23 16h28.31.081409 +0530,
134,0,135,o,1.9692984000430442,None,135,0,134,702.5360694000265,,,,,,,,,,,,,,,,,,,,,,,,,,,,,,,,,,,,,,,,,,,,,,,,,,702.520427600015,702.5360694000265,703.0736854000133,703.0197285999893,703.0710652000271,703.0736854000133,703.0736854000133,703.0736854000133,705.0533983000205,Scenes\062b.jpg,mid,o,1.9692984000430442,None,,,,,,,,00036,001,2026-01-23_16h28.22.558,MST_test,2024.2.0,59.83999980929077,2026-01-23 16h28.31.081409 +0530,
135,0,136,s,2.4217738000443205,None,136,0,135,705.0694085999858,,,,,,,,,,,,,,,,,,,,,,,,,,,,,,,,,,,,,,,,,,,,,,,,,,705.0537581000244,705.0694085999858,,705.553579600004,705.6103715000208,705.6135160999838,705.6135160999838,705.6135160999838,708.0367216999875,Objects\051b.jpg,mid,s,2.4217738000443205,None,,,,,,,,00036,001,2026-01-23_16h28.22.558,MST_test,2024.2.0,59.83999980929077,2026-01-23 16h28.31.081409 +0530,
136,0,137,n,1.3427809000131674,None,137,0,136,708.0527624000097,,,,,,,,,,,,,,,,,,,,,,,,,,,,,,,,,,,,,,,,,,,,,,,,,,708.0370787999709,708.0527624000097,708.6521672999952,708.5361900000134,708.6490275000106,708.6521672999952,708.6521672999952,708.6521672999952,710.0032617999823,Foils\105a.jpg,none,n,1.3427809000131674,None,,,,,,,,00036,001,2026-01-23_16h28.22.558,MST_test,2024.2.0,59.83999980929077,2026-01-23 16h28.31.081409 +0530,
137,0,138,s,10.704541500017513,None,138,0,137,710.0192237999872,,,,,,,,,,,,,,,,,,,,,,,,,,,,,,,,,,,,,,,,,,,,,,,,,,710.0036252000136,710.0192237999872,710.5540911999997,710.5031322999857,710.5521060000174,710.5540911999997,710.5540911999997,710.5540911999997,721.2700647999882,Objects\167b.jpg,mid,s,10.704541500017513,None,,,,,,,,00036,001,2026-01-23_16h28.22.558,MST_test,2024.2.0,59.83999980929077,2026-01-23 16h28.31.081409 +0530,
138,0,139,s,1.4524128999910317,None,139,0,138,721.286069600028,,,,,,,,,,,,,,,,,,,,,,,,,,,,,,,,,,,,,,,,,,,,,,,,,,721.2704360000207,721.286069600028,721.7979829999967,721.7696412000223,721.7959295000182,721.7979829999967,721.7979829999967,721.7979829999967,723.2530880999984,Objects\152b.jpg,mid,s,1.4524128999910317,None,,,,,,,,00036,001,2026-01-23_16h28.22.558,MST_test,2024.2.0,59.83999980929077,2026-01-23 16h28.31.081409 +0530,
139,0,140,n,3.247667999996338,None,140,0,139,723.2694126000279,,,,,,,,,,,,,,,,,,,,,,,,,,,,,,,,,,,,,,,,,,,,,,,,,,723.2534332000068,723.2694126000279,,723.7533554999973,723.801177699992,723.803267100011,723.803267100011,723.803267100011,727.0531235000235,Objects\089b.jpg,post,n,3.247667999996338,None,,,,,,,,00036,001,2026-01-23_16h28.22.558,MST_test,2024.2.0,59.83999980929077,2026-01-23 16h28.31.081409 +0530,
140,0,141,o,2.4083911999478005,None,141,0,140,727.0692683000234,,,,,,,,,,,,,,,,,,,,,,,,,,,,,,,,,,,,,,,,,,,,,,,,,,727.0535678999731,727.0692683000234,727.5699444999918,727.5531394999707,727.5622229999863,727.5699444999918,727.5699444999918,727.5699444999918,729.9867268999806,Objects\082a.jpg,mid,o,2.4083911999478005,None,,,,,,,,00036,001,2026-01-23_16h28.22.558,MST_test,2024.2.0,59.83999980929077,2026-01-23 16h28.31.081409 +0530,
141,0,142,s,3.1477248999872245,None,142,0,141,730.0027486999752,,,,,,,,,,,,,,,,,,,,,,,,,,,,,,,,,,,,,,,,,,,,,,,,,,729.9870827000123,730.0027486999752,730.5029482999817,730.4864670999814,730.4952079000068,730.5029482999817,730.5029482999817,730.5029482999817,733.6530998999951,Objects\112a.jpg,mid,s,3.1477248999872245,None,,,,,,,,00036,001,2026-01-23_16h28.22.558,MST_test,2024.2.0,59.83999980929077,2026-01-23 16h28.31.081409 +0530,
142,0,143,s,1.357135099999141,None,143,0,142,733.6693368999986,,,,,,,,,,,,,,,,,,,,,,,,,,,,,,,,,,,,,,,,,,,,,,,,,,733.6534473000211,733.6693368999986,734.1895111000049,734.153135999979,734.1862792000175,734.1895111000049,734.1895111000049,734.1895111000049,735.5533953999984,Foils\scenes16.jpg,none,s,1.357135099999141,None,,,,,,,,00036,001,2026-01-23_16h28.22.558,MST_test,2024.2.0,59.83999980929077,2026-01-23 16h28.31.081409 +0530,
143,0,144,n,1.3675081999972463,None,144,0,143,735.5693428000086,,,,,,,,,,,,,,,,,,,,,,,,,,,,,,,,,,,,,,,,,,,,,,,,,,735.5537445999798,735.5693428000086,736.0994207999902,736.0530808999902,736.0967819999787,736.0994207999902,736.0994207999902,736.0994207999902,737.4703625999973,Foils\002a.jpg,none,n,1.3675081999972463,None,,,,,,,,00036,001,2026-01-23_16h28.22.558,MST_test,2024.2.0,59.83999980929077,2026-01-23 16h28.31.081409 +0530,
144,0,145,o,3.612063299980946,None,145,0,144,737.4859818000114,,,,,,,,,,,,,,,,,,,,,,,,,,,,,,,,,,,,,,,,,,,,,,,,,,737.4707122999826,737.4859818000114,738.0229098999989,737.9695346999797,738.0201821000082,738.0229098999989,738.0229098999989,738.0229098999989,741.6363622000208,Foils\066a.jpg,none,o,3.612063299980946,None,,,,,,,,00036,001,2026-01-23_16h28.22.558,MST_test,2024.2.0,59.83999980929077,2026-01-23 16h28.31.081409 +0530,
145,0,146,o,0.8657088000327349,None,146,0,145,741.6527494000038,,,,,,,,,,,,,,,,,,,,,,,,,,,,,,,,,,,,,,,,,,,,,,,,,,741.6367826000205,741.6527494000038,742.1528205000213,742.1362814999884,742.1423596999957,742.1528205000213,742.1528205000213,742.1528205000213,743.0198381000082,Objects\165a.jpg,pre,o,0.8657088000327349,None,,,,,,,,00036,001,2026-01-23_16h28.22.558,MST_test,2024.2.0,59.83999980929077,2026-01-23 16h28.31.081409 +0530,
146,0,147,o,1.9787403999944218,None,147,0,146,743.0358664999949,,,,,,,,,,,,,,,,,,,,,,,,,,,,,,,,,,,,,,,,,,,,,,,,,,743.02019499999,743.0358664999949,743.5362484999932,743.5198202999891,743.5282311000046,743.5362484999932,743.5362484999932,743.5362484999932,745.5200430999976,Objects\171a.jpg,post,o,1.9787403999944218,None,,,,,,,,00036,001,2026-01-23_16h28.22.558,MST_test,2024.2.0,59.83999980929077,2026-01-23 16h28.31.081409 +0530,
147,0,148,o,0.9501283999998122,None,148,0,147,745.5365330000059,,,,,,,,,,,,,,,,,,,,,,,,,,,,,,,,,,,,,,,,,,,,,,,,,,745.5203885000083,745.5365330000059,746.0362662000116,746.0198116999818,746.0291682999814,746.0362662000116,746.0362662000116,746.0362662000116,747.0031577000045,Objects\015a.jpg,mid,o,0.9501283999998122,None,,,,,,,,00036,001,2026-01-23_16h28.22.558,MST_test,2024.2.0,59.83999980929077,2026-01-23 16h28.31.081409 +0530,
148,0,149,o,2.0692218999611214,None,149,0,148,747.019647100009,,,,,,,,,,,,,,,,,,,,,,,,,,,,,,,,,,,,,,,,,,,,,,,,,,747.003507299989,747.019647100009,747.5492716999725,747.5031444000197,747.5466299999971,747.5492716999725,747.5492716999725,747.5492716999725,749.6199551000027,Scenes\177b.jpg,mid,o,2.0692218999611214,None,,,,,,,,00036,001,2026-01-23_16h28.22.558,MST_test,2024.2.0,59.83999980929077,2026-01-23 16h28.31.081409 +0530,
149,0,150,o,0.8901101999799721,None,150,0,149,749.6358241999988,,,,,,,,,,,,,,,,,,,,,,,,,,,,,,,,,,,,,,,,,,,,,,,,,,749.6203174000257,749.6358241999988,750.1364493999863,750.119647399988,750.130645999976,750.1364493999863,750.1364493999863,750.1364493999863,751.0366649000207,Objects\130a.jpg,mid,o,0.8901101999799721,None,,,,,,,,00036,001,2026-01-23_16h28.22.558,MST_test,2024.2.0,59.83999980929077,2026-01-23 16h28.31.081409 +0530,
,,,,,,,,,,,,,,,,,,,,,,,,,,,,,,,,,,,,,,,,,,,,,,,,,,,,,,,,,,,,,,,,,,,,,,,,,751.0368883999763,751.0525962000247,751.0525962000247,760.6865449000034,space,9.622567099984735,None,00036,001,2026-01-23_16h28.22.558,MST_test,2024.2.0,59.83999980929077,2026-01-23 16h28.31.081409 +0530,
