thisN,thisTrialN,thisRepN,key_resp_3.keys,key_resp_3.rt,key_resp_3.duration,trials.thisRepN,trials.thisTrialN,trials.thisN,thisRow.t,notes,intro_page.started,text.started,key_resp.started,intro_page.stopped,key_resp.keys,key_resp.rt,key_resp.duration,instructions.started,text_2.started,key_resp_2.started,instructions.stopped,key_resp_2.keys,key_resp_2.rt,key_resp_2.duration,demo1.started,image_1.started,image_2.started,text_7.started,key_resp_6.started,text_9.started,demo1.stopped,key_resp_6.keys,key_resp_6.rt,key_resp_6.duration,demo2.started,image_5.started,image_6.started,text_11.started,text_12.started,key_resp_8.started,demo2.stopped,key_resp_8.keys,key_resp_8.rt,key_resp_8.duration,demo_conclusion.started,text_13.started,key_resp_9.started,demo_conclusion.stopped,key_resp_9.keys,key_resp_9.rt,key_resp_9.duration,start_test.started,text_6.started,key_resp_5.started,start_test.stopped,key_resp_5.keys,key_resp_5.rt,key_resp_5.duration,ISI.started,text_4.started,text_4.stopped,ISI.stopped,routine_1.started,image.started,text_3.started,key_resp_3.started,routine_1.stopped,image_path,position_of_stimuli,trials.key_resp_3.keys,trials.key_resp_3.rt,trials.key_resp_3.duration,End_page.started,text_5.started,key_resp_4.started,End_page.stopped,key_resp_4.keys,key_resp_4.rt,key_resp_4.duration,participant,session,date,expName,psychopyVersion,frameRate,expStart,
,,,,,,,,,,,0.0013795000268146396,0.0030557000427506864,0.0030557000427506864,5.158961900044233,space,5.134285299980547,None,,,,,,,,,,,,,,,,,,,,,,,,,,,,,,,,,,,,,,,,,,,,,,,,,,,,,,,,,,,,,,,00035,001,2026-01-22_21h18.33.812,MST_test,2024.2.0,59.89214622456583,2026-01-22 21h18.41.075742 +0530,
,,,,,,,,,,,,,,,,,,5.158998800034169,5.169544300006237,5.169544300006237,21.72060210001655,space,16.543877699994482,None,,,,,,,,,,,,,,,,,,,,,,,,,,,,,,,,,,,,,,,,,,,,,,,,,,,,,,,,00035,001,2026-01-22_21h18.33.812,MST_test,2024.2.0,59.89214622456583,2026-01-22 21h18.41.075742 +0530,
,,,,,,,,,,,,,,,,,,,,,,,,,21.72071910003433,21.758865100040566,21.758865100040566,21.758865100040566,21.758865100040566,21.758865100040566,27.17076619999716,space,5.402515099965967,None,,,,,,,,,,,,,,,,,,,,,,,,,,,,,,,,,,,,,,,,,,,,,,00035,001,2026-01-22_21h18.33.812,MST_test,2024.2.0,59.89214622456583,2026-01-22 21h18.41.075742 +0530,
,,,,,,,,,,,,,,,,,,,,,,,,,,,,,,,,,,,27.170868600020185,27.18731750000734,27.18731750000734,27.18731750000734,27.18731750000734,27.18731750000734,30.237241000053473,space,3.0466041999752633,None,,,,,,,,,,,,,,,,,,,,,,,,,,,,,,,,,,,,00035,001,2026-01-22_21h18.33.812,MST_test,2024.2.0,59.89214622456583,2026-01-22 21h18.41.075742 +0530,
,,,,,,,,,,,,,,,,,,,,,,,,,,,,,,,,,,,,,,,,,,,,,30.237340400053654,30.253454100049566,30.253454100049566,50.7541267000488,space,20.49998969997978,None,,,,,,,,,,,,,,,,,,,,,,,,,,,,,00035,001,2026-01-22_21h18.33.812,MST_test,2024.2.0,59.89214622456583,2026-01-22 21h18.41.075742 +0530,
,,,,,,,,,,,,,,,,,,,,,,,,,,,,,,,,,,,,,,,,,,,,,,,,,,,,50.75422920001438,50.77004000003217,50.77004000003217,103.68744020001031,space,52.911563200003,None,,,,,,,,,,,,,,,,,,,,,,00035,001,2026-01-22_21h18.33.812,MST_test,2024.2.0,59.89214622456583,2026-01-22 21h18.41.075742 +0530,
0,0,1,n,3.9903278999845497,None,1,0,0,103.70306000002893,,,,,,,,,,,,,,,,,,,,,,,,,,,,,,,,,,,,,,,,,,,,,,,,,,103.6980581000098,103.70306000002893,104.21164580003824,104.18691980000585,104.20849180000369,104.21164580003824,104.21164580003824,104.21164580003824,108.20378750003874,Scenes\177a.jpg,pre,n,3.9903278999845497,None,,,,,,,,00035,001,2026-01-22_21h18.33.812,MST_test,2024.2.0,59.89214622456583,2026-01-22 21h18.41.075742 +0530,
1,0,2,o,3.613458100007847,None,2,0,1,108.22003080003196,,,,,,,,,,,,,,,,,,,,,,,,,,,,,,,,,,,,,,,,,,,,,,,,,,108.20424620003905,108.22003080003196,108.72416680003516,108.70379749999847,108.72149500000523,108.72416680003516,108.72416680003516,108.72416680003516,112.35415800003102,Scenes\175a.jpg,post,o,3.613458100007847,None,,,,,,,,00035,001,2026-01-22_21h18.33.812,MST_test,2024.2.0,59.89214622456583,2026-01-22 21h18.41.075742 +0530,
2,0,3,o,1.7462816000333987,None,3,0,2,112.36973650002619,,,,,,,,,,,,,,,,,,,,,,,,,,,,,,,,,,,,,,,,,,,,,,,,,,112.35455180000281,112.36973650002619,112.87158210005146,112.85382670001127,112.86937030003173,112.87158210005146,112.87158210005146,112.87158210005146,114.62051300000167,Objects\010a.jpg,mid,o,1.7462816000333987,None,,,,,,,,00035,001,2026-01-22_21h18.33.812,MST_test,2024.2.0,59.89214622456583,2026-01-22 21h18.41.075742 +0530,
3,0,4,s,2.6513543999753892,None,4,0,3,114.63670570001705,,,,,,,,,,,,,,,,,,,,,,,,,,,,,,,,,,,,,,,,,,,,,,,,,,114.62091540003894,114.63670570001705,115.14248950005276,115.12041309999768,115.13997940003173,115.14248950005276,115.14248950005276,115.14248950005276,117.80412640003487,Scenes\025a.jpg,post,s,2.6513543999753892,None,,,,,,,,00035,001,2026-01-22_21h18.33.812,MST_test,2024.2.0,59.89214622456583,2026-01-22 21h18.41.075742 +0530,
4,0,5,s,3.0367382999975234,None,5,0,4,117.8202406000346,,,,,,,,,,,,,,,,,,,,,,,,,,,,,,,,,,,,,,,,,,,,,,,,,,117.80451690003974,117.8202406000346,118.32514080003602,118.30350560002262,118.32266970002092,118.32514080003602,118.32514080003602,118.32514080003602,121.37084640003741,Scenes\054a.jpg,pre,s,3.0367382999975234,None,,,,,,,,00035,001,2026-01-22_21h18.33.812,MST_test,2024.2.0,59.89214622456583,2026-01-22 21h18.41.075742 +0530,
5,0,6,o,2.0500027000089176,None,6,0,5,121.38676590000978,,,,,,,,,,,,,,,,,,,,,,,,,,,,,,,,,,,,,,,,,,,,,,,,,,121.3712503000279,121.38676590000978,121.88732870004606,121.87046570004895,121.87920880003367,121.88732870004606,121.88732870004606,121.88732870004606,123.95360770000843,Objects\174a.jpg,post,o,2.0500027000089176,None,,,,,,,,00035,001,2026-01-22_21h18.33.812,MST_test,2024.2.0,59.89214622456583,2026-01-22 21h18.41.075742 +0530,
6,0,7,s,2.930631000024732,None,7,0,6,123.96938250004314,,,,,,,,,,,,,,,,,,,,,,,,,,,,,,,,,,,,,,,,,,,,,,,,,,123.95393900002819,123.96938250004314,124.48659560002852,124.45326020003995,124.4846808000002,124.48659560002852,124.48659560002852,124.48659560002852,127.42071420000866,Objects\132b.jpg,post,s,2.930631000024732,None,,,,,,,,00035,001,2026-01-22_21h18.33.812,MST_test,2024.2.0,59.89214622456583,2026-01-22 21h18.41.075742 +0530,
7,0,8,s,2.198270599998068,None,8,0,7,127.4367497000494,,,,,,,,,,,,,,,,,,,,,,,,,,,,,,,,,,,,,,,,,,,,,,,,,,127.42112190002808,127.4367497000494,127.95502990001114,127.92041280004196,127.95250180002768,127.95502990001114,127.95502990001114,127.95502990001114,130.15390450000996,Objects\170b.jpg,pre,s,2.198270599998068,None,,,,,,,,00035,001,2026-01-22_21h18.33.812,MST_test,2024.2.0,59.89214622456583,2026-01-22 21h18.41.075742 +0530,
8,0,9,s,3.1579640000127256,None,9,0,8,130.17001290002372,,,,,,,,,,,,,,,,,,,,,,,,,,,,,,,,,,,,,,,,,,,,,,,,,,130.15427790000103,130.17001290002372,130.70743450004375,130.65406150004128,130.70465860003605,130.70743450004375,130.70743450004375,130.70743450004375,133.87059610005235,Scenes\068b.jpg,pre,s,3.1579640000127256,None,,,,,,,,00035,001,2026-01-22_21h18.33.812,MST_test,2024.2.0,59.89214622456583,2026-01-22 21h18.41.075742 +0530,
9,0,10,s,3.214832599973306,None,10,0,9,133.88653200003318,,,,,,,,,,,,,,,,,,,,,,,,,,,,,,,,,,,,,,,,,,,,,,,,,,133.87101050000638,133.88653200003318,134.38703090004856,134.37054250005167,134.37958530004835,134.38703090004856,134.38703090004856,134.38703090004856,137.60368670005118,Foils\scenes16.jpg,none,s,3.214832599973306,None,,,,,,,,00035,001,2026-01-22_21h18.33.812,MST_test,2024.2.0,59.89214622456583,2026-01-22 21h18.41.075742 +0530,
10,0,11,s,1.7766959999571554,None,11,0,10,137.6199336000136,,,,,,,,,,,,,,,,,,,,,,,,,,,,,,,,,,,,,,,,,,,,,,,,,,137.60404720000224,137.6199336000136,138.16871350002475,138.1038196000154,138.16651520004962,138.16871350002475,138.16871350002475,138.16871350002475,139.9537894000532,Objects\143b.jpg,pre,s,1.7766959999571554,None,,,,,,,,00035,001,2026-01-22_21h18.33.812,MST_test,2024.2.0,59.89214622456583,2026-01-22 21h18.41.075742 +0530,
11,0,12,o,5.123684600053821,None,12,0,11,139.96977550000884,,,,,,,,,,,,,,,,,,,,,,,,,,,,,,,,,,,,,,,,,,,,,,,,,,139.95419830002356,139.96977550000884,140.47015790001024,140.45357589999912,140.45972830004757,140.47015790001024,140.47015790001024,140.47015790001024,145.6049948,Objects\169a.jpg,post,o,5.123684600053821,None,,,,,,,,00035,001,2026-01-22_21h18.33.812,MST_test,2024.2.0,59.89214622456583,2026-01-22 21h18.41.075742 +0530,
12,0,13,o,1.4654291999759153,None,13,0,12,145.62018160003936,,,,,,,,,,,,,,,,,,,,,,,,,,,,,,,,,,,,,,,,,,,,,,,,,,145.6053831000463,145.62018160003936,146.12011880002683,146.10379520000424,146.10976350004785,146.12011880002683,146.12011880002683,146.12011880002683,147.58723590004956,Objects\021a.jpg,mid,o,1.4654291999759153,None,,,,,,,,00035,001,2026-01-22_21h18.33.812,MST_test,2024.2.0,59.89214622456583,2026-01-22 21h18.41.075742 +0530,
13,0,14,n,1.849444899999071,None,14,0,13,147.6033749000053,,,,,,,,,,,,,,,,,,,,,,,,,,,,,,,,,,,,,,,,,,,,,,,,,,147.58761970000342,147.6033749000053,148.10356560000218,148.08716560003813,148.09659450000618,148.10356560000218,148.10356560000218,148.10356560000218,149.95381430000998,Foils\scenes13.jpg,none,n,1.849444899999071,None,,,,,,,,00035,001,2026-01-22_21h18.33.812,MST_test,2024.2.0,59.89214622456583,2026-01-22 21h18.41.075742 +0530,
14,0,15,s,4.2213188000023365,None,15,0,14,149.96998010005336,,,,,,,,,,,,,,,,,,,,,,,,,,,,,,,,,,,,,,,,,,,,,,,,,,149.95411560003413,149.96998010005336,150.47607730003074,150.45380410004873,150.4738172000507,150.47607730003074,150.47607730003074,150.47607730003074,154.70385010004975,Scenes\102a.jpg,pre,s,4.2213188000023365,None,,,,,,,,00035,001,2026-01-22_21h18.33.812,MST_test,2024.2.0,59.89214622456583,2026-01-22 21h18.41.075742 +0530,
15,0,16,o,1.53265890001785,None,16,0,15,154.71990260004532,,,,,,,,,,,,,,,,,,,,,,,,,,,,,,,,,,,,,,,,,,,,,,,,,,154.70423670002492,154.71990260004532,155.22053849999793,155.20379749999847,155.21350880002137,155.22053849999793,155.22053849999793,155.22053849999793,156.75408980000066,Objects\167a.jpg,pre,o,1.53265890001785,None,,,,,,,,00035,001,2026-01-22_21h18.33.812,MST_test,2024.2.0,59.89214622456583,2026-01-22 21h18.41.075742 +0530,
16,0,17,n,1.2426074999966659,None,17,0,16,156.7700945000397,,,,,,,,,,,,,,,,,,,,,,,,,,,,,,,,,,,,,,,,,,,,,,,,,,156.75446600001305,156.7700945000397,157.28719770000316,157.25373799999943,157.28504300001077,157.28719770000316,157.28719770000316,157.28719770000316,158.53744240000378,Foils\113a.jpg,none,n,1.2426074999966659,None,,,,,,,,00035,001,2026-01-22_21h18.33.812,MST_test,2024.2.0,59.89214622456583,2026-01-22 21h18.41.075742 +0530,
17,0,18,n,1.2278353000292554,None,18,0,17,158.55337380000856,,,,,,,,,,,,,,,,,,,,,,,,,,,,,,,,,,,,,,,,,,,,,,,,,,158.53779770003166,158.55337380000856,159.05359090003185,159.03715220000595,159.0465790000162,159.05359090003185,159.05359090003185,159.05359090003185,160.28714940004284,Foils\002a.jpg,none,n,1.2278353000292554,None,,,,,,,,00035,001,2026-01-22_21h18.33.812,MST_test,2024.2.0,59.89214622456583,2026-01-22 21h18.41.075742 +0530,
18,0,19,s,1.3714885999797843,None,19,0,18,160.3030987000093,,,,,,,,,,,,,,,,,,,,,,,,,,,,,,,,,,,,,,,,,,,,,,,,,,160.28728760004742,160.3030987000093,160.80635220004478,160.7871785000316,160.8039437000407,160.80635220004478,160.80635220004478,160.80635220004478,162.18714049999835,Scenes\063a.jpg,post,s,1.3714885999797843,None,,,,,,,,00035,001,2026-01-22_21h18.33.812,MST_test,2024.2.0,59.89214622456583,2026-01-22 21h18.41.075742 +0530,
19,0,20,o,1.401597399963066,None,20,0,19,162.20337640005164,,,,,,,,,,,,,,,,,,,,,,,,,,,,,,,,,,,,,,,,,,,,,,,,,,162.18753240001388,162.20337640005164,162.7039193000528,162.68714850000106,162.6983047000249,162.7039193000528,162.7039193000528,162.7039193000528,164.12076200003503,Objects\029a.jpg,pre,o,1.401597399963066,None,,,,,,,,00035,001,2026-01-22_21h18.33.812,MST_test,2024.2.0,59.89214622456583,2026-01-22 21h18.41.075742 +0530,
20,0,21,s,4.26391399995191,None,21,0,20,164.13674710004125,,,,,,,,,,,,,,,,,,,,,,,,,,,,,,,,,,,,,,,,,,,,,,,,,,164.12112080003135,164.13674710004125,164.66586690000258,164.62047480000183,164.66338890005136,164.66586690000258,164.66586690000258,164.66586690000258,168.93748070002766,Scenes\031b.jpg,mid,s,4.26391399995191,None,,,,,,,,00035,001,2026-01-22_21h18.33.812,MST_test,2024.2.0,59.89214622456583,2026-01-22 21h18.41.075742 +0530,
21,0,22,s,1.9948551999987103,None,22,0,21,168.95342430000892,,,,,,,,,,,,,,,,,,,,,,,,,,,,,,,,,,,,,,,,,,,,,,,,,,168.93783670000266,168.95342430000892,169.45392640004866,169.4371471000486,169.4481906000292,169.45392640004866,169.45392640004866,169.45392640004866,171.45301080000354,Objects\181b.jpg,mid,s,1.9948551999987103,None,,,,,,,,00035,001,2026-01-22_21h18.33.812,MST_test,2024.2.0,59.89214622456583,2026-01-22 21h18.41.075742 +0530,
22,0,23,o,1.5509380999719724,None,23,0,22,171.46945600002073,,,,,,,,,,,,,,,,,,,,,,,,,,,,,,,,,,,,,,,,,,,,,,,,,,171.45314430003054,171.46945600002073,,171.95321410003817,171.9613947000471,171.9702868000022,171.9702868000022,171.9702868000022,173.5374530000263,Objects\139a.jpg,post,o,1.5509380999719724,None,,,,,,,,00035,001,2026-01-22_21h18.33.812,MST_test,2024.2.0,59.89214622456583,2026-01-22 21h18.41.075742 +0530,
23,0,24,s,3.7321465999702923,None,24,0,23,173.55336830002489,,,,,,,,,,,,,,,,,,,,,,,,,,,,,,,,,,,,,,,,,,,,,,,,,,173.537810800015,173.55336830002489,174.0537478000042,174.037152600009,174.04378850001376,174.0537478000042,174.0537478000042,174.0537478000042,177.78730800002813,Foils\scenes5.jpg,none,s,3.7321465999702923,None,,,,,,,,00035,001,2026-01-22_21h18.33.812,MST_test,2024.2.0,59.89214622456583,2026-01-22 21h18.41.075742 +0530,
24,0,25,s,5.178535700018983,None,25,0,24,177.8033610000275,,,,,,,,,,,,,,,,,,,,,,,,,,,,,,,,,,,,,,,,,,,,,,,,,,177.78766040003393,177.8033610000275,178.30350300000282,178.28714440000476,178.30091460002586,178.30350300000282,178.30350300000282,178.30350300000282,183.4874528000364,Scenes\119a.jpg,mid,s,5.178535700018983,None,,,,,,,,00035,001,2026-01-22_21h18.33.812,MST_test,2024.2.0,59.89214622456583,2026-01-22 21h18.41.075742 +0530,
25,0,26,n,4.166041499993298,None,26,0,25,183.5033684000373,,,,,,,,,,,,,,,,,,,,,,,,,,,,,,,,,,,,,,,,,,,,,,,,,,183.48781980003696,183.5033684000373,184.00367640005425,183.9871845000307,184.00051530002384,184.00367640005425,184.00367640005425,184.00367640005425,188.17104000004474,Scenes\173a.jpg,pre,n,4.166041499993298,None,,,,,,,,00035,001,2026-01-22_21h18.33.812,MST_test,2024.2.0,59.89214622456583,2026-01-22 21h18.41.075742 +0530,
26,0,27,o,2.9496853000018746,None,27,0,26,188.18686220003292,,,,,,,,,,,,,,,,,,,,,,,,,,,,,,,,,,,,,,,,,,,,,,,,,,188.17140550003387,188.18686220003292,188.69212380005047,188.6704877000302,188.68945190001978,188.69212380005047,188.69212380005047,188.69212380005047,191.65407140000025,Scenes\171a.jpg,post,o,2.9496853000018746,None,,,,,,,,00035,001,2026-01-22_21h18.33.812,MST_test,2024.2.0,59.89214622456583,2026-01-22 21h18.41.075742 +0530,
27,0,28,o,1.2893891999847256,None,28,0,27,191.67010940000182,,,,,,,,,,,,,,,,,,,,,,,,,,,,,,,,,,,,,,,,,,,,,,,,,,191.65442920004716,191.67010940000182,192.17577830003574,192.1538017000421,192.17302770004608,192.17577830003574,192.17577830003574,192.17577830003574,193.4707567000296,Scenes\023a.jpg,post,o,1.2893891999847256,None,,,,,,,,00035,001,2026-01-22_21h18.33.812,MST_test,2024.2.0,59.89214622456583,2026-01-22 21h18.41.075742 +0530,
28,0,29,o,1.1334885000251234,None,29,0,28,193.48677970003337,,,,,,,,,,,,,,,,,,,,,,,,,,,,,,,,,,,,,,,,,,,,,,,,,,193.47111440001754,193.48677970003337,193.9875643000123,193.9704868000117,193.97946530004265,193.9875643000123,193.9875643000123,193.9875643000123,195.13744170003338,Objects\130b.jpg,post,o,1.1334885000251234,None,,,,,,,,00035,001,2026-01-22_21h18.33.812,MST_test,2024.2.0,59.89214622456583,2026-01-22 21h18.41.075742 +0530,
29,0,30,o,0.8673628999968059,None,30,0,29,195.15337050001835,,,,,,,,,,,,,,,,,,,,,,,,,,,,,,,,,,,,,,,,,,,,,,,,,,195.13779760000762,195.15337050001835,195.65359940001508,195.63721870002337,195.6453310000361,195.65359940001508,195.65359940001508,195.65359940001508,196.5374415999977,Objects\107a.jpg,post,o,0.8673628999968059,None,,,,,,,,00035,001,2026-01-22_21h18.33.812,MST_test,2024.2.0,59.89214622456583,2026-01-22 21h18.41.075742 +0530,
30,0,31,n,3.3667092000250705,None,31,0,30,196.55336240003817,,,,,,,,,,,,,,,,,,,,,,,,,,,,,,,,,,,,,,,,,,,,,,,,,,196.53779700002633,196.55336240003817,197.08307450002758,197.03716030000942,197.08053150004707,197.08307450002758,197.08307450002758,197.08307450002758,200.45406820002245,Scenes\182b.jpg,post,n,3.3667092000250705,None,,,,,,,,00035,001,2026-01-22_21h18.33.812,MST_test,2024.2.0,59.89214622456583,2026-01-22 21h18.41.075742 +0530,
31,0,32,o,3.825800299993716,None,32,0,31,200.47013870003866,,,,,,,,,,,,,,,,,,,,,,,,,,,,,,,,,,,,,,,,,,,,,,,,,,200.45445190003375,200.47013870003866,201.00057070003822,200.9537762000109,200.99767450004583,201.00057070003822,201.00057070003822,201.00057070003822,204.83744040003512,Scenes\013b.jpg,post,o,3.825800299993716,None,,,,,,,,00035,001,2026-01-22_21h18.33.812,MST_test,2024.2.0,59.89214622456583,2026-01-22 21h18.41.075742 +0530,
32,0,33,o,1.3919689999893308,None,33,0,32,204.85336690000258,,,,,,,,,,,,,,,,,,,,,,,,,,,,,,,,,,,,,,,,,,,,,,,,,,204.8377983000246,204.85336690000258,205.35360630002106,205.33720820001327,205.34881290001795,205.35360630002106,205.35360630002106,205.35360630002106,206.75431310001295,Objects\111b.jpg,pre,o,1.3919689999893308,None,,,,,,,,00035,001,2026-01-22_21h18.33.812,MST_test,2024.2.0,59.89214622456583,2026-01-22 21h18.41.075742 +0530,
33,0,34,s,3.421187599946279,None,34,0,33,206.77012180001475,,,,,,,,,,,,,,,,,,,,,,,,,,,,,,,,,,,,,,,,,,,,,,,,,,206.75477910001064,206.77012180001475,207.2839364000247,207.25381090003066,207.28159730002517,207.2839364000247,207.2839364000247,207.2839364000247,210.7207862000214,Foils\090a.jpg,none,s,3.421187599946279,None,,,,,,,,00035,001,2026-01-22_21h18.33.812,MST_test,2024.2.0,59.89214622456583,2026-01-22 21h18.41.075742 +0530,
34,0,35,s,2.540762900025584,None,35,0,34,210.73653860000195,,,,,,,,,,,,,,,,,,,,,,,,,,,,,,,,,,,,,,,,,,,,,,,,,,210.72119430004386,210.73653860000195,211.23698909999803,211.2203461000463,211.22863900003722,211.23698909999803,211.23698909999803,211.23698909999803,213.78745200001867,Objects\020a.jpg,pre,s,2.540762900025584,None,,,,,,,,00035,001,2026-01-22_21h18.33.812,MST_test,2024.2.0,59.89214622456583,2026-01-22 21h18.41.075742 +0530,
35,0,36,s,3.1039328000042588,None,36,0,35,213.8033934000414,,,,,,,,,,,,,,,,,,,,,,,,,,,,,,,,,,,,,,,,,,,,,,,,,,213.78781320003327,213.8033934000414,214.3613089999999,214.28717310004868,214.35734410001896,214.3613089999999,214.3613089999999,214.3613089999999,217.47059390001232,Scenes\085b.jpg,post,s,3.1039328000042588,None,,,,,,,,00035,001,2026-01-22_21h18.33.812,MST_test,2024.2.0,59.89214622456583,2026-01-22 21h18.41.075742 +0530,
36,0,37,n,2.434520600014366,None,37,0,36,217.4867213999969,,,,,,,,,,,,,,,,,,,,,,,,,,,,,,,,,,,,,,,,,,,,,,,,,,217.47099400003208,217.4867213999969,217.99929790000897,217.97053010005038,217.99634100002004,217.99929790000897,217.99929790000897,217.99929790000897,220.43708360003075,Foils\scenes28.jpg,none,n,2.434520600014366,None,,,,,,,,00035,001,2026-01-22_21h18.33.812,MST_test,2024.2.0,59.89214622456583,2026-01-22 21h18.41.075742 +0530,
37,0,38,o,2.612581900029909,None,38,0,37,220.45350709999911,,,,,,,,,,,,,,,,,,,,,,,,,,,,,,,,,,,,,,,,,,,,,,,,,,220.4374511000351,220.45350709999911,220.96522170002572,220.9367846000241,220.9620508000371,220.96522170002572,220.96522170002572,220.96522170002572,223.5871724000317,Scenes\032b.jpg,pre,o,2.612581900029909,None,,,,,,,,00035,001,2026-01-22_21h18.33.812,MST_test,2024.2.0,59.89214622456583,2026-01-22 21h18.41.075742 +0530,
38,0,39,o,2.488980600028299,None,39,0,38,223.60344660002738,,,,,,,,,,,,,,,,,,,,,,,,,,,,,,,,,,,,,,,,,,,,,,,,,,223.58753430005163,223.60344660002738,224.10409249999793,224.0867305000429,224.09657799999695,224.10409249999793,224.10409249999793,224.10409249999793,226.60353820002638,Objects\098a.jpg,pre,o,2.488980600028299,None,,,,,,,,00035,001,2026-01-22_21h18.33.812,MST_test,2024.2.0,59.89214622456583,2026-01-22 21h18.41.075742 +0530,
39,0,40,n,1.5539907000493258,None,40,0,39,226.6197300000349,,,,,,,,,,,,,,,,,,,,,,,,,,,,,,,,,,,,,,,,,,,,,,,,,,226.6038300000364,226.6197300000349,227.15141710004536,227.10383970005205,227.14896540000336,227.15141710004536,227.15141710004536,227.15141710004536,228.72057850001147,Scenes\188b.jpg,mid,n,1.5539907000493258,None,,,,,,,,00035,001,2026-01-22_21h18.33.812,MST_test,2024.2.0,59.89214622456583,2026-01-22 21h18.41.075742 +0530,
40,0,41,s,1.822975100018084,None,41,0,40,228.73669610003708,,,,,,,,,,,,,,,,,,,,,,,,,,,,,,,,,,,,,,,,,,,,,,,,,,228.72093560005305,228.73669610003708,229.25010830000974,229.2205629000091,229.2477949000313,229.25010830000974,229.25010830000974,229.25010830000974,231.0874011000269,Objects\034b.jpg,mid,s,1.822975100018084,None,,,,,,,,00035,001,2026-01-22_21h18.33.812,MST_test,2024.2.0,59.89214622456583,2026-01-22 21h18.41.075742 +0530,
41,0,42,o,1.665887399984058,None,42,0,41,231.10333180002635,,,,,,,,,,,,,,,,,,,,,,,,,,,,,,,,,,,,,,,,,,,,,,,,,,231.0877944000531,231.10333180002635,231.623194600048,231.58708369999658,231.6207828000188,231.623194600048,231.623194600048,231.623194600048,233.3041395000182,Objects\032b.jpg,mid,o,1.665887399984058,None,,,,,,,,00035,001,2026-01-22_21h18.33.812,MST_test,2024.2.0,59.89214622456583,2026-01-22 21h18.41.075742 +0530,
42,0,43,o,3.4774527000263333,None,43,0,42,233.32012740004575,,,,,,,,,,,,,,,,,,,,,,,,,,,,,,,,,,,,,,,,,,,,,,,,,,233.3044948000461,233.32012740004575,233.82032759999856,233.8036829000339,233.81186000001617,233.82032759999856,233.82032759999856,233.82032759999856,237.3041289000539,Foils\066a.jpg,none,o,3.4774527000263333,None,,,,,,,,00035,001,2026-01-22_21h18.33.812,MST_test,2024.2.0,59.89214622456583,2026-01-22 21h18.41.075742 +0530,
43,0,44,n,1.5145417000167072,None,44,0,43,237.3201076000114,,,,,,,,,,,,,,,,,,,,,,,,,,,,,,,,,,,,,,,,,,,,,,,,,,237.304514700023,237.3201076000114,237.82284730003448,237.80378960003145,237.82038460002514,237.82284730003448,237.82284730003448,237.82284730003448,239.35409450001316,Scenes\168b.jpg,pre,n,1.5145417000167072,None,,,,,,,,00035,001,2026-01-22_21h18.33.812,MST_test,2024.2.0,59.89214622456583,2026-01-22 21h18.41.075742 +0530,
44,0,45,s,12.331032800022513,None,45,0,44,239.37043180002365,,,,,,,,,,,,,,,,,,,,,,,,,,,,,,,,,,,,,,,,,,,,,,,,,,239.35444870003266,239.37043180002365,239.87069650000194,239.85388970002532,239.8629739000462,239.87069650000194,239.87069650000194,239.87069650000194,252.20381130004534,Objects\091a.jpg,post,s,12.331032800022513,None,,,,,,,,00035,001,2026-01-22_21h18.33.812,MST_test,2024.2.0,59.89214622456583,2026-01-22 21h18.41.075742 +0530,
45,0,46,n,0.9612030000425875,None,46,0,45,252.22006310004508,,,,,,,,,,,,,,,,,,,,,,,,,,,,,,,,,,,,,,,,,,,,,,,,,,252.20421960001113,252.22006310004508,252.7201316000428,252.704058000003,252.71030740003334,252.7201316000428,252.7201316000428,252.7201316000428,253.68710610002745,Foils\042a.jpg,none,n,0.9612030000425875,None,,,,,,,,00035,001,2026-01-22_21h18.33.812,MST_test,2024.2.0,59.89214622456583,2026-01-22 21h18.41.075742 +0530,
46,0,47,s,1.6614882000139914,None,47,0,46,253.7034360000398,,,,,,,,,,,,,,,,,,,,,,,,,,,,,,,,,,,,,,,,,,,,,,,,,,253.68745790002868,253.7034360000398,254.20420940004988,254.1871331000002,254.19764740002574,254.20420940004988,254.20420940004988,254.20420940004988,255.87046720000217,Objects\051b.jpg,pre,s,1.6614882000139914,None,,,,,,,,00035,001,2026-01-22_21h18.33.812,MST_test,2024.2.0,59.89214622456583,2026-01-22 21h18.41.075742 +0530,
47,0,48,s,1.5502324999542907,None,48,0,47,255.88631650002208,,,,,,,,,,,,,,,,,,,,,,,,,,,,,,,,,,,,,,,,,,,,,,,,,,255.87082380003994,255.88631650002208,256.38724230002845,256.37049800000386,256.38071380002657,256.38724230002845,256.38724230002845,256.38724230002845,257.9540849000332,Objects\007a.jpg,pre,s,1.5502324999542907,None,,,,,,,,00035,001,2026-01-22_21h18.33.812,MST_test,2024.2.0,59.89214622456583,2026-01-22 21h18.41.075742 +0530,
48,0,49,s,1.9226196000236087,None,49,0,48,257.9701125000138,,,,,,,,,,,,,,,,,,,,,,,,,,,,,,,,,,,,,,,,,,,,,,,,,,257.9544927000534,257.9701125000138,258.4703475999995,258.4538486000383,258.4622149000061,258.4703475999995,258.4703475999995,258.4703475999995,260.40413760003867,Objects\080a.jpg,post,s,1.9226196000236087,None,,,,,,,,00035,001,2026-01-22_21h18.33.812,MST_test,2024.2.0,59.89214622456583,2026-01-22 21h18.41.075742 +0530,
49,0,50,n,1.0736606999998912,None,50,0,49,260.4201033000136,,,,,,,,,,,,,,,,,,,,,,,,,,,,,,,,,,,,,,,,,,,,,,,,,,260.4045205000439,260.4201033000136,260.92009460000554,260.90383910003584,260.91280250001,260.92009460000554,260.92009460000554,260.92009460000554,262.00415970000904,Foils\101b.jpg,none,n,1.0736606999998912,None,,,,,,,,00035,001,2026-01-22_21h18.33.812,MST_test,2024.2.0,59.89214622456583,2026-01-22 21h18.41.075742 +0530,
50,0,51,n,1.386103999975603,None,51,0,50,262.02013160003116,,,,,,,,,,,,,,,,,,,,,,,,,,,,,,,,,,,,,,,,,,,,,,,,,,262.0045433000196,262.02013160003116,262.8156536000315,262.5038454000023,262.8087586000329,262.8156536000315,262.8156536000315,262.8156536000315,264.20420040003955,Foils\scenes26.jpg,none,n,1.386103999975603,None,,,,,,,,00035,001,2026-01-22_21h18.33.812,MST_test,2024.2.0,59.89214622456583,2026-01-22 21h18.41.075742 +0530,
51,0,52,s,5.3049916999880224,None,52,0,51,264.2200224000262,,,,,,,,,,,,,,,,,,,,,,,,,,,,,,,,,,,,,,,,,,,,,,,,,,264.20455770002445,264.2200224000262,264.8162203000393,264.7038261000416,264.8137869000202,264.8162203000393,264.8162203000393,264.8162203000393,270.13750210002763,Scenes\080b.jpg,mid,s,5.3049916999880224,None,,,,,,,,00035,001,2026-01-22_21h18.33.812,MST_test,2024.2.0,59.89214622456583,2026-01-22 21h18.41.075742 +0530,
52,0,53,o,2.543053000001237,None,53,0,52,270.1534641000326,,,,,,,,,,,,,,,,,,,,,,,,,,,,,,,,,,,,,,,,,,,,,,,,,,270.1379154000315,270.1534641000326,270.6742604000028,270.6371728000231,270.6718849000172,270.6742604000028,270.6742604000028,270.6742604000028,273.220364000008,Objects\140b.jpg,pre,o,2.543053000001237,None,,,,,,,,00035,001,2026-01-22_21h18.33.812,MST_test,2024.2.0,59.89214622456583,2026-01-22 21h18.41.075742 +0530,
53,0,54,o,1.715050600003451,None,54,0,53,273.2366288000485,,,,,,,,,,,,,,,,,,,,,,,,,,,,,,,,,,,,,,,,,,,,,,,,,,273.2207368000527,273.2366288000485,273.7739630000433,273.7204586000298,273.7715372000239,273.7739630000433,273.7739630000433,273.7739630000433,275.503943000047,Scenes\005b.jpg,mid,o,1.715050600003451,None,,,,,,,,00035,001,2026-01-22_21h18.33.812,MST_test,2024.2.0,59.89214622456583,2026-01-22 21h18.41.075742 +0530,
54,0,55,o,0.8223771999473684,None,55,0,54,275.5199688000139,,,,,,,,,,,,,,,,,,,,,,,,,,,,,,,,,,,,,,,,,,,,,,,,,,275.5043168000411,275.5199688000139,276.0268592000357,276.00384350004606,276.0243356000283,276.0268592000357,276.0268592000357,276.0268592000357,276.8540939000086,Scenes\082a.jpg,mid,o,0.8223771999473684,None,,,,,,,,00035,001,2026-01-22_21h18.33.812,MST_test,2024.2.0,59.89214622456583,2026-01-22 21h18.41.075742 +0530,
55,0,56,s,1.6950415999745019,None,56,0,55,276.87011980003444,,,,,,,,,,,,,,,,,,,,,,,,,,,,,,,,,,,,,,,,,,,,,,,,,,276.854449400038,276.87011980003444,277.4021184000303,277.35385340003995,277.3995288000442,277.4021184000303,277.4021184000303,277.4021184000303,279.10404490004294,Scenes\042b.jpg,mid,s,1.6950415999745019,None,,,,,,,,00035,001,2026-01-22_21h18.33.812,MST_test,2024.2.0,59.89214622456583,2026-01-22 21h18.41.075742 +0530,
56,0,57,n,1.2044335000100546,None,57,0,56,279.120112100034,,,,,,,,,,,,,,,,,,,,,,,,,,,,,,,,,,,,,,,,,,,,,,,,,,279.1044269000413,279.120112100034,279.62067530001514,279.60377370001515,279.61346980003873,279.62067530001514,279.62067530001514,279.62067530001514,280.8374881000491,Foils\017a.jpg,none,n,1.2044335000100546,None,,,,,,,,00035,001,2026-01-22_21h18.33.812,MST_test,2024.2.0,59.89214622456583,2026-01-22 21h18.41.075742 +0530,
57,0,58,n,1.3991456999792717,None,58,0,57,280.85340220003854,,,,,,,,,,,,,,,,,,,,,,,,,,,,,,,,,,,,,,,,,,,,,,,,,,280.83787270000903,280.85340220003854,281.35392200003844,281.3370966000366,281.34470220003277,281.35392200003844,281.35392200003844,281.35392200003844,282.75422820000676,Foils\scenes20.jpg,none,n,1.3991456999792717,None,,,,,,,,00035,001,2026-01-22_21h18.33.812,MST_test,2024.2.0,59.89214622456583,2026-01-22 21h18.41.075742 +0530,
58,0,59,s,1.2828428000211716,None,59,0,58,282.7698114000377,,,,,,,,,,,,,,,,,,,,,,,,,,,,,,,,,,,,,,,,,,,,,,,,,,282.7546243000543,282.7698114000377,283.27022760000546,283.25364690000424,283.2628760000225,283.27022760000546,283.27022760000546,283.27022760000546,284.5541887000436,Objects\146a.jpg,post,s,1.2828428000211716,None,,,,,,,,00035,001,2026-01-22_21h18.33.812,MST_test,2024.2.0,59.89214622456583,2026-01-22 21h18.41.075742 +0530,
59,0,60,o,4.555301000014879,None,60,0,59,284.57013210002333,,,,,,,,,,,,,,,,,,,,,,,,,,,,,,,,,,,,,,,,,,,,,,,,,,284.55456270003924,284.57013210002333,285.07037760003004,285.05376610002713,285.0622183000087,285.07037760003004,285.07037760003004,285.07037760003004,289.6374939000234,Objects\116b.jpg,post,o,4.555301000014879,None,,,,,,,,00035,001,2026-01-22_21h18.33.812,MST_test,2024.2.0,59.89214622456583,2026-01-22 21h18.41.075742 +0530,
60,0,61,o,1.248030300019309,None,61,0,60,289.65307560004294,,,,,,,,,,,,,,,,,,,,,,,,,,,,,,,,,,,,,,,,,,,,,,,,,,289.6379111999995,289.65307560004294,290.153669500025,290.13717709999764,290.14584700000705,290.153669500025,290.153669500025,290.153669500025,291.40371080004843,Objects\005a.jpg,post,o,1.248030300019309,None,,,,,,,,00035,001,2026-01-22_21h18.33.812,MST_test,2024.2.0,59.89214622456583,2026-01-22 21h18.41.075742 +0530,
61,0,62,o,1.901692399987951,None,62,0,61,291.42010600003414,,,,,,,,,,,,,,,,,,,,,,,,,,,,,,,,,,,,,,,,,,,,,,,,,,291.40407859999686,291.42010600003414,292.0197317000129,291.9037243000348,292.0171323000104,292.0197317000129,292.0197317000129,292.0197317000129,293.9371292000287,Scenes\097b.jpg,post,o,1.901692399987951,None,,,,,,,,00035,001,2026-01-22_21h18.33.812,MST_test,2024.2.0,59.89214622456583,2026-01-22 21h18.41.075742 +0530,
62,0,63,s,2.0050203999853693,None,63,0,62,293.95344800001476,,,,,,,,,,,,,,,,,,,,,,,,,,,,,,,,,,,,,,,,,,,,,,,,,,293.9375923000043,293.95344800001476,294.4606744000339,294.4365519999992,294.4578442000202,294.4606744000339,294.4606744000339,294.4606744000339,296.47080260002986,Scenes\046a.jpg,mid,s,2.0050203999853693,None,,,,,,,,00035,001,2026-01-22_21h18.33.812,MST_test,2024.2.0,59.89214622456583,2026-01-22 21h18.41.075742 +0530,
63,0,64,n,1.2623765000025742,None,64,0,63,296.4863167000003,,,,,,,,,,,,,,,,,,,,,,,,,,,,,,,,,,,,,,,,,,,,,,,,,,296.4711932000355,296.4863167000003,296.9873095000512,296.970401700004,296.978543300007,296.9873095000512,296.9873095000512,296.9873095000512,298.2541189000476,Foils\scenes17.jpg,none,n,1.2623765000025742,None,,,,,,,,00035,001,2026-01-22_21h18.33.812,MST_test,2024.2.0,59.89214622456583,2026-01-22 21h18.41.075742 +0530,
64,0,65,s,2.502764200035017,None,65,0,64,298.27013970003463,,,,,,,,,,,,,,,,,,,,,,,,,,,,,,,,,,,,,,,,,,,,,,,,,,298.2544972000178,298.27013970003463,298.7702595000155,298.75385180005105,298.7668945000041,298.7702595000155,298.7702595000155,298.7702595000155,301.2874385000323,Scenes\179a.jpg,pre,s,2.502764200035017,None,,,,,,,,00035,001,2026-01-22_21h18.33.812,MST_test,2024.2.0,59.89214622456583,2026-01-22 21h18.41.075742 +0530,
65,0,66,o,7.82734989997698,None,66,0,65,301.30345629999647,,,,,,,,,,,,,,,,,,,,,,,,,,,,,,,,,,,,,,,,,,,,,,,,,,301.28789140004665,301.30345629999647,301.806043300021,301.7870988000068,301.80360510002356,301.806043300021,301.806043300021,301.806043300021,309.63742760004243,Scenes\104a.jpg,post,o,7.82734989997698,None,,,,,,,,00035,001,2026-01-22_21h18.33.812,MST_test,2024.2.0,59.89214622456583,2026-01-22 21h18.41.075742 +0530,
66,0,67,o,2.0071951000136323,None,67,0,66,309.6531644000206,,,,,,,,,,,,,,,,,,,,,,,,,,,,,,,,,,,,,,,,,,,,,,,,,,309.637840600044,309.6531644000206,310.1540459000389,310.13715070002945,310.144047000038,310.1540459000389,310.1540459000389,310.1540459000389,312.1706326000276,Objects\137a.jpg,mid,o,2.0071951000136323,None,,,,,,,,00035,001,2026-01-22_21h18.33.812,MST_test,2024.2.0,59.89214622456583,2026-01-22 21h18.41.075742 +0530,
67,0,68,s,4.215717700019013,None,68,0,67,312.18655140005285,,,,,,,,,,,,,,,,,,,,,,,,,,,,,,,,,,,,,,,,,,,,,,,,,,312.1709953999962,312.18655140005285,312.7214545000461,312.67037970002275,312.7186434000032,312.7214545000461,312.7214545000461,312.7214545000461,316.95412800001213,Scenes\010b.jpg,pre,s,4.215717700019013,None,,,,,,,,00035,001,2026-01-22_21h18.33.812,MST_test,2024.2.0,59.89214622456583,2026-01-22 21h18.41.075742 +0530,
68,0,69,o,3.2150826000142843,None,69,0,68,316.97014260001015,,,,,,,,,,,,,,,,,,,,,,,,,,,,,,,,,,,,,,,,,,,,,,,,,,316.954551700037,316.97014260001015,317.4739665000234,317.4538215000066,317.4714736000169,317.4739665000234,317.4739665000234,317.4739665000234,320.70422630000394,Scenes\134a.jpg,pre,o,3.2150826000142843,None,,,,,,,,00035,001,2026-01-22_21h18.33.812,MST_test,2024.2.0,59.89214622456583,2026-01-22 21h18.41.075742 +0530,
69,0,70,n,0.916967700002715,None,70,0,69,320.72012680000626,,,,,,,,,,,,,,,,,,,,,,,,,,,,,,,,,,,,,,,,,,,,,,,,,,320.7046150000533,320.72012680000626,321.25257140002213,321.20355540001765,321.24961960001383,321.25257140002213,321.25257140002213,321.25257140002213,322.17093960003695,Foils\034a.jpg,none,n,0.916967700002715,None,,,,,,,,00035,001,2026-01-22_21h18.33.812,MST_test,2024.2.0,59.89214622456583,2026-01-22 21h18.41.075742 +0530,
70,0,71,n,0.9786846999777481,None,71,0,70,322.1868056000094,,,,,,,,,,,,,,,,,,,,,,,,,,,,,,,,,,,,,,,,,,,,,,,,,,322.17132920003496,322.1868056000094,322.68701320001855,322.6700430000201,322.6748457000358,322.68701320001855,322.68701320001855,322.68701320001855,323.6705641000299,Foils\057a.jpg,none,n,0.9786846999777481,None,,,,,,,,00035,001,2026-01-22_21h18.33.812,MST_test,2024.2.0,59.89214622456583,2026-01-22 21h18.41.075742 +0530,
71,0,72,n,0.852960999996867,None,72,0,71,323.68679330003215,,,,,,,,,,,,,,,,,,,,,,,,,,,,,,,,,,,,,,,,,,,,,,,,,,323.6709516000119,323.68679330003215,324.1887342000264,324.1704515000456,324.1863862000173,324.1887342000264,324.1887342000264,324.1887342000264,325.0541307000094,Scenes\155a.jpg,mid,n,0.852960999996867,None,,,,,,,,00035,001,2026-01-22_21h18.33.812,MST_test,2024.2.0,59.89214622456583,2026-01-22 21h18.41.075742 +0530,
72,0,73,s,1.5645479999948293,None,73,0,72,325.0700735000428,,,,,,,,,,,,,,,,,,,,,,,,,,,,,,,,,,,,,,,,,,,,,,,,,,325.0544870000449,325.0700735000428,325.58852180000395,325.5538415000192,325.5854519000277,325.58852180000395,325.58852180000395,325.58852180000395,327.154202900012,Objects\114b.jpg,post,s,1.5645479999948293,None,,,,,,,,00035,001,2026-01-22_21h18.33.812,MST_test,2024.2.0,59.89214622456583,2026-01-22 21h18.41.075742 +0530,
73,0,74,n,1.1076357000274584,None,74,0,73,327.17006430000765,,,,,,,,,,,,,,,,,,,,,,,,,,,,,,,,,,,,,,,,,,,,,,,,,,327.15455780003686,327.17006430000765,327.66949980001664,327.6540144000319,327.66119720001006,327.66949980001664,327.66949980001664,327.66949980001664,328.78748160001123,Foils\097a.jpg,none,n,1.1076357000274584,None,,,,,,,,00035,001,2026-01-22_21h18.33.812,MST_test,2024.2.0,59.89214622456583,2026-01-22 21h18.41.075742 +0530,
74,0,75,s,1.5775033999816515,None,75,0,74,328.80347189999884,,,,,,,,,,,,,,,,,,,,,,,,,,,,,,,,,,,,,,,,,,,,,,,,,,328.78784460003953,328.80347189999884,329.3050655000261,329.28686550003476,329.3026410000166,329.3050655000261,329.3050655000261,329.3050655000261,330.8874396000174,Scenes\112a.jpg,mid,s,1.5775033999816515,None,,,,,,,,00035,001,2026-01-22_21h18.33.812,MST_test,2024.2.0,59.89214622456583,2026-01-22 21h18.41.075742 +0530,
75,0,76,s,1.1977841000189073,None,76,0,75,330.9034423000412,,,,,,,,,,,,,,,,,,,,,,,,,,,,,,,,,,,,,,,,,,,,,,,,,,330.88779600005364,330.9034423000412,331.4039011000423,331.3871935000061,331.396194800036,331.4039011000423,331.4039011000423,331.4039011000423,332.60380630003056,Objects\068b.jpg,post,s,1.1977841000189073,None,,,,,,,,00035,001,2026-01-22_21h18.33.812,MST_test,2024.2.0,59.89214622456583,2026-01-22 21h18.41.075742 +0530,
76,0,77,s,1.6731844000169076,None,77,0,76,332.61980750004295,,,,,,,,,,,,,,,,,,,,,,,,,,,,,,,,,,,,,,,,,,,,,,,,,,332.60422570002265,332.61980750004295,333.120490900008,333.1038636000012,333.11030350002693,333.120490900008,333.120490900008,333.120490900008,334.80413450003834,Foils\scenes29.jpg,none,s,1.6731844000169076,None,,,,,,,,00035,001,2026-01-22_21h18.33.812,MST_test,2024.2.0,59.89214622456583,2026-01-22 21h18.41.075742 +0530,
77,0,78,o,1.8468747999868356,None,78,0,77,334.82006580004236,,,,,,,,,,,,,,,,,,,,,,,,,,,,,,,,,,,,,,,,,,,,,,,,,,334.80453160003526,334.82006580004236,335.33830500004115,335.30383900000015,335.3356932000024,335.33830500004115,335.33830500004115,335.33830500004115,337.1870527000283,Scenes\053b.jpg,pre,o,1.8468747999868356,None,,,,,,,,00035,001,2026-01-22_21h18.33.812,MST_test,2024.2.0,59.89214622456583,2026-01-22 21h18.41.075742 +0530,
78,0,79,o,1.162826900021173,None,79,0,78,337.203252300038,,,,,,,,,,,,,,,,,,,,,,,,,,,,,,,,,,,,,,,,,,,,,,,,,,337.18741840001894,337.203252300038,337.710169100028,337.6868830000167,337.7078734000097,337.710169100028,337.710169100028,337.710169100028,338.88747080002213,Scenes\081a.jpg,pre,o,1.162826900021173,None,,,,,,,,00035,001,2026-01-22_21h18.33.812,MST_test,2024.2.0,59.89214622456583,2026-01-22 21h18.41.075742 +0530,
79,0,80,o,1.5815345000009984,None,80,0,79,338.90417280001566,,,,,,,,,,,,,,,,,,,,,,,,,,,,,,,,,,,,,,,,,,,,,,,,,,338.88785880000796,338.90417280001566,339.4201134000323,339.3869604000356,339.4174376000301,339.4201134000323,339.4201134000323,339.4201134000323,341.0041044999962,Objects\075b.jpg,post,o,1.5815345000009984,None,,,,,,,,00035,001,2026-01-22_21h18.33.812,MST_test,2024.2.0,59.89214622456583,2026-01-22 21h18.41.075742 +0530,
80,0,81,o,1.2967400000197813,None,81,0,80,341.0198645000346,,,,,,,,,,,,,,,,,,,,,,,,,,,,,,,,,,,,,,,,,,,,,,,,,,341.00452660000883,341.0198645000346,341.5202973000123,341.503880400036,341.5124346000375,341.5202973000123,341.5202973000123,341.5202973000123,342.8204005000298,Objects\121b.jpg,mid,o,1.2967400000197813,None,,,,,,,,00035,001,2026-01-22_21h18.33.812,MST_test,2024.2.0,59.89214622456583,2026-01-22 21h18.41.075742 +0530,
81,0,82,s,1.4000248000374995,None,82,0,81,342.83677360002184,,,,,,,,,,,,,,,,,,,,,,,,,,,,,,,,,,,,,,,,,,,,,,,,,,342.8207873000065,342.83677360002184,343.3370380999986,343.32045240001753,343.3290412000497,343.3370380999986,343.3370380999986,343.3370380999986,344.75379360001534,Objects\118b.jpg,post,s,1.4000248000374995,None,,,,,,,,00035,001,2026-01-22_21h18.33.812,MST_test,2024.2.0,59.89214622456583,2026-01-22 21h18.41.075742 +0530,
82,0,83,o,1.042973699979484,None,83,0,82,344.76999680005247,,,,,,,,,,,,,,,,,,,,,,,,,,,,,,,,,,,,,,,,,,,,,,,,,,344.7541484000394,344.76999680005247,345.270259300014,345.25384920003125,345.26198430004297,345.270259300014,345.270259300014,345.270259300014,346.3205722999992,Objects\135a.jpg,mid,o,1.042973699979484,None,,,,,,,,00035,001,2026-01-22_21h18.33.812,MST_test,2024.2.0,59.89214622456583,2026-01-22 21h18.41.075742 +0530,
83,0,84,s,1.4209254000452347,None,84,0,83,346.3366951000062,,,,,,,,,,,,,,,,,,,,,,,,,,,,,,,,,,,,,,,,,,,,,,,,,,346.3209285000339,346.3366951000062,346.83669240004383,346.8201912000077,346.8286044000415,346.83669240004383,346.83669240004383,346.83669240004383,348.27068220003275,Objects\122a.jpg,mid,s,1.4209254000452347,None,,,,,,,,00035,001,2026-01-22_21h18.33.812,MST_test,2024.2.0,59.89214622456583,2026-01-22 21h18.41.075742 +0530,
84,0,85,s,2.9230195999844,None,85,0,84,348.2867873000214,,,,,,,,,,,,,,,,,,,,,,,,,,,,,,,,,,,,,,,,,,,,,,,,,,348.27105320000555,348.2867873000214,348.79064990003826,348.77036060002865,348.7881950000301,348.79064990003826,348.79064990003826,348.79064990003826,351.72075890004635,Scenes\167a.jpg,pre,s,2.9230195999844,None,,,,,,,,00035,001,2026-01-22_21h18.33.812,MST_test,2024.2.0,59.89214622456583,2026-01-22 21h18.41.075742 +0530,
85,0,86,o,3.6681704000220634,None,86,0,85,351.7368115000427,,,,,,,,,,,,,,,,,,,,,,,,,,,,,,,,,,,,,,,,,,,,,,,,,,351.7211448000162,351.7368115000427,352.23724210000364,352.22009580000304,352.230311900028,352.23724210000364,352.23724210000364,352.23724210000364,355.92055690003326,Objects\054a.jpg,post,o,3.6681704000220634,None,,,,,,,,00035,001,2026-01-22_21h18.33.812,MST_test,2024.2.0,59.89214622456583,2026-01-22 21h18.41.075742 +0530,
86,0,87,s,1.3655764000141062,None,87,0,86,355.93664070003433,,,,,,,,,,,,,,,,,,,,,,,,,,,,,,,,,,,,,,,,,,,,,,,,,,355.9210020000464,355.93664070003433,356.45211920002475,356.4204491000273,356.44961010001134,356.45211920002475,356.45211920002475,356.45211920002475,357.8205153000308,Objects\126b.jpg,mid,s,1.3655764000141062,None,,,,,,,,00035,001,2026-01-22_21h18.33.812,MST_test,2024.2.0,59.89214622456583,2026-01-22 21h18.41.075742 +0530,
87,0,88,n,1.0886364000034519,None,88,0,87,357.83682740002405,,,,,,,,,,,,,,,,,,,,,,,,,,,,,,,,,,,,,,,,,,,,,,,,,,357.82088390004355,357.83682740002405,358.3370112000266,358.3204374000197,358.32945010002004,358.3370112000266,358.3370112000266,358.3370112000266,359.4374237000011,Foils\098a.jpg,none,n,1.0886364000034519,None,,,,,,,,00035,001,2026-01-22_21h18.33.812,MST_test,2024.2.0,59.89214622456583,2026-01-22 21h18.41.075742 +0530,
88,0,89,n,1.730728700000327,None,89,0,88,359.4534492000239,,,,,,,,,,,,,,,,,,,,,,,,,,,,,,,,,,,,,,,,,,,,,,,,,,359.4377862000256,359.4534492000239,359.9829805000336,359.9369552000426,359.9805389000103,359.9829805000336,359.9829805000336,359.9829805000336,361.72072790004313,Scenes\100b.jpg,pre,n,1.730728700000327,None,,,,,,,,00035,001,2026-01-22_21h18.33.812,MST_test,2024.2.0,59.89214622456583,2026-01-22 21h18.41.075742 +0530,
89,0,90,s,2.4791100000147708,None,90,0,89,361.73677120002685,,,,,,,,,,,,,,,,,,,,,,,,,,,,,,,,,,,,,,,,,,,,,,,,,,361.7210801000474,361.73677120002685,362.25793530000374,362.22039800003404,362.25528640003176,362.25793530000374,362.25793530000374,362.25793530000374,364.75410980003653,Objects\131b.jpg,post,s,2.4791100000147708,None,,,,,,,,00035,001,2026-01-22_21h18.33.812,MST_test,2024.2.0,59.89214622456583,2026-01-22 21h18.41.075742 +0530,
90,0,91,s,1.4335172999999486,None,91,0,90,364.7700453000143,,,,,,,,,,,,,,,,,,,,,,,,,,,,,,,,,,,,,,,,,,,,,,,,,,364.7544597000233,364.7700453000143,365.2717209000257,365.2539083000156,365.26935290003894,365.2717209000257,365.2717209000257,365.2717209000257,366.7204255000106,Scenes\187b.jpg,post,s,1.4335172999999486,None,,,,,,,,00035,001,2026-01-22_21h18.33.812,MST_test,2024.2.0,59.89214622456583,2026-01-22 21h18.41.075742 +0530,
91,0,92,s,1.3243003999814391,None,92,0,91,366.73638910002774,,,,,,,,,,,,,,,,,,,,,,,,,,,,,,,,,,,,,,,,,,,,,,,,,,366.7207939000218,366.73638910002774,367.2373525000294,367.2204708000063,367.23011470003985,367.2373525000294,367.2373525000294,367.2373525000294,368.57075220003026,Objects\095a.jpg,pre,s,1.3243003999814391,None,,,,,,,,00035,001,2026-01-22_21h18.33.812,MST_test,2024.2.0,59.89214622456583,2026-01-22 21h18.41.075742 +0530,
92,0,93,o,2.1798748000292107,None,93,0,92,368.5868133000331,,,,,,,,,,,,,,,,,,,,,,,,,,,,,,,,,,,,,,,,,,,,,,,,,,368.5711326000164,368.5868133000331,369.1178149000043,369.0702680000104,369.1150835000444,369.1178149000043,369.1178149000043,369.1178149000043,371.30417790001957,Scenes\066b.jpg,mid,o,2.1798748000292107,None,,,,,,,,00035,001,2026-01-22_21h18.33.812,MST_test,2024.2.0,59.89214622456583,2026-01-22 21h18.41.075742 +0530,
93,0,94,o,2.4415389000205323,None,94,0,93,371.3196975000319,,,,,,,,,,,,,,,,,,,,,,,,,,,,,,,,,,,,,,,,,,,,,,,,,,371.304558600008,371.3196975000319,371.8241336000501,371.80369020003127,371.82108780002454,371.8241336000501,371.8241336000501,371.8241336000501,374.27070420002565,Scenes\078a.jpg,pre,o,2.4415389000205323,None,,,,,,,,00035,001,2026-01-22_21h18.33.812,MST_test,2024.2.0,59.89214622456583,2026-01-22 21h18.41.075742 +0530,
94,0,95,o,1.1525030000484549,None,95,0,94,374.2867950000218,,,,,,,,,,,,,,,,,,,,,,,,,,,,,,,,,,,,,,,,,,,,,,,,,,374.27105300000403,374.2867950000218,374.79319810000015,374.77025190001586,374.79063490004046,374.79319810000015,374.79319810000015,374.79319810000015,375.9542228000355,Scenes\034b.jpg,post,o,1.1525030000484549,None,,,,,,,,00035,001,2026-01-22_21h18.33.812,MST_test,2024.2.0,59.89214622456583,2026-01-22 21h18.41.075742 +0530,
95,0,96,s,1.5384315000264905,None,96,0,95,375.9700819000136,,,,,,,,,,,,,,,,,,,,,,,,,,,,,,,,,,,,,,,,,,,,,,,,,,375.95458620000863,375.9700819000136,376.4708151000086,376.4538958000485,376.46257610002067,376.4708151000086,376.4708151000086,376.4708151000086,378.02071890002117,Objects\047a.jpg,mid,s,1.5384315000264905,None,,,,,,,,00035,001,2026-01-22_21h18.33.812,MST_test,2024.2.0,59.89214622456583,2026-01-22 21h18.41.075742 +0530,
96,0,97,n,1.4241675999946892,None,97,0,96,378.03680699999677,,,,,,,,,,,,,,,,,,,,,,,,,,,,,,,,,,,,,,,,,,,,,,,,,,378.02110130002256,378.03680699999677,378.5370840000105,378.5204575000098,378.53466890001437,378.5370840000105,378.5370840000105,378.5370840000105,379.9707836000016,Scenes\169b.jpg,mid,n,1.4241675999946892,None,,,,,,,,00035,001,2026-01-22_21h18.33.812,MST_test,2024.2.0,59.89214622456583,2026-01-22 21h18.41.075742 +0530,
97,0,98,s,1.31880289997207,None,98,0,97,379.9878523000516,,,,,,,,,,,,,,,,,,,,,,,,,,,,,,,,,,,,,,,,,,,,,,,,,,379.9711420000531,379.9878523000516,,380.4866688000038,380.52039290004177,380.5228236000403,380.5228236000403,380.5228236000403,381.85416540002916,Objects\154b.jpg,mid,s,1.31880289997207,None,,,,,,,,00035,001,2026-01-22_21h18.33.812,MST_test,2024.2.0,59.89214622456583,2026-01-22 21h18.41.075742 +0530,
98,0,99,o,1.2149000000208616,None,99,0,98,381.8698643000098,,,,,,,,,,,,,,,,,,,,,,,,,,,,,,,,,,,,,,,,,,,,,,,,,,381.85454450000543,381.8698643000098,382.37033350003185,382.3538442000281,382.36253680003574,382.37033350003185,382.37033350003185,382.37033350003185,383.5871108000283,Objects\160a.jpg,pre,o,1.2149000000208616,None,,,,,,,,00035,001,2026-01-22_21h18.33.812,MST_test,2024.2.0,59.89214622456583,2026-01-22 21h18.41.075742 +0530,
99,0,100,o,0.8975758999586105,None,100,0,99,383.6034724000492,,,,,,,,,,,,,,,,,,,,,,,,,,,,,,,,,,,,,,,,,,,,,,,,,,383.5874575000489,383.6034724000492,384.10367820004467,384.0871825000504,384.09513070003595,384.10367820004467,384.10367820004467,384.10367820004467,385.00375220004935,Objects\125a.jpg,post,o,0.8975758999586105,None,,,,,,,,00035,001,2026-01-22_21h18.33.812,MST_test,2024.2.0,59.89214622456583,2026-01-22 21h18.41.075742 +0530,
100,0,101,n,2.483486899989657,None,101,0,100,385.0200614000205,,,,,,,,,,,,,,,,,,,,,,,,,,,,,,,,,,,,,,,,,,,,,,,,,,385.00411130004795,385.0200614000205,385.52610920002917,385.50349600001937,385.52368450001813,385.52610920002917,385.52610920002917,385.52610920002917,388.02073990000645,Scenes\125a.jpg,post,n,2.483486899989657,None,,,,,,,,00035,001,2026-01-22_21h18.33.812,MST_test,2024.2.0,59.89214622456583,2026-01-22 21h18.41.075742 +0530,
101,0,102,s,1.1436585999908857,None,102,0,101,388.0368044000352,,,,,,,,,,,,,,,,,,,,,,,,,,,,,,,,,,,,,,,,,,,,,,,,,,388.0210872000316,388.0368044000352,388.5373418000527,388.52042320003966,388.53216080000857,388.5373418000527,388.5373418000527,388.5373418000527,389.6874773000018,Objects\025a.jpg,mid,s,1.1436585999908857,None,,,,,,,,00035,001,2026-01-22_21h18.33.812,MST_test,2024.2.0,59.89214622456583,2026-01-22 21h18.41.075742 +0530,
102,0,103,s,3.969528799992986,None,103,0,102,389.70315050001955,,,,,,,,,,,,,,,,,,,,,,,,,,,,,,,,,,,,,,,,,,,,,,,,,,389.687858600053,389.70315050001955,390.2561285000411,390.18718220002484,390.25341330002993,390.2561285000411,390.2561285000411,390.2561285000411,394.2374551999965,Scenes\186b.jpg,mid,s,3.969528799992986,None,,,,,,,,00035,001,2026-01-22_21h18.33.812,MST_test,2024.2.0,59.89214622456583,2026-01-22 21h18.41.075742 +0530,
103,0,104,o,3.164856299990788,None,104,0,103,394.2533810000168,,,,,,,,,,,,,,,,,,,,,,,,,,,,,,,,,,,,,,,,,,,,,,,,,,394.2378269000328,394.2533810000168,394.7647530999966,394.7372158000362,394.7619203000213,394.7647530999966,394.7647530999966,394.7647530999966,397.9375178000191,Scenes\062b.jpg,post,o,3.164856299990788,None,,,,,,,,00035,001,2026-01-22_21h18.33.812,MST_test,2024.2.0,59.89214622456583,2026-01-22 21h18.41.075742 +0530,
104,0,105,s,1.6711689000367187,None,105,0,104,397.9540729,,,,,,,,,,,,,,,,,,,,,,,,,,,,,,,,,,,,,,,,,,,,,,,,,,397.9379278999986,397.9540729,398.45850410003914,398.43713740003295,398.45592690003105,398.45850410003914,398.45850410003914,398.45850410003914,400.13750980002806,Scenes\076b.jpg,pre,s,1.6711689000367187,None,,,,,,,,00035,001,2026-01-22_21h18.33.812,MST_test,2024.2.0,59.89214622456583,2026-01-22 21h18.41.075742 +0530,
105,0,106,o,1.898983600025531,None,106,0,105,400.153386400023,,,,,,,,,,,,,,,,,,,,,,,,,,,,,,,,,,,,,,,,,,,,,,,,,,400.13795740000205,400.153386400023,400.6539718999993,400.6369110000087,400.6459856000147,400.6539718999993,400.6539718999993,400.6539718999993,402.5540008000098,Objects\149a.jpg,mid,o,1.898983600025531,None,,,,,,,,00035,001,2026-01-22_21h18.33.812,MST_test,2024.2.0,59.89214622456583,2026-01-22 21h18.41.075742 +0530,
106,0,107,n,1.881507000012789,None,107,0,106,402.5701291000005,,,,,,,,,,,,,,,,,,,,,,,,,,,,,,,,,,,,,,,,,,,,,,,,,,402.5543499000487,402.5701291000005,403.07147100003203,403.05369100003736,403.0619673000183,403.07147100003203,403.07147100003203,403.07147100003203,404.9539382000221,Foils\073a.jpg,none,n,1.881507000012789,None,,,,,,,,00035,001,2026-01-22_21h18.33.812,MST_test,2024.2.0,59.89214622456583,2026-01-22 21h18.41.075742 +0530,
107,0,108,s,1.5435981000191532,None,108,0,107,404.970153900038,,,,,,,,,,,,,,,,,,,,,,,,,,,,,,,,,,,,,,,,,,,,,,,,,,404.95431940001436,404.970153900038,405.4819890000508,405.4535444000503,405.4800480999984,405.4819890000508,405.4819890000508,405.4819890000508,407.0374415999977,Objects\060b.jpg,pre,s,1.5435981000191532,None,,,,,,,,00035,001,2026-01-22_21h18.33.812,MST_test,2024.2.0,59.89214622456583,2026-01-22 21h18.41.075742 +0530,
108,0,109,s,1.2439610000001267,None,109,0,108,407.053398500022,,,,,,,,,,,,,,,,,,,,,,,,,,,,,,,,,,,,,,,,,,,,,,,,,,407.0378053000313,407.053398500022,407.5971936000278,407.53720840002643,407.59472450002795,407.5971936000278,407.5971936000278,407.5971936000278,408.85399230004987,Objects\019b.jpg,mid,s,1.2439610000001267,None,,,,,,,,00035,001,2026-01-22_21h18.33.812,MST_test,2024.2.0,59.89214622456583,2026-01-22 21h18.41.075742 +0530,
109,0,110,o,6.055205999989994,None,110,0,109,408.8698897000286,,,,,,,,,,,,,,,,,,,,,,,,,,,,,,,,,,,,,,,,,,,,,,,,,,408.85438330000034,408.8698897000286,409.3703836000059,409.3538478999981,409.36298850004096,409.3703836000059,409.3703836000059,409.3703836000059,415.4375649000285,Objects\164a.jpg,pre,o,6.055205999989994,None,,,,,,,,00035,001,2026-01-22_21h18.33.812,MST_test,2024.2.0,59.89214622456583,2026-01-22 21h18.41.075742 +0530,
110,0,111,s,1.3439918999793008,None,111,0,110,415.4534826000454,,,,,,,,,,,,,,,,,,,,,,,,,,,,,,,,,,,,,,,,,,,,,,,,,,415.4380518000107,415.4534826000454,415.9770359999966,415.937252600037,415.97464359999867,415.9770359999966,415.9770359999966,415.9770359999966,417.33753010001965,Scenes\166b.jpg,post,s,1.3439918999793008,None,,,,,,,,00035,001,2026-01-22_21h18.33.812,MST_test,2024.2.0,59.89214622456583,2026-01-22 21h18.41.075742 +0530,
111,0,112,o,2.3710713000036776,None,112,0,111,417.3534811999998,,,,,,,,,,,,,,,,,,,,,,,,,,,,,,,,,,,,,,,,,,,,,,,,,,417.33793190005235,417.3534811999998,417.8540189000196,417.83709750004346,417.84661140001845,417.8540189000196,417.8540189000196,417.8540189000196,420.2373512000195,Objects\152b.jpg,pre,o,2.3710713000036776,None,,,,,,,,00035,001,2026-01-22_21h18.33.812,MST_test,2024.2.0,59.89214622456583,2026-01-22 21h18.41.075742 +0530,
112,0,113,n,0.9671204999904148,None,113,0,112,420.25330670003314,,,,,,,,,,,,,,,,,,,,,,,,,,,,,,,,,,,,,,,,,,,,,,,,,,420.2376991000492,420.25330670003314,420.7537331000203,420.73721910000313,420.74339160003,420.7537331000203,420.7537331000203,420.7537331000203,421.7374458000413,Foils\106a.jpg,none,n,0.9671204999904148,None,,,,,,,,00035,001,2026-01-22_21h18.33.812,MST_test,2024.2.0,59.89214622456583,2026-01-22 21h18.41.075742 +0530,
113,0,114,o,1.6992517999606207,None,114,0,113,421.7534661000245,,,,,,,,,,,,,,,,,,,,,,,,,,,,,,,,,,,,,,,,,,,,,,,,,,421.737814000051,421.7534661000245,422.25371980003547,422.237191000022,422.2451696000062,422.25371980003547,422.25371980003547,422.25371980003547,423.95417250000173,Objects\038a.jpg,post,o,1.6992517999606207,None,,,,,,,,00035,001,2026-01-22_21h18.33.812,MST_test,2024.2.0,59.89214622456583,2026-01-22 21h18.41.075742 +0530,
114,0,115,s,3.3549090000451542,None,115,0,114,423.97005490004085,,,,,,,,,,,,,,,,,,,,,,,,,,,,,,,,,,,,,,,,,,,,,,,,,,423.9545529000461,423.97005490004085,424.4703538000467,424.45409720001044,424.46020310005406,424.4703538000467,424.4703538000467,424.4703538000467,427.83753290004097,Objects\165b.jpg,mid,s,3.3549090000451542,None,,,,,,,,00035,001,2026-01-22_21h18.33.812,MST_test,2024.2.0,59.89214622456583,2026-01-22 21h18.41.075742 +0530,
115,0,116,s,4.302393299993128,None,116,0,115,427.85348810005235,,,,,,,,,,,,,,,,,,,,,,,,,,,,,,,,,,,,,,,,,,,,,,,,,,427.83793730003526,427.85348810005235,428.3545868000365,428.33723570004804,428.3522482000408,428.3545868000365,428.3545868000365,428.3545868000365,432.6707835000125,Scenes\094b.jpg,post,s,4.302393299993128,None,,,,,,,,00035,001,2026-01-22_21h18.33.812,MST_test,2024.2.0,59.89214622456583,2026-01-22 21h18.41.075742 +0530,
116,0,117,n,1.0391182000166737,None,117,0,116,432.68680600001244,,,,,,,,,,,,,,,,,,,,,,,,,,,,,,,,,,,,,,,,,,,,,,,,,,432.6711813000147,432.68680600001244,433.2021654000273,433.1705493000336,433.1987399000209,433.2021654000273,433.2021654000273,433.2021654000273,434.25408959999913,Foils\scenes4.jpg,none,n,1.0391182000166737,None,,,,,,,,00035,001,2026-01-22_21h18.33.812,MST_test,2024.2.0,59.89214622456583,2026-01-22 21h18.41.075742 +0530,
117,0,118,s,2.8233067999826744,None,118,0,117,434.2700572000467,,,,,,,,,,,,,,,,,,,,,,,,,,,,,,,,,,,,,,,,,,,,,,,,,,434.2545419000089,434.2700572000467,434.8023103000014,434.75354520004475,434.7986998000415,434.8023103000014,434.8023103000014,434.8023103000014,437.6374289000523,Scenes\111b.jpg,pre,s,2.8233067999826744,None,,,,,,,,00035,001,2026-01-22_21h18.33.812,MST_test,2024.2.0,59.89214622456583,2026-01-22 21h18.41.075742 +0530,
118,0,119,s,1.3755194999976084,None,119,0,118,437.65348200005246,,,,,,,,,,,,,,,,,,,,,,,,,,,,,,,,,,,,,,,,,,,,,,,,,,437.63787800003774,437.65348200005246,438.1540315000457,438.1371206000331,438.1464044000022,438.1540315000457,438.1540315000457,438.1540315000457,439.53740990004735,Foils\050a.jpg,none,s,1.3755194999976084,None,,,,,,,,00035,001,2026-01-22_21h18.33.812,MST_test,2024.2.0,59.89214622456583,2026-01-22 21h18.41.075742 +0530,
119,0,120,s,0.9853102000197396,None,120,0,119,439.5531266000471,,,,,,,,,,,,,,,,,,,,,,,,,,,,,,,,,,,,,,,,,,,,,,,,,,439.5377885000198,439.5531266000471,440.05561540002236,440.03720860002795,440.05303830001503,440.05561540002236,440.05561540002236,440.05561540002236,441.053854400001,Scenes\006a.jpg,mid,s,0.9853102000197396,None,,,,,,,,00035,001,2026-01-22_21h18.33.812,MST_test,2024.2.0,59.89214622456583,2026-01-22 21h18.41.075742 +0530,
120,0,121,o,1.1098344000056386,None,121,0,120,441.0697919000522,,,,,,,,,,,,,,,,,,,,,,,,,,,,,,,,,,,,,,,,,,,,,,,,,,441.0542060000007,441.0697919000522,441.57179880002514,441.5538573000231,441.56933980004396,441.57179880002514,441.57179880002514,441.57179880002514,442.68746600003215,Scenes\055a.jpg,mid,o,1.1098344000056386,None,,,,,,,,00035,001,2026-01-22_21h18.33.812,MST_test,2024.2.0,59.89214622456583,2026-01-22 21h18.41.075742 +0530,
121,0,122,n,1.293631499982439,None,122,0,121,442.7034857000108,,,,,,,,,,,,,,,,,,,,,,,,,,,,,,,,,,,,,,,,,,,,,,,,,,442.6878128000535,442.7034857000108,443.20394680002937,443.1870953000034,443.1947242000024,443.20394680002937,443.20394680002937,443.20394680002937,444.50387460005004,Foils\scenes8.jpg,none,n,1.293631499982439,None,,,,,,,,00035,001,2026-01-22_21h18.33.812,MST_test,2024.2.0,59.89214622456583,2026-01-22 21h18.41.075742 +0530,
122,0,123,n,1.4496957000228576,None,123,0,122,444.52013910003006,,,,,,,,,,,,,,,,,,,,,,,,,,,,,,,,,,,,,,,,,,,,,,,,,,444.5043133000145,444.52013910003006,445.0553780000191,445.00354240002343,445.05286029999843,445.0553780000191,445.0553780000191,445.0553780000191,446.52117610001005,Scenes\170b.jpg,mid,n,1.4496957000228576,None,,,,,,,,00035,001,2026-01-22_21h18.33.812,MST_test,2024.2.0,59.89214622456583,2026-01-22 21h18.41.075742 +0530,
123,0,124,n,1.9038986000232399,None,124,0,123,446.53683759999694,,,,,,,,,,,,,,,,,,,,,,,,,,,,,,,,,,,,,,,,,,,,,,,,,,446.5215403000475,446.53683759999694,447.0414824000327,447.0205271000159,447.0385412000469,447.0414824000327,447.0414824000327,447.0414824000327,448.95406460005324,Foils\scenes22.jpg,none,n,1.9038986000232399,None,,,,,,,,00035,001,2026-01-22_21h18.33.812,MST_test,2024.2.0,59.89214622456583,2026-01-22 21h18.41.075742 +0530,
124,0,125,s,2.4432930999901146,None,125,0,124,448.9701344000059,,,,,,,,,,,,,,,,,,,,,,,,,,,,,,,,,,,,,,,,,,,,,,,,,,448.9544160000514,448.9701344000059,449.4777847000514,449.45376679999754,449.47493419999955,449.4777847000514,449.4777847000514,449.4777847000514,451.93753690004814,Scenes\088b.jpg,post,s,2.4432930999901146,None,,,,,,,,00035,001,2026-01-22_21h18.33.812,MST_test,2024.2.0,59.89214622456583,2026-01-22 21h18.41.075742 +0530,
125,0,126,o,1.2992228999501094,None,126,0,125,451.95348300004844,,,,,,,,,,,,,,,,,,,,,,,,,,,,,,,,,,,,,,,,,,,,,,,,,,451.93792130000656,451.95348300004844,452.45377770002233,452.43730430002324,452.44602670002496,452.45377770002233,452.45377770002233,452.45377770002233,453.7540941000334,Objects\004a.jpg,pre,o,1.2992228999501094,None,,,,,,,,00035,001,2026-01-22_21h18.33.812,MST_test,2024.2.0,59.89214622456583,2026-01-22 21h18.41.075742 +0530,
126,0,127,o,0.9389164999593049,None,127,0,126,453.77014640002744,,,,,,,,,,,,,,,,,,,,,,,,,,,,,,,,,,,,,,,,,,,,,,,,,,453.754442400008,453.77014640002744,454.2704174000537,454.25345080002444,454.2626414000406,454.2704174000537,454.2704174000537,454.2704174000537,455.22079120000126,Objects\144a.jpg,post,o,0.9389164999593049,None,,,,,,,,00035,001,2026-01-22_21h18.33.812,MST_test,2024.2.0,59.89214622456583,2026-01-22 21h18.41.075742 +0530,
127,0,128,o,1.5756932999938726,None,128,0,127,455.23681490001036,,,,,,,,,,,,,,,,,,,,,,,,,,,,,,,,,,,,,,,,,,,,,,,,,,455.2211427000002,455.23681490001036,455.76985189999687,455.7203652000171,455.7674053000519,455.76985189999687,455.76985189999687,455.76985189999687,457.35417630005395,Scenes\040b.jpg,post,o,1.5756932999938726,None,,,,,,,,00035,001,2026-01-22_21h18.33.812,MST_test,2024.2.0,59.89214622456583,2026-01-22 21h18.41.075742 +0530,
128,0,129,s,1.589263400004711,None,129,0,128,457.3700863000122,,,,,,,,,,,,,,,,,,,,,,,,,,,,,,,,,,,,,,,,,,,,,,,,,,457.3545279999962,457.3700863000122,457.8836319000111,457.8538717000047,457.8808966000215,457.8836319000111,457.8836319000111,457.8836319000111,459.48751090001315,Objects\015b.jpg,mid,s,1.589263400004711,None,,,,,,,,00035,001,2026-01-22_21h18.33.812,MST_test,2024.2.0,59.89214622456583,2026-01-22 21h18.41.075742 +0530,
129,0,130,s,1.9045341000310145,None,130,0,129,459.5034602000378,,,,,,,,,,,,,,,,,,,,,,,,,,,,,,,,,,,,,,,,,,,,,,,,,,459.4878966000397,459.5034602000378,460.009047700034,459.9872331000515,460.0065870000399,460.009047700034,460.009047700034,460.009047700034,461.92090680002,Scenes\109a.jpg,pre,s,1.9045341000310145,None,,,,,,,,00035,001,2026-01-22_21h18.33.812,MST_test,2024.2.0,59.89214622456583,2026-01-22 21h18.41.075742 +0530,
130,0,131,o,5.11864840000635,None,131,0,130,461.93682330002775,,,,,,,,,,,,,,,,,,,,,,,,,,,,,,,,,,,,,,,,,,,,,,,,,,461.9212978000287,461.93682330002775,462.4670299999998,462.42030210001394,462.4644580000313,462.4670299999998,462.4670299999998,462.4670299999998,467.5872825999977,Scenes\072b.jpg,post,o,5.11864840000635,None,,,,,,,,00035,001,2026-01-22_21h18.33.812,MST_test,2024.2.0,59.89214622456583,2026-01-22 21h18.41.075742 +0530,
131,0,132,o,2.6447321999585256,None,132,0,131,467.6034809999983,,,,,,,,,,,,,,,,,,,,,,,,,,,,,,,,,,,,,,,,,,,,,,,,,,467.58768300001975,467.6034809999983,468.108709000051,468.08723950001877,468.1061787000508,468.108709000051,468.108709000051,468.108709000051,470.75490040000295,Scenes\043b.jpg,pre,o,2.6447321999585256,None,,,,,,,,00035,001,2026-01-22_21h18.33.812,MST_test,2024.2.0,59.89214622456583,2026-01-22 21h18.41.075742 +0530,
132,0,133,n,1.0028128999983892,None,133,0,132,470.7699119000463,,,,,,,,,,,,,,,,,,,,,,,,,,,,,,,,,,,,,,,,,,,,,,,,,,470.75527270004386,470.7699119000463,471.27012150001246,471.25351180002326,471.26253590005217,471.27012150001246,471.27012150001246,471.27012150001246,472.2874701000401,Foils\058a.jpg,none,n,1.0028128999983892,None,,,,,,,,00035,001,2026-01-22_21h18.33.812,MST_test,2024.2.0,59.89214622456583,2026-01-22 21h18.41.075742 +0530,
133,0,134,o,2.2675518000032753,None,134,0,133,472.30348689999664,,,,,,,,,,,,,,,,,,,,,,,,,,,,,,,,,,,,,,,,,,,,,,,,,,472.28782100003446,472.30348689999664,472.8053943000268,472.7871492000413,472.80310780002037,472.8053943000268,472.8053943000268,472.8053943000268,475.0874841000186,Scenes\058a.jpg,post,o,2.2675518000032753,None,,,,,,,,00035,001,2026-01-22_21h18.33.812,MST_test,2024.2.0,59.89214622456583,2026-01-22 21h18.41.075742 +0530,
134,0,135,o,1.075932300009299,None,135,0,134,475.1034654000541,,,,,,,,,,,,,,,,,,,,,,,,,,,,,,,,,,,,,,,,,,,,,,,,,,475.0878324000514,475.1034654000541,475.6056181000313,475.5872255000286,475.6024760000291,475.6056181000313,475.6056181000313,475.6056181000313,476.6874496000237,Scenes\036a.jpg,mid,o,1.075932300009299,None,,,,,,,,00035,001,2026-01-22_21h18.33.812,MST_test,2024.2.0,59.89214622456583,2026-01-22 21h18.41.075742 +0530,
135,0,136,s,1.0225817000027746,None,136,0,135,476.703470700013,,,,,,,,,,,,,,,,,,,,,,,,,,,,,,,,,,,,,,,,,,,,,,,,,,476.6877970000496,476.703470700013,477.21833820000757,477.18719120003516,477.2159180000308,477.21833820000757,477.21833820000757,477.21833820000757,478.2541433000006,Objects\104b.jpg,pre,s,1.0225817000027746,None,,,,,,,,00035,001,2026-01-22_21h18.33.812,MST_test,2024.2.0,59.89214622456583,2026-01-22 21h18.41.075742 +0530,
136,0,137,s,3.294529899954796,None,137,0,136,478.2700614000205,,,,,,,,,,,,,,,,,,,,,,,,,,,,,,,,,,,,,,,,,,,,,,,,,,478.2544915000326,478.2700614000205,478.77029539999785,478.7538778000162,478.76330590003636,478.77029539999785,478.77029539999785,478.77029539999785,482.0707264000084,Foils\009a.jpg,none,s,3.294529899954796,None,,,,,,,,00035,001,2026-01-22_21h18.33.812,MST_test,2024.2.0,59.89214622456583,2026-01-22 21h18.41.075742 +0530,
137,0,138,s,0.6298859000089578,None,138,0,137,482.0866904000286,,,,,,,,,,,,,,,,,,,,,,,,,,,,,,,,,,,,,,,,,,,,,,,,,,482.07108780002454,482.0866904000286,482.5870482000173,482.57048390002456,482.5777656999999,482.5870482000173,482.5870482000173,482.5870482000173,483.2204783000052,Objects\142a.jpg,mid,s,0.6298859000089578,None,,,,,,,,00035,001,2026-01-22_21h18.33.812,MST_test,2024.2.0,59.89214622456583,2026-01-22 21h18.41.075742 +0530,
138,0,139,o,1.1125451999832876,None,139,0,138,483.2368024000316,,,,,,,,,,,,,,,,,,,,,,,,,,,,,,,,,,,,,,,,,,,,,,,,,,483.2208299000049,483.2368024000316,483.73702530004084,483.7204594000359,483.728737300029,483.73702530004084,483.73702530004084,483.73702530004084,484.8552965000272,Objects\083a.jpg,mid,o,1.1125451999832876,None,,,,,,,,00035,001,2026-01-22_21h18.33.812,MST_test,2024.2.0,59.89214622456583,2026-01-22 21h18.41.075742 +0530,
139,0,140,o,0.8792146999621764,None,140,0,139,484.8700795000186,,,,,,,,,,,,,,,,,,,,,,,,,,,,,,,,,,,,,,,,,,,,,,,,,,484.8556628000224,484.8700795000186,485.37029030005215,485.35387869999977,485.36264750000555,485.37029030005215,485.37029030005215,485.37029030005215,486.25412759999745,Objects\096a.jpg,pre,o,0.8792146999621764,None,,,,,,,,00035,001,2026-01-22_21h18.33.812,MST_test,2024.2.0,59.89214622456583,2026-01-22 21h18.41.075742 +0530,
140,0,141,o,0.9912588000297546,None,141,0,140,486.2700683000148,,,,,,,,,,,,,,,,,,,,,,,,,,,,,,,,,,,,,,,,,,,,,,,,,,486.25448000000324,486.2700683000148,486.77033810003195,486.7538667000481,486.7677906000172,486.77033810003195,486.77033810003195,486.77033810003195,487.77057400002377,Scenes\140a.jpg,mid,o,0.9912588000297546,None,,,,,,,,00035,001,2026-01-22_21h18.33.812,MST_test,2024.2.0,59.89214622456583,2026-01-22 21h18.41.075742 +0530,
141,0,142,s,1.2730627999990247,None,142,0,141,487.7868123000371,,,,,,,,,,,,,,,,,,,,,,,,,,,,,,,,,,,,,,,,,,,,,,,,,,487.770921700052,487.7868123000371,488.3044477000367,488.270494700002,488.30203410005197,488.3044477000367,488.3044477000367,488.3044477000367,489.587156100024,Objects\178b.jpg,pre,s,1.2730627999990247,None,,,,,,,,00035,001,2026-01-22_21h18.33.812,MST_test,2024.2.0,59.89214622456583,2026-01-22 21h18.41.075742 +0530,
142,0,143,n,1.3543834000010975,None,143,0,142,489.60348780005006,,,,,,,,,,,,,,,,,,,,,,,,,,,,,,,,,,,,,,,,,,,,,,,,,,489.5875056000077,489.60348780005006,490.12678089999827,490.08695160003845,490.1236324000056,490.12678089999827,490.12678089999827,490.12678089999827,491.4872071000282,Foils\scenes6.jpg,none,n,1.3543834000010975,None,,,,,,,,00035,001,2026-01-22_21h18.33.812,MST_test,2024.2.0,59.89214622456583,2026-01-22 21h18.41.075742 +0530,
143,0,144,o,1.1336035000276752,None,144,0,143,491.5032731000101,,,,,,,,,,,,,,,,,,,,,,,,,,,,,,,,,,,,,,,,,,,,,,,,,,491.48759240005165,491.5032731000101,492.0034131000284,491.98692070000106,492.0006057000137,492.0034131000284,492.0034131000284,492.0034131000284,493.13764250004897,Scenes\018a.jpg,mid,o,1.1336035000276752,None,,,,,,,,00035,001,2026-01-22_21h18.33.812,MST_test,2024.2.0,59.89214622456583,2026-01-22 21h18.41.075742 +0530,
144,0,145,s,1.3488185000023805,None,145,0,144,493.15346630004933,,,,,,,,,,,,,,,,,,,,,,,,,,,,,,,,,,,,,,,,,,,,,,,,,,493.1379976000171,493.15346630004933,493.6847257000045,493.6371941000107,493.6823011000524,493.6847257000045,493.6847257000045,493.6847257000045,495.03728160000173,Scenes\126b.jpg,mid,s,1.3488185000023805,None,,,,,,,,00035,001,2026-01-22_21h18.33.812,MST_test,2024.2.0,59.89214622456583,2026-01-22 21h18.41.075742 +0530,
145,0,146,o,1.111742899985984,None,146,0,145,495.0532981000142,,,,,,,,,,,,,,,,,,,,,,,,,,,,,,,,,,,,,,,,,,,,,,,,,,495.0376449000323,495.0532981000142,495.5538002999965,495.5370907000033,495.5482325000339,495.5538002999965,495.5538002999965,495.5538002999965,496.67071370000485,Objects\175b.jpg,mid,o,1.111742899985984,None,,,,,,,,00035,001,2026-01-22_21h18.33.812,MST_test,2024.2.0,59.89214622456583,2026-01-22 21h18.41.075742 +0530,
146,0,147,s,1.7060389999533072,None,147,0,146,496.6868304000236,,,,,,,,,,,,,,,,,,,,,,,,,,,,,,,,,,,,,,,,,,,,,,,,,,496.6710903000203,496.6868304000236,497.19904950005,497.1701009000535,497.1965565000428,497.19904950005,497.19904950005,497.19904950005,498.9207350000506,Foils\scenes23.jpg,none,s,1.7060389999533072,None,,,,,,,,00035,001,2026-01-22_21h18.33.812,MST_test,2024.2.0,59.89214622456583,2026-01-22 21h18.41.075742 +0530,
147,0,148,o,5.078369399998337,None,148,0,147,498.9368053000071,,,,,,,,,,,,,,,,,,,,,,,,,,,,,,,,,,,,,,,,,,,,,,,,,,498.9211084000417,498.9368053000071,499.44275950000156,499.42050540004857,499.43958060001023,499.44275950000156,499.44275950000156,499.44275950000156,504.5375533000333,Scenes\020b.jpg,pre,o,5.078369399998337,None,,,,,,,,00035,001,2026-01-22_21h18.33.812,MST_test,2024.2.0,59.89214622456583,2026-01-22 21h18.41.075742 +0530,
148,0,149,s,1.1813971999799833,None,149,0,148,504.55349770002067,,,,,,,,,,,,,,,,,,,,,,,,,,,,,,,,,,,,,,,,,,,,,,,,,,504.53799700003583,504.55349770002067,505.07612910005264,505.03692660003435,505.07319280004594,505.07612910005264,505.07612910005264,505.07612910005264,506.27078130003065,Foils\105a.jpg,none,s,1.1813971999799833,None,,,,,,,,00035,001,2026-01-22_21h18.33.812,MST_test,2024.2.0,59.89214622456583,2026-01-22 21h18.41.075742 +0530,
149,0,150,o,1.428380900004413,None,150,0,149,506.286857100029,,,,,,,,,,,,,,,,,,,,,,,,,,,,,,,,,,,,,,,,,,,,,,,,,,506.2711331000319,506.286857100029,506.79716280003777,506.770527900022,506.79479140002513,506.79716280003777,506.79716280003777,506.79716280003777,508.2374735000194,Objects\082b.jpg,pre,o,1.428380900004413,None,,,,,,,,00035,001,2026-01-22_21h18.33.812,MST_test,2024.2.0,59.89214622456583,2026-01-22 21h18.41.075742 +0530,
,,,,,,,,,,,,,,,,,,,,,,,,,,,,,,,,,,,,,,,,,,,,,,,,,,,,,,,,,,,,,,,,,,,,,,,,,508.23770260001766,508.2533751000301,508.2533751000301,510.30369080003584,space,2.035475699987728,None,00035,001,2026-01-22_21h18.33.812,MST_test,2024.2.0,59.89214622456583,2026-01-22 21h18.41.075742 +0530,
