thisN,thisTrialN,thisRepN,key_resp_3.keys,key_resp_3.rt,key_resp_3.duration,trials.thisRepN,trials.thisTrialN,trials.thisN,thisRow.t,notes,intro_page.started,text.started,key_resp.started,intro_page.stopped,key_resp.keys,key_resp.rt,key_resp.duration,instructions.started,text_2.started,key_resp_2.started,instructions.stopped,key_resp_2.keys,key_resp_2.rt,key_resp_2.duration,demo1.started,image_1.started,image_2.started,text_7.started,key_resp_6.started,text_9.started,demo1.stopped,key_resp_6.keys,key_resp_6.rt,key_resp_6.duration,demo2.started,image_5.started,image_6.started,text_11.started,text_12.started,key_resp_8.started,demo2.stopped,key_resp_8.keys,key_resp_8.rt,key_resp_8.duration,demo_conclusion.started,text_13.started,key_resp_9.started,demo_conclusion.stopped,key_resp_9.keys,key_resp_9.rt,key_resp_9.duration,start_test.started,text_6.started,key_resp_5.started,start_test.stopped,key_resp_5.keys,key_resp_5.rt,key_resp_5.duration,ISI.started,text_4.started,text_4.stopped,ISI.stopped,routine_1.started,image.started,text_3.started,key_resp_3.started,routine_1.stopped,image_path,position_of_stimuli,trials.key_resp_3.keys,trials.key_resp_3.rt,trials.key_resp_3.duration,End_page.started,text_5.started,key_resp_4.started,End_page.stopped,key_resp_4.keys,key_resp_4.rt,key_resp_4.duration,participant,session,date,expName,psychopyVersion,frameRate,expStart,
,,,,,,,,,,,0.0013854999997420236,0.002979999997478444,0.002979999997478444,3.0995530000000144,space,3.094400299996778,None,,,,,,,,,,,,,,,,,,,,,,,,,,,,,,,,,,,,,,,,,,,,,,,,,,,,,,,,,,,,,,,00030,001,2026-01-21_11h51.29.080,MST_test,2024.2.0,60.0070088187324,2026-01-21 11h51.37.539482 +0530,
,,,,,,,,,,,,,,,,,,3.099583299997903,3.1142784999974538,3.1142784999974538,14.497588699996413,space,11.36818370000401,None,,,,,,,,,,,,,,,,,,,,,,,,,,,,,,,,,,,,,,,,,,,,,,,,,,,,,,,,00030,001,2026-01-21_11h51.29.080,MST_test,2024.2.0,60.0070088187324,2026-01-21 11h51.37.539482 +0530,
,,,,,,,,,,,,,,,,,,,,,,,,,14.497615699998278,14.514512199995806,14.514512199995806,14.514512199995806,14.514512199995806,14.514512199995806,19.981121999997413,space,5.462903599996935,None,,,,,,,,,,,,,,,,,,,,,,,,,,,,,,,,,,,,,,,,,,,,,,00030,001,2026-01-21_11h51.29.080,MST_test,2024.2.0,60.0070088187324,2026-01-21 11h51.37.539482 +0530,
,,,,,,,,,,,,,,,,,,,,,,,,,,,,,,,,,,,19.981149999999616,19.997859499999322,19.997859499999322,19.997859499999322,19.997859499999322,19.997859499999322,22.581095299996377,space,2.5723356000016793,None,,,,,,,,,,,,,,,,,,,,,,,,,,,,,,,,,,,,00030,001,2026-01-21_11h51.29.080,MST_test,2024.2.0,60.0070088187324,2026-01-21 11h51.37.539482 +0530,
,,,,,,,,,,,,,,,,,,,,,,,,,,,,,,,,,,,,,,,,,,,,,22.581452899998112,22.597193899993727,22.597193899993727,34.89749429999938,space,12.286139099996944,None,,,,,,,,,,,,,,,,,,,,,,,,,,,,,00030,001,2026-01-21_11h51.29.080,MST_test,2024.2.0,60.0070088187324,2026-01-21 11h51.37.539482 +0530,
,,,,,,,,,,,,,,,,,,,,,,,,,,,,,,,,,,,,,,,,,,,,,,,,,,,,34.89752159999625,34.913729399995646,34.913729399995646,83.14742039999692,space,48.22395430000324,None,,,,,,,,,,,,,,,,,,,,,,00030,001,2026-01-21_11h51.29.080,MST_test,2024.2.0,60.0070088187324,2026-01-21 11h51.37.539482 +0530,
0,0,1,n,4.354278799997701,None,1,0,0,83.16371660000004,,,,,,,,,,,,,,,,,,,,,,,,,,,,,,,,,,,,,,,,,,,,,,,,,,83.15142399999604,83.16371660000004,83.66382399999566,83.64720209999359,83.66082769999775,83.66382399999566,83.66382399999566,83.66382399999566,88.03078209999512,Foils\scenes29.jpg,none,n,4.354278799997701,None,,,,,,,,00030,001,2026-01-21_11h51.29.080,MST_test,2024.2.0,60.0070088187324,2026-01-21 11h51.37.539482 +0530,
1,0,2,o,4.5990802999949665,None,2,0,1,88.04696229999536,,,,,,,,,,,,,,,,,,,,,,,,,,,,,,,,,,,,,,,,,,,,,,,,,,88.03087640000012,88.04696229999536,88.54731729999912,88.53048489999492,88.53688689999399,88.54731729999912,88.54731729999912,88.54731729999912,93.14768389999517,Scenes\080a.jpg,post,o,4.5990802999949665,None,,,,,,,,00030,001,2026-01-21_11h51.29.080,MST_test,2024.2.0,60.0070088187324,2026-01-21 11h51.37.539482 +0530,
2,0,3,o,2.6092801000049803,None,3,0,2,93.16370769999776,,,,,,,,,,,,,,,,,,,,,,,,,,,,,,,,,,,,,,,,,,,,,,,,,,93.14777469999535,93.16370769999776,93.66440479999437,93.64741669999785,93.65852829999494,93.66440479999437,93.66440479999437,93.66440479999437,96.28098569999565,Scenes\171a.jpg,mid,o,2.6092801000049803,None,,,,,,,,00030,001,2026-01-21_11h51.29.080,MST_test,2024.2.0,60.0070088187324,2026-01-21 11h51.37.539482 +0530,
3,0,4,s,5.204690300000948,None,4,0,3,96.29711149999639,,,,,,,,,,,,,,,,,,,,,,,,,,,,,,,,,,,,,,,,,,,,,,,,,,96.28107469999668,96.29711149999639,96.79735499999515,96.78070679999655,96.78587599999446,96.79735499999515,96.79735499999515,96.79735499999515,102.01433479999832,Objects\093a.jpg,mid,s,5.204690300000948,None,,,,,,,,00030,001,2026-01-21_11h51.29.080,MST_test,2024.2.0,60.0070088187324,2026-01-21 11h51.37.539482 +0530,
4,0,5,s,4.814416200002597,None,5,0,4,102.03043379999872,,,,,,,,,,,,,,,,,,,,,,,,,,,,,,,,,,,,,,,,,,,,,,,,,,102.0144261999958,102.03043379999872,102.53098579999642,102.51405429999431,102.52504229999613,102.53098579999642,102.53098579999642,102.53098579999642,107.3477253999954,Foils\scenes8.jpg,none,s,4.814416200002597,None,,,,,,,,00030,001,2026-01-21_11h51.29.080,MST_test,2024.2.0,60.0070088187324,2026-01-21 11h51.37.539482 +0530,
5,0,6,o,4.623873800002912,None,6,0,5,107.36378489999333,,,,,,,,,,,,,,,,,,,,,,,,,,,,,,,,,,,,,,,,,,,,,,,,,,107.34781889999431,107.36378489999333,107.86560029999964,107.84737169999426,107.86367969999992,107.86560029999964,107.86560029999964,107.86560029999964,112.49770290000015,Scenes\130b.jpg,pre,o,4.623873800002912,None,,,,,,,,00030,001,2026-01-21_11h51.29.080,MST_test,2024.2.0,60.0070088187324,2026-01-21 11h51.37.539482 +0530,
6,0,7,o,1.7155978000009782,None,7,0,6,112.51370969999698,,,,,,,,,,,,,,,,,,,,,,,,,,,,,,,,,,,,,,,,,,,,,,,,,,112.49779289999424,112.51370969999698,113.01417849999416,112.99731379999866,113.00770509999711,113.01417849999416,113.01417849999416,113.01417849999416,114.7310725999996,Objects\070b.jpg,mid,o,1.7155978000009782,None,,,,,,,,00030,001,2026-01-21_11h51.29.080,MST_test,2024.2.0,60.0070088187324,2026-01-21 11h51.37.539482 +0530,
7,0,8,o,1.2098684000011417,None,8,0,7,114.74704349999956,,,,,,,,,,,,,,,,,,,,,,,,,,,,,,,,,,,,,,,,,,,,,,,,,,114.73116239999945,114.74704349999956,115.2479394999973,115.23082049999357,115.24015819999477,115.2479394999973,115.2479394999973,115.2479394999973,116.46430919999693,Scenes\187a.jpg,pre,o,1.2098684000011417,None,,,,,,,,00030,001,2026-01-21_11h51.29.080,MST_test,2024.2.0,60.0070088187324,2026-01-21 11h51.37.539482 +0530,
8,0,9,o,3.0765518999978667,None,9,0,8,116.48044919999666,,,,,,,,,,,,,,,,,,,,,,,,,,,,,,,,,,,,,,,,,,,,,,,,,,116.46440019999864,116.48044919999666,116.98086679999687,116.96404849999817,116.96665969999594,116.98086679999687,116.98086679999687,116.98086679999687,120.06430359999649,Objects\051a.jpg,post,o,3.0765518999978667,None,,,,,,,,00030,001,2026-01-21_11h51.29.080,MST_test,2024.2.0,60.0070088187324,2026-01-21 11h51.37.539482 +0530,
9,0,10,s,2.4447519999957876,None,10,0,9,120.0804269999935,,,,,,,,,,,,,,,,,,,,,,,,,,,,,,,,,,,,,,,,,,,,,,,,,,120.06439319999481,120.0804269999935,,120.56516749999719,120.57520649999788,120.58065089999582,120.58065089999582,120.58065089999582,123.0309058999992,Foils\086a.jpg,none,s,2.4447519999957876,None,,,,,,,,00030,001,2026-01-21_11h51.29.080,MST_test,2024.2.0,60.0070088187324,2026-01-21 11h51.37.539482 +0530,
10,0,11,o,3.1978317000030074,None,11,0,10,123.04713099999935,,,,,,,,,,,,,,,,,,,,,,,,,,,,,,,,,,,,,,,,,,,,,,,,,,123.03099459999794,123.04713099999935,123.54755809999915,123.53085049999936,123.54406139999628,123.54755809999915,123.54755809999915,123.54755809999915,126.74763979999989,Scenes\074b.jpg,mid,o,3.1978317000030074,None,,,,,,,,00030,001,2026-01-21_11h51.29.080,MST_test,2024.2.0,60.0070088187324,2026-01-21 11h51.37.539482 +0530,
11,0,12,o,1.193243599998823,None,12,0,11,126.76360569999815,,,,,,,,,,,,,,,,,,,,,,,,,,,,,,,,,,,,,,,,,,,,,,,,,,126.7477288999944,126.76360569999815,127.2641583999939,127.24729049999587,127.25110549999954,127.2641583999939,127.2641583999939,127.2641583999939,128.46425610000006,Objects\060a.jpg,pre,o,1.193243599998823,None,,,,,,,,00030,001,2026-01-21_11h51.29.080,MST_test,2024.2.0,60.0070088187324,2026-01-21 11h51.37.539482 +0530,
12,0,13,n,4.815254599998298,None,13,0,12,128.48018999999476,,,,,,,,,,,,,,,,,,,,,,,,,,,,,,,,,,,,,,,,,,,,,,,,,,128.46438349999517,128.48018999999476,128.98692459999438,128.96386530000018,128.9847887999931,128.98692459999438,128.98692459999438,128.98692459999438,133.81427369999437,Scenes\170b.jpg,post,n,4.815254599998298,None,,,,,,,,00030,001,2026-01-21_11h51.29.080,MST_test,2024.2.0,60.0070088187324,2026-01-21 11h51.37.539482 +0530,
13,0,14,n,3.878597399998398,None,14,0,13,133.8302027999962,,,,,,,,,,,,,,,,,,,,,,,,,,,,,,,,,,,,,,,,,,,,,,,,,,133.8143654999949,133.8302027999962,134.33077619999676,134.31391129999975,134.31700909999927,134.33077619999676,134.33077619999676,134.33077619999676,138.21428699999524,Objects\165a.jpg,mid,n,3.878597399998398,None,,,,,,,,00030,001,2026-01-21_11h51.29.080,MST_test,2024.2.0,60.0070088187324,2026-01-21 11h51.37.539482 +0530,
14,0,15,o,5.093471400003182,None,15,0,14,138.23018419999426,,,,,,,,,,,,,,,,,,,,,,,,,,,,,,,,,,,,,,,,,,,,,,,,,,138.21437799999694,138.23018419999426,138.73324239999783,138.7139016000001,138.7310409999991,138.73324239999783,138.73324239999783,138.73324239999783,143.83121549999487,Scenes\035b.jpg,mid,o,5.093471400003182,None,,,,,,,,00030,001,2026-01-21_11h51.29.080,MST_test,2024.2.0,60.0070088187324,2026-01-21 11h51.37.539482 +0530,
15,0,16,o,1.542034699996293,None,16,0,15,143.8469408999954,,,,,,,,,,,,,,,,,,,,,,,,,,,,,,,,,,,,,,,,,,,,,,,,,,143.8313083999965,143.8469408999954,144.3475585999986,144.3305565999981,144.33627579999302,144.3475585999986,144.3475585999986,144.3475585999986,145.89762069999415,Scenes\117a.jpg,post,o,1.542034699996293,None,,,,,,,,00030,001,2026-01-21_11h51.29.080,MST_test,2024.2.0,60.0070088187324,2026-01-21 11h51.37.539482 +0530,
16,0,17,o,1.7553306999980123,None,17,0,16,145.91370549999556,,,,,,,,,,,,,,,,,,,,,,,,,,,,,,,,,,,,,,,,,,,,,,,,,,145.89771919999475,145.91370549999556,146.41426809999393,146.39725899999758,146.40724329999648,146.41426809999393,146.41426809999393,146.41426809999393,148.18088059999718,Objects\088b.jpg,post,o,1.7553306999980123,None,,,,,,,,00030,001,2026-01-21_11h51.29.080,MST_test,2024.2.0,60.0070088187324,2026-01-21 11h51.37.539482 +0530,
17,0,18,s,4.8919056999948225,None,18,0,17,148.19694170000002,,,,,,,,,,,,,,,,,,,,,,,,,,,,,,,,,,,,,,,,,,,,,,,,,,148.18097289999423,148.19694170000002,148.70168399999966,148.68050709999807,148.69934999999532,148.70168399999966,148.70168399999966,148.70168399999966,153.59761499999877,Scenes\009b.jpg,mid,s,4.8919056999948225,None,,,,,,,,00030,001,2026-01-21_11h51.29.080,MST_test,2024.2.0,60.0070088187324,2026-01-21 11h51.37.539482 +0530,
18,0,19,o,1.9120079000058467,None,19,0,18,153.6137036999935,,,,,,,,,,,,,,,,,,,,,,,,,,,,,,,,,,,,,,,,,,,,,,,,,,153.5977109999949,153.6137036999935,154.11427319999348,154.09724159999314,154.1059884999995,154.11427319999348,154.11427319999348,154.11427319999348,156.03080059999775,Scenes\021a.jpg,mid,o,1.9120079000058467,None,,,,,,,,00030,001,2026-01-21_11h51.29.080,MST_test,2024.2.0,60.0070088187324,2026-01-21 11h51.37.539482 +0530,
19,0,20,o,1.238467999995919,None,20,0,19,156.04694599999493,,,,,,,,,,,,,,,,,,,,,,,,,,,,,,,,,,,,,,,,,,,,,,,,,,156.0308933999986,156.04694599999493,156.54751019999821,156.53043269999762,156.5406406999973,156.54751019999821,156.54751019999821,156.54751019999821,157.79782699999487,Scenes\022b.jpg,pre,o,1.238467999995919,None,,,,,,,,00030,001,2026-01-21_11h51.29.080,MST_test,2024.2.0,60.0070088187324,2026-01-21 11h51.37.539482 +0530,
20,0,21,s,4.6801429000042845,None,21,0,20,157.81369079999422,,,,,,,,,,,,,,,,,,,,,,,,,,,,,,,,,,,,,,,,,,,,,,,,,,157.7979245999959,157.81369079999422,158.31383169999754,158.29724839999835,158.3072289999982,158.31383169999754,158.31383169999754,158.31383169999754,162.99752389999776,Foils\scenes11.jpg,none,s,4.6801429000042845,None,,,,,,,,00030,001,2026-01-21_11h51.29.080,MST_test,2024.2.0,60.0070088187324,2026-01-21 11h51.37.539482 +0530,
21,0,22,o,1.2478976999991573,None,22,0,21,163.01366149999376,,,,,,,,,,,,,,,,,,,,,,,,,,,,,,,,,,,,,,,,,,,,,,,,,,162.9976142999949,163.01366149999376,163.51398089999566,163.4972351999968,163.50027069999487,163.51398089999566,163.51398089999566,163.51398089999566,164.76432499999646,Objects\181a.jpg,pre,o,1.2478976999991573,None,,,,,,,,00030,001,2026-01-21_11h51.29.080,MST_test,2024.2.0,60.0070088187324,2026-01-21 11h51.37.539482 +0530,
22,0,23,o,3.0178381000005174,None,23,0,22,164.78026049999607,,,,,,,,,,,,,,,,,,,,,,,,,,,,,,,,,,,,,,,,,,,,,,,,,,164.76441499999783,164.78026049999607,165.2807535999964,165.2638963999998,165.27035339999566,165.2807535999964,165.2807535999964,165.2807535999964,168.31413959999918,Scenes\168a.jpg,mid,o,3.0178381000005174,None,,,,,,,,00030,001,2026-01-21_11h51.29.080,MST_test,2024.2.0,60.0070088187324,2026-01-21 11h51.37.539482 +0530,
23,0,24,o,1.3737417000011192,None,24,0,23,168.33021639999788,,,,,,,,,,,,,,,,,,,,,,,,,,,,,,,,,,,,,,,,,,,,,,,,,,168.3142274999991,168.33021639999788,168.83604309999646,168.81384689999686,168.8338697999934,168.83604309999646,168.83604309999646,168.83604309999646,170.21426470000006,Scenes\103b.jpg,post,o,1.3737417000011192,None,,,,,,,,00030,001,2026-01-21_11h51.29.080,MST_test,2024.2.0,60.0070088187324,2026-01-21 11h51.37.539482 +0530,
24,0,25,o,1.1268568000014056,None,25,0,24,170.230258699994,,,,,,,,,,,,,,,,,,,,,,,,,,,,,,,,,,,,,,,,,,,,,,,,,,170.2143536999938,170.230258699994,170.7308422999995,170.71396199999435,170.71701239999675,170.7308422999995,170.7308422999995,170.7308422999995,171.86420639999415,Objects\138a.jpg,pre,o,1.1268568000014056,None,,,,,,,,00030,001,2026-01-21_11h51.29.080,MST_test,2024.2.0,60.0070088187324,2026-01-21 11h51.37.539482 +0530,
25,0,26,o,1.9333802000037394,None,26,0,25,171.88026209999953,,,,,,,,,,,,,,,,,,,,,,,,,,,,,,,,,,,,,,,,,,,,,,,,,,171.864296199994,171.88026209999953,172.38090369999554,172.36391079999885,172.37387529999978,172.38090369999554,172.38090369999554,172.38090369999554,174.33079869999347,Scenes\012a.jpg,mid,o,1.9333802000037394,None,,,,,,,,00030,001,2026-01-21_11h51.29.080,MST_test,2024.2.0,60.0070088187324,2026-01-21 11h51.37.539482 +0530,
26,0,27,o,1.139204700004484,None,27,0,26,174.34699669999827,,,,,,,,,,,,,,,,,,,,,,,,,,,,,,,,,,,,,,,,,,,,,,,,,,174.33088719999796,174.34699669999827,174.8474955999991,174.83043459999317,174.84183949999715,174.8474955999991,174.8474955999991,174.8474955999991,175.9975370999964,Objects\107b.jpg,post,o,1.139204700004484,None,,,,,,,,00030,001,2026-01-21_11h51.29.080,MST_test,2024.2.0,60.0070088187324,2026-01-21 11h51.37.539482 +0530,
27,0,28,s,6.712340700003551,None,28,0,27,176.0137001999974,,,,,,,,,,,,,,,,,,,,,,,,,,,,,,,,,,,,,,,,,,,,,,,,,,175.99763749999693,176.0137001999974,176.51379279999674,176.4971869000001,176.49955779999436,176.51379279999674,176.51379279999674,176.51379279999674,183.2306951999999,Objects\064a.jpg,post,s,6.712340700003551,None,,,,,,,,00030,001,2026-01-21_11h51.29.080,MST_test,2024.2.0,60.0070088187324,2026-01-21 11h51.37.539482 +0530,
28,0,29,n,3.366324100003112,None,29,0,28,183.24699469999905,,,,,,,,,,,,,,,,,,,,,,,,,,,,,,,,,,,,,,,,,,,,,,,,,,183.23078419999365,183.24699469999905,183.74721789999603,183.73040339999716,183.7403861999992,183.74721789999603,183.74721789999603,183.74721789999603,187.1142577999999,Foils\042a.jpg,none,n,3.366324100003112,None,,,,,,,,00030,001,2026-01-21_11h51.29.080,MST_test,2024.2.0,60.0070088187324,2026-01-21 11h51.37.539482 +0530,
29,0,30,s,2.451820200003567,None,30,0,29,187.1302727000002,,,,,,,,,,,,,,,,,,,,,,,,,,,,,,,,,,,,,,,,,,,,,,,,,,187.11434919999738,187.1302727000002,187.6305205999961,187.6139175999997,187.6232302999997,187.6305205999961,187.6305205999961,187.6305205999961,190.09754199999588,Objects\154b.jpg,mid,s,2.451820200003567,None,,,,,,,,00030,001,2026-01-21_11h51.29.080,MST_test,2024.2.0,60.0070088187324,2026-01-21 11h51.37.539482 +0530,
30,0,31,s,3.7403406000012183,None,31,0,30,190.11361169999873,,,,,,,,,,,,,,,,,,,,,,,,,,,,,,,,,,,,,,,,,,,,,,,,,,190.09763359999488,190.11361169999873,190.613829599999,190.597259999995,190.60649569999805,190.613829599999,190.613829599999,190.613829599999,194.36442579999857,Objects\014b.jpg,post,s,3.7403406000012183,None,,,,,,,,00030,001,2026-01-21_11h51.29.080,MST_test,2024.2.0,60.0070088187324,2026-01-21 11h51.37.539482 +0530,
31,0,32,n,2.4969552000038675,None,32,0,31,194.3803212999992,,,,,,,,,,,,,,,,,,,,,,,,,,,,,,,,,,,,,,,,,,,,,,,,,,194.36452139999892,194.3803212999992,194.88049269999465,194.86388439999428,194.8741235999987,194.88049269999465,194.88049269999465,194.88049269999465,197.3807447999934,Foils\090a.jpg,none,n,2.4969552000038675,None,,,,,,,,00030,001,2026-01-21_11h51.29.080,MST_test,2024.2.0,60.0070088187324,2026-01-21 11h51.37.539482 +0530,
32,0,33,n,1.6085586000044714,None,33,0,32,197.3969852999944,,,,,,,,,,,,,,,,,,,,,,,,,,,,,,,,,,,,,,,,,,,,,,,,,,197.38083319999714,197.3969852999944,197.89741689999937,197.88042059999862,197.88987229999475,197.89741689999937,197.89741689999937,197.89741689999937,199.5142124999984,Foils\scenes4.jpg,none,n,1.6085586000044714,None,,,,,,,,00030,001,2026-01-21_11h51.29.080,MST_test,2024.2.0,60.0070088187324,2026-01-21 11h51.37.539482 +0530,
33,0,34,n,2.948628300000564,None,34,0,33,199.53018929999962,,,,,,,,,,,,,,,,,,,,,,,,,,,,,,,,,,,,,,,,,,,,,,,,,,199.51430199999595,199.53018929999962,200.0304443999994,200.01389329999802,200.0237921999942,200.0304443999994,200.0304443999994,200.0304443999994,202.9806776999976,Foils\034a.jpg,none,n,2.948628300000564,None,,,,,,,,00030,001,2026-01-21_11h51.29.080,MST_test,2024.2.0,60.0070088187324,2026-01-21 11h51.37.539482 +0530,
34,0,35,n,3.99210000000312,None,35,0,34,202.99699009999313,,,,,,,,,,,,,,,,,,,,,,,,,,,,,,,,,,,,,,,,,,,,,,,,,,202.98076759999822,202.99699009999313,203.4973247999951,203.48040989999572,203.4900864999945,203.4973247999951,203.4973247999951,203.4973247999951,207.49769069999456,Foils\scenes30.jpg,none,n,3.99210000000312,None,,,,,,,,00030,001,2026-01-21_11h51.29.080,MST_test,2024.2.0,60.0070088187324,2026-01-21 11h51.37.539482 +0530,
35,0,36,o,1.1474862999966717,None,36,0,35,207.51357689999713,,,,,,,,,,,,,,,,,,,,,,,,,,,,,,,,,,,,,,,,,,,,,,,,,,207.4977829999989,207.51357689999713,208.01400250000006,207.99722389999806,208.0004789999948,208.01400250000006,208.01400250000006,208.01400250000006,209.16416449999815,Objects\024a.jpg,pre,o,1.1474862999966717,None,,,,,,,,00030,001,2026-01-21_11h51.29.080,MST_test,2024.2.0,60.0070088187324,2026-01-21 11h51.37.539482 +0530,
36,0,37,o,1.0409752999985358,None,37,0,36,209.1802619999944,,,,,,,,,,,,,,,,,,,,,,,,,,,,,,,,,,,,,,,,,,,,,,,,,,209.164254299998,209.1802619999944,209.68045059999713,209.66387179999583,209.66621759999543,209.68045059999713,209.68045059999713,209.68045059999713,210.73075009999593,Objects\017a.jpg,post,o,1.0409752999985358,None,,,,,,,,00030,001,2026-01-21_11h51.29.080,MST_test,2024.2.0,60.0070088187324,2026-01-21 11h51.37.539482 +0530,
37,0,38,n,4.258492099994328,None,38,0,37,210.74697939999896,,,,,,,,,,,,,,,,,,,,,,,,,,,,,,,,,,,,,,,,,,,,,,,,,,210.73083919999772,210.74697939999896,211.24720129999332,211.23045359999378,211.24058749999676,211.24720129999332,211.24720129999332,211.24720129999332,215.51423739999882,Foils\010a.jpg,none,n,4.258492099994328,None,,,,,,,,00030,001,2026-01-21_11h51.29.080,MST_test,2024.2.0,60.0070088187324,2026-01-21 11h51.37.539482 +0530,
38,0,39,s,1.5363558000026387,None,39,0,38,215.53040739999415,,,,,,,,,,,,,,,,,,,,,,,,,,,,,,,,,,,,,,,,,,,,,,,,,,215.51432689999638,215.53040739999415,216.0330149999936,216.0139932999955,216.03066479999688,216.0330149999936,216.0330149999936,216.0330149999936,217.58089039999322,Scenes\038b.jpg,mid,s,1.5363558000026387,None,,,,,,,,00030,001,2026-01-21_11h51.29.080,MST_test,2024.2.0,60.0070088187324,2026-01-21 11h51.37.539482 +0530,
39,0,40,s,1.3599842000039644,None,40,0,39,217.5970864999981,,,,,,,,,,,,,,,,,,,,,,,,,,,,,,,,,,,,,,,,,,,,,,,,,,217.5809783999939,217.5970864999981,218.09774800000014,218.08080809999956,218.09191439999995,218.09774800000014,218.09774800000014,218.09774800000014,219.46430109999346,Scenes\096b.jpg,pre,s,1.3599842000039644,None,,,,,,,,00030,001,2026-01-21_11h51.29.080,MST_test,2024.2.0,60.0070088187324,2026-01-21 11h51.37.539482 +0530,
40,0,41,n,4.801453000000038,None,41,0,40,219.48040419999597,,,,,,,,,,,,,,,,,,,,,,,,,,,,,,,,,,,,,,,,,,,,,,,,,,219.46439939999982,219.48040419999597,219.98466789999657,219.9640378999975,219.9824926000001,219.98466789999657,219.98466789999657,219.98466789999657,224.79757429999881,Scenes\145b.jpg,post,n,4.801453000000038,None,,,,,,,,00030,001,2026-01-21_11h51.29.080,MST_test,2024.2.0,60.0070088187324,2026-01-21 11h51.37.539482 +0530,
41,0,42,n,1.5431829000008292,None,42,0,41,224.8137518999938,,,,,,,,,,,,,,,,,,,,,,,,,,,,,,,,,,,,,,,,,,,,,,,,,,224.79767059999722,224.8137518999938,225.31418080000003,225.29731549999997,225.3067430999945,225.31418080000003,225.31418080000003,225.31418080000003,226.86444259999553,Foils\scenes19.jpg,none,n,1.5431829000008292,None,,,,,,,,00030,001,2026-01-21_11h51.29.080,MST_test,2024.2.0,60.0070088187324,2026-01-21 11h51.37.539482 +0530,
42,0,43,n,3.661390500004927,None,43,0,42,226.88034069999412,,,,,,,,,,,,,,,,,,,,,,,,,,,,,,,,,,,,,,,,,,,,,,,,,,226.8645325999969,226.88034069999412,227.38061819999712,227.36399379999784,227.3737944999957,227.38061819999712,227.38061819999712,227.38061819999712,231.0475196999978,Foils\049a.jpg,none,n,3.661390500004927,None,,,,,,,,00030,001,2026-01-21_11h51.29.080,MST_test,2024.2.0,60.0070088187324,2026-01-21 11h51.37.539482 +0530,
43,0,44,n,4.7660911999992095,None,44,0,43,231.0637499999939,,,,,,,,,,,,,,,,,,,,,,,,,,,,,,,,,,,,,,,,,,,,,,,,,,231.04760719999467,231.0637499999939,231.56405660000019,231.54727149999962,231.5590288999956,231.56405660000019,231.56405660000019,231.56405660000019,236.33100709999417,Foils\101b.jpg,none,n,4.7660911999992095,None,,,,,,,,00030,001,2026-01-21_11h51.29.080,MST_test,2024.2.0,60.0070088187324,2026-01-21 11h51.37.539482 +0530,
44,0,45,s,2.4023689000023296,None,45,0,44,236.34735869999713,,,,,,,,,,,,,,,,,,,,,,,,,,,,,,,,,,,,,,,,,,,,,,,,,,236.3311115999968,236.34735869999713,236.8476393999954,236.8306620999938,236.84060619999946,236.8476393999954,236.8476393999954,236.8476393999954,239.26427529999637,Scenes\161a.jpg,post,s,2.4023689000023296,None,,,,,,,,00030,001,2026-01-21_11h51.29.080,MST_test,2024.2.0,60.0070088187324,2026-01-21 11h51.37.539482 +0530,
45,0,46,s,1.9328086000023177,None,46,0,45,239.28040359999432,,,,,,,,,,,,,,,,,,,,,,,,,,,,,,,,,,,,,,,,,,,,,,,,,,239.2643637999936,239.28040359999432,239.78103499999997,239.76400959999592,239.77391910000006,239.78103499999997,239.78103499999997,239.78103499999997,241.7145074999935,Objects\042b.jpg,post,s,1.9328086000023177,None,,,,,,,,00030,001,2026-01-21_11h51.29.080,MST_test,2024.2.0,60.0070088187324,2026-01-21 11h51.37.539482 +0530,
46,0,47,o,2.3314620000019204,None,47,0,46,241.73032729999977,,,,,,,,,,,,,,,,,,,,,,,,,,,,,,,,,,,,,,,,,,,,,,,,,,241.71459820000018,241.73032729999977,242.2305983999977,242.21401079999487,242.21655979999923,242.2305983999977,242.2305983999977,242.2305983999977,244.56542959999933,Objects\069a.jpg,pre,o,2.3314620000019204,None,,,,,,,,00030,001,2026-01-21_11h51.29.080,MST_test,2024.2.0,60.0070088187324,2026-01-21 11h51.37.539482 +0530,
47,0,48,o,1.1054437999991933,None,48,0,47,244.58030799999688,,,,,,,,,,,,,,,,,,,,,,,,,,,,,,,,,,,,,,,,,,,,,,,,,,244.5655259999985,244.58030799999688,245.08061889999954,245.06551329999638,245.06816629999958,245.08061889999954,245.08061889999954,245.08061889999954,246.19756179999968,Objects\008a.jpg,post,o,1.1054437999991933,None,,,,,,,,00030,001,2026-01-21_11h51.29.080,MST_test,2024.2.0,60.0070088187324,2026-01-21 11h51.37.539482 +0530,
48,0,49,n,3.40736929999548,None,49,0,48,246.21372969999356,,,,,,,,,,,,,,,,,,,,,,,,,,,,,,,,,,,,,,,,,,,,,,,,,,246.19765009999537,246.21372969999356,246.71398619999673,246.6973130999977,246.7067551999935,246.71398619999673,246.71398619999673,246.71398619999673,250.1308740999957,Foils\017a.jpg,none,n,3.40736929999548,None,,,,,,,,00030,001,2026-01-21_11h51.29.080,MST_test,2024.2.0,60.0070088187324,2026-01-21 11h51.37.539482 +0530,
49,0,50,o,1.1227331000045524,None,50,0,49,250.14707399999315,,,,,,,,,,,,,,,,,,,,,,,,,,,,,,,,,,,,,,,,,,,,,,,,,,250.13096839999344,250.14707399999315,250.64732199999708,250.630631299995,250.64009839999926,250.64732199999708,250.64732199999708,250.64732199999708,251.78094179999607,Objects\085b.jpg,post,o,1.1227331000045524,None,,,,,,,,00030,001,2026-01-21_11h51.29.080,MST_test,2024.2.0,60.0070088187324,2026-01-21 11h51.37.539482 +0530,
50,0,51,o,1.9918628000013996,None,51,0,50,251.79704269999638,,,,,,,,,,,,,,,,,,,,,,,,,,,,,,,,,,,,,,,,,,,,,,,,,,251.7810321999932,251.79704269999638,252.29748349999863,252.28061539999908,252.2847602999973,252.29748349999863,252.29748349999863,252.29748349999863,254.29763769999408,Scenes\016a.jpg,post,o,1.9918628000013996,None,,,,,,,,00030,001,2026-01-21_11h51.29.080,MST_test,2024.2.0,60.0070088187324,2026-01-21 11h51.37.539482 +0530,
51,0,52,n,6.331422000002931,None,52,0,51,254.31373809999786,,,,,,,,,,,,,,,,,,,,,,,,,,,,,,,,,,,,,,,,,,,,,,,,,,254.29773249999562,254.31373809999786,254.81423229999928,254.79731509999692,254.803405199993,254.81423229999928,254.81423229999928,254.81423229999928,261.148051199998,Scenes\147a.jpg,mid,n,6.331422000002931,None,,,,,,,,00030,001,2026-01-21_11h51.29.080,MST_test,2024.2.0,60.0070088187324,2026-01-21 11h51.37.539482 +0530,
52,0,53,o,1.4333790999953635,None,53,0,52,261.1637142999971,,,,,,,,,,,,,,,,,,,,,,,,,,,,,,,,,,,,,,,,,,,,,,,,,,261.1481433999943,261.1637142999971,261.6642140999975,261.64727689999563,261.6575253999981,261.6642140999975,261.6642140999975,261.6642140999975,263.1142570999946,Objects\063b.jpg,pre,o,1.4333790999953635,None,,,,,,,,00030,001,2026-01-21_11h51.29.080,MST_test,2024.2.0,60.0070088187324,2026-01-21 11h51.37.539482 +0530,
53,0,54,n,4.051553099998273,None,54,0,53,263.1303781999959,,,,,,,,,,,,,,,,,,,,,,,,,,,,,,,,,,,,,,,,,,,,,,,,,,263.1143491999974,263.1303781999959,263.6306445999944,263.6141207999972,263.6236718999935,263.6306445999944,263.6306445999944,263.6306445999944,267.6975730999984,Objects\009b.jpg,post,n,4.051553099998273,None,,,,,,,,00030,001,2026-01-21_11h51.29.080,MST_test,2024.2.0,60.0070088187324,2026-01-21 11h51.37.539482 +0530,
54,0,55,o,1.3074775999994017,None,55,0,54,267.7137286999932,,,,,,,,,,,,,,,,,,,,,,,,,,,,,,,,,,,,,,,,,,,,,,,,,,267.6976635999963,267.7137286999932,268.21395919999486,268.19732429999567,268.20011889999296,268.21395919999486,268.21395919999486,268.21395919999486,269.5309416999953,Objects\148a.jpg,mid,o,1.3074775999994017,None,,,,,,,,00030,001,2026-01-21_11h51.29.080,MST_test,2024.2.0,60.0070088187324,2026-01-21 11h51.37.539482 +0530,
55,0,56,o,3.4425601000039023,None,56,0,55,269.54707189999317,,,,,,,,,,,,,,,,,,,,,,,,,,,,,,,,,,,,,,,,,,,,,,,,,,269.53103559999727,269.54707189999317,270.0473062999954,270.03062519999366,270.0400696999932,270.0473062999954,270.0473062999954,270.0473062999954,273.49749949999386,Objects\071b.jpg,post,o,3.4425601000039023,None,,,,,,,,00030,001,2026-01-21_11h51.29.080,MST_test,2024.2.0,60.0070088187324,2026-01-21 11h51.37.539482 +0530,
56,0,57,s,2.859708399999363,None,57,0,56,273.513618399993,,,,,,,,,,,,,,,,,,,,,,,,,,,,,,,,,,,,,,,,,,,,,,,,,,273.49758839999413,273.513618399993,274.0138741999981,273.9972179999968,274.0073135999992,274.0138741999981,274.0138741999981,274.0138741999981,276.8808054999972,Foils\105a.jpg,none,s,2.859708399999363,None,,,,,,,,00030,001,2026-01-21_11h51.29.080,MST_test,2024.2.0,60.0070088187324,2026-01-21 11h51.37.539482 +0530,
57,0,58,s,6.923884399999224,None,58,0,57,276.89688059999753,,,,,,,,,,,,,,,,,,,,,,,,,,,,,,,,,,,,,,,,,,,,,,,,,,276.8808990999969,276.89688059999753,277.3981011999931,277.3804297999959,277.3957589999991,277.3981011999931,277.3981011999931,277.3981011999931,284.3306420999943,Scenes\042b.jpg,pre,s,6.923884399999224,None,,,,,,,,00030,001,2026-01-21_11h51.29.080,MST_test,2024.2.0,60.0070088187324,2026-01-21 11h51.37.539482 +0530,
58,0,59,s,3.838801899997634,None,59,0,58,284.3469810999959,,,,,,,,,,,,,,,,,,,,,,,,,,,,,,,,,,,,,,,,,,,,,,,,,,284.3307335999998,284.3469810999959,284.85108639999817,284.8304083999974,284.8488564999934,284.85108639999817,284.85108639999817,284.85108639999817,288.6974203999998,Scenes\066b.jpg,mid,s,3.838801899997634,None,,,,,,,,00030,001,2026-01-21_11h51.29.080,MST_test,2024.2.0,60.0070088187324,2026-01-21 11h51.37.539482 +0530,
59,0,60,s,1.9952362999974866,None,60,0,59,288.71361289999913,,,,,,,,,,,,,,,,,,,,,,,,,,,,,,,,,,,,,,,,,,,,,,,,,,288.6975112,288.71361289999913,289.21447009999974,289.1971302999955,289.2104210999969,289.21447009999974,289.21447009999974,289.21447009999974,291.2142553999947,Scenes\144b.jpg,post,s,1.9952362999974866,None,,,,,,,,00030,001,2026-01-21_11h51.29.080,MST_test,2024.2.0,60.0070088187324,2026-01-21 11h51.37.539482 +0530,
60,0,61,n,2.9911981000041123,None,61,0,60,291.2302165000001,,,,,,,,,,,,,,,,,,,,,,,,,,,,,,,,,,,,,,,,,,,,,,,,,,291.2143475999983,291.2302165000001,291.73069979999855,291.71389509999426,291.7257710999984,291.73069979999855,291.73069979999855,291.73069979999855,294.73076059999585,Foils\058a.jpg,none,n,2.9911981000041123,None,,,,,,,,00030,001,2026-01-21_11h51.29.080,MST_test,2024.2.0,60.0070088187324,2026-01-21 11h51.37.539482 +0530,
61,0,62,n,4.250178700000106,None,62,0,61,294.74693449999904,,,,,,,,,,,,,,,,,,,,,,,,,,,,,,,,,,,,,,,,,,,,,,,,,,294.73086159999366,294.74693449999904,295.2471525000001,295.230429999996,295.2328520999945,295.2471525000001,295.2471525000001,295.2471525000001,299.51413879999745,Objects\171a.jpg,post,n,4.250178700000106,None,,,,,,,,00030,001,2026-01-21_11h51.29.080,MST_test,2024.2.0,60.0070088187324,2026-01-21 11h51.37.539482 +0530,
62,0,63,s,4.035174800003006,None,63,0,62,299.5301124999969,,,,,,,,,,,,,,,,,,,,,,,,,,,,,,,,,,,,,,,,,,,,,,,,,,299.5142414000002,299.5301124999969,300.030308399997,300.0138544999936,300.0226946999974,300.030308399997,300.030308399997,300.030308399997,304.0808747999981,Objects\137b.jpg,mid,s,4.035174800003006,None,,,,,,,,00030,001,2026-01-21_11h51.29.080,MST_test,2024.2.0,60.0070088187324,2026-01-21 11h51.37.539482 +0530,
63,0,64,s,1.8682415000002948,None,64,0,63,304.09692459999496,,,,,,,,,,,,,,,,,,,,,,,,,,,,,,,,,,,,,,,,,,,,,,,,,,304.08096799999475,304.09692459999496,304.59739199999603,304.5805307999981,304.59067559999676,304.59739199999603,304.59739199999603,304.59739199999603,306.4807900999949,Scenes\097b.jpg,pre,s,1.8682415000002948,None,,,,,,,,00030,001,2026-01-21_11h51.29.080,MST_test,2024.2.0,60.0070088187324,2026-01-21 11h51.37.539482 +0530,
64,0,65,s,5.132386600002064,None,65,0,64,306.49687099999574,,,,,,,,,,,,,,,,,,,,,,,,,,,,,,,,,,,,,,,,,,,,,,,,,,306.48088079999434,306.49687099999574,306.99734989999706,306.9804618999988,306.98801829999866,306.99734989999706,306.99734989999706,306.99734989999706,312.13066499999695,Scenes\077a.jpg,mid,s,5.132386600002064,None,,,,,,,,00030,001,2026-01-21_11h51.29.080,MST_test,2024.2.0,60.0070088187324,2026-01-21 11h51.37.539482 +0530,
65,0,66,o,2.0427020999995875,None,66,0,65,312.14688549999846,,,,,,,,,,,,,,,,,,,,,,,,,,,,,,,,,,,,,,,,,,,,,,,,,,312.1307648000002,312.14688549999846,312.64745409999887,312.63044079999963,312.6380308999942,312.64745409999887,312.64745409999887,312.64745409999887,314.6975216999999,Scenes\177a.jpg,pre,o,2.0427020999995875,None,,,,,,,,00030,001,2026-01-21_11h51.29.080,MST_test,2024.2.0,60.0070088187324,2026-01-21 11h51.37.539482 +0530,
66,0,67,o,1.2366220999974757,None,67,0,66,314.71361229999457,,,,,,,,,,,,,,,,,,,,,,,,,,,,,,,,,,,,,,,,,,,,,,,,,,314.6976122999986,314.71361229999457,315.214018199993,315.19718749999447,315.20759859999816,315.214018199993,315.214018199993,315.214018199993,316.46409049999784,Foils\066a.jpg,none,o,1.2366220999974757,None,,,,,,,,00030,001,2026-01-21_11h51.29.080,MST_test,2024.2.0,60.0070088187324,2026-01-21 11h51.37.539482 +0530,
67,0,68,o,0.9253398000000743,None,68,0,67,316.480215699994,,,,,,,,,,,,,,,,,,,,,,,,,,,,,,,,,,,,,,,,,,,,,,,,,,316.4641788999943,316.480215699994,316.9807093999989,316.9638979999945,316.97046189999674,316.9807093999989,316.9807093999989,316.9807093999989,317.9142206999968,Scenes\186a.jpg,mid,o,0.9253398000000743,None,,,,,,,,00030,001,2026-01-21_11h51.29.080,MST_test,2024.2.0,60.0070088187324,2026-01-21 11h51.37.539482 +0530,
68,0,69,s,2.011241699998209,None,69,0,68,317.93011759999354,,,,,,,,,,,,,,,,,,,,,,,,,,,,,,,,,,,,,,,,,,,,,,,,,,317.9143103999959,317.93011759999354,318.4307164999991,318.4138380999939,318.4237185999955,318.4307164999991,318.4307164999991,318.4307164999991,320.4474117999998,Objects\117b.jpg,pre,s,2.011241699998209,None,,,,,,,,00030,001,2026-01-21_11h51.29.080,MST_test,2024.2.0,60.0070088187324,2026-01-21 11h51.37.539482 +0530,
69,0,70,s,13.933954599997378,None,70,0,69,320.46362119999685,,,,,,,,,,,,,,,,,,,,,,,,,,,,,,,,,,,,,,,,,,,,,,,,,,320.4474992999967,320.46362119999685,320.9637967999952,320.9472158999997,320.9563924999966,320.9637967999952,320.9637967999952,320.9637967999952,334.9142312999975,Objects\010b.jpg,post,s,13.933954599997378,None,,,,,,,,00030,001,2026-01-21_11h51.29.080,MST_test,2024.2.0,60.0070088187324,2026-01-21 11h51.37.539482 +0530,
70,0,71,o,1.002688799999305,None,71,0,70,334.93036729999585,,,,,,,,,,,,,,,,,,,,,,,,,,,,,,,,,,,,,,,,,,,,,,,,,,334.91432159999385,334.93036729999585,335.43060539999715,335.41418369999883,335.4171150999973,335.43060539999715,335.43060539999715,335.43060539999715,336.4475991999934,Objects\170a.jpg,mid,o,1.002688799999305,None,,,,,,,,00030,001,2026-01-21_11h51.29.080,MST_test,2024.2.0,60.0070088187324,2026-01-21 11h51.37.539482 +0530,
71,0,72,s,2.4940675999969244,None,72,0,71,336.46371409999847,,,,,,,,,,,,,,,,,,,,,,,,,,,,,,,,,,,,,,,,,,,,,,,,,,336.447686099993,336.46371409999847,336.9639507999964,336.9472037999949,336.9562542999993,336.9639507999964,336.9639507999964,336.9639507999964,339.46462609999435,Objects\091b.jpg,mid,s,2.4940675999969244,None,,,,,,,,00030,001,2026-01-21_11h51.29.080,MST_test,2024.2.0,60.0070088187324,2026-01-21 11h51.37.539482 +0530,
72,0,73,s,6.250489499994728,None,73,0,72,339.4805952999959,,,,,,,,,,,,,,,,,,,,,,,,,,,,,,,,,,,,,,,,,,,,,,,,,,339.4647199999963,339.4805952999959,339.98288239999965,339.96395339999435,339.980564599995,339.98288239999965,339.98288239999965,339.98288239999965,346.247612399995,Scenes\149b.jpg,mid,s,6.250489499994728,None,,,,,,,,00030,001,2026-01-21_11h51.29.080,MST_test,2024.2.0,60.0070088187324,2026-01-21 11h51.37.539482 +0530,
73,0,74,o,1.2619264000022667,None,74,0,73,346.2636272999953,,,,,,,,,,,,,,,,,,,,,,,,,,,,,,,,,,,,,,,,,,,,,,,,,,346.24770149999677,346.2636272999953,346.7640422999975,346.7472603999995,346.75691789999837,346.7640422999975,346.7640422999975,346.7640422999975,348.03105319999304,Scenes\062a.jpg,pre,o,1.2619264000022667,None,,,,,,,,00030,001,2026-01-21_11h51.29.080,MST_test,2024.2.0,60.0070088187324,2026-01-21 11h51.37.539482 +0530,
74,0,75,n,2.0462480999995023,None,75,0,74,348.0470104999986,,,,,,,,,,,,,,,,,,,,,,,,,,,,,,,,,,,,,,,,,,,,,,,,,,348.03114219999406,348.0470104999986,348.54749589999847,348.5306302999961,348.5399790999945,348.54749589999847,348.54749589999847,348.54749589999847,350.59776349999447,Foils\scenes12.jpg,none,n,2.0462480999995023,None,,,,,,,,00030,001,2026-01-21_11h51.29.080,MST_test,2024.2.0,60.0070088187324,2026-01-21 11h51.37.539482 +0530,
75,0,76,s,2.136589500005357,None,76,0,75,350.6137199999939,,,,,,,,,,,,,,,,,,,,,,,,,,,,,,,,,,,,,,,,,,,,,,,,,,350.59785239999474,350.6137199999939,351.1139803999977,351.097322499998,351.1075631999993,351.1139803999977,351.1139803999977,351.1139803999977,353.2641502999977,Objects\127b.jpg,mid,s,2.136589500005357,None,,,,,,,,00030,001,2026-01-21_11h51.29.080,MST_test,2024.2.0,60.0070088187324,2026-01-21 11h51.37.539482 +0530,
76,0,77,o,1.029447100001562,None,77,0,76,353.28034269999625,,,,,,,,,,,,,,,,,,,,,,,,,,,,,,,,,,,,,,,,,,,,,,,,,,353.26423899999645,353.28034269999625,353.7805756999951,353.76396569999633,353.76643969999714,353.7805756999951,353.7805756999951,353.7805756999951,354.8143146999937,Objects\043a.jpg,pre,o,1.029447100001562,None,,,,,,,,00030,001,2026-01-21_11h51.29.080,MST_test,2024.2.0,60.0070088187324,2026-01-21 11h51.37.539482 +0530,
77,0,78,o,0.8708864000000176,None,78,0,77,354.8302377,,,,,,,,,,,,,,,,,,,,,,,,,,,,,,,,,,,,,,,,,,,,,,,,,,354.81440639999346,354.8302377,355.3305721999932,355.31393769999704,355.31649409999955,355.3305721999932,355.3305721999932,355.3305721999932,356.2141849999971,Objects\105a.jpg,pre,o,0.8708864000000176,None,,,,,,,,00030,001,2026-01-21_11h51.29.080,MST_test,2024.2.0,60.0070088187324,2026-01-21 11h51.37.539482 +0530,
78,0,79,o,1.4239560999994865,None,79,0,78,356.230349999998,,,,,,,,,,,,,,,,,,,,,,,,,,,,,,,,,,,,,,,,,,,,,,,,,,356.2142740999989,356.230349999998,356.73059329999523,356.7139154999968,356.7251554999966,356.73059329999523,356.73059329999523,356.73059329999523,358.16415699999925,Objects\097b.jpg,pre,o,1.4239560999994865,None,,,,,,,,00030,001,2026-01-21_11h51.29.080,MST_test,2024.2.0,60.0070088187324,2026-01-21 11h51.37.539482 +0530,
79,0,80,o,1.0485247999968124,None,80,0,79,358.1803484999982,,,,,,,,,,,,,,,,,,,,,,,,,,,,,,,,,,,,,,,,,,,,,,,,,,358.16424639999605,358.1803484999982,358.6809249999933,358.66389389999676,358.6759790999931,358.6809249999933,358.6809249999933,358.6809249999933,359.73102389999985,Scenes\011a.jpg,post,o,1.0485247999968124,None,,,,,,,,00030,001,2026-01-21_11h51.29.080,MST_test,2024.2.0,60.0070088187324,2026-01-21 11h51.37.539482 +0530,
80,0,81,n,4.203137599994079,None,81,0,80,359.746997299997,,,,,,,,,,,,,,,,,,,,,,,,,,,,,,,,,,,,,,,,,,,,,,,,,,359.7311150999958,359.746997299997,360.24765909999405,360.2306068999969,360.2398095999961,360.24765909999405,360.24765909999405,360.24765909999405,364.4642329999988,Scenes\068a.jpg,post,n,4.203137599994079,None,,,,,,,,00030,001,2026-01-21_11h51.29.080,MST_test,2024.2.0,60.0070088187324,2026-01-21 11h51.37.539482 +0530,
81,0,82,s,1.4450434999962454,None,82,0,81,364.4803608000002,,,,,,,,,,,,,,,,,,,,,,,,,,,,,,,,,,,,,,,,,,,,,,,,,,364.46432219999406,364.4803608000002,364.9808489999996,364.96398559999943,364.97597439999663,364.9808489999996,364.9808489999996,364.9808489999996,366.4309520999959,Objects\072b.jpg,post,s,1.4450434999962454,None,,,,,,,,00030,001,2026-01-21_11h51.29.080,MST_test,2024.2.0,60.0070088187324,2026-01-21 11h51.37.539482 +0530,
82,0,83,n,4.060680399998091,None,83,0,82,366.4469977999979,,,,,,,,,,,,,,,,,,,,,,,,,,,,,,,,,,,,,,,,,,,,,,,,,,366.43104189999576,366.4469977999979,366.94908799999394,366.9305924999935,366.94668909999746,366.94908799999394,366.94908799999394,366.94908799999394,371.0143098999979,Scenes\100b.jpg,mid,n,4.060680399998091,None,,,,,,,,00030,001,2026-01-21_11h51.29.080,MST_test,2024.2.0,60.0070088187324,2026-01-21 11h51.37.539482 +0530,
83,0,84,n,2.958465100004105,None,84,0,83,371.03054549999797,,,,,,,,,,,,,,,,,,,,,,,,,,,,,,,,,,,,,,,,,,,,,,,,,,371.01440029999503,371.03054549999797,371.53084469999885,371.51394629999413,371.5173144999935,371.53084469999885,371.53084469999885,371.53084469999885,374.4975682999939,Objects\037a.jpg,post,n,2.958465100004105,None,,,,,,,,00030,001,2026-01-21_11h51.29.080,MST_test,2024.2.0,60.0070088187324,2026-01-21 11h51.37.539482 +0530,
84,0,85,n,2.0034267000010004,None,85,0,84,374.51379579999775,,,,,,,,,,,,,,,,,,,,,,,,,,,,,,,,,,,,,,,,,,,,,,,,,,374.49765679999837,374.51379579999775,375.0140855999998,374.99724749999586,375.0116696999976,375.0140855999998,375.0140855999998,375.0140855999998,377.0308620999931,Scenes\157b.jpg,pre,n,2.0034267000010004,None,,,,,,,,00030,001,2026-01-21_11h51.29.080,MST_test,2024.2.0,60.0070088187324,2026-01-21 11h51.37.539482 +0530,
85,0,86,s,8.31784680000419,None,86,0,85,377.04701809999824,,,,,,,,,,,,,,,,,,,,,,,,,,,,,,,,,,,,,,,,,,,,,,,,,,377.030949299995,377.04701809999824,377.5475415999972,377.5305969999972,377.5390178999951,377.5475415999972,377.5475415999972,377.5475415999972,385.8808996999942,Scenes\131a.jpg,pre,s,8.31784680000419,None,,,,,,,,00030,001,2026-01-21_11h51.29.080,MST_test,2024.2.0,60.0070088187324,2026-01-21 11h51.37.539482 +0530,
86,0,87,o,2.083788199997798,None,87,0,86,385.89703649999865,,,,,,,,,,,,,,,,,,,,,,,,,,,,,,,,,,,,,,,,,,,,,,,,,,385.88098779999564,385.89703649999865,386.39749919999304,386.3806371999963,386.39028029999463,386.39749919999304,386.39749919999304,386.39749919999304,388.4975909999994,Scenes\070a.jpg,post,o,2.083788199997798,None,,,,,,,,00030,001,2026-01-21_11h51.29.080,MST_test,2024.2.0,60.0070088187324,2026-01-21 11h51.37.539482 +0530,
87,0,88,s,2.243014799998491,None,88,0,87,388.5136190999983,,,,,,,,,,,,,,,,,,,,,,,,,,,,,,,,,,,,,,,,,,,,,,,,,,388.49767819999397,388.5136190999983,389.01436999999714,388.99730469999486,389.01097659999505,389.01436999999714,389.01436999999714,389.01436999999714,391.26416049999534,Scenes\098b.jpg,pre,s,2.243014799998491,None,,,,,,,,00030,001,2026-01-21_11h51.29.080,MST_test,2024.2.0,60.0070088187324,2026-01-21 11h51.37.539482 +0530,
88,0,89,n,1.8613267000037013,None,89,0,88,391.28031389999524,,,,,,,,,,,,,,,,,,,,,,,,,,,,,,,,,,,,,,,,,,,,,,,,,,391.26425039999594,391.28031389999524,391.780711899999,391.7638458999936,391.77867649999826,391.780711899999,391.780711899999,391.780711899999,393.64757239999744,Scenes\182b.jpg,mid,n,1.8613267000037013,None,,,,,,,,00030,001,2026-01-21_11h51.29.080,MST_test,2024.2.0,60.0070088187324,2026-01-21 11h51.37.539482 +0530,
89,0,90,o,1.1252250999968965,None,90,0,89,393.6635779999997,,,,,,,,,,,,,,,,,,,,,,,,,,,,,,,,,,,,,,,,,,,,,,,,,,393.6476599999951,393.6635779999997,394.16415979999874,394.1471745999952,394.1610245999982,394.16415979999874,394.16415979999874,394.16415979999874,395.2974862999981,Scenes\049b.jpg,post,o,1.1252250999968965,None,,,,,,,,00030,001,2026-01-21_11h51.29.080,MST_test,2024.2.0,60.0070088187324,2026-01-21 11h51.37.539482 +0530,
90,0,91,o,1.227873499999987,None,91,0,90,395.31354469999496,,,,,,,,,,,,,,,,,,,,,,,,,,,,,,,,,,,,,,,,,,,,,,,,,,395.2975781999994,395.31354469999496,395.8140069000001,395.79718489999505,395.8005204000001,395.8140069000001,395.8140069000001,395.8140069000001,397.0474185999992,Objects\168a.jpg,pre,o,1.227873499999987,None,,,,,,,,00030,001,2026-01-21_11h51.29.080,MST_test,2024.2.0,60.0070088187324,2026-01-21 11h51.37.539482 +0530,
91,0,92,s,1.629340699997556,None,92,0,91,397.06359019999945,,,,,,,,,,,,,,,,,,,,,,,,,,,,,,,,,,,,,,,,,,,,,,,,,,397.0475080999968,397.06359019999945,397.56403899999714,397.54714959999546,397.55836669999553,397.56403899999714,397.56403899999714,397.56403899999714,399.1975162999952,Scenes\008b.jpg,post,s,1.629340699997556,None,,,,,,,,00030,001,2026-01-21_11h51.29.080,MST_test,2024.2.0,60.0070088187324,2026-01-21 11h51.37.539482 +0530,
92,0,93,o,1.2322868000046583,None,93,0,92,399.2135252999942,,,,,,,,,,,,,,,,,,,,,,,,,,,,,,,,,,,,,,,,,,,,,,,,,,399.1976055999985,399.2135252999942,399.7139909999969,399.6971357000002,399.69976399999723,399.7139909999969,399.7139909999969,399.7139909999969,400.9475062999991,Objects\185a.jpg,mid,o,1.2322868000046583,None,,,,,,,,00030,001,2026-01-21_11h51.29.080,MST_test,2024.2.0,60.0070088187324,2026-01-21 11h51.37.539482 +0530,
93,0,94,n,1.545602099999087,None,94,0,93,400.9635668999981,,,,,,,,,,,,,,,,,,,,,,,,,,,,,,,,,,,,,,,,,,,,,,,,,,400.94759409999824,400.9635668999981,401.4638024999949,401.44713839999895,401.4570778999987,401.4638024999949,401.4638024999949,401.4638024999949,403.01407249999465,Foils\081a.jpg,none,n,1.545602099999087,None,,,,,,,,00030,001,2026-01-21_11h51.29.080,MST_test,2024.2.0,60.0070088187324,2026-01-21 11h51.37.539482 +0530,
94,0,95,n,1.1826960999969742,None,95,0,94,403.0301385999992,,,,,,,,,,,,,,,,,,,,,,,,,,,,,,,,,,,,,,,,,,,,,,,,,,403.0141589999985,403.0301385999992,403.53149349999876,403.51375359999656,403.52925369999866,403.53149349999876,403.53149349999876,403.53149349999876,404.7306501999992,Scenes\073b.jpg,post,n,1.1826960999969742,None,,,,,,,,00030,001,2026-01-21_11h51.29.080,MST_test,2024.2.0,60.0070088187324,2026-01-21 11h51.37.539482 +0530,
95,0,96,n,0.8899983000010252,None,96,0,95,404.74690649999684,,,,,,,,,,,,,,,,,,,,,,,,,,,,,,,,,,,,,,,,,,,,,,,,,,404.73073839999415,404.74690649999684,405.2473769999997,405.23031409999385,405.2403131999963,405.2473769999997,405.2473769999997,405.2473769999997,406.14748249999684,Foils\106a.jpg,none,n,0.8899983000010252,None,,,,,,,,00030,001,2026-01-21_11h51.29.080,MST_test,2024.2.0,60.0070088187324,2026-01-21 11h51.37.539482 +0530,
96,0,97,s,1.4978234000009252,None,97,0,96,406.1635122999942,,,,,,,,,,,,,,,,,,,,,,,,,,,,,,,,,,,,,,,,,,,,,,,,,,406.1475752999977,406.1635122999942,406.66380729999946,406.64714809999714,406.6567073999977,406.66380729999946,406.66380729999946,406.66380729999946,408.16420029999426,Objects\055b.jpg,pre,s,1.4978234000009252,None,,,,,,,,00030,001,2026-01-21_11h51.29.080,MST_test,2024.2.0,60.0070088187324,2026-01-21 11h51.37.539482 +0530,
97,0,98,s,5.208970800005773,None,98,0,97,408.18017309999414,,,,,,,,,,,,,,,,,,,,,,,,,,,,,,,,,,,,,,,,,,,,,,,,,,408.1642861999935,408.18017309999414,408.68044689999806,408.66384149999794,408.67317999999796,408.68044689999806,408.68044689999806,408.68044689999806,413.8975544999994,Objects\151b.jpg,mid,s,5.208970800005773,None,,,,,,,,00030,001,2026-01-21_11h51.29.080,MST_test,2024.2.0,60.0070088187324,2026-01-21 11h51.37.539482 +0530,
98,0,99,o,1.0602205999966827,None,99,0,98,413.9136268000002,,,,,,,,,,,,,,,,,,,,,,,,,,,,,,,,,,,,,,,,,,,,,,,,,,413.8976498999982,413.9136268000002,414.41378519999853,414.39713949999714,414.4000687999942,414.41378519999853,414.41378519999853,414.41378519999853,415.4807024999973,Objects\033a.jpg,mid,o,1.0602205999966827,None,,,,,,,,00030,001,2026-01-21_11h51.29.080,MST_test,2024.2.0,60.0070088187324,2026-01-21 11h51.37.539482 +0530,
99,0,100,n,1.7809455000024172,None,100,0,99,415.49696749999566,,,,,,,,,,,,,,,,,,,,,,,,,,,,,,,,,,,,,,,,,,,,,,,,,,415.48079139999754,415.49696749999566,415.9970816999994,415.9803269999975,415.9897529999944,415.9970816999994,415.9970816999994,415.9970816999994,417.7806005999955,Foils\121a.jpg,none,n,1.7809455000024172,None,,,,,,,,00030,001,2026-01-21_11h51.29.080,MST_test,2024.2.0,60.0070088187324,2026-01-21 11h51.37.539482 +0530,
100,0,101,o,1.1843664000043646,None,101,0,100,417.79689319999306,,,,,,,,,,,,,,,,,,,,,,,,,,,,,,,,,,,,,,,,,,,,,,,,,,417.78069479999976,417.79689319999306,418.29736769999727,418.2803206999961,418.28919369999494,418.29736769999727,418.29736769999727,418.29736769999727,419.4973807999995,Scenes\071a.jpg,pre,o,1.1843664000043646,None,,,,,,,,00030,001,2026-01-21_11h51.29.080,MST_test,2024.2.0,60.0070088187324,2026-01-21 11h51.37.539482 +0530,
101,0,102,n,1.5470984999992652,None,102,0,101,419.5135706999936,,,,,,,,,,,,,,,,,,,,,,,,,,,,,,,,,,,,,,,,,,,,,,,,,,419.497469599999,419.5135706999936,420.01500829999713,419.9970650999967,420.01266359999863,420.01500829999713,420.01500829999713,420.01500829999713,421.5643226999964,Scenes\181b.jpg,mid,n,1.5470984999992652,None,,,,,,,,00030,001,2026-01-21_11h51.29.080,MST_test,2024.2.0,60.0070088187324,2026-01-21 11h51.37.539482 +0530,
102,0,103,o,1.1364634000055958,None,103,0,102,421.5801316999932,,,,,,,,,,,,,,,,,,,,,,,,,,,,,,,,,,,,,,,,,,,,,,,,,,421.56441389999964,421.5801316999932,422.08088609999686,422.06379309999465,422.07644009999785,422.08088609999686,422.08088609999686,422.08088609999686,423.23072899999534,Scenes\088a.jpg,mid,o,1.1364634000055958,None,,,,,,,,00030,001,2026-01-21_11h51.29.080,MST_test,2024.2.0,60.0070088187324,2026-01-21 11h51.37.539482 +0530,
103,0,104,s,2.1828676000004634,None,104,0,103,423.2469060999938,,,,,,,,,,,,,,,,,,,,,,,,,,,,,,,,,,,,,,,,,,,,,,,,,,423.23081850000017,423.2469060999938,423.74746759999834,423.7303847999938,423.7447628999944,423.74746759999834,423.74746759999834,423.74746759999834,425.93114679999417,Scenes\075b.jpg,post,s,2.1828676000004634,None,,,,,,,,00030,001,2026-01-21_11h51.29.080,MST_test,2024.2.0,60.0070088187324,2026-01-21 11h51.37.539482 +0530,
104,0,105,o,2.7227532000033534,None,105,0,104,425.9469026999941,,,,,,,,,,,,,,,,,,,,,,,,,,,,,,,,,,,,,,,,,,,,,,,,,,425.9312384999939,425.9469026999941,426.4473866999979,426.4307992999966,426.4336944999959,426.4473866999979,426.4473866999979,426.4473866999979,429.1805824999974,Objects\019a.jpg,mid,o,2.7227532000033534,None,,,,,,,,00030,001,2026-01-21_11h51.29.080,MST_test,2024.2.0,60.0070088187324,2026-01-21 11h51.37.539482 +0530,
105,0,106,o,0.7450151000011829,None,106,0,105,429.19687029999477,,,,,,,,,,,,,,,,,,,,,,,,,,,,,,,,,,,,,,,,,,,,,,,,,,429.1806695999985,429.19687029999477,429.69714139999996,429.680334699995,429.682819499998,429.69714139999996,429.69714139999996,429.69714139999996,430.4474582999974,Objects\135a.jpg,pre,o,0.7450151000011829,None,,,,,,,,00030,001,2026-01-21_11h51.29.080,MST_test,2024.2.0,60.0070088187324,2026-01-21 11h51.37.539482 +0530,
106,0,107,o,1.0140796999985469,None,107,0,106,430.46353649999946,,,,,,,,,,,,,,,,,,,,,,,,,,,,,,,,,,,,,,,,,,,,,,,,,,430.4475475999934,430.46353649999946,430.9638500999936,430.94718449999345,430.9571266999992,430.9638500999936,430.9638500999936,430.9638500999936,431.980650599995,Objects\190b.jpg,post,o,1.0140796999985469,None,,,,,,,,00030,001,2026-01-21_11h51.29.080,MST_test,2024.2.0,60.0070088187324,2026-01-21 11h51.37.539482 +0530,
107,0,108,n,1.8609090000027209,None,108,0,107,431.99693999999727,,,,,,,,,,,,,,,,,,,,,,,,,,,,,,,,,,,,,,,,,,,,,,,,,,431.98073759999534,431.99693999999727,432.50046440000006,432.4802595999936,432.4985177999988,432.50046440000006,432.50046440000006,432.50046440000006,434.36408619999565,Scenes\084b.jpg,pre,n,1.8609090000027209,None,,,,,,,,00030,001,2026-01-21_11h51.29.080,MST_test,2024.2.0,60.0070088187324,2026-01-21 11h51.37.539482 +0530,
108,0,109,s,1.4407269000002998,None,109,0,108,434.38014889999613,,,,,,,,,,,,,,,,,,,,,,,,,,,,,,,,,,,,,,,,,,,,,,,,,,434.36417939999956,434.38014889999613,434.8806384999989,434.8638174999942,434.8678707999934,434.8806384999989,434.8806384999989,434.8806384999989,436.33075319999625,Scenes\037a.jpg,mid,s,1.4407269000002998,None,,,,,,,,00030,001,2026-01-21_11h51.29.080,MST_test,2024.2.0,60.0070088187324,2026-01-21 11h51.37.539482 +0530,
109,0,110,o,1.2027390000002924,None,110,0,109,436.34689599999547,,,,,,,,,,,,,,,,,,,,,,,,,,,,,,,,,,,,,,,,,,,,,,,,,,436.3308437999949,436.34689599999547,436.8473750999983,436.8303573999947,436.8374567999999,436.8473750999983,436.8473750999983,436.8473750999983,438.0641258999967,Scenes\164a.jpg,pre,o,1.2027390000002924,None,,,,,,,,00030,001,2026-01-21_11h51.29.080,MST_test,2024.2.0,60.0070088187324,2026-01-21 11h51.37.539482 +0530,
110,0,111,s,2.5976246999998693,None,111,0,110,438.0801036999983,,,,,,,,,,,,,,,,,,,,,,,,,,,,,,,,,,,,,,,,,,,,,,,,,,438.06421489999775,438.0801036999983,438.580543899996,438.563782899997,438.5683812999996,438.580543899996,438.580543899996,438.580543899996,441.18059159999393,Objects\104a.jpg,pre,s,2.5976246999998693,None,,,,,,,,00030,001,2026-01-21_11h51.29.080,MST_test,2024.2.0,60.0070088187324,2026-01-21 11h51.37.539482 +0530,
111,0,112,s,4.377177299997129,None,112,0,111,441.19688999999926,,,,,,,,,,,,,,,,,,,,,,,,,,,,,,,,,,,,,,,,,,,,,,,,,,441.1806801999992,441.19688999999926,441.6971573999981,441.68031709999923,441.6897822999963,441.6971573999981,441.6971573999981,441.6971573999981,446.0806850999943,Objects\044b.jpg,mid,s,4.377177299997129,None,,,,,,,,00030,001,2026-01-21_11h51.29.080,MST_test,2024.2.0,60.0070088187324,2026-01-21 11h51.37.539482 +0530,
112,0,113,o,0.9811410999973305,None,113,0,112,446.09689069999877,,,,,,,,,,,,,,,,,,,,,,,,,,,,,,,,,,,,,,,,,,,,,,,,,,446.08077349999803,446.09689069999877,446.59710229999473,446.58036639999773,446.5832123,446.59710229999473,446.59710229999473,446.59710229999473,447.58071129999735,Objects\187a.jpg,mid,o,0.9811410999973305,None,,,,,,,,00030,001,2026-01-21_11h51.29.080,MST_test,2024.2.0,60.0070088187324,2026-01-21 11h51.37.539482 +0530,
113,0,114,s,4.953763899997284,None,114,0,113,447.5968947999936,,,,,,,,,,,,,,,,,,,,,,,,,,,,,,,,,,,,,,,,,,,,,,,,,,447.58079839999846,447.5968947999936,448.0971348999956,448.0803562999936,448.0901625999977,448.0971348999956,448.0971348999956,448.0971348999956,453.06412629999977,Objects\126b.jpg,mid,s,4.953763899997284,None,,,,,,,,00030,001,2026-01-21_11h51.29.080,MST_test,2024.2.0,60.0070088187324,2026-01-21 11h51.37.539482 +0530,
114,0,115,o,4.95807860000059,None,115,0,114,453.08008779999363,,,,,,,,,,,,,,,,,,,,,,,,,,,,,,,,,,,,,,,,,,,,,,,,,,453.0642150999993,453.08008779999363,453.58068219999404,453.56517589999567,453.57139279999683,453.58068219999404,453.58068219999404,453.58068219999404,458.5475600999998,Scenes\162a.jpg,post,o,4.95807860000059,None,,,,,,,,00030,001,2026-01-21_11h51.29.080,MST_test,2024.2.0,60.0070088187324,2026-01-21 11h51.37.539482 +0530,
115,0,116,o,0.9371564000030048,None,116,0,115,458.56367599999794,,,,,,,,,,,,,,,,,,,,,,,,,,,,,,,,,,,,,,,,,,,,,,,,,,458.54764859999705,458.56367599999794,459.06412779999664,459.0472157999975,459.0504213999957,459.06412779999664,459.06412779999664,459.06412779999664,460.0142263999951,Objects\089a.jpg,pre,o,0.9371564000030048,None,,,,,,,,00030,001,2026-01-21_11h51.29.080,MST_test,2024.2.0,60.0070088187324,2026-01-21 11h51.37.539482 +0530,
116,0,117,n,2.0948743999979342,None,117,0,116,460.03024809999624,,,,,,,,,,,,,,,,,,,,,,,,,,,,,,,,,,,,,,,,,,,,,,,,,,460.0143143999958,460.03024809999624,460.53057859999535,460.51388489999954,460.5232481999992,460.53057859999535,460.53057859999535,460.53057859999535,462.6309889999975,Foils\scenes7.jpg,none,n,2.0948743999979342,None,,,,,,,,00030,001,2026-01-21_11h51.29.080,MST_test,2024.2.0,60.0070088187324,2026-01-21 11h51.37.539482 +0530,
117,0,118,o,1.302324399999634,None,118,0,117,462.6469924999983,,,,,,,,,,,,,,,,,,,,,,,,,,,,,,,,,,,,,,,,,,,,,,,,,,462.63107879999734,462.6469924999983,463.14743219999946,463.130470899996,463.14356979999866,463.14743219999946,463.14743219999946,463.14743219999946,464.4641883999939,Scenes\006b.jpg,pre,o,1.302324399999634,None,,,,,,,,00030,001,2026-01-21_11h51.29.080,MST_test,2024.2.0,60.0070088187324,2026-01-21 11h51.37.539482 +0530,
118,0,119,o,5.797445899996092,None,119,0,118,464.4803230999969,,,,,,,,,,,,,,,,,,,,,,,,,,,,,,,,,,,,,,,,,,,,,,,,,,464.4642764999953,464.4803230999969,464.9806515999953,464.9639043999996,464.973980499999,464.9806515999953,464.9806515999953,464.9806515999953,470.7807998999997,Foils\073a.jpg,none,o,5.797445899996092,None,,,,,,,,00030,001,2026-01-21_11h51.29.080,MST_test,2024.2.0,60.0070088187324,2026-01-21 11h51.37.539482 +0530,
119,0,120,o,0.9922528000024613,None,120,0,119,470.7970256999979,,,,,,,,,,,,,,,,,,,,,,,,,,,,,,,,,,,,,,,,,,,,,,,,,,470.7808914999987,470.7970256999979,471.297195799998,471.2804569999935,471.2832788999949,471.297195799998,471.297195799998,471.297195799998,472.29752929999813,Objects\143a.jpg,post,o,0.9922528000024613,None,,,,,,,,00030,001,2026-01-21_11h51.29.080,MST_test,2024.2.0,60.0070088187324,2026-01-21 11h51.37.539482 +0530,
120,0,121,s,1.7129400000048918,None,121,0,120,472.3135961999942,,,,,,,,,,,,,,,,,,,,,,,,,,,,,,,,,,,,,,,,,,,,,,,,,,472.2976165,472.3135961999942,472.8166080999945,472.79732729999523,472.8145164999951,472.8166080999945,472.8166080999945,472.8166080999945,474.5308603999947,Scenes\082b.jpg,pre,s,1.7129400000048918,None,,,,,,,,00030,001,2026-01-21_11h51.29.080,MST_test,2024.2.0,60.0070088187324,2026-01-21 11h51.37.539482 +0530,
121,0,122,s,2.7546208999992814,None,122,0,121,474.5469696999935,,,,,,,,,,,,,,,,,,,,,,,,,,,,,,,,,,,,,,,,,,,,,,,,,,474.5309477999981,474.5469696999935,475.0472052999976,475.0305459999945,475.04524200000014,475.0472052999976,475.0472052999976,475.0472052999976,477.81422069999826,Scenes\115b.jpg,mid,s,2.7546208999992814,None,,,,,,,,00030,001,2026-01-21_11h51.29.080,MST_test,2024.2.0,60.0070088187324,2026-01-21 11h51.37.539482 +0530,
122,0,123,o,1.9349404999957187,None,123,0,122,477.8303154999958,,,,,,,,,,,,,,,,,,,,,,,,,,,,,,,,,,,,,,,,,,,,,,,,,,477.81430980000005,477.8303154999958,478.33078699999896,478.3139138999977,478.31716099999903,478.33078699999896,478.33078699999896,478.33078699999896,480.2809064999965,Objects\120a.jpg,pre,o,1.9349404999957187,None,,,,,,,,00030,001,2026-01-21_11h51.29.080,MST_test,2024.2.0,60.0070088187324,2026-01-21 11h51.37.539482 +0530,
123,0,124,s,1.919822900003055,None,124,0,123,480.29692229999637,,,,,,,,,,,,,,,,,,,,,,,,,,,,,,,,,,,,,,,,,,,,,,,,,,480.2809969999944,480.29692229999637,480.8025869999983,480.7805451999957,480.80046669999865,480.8025869999983,480.8025869999983,480.8025869999983,482.7308239999984,Scenes\040b.jpg,pre,s,1.919822900003055,None,,,,,,,,00030,001,2026-01-21_11h51.29.080,MST_test,2024.2.0,60.0070088187324,2026-01-21 11h51.37.539482 +0530,
124,0,125,o,1.1138540000029025,None,125,0,124,482.74699779999355,,,,,,,,,,,,,,,,,,,,,,,,,,,,,,,,,,,,,,,,,,,,,,,,,,482.7309129999994,482.74699779999355,483.24742349999724,483.23046579999937,483.2334816999937,483.24742349999724,483.24742349999724,483.24742349999724,484.3640862999964,Objects\076a.jpg,post,o,1.1138540000029025,None,,,,,,,,00030,001,2026-01-21_11h51.29.080,MST_test,2024.2.0,60.0070088187324,2026-01-21 11h51.37.539482 +0530,
125,0,126,n,1.2250296999991406,None,126,0,125,484.38006259999383,,,,,,,,,,,,,,,,,,,,,,,,,,,,,,,,,,,,,,,,,,,,,,,,,,484.3641751999967,484.38006259999383,484.8804327999969,484.8638809999975,484.8746572999953,484.8804327999969,484.8804327999969,484.8804327999969,486.11404259999836,Foils\scenes18.jpg,none,n,1.2250296999991406,None,,,,,,,,00030,001,2026-01-21_11h51.29.080,MST_test,2024.2.0,60.0070088187324,2026-01-21 11h51.37.539482 +0530,
126,0,127,n,1.8195449000049848,None,127,0,126,486.13016049999715,,,,,,,,,,,,,,,,,,,,,,,,,,,,,,,,,,,,,,,,,,,,,,,,,,486.11413449999964,486.13016049999715,486.6306004999933,486.61378949999926,486.6234298999989,486.6306004999933,486.6306004999933,486.6306004999933,488.46417089999886,Foils\098a.jpg,none,n,1.8195449000049848,None,,,,,,,,00030,001,2026-01-21_11h51.29.080,MST_test,2024.2.0,60.0070088187324,2026-01-21 11h51.37.539482 +0530,
127,0,128,n,2.0533566000012797,None,128,0,127,488.48009459999594,,,,,,,,,,,,,,,,,,,,,,,,,,,,,,,,,,,,,,,,,,,,,,,,,,488.4642623999971,488.48009459999594,488.9804867999992,488.9637883999967,488.9735229999933,488.9804867999992,488.9804867999992,488.9804867999992,491.0473597999953,Objects\023b.jpg,mid,n,2.0533566000012797,None,,,,,,,,00030,001,2026-01-21_11h51.29.080,MST_test,2024.2.0,60.0070088187324,2026-01-21 11h51.37.539482 +0530,
128,0,129,o,1.1352588999943691,None,129,0,128,491.0635458999968,,,,,,,,,,,,,,,,,,,,,,,,,,,,,,,,,,,,,,,,,,,,,,,,,,491.04744799999753,491.0635458999968,491.57003939999413,491.5471464000002,491.5677738999948,491.57003939999413,491.57003939999413,491.57003939999413,492.7140273999976,Scenes\003b.jpg,post,o,1.1352588999943691,None,,,,,,,,00030,001,2026-01-21_11h51.29.080,MST_test,2024.2.0,60.0070088187324,2026-01-21 11h51.37.539482 +0530,
129,0,130,s,2.7217612999957055,None,130,0,129,492.73011889999907,,,,,,,,,,,,,,,,,,,,,,,,,,,,,,,,,,,,,,,,,,,,,,,,,,492.71412019999843,492.73011889999907,493.2315069999968,493.2137922999973,493.2288463999939,493.2315069999968,493.2315069999968,493.2315069999968,495.9640799999979,Foils\scenes27.jpg,none,s,2.7217612999957055,None,,,,,,,,00030,001,2026-01-21_11h51.29.080,MST_test,2024.2.0,60.0070088187324,2026-01-21 11h51.37.539482 +0530,
130,0,131,o,5.392506800002593,None,131,0,130,495.98005399999965,,,,,,,,,,,,,,,,,,,,,,,,,,,,,,,,,,,,,,,,,,,,,,,,,,495.9642077999961,495.98005399999965,496.4807554999934,496.4637935999999,496.4745541999946,496.4807554999934,496.4807554999934,496.4807554999934,501.8806595999995,Scenes\059a.jpg,pre,o,5.392506800002593,None,,,,,,,,00030,001,2026-01-21_11h51.29.080,MST_test,2024.2.0,60.0070088187324,2026-01-21 11h51.37.539482 +0530,
131,0,132,n,2.0445781000016723,None,132,0,131,501.8968771,,,,,,,,,,,,,,,,,,,,,,,,,,,,,,,,,,,,,,,,,,,,,,,,,,501.88075789999857,501.8968771,502.39730899999995,502.38032139999996,502.38935059999494,502.39730899999995,502.39730899999995,502.39730899999995,504.44739069999923,Foils\scenes13.jpg,none,n,2.0445781000016723,None,,,,,,,,00030,001,2026-01-21_11h51.29.080,MST_test,2024.2.0,60.0070088187324,2026-01-21 11h51.37.539482 +0530,
132,0,133,n,3.6134781000000658,None,133,0,132,504.46355239999684,,,,,,,,,,,,,,,,,,,,,,,,,,,,,,,,,,,,,,,,,,,,,,,,,,504.44748219999747,504.46355239999684,504.9639382999958,504.94714779999777,504.9604263999936,504.9639382999958,504.9639382999958,504.9639382999958,508.5807868999982,Scenes\118b.jpg,pre,n,3.6134781000000658,None,,,,,,,,00030,001,2026-01-21_11h51.29.080,MST_test,2024.2.0,60.0070088187324,2026-01-21 11h51.37.539482 +0530,
133,0,134,o,1.0399674000000232,None,134,0,133,508.5968544999996,,,,,,,,,,,,,,,,,,,,,,,,,,,,,,,,,,,,,,,,,,,,,,,,,,508.5808806999994,508.5968544999996,509.0973817999984,509.08044129999325,509.09058319999895,509.0973817999984,509.0973817999984,509.0973817999984,510.1474453999981,Objects\125b.jpg,pre,o,1.0399674000000232,None,,,,,,,,00030,001,2026-01-21_11h51.29.080,MST_test,2024.2.0,60.0070088187324,2026-01-21 11h51.37.539482 +0530,
134,0,135,s,1.9454212999989977,None,135,0,134,510.1634852999996,,,,,,,,,,,,,,,,,,,,,,,,,,,,,,,,,,,,,,,,,,,,,,,,,,510.1475319999954,510.1634852999996,510.66402430000016,510.6471012999973,510.6524982999981,510.66402430000016,510.66402430000016,510.66402430000016,512.6140944999934,Scenes\166a.jpg,post,s,1.9454212999989977,None,,,,,,,,00030,001,2026-01-21_11h51.29.080,MST_test,2024.2.0,60.0070088187324,2026-01-21 11h51.37.539482 +0530,
135,0,136,o,0.9593278999964241,None,136,0,135,512.6301492999992,,,,,,,,,,,,,,,,,,,,,,,,,,,,,,,,,,,,,,,,,,,,,,,,,,512.614187399995,512.6301492999992,513.1305831999998,513.1137978999977,513.1163652999967,513.1305831999998,513.1305831999998,513.1305831999998,514.0973637999996,Objects\029a.jpg,post,o,0.9593278999964241,None,,,,,,,,00030,001,2026-01-21_11h51.29.080,MST_test,2024.2.0,60.0070088187324,2026-01-21 11h51.37.539482 +0530,
136,0,137,n,1.9001827999964007,None,137,0,136,514.1135317999942,,,,,,,,,,,,,,,,,,,,,,,,,,,,,,,,,,,,,,,,,,,,,,,,,,514.0974528999941,514.1135317999942,514.6137572999942,514.5973219999942,514.5998829999953,514.6137572999942,514.6137572999942,514.6137572999942,516.5304827,Objects\159a.jpg,mid,n,1.9001827999964007,None,,,,,,,,00030,001,2026-01-21_11h51.29.080,MST_test,2024.2.0,60.0070088187324,2026-01-21 11h51.37.539482 +0530,
137,0,138,s,1.362860199995339,None,138,0,137,516.5468656999947,,,,,,,,,,,,,,,,,,,,,,,,,,,,,,,,,,,,,,,,,,,,,,,,,,516.530574599994,516.5468656999947,517.047075399998,517.0302873999972,517.0330274999942,517.047075399998,517.047075399998,517.047075399998,518.414120399997,Objects\036a.jpg,post,s,1.362860199995339,None,,,,,,,,00030,001,2026-01-21_11h51.29.080,MST_test,2024.2.0,60.0070088187324,2026-01-21 11h51.37.539482 +0530,
138,0,139,s,1.5754806000040844,None,139,0,138,518.4299899999969,,,,,,,,,,,,,,,,,,,,,,,,,,,,,,,,,,,,,,,,,,,,,,,,,,518.4142066999993,518.4299899999969,518.9302825999985,518.9137671999997,518.9239721999984,518.9302825999985,518.9302825999985,518.9302825999985,520.514076499996,Objects\005b.jpg,pre,s,1.5754806000040844,None,,,,,,,,00030,001,2026-01-21_11h51.29.080,MST_test,2024.2.0,60.0070088187324,2026-01-21 11h51.37.539482 +0530,
139,0,140,n,1.3068234000020311,None,140,0,139,520.5301318999991,,,,,,,,,,,,,,,,,,,,,,,,,,,,,,,,,,,,,,,,,,,,,,,,,,520.5141679999942,520.5301318999991,521.0304692999998,521.013798699998,521.0240743999966,521.0304692999998,521.0304692999998,521.0304692999998,522.3474495999981,Foils\002a.jpg,none,n,1.3068234000020311,None,,,,,,,,00030,001,2026-01-21_11h51.29.080,MST_test,2024.2.0,60.0070088187324,2026-01-21 11h51.37.539482 +0530,
140,0,141,n,2.7542804000040633,None,141,0,140,522.3634673999986,,,,,,,,,,,,,,,,,,,,,,,,,,,,,,,,,,,,,,,,,,,,,,,,,,522.3475365999984,522.3634673999986,522.8639459999977,522.847100299994,522.8563753999988,522.8639459999977,522.8639459999977,522.8639459999977,525.6306104999967,Foils\scenes6.jpg,none,n,2.7542804000040633,None,,,,,,,,00030,001,2026-01-21_11h51.29.080,MST_test,2024.2.0,60.0070088187324,2026-01-21 11h51.37.539482 +0530,
141,0,142,s,1.3217261000027065,None,142,0,141,525.646862799993,,,,,,,,,,,,,,,,,,,,,,,,,,,,,,,,,,,,,,,,,,,,,,,,,,525.6307032999975,525.646862799993,,526.130814899996,526.1496609999958,526.1515748999955,526.1515748999955,526.1515748999955,527.4811850999977,Scenes\165b.jpg,mid,s,1.3217261000027065,None,,,,,,,,00030,001,2026-01-21_11h51.29.080,MST_test,2024.2.0,60.0070088187324,2026-01-21 11h51.37.539482 +0530,
142,0,143,o,1.0290172000022721,None,143,0,142,527.4968766999955,,,,,,,,,,,,,,,,,,,,,,,,,,,,,,,,,,,,,,,,,,,,,,,,,,527.4812751999998,527.4968766999955,527.9973136999979,527.980347699995,527.9838621999952,527.9973136999979,527.9973136999979,527.9973136999979,529.0306438999978,Objects\096a.jpg,mid,o,1.0290172000022721,None,,,,,,,,00030,001,2026-01-21_11h51.29.080,MST_test,2024.2.0,60.0070088187324,2026-01-21 11h51.37.539482 +0530,
143,0,144,n,9.123824700000114,None,144,0,143,529.0468737999981,,,,,,,,,,,,,,,,,,,,,,,,,,,,,,,,,,,,,,,,,,,,,,,,,,529.0307356999983,529.0468737999981,529.5502254999956,529.5307459999967,529.5481375999952,529.5502254999956,529.5502254999956,529.5502254999956,538.6805625999987,Scenes\192b.jpg,post,n,9.123824700000114,None,,,,,,,,00030,001,2026-01-21_11h51.29.080,MST_test,2024.2.0,60.0070088187324,2026-01-21 11h51.37.539482 +0530,
144,0,145,o,1.1567849999992177,None,145,0,144,538.6968609999967,,,,,,,,,,,,,,,,,,,,,,,,,,,,,,,,,,,,,,,,,,,,,,,,,,538.6806517999939,538.6968609999967,539.197296499995,539.1803328999958,539.1837443999975,539.197296499995,539.197296499995,539.197296499995,540.3640232999969,Objects\020a.jpg,mid,o,1.1567849999992177,None,,,,,,,,00030,001,2026-01-21_11h51.29.080,MST_test,2024.2.0,60.0070088187324,2026-01-21 11h51.37.539482 +0530,
145,0,146,s,3.7133331000004546,None,146,0,145,540.3800581999967,,,,,,,,,,,,,,,,,,,,,,,,,,,,,,,,,,,,,,,,,,,,,,,,,,540.3641158999962,540.3800581999967,540.8803001999986,540.8637358999986,540.8752241999973,540.8803001999986,540.8803001999986,540.8803001999986,544.5973579999991,Objects\026b.jpg,pre,s,3.7133331000004546,None,,,,,,,,00030,001,2026-01-21_11h51.29.080,MST_test,2024.2.0,60.0070088187324,2026-01-21 11h51.37.539482 +0530,
146,0,147,s,3.7199780000009923,None,147,0,146,544.6135211999936,,,,,,,,,,,,,,,,,,,,,,,,,,,,,,,,,,,,,,,,,,,,,,,,,,544.5974470000001,544.6135211999936,545.1137400999942,545.0970278999957,545.1082280999981,545.1137400999942,545.1137400999942,545.1137400999942,548.8473492999983,Objects\173b.jpg,pre,s,3.7199780000009923,None,,,,,,,,00030,001,2026-01-21_11h51.29.080,MST_test,2024.2.0,60.0070088187324,2026-01-21 11h51.37.539482 +0530,
147,0,148,s,3.869948999999906,None,148,0,147,548.8634550999996,,,,,,,,,,,,,,,,,,,,,,,,,,,,,,,,,,,,,,,,,,,,,,,,,,548.8474403,548.8634550999996,549.364095799996,549.3471397999965,549.3588744999943,549.364095799996,549.364095799996,549.364095799996,553.2475390999971,Scenes\089a.jpg,pre,s,3.869948999999906,None,,,,,,,,00030,001,2026-01-21_11h51.29.080,MST_test,2024.2.0,60.0070088187324,2026-01-21 11h51.37.539482 +0530,
148,0,149,o,2.565308700002788,None,149,0,148,553.2635475999996,,,,,,,,,,,,,,,,,,,,,,,,,,,,,,,,,,,,,,,,,,,,,,,,,,553.2476323999945,553.2635475999996,553.7640943999941,553.7471049999949,553.753552999995,553.7640943999941,553.7640943999941,553.7640943999941,556.3306812999945,Scenes\044a.jpg,post,o,2.565308700002788,None,,,,,,,,00030,001,2026-01-21_11h51.29.080,MST_test,2024.2.0,60.0070088187324,2026-01-21 11h51.37.539482 +0530,
149,0,150,n,2.0662702999979956,None,150,0,149,556.3468589999975,,,,,,,,,,,,,,,,,,,,,,,,,,,,,,,,,,,,,,,,,,,,,,,,,,556.3307723999969,556.3468589999975,556.8473187999989,556.8303996999966,556.8412671999977,556.8473187999989,556.8473187999989,556.8473187999989,558.9142376999953,Foils\050a.jpg,none,n,2.0662702999979956,None,,,,,,,,00030,001,2026-01-21_11h51.29.080,MST_test,2024.2.0,60.0070088187324,2026-01-21 11h51.37.539482 +0530,
,,,,,,,,,,,,,,,,,,,,,,,,,,,,,,,,,,,,,,,,,,,,,,,,,,,,,,,,,,,,,,,,,,,,,,,,,558.9142986999941,558.9301466999968,558.9301466999968,560.5304633999986,space,1.591756300003908,None,00030,001,2026-01-21_11h51.29.080,MST_test,2024.2.0,60.0070088187324,2026-01-21 11h51.37.539482 +0530,
