Sl_no,image_path,thisN,thisTrialN,thisRepN,key_resp_5.keys,key_resp_5.rt,key_resp_5.duration,key_resp_7.keys,key_resp_7.rt,key_resp_7.duration,key_resp_9.keys,key_resp_9.rt,key_resp_9.duration,key_resp_8.keys,key_resp_8.rt,key_resp_8.duration,practice.thisRepN,practice.thisTrialN,practice.thisN,trials.thisRepN,trials.thisTrialN,trials.thisN,thisRow.t,notes,welcome_page.started,text.started,key_resp.started,welcome_page.stopped,key_resp.keys,key_resp.rt,key_resp.duration,instructions.started,ins.started,key_resp_2.started,instructions.stopped,key_resp_2.keys,key_resp_2.rt,key_resp_2.duration,objects_only_instruction.started,text_3.started,key_resp_3.started,objects_only_instruction.stopped,key_resp_3.keys,key_resp_3.rt,key_resp_3.duration,ISI.started,text_4.started,ISI.stopped,practice_block.started,image.started,text_5.started,key_resp_5.started,practice_block.stopped,practice.key_resp_5.keys,practice.key_resp_5.rt,practice.key_resp_5.duration,indoor_outdoor.started,indoor_outdoor.stopped,practice.key_resp_7.keys,text_4.stopped,image.stopped,text_5.stopped,key_resp_5.stopped,text_7.started,key_resp_7.started,practice.key_resp_7.rt,practice.key_resp_7.duration,practice_to_main.started,text_2.started,key_resp_4.started,practice_to_main.stopped,key_resp_4.keys,key_resp_4.rt,key_resp_4.duration,objects.started,image_2.started,text_9.started,key_resp_9.started,objects.stopped,trials.key_resp_9.keys,trials.key_resp_9.rt,trials.key_resp_9.duration,encoding_task.started,encoding_task.stopped,trials.key_resp_8.keys,text_8.started,key_resp_8.started,trials.key_resp_8.rt,trials.key_resp_8.duration,end_experiment.started,text_6.started,key_resp_6.started,end_experiment.stopped,key_resp_6.keys,key_resp_6.rt,key_resp_6.duration,list_of_stimuli,encoding_task_accuracy,participant,session,date,expName,psychopyVersion,frameRate,expStart,
,,,,,,,,,,,,,,,,,,,,,,,,,0.0013055000163149089,0.0035823000071104616,0.0035823000071104616,78.66104380000615,space,78.53131910000229,None,,,,,,,,,,,,,,,,,,,,,,,,,,,,,,,,,,,,,,,,,,,,,,,,,,,,,,,,,,,,,,,,,,,,00032,001,2026-01-22_10h59.30.259,MST_task,2024.2.0,60.13948752531708,2026-01-22 11h00.21.241620 +0530,
,,,,,,,,,,,,,,,,,,,,,,,,,,,,,,,,78.66118890000507,78.67826919999789,78.67826919999789,112.08003760001156,space,33.40058190000127,None,,,,,,,,,,,,,,,,,,,,,,,,,,,,,,,,,,,,,,,,,,,,,,,,,,,,,,,,,,,,,00032,001,2026-01-22_10h59.30.259,MST_task,2024.2.0,60.13948752531708,2026-01-22 11h00.21.241620 +0530,
,,,,,,,,,,,,,,,,,,,,,,,,,,,,,,,,,,,,,,,112.08016620000126,112.10628860001452,112.10628860001452,142.69631540001137,space,30.58845239999937,None,,,,,,,,,,,,,,,,,,,,,,,,,,,,,,,,,,,,,,,,,,,,,,,,,,,,,,00032,001,2026-01-22_10h59.30.259,MST_task,2024.2.0,60.13948752531708,2026-01-22 11h00.21.241620 +0530,
8,practice_images/178a.jpg,0,0,1,f,2.855252699984703,None,None,,,,,,,,,1,0,0,,,,142.722242799995,,,,,,,,,,,,,,,,,,,,,,,142.71990970001207,142.722242799995,143.21289310001885,143.23977830001968,143.27136830001837,143.27136830001837,143.27136830001837,146.21289429999888,f,2.855252699984703,None,146.21976170002017,146.21981560002314,None,,,,,,,,,,,,,,,,,,,,,,,,,,,,,,,,,,,,,,,,00032,001,2026-01-22_10h59.30.259,MST_task,2024.2.0,60.13948752531708,2026-01-22 11h00.21.241620 +0530,
5,practice_images/139a.jpg,1,1,1,j,2.882123199990019,None,None,,,,,,,,,1,1,1,,,,146.2290553000057,,,,,,,,,,,,,,,,,,,,,,,146.2200004000042,146.2290553000057,146.7128642000025,146.7287251999951,146.73189910000656,146.73189910000656,146.73189910000656,149.7297060000128,j,2.882123199990019,None,149.72990090001258,149.72997240000404,None,146.73189910000656,,,,,,,,,,,,,,,,,,,,,,,,,,,,,,,,,,,,,,,00032,001,2026-01-22_10h59.30.259,MST_task,2024.2.0,60.13948752531708,2026-01-22 11h00.21.241620 +0530,
4,practice_images/002b.jpg,2,2,1,f,2.0121344000217505,0.2082061999826692,None,,,,,,,,,1,2,2,,,,149.7459256000002,,,,,,,,,,,,,,,,,,,,,,,149.73025110000162,149.7459256000002,150.22972319999826,150.24668100001873,150.2497602000076,150.2497602000076,150.2497602000076,153.2463108000229,f,2.0121344000217505,0.2082061999826692,153.2464997000061,153.24657139999908,None,150.2497602000076,,,,,,,,,,,,,,,,,,,,,,,,,,,,,,,,,,,,,,,00032,001,2026-01-22_10h59.30.259,MST_task,2024.2.0,60.13948752531708,2026-01-22 11h00.21.241620 +0530,
6,practice_images/158a.jpg,3,3,1,j,1.951713699992979,0.15982239998993464,None,,,,,,,,,1,3,3,,,,153.26266840001335,,,,,,,,,,,,,,,,,,,,,,,153.24686770001426,153.26266840001335,153.74632070001098,153.76498860001448,153.76693040001555,153.76693040001555,153.76693040001555,156.7630371999985,j,1.951713699992979,0.15982239998993464,156.7632300000114,156.7632996000175,None,153.76693040001555,,,,,,,,,,,,,,,,,,,,,,,,,,,,,,,,,,,,,,,00032,001,2026-01-22_10h59.30.259,MST_task,2024.2.0,60.13948752531708,2026-01-22 11h00.21.241620 +0530,
7,practice_images/166a.jpg,4,4,1,f,1.4773502000025474,0.15259880002122372,None,,,,,,,,,1,4,4,,,,156.77934160002042,,,,,,,,,,,,,,,,,,,,,,,156.76357550002285,156.77934160002042,157.26313950002077,157.27757540001767,157.2806945000193,157.2806945000193,157.2806945000193,160.27946800002246,f,1.4773502000025474,0.15259880002122372,160.27967760001775,160.27975400001742,None,157.2806945000193,,,,,,,,,,,,,,,,,,,,,,,,,,,,,,,,,,,,,,,00032,001,2026-01-22_10h59.30.259,MST_task,2024.2.0,60.13948752531708,2026-01-22 11h00.21.241620 +0530,
9,practice_images/180a.jpg,5,5,1,f,0.929050400009146,0.1441863999934867,None,,,,,,,,,1,5,5,,,,160.2957221000106,,,,,,,,,,,,,,,,,,,,,,,160.28007540002,160.2957221000106,160.77937610002118,160.7943105000013,160.79708220000612,160.79708220000612,160.79708220000612,163.77997689999756,f,0.929050400009146,0.1441863999934867,163.78017390001332,163.78023800000665,None,160.79708220000612,163.79588240000885,163.79588240000885,163.79588240000885,,,,,,,,,,,,,,,,,,,,,,,,,,,,,,,,,,,,00032,001,2026-01-22_10h59.30.259,MST_task,2024.2.0,60.13948752531708,2026-01-22 11h00.21.241620 +0530,
10,practice_images/182a.jpg,6,6,1,None,,,f,0.9411555999831762,None,,,,,,,1,6,6,,,,163.79588240000885,,,,,,,,,,,,,,,,,,,,,,,163.78053879999788,163.79588240000885,164.2797326,164.29773670001305,164.30079410001053,164.30079410001053,164.30079410001053,167.29633650000324,None,,,167.2965317000053,168.26317489999929,f,164.30079410001053,,,,167.3133916000079,167.3133916000079,0.9411555999831762,None,,,,,,,,,,,,,,,,,,,,,,,,,,,,,,,,00032,001,2026-01-22_10h59.30.259,MST_task,2024.2.0,60.13948752531708,2026-01-22 11h00.21.241620 +0530,
1,practice_images/013a.jpg,7,7,1,j,1.6682836000109091,0.1997753999894485,None,,,,,,,,,1,7,7,,,,168.27913599999738,,,,,,,,,,,,,,,,,,,,,,,168.26350250001997,168.27913599999738,168.7629528999969,168.78293230000418,168.7862786000187,168.7862786000187,168.7862786000187,171.7798066000105,j,1.6682836000109091,0.1997753999894485,171.7800014000095,171.78007300000172,None,168.7862786000187,,,,,,,,,,,,,,,,,,,,,,,,,,,,,,,,,,,,,,,00032,001,2026-01-22_10h59.30.259,MST_task,2024.2.0,60.13948752531708,2026-01-22 11h00.21.241620 +0530,
3,practice_images/037a.jpg,8,8,1,f,1.1166003000107594,0.13605859997915104,None,,,,,,,,,1,8,8,,,,171.7956075000111,,,,,,,,,,,,,,,,,,,,,,,171.78035230000387,171.7956075000111,172.2794511000102,172.29528839999693,172.29754349999712,172.29754349999712,172.29754349999712,175.2959850000043,f,1.1166003000107594,0.13605859997915104,175.29617119999602,175.29624280001735,None,172.29754349999712,,,,,,,,,,,,,,,,,,,,,,,,,,,,,,,,,,,,,,,00032,001,2026-01-22_10h59.30.259,MST_task,2024.2.0,60.13948752531708,2026-01-22 11h00.21.241620 +0530,
2,practice_images/031a.jpg,9,9,1,f,1.5939361000200734,0.16777709999587387,None,,,,,,,,,1,9,9,,,,175.31341309999698,,,,,,,,,,,,,,,,,,,,,,,175.29652329999954,175.31341309999698,175.81292029999895,175.83303209999576,175.83629390000715,175.83629390000715,175.83629390000715,178.81303760001902,f,1.5939361000200734,0.16777709999587387,178.81322619999992,178.8132912000001,None,,,,,,,,,,,,,,,,,,,,,,,,,,,,,,,,,,,,,,,,00032,001,2026-01-22_10h59.30.259,MST_task,2024.2.0,60.13948752531708,2026-01-22 11h00.21.241620 +0530,
,,,,,,,,,,,,,,,,,,,,,,,,,,,,,,,,,,,,,,,,,,,,,,,,,,,,,,,,,,,,,,,,,,,,178.81348070001695,178.8293823999993,178.8293823999993,199.34657670001616,space,20.513180899986764,None,,,,,,,,,,,,,,,,,,,,,,,,,00032,001,2026-01-22_10h59.30.259,MST_task,2024.2.0,60.13948752531708,2026-01-22 11h00.21.241620 +0530,
,Scenes\132a.jpg,0,0,1,,,,,,,j,1.7352247000089847,0.1598820999788586,None,,,,,,1,0,0,199.3626595000096,,,,,,,,,,,,,,,,,,,,,,,199.34989539999515,199.3626595000096,199.84633319999557,,,,,,,,,,,,199.88718130000052,,,,,,,,,,,,,,,199.88372290000552,199.88718130000052,199.88718130000052,199.88718130000052,202.8629798000038,j,1.7352247000089847,0.1598820999788586,202.86946780001745,202.86950630001957,None,,,,,,,,,,,,,,00032,001,2026-01-22_10h59.30.259,MST_task,2024.2.0,60.13948752531708,2026-01-22 11h00.21.241620 +0530,
,Scenes\062a.jpg,1,0,2,,,,,,,j,0.9248914999770932,0.16767049999907613,None,,,,,,2,0,1,202.87935860001016,,,,,,,,,,,,,,,,,,,,,,,202.86964079999598,202.87935860001016,203.36330230001477,,,,,,,,,,,,203.3936290999991,,,,,,,,,,,,,,,203.39083099999698,203.3936290999991,203.3936290999991,203.3936290999991,206.37973970000166,j,0.9248914999770932,0.16767049999907613,206.3799474000116,206.3800140999956,None,,,,,,,,,,,,,,00032,001,2026-01-22_10h59.30.259,MST_task,2024.2.0,60.13948752531708,2026-01-22 11h00.21.241620 +0530,
,Scenes\010a.jpg,2,0,3,,,,,,,j,0.8230620000103954,0.23165790000348352,None,,,,,,3,0,2,206.39579120001872,,,,,,,,,,,,,,,,,,,,,,,206.3804677000153,206.39579120001872,206.87973509999574,,,,,,,,,,,,206.95147080000606,,,,,,,,,,,,,,,206.9485003000009,206.95147080000606,206.95147080000606,206.95147080000606,209.89654909999808,j,0.8230620000103954,0.23165790000348352,209.8967540000158,209.8968206999998,None,,,,,,,,,,,,,,00032,001,2026-01-22_10h59.30.259,MST_task,2024.2.0,60.13948752531708,2026-01-22 11h00.21.241620 +0530,
,Scenes\131a.jpg,3,0,4,,,,,,,j,1.1152570999984164,0.2486145000148099,None,,,,,,4,0,3,209.91302950002137,,,,,,,,,,,,,,,,,,,,,,,209.89719400001923,209.91302950002137,210.39643880000222,,,,,,,,,,,,210.42690059999586,,,,,,,,,,,,,,,210.42412090001744,210.42690059999586,210.42690059999586,210.42690059999586,213.41306310001528,j,1.1152570999984164,0.2486145000148099,213.41326319999644,213.41333100001793,None,,,,,,,,,,,,,,00032,001,2026-01-22_10h59.30.259,MST_task,2024.2.0,60.13948752531708,2026-01-22 11h00.21.241620 +0530,
,Scenes\118a.jpg,4,0,5,,,,,,,j,1.1619441000220831,0.2400257999834139,None,,,,,,5,0,4,213.4292792000051,,,,,,,,,,,,,,,,,,,,,,,213.41362960002152,213.4292792000051,213.9130592000147,,,,,,,,,,,,213.94074750001892,,,,,,,,,,,,,,,213.93807520001428,213.94074750001892,213.94074750001892,213.94074750001892,216.92949770000996,j,1.1619441000220831,0.2400257999834139,216.9297121000127,216.9297787999967,None,,,,,,,,,,,,,,00032,001,2026-01-22_10h59.30.259,MST_task,2024.2.0,60.13948752531708,2026-01-22 11h00.21.241620 +0530,
,Scenes\138a.jpg,5,0,6,,,,,,,j,0.7981134000001475,0.24791299999924377,None,,,,,,6,0,5,216.94578999999794,,,,,,,,,,,,,,,,,,,,,,,216.9301589000097,216.94578999999794,217.42966520000482,,,,,,,,,,,,217.46401860000333,,,,,,,,,,,,,,,217.46164680001675,217.46401860000333,217.46401860000333,217.46401860000333,220.44655839999905,j,0.7981134000001475,0.24791299999924377,220.44676410002285,220.44683010000153,None,,,,,,,,,,,,,,00032,001,2026-01-22_10h59.30.259,MST_task,2024.2.0,60.13948752531708,2026-01-22 11h00.21.241620 +0530,
,Scenes\173a.jpg,6,0,7,,,,,,,j,0.6343062000232749,0.26410679999389686,None,,,,,,7,0,6,220.4625201000017,,,,,,,,,,,,,,,,,,,,,,,220.4471994000196,220.4625201000017,220.9463867000013,,,,,,,,,,,,221.0042276000022,,,,,,,,,,,,,,,221.00145760001033,221.0042276000022,221.0042276000022,221.0042276000022,223.96305970000685,j,0.6343062000232749,0.26410679999389686,223.96326280001085,223.9633279000118,None,,,,,,,,,,,,,,00032,001,2026-01-22_10h59.30.259,MST_task,2024.2.0,60.13948752531708,2026-01-22 11h00.21.241620 +0530,
,Objects\176a.jpg,7,0,8,,,,,,,j,0.9695796000014525,0.22434759998577647,None,,,,,,8,0,7,223.97936910000863,,,,,,,,,,,,,,,,,,,,,,,223.96362300001783,223.97936910000863,224.46297980000963,,,,,,,,,,,,224.52437729999656,,,,,,,,,,,,,,,224.52224280001246,224.52437729999656,224.52437729999656,224.52437729999656,227.4797130000079,j,0.9695796000014525,0.22434759998577647,227.47991320001893,227.47998140001437,None,,,,,,,,,,,,,,00032,001,2026-01-22_10h59.30.259,MST_task,2024.2.0,60.13948752531708,2026-01-22 11h00.21.241620 +0530,
,Objects\086a.jpg,8,0,9,,,,,,,j,1.2682170999760274,0.2168639000155963,None,,,,,,9,0,8,227.49602320001577,,,,,,,,,,,,,,,,,,,,,,,227.4803482000134,227.49602320001577,227.97974450001493,,,,,,,,,,,,228.0097095000092,,,,,,,,,,,,,,,228.0074420000019,228.0097095000092,228.0097095000092,228.0097095000092,230.997122700006,j,1.2682170999760274,0.2168639000155963,230.9973253000062,230.99739250002312,None,,,,,,,,,,,,,,00032,001,2026-01-22_10h59.30.259,MST_task,2024.2.0,60.13948752531708,2026-01-22 11h00.21.241620 +0530,
,Objects\045a.jpg,9,0,10,,,,,,,j,1.0494576999917626,0.2161453999869991,None,,,,,,10,0,9,231.01263330000802,,,,,,,,,,,,,,,,,,,,,,,230.99775860001682,231.01263330000802,231.49645860001328,,,,,,,,,,,,231.58909490000224,,,,,,,,,,,,,,,231.5868138000078,231.58909490000224,231.58909490000224,231.58909490000224,234.51296980000916,j,1.0494576999917626,0.2161453999869991,234.51317120000022,234.51323630000115,None,,,,,,,,,,,,,,00032,001,2026-01-22_10h59.30.259,MST_task,2024.2.0,60.13948752531708,2026-01-22 11h00.21.241620 +0530,
,Objects\078a.jpg,10,0,11,,,,,,,j,0.9270889000035822,0.24010379999526776,None,,,,,,11,0,10,234.53008950001094,,,,,,,,,,,,,,,,,,,,,,,234.51359780001803,234.53008950001094,235.01301270001568,,,,,,,,,,,,235.07087980001234,,,,,,,,,,,,,,,235.06796499999473,235.07087980001234,235.07087980001234,235.07087980001234,238.01360530001693,j,0.9270889000035822,0.24010379999526776,238.0138160000206,238.01388080001925,None,,,,,,,,,,,,,,00032,001,2026-01-22_10h59.30.259,MST_task,2024.2.0,60.13948752531708,2026-01-22 11h00.21.241620 +0530,
,Objects\036a.jpg,11,0,12,,,,,,,f,0.9017340000136755,0.22357969998847693,None,,,,,,12,0,11,238.0291085000208,,,,,,,,,,,,,,,,,,,,,,,238.0142033000011,238.0291085000208,238.51309870000114,,,,,,,,,,,,238.60076530001243,,,,,,,,,,,,,,,238.59836340000038,238.60076530001243,238.60076530001243,238.60076530001243,241.52943019999657,f,0.9017340000136755,0.22357969998847693,241.52963560001808,241.52970120002283,None,,,,,,,,,,,,,,00032,001,2026-01-22_10h59.30.259,MST_task,2024.2.0,60.13948752531708,2026-01-22 11h00.21.241620 +0530,
,Objects\133a.jpg,12,0,13,,,,,,,j,1.143047799996566,0.24783340000431053,None,,,,,,13,0,12,241.5464670000074,,,,,,,,,,,,,,,,,,,,,,,241.5299949000182,241.5464670000074,242.0297167999961,,,,,,,,,,,,242.11139510001522,,,,,,,,,,,,,,,242.10839480001596,242.11139510001522,242.11139510001522,242.11139510001522,245.03006150000147,j,1.143047799996566,0.24783340000431053,245.03026650001993,245.03033320000395,None,,,,,,,,,,,,,,00032,001,2026-01-22_10h59.30.259,MST_task,2024.2.0,60.13948752531708,2026-01-22 11h00.21.241620 +0530,
,Objects\136a.jpg,13,0,14,,,,,,,f,0.74003710001125,0.240765199996531,None,,,,,,14,0,13,245.0460057000164,,,,,,,,,,,,,,,,,,,,,,,245.03063019999536,245.0460057000164,245.52956039999845,,,,,,,,,,,,245.55386690000887,,,,,,,,,,,,,,,245.55172650000895,245.55386690000887,245.55386690000887,245.55386690000887,248.5463811000227,f,0.74003710001125,0.240765199996531,248.54658449999988,248.54665030000615,None,,,,,,,,,,,,,,00032,001,2026-01-22_10h59.30.259,MST_task,2024.2.0,60.13948752531708,2026-01-22 11h00.21.241620 +0530,
,Scenes\087a.jpg,14,0,15,,,,,,,j,0.9173164000094403,0.23844349998398684,None,,,,,,15,0,14,248.56273170001805,,,,,,,,,,,,,,,,,,,,,,,248.54701890001888,248.56273170001805,249.04647870000917,,,,,,,,,,,,249.07431960001122,,,,,,,,,,,,,,,249.071537300013,249.07431960001122,249.07431960001122,249.07431960001122,252.04703610000433,j,0.9173164000094403,0.23844349998398684,252.04724050001823,252.04730570001993,None,,,,,,,,,,,,,,00032,001,2026-01-22_10h59.30.259,MST_task,2024.2.0,60.13948752531708,2026-01-22 11h00.21.241620 +0530,
,Scenes\011a.jpg,15,0,16,,,,,,,j,1.1636941000178922,0.22341239999514073,None,,,,,,16,0,15,252.06269079999765,,,,,,,,,,,,,,,,,,,,,,,252.04760059999535,252.06269079999765,252.5464178000111,,,,,,,,,,,,252.5948457000195,,,,,,,,,,,,,,,252.59189140002127,252.5948457000195,252.5948457000195,252.5948457000195,255.56295970000792,j,1.1636941000178922,0.22341239999514073,255.5631762999983,255.56324430002132,None,,,,,,,,,,,,,,00032,001,2026-01-22_10h59.30.259,MST_task,2024.2.0,60.13948752531708,2026-01-22 11h00.21.241620 +0530,
,Scenes\045a.jpg,16,0,17,,,,,,,j,1.355685499991523,0.24816489999648184,None,,,,,,17,0,16,255.57897100000991,,,,,,,,,,,,,,,,,,,,,,,255.56362369999988,255.57897100000991,256.0634090999956,,,,,,,,,,,,256.1463861000084,,,,,,,,,,,,,,,256.1433380000235,256.1463861000084,256.1463861000084,256.1463861000084,259.0799951000081,j,1.355685499991523,0.24816489999648184,259.0802044000011,259.08027130001574,None,,,,,,,,,,,,,,00032,001,2026-01-22_10h59.30.259,MST_task,2024.2.0,60.13948752531708,2026-01-22 11h00.21.241620 +0530,
,Scenes\027a.jpg,17,0,18,,,,,,,f,1.0278209999960382,0.2643245999934152,None,,,,,,18,0,17,259.0959356999956,,,,,,,,,,,,,,,,,,,,,,,259.08056800000486,259.0959356999956,259.5797695000074,,,,,,,,,,,,259.6101362000045,,,,,,,,,,,,,,,259.6072372000199,259.6101362000045,259.6101362000045,259.6101362000045,262.59610660001636,f,1.0278209999960382,0.2643245999934152,262.5963300000003,262.59639530000277,None,,,,,,,,,,,,,,00032,001,2026-01-22_10h59.30.259,MST_task,2024.2.0,60.13948752531708,2026-01-22 11h00.21.241620 +0530,
,Scenes\175a.jpg,18,0,19,,,,,,,j,0.8736270999943372,0.23307210000348277,None,,,,,,19,0,18,262.6126676000131,,,,,,,,,,,,,,,,,,,,,,,262.5966984000115,262.6126676000131,263.0963649000041,,,,,,,,,,,,263.12425779999467,,,,,,,,,,,,,,,263.121569800016,263.12425779999467,263.12425779999467,263.12425779999467,266.11273370002164,j,0.8736270999943372,0.23307210000348277,266.1129348000104,266.11300169999595,None,,,,,,,,,,,,,,00032,001,2026-01-22_10h59.30.259,MST_task,2024.2.0,60.13948752531708,2026-01-22 11h00.21.241620 +0530,
,Scenes\189a.jpg,19,0,20,,,,,,,j,0.9499919000081718,0.27972890000091866,None,,,,,,20,0,19,266.1290549999976,,,,,,,,,,,,,,,,,,,,,,,266.11329950002255,266.1290549999976,266.6131227000151,,,,,,,,,,,,266.65654330002144,,,,,,,,,,,,,,,266.65363000001526,266.65654330002144,266.65654330002144,266.65654330002144,269.63002380001126,j,0.9499919000081718,0.27972890000091866,269.63023520002025,269.63028640000266,None,,,,,,,,,,,,,,00032,001,2026-01-22_10h59.30.259,MST_task,2024.2.0,60.13948752531708,2026-01-22 11h00.21.241620 +0530,
,Scenes\124a.jpg,20,0,21,,,,,,,f,1.429475300014019,0.25564409999060445,None,,,,,,21,0,20,269.6459393000114,,,,,,,,,,,,,,,,,,,,,,,269.6305160000047,269.6459393000114,270.1297507999989,,,,,,,,,,,,270.1610638000129,,,,,,,,,,,,,,,270.1583803000103,270.1610638000129,270.1610638000129,270.1610638000129,273.146201800002,f,1.429475300014019,0.25564409999060445,273.14640590001363,273.1464715000184,None,,,,,,,,,,,,,,00032,001,2026-01-22_10h59.30.259,MST_task,2024.2.0,60.13948752531708,2026-01-22 11h00.21.241620 +0530,
,Objects\030a.jpg,21,0,22,,,,,,,f,0.8325788000074681,0.2558343000127934,None,,,,,,22,0,21,273.1627042000182,,,,,,,,,,,,,,,,,,,,,,,273.1468472999986,273.1627042000182,273.64634950002073,,,,,,,,,,,,273.66976260000956,,,,,,,,,,,,,,,273.6662686000054,273.66976260000956,273.66976260000956,273.66976260000956,276.6629268999968,f,0.8325788000074681,0.2558343000127934,276.6631282000162,276.6631958000071,None,,,,,,,,,,,,,,00032,001,2026-01-22_10h59.30.259,MST_task,2024.2.0,60.13948752531708,2026-01-22 11h00.21.241620 +0530,
,Objects\146a.jpg,22,0,23,,,,,,,f,0.9182788000034634,0.23171680001541972,None,,,,,,23,0,22,276.6791116000095,,,,,,,,,,,,,,,,,,,,,,,276.6635671000113,276.6791116000095,277.1636757000233,,,,,,,,,,,,,,,,,,,,,,,,,,,277.18183770001633,277.18410440001753,277.18410440001753,277.18410440001753,280.1802402000176,f,0.9182788000034634,0.23171680001541972,280.18044290001853,280.1805086999957,None,,,,,,,,,,,,,,00032,001,2026-01-22_10h59.30.259,MST_task,2024.2.0,60.13948752531708,2026-01-22 11h00.21.241620 +0530,
,Objects\081a.jpg,23,0,24,,,,,,,j,2.1315006999939214,0.22426390001783147,None,,,,,,24,0,23,280.1958457000146,,,,,,,,,,,,,,,,,,,,,,,280.1808021000179,280.1958457000146,280.67974300001515,,,,,,,,,,,,280.72297540001455,,,,,,,,,,,,,,,280.71927709999727,280.72297540001455,280.72297540001455,280.72297540001455,283.696133999998,j,2.1315006999939214,0.22426390001783147,283.69635040001594,283.6964162000222,None,,,,,,,,,,,,,,00032,001,2026-01-22_10h59.30.259,MST_task,2024.2.0,60.13948752531708,2026-01-22 11h00.21.241620 +0530,
,Objects\027a.jpg,24,0,25,,,,,,,f,0.9010711000009906,0.2239289999997709,None,,,,,,25,0,24,283.7124053000007,,,,,,,,,,,,,,,,,,,,,,,283.69671519999974,283.7124053000007,284.1963492000068,,,,,,,,,,,,284.2333707000071,,,,,,,,,,,,,,,284.23037520001526,284.2333707000071,284.2333707000071,284.2333707000071,287.2128101999988,f,0.9010711000009906,0.2239289999997709,287.2130233000207,287.21308660000795,None,,,,,,,,,,,,,,00032,001,2026-01-22_10h59.30.259,MST_task,2024.2.0,60.13948752531708,2026-01-22 11h00.21.241620 +0530,
,Objects\067a.jpg,25,0,26,,,,,,,f,1.5316504000220448,0.23941859998740256,None,,,,,,26,0,25,287.22914730000775,,,,,,,,,,,,,,,,,,,,,,,287.2133895000152,287.22914730000775,287.71335669999826,,,,,,,,,,,,,,,,,,,,,,,,,,,287.74488179999753,287.7471212000237,287.7471212000237,287.7471212000237,290.73008960002335,f,1.5316504000220448,0.23941859998740256,290.7302934000036,290.73035810000147,None,,,,,,,,,,,,,,00032,001,2026-01-22_10h59.30.259,MST_task,2024.2.0,60.13948752531708,2026-01-22 11h00.21.241620 +0530,
,Objects\099a.jpg,26,0,27,,,,,,,j,2.9007377000234555,None,None,,,,,,27,0,26,290.7457947000221,,,,,,,,,,,,,,,,,,,,,,,290.73065209999913,290.7457947000221,291.22980420000385,,,,,,,,,,,,291.2577409000078,,,,,,,,,,,,,,,291.254961300001,291.2577409000078,291.2577409000078,291.2577409000078,294.24632520001614,j,2.9007377000234555,None,294.2465302000055,294.2465962000133,None,,,,,,,,,,,,,,00032,001,2026-01-22_10h59.30.259,MST_task,2024.2.0,60.13948752531708,2026-01-22 11h00.21.241620 +0530,
,Objects\117a.jpg,27,0,28,,,,,,,j,1.7463418999977876,0.21635460000834428,None,,,,,,28,0,27,294.26265320001403,,,,,,,,,,,,,,,,,,,,,,,294.246893500007,294.26265320001403,294.7465299000032,,,,,,,,,,,,294.7796707999951,,,,,,,,,,,,,,,294.77736870001536,294.7796707999951,294.7796707999951,294.7796707999951,297.76305810001213,j,1.7463418999977876,0.21635460000834428,297.76325859999633,297.7633235999965,None,,,,,,,,,,,,,,00032,001,2026-01-22_10h59.30.259,MST_task,2024.2.0,60.13948752531708,2026-01-22 11h00.21.241620 +0530,
,Scenes\074a.jpg,28,0,29,,,,,,,j,1.0363981999980751,0.24749860001611523,None,,,,,,29,0,28,297.77922660001786,,,,,,,,,,,,,,,,,,,,,,,297.7636330999958,297.77922660001786,298.2630836000026,,,,,,,,,,,,298.29806110000936,,,,,,,,,,,,,,,298.2950189000112,298.29806110000936,298.29806110000936,298.29806110000936,301.27968070001225,j,1.0363981999980751,0.24749860001611523,301.2798880000191,301.2799537999963,None,,,,,,,,,,,,,,00032,001,2026-01-22_10h59.30.259,MST_task,2024.2.0,60.13948752531708,2026-01-22 11h00.21.241620 +0530,
,Scenes\164a.jpg,29,0,30,,,,,,,j,0.7401748000120278,0.2405195999890566,None,,,,,,30,0,29,301.2958673000103,,,,,,,,,,,,,,,,,,,,,,,301.280322400009,301.2958673000103,301.7797735000204,,,,,,,,,,,,301.8496937000018,,,,,,,,,,,,,,,301.8468247000128,301.8496937000018,301.8496937000018,301.8496937000018,304.7963965999952,j,0.7401748000120278,0.2405195999890566,304.79660060000606,304.7966670000169,None,,,,,,,,,,,,,,00032,001,2026-01-22_10h59.30.259,MST_task,2024.2.0,60.13948752531708,2026-01-22 11h00.21.241620 +0530,
,Scenes\098a.jpg,30,0,31,,,,,,,f,0.843884000001708,0.2001725999871269,None,,,,,,31,0,30,304.8126598999952,,,,,,,,,,,,,,,,,,,,,,,304.79696180002065,304.8126598999952,305.29664590000175,,,,,,,,,,,,305.32190410001203,,,,,,,,,,,,,,,305.31921539999894,305.32190410001203,305.32190410001203,305.32190410001203,308.3130597000127,f,0.843884000001708,0.2001725999871269,308.3132645000005,308.31332939999993,None,,,,,,,,,,,,,,00032,001,2026-01-22_10h59.30.259,MST_task,2024.2.0,60.13948752531708,2026-01-22 11h00.21.241620 +0530,
,Scenes\015a.jpg,31,0,32,,,,,,,j,1.0624236000003293,0.24802630001795478,None,,,,,,32,0,31,308.32918309999513,,,,,,,,,,,,,,,,,,,,,,,308.3136213000107,308.32918309999513,308.81288979999954,,,,,,,,,,,,308.8718402000086,,,,,,,,,,,,,,,308.86900030000834,308.8718402000086,308.8718402000086,308.8718402000086,311.82973700002185,j,1.0624236000003293,0.24802630001795478,311.8299408000021,311.83000760001596,None,,,,,,,,,,,,,,00032,001,2026-01-22_10h59.30.259,MST_task,2024.2.0,60.13948752531708,2026-01-22 11h00.21.241620 +0530,
,Scenes\019a.jpg,32,0,33,,,,,,,f,1.7586602999945171,0.2644207999983337,None,,,,,,33,0,32,311.8459913000115,,,,,,,,,,,,,,,,,,,,,,,311.830377700011,311.8459913000115,312.32979160000104,,,,,,,,,,,,312.3672307000088,,,,,,,,,,,,,,,312.36426220001886,312.3672307000088,312.3672307000088,312.3672307000088,315.3461624000047,f,1.7586602999945171,0.2644207999983337,315.3463716999977,315.3464382000093,None,,,,,,,,,,,,,,00032,001,2026-01-22_10h59.30.259,MST_task,2024.2.0,60.13948752531708,2026-01-22 11h00.21.241620 +0530,
,Scenes\106a.jpg,33,0,34,,,,,,,j,0.6488637000147719,0.27185520000057295,None,,,,,,34,0,33,315.3625865000067,,,,,,,,,,,,,,,,,,,,,,,315.3467352000007,315.3625865000067,315.8466738999996,,,,,,,,,,,,315.9416169000033,,,,,,,,,,,,,,,315.938449600013,315.9416169000033,315.9416169000033,315.9416169000033,318.8630669999984,j,0.6488637000147719,0.27185520000057295,318.86327130001155,318.8633364000125,None,,,,,,,,,,,,,,00032,001,2026-01-22_10h59.30.259,MST_task,2024.2.0,60.13948752531708,2026-01-22 11h00.21.241620 +0530,
,Scenes\102a.jpg,34,0,35,,,,,,,f,0.6561953999917023,0.22380949999205768,None,,,,,,35,0,34,318.87933590001194,,,,,,,,,,,,,,,,,,,,,,,318.8637047999946,318.87933590001194,319.36307439999655,,,,,,,,,,,,319.3982831000176,,,,,,,,,,,,,,,319.3959405000205,319.3982831000176,319.3982831000176,319.3982831000176,322.379746599996,f,0.6561953999917023,0.22380949999205768,322.37995660002343,322.3800227000029,None,,,,,,,,,,,,,,00032,001,2026-01-22_10h59.30.259,MST_task,2024.2.0,60.13948752531708,2026-01-22 11h00.21.241620 +0530,
,Objects\158a.jpg,35,0,36,,,,,,,f,0.9387572999985423,0.26472440001089126,None,,,,,,36,0,35,322.39635980001185,,,,,,,,,,,,,,,,,,,,,,,322.3803893000004,322.39635980001185,322.879760300013,,,,,,,,,,,,322.90711560001364,,,,,,,,,,,,,,,322.90401090000523,322.90711560001364,322.90711560001364,322.90711560001364,325.8961281000229,f,0.9387572999985423,0.26472440001089126,325.89633600000525,325.89640200001304,None,,,,,,,,,,,,,,00032,001,2026-01-22_10h59.30.259,MST_task,2024.2.0,60.13948752531708,2026-01-22 11h00.21.241620 +0530,
,Objects\110a.jpg,36,0,37,,,,,,,f,1.9038925000058953,0.2795558999932837,None,,,,,,37,0,36,325.9126746999973,,,,,,,,,,,,,,,,,,,,,,,325.89679810000234,325.9126746999973,326.39659270000993,,,,,,,,,,,,326.42253360000905,,,,,,,,,,,,,,,326.4200872000074,326.42253360000905,326.42253360000905,326.42253360000905,329.4129615999991,f,1.9038925000058953,0.2795558999932837,329.4131697000121,329.41323580002063,None,,,,,,,,,,,,,,00032,001,2026-01-22_10h59.30.259,MST_task,2024.2.0,60.13948752531708,2026-01-22 11h00.21.241620 +0530,
,Objects\172a.jpg,37,0,38,,,,,,,j,0.8786542000016198,0.2724467999942135,None,,,,,,38,0,37,329.42904000001727,,,,,,,,,,,,,,,,,,,,,,,329.413535700005,329.42904000001727,329.91262000001734,,,,,,,,,,,,329.93513180001173,,,,,,,,,,,,,,,329.9329723000119,329.93513180001173,329.93513180001173,329.93513180001173,332.92953340001986,j,0.8786542000016198,0.2724467999942135,332.92973960001837,332.92980380001245,None,,,,,,,,,,,,,,00032,001,2026-01-22_10h59.30.259,MST_task,2024.2.0,60.13948752531708,2026-01-22 11h00.21.241620 +0530,
,Objects\170a.jpg,38,0,39,,,,,,,None,,,f,0.015459999995073304,None,,,,39,0,38,332.9456829999981,,,,,,,,,,,,,,,,,,,,,,,332.93017460001283,332.9456829999981,333.4294332000136,,,,,,,,,,,,333.46000049999566,,,,,,,,,,,,,,,333.4574739000236,333.46000049999566,333.46000049999566,333.46000049999566,336.4463218000019,None,,,336.44651080001495,336.47958790001576,f,336.4626879999996,336.4626879999996,0.015459999995073304,None,,,,,,,,,,00032,001,2026-01-22_10h59.30.259,MST_task,2024.2.0,60.13948752531708,2026-01-22 11h00.21.241620 +0530,
,Objects\152a.jpg,39,0,40,,,,,,,f,1.1164451999939047,0.20820029999595135,None,,,,,,40,0,39,336.49582900002133,,,,,,,,,,,,,,,,,,,,,,,336.47994620000827,336.49582900002133,336.97976099999505,,,,,,,,,,,,337.0333491000056,,,,,,,,,,,,,,,337.0307600000233,337.0333491000056,337.0333491000056,337.0333491000056,339.9963926000055,f,1.1164451999939047,0.20820029999595135,339.9965933000203,339.9966575000144,None,,,,,,,,,,,,,,00032,001,2026-01-22_10h59.30.259,MST_task,2024.2.0,60.13948752531708,2026-01-22 11h00.21.241620 +0530,
,Objects\151a.jpg,40,0,41,,,,,,,f,1.2581951000029221,0.22337660001358017,None,,,,,,41,0,40,340.012615500018,,,,,,,,,,,,,,,,,,,,,,,339.997025699995,340.012615500018,340.49637870001607,,,,,,,,,,,,340.5322428000218,,,,,,,,,,,,,,,340.52995050000027,340.5322428000218,340.5322428000218,340.5322428000218,343.51299469999503,f,1.2581951000029221,0.22337660001358017,343.5131924000161,343.5132577000186,None,,,,,,,,,,,,,,00032,001,2026-01-22_10h59.30.259,MST_task,2024.2.0,60.13948752531708,2026-01-22 11h00.21.241620 +0530,
,Objects\148a.jpg,41,0,42,,,,,,,f,1.7379795000015292,0.2646742000069935,None,,,,,,42,0,41,343.5293573999952,,,,,,,,,,,,,,,,,,,,,,,343.51355250002234,343.5293573999952,344.012765499996,,,,,,,,,,,,344.0359548999986,,,,,,,,,,,,,,,344.03379470002255,344.0359548999986,344.0359548999986,344.0359548999986,347.02973120001843,f,1.7379795000015292,0.2646742000069935,347.02994310000213,347.03000880000764,None,,,,,,,,,,,,,,00032,001,2026-01-22_10h59.30.259,MST_task,2024.2.0,60.13948752531708,2026-01-22 11h00.21.241620 +0530,
,Scenes\031a.jpg,42,0,43,,,,,,,j,1.0077835000120103,0.2568457000015769,None,,,,,,43,0,42,347.0467642000003,,,,,,,,,,,,,,,,,,,,,,,347.03031070000725,347.0467642000003,347.52976249999483,,,,,,,,,,,,347.58996010001283,,,,,,,,,,,,,,,347.5870200000063,347.58996010001283,347.58996010001283,347.58996010001283,350.5461889000144,j,1.0077835000120103,0.2568457000015769,350.5464009999996,350.54646530002356,None,,,,,,,,,,,,,,00032,001,2026-01-22_10h59.30.259,MST_task,2024.2.0,60.13948752531708,2026-01-22 11h00.21.241620 +0530,
,Scenes\180a.jpg,43,0,44,,,,,,,j,0.670953399996506,0.24038120001205243,None,,,,,,44,0,43,350.5622716000071,,,,,,,,,,,,,,,,,,,,,,,350.54683740000473,350.5622716000071,351.04652530001476,,,,,,,,,,,,351.0947867000068,,,,,,,,,,,,,,,351.0917720000143,351.0947867000068,351.0947867000068,351.0947867000068,354.06317050001235,j,0.670953399996506,0.24038120001205243,354.06337180000264,354.06343959999504,None,,,,,,,,,,,,,,00032,001,2026-01-22_10h59.30.259,MST_task,2024.2.0,60.13948752531708,2026-01-22 11h00.21.241620 +0530,
,Scenes\119a.jpg,44,0,45,,,,,,,j,1.2348906999977771,0.21637439998448826,None,,,,,,45,0,44,354.07917010001256,,,,,,,,,,,,,,,,,,,,,,,354.06373270001495,354.07917010001256,354.5628716000065,,,,,,,,,,,,354.611115000007,,,,,,,,,,,,,,,354.6083509000018,354.611115000007,354.611115000007,354.611115000007,357.5797514000151,j,1.2348906999977771,0.21637439998448826,357.5799602000043,357.5800233000191,None,,,,,,,,,,,,,,00032,001,2026-01-22_10h59.30.259,MST_task,2024.2.0,60.13948752531708,2026-01-22 11h00.21.241620 +0530,
,Scenes\060a.jpg,45,0,46,,,,,,,j,0.7961436999903526,0.26466830002027564,None,,,,,,46,0,45,357.5960488000128,,,,,,,,,,,,,,,,,,,,,,,357.58038930001203,357.5960488000128,358.07974790001754,,,,,,,,,,,,358.21767120002187,,,,,,,,,,,,,,,358.21536160001415,358.21767120002187,358.21767120002187,358.21767120002187,361.0961968000047,j,0.7961436999903526,0.26466830002027564,361.0964195000124,361.09648440001183,None,,,,,,,,,,,,,,00032,001,2026-01-22_10h59.30.259,MST_task,2024.2.0,60.13948752531708,2026-01-22 11h00.21.241620 +0530,
,Scenes\030a.jpg,46,0,47,,,,,,,j,0.6257490999996662,0.2721654000051785,None,,,,,,47,0,46,361.11268680001376,,,,,,,,,,,,,,,,,,,,,,,361.09686650001095,361.11268680001376,361.5960526000126,,,,,,,,,,,,361.6287293000205,,,,,,,,,,,,,,,361.6258603000024,361.6287293000205,361.6287293000205,361.6287293000205,364.61307750002015,j,0.6257490999996662,0.2721654000051785,364.6132875000185,364.61335460000555,None,,,,,,,,,,,,,,00032,001,2026-01-22_10h59.30.259,MST_task,2024.2.0,60.13948752531708,2026-01-22 11h00.21.241620 +0530,
,Scenes\121a.jpg,47,0,48,,,,,,,j,0.7422981999989133,0.27161500000511296,None,,,,,,48,0,47,364.62913220000337,,,,,,,,,,,,,,,,,,,,,,,364.6136781999958,364.62913220000337,365.11288630001945,,,,,,,,,,,,365.1601630000223,,,,,,,,,,,,,,,365.15777270001126,365.1601630000223,365.1601630000223,365.1601630000223,368.1297846000234,j,0.7422981999989133,0.27161500000511296,368.1299738000089,368.130028900021,None,,,,,,,,,,,,,,00032,001,2026-01-22_10h59.30.259,MST_task,2024.2.0,60.13948752531708,2026-01-22 11h00.21.241620 +0530,
,Scenes\041a.jpg,48,0,49,,,,,,,j,0.7213851999840699,0.26466179999988526,None,,,,,,49,0,48,368.145929899998,,,,,,,,,,,,,,,,,,,,,,,368.1303637000092,368.145929899998,368.6294653000077,,,,,,,,,,,,368.67633330001263,,,,,,,,,,,,,,,368.673349699995,368.67633330001263,368.67633330001263,368.67633330001263,371.6461363999988,j,0.7213851999840699,0.26466179999988526,371.6462186000135,371.6462373000104,None,,,,,,,,,,,,,,00032,001,2026-01-22_10h59.30.259,MST_task,2024.2.0,60.13948752531708,2026-01-22 11h00.21.241620 +0530,
,Objects\187a.jpg,49,0,50,,,,,,,f,0.8048426999885123,0.2729018999962136,None,,,,,,50,0,49,371.6624315000081,,,,,,,,,,,,,,,,,,,,,,,371.6463309999963,371.6624315000081,372.14634760000627,,,,,,,,,,,,372.18492220001644,,,,,,,,,,,,,,,372.1822277000174,372.18492220001644,372.18492220001644,372.18492220001644,375.1630485000205,f,0.8048426999885123,0.2729018999962136,375.16325620000134,375.163321,None,,,,,,,,,,,,,,00032,001,2026-01-22_10h59.30.259,MST_task,2024.2.0,60.13948752531708,2026-01-22 11h00.21.241620 +0530,
,Objects\073a.jpg,50,0,51,,,,,,,f,1.1439290000125766,0.21605809999164194,None,,,,,,51,0,50,375.179128400021,,,,,,,,,,,,,,,,,,,,,,,375.1636911999958,375.179128400021,375.66310220002197,,,,,,,,,,,,375.69411010001204,,,,,,,,,,,,,,,375.69071350002196,375.69411010001204,375.69411010001204,375.69411010001204,378.67966069999966,f,1.1439290000125766,0.21605809999164194,378.6798637000029,378.67993060001754,None,,,,,,,,,,,,,,00032,001,2026-01-22_10h59.30.259,MST_task,2024.2.0,60.13948752531708,2026-01-22 11h00.21.241620 +0530,
,Objects\020a.jpg,51,0,52,,,,,,,f,1.495883199997479,0.28755060001276433,None,,,,,,52,0,51,378.6956211000215,,,,,,,,,,,,,,,,,,,,,,,378.68029770001885,378.6956211000215,379.1797599999991,,,,,,,,,,,,379.20653440000024,,,,,,,,,,,,,,,379.20376259999466,379.20653440000024,379.20653440000024,379.20653440000024,382.19632889999775,f,1.495883199997479,0.28755060001276433,382.19653640000615,382.1966012000048,None,,,,,,,,,,,,,,00032,001,2026-01-22_10h59.30.259,MST_task,2024.2.0,60.13948752531708,2026-01-22 11h00.21.241620 +0530,
,Objects\163a.jpg,52,0,53,,,,,,,j,2.531388000003062,0.2161766999925021,None,,,,,,53,0,52,382.21335340000223,,,,,,,,,,,,,,,,,,,,,,,382.1969666000223,382.21335340000223,382.6963790000009,,,,,,,,,,,,382.73898870000266,,,,,,,,,,,,,,,382.7359381999995,382.73898870000266,382.73898870000266,382.73898870000266,385.7128492000047,j,2.531388000003062,0.2161766999925021,385.7130516000034,385.71311609999975,None,,,,,,,,,,,,,,00032,001,2026-01-22_10h59.30.259,MST_task,2024.2.0,60.13948752531708,2026-01-22 11h00.21.241620 +0530,
,Objects\053a.jpg,53,0,54,,,,,,,f,0.9629166999948211,0.21639779998804443,None,,,,,,54,0,53,385.7291699000052,,,,,,,,,,,,,,,,,,,,,,,385.7134173999948,385.7291699000052,386.2131551000057,,,,,,,,,,,,386.2508838000067,,,,,,,,,,,,,,,386.24813290001475,386.2508838000067,386.2508838000067,386.2508838000067,389.22949399999925,f,0.9629166999948211,0.21639779998804443,389.22969659999944,389.2297610999958,None,,,,,,,,,,,,,,00032,001,2026-01-22_10h59.30.259,MST_task,2024.2.0,60.13948752531708,2026-01-22 11h00.21.241620 +0530,
,Objects\090a.jpg,54,0,55,,,,,,,None,,,j,0.0030667999817524105,None,,,,55,0,54,389.2455377000151,,,,,,,,,,,,,,,,,,,,,,,389.23012380002183,389.2455377000151,389.7294202000194,,,,,,,,,,,,389.755041299999,,,,,,,,,,,,,,,389.75244900002144,389.755041299999,389.755041299999,389.755041299999,392.746372900001,None,,,392.7465521999984,392.7798953000165,j,392.7627238999994,392.7627238999994,0.0030667999817524105,None,,,,,,,,,,00032,001,2026-01-22_10h59.30.259,MST_task,2024.2.0,60.13948752531708,2026-01-22 11h00.21.241620 +0530,
,Objects\169a.jpg,55,0,56,,,,,,,j,2.160142700013239,0.19178529997589067,None,,,,,,56,0,55,392.7956592999981,,,,,,,,,,,,,,,,,,,,,,,392.7802410000004,392.7956592999981,393.27976790000685,,,,,,,,,,,,393.30200019999756,,,,,,,,,,,,,,,393.2992719000031,393.30200019999756,393.30200019999756,393.30200019999756,396.29632480000146,j,2.160142700013239,0.19178529997589067,396.29652560001705,396.2965916999965,None,,,,,,,,,,,,,,00032,001,2026-01-22_10h59.30.259,MST_task,2024.2.0,60.13948752531708,2026-01-22 11h00.21.241620 +0530,
,Scenes\167a.jpg,56,0,57,,,,,,,f,0.7081066000100691,0.26332160001038574,None,,,,,,57,0,56,396.3127046000154,,,,,,,,,,,,,,,,,,,,,,,396.29688320000423,396.3127046000154,396.7963588999992,,,,,,,,,,,,396.86663110001246,,,,,,,,,,,,,,,396.86354970000684,396.86663110001246,396.86663110001246,396.86663110001246,399.81308330001775,f,0.7081066000100691,0.26332160001038574,399.8132956000045,399.81335939999553,None,,,,,,,,,,,,,,00032,001,2026-01-22_10h59.30.259,MST_task,2024.2.0,60.13948752531708,2026-01-22 11h00.21.241620 +0530,
,Scenes\146a.jpg,57,0,58,,,,,,,j,0.887745600019116,0.24083119997521862,None,,,,,,58,0,57,399.82930410001427,,,,,,,,,,,,,,,,,,,,,,,399.81373009999515,399.82930410001427,400.31298320001224,,,,,,,,,,,,400.3580030000012,,,,,,,,,,,,,,,400.355065700016,400.3580030000012,400.3580030000012,400.3580030000012,403.3296534999972,j,0.887745600019116,0.24083119997521862,403.32985340000596,403.3299187000084,None,,,,,,,,,,,,,,00032,001,2026-01-22_10h59.30.259,MST_task,2024.2.0,60.13948752531708,2026-01-22 11h00.21.241620 +0530,
,Scenes\112a.jpg,58,0,59,,,,,,,j,1.2078800000017509,0.2082556000095792,None,,,,,,59,0,58,403.34571439999854,,,,,,,,,,,,,,,,,,,,,,,403.3302892000065,403.34571439999854,403.8296931000077,,,,,,,,,,,,403.8625221000111,,,,,,,,,,,,,,,403.859440500004,403.8625221000111,403.8625221000111,403.8625221000111,406.8462997000024,j,1.2078800000017509,0.2082556000095792,406.84650480002165,406.84657049999805,None,,,,,,,,,,,,,,00032,001,2026-01-22_10h59.30.259,MST_task,2024.2.0,60.13948752531708,2026-01-22 11h00.21.241620 +0530,
,Scenes\136a.jpg,59,0,60,,,,,,,f,1.160931199992774,0.25640509999357164,None,,,,,,60,0,59,406.86259240002255,,,,,,,,,,,,,,,,,,,,,,,406.84686290001264,406.86259240002255,407.34642119999626,,,,,,,,,,,,407.3728344000119,,,,,,,,,,,,,,,407.37008799999603,407.3728344000119,407.3728344000119,407.3728344000119,410.36295199999586,f,1.160931199992774,0.25640509999357164,410.36315640000976,410.3632223000168,None,,,,,,,,,,,,,,00032,001,2026-01-22_10h59.30.259,MST_task,2024.2.0,60.13948752531708,2026-01-22 11h00.21.241620 +0530,
,Scenes\082a.jpg,60,0,61,,,,,,,f,1.1054622999799903,0.27245860002585687,None,,,,,,61,0,60,410.3793125000084,,,,,,,,,,,,,,,,,,,,,,,410.3635896000196,410.3793125000084,410.86349849999533,,,,,,,,,,,,,,,,,,,,,,,,,,,410.89792230000603,410.9007521000167,410.9007521000167,410.9007521000167,413.879689399997,f,1.1054622999799903,0.27245860002585687,413.87989390001167,413.879958000005,None,,,,,,,,,,,,,,00032,001,2026-01-22_10h59.30.259,MST_task,2024.2.0,60.13948752531708,2026-01-22 11h00.21.241620 +0530,
,Scenes\097a.jpg,61,0,62,,,,,,,f,1.182035400008317,0.22400309998192824,None,,,,,,62,0,61,413.89602680000826,,,,,,,,,,,,,,,,,,,,,,,413.88032830000157,413.89602680000826,414.37970380001934,,,,,,,,,,,,414.4319843999983,,,,,,,,,,,,,,,414.42854730002,414.4319843999983,414.4319843999983,414.4319843999983,417.39635460000136,f,1.182035400008317,0.22400309998192824,417.3965532000002,417.396616300015,None,,,,,,,,,,,,,,00032,001,2026-01-22_10h59.30.259,MST_task,2024.2.0,60.13948752531708,2026-01-22 11h00.21.241620 +0530,
,Scenes\123a.jpg,62,0,63,,,,,,,j,0.7872055000043474,0.2648847999807913,None,,,,,,63,0,62,417.41266319999704,,,,,,,,,,,,,,,,,,,,,,,417.3969796000165,417.41266319999704,417.89617870000075,,,,,,,,,,,,417.9707813000132,,,,,,,,,,,,,,,417.96798330001184,417.9707813000132,417.9707813000132,417.9707813000132,420.91312030001427,j,0.7872055000043474,0.2648847999807913,420.91332790002343,420.91339329999755,None,,,,,,,,,,,,,,00032,001,2026-01-22_10h59.30.259,MST_task,2024.2.0,60.13948752531708,2026-01-22 11h00.21.241620 +0530,
,Objects\180a.jpg,63,0,64,,,,,,,f,1.3858836999861524,0.23209199999109842,None,,,,,,64,0,63,420.9292901000008,,,,,,,,,,,,,,,,,,,,,,,420.91376769999624,420.9292901000008,421.41350690001855,,,,,,,,,,,,421.4598700000206,,,,,,,,,,,,,,,421.4571761999978,421.4598700000206,421.4598700000206,421.4598700000206,424.42945110000437,f,1.3858836999861524,0.23209199999109842,424.42964370001573,424.4297082000121,None,,,,,,,,,,,,,,00032,001,2026-01-22_10h59.30.259,MST_task,2024.2.0,60.13948752531708,2026-01-22 11h00.21.241620 +0530,
,Objects\145a.jpg,64,0,65,,,,,,,f,1.008607999974629,0.26435670000500977,None,,,,,,65,0,64,424.44594990002224,,,,,,,,,,,,,,,,,,,,,,,424.4300036000204,424.44594990002224,424.92979680001736,,,,,,,,,,,,425.05354730002,,,,,,,,,,,,,,,425.0511753000028,425.05354730002,425.05354730002,425.05354730002,427.9461761999992,f,1.008607999974629,0.26435670000500977,427.9463754000026,427.9464390000212,None,,,,,,,,,,,,,,00032,001,2026-01-22_10h59.30.259,MST_task,2024.2.0,60.13948752531708,2026-01-22 11h00.21.241620 +0530,
,Objects\166a.jpg,65,0,66,,,,,,,f,0.7770215000200551,0.24015979998512194,None,,,,,,66,0,65,427.9626644999953,,,,,,,,,,,,,,,,,,,,,,,427.9468077000056,427.9626644999953,428.44609630000195,,,,,,,,,,,,428.48476740001934,,,,,,,,,,,,,,,428.4817670000193,428.48476740001934,428.48476740001934,428.48476740001934,431.4629791000043,f,0.7770215000200551,0.24015979998512194,431.4631806999969,431.46324549999554,None,,,,,,,,,,,,,,00032,001,2026-01-22_10h59.30.259,MST_task,2024.2.0,60.13948752531708,2026-01-22 11h00.21.241620 +0530,
,Objects\026a.jpg,66,0,67,,,,,,,j,2.298160500009544,0.18474779999814928,None,,,,,,67,0,66,431.47935639999923,,,,,,,,,,,,,,,,,,,,,,,431.46361390000675,431.47935639999923,431.96303360001184,,,,,,,,,,,,431.99569310000516,,,,,,,,,,,,,,,431.99269959999947,431.99569310000516,431.99569310000516,431.99569310000516,434.9796157999954,j,2.298160500009544,0.18474779999814928,434.97983730002306,434.9799034000025,None,,,,,,,,,,,,,,00032,001,2026-01-22_10h59.30.259,MST_task,2024.2.0,60.13948752531708,2026-01-22 11h00.21.241620 +0530,
,Objects\135a.jpg,67,0,68,,,,,,,f,1.889322999981232,0.22399550001136959,None,,,,,,68,0,67,434.9959488000022,,,,,,,,,,,,,,,,,,,,,,,434.9802736999991,434.9959488000022,435.47977010000614,,,,,,,,,,,,435.53264410002157,,,,,,,,,,,,,,,435.5293606000196,435.53264410002157,435.53264410002157,435.53264410002157,438.4964065999957,f,1.889322999981232,0.22399550001136959,438.49660070001846,438.49666669999715,None,,,,,,,,,,,,,,00032,001,2026-01-22_10h59.30.259,MST_task,2024.2.0,60.13948752531708,2026-01-22 11h00.21.241620 +0530,
,Objects\100a.jpg,68,0,69,,,,,,,j,1.9889482000144199,0.19183549997978844,None,,,,,,69,0,68,438.5127044999972,,,,,,,,,,,,,,,,,,,,,,,438.4970304000017,438.5127044999972,438.996415600006,,,,,,,,,,,,439.03305399999954,,,,,,,,,,,,,,,439.03009320001,439.03305399999954,439.03305399999954,439.03305399999954,442.0134585000051,j,1.9889482000144199,0.19183549997978844,442.0136514000187,442.01371600001585,None,,,,,,,,,,,,,,00032,001,2026-01-22_10h59.30.259,MST_task,2024.2.0,60.13948752531708,2026-01-22 11h00.21.241620 +0530,
,Objects\141a.jpg,69,0,70,,,,,,,j,2.26751289999811,0.28780900000128895,None,,,,,,70,0,69,442.0293279000034,,,,,,,,,,,,,,,,,,,,,,,442.0140031000192,442.0293279000034,442.51311580001493,,,,,,,,,,,,442.578276300017,,,,,,,,,,,,,,,442.5751461000182,442.578276300017,442.578276300017,442.578276300017,445.5297730000166,j,2.26751289999811,0.28780900000128895,445.52997260002303,445.5300369000179,None,,,,,,,,,,,,,,00032,001,2026-01-22_10h59.30.259,MST_task,2024.2.0,60.13948752531708,2026-01-22 11h00.21.241620 +0530,
,Scenes\046a.jpg,70,0,71,,,,,,,j,1.5003881999873556,0.1927964000205975,None,,,,,,71,0,70,445.545950300002,,,,,,,,,,,,,,,,,,,,,,,445.5303240000212,445.545950300002,446.0298324000032,,,,,,,,,,,,446.06530109999585,,,,,,,,,,,,,,,446.06262589999824,446.06530109999585,446.06530109999585,446.06530109999585,449.0464359000034,j,1.5003881999873556,0.1927964000205975,449.0466377999983,449.0467028999992,None,,,,,,,,,,,,,,00032,001,2026-01-22_10h59.30.259,MST_task,2024.2.0,60.13948752531708,2026-01-22 11h00.21.241620 +0530,
,Scenes\012a.jpg,71,0,72,,,,,,,j,1.1550709000148345,0.1918318999814801,None,,,,,,72,0,71,449.0624666000076,,,,,,,,,,,,,,,,,,,,,,,449.04706710000755,449.0624666000076,449.5463386000192,,,,,,,,,,,,449.5793110000086,,,,,,,,,,,,,,,449.5762367999996,449.5793110000086,449.5793110000086,449.5793110000086,452.56325590002234,j,1.1550709000148345,0.1918318999814801,452.56345380001585,452.563516299997,None,,,,,,,,,,,,,,00032,001,2026-01-22_10h59.30.259,MST_task,2024.2.0,60.13948752531708,2026-01-22 11h00.21.241620 +0530,
,Scenes\165a.jpg,72,0,73,,,,,,,f,2.0293104000156745,0.26335419999668375,None,,,,,,73,0,72,452.57938589999685,,,,,,,,,,,,,,,,,,,,,,,452.56387680000626,452.57938589999685,453.06303849999676,,,,,,,,,,,,453.09725150000304,,,,,,,,,,,,,,,453.09433020002325,453.09725150000304,453.09725150000304,453.09725150000304,456.0794039000175,f,2.0293104000156745,0.26335419999668375,456.0796049000055,456.0796696000034,None,,,,,,,,,,,,,,00032,001,2026-01-22_10h59.30.259,MST_task,2024.2.0,60.13948752531708,2026-01-22 11h00.21.241620 +0530,
,Scenes\107a.jpg,73,0,74,,,,,,,j,1.1735421000048518,0.23248039997997694,None,,,,,,74,0,73,456.0956693000044,,,,,,,,,,,,,,,,,,,,,,,456.0799615000142,456.0956693000044,456.57983120001154,,,,,,,,,,,,456.62427100000787,,,,,,,,,,,,,,,456.62087600000086,456.62427100000787,456.62427100000787,456.62427100000787,459.59643520001555,j,1.1735421000048518,0.23248039997997694,459.5966408000095,459.59670350002125,None,,,,,,,,,,,,,,00032,001,2026-01-22_10h59.30.259,MST_task,2024.2.0,60.13948752531708,2026-01-22 11h00.21.241620 +0530,
,Scenes\179a.jpg,74,0,75,,,,,,,j,0.9913365000102203,0.24035649999859743,None,,,,,,75,0,74,459.61265500000445,,,,,,,,,,,,,,,,,,,,,,,459.59700020001037,459.61265500000445,460.09622180002043,,,,,,,,,,,,460.190786799998,,,,,,,,,,,,,,,460.18586270001833,460.190786799998,460.190786799998,460.190786799998,463.11240949999774,j,0.9913365000102203,0.24035649999859743,463.11247860000003,463.1124975999992,None,,,,,,,,,,,,,,00032,001,2026-01-22_10h59.30.259,MST_task,2024.2.0,60.13948752531708,2026-01-22 11h00.21.241620 +0530,
,Scenes\128a.jpg,75,0,76,,,,,,,j,1.0163258999818936,0.19215960000292398,None,,,,,,76,0,75,463.1286620000028,,,,,,,,,,,,,,,,,,,,,,,463.1126052000036,463.1286620000028,463.6128026000224,,,,,,,,,,,,,,,,,,,,,,,,,,,463.666649300023,463.6695280999993,463.6695280999993,463.6695280999993,466.61277560002054,j,1.0163258999818936,0.19215960000292398,466.6129726000072,466.6130361999967,None,,,,,,,,,,,,,,00032,001,2026-01-22_10h59.30.259,MST_task,2024.2.0,60.13948752531708,2026-01-22 11h00.21.241620 +0530,
,Scenes\172a.jpg,76,0,77,,,,,,,j,1.1303177000081632,0.24052870000014082,None,,,,,,77,0,76,466.628979400004,,,,,,,,,,,,,,,,,,,,,,,466.6134057000163,466.628979400004,467.11309980001533,,,,,,,,,,,,467.14762679999694,,,,,,,,,,,,,,,467.14400130001013,467.14762679999694,467.14762679999694,467.14762679999694,470.1294310000085,j,1.1303177000081632,0.24052870000014082,470.12962230000994,470.1296871000086,None,,,,,,,,,,,,,,00032,001,2026-01-22_10h59.30.259,MST_task,2024.2.0,60.13948752531708,2026-01-22 11h00.21.241620 +0530,
,Objects\024a.jpg,77,0,78,,,,,,,f,0.9771557000058237,0.24073479999788105,None,,,,,,78,0,77,470.14613860001555,,,,,,,,,,,,,,,,,,,,,,,470.1298766999971,470.14613860001555,470.629699800018,,,,,,,,,,,,470.6525821000105,,,,,,,,,,,,,,,470.64997960001347,470.6525821000105,470.6525821000105,470.6525821000105,473.6464834000217,f,0.9771557000058237,0.24073479999788105,473.64669900000445,473.6467623000208,None,,,,,,,,,,,,,,00032,001,2026-01-22_10h59.30.259,MST_task,2024.2.0,60.13948752531708,2026-01-22 11h00.21.241620 +0530,
,Objects\182a.jpg,78,0,79,,,,,,,f,1.2534943000064231,0.24004119998426177,None,,,,,,79,0,78,473.66279490001034,,,,,,,,,,,,,,,,,,,,,,,473.6471268000023,473.66279490001034,474.1461299000075,,,,,,,,,,,,474.1688008000201,,,,,,,,,,,,,,,474.1665520000097,474.1688008000201,474.1688008000201,474.1688008000201,477.1630842000013,f,1.2534943000064231,0.24004119998426177,477.1632809000148,477.163345900015,None,,,,,,,,,,,,,,00032,001,2026-01-22_10h59.30.259,MST_task,2024.2.0,60.13948752531708,2026-01-22 11h00.21.241620 +0530,
,Objects\093a.jpg,79,0,80,,,,,,,j,1.700067099998705,0.21616060001542792,None,,,,,,80,0,79,477.17930730001535,,,,,,,,,,,,,,,,,,,,,,,477.16364090002025,477.17930730001535,477.6631166000152,,,,,,,,,,,,477.6975725000084,,,,,,,,,,,,,,,477.6952960000199,477.6975725000084,477.6975725000084,477.6975725000084,480.679300000018,j,1.700067099998705,0.21616060001542792,480.67949750000844,480.67956270001014,None,,,,,,,,,,,,,,00032,001,2026-01-22_10h59.30.259,MST_task,2024.2.0,60.13948752531708,2026-01-22 11h00.21.241620 +0530,
,Objects\143a.jpg,80,0,81,,,,,,,f,2.445715800015023,0.2165101999999024,None,,,,,,81,0,80,480.69586810001056,,,,,,,,,,,,,,,,,,,,,,,480.6798508000211,480.69586810001056,481.1796908999968,,,,,,,,,,,,481.21643870000844,,,,,,,,,,,,,,,481.2141957000131,481.21643870000844,481.21643870000844,481.21643870000844,484.1800656999985,f,2.445715800015023,0.2165101999999024,484.1802821000165,484.18034610000905,None,,,,,,,,,,,,,,00032,001,2026-01-22_10h59.30.259,MST_task,2024.2.0,60.13948752531708,2026-01-22 11h00.21.241620 +0530,
,Objects\134a.jpg,81,0,82,,,,,,,f,1.516352700011339,0.26443479998852126,None,,,,,,82,0,81,484.19603010002174,,,,,,,,,,,,,,,,,,,,,,,484.18064980002237,484.19603010002174,484.6795267999987,,,,,,,,,,,,484.72131829999853,,,,,,,,,,,,,,,484.71822700000484,484.72131829999853,484.72131829999853,484.72131829999853,487.69615040000645,f,1.516352700011339,0.26443479998852126,487.69635710000875,487.69642200000817,None,,,,,,,,,,,,,,00032,001,2026-01-22_10h59.30.259,MST_task,2024.2.0,60.13948752531708,2026-01-22 11h00.21.241620 +0530,
,Objects\075a.jpg,82,0,83,,,,,,,f,1.7137023000104818,0.24019939999561757,None,,,,,,83,0,82,487.71237360002124,,,,,,,,,,,,,,,,,,,,,,,487.69680140001583,487.71237360002124,488.196082200011,,,,,,,,,,,,488.22058550000656,,,,,,,,,,,,,,,488.218277500011,488.22058550000656,488.22058550000656,488.22058550000656,491.2130805000197,f,1.7137023000104818,0.24019939999561757,491.21327760000713,491.21333990001585,None,,,,,,,,,,,,,,00032,001,2026-01-22_10h59.30.259,MST_task,2024.2.0,60.13948752531708,2026-01-22 11h00.21.241620 +0530,
,Objects\083a.jpg,83,0,84,,,,,,,f,0.9365605000057258,0.2164178999955766,None,,,,,,84,0,83,491.2293340000033,,,,,,,,,,,,,,,,,,,,,,,491.2137038000219,491.2293340000033,491.7130981000082,,,,,,,,,,,,491.7330822000222,,,,,,,,,,,,,,,491.7300710999989,491.7330822000222,491.7330822000222,491.7330822000222,494.7138421999989,f,0.9365605000057258,0.2164178999955766,494.71403770000325,494.7141027000034,None,,,,,,,,,,,,,,00032,001,2026-01-22_10h59.30.259,MST_task,2024.2.0,60.13948752531708,2026-01-22 11h00.21.241620 +0530,
,Scenes\002a.jpg,84,0,85,,,,,,,j,0.8309146999963559,0.23192780002136715,None,,,,,,85,0,84,494.72956100001466,,,,,,,,,,,,,,,,,,,,,,,494.7143957000226,494.72956100001466,495.2131064000132,,,,,,,,,,,,495.2474430000002,,,,,,,,,,,,,,,495.244631700014,495.2474430000002,495.2474430000002,495.2474430000002,498.2293692000094,j,0.8309146999963559,0.23192780002136715,498.2295656000206,498.22963010001695,None,,,,,,,,,,,,,,00032,001,2026-01-22_10h59.30.259,MST_task,2024.2.0,60.13948752531708,2026-01-22 11h00.21.241620 +0530,
,Scenes\070a.jpg,85,0,86,,,,,,,f,1.595795300003374,0.23174079999444075,None,,,,,,86,0,85,498.2458466000098,,,,,,,,,,,,,,,,,,,,,,,498.2299987000006,498.2458466000098,498.72974550002255,,,,,,,,,,,,498.7625539000146,,,,,,,,,,,,,,,498.75951940001687,498.7625539000146,498.7625539000146,498.7625539000146,501.7471051000175,f,1.595795300003374,0.23174079999444075,501.7473011999973,501.747365600022,None,,,,,,,,,,,,,,00032,001,2026-01-22_10h59.30.259,MST_task,2024.2.0,60.13948752531708,2026-01-22 11h00.21.241620 +0530,
,Scenes\018a.jpg,86,0,87,,,,,,,f,1.41174919999321,0.24904910000623204,None,,,,,,87,0,86,501.7625395000214,,,,,,,,,,,,,,,,,,,,,,,501.74773960001767,501.7625395000214,502.2464637999947,,,,,,,,,,,,502.2738818000071,,,,,,,,,,,,,,,502.27113190002274,502.2738818000071,502.2738818000071,502.2738818000071,505.26372840002296,f,1.41174919999321,0.24904910000623204,505.263927299995,505.2639924999967,None,,,,,,,,,,,,,,00032,001,2026-01-22_10h59.30.259,MST_task,2024.2.0,60.13948752531708,2026-01-22 11h00.21.241620 +0530,
,Scenes\063a.jpg,87,0,88,,,,,,,j,0.7569026999990456,0.22484979999717325,None,,,,,,88,0,87,505.2797244999965,,,,,,,,,,,,,,,,,,,,,,,505.26430229999823,505.2797244999965,505.76272640001844,,,,,,,,,,,,505.8087572000222,,,,,,,,,,,,,,,505.80550129999756,505.8087572000222,505.8087572000222,505.8087572000222,508.77972670001327,j,0.7569026999990456,0.22484979999717325,508.7799248000083,508.7799905000138,None,,,,,,,,,,,,,,00032,001,2026-01-22_10h59.30.259,MST_task,2024.2.0,60.13948752531708,2026-01-22 11h00.21.241620 +0530,
,Scenes\191a.jpg,88,0,89,,,,,,,j,1.440187900007004,0.22491309998440556,None,,,,,,89,0,88,508.79604590000235,,,,,,,,,,,,,,,,,,,,,,,508.7803569000098,508.79604590000235,509.279554800014,,,,,,,,,,,,509.325419700006,,,,,,,,,,,,,,,509.32252909999806,509.325419700006,509.325419700006,509.325419700006,512.2971460999979,j,1.440187900007004,0.22491309998440556,512.2973623000144,512.2974345000111,None,,,,,,,,,,,,,,00032,001,2026-01-22_10h59.30.259,MST_task,2024.2.0,60.13948752531708,2026-01-22 11h00.21.241620 +0530,
,Scenes\035a.jpg,89,0,90,,,,,,,j,2.708264299988514,None,None,,,,,,90,0,89,512.312723400013,,,,,,,,,,,,,,,,,,,,,,,512.2977342000231,512.312723400013,512.7962494000094,,,,,,,,,,,,512.8660443999979,,,,,,,,,,,,,,,512.8633564000193,512.8660443999979,512.8660443999979,512.8660443999979,515.812683199998,j,2.708264299988514,None,515.8128799000115,515.8129448000109,None,,,,,,,,,,,,,,00032,001,2026-01-22_10h59.30.259,MST_task,2024.2.0,60.13948752531708,2026-01-22 11h00.21.241620 +0530,
,Scenes\126a.jpg,90,0,91,,,,,,,j,0.9243511000240687,0.21613359998445958,None,,,,,,91,0,90,515.8299511000223,,,,,,,,,,,,,,,,,,,,,,,515.8132355000125,515.8299511000223,516.3127587000199,,,,,,,,,,,,516.3459379000124,,,,,,,,,,,,,,,516.3430588000047,516.3459379000124,516.3459379000124,516.3459379000124,519.3138969000138,j,0.9243511000240687,0.21613359998445958,519.3140933999966,519.3141579000221,None,,,,,,,,,,,,,,00032,001,2026-01-22_10h59.30.259,MST_task,2024.2.0,60.13948752531708,2026-01-22 11h00.21.241620 +0530,
,Objects\165a.jpg,91,0,92,,,,,,,f,0.8353098000225145,0.24828859997796826,None,,,,,,92,0,91,519.3293715000036,,,,,,,,,,,,,,,,,,,,,,,519.3145223000029,519.3293715000036,519.8130360000068,,,,,,,,,,,,519.8662046999962,,,,,,,,,,,,,,,519.8633846000012,519.8662046999962,519.8662046999962,519.8662046999962,522.8295146000164,f,0.8353098000225145,0.24828859997796826,522.8297078000032,522.8297721999988,None,,,,,,,,,,,,,,00032,001,2026-01-22_10h59.30.259,MST_task,2024.2.0,60.13948752531708,2026-01-22 11h00.21.241620 +0530,
,Objects\033a.jpg,92,0,93,,,,,,,f,0.8655320999969263,0.22411430001375265,None,,,,,,93,0,92,522.8462301999971,,,,,,,,,,,,,,,,,,,,,,,522.8301341000188,522.8462301999971,523.3294667000009,,,,,,,,,,,,523.3643889999948,,,,,,,,,,,,,,,523.3621138000162,523.3643889999948,523.3643889999948,523.3643889999948,526.3464821000234,f,0.8655320999969263,0.22411430001375265,526.3466794000124,526.3467441000103,None,,,,,,,,,,,,,,00032,001,2026-01-22_10h59.30.259,MST_task,2024.2.0,60.13948752531708,2026-01-22 11h00.21.241620 +0530,
,Objects\125a.jpg,93,0,94,,,,,,,j,1.320203900017077,0.20024360000388697,None,,,,,,94,0,93,526.3624383000133,,,,,,,,,,,,,,,,,,,,,,,526.3470425000123,526.3624383000133,526.8461613999971,,,,,,,,,,,,526.8696746000205,,,,,,,,,,,,,,,526.8665688000037,526.8696746000205,526.8696746000205,526.8696746000205,529.8627719000215,j,1.320203900017077,0.20024360000388697,529.8629674999975,529.863030700013,None,,,,,,,,,,,,,,00032,001,2026-01-22_10h59.30.259,MST_task,2024.2.0,60.13948752531708,2026-01-22 11h00.21.241620 +0530,
,Objects\037a.jpg,94,0,95,,,,,,,f,1.1005378999980167,0.2715796999982558,None,,,,,,95,0,94,529.8794538000075,,,,,,,,,,,,,,,,,,,,,,,529.8633890000056,529.8794538000075,530.3631193000183,,,,,,,,,,,,530.4096996000153,,,,,,,,,,,,,,,530.4073937000067,530.4096996000153,530.4096996000153,530.4096996000153,533.3795185000054,f,1.1005378999980167,0.2715796999982558,533.3797216000094,533.3797865000088,None,,,,,,,,,,,,,,00032,001,2026-01-22_10h59.30.259,MST_task,2024.2.0,60.13948752531708,2026-01-22 11h00.21.241620 +0530,
,Objects\126a.jpg,95,0,96,,,,,,,f,2.0322629000002053,0.2715829999942798,None,,,,,,96,0,95,533.395803499996,,,,,,,,,,,,,,,,,,,,,,,533.3801683000056,533.395803499996,533.8793598000193,,,,,,,,,,,,533.9420393000182,,,,,,,,,,,,,,,533.9392313999997,533.9420393000182,533.9420393000182,533.9420393000182,536.8963246000058,f,2.0322629000002053,0.2715829999942798,536.8965218999947,536.8965867000225,None,,,,,,,,,,,,,,00032,001,2026-01-22_10h59.30.259,MST_task,2024.2.0,60.13948752531708,2026-01-22 11h00.21.241620 +0530,
,Objects\178a.jpg,96,0,97,,,,,,,j,1.2747441999963485,0.23945610001101159,None,,,,,,97,0,96,536.912720399996,,,,,,,,,,,,,,,,,,,,,,,536.8968765000172,536.912720399996,537.3963976000086,,,,,,,,,,,,537.4195395999996,,,,,,,,,,,,,,,537.4169998000143,537.4195395999996,537.4195395999996,537.4195395999996,540.4127922000189,j,1.2747441999963485,0.23945610001101159,540.4129921999993,540.4130565999949,None,,,,,,,,,,,,,,00032,001,2026-01-22_10h59.30.259,MST_task,2024.2.0,60.13948752531708,2026-01-22 11h00.21.241620 +0530,
,Objects\031a.jpg,97,0,98,,,,,,,f,1.1714022999804001,0.21547150000697002,None,,,,,,98,0,97,540.4301643000217,,,,,,,,,,,,,,,,,,,,,,,540.4133522000047,540.4301643000217,540.9131168000167,,,,,,,,,,,,540.9388672000205,,,,,,,,,,,,,,,540.9358106,540.9388672000205,540.9388672000205,540.9388672000205,543.9132618000149,f,1.1714022999804001,0.21547150000697002,543.9134682000149,543.9135334000166,None,,,,,,,,,,,,,,00032,001,2026-01-22_10h59.30.259,MST_task,2024.2.0,60.13948752531708,2026-01-22 11h00.21.241620 +0530,
,Scenes\113a.jpg,98,0,99,,,,,,,j,0.7701893000048585,0.2160747000016272,None,,,,,,99,0,98,543.9293733000231,,,,,,,,,,,,,,,,,,,,,,,543.9139133999997,543.9293733000231,544.4130637000198,,,,,,,,,,,,544.4360700999969,,,,,,,,,,,,,,,544.4334437000216,544.4360700999969,544.4360700999969,544.4360700999969,547.4305598000064,j,0.7701893000048585,0.2160747000016272,547.4307559000154,547.4308217000216,None,,,,,,,,,,,,,,00032,001,2026-01-22_10h59.30.259,MST_task,2024.2.0,60.13948752531708,2026-01-22 11h00.21.241620 +0530,
,Scenes\069a.jpg,99,0,100,,,,,,,j,0.8680632000032347,0.21599810000043362,None,,,,,,100,0,99,547.4460109000211,,,,,,,,,,,,,,,,,,,,,,,547.4311902000045,547.4460109000211,547.9294580999995,,,,,,,,,,,,547.9619372000161,,,,,,,,,,,,,,,547.9591708000225,547.9619372000161,547.9619372000161,547.9619372000161,550.9465984000126,j,0.8680632000032347,0.21599810000043362,550.9468027999974,550.9468671000213,None,,,,,,,,,,,,,,00032,001,2026-01-22_10h59.30.259,MST_task,2024.2.0,60.13948752531708,2026-01-22 11h00.21.241620 +0530,
,Scenes\141a.jpg,100,0,101,,,,,,,j,1.007221900013974,0.24820689999614842,None,,,,,,101,0,100,550.9624358000001,,,,,,,,,,,,,,,,,,,,,,,550.9472323000082,550.9624358000001,551.4467771000054,,,,,,,,,,,,551.4710217000102,,,,,,,,,,,,,,,551.4684775000205,551.4710217000102,551.4710217000102,551.4710217000102,554.4635010000202,j,1.007221900013974,0.24820689999614842,554.4637023000105,554.4637652999954,None,,,,,,,,,,,,,,00032,001,2026-01-22_10h59.30.259,MST_task,2024.2.0,60.13948752531708,2026-01-22 11h00.21.241620 +0530,
,Scenes\163a.jpg,101,0,102,,,,,,,j,1.6879154000198469,0.2159541999862995,None,,,,,,102,0,101,554.4793877000047,,,,,,,,,,,,,,,,,,,,,,,554.464128200023,554.4793877000047,554.9631170000066,,,,,,,,,,,,554.9903916000039,,,,,,,,,,,,,,,554.9876226000197,554.9903916000039,554.9903916000039,554.9903916000039,557.979516899999,j,1.6879154000198469,0.2159541999862995,557.9797261000203,557.9797930000059,None,,,,,,,,,,,,,,00032,001,2026-01-22_10h59.30.259,MST_task,2024.2.0,60.13948752531708,2026-01-22 11h00.21.241620 +0530,
,Scenes\047a.jpg,102,0,103,,,,,,,j,0.8687566999869887,0.21615990001009777,None,,,,,,103,0,102,557.995975400001,,,,,,,,,,,,,,,,,,,,,,,557.9801760000119,557.995975400001,558.4797906000167,,,,,,,,,,,,558.5288587000105,,,,,,,,,,,,,,,558.5259265000059,558.5288587000105,558.5288587000105,558.5288587000105,561.4964745000179,j,0.8687566999869887,0.21615990001009777,561.4966781999974,561.4967442000052,None,,,,,,,,,,,,,,00032,001,2026-01-22_10h59.30.259,MST_task,2024.2.0,60.13948752531708,2026-01-22 11h00.21.241620 +0530,
,Scenes\084a.jpg,103,0,104,,,,,,,j,0.8587277999904472,0.18424689999665134,None,,,,,,104,0,103,561.5126338000118,,,,,,,,,,,,,,,,,,,,,,,561.4971250000235,561.5126338000118,561.9970785000187,,,,,,,,,,,,,,,,,,,,,,,,,,,562.0245050000085,562.0274122999981,562.0274122999981,562.0274122999981,565.012719499995,j,0.8587277999904472,0.18424689999665134,565.0129134000163,565.0129898000159,None,,,,,,,,,,,,,,00032,001,2026-01-22_10h59.30.259,MST_task,2024.2.0,60.13948752531708,2026-01-22 11h00.21.241620 +0530,
,Scenes\116a.jpg,104,0,105,,,,,,,j,0.7775631000113208,0.21675399999367073,None,,,,,,105,0,104,565.0294291000173,,,,,,,,,,,,,,,,,,,,,,,565.0133826000092,565.0294291000173,565.512967800023,,,,,,,,,,,,565.5401162000198,,,,,,,,,,,,,,,565.5373611999967,565.5401162000198,565.5401162000198,565.5401162000198,568.5297813000216,j,0.7775631000113208,0.21675399999367073,568.5299738000031,568.5300387000025,None,,,,,,,,,,,,,,00032,001,2026-01-22_10h59.30.259,MST_task,2024.2.0,60.13948752531708,2026-01-22 11h00.21.241620 +0530,
,Objects\096a.jpg,105,0,106,,,,,,,f,0.9922112000058405,0.3041463000117801,None,,,,,,106,0,105,568.5460580000072,,,,,,,,,,,,,,,,,,,,,,,568.5304035000154,568.5460580000072,569.0298617000226,,,,,,,,,,,,569.0533944000199,,,,,,,,,,,,,,,569.0505372000043,569.0533944000199,569.0533944000199,569.0533944000199,572.046440200007,f,0.9922112000058405,0.3041463000117801,572.0466397000127,572.0467058000213,None,,,,,,,,,,,,,,00032,001,2026-01-22_10h59.30.259,MST_task,2024.2.0,60.13948752531708,2026-01-22 11h00.21.241620 +0530,
,Objects\116a.jpg,106,0,107,,,,,,,f,0.9440724999876693,0.23948799999197945,None,,,,,,107,0,106,572.0626319000148,,,,,,,,,,,,,,,,,,,,,,,572.047000200022,572.0626319000148,572.546499500022,,,,,,,,,,,,572.5821621000068,,,,,,,,,,,,,,,572.5792147000029,572.5821621000068,572.5821621000068,572.5821621000068,575.5629234000226,f,0.9440724999876693,0.23948799999197945,575.563123400003,575.5631877999986,None,,,,,,,,,,,,,,00032,001,2026-01-22_10h59.30.259,MST_task,2024.2.0,60.13948752531708,2026-01-22 11h00.21.241620 +0530,
,Objects\149a.jpg,107,0,108,,,,,,,f,1.372778399992967,0.26444190001348034,None,,,,,,108,0,107,575.5793935999973,,,,,,,,,,,,,,,,,,,,,,,575.5635546999983,575.5793935999973,576.0630494000216,,,,,,,,,,,,576.0891809000168,,,,,,,,,,,,,,,576.0862767000217,576.0891809000168,576.0891809000168,576.0891809000168,579.0795682000171,f,1.372778399992967,0.26444190001348034,579.0797708000173,579.0798349000106,None,,,,,,,,,,,,,,00032,001,2026-01-22_10h59.30.259,MST_task,2024.2.0,60.13948752531708,2026-01-22 11h00.21.241620 +0530,
,Objects\035a.jpg,108,0,109,,,,,,,f,1.257405899988953,0.22327830002177507,None,,,,,,109,0,108,579.0959134000004,,,,,,,,,,,,,,,,,,,,,,,579.0801998999959,579.0959134000004,579.5803780000133,,,,,,,,,,,,,,,,,,,,,,,,,,,579.6497201000166,579.6528085000173,579.6528085000173,579.6528085000173,582.5804623000149,f,1.257405899988953,0.22327830002177507,582.5806677000073,582.5807318000006,None,,,,,,,,,,,,,,00032,001,2026-01-22_10h59.30.259,MST_task,2024.2.0,60.13948752531708,2026-01-22 11h00.21.241620 +0530,
,Objects\085a.jpg,109,0,110,,,,,,,f,1.1675523000012618,0.25596190002397634,None,,,,,,110,0,109,582.5959910000092,,,,,,,,,,,,,,,,,,,,,,,582.5810346000071,582.5959910000092,583.0797731000057,,,,,,,,,,,,583.1421738000063,,,,,,,,,,,,,,,583.1397978000168,583.1421738000063,583.1421738000063,583.1421738000063,586.0963445000234,f,1.1675523000012618,0.25596190002397634,586.09654280002,586.0966071000148,None,,,,,,,,,,,,,,00032,001,2026-01-22_10h59.30.259,MST_task,2024.2.0,60.13948752531708,2026-01-22 11h00.21.241620 +0530,
,Objects\007a.jpg,110,0,111,,,,,,,f,0.8328206000151113,0.2641818999836687,None,,,,,,111,0,110,586.1124271000153,,,,,,,,,,,,,,,,,,,,,,,586.096973000007,586.1124271000153,586.5966751000087,,,,,,,,,,,,586.7087390000233,,,,,,,,,,,,,,,586.7059827000194,586.7087390000233,586.7087390000233,586.7087390000233,589.6130950000079,f,0.8328206000151113,0.2641818999836687,589.6132920000236,589.6133580000023,None,,,,,,,,,,,,,,00032,001,2026-01-22_10h59.30.259,MST_task,2024.2.0,60.13948752531708,2026-01-22 11h00.21.241620 +0530,
,Objects\048a.jpg,111,0,112,,,,,,,j,1.2681408999778796,0.20893100000103004,None,,,,,,112,0,111,589.629304800008,,,,,,,,,,,,,,,,,,,,,,,589.6136490000063,589.629304800008,590.1132059000083,,,,,,,,,,,,590.1453218999959,,,,,,,,,,,,,,,590.1423383000074,590.1453218999959,590.1453218999959,590.1453218999959,593.1294232000073,j,1.2681408999778796,0.20893100000103004,593.1296207999985,593.129683600011,None,,,,,,,,,,,,,,00032,001,2026-01-22_10h59.30.259,MST_task,2024.2.0,60.13948752531708,2026-01-22 11h00.21.241620 +0530,
,Scenes\161a.jpg,112,0,113,,,,,,,j,0.6917119999998249,0.1840243000187911,None,,,,,,113,0,112,593.1460527000017,,,,,,,,,,,,,,,,,,,,,,,593.1299721999967,593.1460527000017,593.6297086999984,,,,,,,,,,,,593.7146818000183,,,,,,,,,,,,,,,593.7118716000114,593.7146818000183,593.7146818000183,593.7146818000183,596.646456300019,j,0.6917119999998249,0.1840243000187911,596.6466616000107,596.6467266000109,None,,,,,,,,,,,,,,00032,001,2026-01-22_10h59.30.259,MST_task,2024.2.0,60.13948752531708,2026-01-22 11h00.21.241620 +0530,
,Scenes\054a.jpg,113,0,114,,,,,,,j,1.0836006999888923,0.1761930000211578,None,,,,,,114,0,113,596.662720399996,,,,,,,,,,,,,,,,,,,,,,,596.64710870001,596.662720399996,597.1469608000189,,,,,,,,,,,,597.1946185000124,,,,,,,,,,,,,,,597.1921058000007,597.1946185000124,597.1946185000124,597.1946185000124,600.1629443000129,j,1.0836006999888923,0.1761930000211578,600.1631379000028,600.1632023999991,None,,,,,,,,,,,,,,00032,001,2026-01-22_10h59.30.259,MST_task,2024.2.0,60.13948752531708,2026-01-22 11h00.21.241620 +0530,
,Scenes\190a.jpg,114,0,115,,,,,,,j,0.7748847999901045,0.19954400000278838,None,,,,,,115,0,114,600.1789635000168,,,,,,,,,,,,,,,,,,,,,,,600.1635669000098,600.1789635000168,600.6631401000195,,,,,,,,,,,,600.7193711000145,,,,,,,,,,,,,,,600.7164330999949,600.7193711000145,600.7193711000145,600.7193711000145,603.6796355000115,j,0.7748847999901045,0.19954400000278838,603.6798282000236,603.6798940000008,None,,,,,,,,,,,,,,00032,001,2026-01-22_10h59.30.259,MST_task,2024.2.0,60.13948752531708,2026-01-22 11h00.21.241620 +0530,
,Scenes\101a.jpg,115,0,116,,,,,,,j,2.293128399993293,0.20817860000533983,None,,,,,,116,0,115,603.695976100018,,,,,,,,,,,,,,,,,,,,,,,603.6801872000215,603.695976100018,604.1795420999988,,,,,,,,,,,,604.2330911000026,,,,,,,,,,,,,,,604.2302766000212,604.2330911000026,604.2330911000026,604.2330911000026,607.1964822000009,j,2.293128399993293,0.20817860000533983,607.1966819000081,607.1967457999999,None,,,,,,,,,,,,,,00032,001,2026-01-22_10h59.30.259,MST_task,2024.2.0,60.13948752531708,2026-01-22 11h00.21.241620 +0530,
,Scenes\181a.jpg,116,0,117,,,,,,,f,1.0488325000042096,0.24015140000847168,None,,,,,,117,0,116,607.2126644000236,,,,,,,,,,,,,,,,,,,,,,,607.1970342000131,607.2126644000236,607.6967274000053,,,,,,,,,,,,607.7808225000044,,,,,,,,,,,,,,,607.7774726000207,607.7808225000044,607.7808225000044,607.7808225000044,610.7128380000067,f,1.0488325000042096,0.24015140000847168,610.7130616000213,610.7131286000076,None,,,,,,,,,,,,,,00032,001,2026-01-22_10h59.30.259,MST_task,2024.2.0,60.13948752531708,2026-01-22 11h00.21.241620 +0530,
,Scenes\142a.jpg,117,0,118,,,,,,,j,1.02949579997221,0.20822620001854375,None,,,,,,118,0,117,610.7290464999969,,,,,,,,,,,,,,,,,,,,,,,610.7134092000197,610.7290464999969,611.2130550000002,,,,,,,,,,,,611.2727164000098,,,,,,,,,,,,,,,611.2697307000053,611.2727164000098,611.2727164000098,611.2727164000098,614.2295270000177,j,1.02949579997221,0.20822620001854375,614.2297229999967,614.229788800003,None,,,,,,,,,,,,,,00032,001,2026-01-22_10h59.30.259,MST_task,2024.2.0,60.13948752531708,2026-01-22 11h00.21.241620 +0530,
,Scenes\151a.jpg,118,0,119,,,,,,,j,0.9814786000060849,0.2239636000012979,None,,,,,,119,0,118,614.2457914999977,,,,,,,,,,,,,,,,,,,,,,,614.2301586999965,614.2457914999977,614.7297952000226,,,,,,,,,,,,614.7602580999956,,,,,,,,,,,,,,,614.7568919000041,614.7602580999956,614.7602580999956,614.7602580999956,617.7464008000097,j,0.9814786000060849,0.2239636000012979,617.7465961000125,617.7466616000165,None,,,,,,,,,,,,,,00032,001,2026-01-22_10h59.30.259,MST_task,2024.2.0,60.13948752531708,2026-01-22 11h00.21.241620 +0530,
,Objects\159a.jpg,119,0,120,,,,,,,f,0.9093220999930054,0.21598040001117624,None,,,,,,120,0,119,617.7624009000137,,,,,,,,,,,,,,,,,,,,,,,617.7469551000104,617.7624009000137,618.246195100015,,,,,,,,,,,,618.2723834000062,,,,,,,,,,,,,,,618.2688782000041,618.2723834000062,618.2723834000062,618.2723834000062,621.2631074000092,f,0.9093220999930054,0.21598040001117624,621.2633074000187,621.2633730000234,None,,,,,,,,,,,,,,00032,001,2026-01-22_10h59.30.259,MST_task,2024.2.0,60.13948752531708,2026-01-22 11h00.21.241620 +0530,
,Objects\105a.jpg,120,0,121,,,,,,,f,1.174700200004736,0.23225370000000112,None,,,,,,121,0,120,621.2791065000056,,,,,,,,,,,,,,,,,,,,,,,621.263741600007,621.2791065000056,621.7630888000131,,,,,,,,,,,,621.7834788000036,,,,,,,,,,,,,,,621.781363200018,621.7834788000036,621.7834788000036,621.7834788000036,624.7796520999982,f,1.174700200004736,0.23225370000000112,624.7798485000094,624.7799156999972,None,,,,,,,,,,,,,,00032,001,2026-01-22_10h59.30.259,MST_task,2024.2.0,60.13948752531708,2026-01-22 11h00.21.241620 +0530,
,Objects\132a.jpg,121,0,122,,,,,,,j,1.44827979998081,0.20876890001818538,None,,,,,,122,0,121,624.7958769999968,,,,,,,,,,,,,,,,,,,,,,,624.7802046000143,624.7958769999968,625.2798236000235,,,,,,,,,,,,625.3013336000149,,,,,,,,,,,,,,,625.2986963000149,625.3013336000149,625.3013336000149,625.3013336000149,628.2961489000008,j,1.44827979998081,0.20876890001818538,628.2963485000073,628.2964136000082,None,,,,,,,,,,,,,,00032,001,2026-01-22_10h59.30.259,MST_task,2024.2.0,60.13948752531708,2026-01-22 11h00.21.241620 +0530,
,Objects\044a.jpg,122,0,123,,,,,,,j,2.1153582999831997,0.20923840001341887,None,,,,,,123,0,122,628.3127500000119,,,,,,,,,,,,,,,,,,,,,,,628.2967831999995,628.3127500000119,628.7964540999965,,,,,,,,,,,,628.8342180000036,,,,,,,,,,,,,,,628.8311185000057,628.8342180000036,628.8342180000036,628.8342180000036,631.8131067000213,j,2.1153582999831997,0.20923840001341887,631.8133049000171,631.8133703000203,None,,,,,,,,,,,,,,00032,001,2026-01-22_10h59.30.259,MST_task,2024.2.0,60.13948752531708,2026-01-22 11h00.21.241620 +0530,
,Objects\157a.jpg,123,0,124,,,,,,,f,0.8598819000180811,0.36088439999730326,None,,,,,,124,0,123,631.8293472000223,,,,,,,,,,,,,,,,,,,,,,,631.8136656999995,631.8293472000223,632.3134892999951,,,,,,,,,,,,632.3375995999959,,,,,,,,,,,,,,,632.3353612000064,632.3375995999959,632.3375995999959,632.3375995999959,635.3296778000076,f,0.8598819000180811,0.36088439999730326,635.3298761000042,635.3299431000196,None,,,,,,,,,,,,,,00032,001,2026-01-22_10h59.30.259,MST_task,2024.2.0,60.13948752531708,2026-01-22 11h00.21.241620 +0530,
,Objects\154a.jpg,124,0,125,,,,,,,f,0.9999890000035521,0.22394239998538978,None,,,,,,125,0,124,635.3459715000063,,,,,,,,,,,,,,,,,,,,,,,635.3303095000156,635.3459715000063,635.8299145000055,,,,,,,,,,,,635.8537679000001,,,,,,,,,,,,,,,635.8516054000065,635.8537679000001,635.8537679000001,635.8537679000001,638.84621410002,f,0.9999890000035521,0.22394239998538978,638.846411400009,638.846475600003,None,,,,,,,,,,,,,,00032,001,2026-01-22_10h59.30.259,MST_task,2024.2.0,60.13948752531708,2026-01-22 11h00.21.241620 +0530,
,Objects\109a.jpg,125,0,126,,,,,,,f,0.8897811000060756,0.22351619999972172,None,,,,,,126,0,125,638.8624947000062,,,,,,,,,,,,,,,,,,,,,,,638.8468431000074,638.8624947000062,639.3464498000103,,,,,,,,,,,,639.3724219000142,,,,,,,,,,,,,,,639.3695533999999,639.3724219000142,639.3724219000142,639.3724219000142,642.3628010000102,f,0.8897811000060756,0.22351619999972172,642.3629942999978,642.3630602000048,None,,,,,,,,,,,,,,00032,001,2026-01-22_10h59.30.259,MST_task,2024.2.0,60.13948752531708,2026-01-22 11h00.21.241620 +0530,
,Scenes\038a.jpg,126,0,127,,,,,,,j,0.7995491999899969,0.21616660000290722,None,,,,,,127,0,126,642.3788084000116,,,,,,,,,,,,,,,,,,,,,,,642.3634362000157,642.3788084000116,642.8628889000101,,,,,,,,,,,,642.9186723000021,,,,,,,,,,,,,,,642.9156515000213,642.9186723000021,642.9186723000021,642.9186723000021,645.8796104000066,j,0.7995491999899969,0.21616660000290722,645.8798111000215,645.8798778000055,None,,,,,,,,,,,,,,00032,001,2026-01-22_10h59.30.259,MST_task,2024.2.0,60.13948752531708,2026-01-22 11h00.21.241620 +0530,
,Scenes\177a.jpg,127,0,128,,,,,,,j,1.0847537999798078,0.2321556000097189,None,,,,,,128,0,127,645.8959824000194,,,,,,,,,,,,,,,,,,,,,,,645.880244400003,645.8959824000194,646.3795620000164,,,,,,,,,,,,646.5054384999967,,,,,,,,,,,,,,,646.5023537000234,646.5054384999967,646.5054384999967,646.5054384999967,649.3964567000221,j,1.0847537999798078,0.2321556000097189,649.3966515000211,649.3967160000175,None,,,,,,,,,,,,,,00032,001,2026-01-22_10h59.30.259,MST_task,2024.2.0,60.13948752531708,2026-01-22 11h00.21.241620 +0530,
,Scenes\115a.jpg,128,0,129,,,,,,,j,2.6869963000062853,0.2086352999904193,None,,,,,,129,0,128,649.4127348000184,,,,,,,,,,,,,,,,,,,,,,,649.3970089000068,649.4127348000184,649.8964530999947,,,,,,,,,,,,649.926789899997,,,,,,,,,,,,,,,649.9241697000107,649.926789899997,649.926789899997,649.926789899997,652.9131430000125,j,2.6869963000062853,0.2086352999904193,652.9133444000036,652.913409700006,None,,,,,,,,,,,,,,00032,001,2026-01-22_10h59.30.259,MST_task,2024.2.0,60.13948752531708,2026-01-22 11h00.21.241620 +0530,
,Scenes\066a.jpg,129,0,130,,,,,,,j,1.1057182000076864,0.2165853999904357,None,,,,,,130,0,129,652.9291554000229,,,,,,,,,,,,,,,,,,,,,,,652.9137058000197,652.9291554000229,653.4131290000223,,,,,,,,,,,,653.4680025000125,,,,,,,,,,,,,,,653.4649831000133,653.4680025000125,653.4680025000125,653.4680025000125,656.4298031000071,j,1.1057182000076864,0.2165853999904357,656.4300128000032,656.4300780000049,None,,,,,,,,,,,,,,00032,001,2026-01-22_10h59.30.259,MST_task,2024.2.0,60.13948752531708,2026-01-22 11h00.21.241620 +0530,
,Scenes\114a.jpg,130,0,131,,,,,,,f,0.9332940000167582,0.2401493999932427,None,,,,,,131,0,130,656.4458955000155,,,,,,,,,,,,,,,,,,,,,,,656.4305180000083,656.4458955000155,656.929610799998,,,,,,,,,,,,656.9849512000219,,,,,,,,,,,,,,,656.9823584000114,656.9849512000219,656.9849512000219,656.9849512000219,659.9464698000229,f,0.9332940000167582,0.2401493999932427,659.9466702000063,659.9467365000164,None,,,,,,,,,,,,,,00032,001,2026-01-22_10h59.30.259,MST_task,2024.2.0,60.13948752531708,2026-01-22 11h00.21.241620 +0530,
,Scenes\159a.jpg,131,0,132,,,,,,,j,1.1277303000097163,0.27218420000281185,None,,,,,,132,0,131,659.9626604000223,,,,,,,,,,,,,,,,,,,,,,,659.9471144000127,659.9626604000223,660.4464581000211,,,,,,,,,,,,660.5105039000046,,,,,,,,,,,,,,,660.5072034000186,660.5105039000046,660.5105039000046,660.5105039000046,663.4472647000221,j,1.1277303000097163,0.27218420000281185,663.447462400014,663.4475263000058,None,,,,,,,,,,,,,,00032,001,2026-01-22_10h59.30.259,MST_task,2024.2.0,60.13948752531708,2026-01-22 11h00.21.241620 +0530,
,Scenes\150a.jpg,132,0,133,,,,,,,j,0.8107894000131637,0.19272099999943748,None,,,,,,133,0,132,663.4627357000136,,,,,,,,,,,,,,,,,,,,,,,663.4479066000204,663.4627357000136,663.9458867000067,,,,,,,,,,,,664.0668338999967,,,,,,,,,,,,,,,664.0640111000102,664.0668338999967,664.0668338999967,664.0668338999967,666.9629373000062,j,0.8107894000131637,0.19272099999943748,666.96314420001,666.9632098000147,None,,,,,,,,,,,,,,00032,001,2026-01-22_10h59.30.259,MST_task,2024.2.0,60.13948752531708,2026-01-22 11h00.21.241620 +0530,
,Objects\022a.jpg,133,0,134,,,,,,,f,0.960729500016896,0.3035288999963086,None,,,,,,134,0,133,666.9793936000206,,,,,,,,,,,,,,,,,,,,,,,666.9635904000024,666.9793936000206,667.4630685000157,,,,,,,,,,,,667.5013924000086,,,,,,,,,,,,,,,667.4988840000005,667.5013924000086,667.5013924000086,667.5013924000086,670.4796705000044,f,0.960729500016896,0.3035288999963086,670.4798656000057,670.4799313000112,None,,,,,,,,,,,,,,00032,001,2026-01-22_10h59.30.259,MST_task,2024.2.0,60.13948752531708,2026-01-22 11h00.21.241620 +0530,
,Objects\088a.jpg,134,0,135,,,,,,,f,0.7925723999796901,0.24035040001035668,None,,,,,,135,0,134,670.496074900002,,,,,,,,,,,,,,,,,,,,,,,670.4802247000043,670.496074900002,670.9794847000157,,,,,,,,,,,,671.0455656000122,,,,,,,,,,,,,,,671.0432672000024,671.0455656000122,671.0455656000122,671.0455656000122,673.9965364999953,f,0.7925723999796901,0.24035040001035668,673.9967349000217,673.9967981000082,None,,,,,,,,,,,,,,00032,001,2026-01-22_10h59.30.259,MST_task,2024.2.0,60.13948752531708,2026-01-22 11h00.21.241620 +0530,
,Objects\059a.jpg,135,0,136,,,,,,,f,1.3919728000182658,0.21617449997575022,None,,,,,,136,0,135,674.0130366999947,,,,,,,,,,,,,,,,,,,,,,,673.9971702000184,674.0130366999947,674.4960250000004,,,,,,,,,,,,674.5261839000159,,,,,,,,,,,,,,,674.5234958000074,674.5261839000159,674.5261839000159,674.5261839000159,677.5129267000011,f,1.3919728000182658,0.21617449997575022,677.5131260000053,677.513191200007,None,,,,,,,,,,,,,,00032,001,2026-01-22_10h59.30.259,MST_task,2024.2.0,60.13948752531708,2026-01-22 11h00.21.241620 +0530,
,Objects\162a.jpg,136,0,137,,,,,,,f,1.133749100001296,0.24807920001330785,None,,,,,,137,0,136,677.5291991000122,,,,,,,,,,,,,,,,,,,,,,,677.513558000006,677.5291991000122,678.0131478999974,,,,,,,,,,,,678.0479098000214,,,,,,,,,,,,,,,678.0457157000201,678.0479098000214,678.0479098000214,678.0479098000214,681.0298050999991,f,1.133749100001296,0.24807920001330785,681.0300107000221,681.030075000017,None,,,,,,,,,,,,,,00032,001,2026-01-22_10h59.30.259,MST_task,2024.2.0,60.13948752531708,2026-01-22 11h00.21.241620 +0530,
,Objects\092a.jpg,137,0,138,,,,,,,f,1.9160875999950804,0.2886053999827709,None,,,,,,138,0,137,681.04604690001,,,,,,,,,,,,,,,,,,,,,,,681.0303774000204,681.04604690001,681.529520800017,,,,,,,,,,,,681.5536444000027,,,,,,,,,,,,,,,681.5514754000178,681.5536444000027,681.5536444000027,681.5536444000027,684.5460744000156,f,1.9160875999950804,0.2886053999827709,684.5462700000207,684.5463359999994,None,,,,,,,,,,,,,,00032,001,2026-01-22_10h59.30.259,MST_task,2024.2.0,60.13948752531708,2026-01-22 11h00.21.241620 +0530,
,Objects\015a.jpg,138,0,139,,,,,,,f,0.6907674000249244,0.2645378999877721,None,,,,,,139,0,138,684.5623911000148,,,,,,,,,,,,,,,,,,,,,,,684.5467053000175,684.5623911000148,685.0463971999998,,,,,,,,,,,,685.0829636999988,,,,,,,,,,,,,,,685.0802398000087,685.0829636999988,685.0829636999988,685.0829636999988,688.0631261000235,f,0.6907674000249244,0.2645378999877721,688.063319000008,688.0633824999968,None,,,,,,,,,,,,,,00032,001,2026-01-22_10h59.30.259,MST_task,2024.2.0,60.13948752531708,2026-01-22 11h00.21.241620 +0530,
,Objects\005a.jpg,139,0,140,,,,,,,f,0.6007183000037912,0.27957969999988563,None,,,,,,140,0,139,688.0793998000154,,,,,,,,,,,,,,,,,,,,,,,688.0637537000002,688.0793998000154,688.5631539000024,,,,,,,,,,,,688.6774567000102,,,,,,,,,,,,,,,688.6750105000101,688.6774567000102,688.6774567000102,688.6774567000102,691.5798075000057,f,0.6007183000037912,0.27957969999988563,691.5800029000093,691.5800684000133,None,,,,,,,,,,,,,,00032,001,2026-01-22_10h59.30.259,MST_task,2024.2.0,60.13948752531708,2026-01-22 11h00.21.241620 +0530,
,Scenes\127a.jpg,140,0,141,,,,,,,j,1.2068721999821719,0.2408642000227701,None,,,,,,141,0,140,691.5960664000013,,,,,,,,,,,,,,,,,,,,,,,691.5804384000076,691.5960664000013,692.0797964000085,,,,,,,,,,,,692.1265730000159,,,,,,,,,,,,,,,692.123913700023,692.1265730000159,692.1265730000159,692.1265730000159,695.0962968000094,j,1.2068721999821719,0.2408642000227701,695.0964929000183,695.0965571000124,None,,,,,,,,,,,,,,00032,001,2026-01-22_10h59.30.259,MST_task,2024.2.0,60.13948752531708,2026-01-22 11h00.21.241620 +0530,
,Scenes\022a.jpg,141,0,142,,,,,,,j,2.1530081999953836,0.22411450001527555,None,,,,,,142,0,141,695.1125108000124,,,,,,,,,,,,,,,,,,,,,,,695.0969265000022,695.1125108000124,695.5964854000194,,,,,,,,,,,,695.6206910000183,,,,,,,,,,,,,,,695.6178332999989,695.6206910000183,695.6206910000183,695.6206910000183,698.5969866999949,j,2.1530081999953836,0.22411450001527555,698.5972019000037,698.5972674000077,None,,,,,,,,,,,,,,00032,001,2026-01-22_10h59.30.259,MST_task,2024.2.0,60.13948752531708,2026-01-22 11h00.21.241620 +0530,
,Scenes\122a.jpg,142,0,143,,,,,,,f,2.1449093999981415,0.26415849998011254,None,,,,,,143,0,142,698.6126793000149,,,,,,,,,,,,,,,,,,,,,,,698.597634900012,698.6126793000149,699.0964566000039,,,,,,,,,,,,699.2045979000104,,,,,,,,,,,,,,,699.202074700006,699.2045979000104,699.2045979000104,699.2045979000104,702.1129405999964,f,2.1449093999981415,0.26415849998011254,702.1131338000123,702.1131987000117,None,,,,,,,,,,,,,,00032,001,2026-01-22_10h59.30.259,MST_task,2024.2.0,60.13948752531708,2026-01-22 11h00.21.241620 +0530,
,Scenes\067a.jpg,143,0,144,,,,,,,f,1.5551677999901585,0.24043850001180544,None,,,,,,144,0,143,702.1293310000037,,,,,,,,,,,,,,,,,,,,,,,702.1135647000046,702.1293310000037,702.6126769999973,,,,,,,,,,,,702.6503264000057,,,,,,,,,,,,,,,702.6476235000009,702.6503264000057,702.6503264000057,702.6503264000057,705.6294860000198,f,1.5551677999901585,0.24043850001180544,705.6296841000149,705.6297493000166,None,,,,,,,,,,,,,,00032,001,2026-01-22_10h59.30.259,MST_task,2024.2.0,60.13948752531708,2026-01-22 11h00.21.241620 +0530,
,Scenes\080a.jpg,144,0,145,,,,,,,j,1.576795700006187,0.2161498999921605,None,,,,,,145,0,144,705.6462468999962,,,,,,,,,,,,,,,,,,,,,,,705.6301241000183,705.6462468999962,706.1297215000086,,,,,,,,,,,,706.1653622000013,,,,,,,,,,,,,,,706.1626125000184,706.1653622000013,706.1653622000013,706.1653622000013,709.1466056000208,j,1.576795700006187,0.2161498999921605,709.1468042000197,709.1468696000229,None,,,,,,,,,,,,,,00032,001,2026-01-22_10h59.30.259,MST_task,2024.2.0,60.13948752531708,2026-01-22 11h00.21.241620 +0530,
,Scenes\160a.jpg,145,0,146,,,,,,,j,1.090066399978241,0.26459540001815185,None,,,,,,146,0,145,709.1627587999974,,,,,,,,,,,,,,,,,,,,,,,709.1472367999959,709.1627587999974,709.6464674000163,,,,,,,,,,,,709.6754073000047,,,,,,,,,,,,,,,709.6726846999954,709.6754073000047,709.6754073000047,709.6754073000047,712.6629305999959,j,1.090066399978241,0.26459540001815185,712.663137399999,712.6632034000068,None,,,,,,,,,,,,,,00032,001,2026-01-22_10h59.30.259,MST_task,2024.2.0,60.13948752531708,2026-01-22 11h00.21.241620 +0530,
,Scenes\013a.jpg,146,0,147,,,,,,,j,1.0338801000034437,0.19250319999991916,None,,,,,,147,0,146,712.6793225000147,,,,,,,,,,,,,,,,,,,,,,,712.6635686000227,712.6793225000147,713.1631640999985,,,,,,,,,,,,713.2116685000074,,,,,,,,,,,,,,,713.2088683000184,713.2116685000074,713.2116685000074,713.2116685000074,716.163762000011,j,1.0338801000034437,0.19250319999991916,716.1639559000032,716.1640225000156,None,,,,,,,,,,,,,,00032,001,2026-01-22_10h59.30.259,MST_task,2024.2.0,60.13948752531708,2026-01-22 11h00.21.241620 +0530,
,Objects\016a.jpg,147,0,148,,,,,,,f,0.8567488999979105,0.2561952999967616,None,,,,,,148,0,147,716.179787400004,,,,,,,,,,,,,,,,,,,,,,,716.1643946999975,716.179787400004,716.6631618000101,,,,,,,,,,,,716.6846904999984,,,,,,,,,,,,,,,716.6820091000118,716.6846904999984,716.6846904999984,716.6846904999984,719.6797873000032,f,0.8567488999979105,0.2561952999967616,719.6799785000039,719.6800414000172,None,,,,,,,,,,,,,,00032,001,2026-01-22_10h59.30.259,MST_task,2024.2.0,60.13948752531708,2026-01-22 11h00.21.241620 +0530,
,Objects\021a.jpg,148,0,149,,,,,,,f,0.9938216999871656,0.28022530002635904,None,,,,,,149,0,148,719.6961366000178,,,,,,,,,,,,,,,,,,,,,,,719.6804002000135,719.6961366000178,720.179700800014,,,,,,,,,,,,720.2036351000133,,,,,,,,,,,,,,,720.2014535000199,720.2036351000133,720.2036351000133,720.2036351000133,723.1803241000162,f,0.9938216999871656,0.28022530002635904,723.1805152000161,723.1805811999948,None,,,,,,,,,,,,,,00032,001,2026-01-22_10h59.30.259,MST_task,2024.2.0,60.13948752531708,2026-01-22 11h00.21.241620 +0530,
,Objects\049a.jpg,149,0,150,,,,,,,f,1.7182059999904595,0.2802386000112165,None,,,,,,150,0,149,723.1958449000085,,,,,,,,,,,,,,,,,,,,,,,723.1808789000206,723.1958449000085,723.67951430002,,,,,,,,,,,,723.7034066000197,,,,,,,,,,,,,,,723.701077500009,723.7034066000197,723.7034066000197,723.7034066000197,726.696231400012,f,1.7182059999904595,0.2802386000112165,726.6964297000086,726.6964944000065,None,,,,,,,,,,,,,,00032,001,2026-01-22_10h59.30.259,MST_task,2024.2.0,60.13948752531708,2026-01-22 11h00.21.241620 +0530,
,Objects\071a.jpg,150,0,151,,,,,,,j,1.2520965000148863,0.2795258999976795,None,,,,,,151,0,150,726.7126716000203,,,,,,,,,,,,,,,,,,,,,,,726.6967857000127,726.7126716000203,727.1964172000007,,,,,,,,,,,,727.2420452000224,,,,,,,,,,,,,,,727.2397873000009,727.2420452000224,727.2420452000224,727.2420452000224,730.2133638000232,j,1.2520965000148863,0.2795258999976795,730.2135659000196,730.2136296000099,None,,,,,,,,,,,,,,00032,001,2026-01-22_10h59.30.259,MST_task,2024.2.0,60.13948752531708,2026-01-22 11h00.21.241620 +0530,
,Objects\004a.jpg,151,0,152,,,,,,,f,1.8231325000233483,0.2875636999960989,None,,,,,,152,0,151,730.2294228000101,,,,,,,,,,,,,,,,,,,,,,,730.2140076000069,730.2294228000101,730.7133317000116,,,,,,,,,,,,730.7350173000013,,,,,,,,,,,,,,,730.7320068000117,730.7350173000013,730.7350173000013,730.7350173000013,733.7297393000044,f,1.8231325000233483,0.2875636999960989,733.7299714999972,733.7300388000149,None,,,,,,,,,,,,,,00032,001,2026-01-22_10h59.30.259,MST_task,2024.2.0,60.13948752531708,2026-01-22 11h00.21.241620 +0530,
,Objects\161a.jpg,152,0,153,,,,,,,f,2.496377700008452,0.21628349999082275,None,,,,,,153,0,152,733.746088200016,,,,,,,,,,,,,,,,,,,,,,,733.7302652000217,733.746088200016,734.2298072999984,,,,,,,,,,,,734.2530786000134,,,,,,,,,,,,,,,734.2503694000188,734.2530786000134,734.2530786000134,734.2530786000134,737.2463875999965,f,2.496377700008452,0.21628349999082275,737.2465826999978,737.2466450000065,None,,,,,,,,,,,,,,00032,001,2026-01-22_10h59.30.259,MST_task,2024.2.0,60.13948752531708,2026-01-22 11h00.21.241620 +0530,
,Objects\019a.jpg,153,0,154,,,,,,,f,1.2898449999920558,0.23173569998471066,None,,,,,,154,0,153,737.2624819000193,,,,,,,,,,,,,,,,,,,,,,,737.2469349000021,737.2624819000193,737.7463972000114,,,,,,,,,,,,737.7723649000109,,,,,,,,,,,,,,,737.7696655000036,737.7723649000109,737.7723649000109,737.7723649000109,740.763170100021,f,1.2898449999920558,0.23173569998471066,740.7633759000164,740.7634391000029,None,,,,,,,,,,,,,,00032,001,2026-01-22_10h59.30.259,MST_task,2024.2.0,60.13948752531708,2026-01-22 11h00.21.241620 +0530,
,Scenes\109a.jpg,154,0,155,,,,,,,j,2.137005999975372,0.2478815000213217,None,,,,,,155,0,154,740.7792798000155,,,,,,,,,,,,,,,,,,,,,,,740.7637358000211,740.7792798000155,741.2628210000112,,,,,,,,,,,,741.2928417000221,,,,,,,,,,,,,,,741.2903162000002,741.2928417000221,741.2928417000221,741.2928417000221,744.2796857000212,j,2.137005999975372,0.2478815000213217,744.2798880000191,744.2799540999986,None,,,,,,,,,,,,,,00032,001,2026-01-22_10h59.30.259,MST_task,2024.2.0,60.13948752531708,2026-01-22 11h00.21.241620 +0530,
,Scenes\014a.jpg,155,0,156,,,,,,,f,0.9231604000087827,0.26425840001320466,None,,,,,,156,0,155,744.2958349999972,,,,,,,,,,,,,,,,,,,,,,,744.2802518999961,744.2958349999972,744.779806800012,,,,,,,,,,,,744.866346099996,,,,,,,,,,,,,,,744.8630807000154,744.866346099996,744.866346099996,744.866346099996,747.7963986000104,f,0.9231604000087827,0.26425840001320466,747.7965974000108,747.7966622000095,None,,,,,,,,,,,,,,00032,001,2026-01-22_10h59.30.259,MST_task,2024.2.0,60.13948752531708,2026-01-22 11h00.21.241620 +0530,
,Scenes\020a.jpg,156,0,157,,,,,,,f,1.675046599993948,0.23960410000290722,None,,,,,,157,0,156,747.8127448000014,,,,,,,,,,,,,,,,,,,,,,,747.7969557000033,747.8127448000014,748.2964060000086,,,,,,,,,,,,748.3310764000053,,,,,,,,,,,,,,,748.3280449000013,748.3310764000053,748.3310764000053,748.3310764000053,751.3136362000077,f,1.675046599993948,0.23960410000290722,751.3138464000076,751.3139099999971,None,,,,,,,,,,,,,,00032,001,2026-01-22_10h59.30.259,MST_task,2024.2.0,60.13948752531708,2026-01-22 11h00.21.241620 +0530,
,Scenes\184a.jpg,157,0,158,,,,,,,j,1.9528381999989506,0.280630299996119,None,,,,,,158,0,157,751.3294028000091,,,,,,,,,,,,,,,,,,,,,,,751.3142814000021,751.3294028000091,751.8131414000236,,,,,,,,,,,,751.8848340999975,,,,,,,,,,,,,,,751.8819487000001,751.8848340999975,751.8848340999975,751.8848340999975,754.8294032000122,j,1.9528381999989506,0.280630299996119,754.8296104000183,754.8296742000093,None,,,,,,,,,,,,,,00032,001,2026-01-22_10h59.30.259,MST_task,2024.2.0,60.13948752531708,2026-01-22 11h00.21.241620 +0530,
,Scenes\028a.jpg,158,0,159,,,,,,,j,0.9195001000189222,0.24809720000484958,None,,,,,,159,0,158,754.84659500001,,,,,,,,,,,,,,,,,,,,,,,754.8299723000091,754.84659500001,755.3297541000065,,,,,,,,,,,,755.3820855000231,,,,,,,,,,,,,,,755.3792082,755.3820855000231,755.3820855000231,755.3820855000231,758.3461695000005,j,0.9195001000189222,0.24809720000484958,758.3463711000222,758.3464352000155,None,,,,,,,,,,,,,,00032,001,2026-01-22_10h59.30.259,MST_task,2024.2.0,60.13948752531708,2026-01-22 11h00.21.241620 +0530,
,Scenes\034a.jpg,159,0,160,,,,,,,f,1.0931946999917272,0.2646787000121549,None,,,,,,160,0,159,758.3624754000048,,,,,,,,,,,,,,,,,,,,,,,758.3468253000174,758.3624754000048,758.8464154000103,,,,,,,,,,,,758.9364446999971,,,,,,,,,,,,,,,758.9332221000222,758.9364446999971,758.9364446999971,758.9364446999971,761.8631694000214,f,1.0931946999917272,0.2646787000121549,761.8633663000073,761.8634324000159,None,,,,,,,,,,,,,,00032,001,2026-01-22_10h59.30.259,MST_task,2024.2.0,60.13948752531708,2026-01-22 11h00.21.241620 +0530,
,Scenes\108a.jpg,160,0,161,,,,,,,j,0.983555399987381,0.23250480002025142,None,,,,,,161,0,160,761.8794160000107,,,,,,,,,,,,,,,,,,,,,,,761.863806600013,761.8794160000107,762.3631425000203,,,,,,,,,,,,762.413807200006,,,,,,,,,,,,,,,762.4107671999955,762.413807200006,762.413807200006,762.413807200006,765.3795277000172,j,0.983555399987381,0.23250480002025142,765.3797224000155,765.3797884999949,None,,,,,,,,,,,,,,00032,001,2026-01-22_10h59.30.259,MST_task,2024.2.0,60.13948752531708,2026-01-22 11h00.21.241620 +0530,
,Objects\175a.jpg,161,0,162,,,,,,,f,1.2949492000043392,0.23998790001496673,None,,,,,,162,0,161,765.3957681000174,,,,,,,,,,,,,,,,,,,,,,,765.3800777000142,765.3957681000174,765.8798500999983,,,,,,,,,,,,765.975330700021,,,,,,,,,,,,,,,765.972594300023,765.975330700021,765.975330700021,765.975330700021,768.8966261000023,f,1.2949492000043392,0.23998790001496673,768.896828500001,768.8968939000042,None,,,,,,,,,,,,,,00032,001,2026-01-22_10h59.30.259,MST_task,2024.2.0,60.13948752531708,2026-01-22 11h00.21.241620 +0530,
,Objects\042a.jpg,162,0,163,,,,,,,f,1.022036099981051,0.24019559999578632,None,,,,,,163,0,162,768.9123572999961,,,,,,,,,,,,,,,,,,,,,,,768.8971874999988,768.9123572999961,769.3961730000156,,,,,,,,,,,,769.4160275000031,,,,,,,,,,,,,,,769.4139064000046,769.4160275000031,769.4160275000031,769.4160275000031,772.4134614000213,f,1.022036099981051,0.24019559999578632,772.4136601000209,772.4137242000143,None,,,,,,,,,,,,,,00032,001,2026-01-22_10h59.30.259,MST_task,2024.2.0,60.13948752531708,2026-01-22 11h00.21.241620 +0530,
,Objects\147a.jpg,163,0,164,,,,,,,f,1.1273469000007026,0.23210970000945963,None,,,,,,164,0,163,772.4294356000028,,,,,,,,,,,,,,,,,,,,,,,772.4140155000205,772.4294356000028,772.9130761999986,,,,,,,,,,,,772.934811300016,,,,,,,,,,,,,,,772.932503100019,772.934811300016,772.934811300016,772.934811300016,775.9297014000185,f,1.1273469000007026,0.23210970000945963,775.9299063000071,775.9299721000134,None,,,,,,,,,,,,,,00032,001,2026-01-22_10h59.30.259,MST_task,2024.2.0,60.13948752531708,2026-01-22 11h00.21.241620 +0530,
,Objects\104a.jpg,164,0,165,,,,,,,f,0.8807173000241164,0.24085529998410493,None,,,,,,165,0,164,775.9466997999989,,,,,,,,,,,,,,,,,,,,,,,775.930269000004,775.9466997999989,776.4304295000038,,,,,,,,,,,,,,,,,,,,,,,,,,,776.4499635999964,776.4526660999982,776.4526660999982,776.4526660999982,779.4472149000212,f,0.8807173000241164,0.24085529998410493,779.4473659000068,779.4474121000094,None,,,,,,,,,,,,,,00032,001,2026-01-22_10h59.30.259,MST_task,2024.2.0,60.13948752531708,2026-01-22 11h00.21.241620 +0530,
,Objects\183a.jpg,165,0,166,,,,,,,f,0.6396674999850802,0.22364250000100583,None,,,,,,166,0,165,779.4625893000048,,,,,,,,,,,,,,,,,,,,,,,779.4476866000041,779.4625893000048,779.9465475000034,,,,,,,,,,,,779.9983130000182,,,,,,,,,,,,,,,779.9958713999949,779.9983130000182,779.9983130000182,779.9983130000182,782.9631717000157,f,0.6396674999850802,0.22364250000100583,782.9633786000195,782.963445100002,None,,,,,,,,,,,,,,00032,001,2026-01-22_10h59.30.259,MST_task,2024.2.0,60.13948752531708,2026-01-22 11h00.21.241620 +0530,
,Objects\160a.jpg,166,0,167,,,,,,,j,2.1858933999901637,0.19951289999880828,None,,,,,,167,0,166,782.9789967999968,,,,,,,,,,,,,,,,,,,,,,,782.9638126000063,782.9789967999968,783.4631564000156,,,,,,,,,,,,783.5001944999967,,,,,,,,,,,,,,,783.4980767000234,783.5001944999967,783.5001944999967,783.5001944999967,786.4794240000192,j,2.1858933999901637,0.19951289999880828,786.4796179000114,786.4796834000153,None,,,,,,,,,,,,,,00032,001,2026-01-22_10h59.30.259,MST_task,2024.2.0,60.13948752531708,2026-01-22 11h00.21.241620 +0530,
,Objects\130a.jpg,167,0,168,,,,,,,f,1.1089817000029143,0.224175200011814,None,,,,,,168,0,167,786.4960752000043,,,,,,,,,,,,,,,,,,,,,,,786.4803223000199,786.4960752000043,786.9800276000169,,,,,,,,,,,,787.0011077000236,,,,,,,,,,,,,,,786.9987285000097,787.0011077000236,787.0011077000236,787.0011077000236,789.9965121000132,f,1.1089817000029143,0.224175200011814,789.9967086999968,789.9967722000147,None,,,,,,,,,,,,,,00032,001,2026-01-22_10h59.30.259,MST_task,2024.2.0,60.13948752531708,2026-01-22 11h00.21.241620 +0530,
,Scenes\033a.jpg,168,0,169,,,,,,,j,1.504313799989177,0.19181839999509975,None,,,,,,169,0,168,790.0127529000165,,,,,,,,,,,,,,,,,,,,,,,789.99742900001,790.0127529000165,790.4963687999989,,,,,,,,,,,,790.5177429000032,,,,,,,,,,,,,,,790.5154204000137,790.5177429000032,790.5177429000032,790.5177429000032,793.5129108999972,j,1.504313799989177,0.19181839999509975,793.5131268000114,793.5131926000176,None,,,,,,,,,,,,,,00032,001,2026-01-22_10h59.30.259,MST_task,2024.2.0,60.13948752531708,2026-01-22 11h00.21.241620 +0530,
,Scenes\050a.jpg,169,0,170,,,,,,,j,0.9853812000073958,0.23987730001681484,None,,,,,,170,0,169,793.529208699998,,,,,,,,,,,,,,,,,,,,,,,793.5138576000172,793.529208699998,794.0131714000017,,,,,,,,,,,,794.0526873000199,,,,,,,,,,,,,,,794.0491896000167,794.0526873000199,794.0526873000199,794.0526873000199,797.0299358000048,j,0.9853812000073958,0.23987730001681484,797.0301085000101,797.0301630000176,None,,,,,,,,,,,,,,00032,001,2026-01-22_10h59.30.259,MST_task,2024.2.0,60.13948752531708,2026-01-22 11h00.21.241620 +0530,
,Scenes\094a.jpg,170,0,171,,,,,,,j,2.479843899986008,0.21601050000754185,None,,,,,,171,0,170,797.0460965000093,,,,,,,,,,,,,,,,,,,,,,,797.0304879000178,797.0460965000093,797.5295591000177,,,,,,,,,,,,797.5977813000209,,,,,,,,,,,,,,,797.5949456000235,797.5977813000209,797.5977813000209,797.5977813000209,800.5463210000016,j,2.479843899986008,0.21601050000754185,800.5465150999953,800.546579100017,None,,,,,,,,,,,,,,00032,001,2026-01-22_10h59.30.259,MST_task,2024.2.0,60.13948752531708,2026-01-22 11h00.21.241620 +0530,
,Scenes\077a.jpg,171,0,172,,,,,,,j,1.907831000018632,0.28885620000073686,None,,,,,,172,0,171,800.5626784000196,,,,,,,,,,,,,,,,,,,,,,,800.5468730000139,800.5626784000196,801.0464901000087,,,,,,,,,,,,801.0735839999979,,,,,,,,,,,,,,,801.0709099000087,801.0735839999979,801.0735839999979,801.0735839999979,804.0631272000028,j,1.907831000018632,0.28885620000073686,804.0633417000063,804.0634091999964,None,,,,,,,,,,,,,,00032,001,2026-01-22_10h59.30.259,MST_task,2024.2.0,60.13948752531708,2026-01-22 11h00.21.241620 +0530,
,Scenes\185a.jpg,172,0,173,,,,,,,j,0.9393932000093628,0.21623189997626469,None,,,,,,173,0,172,804.0791486000235,,,,,,,,,,,,,,,,,,,,,,,804.0637068000215,804.0791486000235,804.5634924000187,,,,,,,,,,,,804.6026636000024,,,,,,,,,,,,,,,804.5998169000086,804.6026636000024,804.6026636000024,804.6026636000024,807.5799350000161,j,0.9393932000093628,0.21623189997626469,807.5801302000182,807.5801946000138,None,,,,,,,,,,,,,,00032,001,2026-01-22_10h59.30.259,MST_task,2024.2.0,60.13948752531708,2026-01-22 11h00.21.241620 +0530,
,Scenes\182a.jpg,173,0,174,,,,,,,j,1.1393166999914683,0.29621609998866916,None,,,,,,174,0,173,807.5958132999949,,,,,,,,,,,,,,,,,,,,,,,807.5804898000206,807.5958132999949,808.0798164000153,,,,,,,,,,,,808.1546996000106,,,,,,,,,,,,,,,808.1516755000048,808.1546996000106,808.1546996000106,808.1546996000106,811.0962550000113,j,1.1393166999914683,0.29621609998866916,811.0964459000097,811.0965109000099,None,,,,,,,,,,,,,,00032,001,2026-01-22_10h59.30.259,MST_task,2024.2.0,60.13948752531708,2026-01-22 11h00.21.241620 +0530,
,Scenes\130a.jpg,174,0,175,,,,,,,j,1.6766099999949802,0.24823190001188777,None,,,,,,175,0,174,811.1131149000139,,,,,,,,,,,,,,,,,,,,,,,811.0968032999954,811.1131149000139,811.5967954000225,,,,,,,,,,,,811.6494403000106,,,,,,,,,,,,,,,811.6465755999961,811.6494403000106,811.6494403000106,811.6494403000106,814.6134978000191,j,1.6766099999949802,0.24823190001188777,814.613694700005,814.6137760000129,None,,,,,,,,,,,,,,00032,001,2026-01-22_10h59.30.259,MST_task,2024.2.0,60.13948752531708,2026-01-22 11h00.21.241620 +0530,
,Objects\069a.jpg,175,0,176,,,,,,,j,1.1947573999932501,0.21596990001853555,None,,,,,,176,0,175,814.6294291000231,,,,,,,,,,,,,,,,,,,,,,,814.6140737000096,814.6294291000231,815.1132349999971,,,,,,,,,,,,815.1388146000099,,,,,,,,,,,,,,,815.1360847000033,815.1388146000099,815.1388146000099,815.1388146000099,818.1298017000081,j,1.1947573999932501,0.21596990001853555,818.1300014000153,818.1300630000187,None,,,,,,,,,,,,,,00032,001,2026-01-22_10h59.30.259,MST_task,2024.2.0,60.13948752531708,2026-01-22 11h00.21.241620 +0530,
,Objects\003a.jpg,176,0,177,,,,,,,j,1.3553940000128932,0.19216720000258647,None,,,,,,177,0,176,818.1461242000223,,,,,,,,,,,,,,,,,,,,,,,818.1304270999972,818.1461242000223,818.6295882000122,,,,,,,,,,,,818.6499809000234,,,,,,,,,,,,,,,818.6474903000053,818.6499809000234,818.6499809000234,818.6499809000234,821.6305453999958,j,1.3553940000128932,0.19216720000258647,821.630738900014,821.6308022000012,None,,,,,,,,,,,,,,00032,001,2026-01-22_10h59.30.259,MST_task,2024.2.0,60.13948752531708,2026-01-22 11h00.21.241620 +0530,
