Sl_no,image_path,thisN,thisTrialN,thisRepN,key_resp_5.keys,key_resp_5.rt,key_resp_5.duration,key_resp_7.keys,key_resp_9.keys,key_resp_8.keys,key_resp_8.rt,key_resp_8.duration,key_resp_9.rt,key_resp_9.duration,practice.thisRepN,practice.thisTrialN,practice.thisN,trials.thisRepN,trials.thisTrialN,trials.thisN,thisRow.t,notes,welcome_page.started,text.started,key_resp.started,welcome_page.stopped,key_resp.keys,key_resp.rt,key_resp.duration,instructions.started,ins.started,key_resp_2.started,instructions.stopped,key_resp_2.keys,key_resp_2.rt,key_resp_2.duration,objects_only_instruction.started,text_3.started,key_resp_3.started,objects_only_instruction.stopped,key_resp_3.keys,key_resp_3.rt,key_resp_3.duration,ISI.started,text_4.started,ISI.stopped,practice_block.started,image.started,text_5.started,key_resp_5.started,practice_block.stopped,practice.key_resp_5.keys,practice.key_resp_5.rt,practice.key_resp_5.duration,indoor_outdoor.started,indoor_outdoor.stopped,practice.key_resp_7.keys,text_4.stopped,image.stopped,text_5.stopped,key_resp_5.stopped,practice_to_main.started,text_2.started,key_resp_4.started,practice_to_main.stopped,key_resp_4.keys,key_resp_4.rt,key_resp_4.duration,objects.started,image_2.started,text_9.started,key_resp_9.started,objects.stopped,trials.key_resp_9.keys,encoding_task.started,text_8.started,key_resp_8.started,encoding_task.stopped,trials.key_resp_8.keys,trials.key_resp_8.rt,trials.key_resp_8.duration,trials.key_resp_9.rt,trials.key_resp_9.duration,image_2.stopped,text_9.stopped,key_resp_9.stopped,end_experiment.started,text_6.started,key_resp_6.started,end_experiment.stopped,key_resp_6.keys,key_resp_6.rt,key_resp_6.duration,list_of_stimuli,encoding_task_accuracy,participant,session,date,expName,psychopyVersion,frameRate,expStart,
,,,,,,,,,,,,,,,,,,,,,,,0.0012315000058151782,0.0029121999978087842,0.0029121999978087842,16.263480299996445,space,16.24264330000733,None,,,,,,,,,,,,,,,,,,,,,,,,,,,,,,,,,,,,,,,,,,,,,,,,,,,,,,,,,,,,,,,,,,,00034,001,2026-01-22_17h23.05.207,MST_task,2024.2.0,60.0350364484742,2026-01-22 17h23.19.624056 +0530,
,,,,,,,,,,,,,,,,,,,,,,,,,,,,,,16.263558800012106,16.27788840001449,16.27788840001449,38.207680899999104,space,21.92753119999543,None,,,,,,,,,,,,,,,,,,,,,,,,,,,,,,,,,,,,,,,,,,,,,,,,,,,,,,,,,,,,00034,001,2026-01-22_17h23.05.207,MST_task,2024.2.0,60.0350364484742,2026-01-22 17h23.19.624056 +0530,
,,,,,,,,,,,,,,,,,,,,,,,,,,,,,,,,,,,,,38.20782360000885,38.23264850000851,38.23264850000851,51.407354700000724,space,13.172830299998168,None,,,,,,,,,,,,,,,,,,,,,,,,,,,,,,,,,,,,,,,,,,,,,,,,,,,,,00034,001,2026-01-22_17h23.05.207,MST_task,2024.2.0,60.0350364484742,2026-01-22 17h23.19.624056 +0530,
7,practice_images/166a.jpg,0,0,1,f,2.679432899982203,0.15189960002317093,None,,,,,,,1,0,0,,,,51.4312426999968,,,,,,,,,,,,,,,,,,,,,,,51.429031800013036,51.4312426999968,51.92395570001099,51.9513134000008,51.98199269999168,51.98199269999168,51.98199269999168,54.90838330000406,f,2.679432899982203,0.15189960002317093,54.915340000006836,54.91538859999855,None,,,,,,,,,,,,,,,,,,,,,,,,,,,,,,,,,,,,,,,00034,001,2026-01-22_17h23.05.207,MST_task,2024.2.0,60.0350364484742,2026-01-22 17h23.19.624056 +0530,
10,practice_images/182a.jpg,1,1,1,f,1.282052399998065,0.16062420001253486,None,,,,,,,1,1,1,,,,54.923830600018846,,,,,,,,,,,,,,,,,,,,,,,54.91560860001482,54.923830600018846,55.407494999992196,55.42372789999354,55.42694599999231,55.42694599999231,55.42694599999231,58.42404690000694,f,1.282052399998065,0.16062420001253486,58.42423269999563,58.424302200000966,None,55.42694599999231,,,,,,,,,,,,,,,,,,,,,,,,,,,,,,,,,,,,,,00034,001,2026-01-22_17h23.05.207,MST_task,2024.2.0,60.0350364484742,2026-01-22 17h23.19.624056 +0530,
8,practice_images/178a.jpg,2,2,1,j,2.2907017999968957,0.12038009997922927,None,,,,,,,1,2,2,,,,58.44023010000819,,,,,,,,,,,,,,,,,,,,,,,58.42458039999474,58.44023010000819,58.923864100012,58.94237940001767,58.94571550001274,58.94571550001274,58.94571550001274,61.924613400013186,j,2.2907017999968957,0.12038009997922927,61.92480050001177,61.92487170000095,None,58.94571550001274,,,,,,,,,,,,,,,,,,,,,,,,,,,,,,,,,,,,,,00034,001,2026-01-22_17h23.05.207,MST_task,2024.2.0,60.0350364484742,2026-01-22 17h23.19.624056 +0530,
5,practice_images/139a.jpg,3,3,1,j,1.6422193000034895,0.18356109998421744,None,,,,,,,1,3,3,,,,61.9398940000101,,,,,,,,,,,,,,,,,,,,,,,61.92515240001376,61.9398940000101,62.42390200000955,62.43979269999545,62.443140200019116,62.443140200019116,62.443140200019116,65.44075490001705,j,1.6422193000034895,0.18356109998421744,65.44094070000574,65.44100950000575,None,62.443140200019116,,,,,,,,,,,,,,,,,,,,,,,,,,,,,,,,,,,,,,00034,001,2026-01-22_17h23.05.207,MST_task,2024.2.0,60.0350364484742,2026-01-22 17h23.19.624056 +0530,
3,practice_images/037a.jpg,4,4,1,f,2.3700184000190347,0.14391169999726117,None,,,,,,,1,4,4,,,,65.45711580000352,,,,,,,,,,,,,,,,,,,,,,,65.4412862000172,65.45711580000352,65.9407667000196,65.95973689999664,65.96289120000438,65.96289120000438,65.96289120000438,68.95748869999079,f,2.3700184000190347,0.14391169999726117,68.95767570001772,68.95774600000004,None,65.96289120000438,,,,,,,,,,,,,,,,,,,,,,,,,,,,,,,,,,,,,,00034,001,2026-01-22_17h23.05.207,MST_task,2024.2.0,60.0350364484742,2026-01-22 17h23.19.624056 +0530,
6,practice_images/158a.jpg,5,5,1,j,1.7612447999999858,0.18447810001089238,None,,,,,,,1,5,5,,,,68.97377350000897,,,,,,,,,,,,,,,,,,,,,,,68.95802489999915,68.97377350000897,69.45717710000463,69.47283539999626,69.47573870001361,69.47573870001361,69.47573870001361,72.47417150001274,j,1.7612447999999858,0.18447810001089238,72.47435460000997,72.47442430001684,None,69.47573870001361,,,,,,,,,,,,,,,,,,,,,,,,,,,,,,,,,,,,,,00034,001,2026-01-22_17h23.05.207,MST_task,2024.2.0,60.0350364484742,2026-01-22 17h23.19.624056 +0530,
2,practice_images/031a.jpg,6,6,1,f,1.5991972000047099,0.16900719999102876,None,,,,,,,1,6,6,,,,72.49037740001222,,,,,,,,,,,,,,,,,,,,,,,72.47470310001518,72.49037740001222,72.97418730001664,72.99443769999198,72.99753600000986,72.99753600000986,72.99753600000986,75.99077750000288,f,1.5991972000047099,0.16900719999102876,75.99096799999825,75.99103969999123,None,72.99753600000986,,,,,,,,,,,,,,,,,,,,,,,,,,,,,,,,,,,,,,00034,001,2026-01-22_17h23.05.207,MST_task,2024.2.0,60.0350364484742,2026-01-22 17h23.19.624056 +0530,
1,practice_images/013a.jpg,7,7,1,j,1.3508469999942463,0.1927406000031624,None,,,,,,,1,7,7,,,,76.00711310000042,,,,,,,,,,,,,,,,,,,,,,,75.99131750001106,76.00711310000042,76.49082999999519,76.50674670000444,76.50997010001447,76.50997010001447,76.50997010001447,79.50724510001601,j,1.3508469999942463,0.1927406000031624,79.50744310001028,79.50752099999227,None,76.50997010001447,,,,,,,,,,,,,,,,,,,,,,,,,,,,,,,,,,,,,,00034,001,2026-01-22_17h23.05.207,MST_task,2024.2.0,60.0350364484742,2026-01-22 17h23.19.624056 +0530,
4,practice_images/002b.jpg,8,8,1,f,2.06238650000887,0.14433270000154153,None,,,,,,,1,8,8,,,,79.52356669999426,,,,,,,,,,,,,,,,,,,,,,,79.50781740000821,79.52356669999426,80.0075635999965,80.02718609999283,80.0303041000152,80.0303041000152,80.0303041000152,83.02399099999457,f,2.06238650000887,0.14433270000154153,83.02417829999467,83.02424870000686,None,80.0303041000152,,,,,,,,,,,,,,,,,,,,,,,,,,,,,,,,,,,,,,00034,001,2026-01-22_17h23.05.207,MST_task,2024.2.0,60.0350364484742,2026-01-22 17h23.19.624056 +0530,
9,practice_images/180a.jpg,9,9,1,f,1.2807904999936,0.19173060002503917,None,,,,,,,1,9,9,,,,83.04013910001959,,,,,,,,,,,,,,,,,,,,,,,83.02452730000368,83.04013910001959,83.52424600001541,83.5371342000144,83.54060510001727,83.54060510001727,83.54060510001727,86.52441640000325,f,1.2807904999936,0.19173060002503917,86.52459109999472,86.52464849999524,None,83.54060510001727,86.54030449999846,86.54030449999846,86.54030449999846,,,,,,,,,,,,,,,,,,,,,,,,,,,,,,,,,,,00034,001,2026-01-22_17h23.05.207,MST_task,2024.2.0,60.0350364484742,2026-01-22 17h23.19.624056 +0530,
,,,,,,,,,,,,,,,,,,,,,,,,,,,,,,,,,,,,,,,,,,,,,,,,,,,,,,,,,,,,,,86.52481000000262,86.54030449999846,86.54030449999846,103.00738709999132,space,16.465073800005484,None,,,,,,,,,,,,,,,,,,,,,,,,,,,,00034,001,2026-01-22_17h23.05.207,MST_task,2024.2.0,60.0350364484742,2026-01-22 17h23.19.624056 +0530,
,Scenes\034a.jpg,0,0,1,,,,,None,j,1.9522876999981236,None,,,,,,1,0,0,103.02377080000588,,,,,,,,,,,,,,,,,,,,,,,103.01065519999247,103.02377080000588,103.50740339999902,,,,,,,,,,,,103.54976640001405,,,,,,,,,,,103.54626800000551,103.54976640001405,103.54976640001405,103.54976640001405,106.52389229999972,None,106.52980680001201,106.54031889999169,106.54031889999169,108.50770889999694,j,1.9522876999981236,None,,,,,,,,,,,,,,,00034,001,2026-01-22_17h23.05.207,MST_task,2024.2.0,60.0350364484742,2026-01-22 17h23.19.624056 +0530,
,Scenes\001a.jpg,1,0,2,,,,,None,f,1.3810131999780424,None,,,,,,2,0,1,108.52357750001829,,,,,,,,,,,,,,,,,,,,,,,108.50815199999488,108.52357750001829,109.00751060000039,,,,,,,,,,,,109.0628762000124,,,,,,,,,,,109.05994900001679,109.0628762000124,109.0628762000124,109.0628762000124,112.02415330000804,None,112.02433370001381,112.04032040000311,112.04032040000311,113.42408050000085,f,1.3810131999780424,None,,,,,,,,,,,,,,,00034,001,2026-01-22_17h23.05.207,MST_task,2024.2.0,60.0350364484742,2026-01-22 17h23.19.624056 +0530,
,Scenes\189a.jpg,2,0,3,,,,,j,None,,,2.096220900013577,0.2000980000011623,,,,3,0,2,113.44013030000497,,,,,,,,,,,,,,,,,,,,,,,113.42453190000379,113.44013030000497,113.92394189999322,,,,,,,,,,,,113.95660930001759,,,,,,,,,,,113.95390210000915,113.95660930001759,113.95660930001759,113.95660930001759,116.94087230000878,j,116.94108170000254,,,116.9411641000188,None,,,2.096220900013577,0.2000980000011623,,,,,,,,,,,,,00034,001,2026-01-22_17h23.05.207,MST_task,2024.2.0,60.0350364484742,2026-01-22 17h23.19.624056 +0530,
,Scenes\141a.jpg,3,0,4,,,,,j,None,,,1.3777595999999903,0.15246250000200234,,,,4,0,3,116.9570592000091,,,,,,,,,,,,,,,,,,,,,,,116.94146659999387,116.9570592000091,117.44086210001842,,,,,,,,,,,,117.46694209999987,,,,,,,,,,,117.46421010000631,117.46694209999987,117.46694209999987,117.46694209999987,120.45746530001634,j,120.45767100001103,,,120.45773650001502,None,,,1.3777595999999903,0.15246250000200234,,,,,,,,,,,,,00034,001,2026-01-22_17h23.05.207,MST_task,2024.2.0,60.0350364484742,2026-01-22 17h23.19.624056 +0530,
,Scenes\174a.jpg,4,0,5,,,,,j,None,,,2.818640300014522,None,,,,5,0,4,120.47377050001523,,,,,,,,,,,,,,,,,,,,,,,120.45810270000948,120.47377050001523,120.95711620000657,,,,,,,,,,,,120.99405430001207,,,,,,,,,,,120.99122019999777,120.99405430001207,120.99405430001207,120.99405430001207,123.95846880000317,j,123.95867379999254,,,123.95874000000185,None,,,2.818640300014522,None,,,,,,,,,,,,,00034,001,2026-01-22_17h23.05.207,MST_task,2024.2.0,60.0350364484742,2026-01-22 17h23.19.624056 +0530,
,Scenes\114a.jpg,5,0,6,,,,,f,None,,,1.8511442999879364,0.2158029000274837,,,,6,0,5,123.97381339999265,,,,,,,,,,,,,,,,,,,,,,,123.9590884000063,123.97381339999265,124.45745190000162,,,,,,,,,,,,124.48999980001827,,,,,,,,,,,124.48752310001873,124.48999980001827,124.48999980001827,124.48999980001827,127.47416650000378,f,127.47437630000059,,,127.47444170000381,None,,,1.8511442999879364,0.2158029000274837,,,,,,,,,,,,,00034,001,2026-01-22_17h23.05.207,MST_task,2024.2.0,60.0350364484742,2026-01-22 17h23.19.624056 +0530,
,Scenes\164a.jpg,6,0,7,,,,,j,None,,,1.0909662999911234,0.18507370000588708,,,,7,0,6,127.49043130001519,,,,,,,,,,,,,,,,,,,,,,,127.47480699999142,127.49043130001519,127.9740420000162,,,,,,,,,,,,128.00972329999786,,,,,,,,,,,128.0069396000181,128.00972329999786,128.00972329999786,128.00972329999786,130.99083990001236,j,130.991039799992,,,130.9911063000036,None,,,1.0909662999911234,0.18507370000588708,,,,,,,,,,,,,00034,001,2026-01-22_17h23.05.207,MST_task,2024.2.0,60.0350364484742,2026-01-22 17h23.19.624056 +0530,
,Objects\136a.jpg,7,0,8,,,,,None,f,0.10547879998921417,None,,,,,,8,0,7,131.00705750001362,,,,,,,,,,,,,,,,,,,,,,,130.991403299995,131.00705750001362,131.49069770000642,,,,,,,,,,,,131.5174299000064,,,,,,,,,,,131.5149425000127,131.5174299000064,131.5174299000064,131.5174299000064,134.508413500007,None,134.50859660000424,134.52380950000952,134.52380950000952,134.64049119999981,f,0.10547879998921417,None,,,,,,,,,,,,,,,00034,001,2026-01-22_17h23.05.207,MST_task,2024.2.0,60.0350364484742,2026-01-22 17h23.19.624056 +0530,
,Objects\084a.jpg,8,0,9,,,,,f,None,,,1.6561424999963492,0.1917783000099007,,,,9,0,8,134.65706820000196,,,,,,,,,,,,,,,,,,,,,,,134.6409016000107,134.65706820000196,135.14065770001616,,,,,,,,,,,,135.15715099999215,,,,,,,,,,,135.14950120000867,135.15715099999215,135.15715099999215,135.15715099999215,138.14083260000916,f,138.14104839999345,,,138.14111359999515,None,,,1.6561424999963492,0.1917783000099007,,,,,,,,,,,,,00034,001,2026-01-22_17h23.05.207,MST_task,2024.2.0,60.0350364484742,2026-01-22 17h23.19.624056 +0530,
,Objects\165a.jpg,9,0,10,,,,,f,None,,,1.213762899977155,0.26473819999955595,,,,10,0,9,138.15711279999232,,,,,,,,,,,,,,,,,,,,,,,138.14149370000814,138.15711279999232,138.64051699999254,,,,,,,,,,,,138.66287790000206,,,,,,,,,,,138.66033879999304,138.66287790000206,138.66287790000206,138.66287790000206,141.65742080000928,f,141.65762380001252,,,141.65768810000736,None,,,1.213762899977155,0.26473819999955595,,,,,,,,,,,,,00034,001,2026-01-22_17h23.05.207,MST_task,2024.2.0,60.0350364484742,2026-01-22 17h23.19.624056 +0530,
,Objects\180a.jpg,10,0,11,,,,,f,None,,,1.7868833999964409,0.21663129999069497,,,,11,0,10,141.67379540001275,,,,,,,,,,,,,,,,,,,,,,,141.6579977000074,141.67379540001275,142.15744619999896,,,,,,,,,,,,142.1780243999965,,,,,,,,,,,142.17589270000462,142.1780243999965,142.1780243999965,142.1780243999965,145.17395190001116,f,145.17403480000212,,,145.1740581000049,None,,,1.7868833999964409,0.21663129999069497,,,,,,,,,,,,,00034,001,2026-01-22_17h23.05.207,MST_task,2024.2.0,60.0350364484742,2026-01-22 17h23.19.624056 +0530,
,Objects\174a.jpg,11,0,12,,,,,f,None,,,0.9862835000094492,0.2802918000088539,,,,12,0,11,145.1901646000042,,,,,,,,,,,,,,,,,,,,,,,145.17417109999224,145.1901646000042,145.67418600001838,,,,,,,,,,,,145.69031430000905,,,,,,,,,,,145.68255930001033,145.69031430000905,145.69031430000905,145.69031430000905,148.67494510000688,f,148.67514080001274,,,148.67520140000852,None,,,0.9862835000094492,0.2802918000088539,148.6904421999934,148.6904421999934,148.6904421999934,,,,,,,,,,00034,001,2026-01-22_17h23.05.207,MST_task,2024.2.0,60.0350364484742,2026-01-22 17h23.19.624056 +0530,
,Objects\146a.jpg,12,0,13,,,,,f,None,,,2.790574499987997,None,,,,13,0,12,148.6904421999934,,,,,,,,,,,,,,,,,,,,,,,148.67557510000188,148.6904421999934,149.1741896000167,,,,,,,,,,,,149.19072240000241,,,,,,,,,,,149.1805185000121,149.19072240000241,149.19072240000241,149.19072240000241,152.1750224000134,f,152.17522639999515,,,152.17528690001927,None,,,2.790574499987997,None,152.19016990001546,152.19016990001546,152.19016990001546,,,,,,,,,,00034,001,2026-01-22_17h23.05.207,MST_task,2024.2.0,60.0350364484742,2026-01-22 17h23.19.624056 +0530,
,Objects\169a.jpg,13,0,14,,,,,j,None,,,2.235327700007474,0.15191939999931492,,,,14,0,13,152.19016990001546,,,,,,,,,,,,,,,,,,,,,,,152.17558760000975,152.19016990001546,152.67420500001754,,,,,,,,,,,,152.69758760000695,,,,,,,,,,,152.69458720000694,152.69758760000695,152.69758760000695,152.69758760000695,155.6908350000158,j,155.6910378000175,,,155.69110409999848,None,,,2.235327700007474,0.15191939999931492,,,,,,,,,,,,,00034,001,2026-01-22_17h23.05.207,MST_task,2024.2.0,60.0350364484742,2026-01-22 17h23.19.624056 +0530,
,Scenes\098a.jpg,14,0,15,,,,,f,None,,,1.4055641000159085,0.16804019999108277,,,,15,0,14,155.70705339999404,,,,,,,,,,,,,,,,,,,,,,,155.69139630001155,155.70705339999404,156.19068940001307,,,,,,,,,,,,156.22370910001337,,,,,,,,,,,156.22062120001647,156.22370910001337,156.22370910001337,156.22370910001337,159.207725699991,f,159.2079262000043,,,159.20798939999077,None,,,1.4055641000159085,0.16804019999108277,,,,,,,,,,,,,00034,001,2026-01-22_17h23.05.207,MST_task,2024.2.0,60.0350364484742,2026-01-22 17h23.19.624056 +0530,
,Scenes\075a.jpg,15,0,16,,,,,j,None,,,1.3674326000036672,0.19149389999802224,,,,16,0,15,159.22379109999747,,,,,,,,,,,,,,,,,,,,,,,159.2083055000112,159.22379109999747,159.70742859999882,,,,,,,,,,,,159.73386010000831,,,,,,,,,,,159.73113070000545,159.73386010000831,159.73386010000831,159.73386010000831,162.72406910001882,j,162.7242741000082,,,162.7243403000175,None,,,1.3674326000036672,0.19149389999802224,,,,,,,,,,,,,00034,001,2026-01-22_17h23.05.207,MST_task,2024.2.0,60.0350364484742,2026-01-22 17h23.19.624056 +0530,
,Scenes\058a.jpg,16,0,17,,,,,f,None,,,1.602305400010664,0.1681756000034511,,,,17,0,16,162.74044170000707,,,,,,,,,,,,,,,,,,,,,,,162.72471120001865,162.74044170000707,163.22417309999582,,,,,,,,,,,,163.24300099999527,,,,,,,,,,,163.2402856000117,163.24300099999527,163.24300099999527,163.24300099999527,166.2408415999962,f,166.24104250001255,,,166.24110620000283,None,,,1.602305400010664,0.1681756000034511,,,,,,,,,,,,,00034,001,2026-01-22_17h23.05.207,MST_task,2024.2.0,60.0350364484742,2026-01-22 17h23.19.624056 +0530,
,Scenes\062a.jpg,17,0,18,,,,,j,None,,,2.329167599993525,0.13551059999736026,,,,18,0,17,166.25704110000515,,,,,,,,,,,,,,,,,,,,,,,166.2414711000165,166.25704110000515,166.74085810000543,,,,,,,,,,,,166.772151400015,,,,,,,,,,,166.7698772000149,166.772151400015,166.772151400015,166.772151400015,169.75745589999133,j,169.75765949999914,,,169.7577271000191,None,,,2.329167599993525,0.13551059999736026,,,,,,,,,,,,,00034,001,2026-01-22_17h23.05.207,MST_task,2024.2.0,60.0350364484742,2026-01-22 17h23.19.624056 +0530,
,Scenes\089a.jpg,18,0,19,,,,,j,None,,,1.7535082000249531,0.12873849997413345,,,,19,0,18,169.77379989999463,,,,,,,,,,,,,,,,,,,,,,,169.75809340001433,169.77379989999463,170.25747090001823,,,,,,,,,,,,170.2912883000099,,,,,,,,,,,170.2884175000072,170.2912883000099,170.2912883000099,170.2912883000099,173.27419290001853,j,173.2743935000035,,,173.27445719999378,None,,,1.7535082000249531,0.12873849997413345,,,,,,,,,,,,,00034,001,2026-01-22_17h23.05.207,MST_task,2024.2.0,60.0350364484742,2026-01-22 17h23.19.624056 +0530,
,Scenes\063a.jpg,19,0,20,,,,,j,None,,,1.685287200001767,0.1679479000158608,,,,20,0,19,173.29043860000093,,,,,,,,,,,,,,,,,,,,,,,173.27475270000286,173.29043860000093,173.77417240000796,,,,,,,,,,,,173.80753049999475,,,,,,,,,,,173.80458670001826,173.80753049999475,173.80753049999475,173.80753049999475,176.79088889999548,j,176.7911075000011,,,176.79117919999408,None,,,1.685287200001767,0.1679479000158608,,,,,,,,,,,,,00034,001,2026-01-22_17h23.05.207,MST_task,2024.2.0,60.0350364484742,2026-01-22 17h23.19.624056 +0530,
,Scenes\002a.jpg,20,0,21,,,,,j,None,,,2.6841042999876663,0.14433950002421625,,,,21,0,20,176.80711680001696,,,,,,,,,,,,,,,,,,,,,,,176.791638900002,176.80711680001696,177.2908851999964,,,,,,,,,,,,177.31280280000647,,,,,,,,,,,177.3098672000051,177.31280280000647,177.31280280000647,177.31280280000647,180.30748109999695,j,180.30768170001102,,,180.30774550000206,None,,,2.6841042999876663,0.14433950002421625,,,,,,,,,,,,,00034,001,2026-01-22_17h23.05.207,MST_task,2024.2.0,60.0350364484742,2026-01-22 17h23.19.624056 +0530,
,Objects\086a.jpg,21,0,22,,,,,None,j,0.2776620000076946,None,,,,,,22,0,21,180.323784600012,,,,,,,,,,,,,,,,,,,,,,,180.3081164000032,180.323784600012,180.80750029999763,,,,,,,,,,,,180.83013690001098,,,,,,,,,,,180.8271292000136,180.83013690001098,180.83013690001098,180.83013690001098,183.80866949999472,None,183.80885629999102,183.8236215999932,183.8236215999932,184.107507800014,j,0.2776620000076946,None,,,,,,,,,,,,,,,00034,001,2026-01-22_17h23.05.207,MST_task,2024.2.0,60.0350364484742,2026-01-22 17h23.19.624056 +0530,
,Objects\065a.jpg,22,0,23,,,,,None,f,0.10907920001773164,None,,,,,,23,0,22,184.12345710000955,,,,,,,,,,,,,,,,,,,,,,,184.10803259999375,184.12345710000955,184.60738739999942,,,,,,,,,,,,184.62400169999455,,,,,,,,,,,184.61590740000247,184.62400169999455,184.62400169999455,184.62400169999455,187.6082286000019,None,187.60840670001926,187.6238025999919,187.6238025999919,187.74091880000196,f,0.10907920001773164,None,,,187.6238025999919,187.6238025999919,187.6238025999919,,,,,,,,,,00034,001,2026-01-22_17h23.05.207,MST_task,2024.2.0,60.0350364484742,2026-01-22 17h23.19.624056 +0530,
,Objects\024a.jpg,23,0,24,,,,,f,None,,,1.2033187000197358,0.16880259997560643,,,,24,0,23,187.75678680001874,,,,,,,,,,,,,,,,,,,,,,,187.74136780001572,187.75678680001874,188.24084790001507,,,,,,,,,,,,188.25732010000502,,,,,,,,,,,188.24999060001574,188.25732010000502,188.25732010000502,188.25732010000502,191.24165340000764,f,191.24185650001164,,,191.2419182000158,None,,,1.2033187000197358,0.16880259997560643,191.25686260001385,191.25686260001385,191.25686260001385,,,,,,,,,,00034,001,2026-01-22_17h23.05.207,MST_task,2024.2.0,60.0350364484742,2026-01-22 17h23.19.624056 +0530,
,Objects\190a.jpg,24,0,25,,,,,None,f,2.608056900004158,None,,,,,,25,0,24,191.25686260001385,,,,,,,,,,,,,,,,,,,,,,,191.2423140000028,191.25686260001385,191.7408615000022,,,,,,,,,,,,191.75727210001787,,,,,,,,,,,191.75020020001102,191.75727210001787,191.75727210001787,191.75727210001787,194.74177340001916,None,194.74195160000818,194.75708460001624,194.75708460001624,197.3743148999929,f,2.608056900004158,None,,,194.75708460001624,194.75708460001624,194.75708460001624,,,,,,,,,,00034,001,2026-01-22_17h23.05.207,MST_task,2024.2.0,60.0350364484742,2026-01-22 17h23.19.624056 +0530,
,Objects\107a.jpg,25,0,26,,,,,f,None,,,1.8692495000141207,0.19091979999211617,,,,26,0,25,197.39027200001874,,,,,,,,,,,,,,,,,,,,,,,197.37466050000512,197.39027200001874,197.874180600018,,,,,,,,,,,,197.89663490001112,,,,,,,,,,,197.89385900000343,197.89663490001112,197.89663490001112,197.89663490001112,200.89083029999165,f,200.89103400000022,,,200.89110120001715,None,,,1.8692495000141207,0.19091979999211617,,,,,,,,,,,,,00034,001,2026-01-22_17h23.05.207,MST_task,2024.2.0,60.0350364484742,2026-01-22 17h23.19.624056 +0530,
,Objects\163a.jpg,26,0,27,,,,,j,None,,,2.2899080999777652,0.18378310001571663,,,,27,0,26,200.90705730000627,,,,,,,,,,,,,,,,,,,,,,,200.8914722999907,200.90705730000627,201.3908536999952,,,,,,,,,,,,201.41134210000746,,,,,,,,,,,201.40919940001913,201.41134210000746,201.41134210000746,201.41134210000746,204.40729530001408,j,204.40748769999482,,,204.40755249999347,None,,,2.2899080999777652,0.18378310001571663,,,,,,,,,,,,,00034,001,2026-01-22_17h23.05.207,MST_task,2024.2.0,60.0350364484742,2026-01-22 17h23.19.624056 +0530,
,Objects\062a.jpg,27,0,28,,,,,f,None,,,1.432516900007613,0.23216479999246076,,,,28,0,27,204.4237823000003,,,,,,,,,,,,,,,,,,,,,,,204.4078479000018,204.4237823000003,204.90877510001883,,,,,,,,,,,,,,,,,,,,,,,204.92900520001422,204.93206059999648,204.93206059999648,204.93206059999648,207.92417159999604,f,207.92440849999548,,,207.9244728999911,None,,,1.432516900007613,0.23216479999246076,,,,,,,,,,,,,00034,001,2026-01-22_17h23.05.207,MST_task,2024.2.0,60.0350364484742,2026-01-22 17h23.19.624056 +0530,
,Scenes\042a.jpg,28,0,29,,,,,None,j,0.0842150000098627,None,,,,,,29,0,28,207.94021279999288,,,,,,,,,,,,,,,,,,,,,,,207.9247647000011,207.94021279999288,208.4237065000052,,,,,,,,,,,,208.44093929999508,,,,,,,,,,,208.43840549999732,208.44093929999508,208.44093929999508,208.44093929999508,211.42500859999564,None,211.425186700013,211.44042379999883,211.44042379999883,211.54098859999795,j,0.0842150000098627,None,,,211.44042379999883,211.44042379999883,211.44042379999883,,,,,,,,,,00034,001,2026-01-22_17h23.05.207,MST_task,2024.2.0,60.0350364484742,2026-01-22 17h23.19.624056 +0530,
,Scenes\170a.jpg,29,0,30,,,,,j,None,,,1.4021791999984998,0.16819480000413023,,,,30,0,29,211.5570748000173,,,,,,,,,,,,,,,,,,,,,,,211.54135280000628,211.5570748000173,212.04073919999064,,,,,,,,,,,,212.07438800000818,,,,,,,,,,,212.07154239999363,212.07438800000818,212.07438800000818,212.07438800000818,215.05749120001565,j,215.05769509999664,,,215.05775920001906,None,,,1.4021791999984998,0.16819480000413023,,,,,,,,,,,,,00034,001,2026-01-22_17h23.05.207,MST_task,2024.2.0,60.0350364484742,2026-01-22 17h23.19.624056 +0530,
,Scenes\100a.jpg,30,0,31,,,,,f,None,,,1.9093525999924168,0.18356639999547042,,,,31,0,30,215.07386599999154,,,,,,,,,,,,,,,,,,,,,,,215.05805839999812,215.07386599999154,215.55749979999382,,,,,,,,,,,,215.57594010001048,,,,,,,,,,,215.57320230000187,215.57594010001048,215.57594010001048,215.57594010001048,218.57386720000068,f,218.5740744000068,,,218.5741396000085,None,,,1.9093525999924168,0.18356639999547042,,,,,,,,,,,,,00034,001,2026-01-22_17h23.05.207,MST_task,2024.2.0,60.0350364484742,2026-01-22 17h23.19.624056 +0530,
,Scenes\125a.jpg,31,0,32,,,,,j,None,,,1.1138774999999441,0.16817029999219812,,,,32,0,31,218.5910078000161,,,,,,,,,,,,,,,,,,,,,,,218.57462170001236,218.5910078000161,219.07406390001415,,,,,,,,,,,,219.10706860001665,,,,,,,,,,,219.1041843999992,219.10706860001665,219.10706860001665,219.10706860001665,222.09089940000558,j,222.09110310001415,,,222.0911684000166,None,,,1.1138774999999441,0.16817029999219812,,,,,,,,,,,,,00034,001,2026-01-22_17h23.05.207,MST_task,2024.2.0,60.0350364484742,2026-01-22 17h23.19.624056 +0530,
,Scenes\106a.jpg,32,0,33,,,,,j,None,,,2.1855969000025652,0.1681774000171572,,,,33,0,32,222.10701199999312,,,,,,,,,,,,,,,,,,,,,,,222.09153720000177,222.10701199999312,222.59098740000627,,,,,,,,,,,,222.61967240000376,,,,,,,,,,,222.61728850001236,222.61967240000376,222.61967240000376,222.61967240000376,225.60747550000087,j,225.60769080001046,,,225.60776020001504,None,,,2.1855969000025652,0.1681774000171572,,,,,,,,,,,,,00034,001,2026-01-22_17h23.05.207,MST_task,2024.2.0,60.0350364484742,2026-01-22 17h23.19.624056 +0530,
,Scenes\182a.jpg,33,0,34,,,,,f,None,,,2.534287399990717,0.20739840000169352,,,,34,0,33,225.62378610001178,,,,,,,,,,,,,,,,,,,,,,,225.60815650000586,225.62378610001178,226.10729519999586,,,,,,,,,,,,226.13507449999452,,,,,,,,,,,226.13231950000045,226.13507449999452,226.13507449999452,226.13507449999452,229.1241141000064,f,229.1243172000104,,,229.12438310001744,None,,,2.534287399990717,0.20739840000169352,,,,,,,,,,,,,00034,001,2026-01-22_17h23.05.207,MST_task,2024.2.0,60.0350364484742,2026-01-22 17h23.19.624056 +0530,
,Scenes\007a.jpg,34,0,35,,,,,f,None,,,2.1406416000099853,0.20781589997932315,,,,35,0,34,229.14045040000929,,,,,,,,,,,,,,,,,,,,,,,229.1246761000075,229.14045040000929,229.62425630001235,,,,,,,,,,,,229.64860119999503,,,,,,,,,,,229.64596630001324,229.64860119999503,229.64860119999503,229.64860119999503,232.640834299993,f,232.64103580001392,,,232.64110169999185,None,,,2.1406416000099853,0.20781589997932315,,,,,,,,,,,,,00034,001,2026-01-22_17h23.05.207,MST_task,2024.2.0,60.0350364484742,2026-01-22 17h23.19.624056 +0530,
,Objects\022a.jpg,35,0,36,,,,,f,None,,,2.585418300004676,0.20760109997354448,,,,36,0,35,232.6570585000154,,,,,,,,,,,,,,,,,,,,,,,232.64139619999332,232.6570585000154,233.1408434000041,,,,,,,,,,,,233.16381739999633,,,,,,,,,,,233.1610389999987,233.16381739999633,233.16381739999633,233.16381739999633,236.15738700001384,f,236.1575906999933,,,236.15765790001024,None,,,2.585418300004676,0.20760109997354448,,,,,,,,,,,,,00034,001,2026-01-22_17h23.05.207,MST_task,2024.2.0,60.0350364484742,2026-01-22 17h23.19.624056 +0530,
,Objects\186a.jpg,36,0,37,,,,,f,None,,,0.9706513000128325,0.21617169998353347,,,,37,0,36,236.17369550000876,,,,,,,,,,,,,,,,,,,,,,,236.1579553000047,236.17369550000876,236.65751660001115,,,,,,,,,,,,236.67403349999222,,,,,,,,,,,236.66494340001373,236.67403349999222,236.67403349999222,236.67403349999222,239.65831689999322,f,239.65857860000688,,,239.65863970000646,None,,,0.9706513000128325,0.21617169998353347,239.67346160000307,239.67346160000307,239.67346160000307,,,,,,,,,,00034,001,2026-01-22_17h23.05.207,MST_task,2024.2.0,60.0350364484742,2026-01-22 17h23.19.624056 +0530,
,Objects\111a.jpg,37,0,38,,,,,f,None,,,1.0487382999854162,0.19196530000772327,,,,38,0,37,239.67346160000307,,,,,,,,,,,,,,,,,,,,,,,239.65897530000075,239.67346160000307,240.15747579999152,,,,,,,,,,,,240.18003049999243,,,,,,,,,,,240.17727340001147,240.18003049999243,240.18003049999243,240.18003049999243,243.17397390000406,f,243.1741857000161,,,243.17425030001323,None,,,1.0487382999854162,0.19196530000772327,,,,,,,,,,,,,00034,001,2026-01-22_17h23.05.207,MST_task,2024.2.0,60.0350364484742,2026-01-22 17h23.19.624056 +0530,
,Objects\175a.jpg,38,0,39,,,,,f,None,,,1.0510871000005864,0.22464579998631962,,,,39,0,38,243.1904645000177,,,,,,,,,,,,,,,,,,,,,,,243.1746240000066,243.1904645000177,243.674193200015,,,,,,,,,,,,243.69775429999572,,,,,,,,,,,243.69483320001746,243.69775429999572,243.69775429999572,243.69775429999572,246.69049510001787,f,246.69070440001087,,,246.69076940001105,None,,,1.0510871000005864,0.22464579998631962,,,,,,,,,,,,,00034,001,2026-01-22_17h23.05.207,MST_task,2024.2.0,60.0350364484742,2026-01-22 17h23.19.624056 +0530,
,Objects\105a.jpg,39,0,40,,,,,f,None,,,0.6630823999876156,0.14489049999974668,,,,40,0,39,246.70706889999565,,,,,,,,,,,,,,,,,,,,,,,246.69107050000457,246.70706889999565,247.19087220000802,,,,,,,,,,,,247.21343309999793,,,,,,,,,,,247.21069929999067,247.21343309999793,247.21343309999793,247.21343309999793,250.20748330000788,f,250.20770050000283,,,250.20778980001342,None,,,0.6630823999876156,0.14489049999974668,,,,,,,,,,,,,00034,001,2026-01-22_17h23.05.207,MST_task,2024.2.0,60.0350364484742,2026-01-22 17h23.19.624056 +0530,
,Objects\032a.jpg,40,0,41,,,,,j,None,,,0.9132215999998152,0.16801390002365224,,,,41,0,40,250.22379610000644,,,,,,,,,,,,,,,,,,,,,,,250.20811550001963,250.22379610000644,250.70745800001896,,,,,,,,,,,,250.7240160999936,,,,,,,,,,,250.71567030000733,250.7240160999936,250.7240160999936,250.7240160999936,253.7083200000052,j,253.70852010001545,,,253.70858010000666,None,,,0.9132215999998152,0.16801390002365224,253.7237778000126,253.7237778000126,253.7237778000126,,,,,,,,,,00034,001,2026-01-22_17h23.05.207,MST_task,2024.2.0,60.0350364484742,2026-01-22 17h23.19.624056 +0530,
,Objects\009a.jpg,41,0,42,,,,,f,None,,,1.8367628999985754,0.1843147999898065,,,,42,0,41,253.7237778000126,,,,,,,,,,,,,,,,,,,,,,,253.7089945000189,253.7237778000126,254.20743340000627,,,,,,,,,,,,254.22381970001152,,,,,,,,,,,254.21707430001698,254.22381970001152,254.22381970001152,254.22381970001152,257.20899980000104,f,257.2091932000185,,,257.2092540000158,None,,,1.8367628999985754,0.1843147999898065,257.2234518000041,257.2234518000041,257.2234518000041,,,,,,,,,,00034,001,2026-01-22_17h23.05.207,MST_task,2024.2.0,60.0350364484742,2026-01-22 17h23.19.624056 +0530,
,Scenes\152a.jpg,42,0,43,,,,,j,None,,,0.9734308999904897,0.1681527000037022,,,,43,0,42,257.2234518000041,,,,,,,,,,,,,,,,,,,,,,,257.2095517000125,257.2234518000041,257.7074481000018,,,,,,,,,,,,257.7513787999924,,,,,,,,,,,257.7487428000022,257.7513787999924,257.7513787999924,257.7513787999924,260.7243938000174,j,260.7246240999957,,,260.72469080000883,None,,,0.9734308999904897,0.1681527000037022,,,,,,,,,,,,,00034,001,2026-01-22_17h23.05.207,MST_task,2024.2.0,60.0350364484742,2026-01-22 17h23.19.624056 +0530,
,Scenes\086a.jpg,43,0,44,,,,,j,None,,,0.9471992999897338,0.12015500001143664,,,,44,0,43,260.7401691999985,,,,,,,,,,,,,,,,,,,,,,,260.72506440000143,260.7401691999985,261.22393060001195,,,,,,,,,,,,261.3380814999982,,,,,,,,,,,261.3353580000112,261.3380814999982,261.3380814999982,261.3380814999982,264.2408778000099,j,264.24107670001104,,,264.24114190001274,None,,,0.9471992999897338,0.12015500001143664,,,,,,,,,,,,,00034,001,2026-01-22_17h23.05.207,MST_task,2024.2.0,60.0350364484742,2026-01-22 17h23.19.624056 +0530,
,Scenes\123a.jpg,44,0,45,,,,,j,None,,,0.8660834999755025,0.14433400001144037,,,,45,0,44,264.2571289000043,,,,,,,,,,,,,,,,,,,,,,,264.2414370000188,264.2571289000043,264.74058710000827,,,,,,,,,,,,264.77065220000804,,,,,,,,,,,264.76788250001846,264.77065220000804,264.77065220000804,264.77065220000804,267.7573369000165,j,267.757537700003,,,267.7576006000163,None,,,0.8660834999755025,0.14433400001144037,,,,,,,,,,,,,00034,001,2026-01-22_17h23.05.207,MST_task,2024.2.0,60.0350364484742,2026-01-22 17h23.19.624056 +0530,
,Scenes\011a.jpg,45,0,46,,,,,j,None,,,2.420051199995214,0.11285490001318976,,,,46,0,45,267.77450800000224,,,,,,,,,,,,,,,,,,,,,,,267.7579706000106,267.77450800000224,268.2739576000022,,,,,,,,,,,,,,,,,,,,,,,268.3097134999989,268.3125302999979,268.3125302999979,268.3125302999979,271.2743612000195,j,271.2745780000114,,,271.27465000000666,None,,,2.420051199995214,0.11285490001318976,,,,,,,,,,,,,00034,001,2026-01-22_17h23.05.207,MST_task,2024.2.0,60.0350364484742,2026-01-22 17h23.19.624056 +0530,
,Scenes\030a.jpg,46,0,47,,,,,j,None,,,1.0023414999886882,0.14359580000746064,,,,47,0,46,271.29029289999744,,,,,,,,,,,,,,,,,,,,,,,271.2750641000166,271.29029289999744,271.77404019999085,,,,,,,,,,,,271.81089710001834,,,,,,,,,,,271.80797090000124,271.81089710001834,271.81089710001834,271.81089710001834,274.790642500011,j,274.79084729999886,,,274.790914000012,None,,,1.0023414999886882,0.14359580000746064,,,,,,,,,,,,,00034,001,2026-01-22_17h23.05.207,MST_task,2024.2.0,60.0350364484742,2026-01-22 17h23.19.624056 +0530,
,Scenes\168a.jpg,47,0,48,,,,,j,None,,,1.5078052000026219,0.09619869999005459,,,,48,0,47,274.8071319000155,,,,,,,,,,,,,,,,,,,,,,,274.7912079000089,274.8071319000155,275.2908606000128,,,,,,,,,,,,275.32077730001765,,,,,,,,,,,275.31779749999987,275.32077730001765,275.32077730001765,275.32077730001765,278.3075061000127,j,278.3077101999952,,,278.3077734000108,None,,,1.5078052000026219,0.09619869999005459,,,,,,,,,,,,,00034,001,2026-01-22_17h23.05.207,MST_task,2024.2.0,60.0350364484742,2026-01-22 17h23.19.624056 +0530,
,Scenes\039a.jpg,48,0,49,,,,,j,None,,,0.8219667999946978,0.16888029998517595,,,,49,0,48,278.3237133999937,,,,,,,,,,,,,,,,,,,,,,,278.30806870001834,278.3237133999937,278.8075305999955,,,,,,,,,,,,278.83855310000945,,,,,,,,,,,278.83585279999534,278.83855310000945,278.83855310000945,278.83855310000945,281.8242012000119,j,281.82440000001225,,,281.82446490001166,None,,,0.8219667999946978,0.16888029998517595,,,,,,,,,,,,,00034,001,2026-01-22_17h23.05.207,MST_task,2024.2.0,60.0350364484742,2026-01-22 17h23.19.624056 +0530,
,Objects\137a.jpg,49,0,50,,,,,None,f,0.14429550000932068,None,,,,,,50,0,49,281.8403527000046,,,,,,,,,,,,,,,,,,,,,,,281.8248368999921,281.8403527000046,282.3241257999907,,,,,,,,,,,,282.3498060000129,,,,,,,,,,,282.34666500001913,282.3498060000129,282.3498060000129,282.3498060000129,285.3406297000183,None,285.3408393000136,285.35686910001095,285.35686910001095,285.50763460001326,f,0.14429550000932068,None,,,,,,,,,,,,,,,00034,001,2026-01-22_17h23.05.207,MST_task,2024.2.0,60.0350364484742,2026-01-22 17h23.19.624056 +0530,
,Objects\003a.jpg,50,0,51,,,,,j,None,,,2.6040794999862555,0.1522246000240557,,,,51,0,50,285.52374840000994,,,,,,,,,,,,,,,,,,,,,,,285.50800669999444,285.52374840000994,286.00740510001197,,,,,,,,,,,,286.03312619999633,,,,,,,,,,,286.0302973999933,286.03312619999633,286.03312619999633,286.03312619999633,289.02417469999637,j,289.0243950000149,,,289.02446660000714,None,,,2.6040794999862555,0.1522246000240557,,,,,,,,,,,,,00034,001,2026-01-22_17h23.05.207,MST_task,2024.2.0,60.0350364484742,2026-01-22 17h23.19.624056 +0530,
,Objects\115a.jpg,51,0,52,,,,,f,None,,,1.1156240999989677,0.16840950000914745,,,,52,0,51,289.0404896000109,,,,,,,,,,,,,,,,,,,,,,,289.0248501000169,289.0404896000109,289.5237632000062,,,,,,,,,,,,289.5453394000069,,,,,,,,,,,289.54263690000516,289.5453394000069,289.5453394000069,289.5453394000069,292.54061419999925,f,292.54082970001036,,,292.54089289999683,None,,,1.1156240999989677,0.16840950000914745,,,,,,,,,,,,,00034,001,2026-01-22_17h23.05.207,MST_task,2024.2.0,60.0350364484742,2026-01-22 17h23.19.624056 +0530,
,Objects\109a.jpg,52,0,53,,,,,f,None,,,1.244564900000114,0.20017300001927651,,,,53,0,52,292.55701230000705,,,,,,,,,,,,,,,,,,,,,,,292.5412762000051,292.55701230000705,293.0408663999988,,,,,,,,,,,,293.0639439999941,,,,,,,,,,,293.0608185000019,293.0639439999941,293.0639439999941,293.0639439999941,296.05735670001013,f,296.0575650999963,,,296.05763009999646,None,,,1.244564900000114,0.20017300001927651,,,,,,,,,,,,,00034,001,2026-01-22_17h23.05.207,MST_task,2024.2.0,60.0350364484742,2026-01-22 17h23.19.624056 +0530,
,Objects\126a.jpg,53,0,54,,,,,j,None,,,1.2467929999984335,0.1601688000082504,,,,54,0,53,296.0734861000092,,,,,,,,,,,,,,,,,,,,,,,296.0580033000151,296.0734861000092,296.55755719999433,,,,,,,,,,,,296.5740324000071,,,,,,,,,,,296.56643870001426,296.5740324000071,296.5740324000071,296.5740324000071,299.5584109000047,j,299.55861199999345,,,299.5586733999953,None,,,1.2467929999984335,0.1601688000082504,299.5736667000165,299.5736667000165,299.5736667000165,,,,,,,,,,00034,001,2026-01-22_17h23.05.207,MST_task,2024.2.0,60.0350364484742,2026-01-22 17h23.19.624056 +0530,
,Objects\002a.jpg,54,0,55,,,,,f,None,,,1.2271137000061572,0.19176180000067689,,,,55,0,54,299.5736667000165,,,,,,,,,,,,,,,,,,,,,,,299.55897760001244,299.5736667000165,300.0575880999968,,,,,,,,,,,,300.07403310001246,,,,,,,,,,,300.066244799993,300.07403310001246,300.07403310001246,300.07403310001246,303.05831880000187,f,303.05851960001746,,,303.0585798000102,None,,,1.2271137000061572,0.19176180000067689,303.07371749999584,303.07371749999584,303.07371749999584,,,,,,,,,,00034,001,2026-01-22_17h23.05.207,MST_task,2024.2.0,60.0350364484742,2026-01-22 17h23.19.624056 +0530,
,Objects\134a.jpg,55,0,56,,,,,f,None,,,1.2466873000084888,0.16833549999864772,,,,56,0,55,303.07371749999584,,,,,,,,,,,,,,,,,,,,,,,303.0589508000121,303.07371749999584,303.5575211000105,,,,,,,,,,,,303.573998900014,,,,,,,,,,,303.5657942999969,303.573998900014,303.573998900014,303.573998900014,306.55830540001625,f,306.55849920000765,,,306.55855819999124,None,,,1.2466873000084888,0.16833549999864772,306.5737170999928,306.5737170999928,306.5737170999928,,,,,,,,,,00034,001,2026-01-22_17h23.05.207,MST_task,2024.2.0,60.0350364484742,2026-01-22 17h23.19.624056 +0530,
,Scenes\018a.jpg,56,0,57,,,,,j,None,,,1.7172896999982186,0.15201530000194907,,,,57,0,56,306.5737170999928,,,,,,,,,,,,,,,,,,,,,,,306.5589321000152,306.5737170999928,307.05889919999754,,,,,,,,,,,,307.08744520001346,,,,,,,,,,,307.08482980000554,307.08744520001346,307.08744520001346,307.08744520001346,310.0743703999906,j,310.07457080000313,,,310.0746358000033,None,,,1.7172896999982186,0.15201530000194907,,,,,,,,,,,,,00034,001,2026-01-22_17h23.05.207,MST_task,2024.2.0,60.0350364484742,2026-01-22 17h23.19.624056 +0530,
,Scenes\108a.jpg,57,0,58,,,,,j,None,,,0.7508950000046752,0.17607320001116022,,,,58,0,57,310.0901850000082,,,,,,,,,,,,,,,,,,,,,,,310.07498570001917,310.0901850000082,310.5740633000096,,,,,,,,,,,,310.60573280000244,,,,,,,,,,,310.60297420001007,310.60573280000244,310.60573280000244,310.60573280000244,313.5906520000135,j,313.59085159999086,,,313.59091759999865,None,,,0.7508950000046752,0.17607320001116022,,,,,,,,,,,,,00034,001,2026-01-22_17h23.05.207,MST_task,2024.2.0,60.0350364484742,2026-01-22 17h23.19.624056 +0530,
,Scenes\092a.jpg,58,0,59,,,,,j,None,,,1.08038120000856,0.14405050000641495,,,,59,0,58,313.6067727000045,,,,,,,,,,,,,,,,,,,,,,,313.59121509999386,313.6067727000045,314.09086950001074,,,,,,,,,,,,314.1249472000054,,,,,,,,,,,314.1221193000092,314.1249472000054,314.1249472000054,314.1249472000054,317.10753140001907,j,317.1077280000027,,,317.1077939000097,None,,,1.08038120000856,0.14405050000641495,,,,,,,,,,,,,00034,001,2026-01-22_17h23.05.207,MST_task,2024.2.0,60.0350364484742,2026-01-22 17h23.19.624056 +0530,
,Scenes\009a.jpg,59,0,60,,,,,None,j,1.692717800004175,None,,,,,,60,0,59,317.1237134000112,,,,,,,,,,,,,,,,,,,,,,,317.1080855000182,317.1237134000112,317.6082912000129,,,,,,,,,,,,,,,,,,,,,,,317.70325350001804,317.7064267999958,317.7064267999958,317.7064267999958,320.6240306000109,None,320.62423889999627,320.640247000003,320.640247000003,322.34093209999264,j,1.692717800004175,None,,,,,,,,,,,,,,,00034,001,2026-01-22_17h23.05.207,MST_task,2024.2.0,60.0350364484742,2026-01-22 17h23.19.624056 +0530,
,Scenes\029a.jpg,60,0,61,,,,,j,None,,,1.126840999990236,0.11939970002276823,,,,61,0,60,322.35716410001623,,,,,,,,,,,,,,,,,,,,,,,322.34127279999666,322.35716410001623,322.84081620001234,,,,,,,,,,,,322.8624388000171,,,,,,,,,,,322.85977100001764,322.8624388000171,322.8624388000171,322.8624388000171,325.8580627999909,j,325.8582744000014,,,325.85834080001223,None,,,1.126840999990236,0.11939970002276823,,,,,,,,,,,,,00034,001,2026-01-22_17h23.05.207,MST_task,2024.2.0,60.0350364484742,2026-01-22 17h23.19.624056 +0530,
,Scenes\078a.jpg,61,0,62,,,,,j,None,,,0.9165384999942034,0.12082849998841994,,,,62,0,61,325.8737994999974,,,,,,,,,,,,,,,,,,,,,,,325.85875240000314,325.8737994999974,326.35742919999757,,,,,,,,,,,,326.3760084999958,,,,,,,,,,,326.37336319999304,326.3760084999958,326.3760084999958,326.3760084999958,329.374089799996,j,329.3742909000139,,,329.37435689999256,None,,,0.9165384999942034,0.12082849998841994,,,,,,,,,,,,,00034,001,2026-01-22_17h23.05.207,MST_task,2024.2.0,60.0350364484742,2026-01-22 17h23.19.624056 +0530,
,Scenes\015a.jpg,62,0,63,,,,,j,None,,,1.4688275000080466,0.10487999999895692,,,,63,0,62,329.3904068999982,,,,,,,,,,,,,,,,,,,,,,,329.3747205999971,329.3904068999982,329.87421330000507,,,,,,,,,,,,329.9116992999916,,,,,,,,,,,329.90878150000935,329.9116992999916,329.9116992999916,329.9116992999916,332.8907947000116,j,332.8909918999998,,,332.89105770000606,None,,,1.4688275000080466,0.10487999999895692,,,,,,,,,,,,,00034,001,2026-01-22_17h23.05.207,MST_task,2024.2.0,60.0350364484742,2026-01-22 17h23.19.624056 +0530,
,Objects\122a.jpg,63,0,64,,,,,f,None,,,1.067242899996927,0.17585010000038892,,,,64,0,63,332.90715460001957,,,,,,,,,,,,,,,,,,,,,,,332.8914272999973,332.90715460001957,333.39086320000933,,,,,,,,,,,,333.43388339999365,,,,,,,,,,,333.4305927999958,333.43388339999365,333.43388339999365,333.43388339999365,336.4083777999913,f,336.40861980000045,,,336.4087100000179,None,,,1.067242899996927,0.17585010000038892,,,,,,,,,,,,,00034,001,2026-01-22_17h23.05.207,MST_task,2024.2.0,60.0350364484742,2026-01-22 17h23.19.624056 +0530,
,Objects\069a.jpg,64,0,65,,,,,j,None,,,0.9844049999956042,0.1521569000033196,,,,65,0,64,336.4238031000132,,,,,,,,,,,,,,,,,,,,,,,336.4090351999912,336.4238031000132,336.9075751999917,,,,,,,,,,,,336.9240635000169,,,,,,,,,,,336.9170551999996,336.9240635000169,336.9240635000169,336.9240635000169,339.90833340000245,j,339.908548300009,,,339.90861050001695,None,,,0.9844049999956042,0.1521569000033196,339.92380879999837,339.92380879999837,339.92380879999837,,,,,,,,,,00034,001,2026-01-22_17h23.05.207,MST_task,2024.2.0,60.0350364484742,2026-01-22 17h23.19.624056 +0530,
,Objects\160a.jpg,65,0,66,,,,,j,None,,,1.9573142000008374,0.14386199999717064,,,,66,0,65,339.92380879999837,,,,,,,,,,,,,,,,,,,,,,,339.9089975999959,339.92380879999837,340.4070670999936,,,,,,,,,,,,340.4239082999993,,,,,,,,,,,340.4213549999986,340.4239082999993,340.4239082999993,340.4239082999993,343.4083389000152,j,343.4085302000167,,,343.40859209999326,None,,,1.9573142000008374,0.14386199999717064,343.42380630000844,343.42380630000844,343.42380630000844,,,,,,,,,,00034,001,2026-01-22_17h23.05.207,MST_task,2024.2.0,60.0350364484742,2026-01-22 17h23.19.624056 +0530,
,Objects\055a.jpg,66,0,67,,,,,f,None,,,1.2410780000209343,0.15949869999894872,,,,67,0,66,343.42380630000844,,,,,,,,,,,,,,,,,,,,,,,343.4088737000129,343.42380630000844,343.907572600001,,,,,,,,,,,,343.92405800000415,,,,,,,,,,,343.916527399997,343.92405800000415,343.92405800000415,343.92405800000415,346.9083001000108,f,346.9084949000098,,,346.9085552000033,None,,,1.2410780000209343,0.15949869999894872,346.92373280000174,346.92373280000174,346.92373280000174,,,,,,,,,,00034,001,2026-01-22_17h23.05.207,MST_task,2024.2.0,60.0350364484742,2026-01-22 17h23.19.624056 +0530,
,Objects\179a.jpg,67,0,68,,,,,f,None,,,2.5649356999783777,0.18434360000537708,,,,68,0,67,346.92373280000174,,,,,,,,,,,,,,,,,,,,,,,346.9088466000103,346.92373280000174,347.40757640000083,,,,,,,,,,,,347.4240770000033,,,,,,,,,,,347.41406760000973,347.4240770000033,347.4240770000033,347.4240770000033,350.4080804999976,f,350.40827030001674,,,350.4083299000049,None,,,2.5649356999783777,0.18434360000537708,350.4238139000081,350.4238139000081,350.4238139000081,,,,,,,,,,00034,001,2026-01-22_17h23.05.207,MST_task,2024.2.0,60.0350364484742,2026-01-22 17h23.19.624056 +0530,
,Objects\061a.jpg,68,0,69,,,,,j,None,,,2.0853410999989137,0.13627200000337325,,,,69,0,68,350.4238139000081,,,,,,,,,,,,,,,,,,,,,,,350.4086881999974,350.4238139000081,350.90754889999516,,,,,,,,,,,,350.94329769999604,,,,,,,,,,,350.9406330999918,350.94329769999604,350.94329769999604,350.94329769999604,353.9242719000031,j,353.92447019999963,,,353.92453560000286,None,,,2.0853410999989137,0.13627200000337325,,,,,,,,,,,,,00034,001,2026-01-22_17h23.05.207,MST_task,2024.2.0,60.0350364484742,2026-01-22 17h23.19.624056 +0530,
,Objects\103a.jpg,69,0,70,,,,,f,None,,,1.0298951000149827,0.19196719999308698,,,,70,0,69,353.94008560001384,,,,,,,,,,,,,,,,,,,,,,,353.92489680001745,353.94008560001384,354.42423960001906,,,,,,,,,,,,354.45474909999757,,,,,,,,,,,354.4526112000167,354.45474909999757,354.45474909999757,354.45474909999757,357.44055160001153,f,357.44074839999666,,,357.44081540001207,None,,,1.0298951000149827,0.19196719999308698,,,,,,,,,,,,,00034,001,2026-01-22_17h23.05.207,MST_task,2024.2.0,60.0350364484742,2026-01-22 17h23.19.624056 +0530,
,Scenes\088a.jpg,70,0,71,,,,,j,None,,,1.0051338000048418,0.18361760000698268,,,,71,0,70,357.4571345000004,,,,,,,,,,,,,,,,,,,,,,,357.4411789000151,357.4571345000004,357.94074789999286,,,,,,,,,,,,357.992018000019,,,,,,,,,,,357.98913259999244,357.992018000019,357.992018000019,357.992018000019,360.9573013999907,j,360.9575215000077,,,360.95758790001855,None,,,1.0051338000048418,0.18361760000698268,,,,,,,,,,,,,00034,001,2026-01-22_17h23.05.207,MST_task,2024.2.0,60.0350364484742,2026-01-22 17h23.19.624056 +0530,
,Scenes\038a.jpg,71,0,72,,,,,j,None,,,0.8631782999727875,0.13650430002599023,,,,72,0,71,360.97344030000386,,,,,,,,,,,,,,,,,,,,,,,360.95797340001445,360.97344030000386,361.45750740001677,,,,,,,,,,,,361.49342820001766,,,,,,,,,,,361.49031749999267,361.49342820001766,361.49342820001766,361.49342820001766,364.4742211000121,j,364.47442320000846,,,364.4744883000094,None,,,0.8631782999727875,0.13650430002599023,,,,,,,,,,,,,00034,001,2026-01-22_17h23.05.207,MST_task,2024.2.0,60.0350364484742,2026-01-22 17h23.19.624056 +0530,
,Scenes\132a.jpg,72,0,73,,,,,j,None,,,2.25284240001929,0.16014339998946525,,,,73,0,72,364.4904778999917,,,,,,,,,,,,,,,,,,,,,,,364.4748496999964,364.4904778999917,364.97420610001427,,,,,,,,,,,,365.0003313999914,,,,,,,,,,,364.99754119999125,365.0003313999914,365.0003313999914,365.0003313999914,367.99057580000954,j,367.9907852000033,,,367.9908577000024,None,,,2.25284240001929,0.16014339998946525,,,,,,,,,,,,,00034,001,2026-01-22_17h23.05.207,MST_task,2024.2.0,60.0350364484742,2026-01-22 17h23.19.624056 +0530,
,Scenes\156a.jpg,73,0,74,,,,,j,None,,,1.5046840999857523,0.11989180001546629,,,,74,0,73,368.0069548000174,,,,,,,,,,,,,,,,,,,,,,,367.9911720000091,368.0069548000174,368.49089350001304,,,,,,,,,,,,368.5084538999945,,,,,,,,,,,368.50583159999223,368.5084538999945,368.5084538999945,368.5084538999945,371.50726980000036,j,371.5074658000085,,,371.5075302000041,None,,,1.5046840999857523,0.11989180001546629,,,,,,,,,,,,,00034,001,2026-01-22_17h23.05.207,MST_task,2024.2.0,60.0350364484742,2026-01-22 17h23.19.624056 +0530,
,Scenes\167a.jpg,74,0,75,,,,,f,None,,,1.3090991999779362,0.17661160000716336,,,,75,0,74,371.523892600002,,,,,,,,,,,,,,,,,,,,,,,371.5078926999995,371.523892600002,372.00762819999363,,,,,,,,,,,,372.0393754999968,,,,,,,,,,,372.03651160001755,372.0393754999968,372.0393754999968,372.0393754999968,375.024225000001,f,375.02444229999674,,,375.02451419999124,None,,,1.3090991999779362,0.17661160000716336,,,,,,,,,,,,,00034,001,2026-01-22_17h23.05.207,MST_task,2024.2.0,60.0350364484742,2026-01-22 17h23.19.624056 +0530,
,Scenes\040a.jpg,75,0,76,,,,,f,None,,,1.1299888000066858,0.16819569998187944,,,,76,0,75,375.0405088000116,,,,,,,,,,,,,,,,,,,,,,,375.0249821000034,375.0405088000116,375.5242414000095,,,,,,,,,,,,375.55516650000936,,,,,,,,,,,375.55255930000567,375.55516650000936,375.55516650000936,375.55516650000936,378.5408737999969,f,378.5410710000142,,,378.5411364000174,None,,,1.1299888000066858,0.16819569998187944,,,,,,,,,,,,,00034,001,2026-01-22_17h23.05.207,MST_task,2024.2.0,60.0350364484742,2026-01-22 17h23.19.624056 +0530,
,Scenes\071a.jpg,76,0,77,,,,,j,None,,,2.7226471999892965,0.15959100000327453,,,,77,0,76,378.5570618000056,,,,,,,,,,,,,,,,,,,,,,,378.5415023000096,378.5570618000056,379.04081730000325,,,,,,,,,,,,379.05852890000097,,,,,,,,,,,379.0558461000037,379.05852890000097,379.05852890000097,379.05852890000097,382.0571606000012,j,382.05735610000556,,,382.0574189000181,None,,,2.7226471999892965,0.15959100000327453,,,,,,,,,,,,,00034,001,2026-01-22_17h23.05.207,MST_task,2024.2.0,60.0350364484742,2026-01-22 17h23.19.624056 +0530,
,Objects\118a.jpg,77,0,78,,,,,f,None,,,1.1256449999928009,0.19150380001519807,,,,78,0,77,382.0738159000175,,,,,,,,,,,,,,,,,,,,,,,382.05770959999063,382.0738159000175,382.5575000999961,,,,,,,,,,,,382.57552050001686,,,,,,,,,,,382.5668241000094,382.57552050001686,382.57552050001686,382.57552050001686,385.5740843999956,f,385.5742961000069,,,385.5743606000033,None,,,1.1256449999928009,0.19150380001519807,,,,,,,,,,,,,00034,001,2026-01-22_17h23.05.207,MST_task,2024.2.0,60.0350364484742,2026-01-22 17h23.19.624056 +0530,
,Objects\078a.jpg,78,0,79,,,,,j,None,,,1.666311000008136,0.1372274000023026,,,,79,0,78,385.59049329999834,,,,,,,,,,,,,,,,,,,,,,,385.5746458999929,385.59049329999834,386.0742300999991,,,,,,,,,,,,386.0982198000129,,,,,,,,,,,386.0954741000023,386.0982198000129,386.0982198000129,386.0982198000129,389.0908468000125,j,389.091050499992,,,389.09111450001365,None,,,1.666311000008136,0.1372274000023026,,,,,,,,,,,,,00034,001,2026-01-22_17h23.05.207,MST_task,2024.2.0,60.0350364484742,2026-01-22 17h23.19.624056 +0530,
,Objects\098a.jpg,79,0,80,,,,,f,None,,,1.2057536999927834,0.18372279999312013,,,,80,0,79,389.1068878000078,,,,,,,,,,,,,,,,,,,,,,,389.09140629999456,389.1068878000078,389.5909318999911,,,,,,,,,,,,389.60733970001456,,,,,,,,,,,389.6004810000013,389.60733970001456,389.60733970001456,389.60733970001456,392.59177319999435,f,392.59199310000986,,,392.5920582000108,None,,,1.2057536999927834,0.18372279999312013,392.6069455000106,392.6069455000106,392.6069455000106,,,,,,,,,,00034,001,2026-01-22_17h23.05.207,MST_task,2024.2.0,60.0350364484742,2026-01-22 17h23.19.624056 +0530,
,Objects\148a.jpg,80,0,81,,,,,f,None,,,2.2842963000002783,0.15218259999528527,,,,81,0,80,392.6069455000106,,,,,,,,,,,,,,,,,,,,,,,392.59247980001965,392.6069455000106,393.0909012000193,,,,,,,,,,,,393.1128248000168,,,,,,,,,,,393.11035540001467,393.1128248000168,393.1128248000168,393.1128248000168,396.10733329999493,f,396.1075356999936,,,396.1076003999915,None,,,2.2842963000002783,0.15218259999528527,,,,,,,,,,,,,00034,001,2026-01-22_17h23.05.207,MST_task,2024.2.0,60.0350364484742,2026-01-22 17h23.19.624056 +0530,
,Objects\158a.jpg,81,0,82,,,,,f,None,,,2.4851846999954432,0.1279029000143055,,,,82,0,81,396.1239053000172,,,,,,,,,,,,,,,,,,,,,,,396.1078930000076,396.1239053000172,396.6075662999938,,,,,,,,,,,,396.63159530001576,,,,,,,,,,,396.6288049000141,396.63159530001576,396.63159530001576,396.63159530001576,399.6242135000066,f,399.62442209999426,,,399.6244869999937,None,,,2.4851846999954432,0.1279029000143055,,,,,,,,,,,,,00034,001,2026-01-22_17h23.05.207,MST_task,2024.2.0,60.0350364484742,2026-01-22 17h23.19.624056 +0530,
,Objects\106a.jpg,82,0,83,,,,,f,None,,,1.8214392999943811,0.19216659999801777,,,,83,0,82,399.64047740001115,,,,,,,,,,,,,,,,,,,,,,,399.62486090001767,399.64047740001115,400.124733500008,,,,,,,,,,,,400.15905519999797,,,,,,,,,,,400.15651480000815,400.15905519999797,400.15905519999797,400.15905519999797,403.1408816000039,f,403.14107660000445,,,403.1411422000092,None,,,1.8214392999943811,0.19216659999801777,,,,,,,,,,,,,00034,001,2026-01-22_17h23.05.207,MST_task,2024.2.0,60.0350364484742,2026-01-22 17h23.19.624056 +0530,
,Objects\132a.jpg,83,0,84,,,,,j,None,,,1.2133567999990191,0.18409170000813901,,,,84,0,83,403.15707030001795,,,,,,,,,,,,,,,,,,,,,,,403.1415077999991,403.15707030001795,403.64086450001923,,,,,,,,,,,,403.66314859999693,,,,,,,,,,,403.66044850001344,403.66314859999693,403.66314859999693,403.66314859999693,406.65744519999134,j,406.6576386000088,,,406.6577025000006,None,,,1.2133567999990191,0.18409170000813901,,,,,,,,,,,,,00034,001,2026-01-22_17h23.05.207,MST_task,2024.2.0,60.0350364484742,2026-01-22 17h23.19.624056 +0530,
,Scenes\008a.jpg,84,0,85,,,,,None,j,0.014947000017855316,None,,,,,,85,0,84,406.67380960000446,,,,,,,,,,,,,,,,,,,,,,,406.65806869999506,406.67380960000446,407.1574763999961,,,,,,,,,,,,407.17438559999573,,,,,,,,,,,407.1718250999984,407.17438559999573,407.17438559999573,407.17438559999573,410.15822400001343,None,410.1584176000033,410.1735818000161,410.1735818000161,410.19072830001824,j,0.014947000017855316,None,,,410.1735818000161,410.1735818000161,410.1735818000161,,,,,,,,,,00034,001,2026-01-22_17h23.05.207,MST_task,2024.2.0,60.0350364484742,2026-01-22 17h23.19.624056 +0530,
,Scenes\138a.jpg,85,0,86,,,,,j,None,,,1.0020557999960147,0.1199841000197921,,,,86,0,85,410.20709010001156,,,,,,,,,,,,,,,,,,,,,,,410.19108170000254,410.20709010001156,410.690732499992,,,,,,,,,,,,410.7226769000117,,,,,,,,,,,410.71990200001164,410.7226769000117,410.7226769000117,410.7226769000117,413.70711190000293,j,413.70733540001675,,,413.7073831000016,None,,,1.0020557999960147,0.1199841000197921,,,,,,,,,,,,,00034,001,2026-01-22_17h23.05.207,MST_task,2024.2.0,60.0350364484742,2026-01-22 17h23.19.624056 +0530,
,Scenes\054a.jpg,86,0,87,,,,,j,None,,,0.9000562999863178,0.14405649999389425,,,,87,0,86,413.7236377999943,,,,,,,,,,,,,,,,,,,,,,,413.7076889000018,413.7236377999943,414.2074775999936,,,,,,,,,,,,414.2405280999956,,,,,,,,,,,414.2376137000101,414.2405280999956,414.2405280999956,414.2405280999956,417.2242158000008,j,417.2244140999974,,,417.22448200001963,None,,,0.9000562999863178,0.14405649999389425,,,,,,,,,,,,,00034,001,2026-01-22_17h23.05.207,MST_task,2024.2.0,60.0350364484742,2026-01-22 17h23.19.624056 +0530,
,Scenes\032a.jpg,87,0,88,,,,,j,None,,,1.369758799992269,0.12001429998781532,,,,88,0,87,417.2405003000167,,,,,,,,,,,,,,,,,,,,,,,417.224844100012,417.2405003000167,417.7242399000097,,,,,,,,,,,,417.7708673000161,,,,,,,,,,,417.7679686000047,417.7708673000161,417.7708673000161,417.7708673000161,420.74076950000017,j,420.74098530001356,,,420.741050600016,None,,,1.369758799992269,0.12001429998781532,,,,,,,,,,,,,00034,001,2026-01-22_17h23.05.207,MST_task,2024.2.0,60.0350364484742,2026-01-22 17h23.19.624056 +0530,
,Scenes\136a.jpg,88,0,89,,,,,j,None,,,2.8877409999840893,None,,,,89,0,88,420.7566258000152,,,,,,,,,,,,,,,,,,,,,,,420.74134629999753,420.7566258000152,421.24086550000357,,,,,,,,,,,,421.2689531999931,,,,,,,,,,,421.26608719999786,421.2689531999931,421.2689531999931,421.2689531999931,424.25747939999565,j,424.2576820999966,,,424.25774540001294,None,,,2.8877409999840893,None,,,,,,,,,,,,,00034,001,2026-01-22_17h23.05.207,MST_task,2024.2.0,60.0350364484742,2026-01-22 17h23.19.624056 +0530,
,Scenes\046a.jpg,89,0,90,,,,,j,None,,,1.7108482999901753,0.12041480001062155,,,,90,0,89,424.2738384999975,,,,,,,,,,,,,,,,,,,,,,,424.2581132000196,424.2738384999975,424.7574835999985,,,,,,,,,,,,424.79754190001404,,,,,,,,,,,424.794773600006,424.79754190001404,424.79754190001404,424.79754190001404,427.7742167999968,j,427.7744199000008,,,427.7744839999941,None,,,1.7108482999901753,0.12041480001062155,,,,,,,,,,,,,00034,001,2026-01-22_17h23.05.207,MST_task,2024.2.0,60.0350364484742,2026-01-22 17h23.19.624056 +0530,
,Scenes\052a.jpg,90,0,91,,,,,j,None,,,2.4890057999873534,0.1276347000093665,,,,91,0,90,427.7904806000006,,,,,,,,,,,,,,,,,,,,,,,427.77485829999205,427.7904806000006,428.2742292000039,,,,,,,,,,,,428.2919714000018,,,,,,,,,,,428.28918039999553,428.2919714000018,428.2919714000018,428.2919714000018,431.29059509999934,j,431.29079920001095,,,431.2908633000043,None,,,2.4890057999873534,0.1276347000093665,,,,,,,,,,,,,00034,001,2026-01-22_17h23.05.207,MST_task,2024.2.0,60.0350364484742,2026-01-22 17h23.19.624056 +0530,
,Objects\090a.jpg,91,0,92,,,,,j,None,,,1.2847850999969523,0.13686680002138019,,,,92,0,91,431.30709610000486,,,,,,,,,,,,,,,,,,,,,,,431.2911497000023,431.30709610000486,431.7908764000167,,,,,,,,,,,,431.8076197000046,,,,,,,,,,,431.8016844000085,431.8076197000046,431.8076197000046,431.8076197000046,434.79178110000794,j,434.7919809000159,,,434.7920398999995,None,,,1.2847850999969523,0.13686680002138019,434.8070802000002,434.8070802000002,434.8070802000002,,,,,,,,,,00034,001,2026-01-22_17h23.05.207,MST_task,2024.2.0,60.0350364484742,2026-01-22 17h23.19.624056 +0530,
,Objects\048a.jpg,92,0,93,,,,,j,None,,,0.7878378999885172,0.11980540002696216,,,,93,0,92,434.8070802000002,,,,,,,,,,,,,,,,,,,,,,,434.7923340999987,434.8070802000002,435.29090859999997,,,,,,,,,,,,435.31322250000085,,,,,,,,,,,435.31054360000417,435.31322250000085,435.31322250000085,435.31322250000085,438.30750719999196,j,438.30773279999266,,,438.3078092999931,None,,,0.7878378999885172,0.11980540002696216,,,,,,,,,,,,,00034,001,2026-01-22_17h23.05.207,MST_task,2024.2.0,60.0350364484742,2026-01-22 17h23.19.624056 +0530,
,Objects\176a.jpg,93,0,94,,,,,f,None,,,2.912721700005932,None,,,,94,0,93,438.32372370001394,,,,,,,,,,,,,,,,,,,,,,,438.30810719999135,438.32372370001394,438.80747669999255,,,,,,,,,,,,438.82769050000934,,,,,,,,,,,438.825462000008,438.82769050000934,438.82769050000934,438.82769050000934,441.82420770000317,f,441.82441240001936,,,441.8244788000011,None,,,2.912721700005932,None,,,,,,,,,,,,,00034,001,2026-01-22_17h23.05.207,MST_task,2024.2.0,60.0350364484742,2026-01-22 17h23.19.624056 +0530,
,Objects\063a.jpg,94,0,95,,,,,f,None,,,1.3599874000065029,0.16087809999589808,,,,95,0,94,441.8405306999921,,,,,,,,,,,,,,,,,,,,,,,441.82484990000376,441.8405306999921,442.32394000000204,,,,,,,,,,,,442.34839510000893,,,,,,,,,,,442.3456293999916,442.34839510000893,442.34839510000893,442.34839510000893,445.34086450000177,f,445.3410600000061,,,445.3411236999964,None,,,1.3599874000065029,0.16087809999589808,,,,,,,,,,,,,00034,001,2026-01-22_17h23.05.207,MST_task,2024.2.0,60.0350364484742,2026-01-22 17h23.19.624056 +0530,
,Objects\161a.jpg,95,0,96,,,,,j,None,,,2.277121300023282,0.1288312999822665,,,,96,0,95,445.35707970001386,,,,,,,,,,,,,,,,,,,,,,,445.34148860001005,445.35707970001386,445.84093410000787,,,,,,,,,,,,445.863314599992,,,,,,,,,,,445.860399600002,445.863314599992,445.863314599992,445.863314599992,448.8574724000064,j,448.85766929999227,,,448.85773270000936,None,,,2.277121300023282,0.1288312999822665,,,,,,,,,,,,,00034,001,2026-01-22_17h23.05.207,MST_task,2024.2.0,60.0350364484742,2026-01-22 17h23.19.624056 +0530,
,Objects\027a.jpg,96,0,97,,,,,f,None,,,1.4727103000041097,0.17625310001312755,,,,97,0,96,448.8738302999991,,,,,,,,,,,,,,,,,,,,,,,448.8580229000072,448.8738302999991,449.3574832000013,,,,,,,,,,,,449.3798000999959,,,,,,,,,,,449.37704799999483,449.3798000999959,449.3798000999959,449.3798000999959,452.3740106000041,f,452.3742048999993,,,452.3742673000088,None,,,1.4727103000041097,0.17625310001312755,,,,,,,,,,,,,00034,001,2026-01-22_17h23.05.207,MST_task,2024.2.0,60.0350364484742,2026-01-22 17h23.19.624056 +0530,
,Objects\050a.jpg,97,0,98,,,,,j,None,,,2.0019212999904994,0.1605013000080362,,,,98,0,97,452.3902917999949,,,,,,,,,,,,,,,,,,,,,,,452.3745539000083,452.3902917999949,452.8745385000075,,,,,,,,,,,,,,,,,,,,,,,452.884229999996,452.8907084999955,452.8907084999955,452.8907084999955,455.8749081999995,j,455.8751055000175,,,455.8751651000057,None,,,2.0019212999904994,0.1605013000080362,455.8903484000184,455.8903484000184,455.8903484000184,,,,,,,,,,00034,001,2026-01-22_17h23.05.207,MST_task,2024.2.0,60.0350364484742,2026-01-22 17h23.19.624056 +0530,
,Scenes\137a.jpg,98,0,99,,,,,j,None,,,0.603340700006811,0.1281349000055343,,,,99,0,98,455.8903484000184,,,,,,,,,,,,,,,,,,,,,,,455.87547640001867,455.8903484000184,456.3742615999945,,,,,,,,,,,,456.41775980000966,,,,,,,,,,,456.415153000009,456.41775980000966,456.41775980000966,456.41775980000966,459.3908812000009,j,459.39107939999667,,,459.3911430000153,None,,,0.603340700006811,0.1281349000055343,,,,,,,,,,,,,00034,001,2026-01-22_17h23.05.207,MST_task,2024.2.0,60.0350364484742,2026-01-22 17h23.19.624056 +0530,
,Scenes\107a.jpg,99,0,100,,,,,j,None,,,0.7002171000058297,0.151931100001093,,,,100,0,99,459.40711940001347,,,,,,,,,,,,,,,,,,,,,,,459.3915047000046,459.40711940001347,459.8908671000099,,,,,,,,,,,,459.9208481000096,,,,,,,,,,,459.9181757000042,459.9208481000096,459.9208481000096,459.9208481000096,462.9074784000113,j,462.9076764000056,,,462.90774009999586,None,,,0.7002171000058297,0.151931100001093,,,,,,,,,,,,,00034,001,2026-01-22_17h23.05.207,MST_task,2024.2.0,60.0350364484742,2026-01-22 17h23.19.624056 +0530,
,Scenes\131a.jpg,100,0,101,,,,,j,None,,,1.0050843000062741,0.16006860000197776,,,,101,0,100,462.923818500014,,,,,,,,,,,,,,,,,,,,,,,462.908033100015,462.923818500014,463.40747730000294,,,,,,,,,,,,463.4394162000099,,,,,,,,,,,463.436583600007,463.4394162000099,463.4394162000099,463.4394162000099,466.4244760000147,j,466.42467380000744,,,466.4247391000099,None,,,1.0050843000062741,0.16006860000197776,,,,,,,,,,,,,00034,001,2026-01-22_17h23.05.207,MST_task,2024.2.0,60.0350364484742,2026-01-22 17h23.19.624056 +0530,
,Scenes\187a.jpg,101,0,102,,,,,None,j,1.8472139000077732,None,,,,,,102,0,101,466.4403588999994,,,,,,,,,,,,,,,,,,,,,,,466.4250266000163,466.4403588999994,466.9242322999926,,,,,,,,,,,,466.94276780000655,,,,,,,,,,,466.94015650000074,466.94276780000655,466.94276780000655,466.94276780000655,469.94091350000235,None,469.94110749999527,469.9570889000024,469.9570889000024,471.8075341999938,j,1.8472139000077732,None,,,,,,,,,,,,,,,00034,001,2026-01-22_17h23.05.207,MST_task,2024.2.0,60.0350364484742,2026-01-22 17h23.19.624056 +0530,
,Scenes\014a.jpg,102,0,103,,,,,f,None,,,2.865131900005508,None,,,,103,0,102,471.82381940001505,,,,,,,,,,,,,,,,,,,,,,,471.8076723999984,471.82381940001505,472.3069843999983,,,,,,,,,,,,472.3319029000122,,,,,,,,,,,472.3293177000014,472.3319029000122,472.3319029000122,472.3319029000122,475.3242213000194,f,475.3244276000187,,,475.32449369999813,None,,,2.865131900005508,None,,,,,,,,,,,,,00034,001,2026-01-22_17h23.05.207,MST_task,2024.2.0,60.0350364484742,2026-01-22 17h23.19.624056 +0530,
,Scenes\191a.jpg,103,0,104,,,,,j,None,,,1.5287052000057884,0.18411779997404665,,,,104,0,103,475.3404805000173,,,,,,,,,,,,,,,,,,,,,,,475.32478270001593,475.3404805000173,475.8242262999993,,,,,,,,,,,,475.85196309999446,,,,,,,,,,,475.84888900001533,475.85196309999446,475.85196309999446,475.85196309999446,478.8408927000128,j,478.8410921000177,,,478.8411566000141,None,,,1.5287052000057884,0.18411779997404665,,,,,,,,,,,,,00034,001,2026-01-22_17h23.05.207,MST_task,2024.2.0,60.0350364484742,2026-01-22 17h23.19.624056 +0530,
,Scenes\109a.jpg,104,0,105,,,,,j,None,,,2.0109755000157747,0.15218949998961762,,,,105,0,104,478.8570561000088,,,,,,,,,,,,,,,,,,,,,,,478.8414429000113,478.8570561000088,479.34085290000075,,,,,,,,,,,,479.3700681999908,,,,,,,,,,,479.3674287000031,479.3700681999908,479.3700681999908,479.3700681999908,482.35713039999246,j,482.3573250999907,,,482.35738860000856,None,,,2.0109755000157747,0.15218949998961762,,,,,,,,,,,,,00034,001,2026-01-22_17h23.05.207,MST_task,2024.2.0,60.0350364484742,2026-01-22 17h23.19.624056 +0530,
,Objects\102a.jpg,105,0,106,,,,,f,None,,,0.9574756000074558,0.16883260000031441,,,,106,0,105,482.37383920000866,,,,,,,,,,,,,,,,,,,,,,,482.35767759999726,482.37383920000866,482.8570815999992,,,,,,,,,,,,482.89492960000644,,,,,,,,,,,482.89210660001845,482.89492960000644,482.89492960000644,482.89492960000644,485.8751412999991,f,485.87538199999835,,,485.8754462999932,None,,,0.9574756000074558,0.16883260000031441,,,,,,,,,,,,,00034,001,2026-01-22_17h23.05.207,MST_task,2024.2.0,60.0350364484742,2026-01-22 17h23.19.624056 +0530,
,Objects\127a.jpg,106,0,107,,,,,f,None,,,1.3014029999903869,0.14484340001945384,,,,107,0,106,485.89050949999364,,,,,,,,,,,,,,,,,,,,,,,485.87576880000415,485.89050949999364,486.374542000005,,,,,,,,,,,,486.390944600018,,,,,,,,,,,486.3809401000035,486.390944600018,486.390944600018,486.390944600018,489.3748840999906,f,489.3750798999972,,,489.3751559999946,None,,,1.3014029999903869,0.14484340001945384,489.3904532000015,489.3904532000015,489.3904532000015,,,,,,,,,,00034,001,2026-01-22_17h23.05.207,MST_task,2024.2.0,60.0350364484742,2026-01-22 17h23.19.624056 +0530,
,Objects\077a.jpg,107,0,108,,,,,j,None,,,1.0650814000109676,0.14403879997553304,,,,108,0,107,489.3904532000015,,,,,,,,,,,,,,,,,,,,,,,489.3754533000174,489.3904532000015,489.8742654999951,,,,,,,,,,,,489.8914327000093,,,,,,,,,,,489.88257849999354,489.8914327000093,489.8914327000093,489.8914327000093,492.8753464000183,j,492.8755589000066,,,492.8756202000077,None,,,1.0650814000109676,0.14403879997553304,492.89009600001737,492.89009600001737,492.89009600001737,,,,,,,,,,00034,001,2026-01-22_17h23.05.207,MST_task,2024.2.0,60.0350364484742,2026-01-22 17h23.19.624056 +0530,
,Objects\152a.jpg,108,0,109,,,,,f,None,,,2.7393986999813933,0.21634220000123605,,,,109,0,108,492.89009600001737,,,,,,,,,,,,,,,,,,,,,,,492.87602699999115,492.89009600001737,493.37422450000304,,,,,,,,,,,,493.4010830000043,,,,,,,,,,,493.39851420000196,493.4010830000043,493.4010830000043,493.4010830000043,496.39057079999475,f,496.3907746000041,,,496.39083940000273,None,,,2.7393986999813933,0.21634220000123605,,,,,,,,,,,,,00034,001,2026-01-22_17h23.05.207,MST_task,2024.2.0,60.0350364484742,2026-01-22 17h23.19.624056 +0530,
,Objects\044a.jpg,109,0,110,,,,,j,None,,,2.6715122000023257,0.13571249999222346,,,,110,0,109,496.40709459999925,,,,,,,,,,,,,,,,,,,,,,,496.39120780001394,496.40709459999925,496.8909370000183,,,,,,,,,,,,496.9175563000026,,,,,,,,,,,496.9143525999971,496.9175563000026,496.9175563000026,496.9175563000026,499.9074640000181,j,499.9076766000071,,,499.9077428000164,None,,,2.6715122000023257,0.13571249999222346,,,,,,,,,,,,,00034,001,2026-01-22_17h23.05.207,MST_task,2024.2.0,60.0350364484742,2026-01-22 17h23.19.624056 +0530,
,Objects\031a.jpg,110,0,111,,,,,f,None,,,1.3004806000099052,0.21605029999045655,,,,111,0,110,499.9238425999938,,,,,,,,,,,,,,,,,,,,,,,499.9080326000112,499.9238425999938,500.40753960001166,,,,,,,,,,,,500.42412060001516,,,,,,,,,,,500.4163281999936,500.42412060001516,500.42412060001516,500.42412060001516,503.40829039999517,f,503.40848859999096,,,503.4085472000006,None,,,1.3004806000099052,0.21605029999045655,503.42600669999956,503.42600669999956,503.42600669999956,,,,,,,,,,00034,001,2026-01-22_17h23.05.207,MST_task,2024.2.0,60.0350364484742,2026-01-22 17h23.19.624056 +0530,
,Objects\124a.jpg,111,0,112,,,,,f,None,,,1.4323045000201091,0.1921132999996189,,,,112,0,111,503.42600669999956,,,,,,,,,,,,,,,,,,,,,,,503.40891890000785,503.42600669999956,503.9240987999947,,,,,,,,,,,,,,,,,,,,,,,503.93292510000174,503.94075900001917,503.94075900001917,503.94075900001917,506.92424140000367,f,506.9244441000046,,,506.9245079999964,None,,,1.4323045000201091,0.1921132999996189,,,,,,,,,,,,,00034,001,2026-01-22_17h23.05.207,MST_task,2024.2.0,60.0350364484742,2026-01-22 17h23.19.624056 +0530,
,Scenes\103a.jpg,112,0,113,,,,,j,None,,,0.9911577999882866,0.14493490001768805,,,,113,0,112,506.94034460000694,,,,,,,,,,,,,,,,,,,,,,,506.9248716000002,506.94034460000694,507.4241183999984,,,,,,,,,,,,507.4691596000048,,,,,,,,,,,507.46637529999134,507.4691596000048,507.4691596000048,507.4691596000048,510.44090390001656,j,510.44110960001126,,,510.4411736000038,None,,,0.9911577999882866,0.14493490001768805,,,,,,,,,,,,,00034,001,2026-01-22_17h23.05.207,MST_task,2024.2.0,60.0350364484742,2026-01-22 17h23.19.624056 +0530,
,Scenes\158a.jpg,113,0,114,,,,,j,None,,,1.4866311000077985,0.12876459999824874,,,,114,0,113,510.45709609999903,,,,,,,,,,,,,,,,,,,,,,,510.4415491000109,510.45709609999903,510.94092749999254,,,,,,,,,,,,510.9578798000002,,,,,,,,,,,510.95526290001,510.9578798000002,510.9578798000002,510.9578798000002,513.9416772999975,j,513.9418695000059,,,513.9419289999933,None,,,1.4866311000077985,0.12876459999824874,513.9570534999948,513.9570534999948,513.9570534999948,,,,,,,,,,00034,001,2026-01-22_17h23.05.207,MST_task,2024.2.0,60.0350364484742,2026-01-22 17h23.19.624056 +0530,
,Scenes\066a.jpg,114,0,115,,,,,j,None,,,0.9715928999939933,0.12083100000745617,,,,115,0,114,513.9570534999948,,,,,,,,,,,,,,,,,,,,,,,513.9422247000039,513.9570534999948,514.4409338000114,,,,,,,,,,,,514.4727504000184,,,,,,,,,,,514.4696387000149,514.4727504000184,514.4727504000184,514.4727504000184,517.4572953000024,j,517.4574902000022,,,517.4575537999917,None,,,0.9715928999939933,0.12083100000745617,,,,,,,,,,,,,00034,001,2026-01-22_17h23.05.207,MST_task,2024.2.0,60.0350364484742,2026-01-22 17h23.19.624056 +0530,
,Scenes\004a.jpg,115,0,116,,,,,j,None,,,1.7468907999864314,0.1198597000038717,,,,116,0,115,517.4738308000087,,,,,,,,,,,,,,,,,,,,,,,517.4579189000069,517.4738308000087,517.957493599999,,,,,,,,,,,,517.9778359000047,,,,,,,,,,,517.9752928999951,517.9778359000047,517.9778359000047,517.9778359000047,520.9739196000155,j,520.974125800014,,,520.9741911000165,None,,,1.7468907999864314,0.1198597000038717,,,,,,,,,,,,,00034,001,2026-01-22_17h23.05.207,MST_task,2024.2.0,60.0350364484742,2026-01-22 17h23.19.624056 +0530,
,Scenes\013a.jpg,116,0,117,,,,,j,None,,,2.513451000006171,0.14343860000371933,,,,117,0,116,520.9903496000043,,,,,,,,,,,,,,,,,,,,,,,520.9746358999982,520.9903496000043,521.4742759999936,,,,,,,,,,,,521.5076407000015,,,,,,,,,,,521.5047709000064,521.5076407000015,521.5076407000015,521.5076407000015,524.490927100007,j,524.4911371000053,,,524.4912077999907,None,,,2.513451000006171,0.14343860000371933,,,,,,,,,,,,,00034,001,2026-01-22_17h23.05.207,MST_task,2024.2.0,60.0350364484742,2026-01-22 17h23.19.624056 +0530,
,Scenes\155a.jpg,117,0,118,,,,,j,None,,,2.010830999992322,0.13578780001262203,,,,118,0,117,524.507084700017,,,,,,,,,,,,,,,,,,,,,,,524.491589000012,524.507084700017,524.9908938000153,,,,,,,,,,,,525.0101838000119,,,,,,,,,,,525.0074597999919,525.0101838000119,525.0101838000119,525.0101838000119,528.007494999998,j,528.0076932999946,,,528.007757400017,None,,,2.010830999992322,0.13578780001262203,,,,,,,,,,,,,00034,001,2026-01-22_17h23.05.207,MST_task,2024.2.0,60.0350364484742,2026-01-22 17h23.19.624056 +0530,
,Scenes\185a.jpg,118,0,119,,,,,j,None,,,2.7572230999940075,0.16818639999837615,,,,119,0,118,528.0238380999945,,,,,,,,,,,,,,,,,,,,,,,528.0081243000168,528.0238380999945,528.5075018999923,,,,,,,,,,,,528.5351108000032,,,,,,,,,,,528.5324228999962,528.5351108000032,528.5351108000032,528.5351108000032,531.5239375999954,j,531.5241392000171,,,531.5242018999998,None,,,2.7572230999940075,0.16818639999837615,,,,,,,,,,,,,00034,001,2026-01-22_17h23.05.207,MST_task,2024.2.0,60.0350364484742,2026-01-22 17h23.19.624056 +0530,
,Objects\110a.jpg,119,0,120,,,,,None,j,0.6118373000063002,None,,,,,,120,0,119,531.5405272000062,,,,,,,,,,,,,,,,,,,,,,,531.5244889000023,531.5405272000062,532.0242490000091,,,,,,,,,,,,532.0421941000095,,,,,,,,,,,532.0309589999961,532.0421941000095,532.0421941000095,532.0421941000095,535.0408809999935,None,535.0410652999999,535.0570986999955,535.0570986999955,535.6742100999982,j,0.6118373000063002,None,,,,,,,,,,,,,,,00034,001,2026-01-22_17h23.05.207,MST_task,2024.2.0,60.0350364484742,2026-01-22 17h23.19.624056 +0530,
,Objects\060a.jpg,120,0,121,,,,,f,None,,,1.6620853999920655,0.2162393000035081,,,,121,0,120,535.6905019000114,,,,,,,,,,,,,,,,,,,,,,,535.6745436000056,535.6905019000114,536.1740057000134,,,,,,,,,,,,536.1904700000014,,,,,,,,,,,536.1830622999987,536.1904700000014,536.1904700000014,536.1904700000014,539.1748001000087,f,539.1750128999993,,,539.1750758000126,None,,,1.6620853999920655,0.2162393000035081,539.1905300999933,539.1905300999933,539.1905300999933,,,,,,,,,,00034,001,2026-01-22_17h23.05.207,MST_task,2024.2.0,60.0350364484742,2026-01-22 17h23.19.624056 +0530,
,Objects\081a.jpg,121,0,122,,,,,j,None,,,0.8694394000049215,0.1599153999995906,,,,122,0,121,539.1905300999933,,,,,,,,,,,,,,,,,,,,,,,539.1753796999983,539.1905300999933,539.6739077999955,,,,,,,,,,,,539.6955570999999,,,,,,,,,,,539.6930522000184,539.6955570999999,539.6955570999999,539.6955570999999,542.6908817999938,j,542.691086900013,,,542.6911514000094,None,,,0.8694394000049215,0.1599153999995906,,,,,,,,,,,,,00034,001,2026-01-22_17h23.05.207,MST_task,2024.2.0,60.0350364484742,2026-01-22 17h23.19.624056 +0530,
,Objects\150a.jpg,122,0,123,,,,,f,None,,,1.9577397999819368,0.1755600000033155,,,,123,0,122,542.7070920999977,,,,,,,,,,,,,,,,,,,,,,,542.6914400999958,542.7070920999977,543.1907026999979,,,,,,,,,,,,543.2072394000133,,,,,,,,,,,543.2002107000153,543.2072394000133,543.2072394000133,543.2072394000133,546.1914296000032,f,546.1916258000128,,,546.1916839000187,None,,,1.9577397999819368,0.1755600000033155,546.2070878999948,546.2070878999948,546.2070878999948,,,,,,,,,,00034,001,2026-01-22_17h23.05.207,MST_task,2024.2.0,60.0350364484742,2026-01-22 17h23.19.624056 +0530,
,Objects\100a.jpg,123,0,124,,,,,j,None,,,1.1466146000020672,0.12889459999860264,,,,124,0,123,546.2070878999948,,,,,,,,,,,,,,,,,,,,,,,546.1919756999996,546.2070878999948,546.6908069000056,,,,,,,,,,,,546.7136488000106,,,,,,,,,,,546.7107539999997,546.7136488000106,546.7136488000106,546.7136488000106,549.7074680000078,j,549.7076672000112,,,549.7077305999992,None,,,1.1466146000020672,0.12889459999860264,,,,,,,,,,,,,00034,001,2026-01-22_17h23.05.207,MST_task,2024.2.0,60.0350364484742,2026-01-22 17h23.19.624056 +0530,
,Objects\071a.jpg,124,0,125,,,,,j,None,,,2.2420602000202052,0.16074229998048395,,,,125,0,124,549.7237137000193,,,,,,,,,,,,,,,,,,,,,,,549.7080186000094,549.7237137000193,550.2075382000185,,,,,,,,,,,,550.2343506000179,,,,,,,,,,,550.23166640001,550.2343506000179,550.2343506000179,550.2343506000179,553.2242436000088,j,553.2244606000022,,,553.2245284999954,None,,,2.2420602000202052,0.16074229998048395,,,,,,,,,,,,,00034,001,2026-01-22_17h23.05.207,MST_task,2024.2.0,60.0350364484742,2026-01-22 17h23.19.624056 +0530,
,Objects\130a.jpg,125,0,126,,,,,f,None,,,1.3498995999980252,0.19238389999372885,,,,126,0,125,553.2404760000063,,,,,,,,,,,,,,,,,,,,,,,553.2249663000111,553.2404760000063,553.7242498999985,,,,,,,,,,,,553.7424104000092,,,,,,,,,,,553.7400193999929,553.7424104000092,553.7424104000092,553.7424104000092,556.7409051000141,f,556.741102800006,,,556.7411659999925,None,,,1.3498995999980252,0.19238389999372885,,,,,,,,,,,,,00034,001,2026-01-22_17h23.05.207,MST_task,2024.2.0,60.0350364484742,2026-01-22 17h23.19.624056 +0530,
,Scenes\121a.jpg,126,0,127,,,,,None,j,0.2665578000014648,None,,,,,,127,0,126,556.7567689999996,,,,,,,,,,,,,,,,,,,,,,,556.7414585000079,556.7567689999996,557.2409083000093,,,,,,,,,,,,557.2713279000018,,,,,,,,,,,557.2686654000136,557.2713279000018,557.2713279000018,557.2713279000018,560.2574918000028,None,560.2576730000146,560.2738365000114,560.2738365000114,560.5411615000048,j,0.2665578000014648,None,,,,,,,,,,,,,,,00034,001,2026-01-22_17h23.05.207,MST_task,2024.2.0,60.0350364484742,2026-01-22 17h23.19.624056 +0530,
,Scenes\020a.jpg,127,0,128,,,,,f,None,,,1.6764521000150125,0.19250839998130687,,,,128,0,127,560.5575949000195,,,,,,,,,,,,,,,,,,,,,,,560.5416465000017,560.5575949000195,561.0409073999908,,,,,,,,,,,,561.0802345999982,,,,,,,,,,,561.0766610999999,561.0802345999982,561.0802345999982,561.0802345999982,564.0575108000194,f,564.057710299996,,,564.0577765000053,None,,,1.6764521000150125,0.19250839998130687,,,,,,,,,,,,,00034,001,2026-01-22_17h23.05.207,MST_task,2024.2.0,60.0350364484742,2026-01-22 17h23.19.624056 +0530,
,Scenes\003a.jpg,128,0,129,,,,,f,None,,,2.3575970999954734,0.23217790000489913,,,,129,0,128,564.0737286999938,,,,,,,,,,,,,,,,,,,,,,,564.0581470000034,564.0737286999938,564.5575371000159,,,,,,,,,,,,564.5753648999962,,,,,,,,,,,564.5724064999959,564.5753648999962,564.5753648999962,564.5753648999962,567.5740430000005,f,567.5742387000064,,,567.5743023999967,None,,,2.3575970999954734,0.23217790000489913,,,,,,,,,,,,,00034,001,2026-01-22_17h23.05.207,MST_task,2024.2.0,60.0350364484742,2026-01-22 17h23.19.624056 +0530,
,Scenes\146a.jpg,129,0,130,,,,,j,None,,,1.1556545000057667,0.14452560001518577,,,,130,0,129,567.5903027000022,,,,,,,,,,,,,,,,,,,,,,,567.5746687999927,567.5903027000022,568.0742447999946,,,,,,,,,,,,568.104690600012,,,,,,,,,,,568.1020132999984,568.104690600012,568.104690600012,568.104690600012,571.0909010000178,j,571.0910985000082,,,571.0911621999985,None,,,1.1556545000057667,0.14452560001518577,,,,,,,,,,,,,00034,001,2026-01-22_17h23.05.207,MST_task,2024.2.0,60.0350364484742,2026-01-22 17h23.19.624056 +0530,
,Scenes\160a.jpg,130,0,131,,,,,j,None,,,2.9681972000107635,None,,,,131,0,130,571.1069925999909,,,,,,,,,,,,,,,,,,,,,,,571.0915294000006,571.1069925999909,571.5909662999911,,,,,,,,,,,,571.6201771000051,,,,,,,,,,,571.6174956000177,571.6201771000051,571.6201771000051,571.6201771000051,574.6074874000042,j,574.6076944000088,,,574.6077579999983,None,,,2.9681972000107635,None,,,,,,,,,,,,,00034,001,2026-01-22_17h23.05.207,MST_task,2024.2.0,60.0350364484742,2026-01-22 17h23.19.624056 +0530,
,Scenes\119a.jpg,131,0,132,,,,,j,None,,,0.8779880999936722,0.1198226000124123,,,,132,0,131,574.6238332999928,,,,,,,,,,,,,,,,,,,,,,,574.6081258000049,574.6238332999928,575.1074858999928,,,,,,,,,,,,575.1270195000106,,,,,,,,,,,575.1243438000092,575.1270195000106,575.1270195000106,575.1270195000106,578.12424070001,j,578.1244432000094,,,578.1245071000012,None,,,0.8779880999936722,0.1198226000124123,,,,,,,,,,,,,00034,001,2026-01-22_17h23.05.207,MST_task,2024.2.0,60.0350364484742,2026-01-22 17h23.19.624056 +0530,
,Scenes\026a.jpg,132,0,133,,,,,j,None,,,0.9887776000250597,0.1677991999895312,,,,133,0,132,578.1405058999953,,,,,,,,,,,,,,,,,,,,,,,578.1248831000121,578.1405058999953,578.6243044000003,,,,,,,,,,,,578.6641815000039,,,,,,,,,,,578.6614639000036,578.6641815000039,578.6641815000039,578.6641815000039,581.6409047000052,j,581.6411025999987,,,581.6411665999913,None,,,0.9887776000250597,0.1677991999895312,,,,,,,,,,,,,00034,001,2026-01-22_17h23.05.207,MST_task,2024.2.0,60.0350364484742,2026-01-22 17h23.19.624056 +0530,
,Objects\181a.jpg,133,0,134,,,,,j,None,,,1.5508876999956556,0.09684580002794974,,,,134,0,133,581.6569753999938,,,,,,,,,,,,,,,,,,,,,,,581.6414532999916,581.6569753999938,582.1409239000059,,,,,,,,,,,,582.157355400006,,,,,,,,,,,582.1533442999935,582.157355400006,582.157355400006,582.157355400006,585.1417146000022,j,585.1419240999967,,,585.1419825000048,None,,,1.5508876999956556,0.09684580002794974,585.1571355999913,585.1571355999913,585.1571355999913,,,,,,,,,,00034,001,2026-01-22_17h23.05.207,MST_task,2024.2.0,60.0350364484742,2026-01-22 17h23.19.624056 +0530,
,Objects\141a.jpg,134,0,135,,,,,j,None,,,2.9551480999798514,None,,,,135,0,134,585.1571355999913,,,,,,,,,,,,,,,,,,,,,,,585.1422853000113,585.1571355999913,585.6405518999964,,,,,,,,,,,,585.6654226999963,,,,,,,,,,,585.662535600015,585.6654226999963,585.6654226999963,585.6654226999963,588.6572415000119,j,588.6574412000191,,,588.6575058000162,None,,,2.9551480999798514,None,,,,,,,,,,,,,00034,001,2026-01-22_17h23.05.207,MST_task,2024.2.0,60.0350364484742,2026-01-22 17h23.19.624056 +0530,
,Objects\162a.jpg,135,0,136,,,,,f,None,,,1.351697999984026,0.2245102000015322,,,,136,0,135,588.6739115999953,,,,,,,,,,,,,,,,,,,,,,,588.6577965000179,588.6739115999953,589.1575329000189,,,,,,,,,,,,589.1806627000042,,,,,,,,,,,589.177975300001,589.1806627000042,589.1806627000042,589.1806627000042,592.1742311000125,f,592.1744265000161,,,592.1744881999912,None,,,1.351697999984026,0.2245102000015322,,,,,,,,,,,,,00034,001,2026-01-22_17h23.05.207,MST_task,2024.2.0,60.0350364484742,2026-01-22 17h23.19.624056 +0530,
,Objects\036a.jpg,136,0,137,,,,,f,None,,,1.3623043000116013,0.19245400000363588,,,,137,0,136,592.1905206000083,,,,,,,,,,,,,,,,,,,,,,,592.1747818000149,592.1905206000083,592.6745381999935,,,,,,,,,,,,592.6979745000135,,,,,,,,,,,592.6955485999933,592.6979745000135,592.6979745000135,592.6979745000135,595.6908623999916,f,595.6910783000058,,,595.6911417999945,None,,,1.3623043000116013,0.19245400000363588,,,,,,,,,,,,,00034,001,2026-01-22_17h23.05.207,MST_task,2024.2.0,60.0350364484742,2026-01-22 17h23.19.624056 +0530,
,Objects\154a.jpg,137,0,138,,,,,f,None,,,0.9038944999920204,0.20020550000481308,,,,138,0,137,595.7070984000165,,,,,,,,,,,,,,,,,,,,,,,595.6914522000006,595.7070984000165,596.1906023999909,,,,,,,,,,,,596.2126365000149,,,,,,,,,,,596.2097813000146,596.2126365000149,596.2126365000149,596.2126365000149,599.2071610999992,f,599.2073589999927,,,599.2074232000159,None,,,0.9038944999920204,0.20020550000481308,,,,,,,,,,,,,00034,001,2026-01-22_17h23.05.207,MST_task,2024.2.0,60.0350364484742,2026-01-22 17h23.19.624056 +0530,
,Objects\189a.jpg,138,0,139,,,,,f,None,,,1.3831559999962337,0.216239500005031,,,,139,0,138,599.2238964000135,,,,,,,,,,,,,,,,,,,,,,,599.2078010000114,599.2238964000135,599.7072144999984,,,,,,,,,,,,599.7252856999985,,,,,,,,,,,599.7165298000036,599.7252856999985,599.7252856999985,599.7252856999985,602.724243100005,f,602.7244352000125,,,602.7244980999967,None,,,1.3831559999962337,0.216239500005031,,,,,,,,,,,,,00034,001,2026-01-22_17h23.05.207,MST_task,2024.2.0,60.0350364484742,2026-01-22 17h23.19.624056 +0530,
,Objects\008a.jpg,139,0,140,,,,,f,None,,,1.5011323999788146,0.20085780002409592,,,,140,0,139,602.7403357000148,,,,,,,,,,,,,,,,,,,,,,,602.7248670000117,602.7403357000148,603.2242265999957,,,,,,,,,,,,603.2471980999981,,,,,,,,,,,603.2444392000034,603.2471980999981,603.2471980999981,603.2471980999981,606.2408855000103,f,606.2410803000093,,,606.2411466000194,None,,,1.5011323999788146,0.20085780002409592,,,,,,,,,,,,,00034,001,2026-01-22_17h23.05.207,MST_task,2024.2.0,60.0350364484742,2026-01-22 17h23.19.624056 +0530,
,Scenes\118a.jpg,140,0,141,,,,,None,j,0.007064700010232627,None,,,,,,141,0,140,606.2567115999991,,,,,,,,,,,,,,,,,,,,,,,606.2415142999962,606.2567115999991,606.7405879000144,,,,,,,,,,,,606.7642932000163,,,,,,,,,,,606.7616959000006,606.7642932000163,606.7642932000163,606.7642932000163,609.757357800001,None,609.7575322000193,609.7738742000074,609.7738742000074,609.7910142000183,j,0.007064700010232627,None,,,,,,,,,,,,,,,00034,001,2026-01-22_17h23.05.207,MST_task,2024.2.0,60.0350364484742,2026-01-22 17h23.19.624056 +0530,
,Scenes\050a.jpg,141,0,142,,,,,j,None,,,0.9406530999985989,0.12887889999547042,,,,142,0,141,609.8071121000103,,,,,,,,,,,,,,,,,,,,,,,609.7914529000118,609.8071121000103,610.2909236999985,,,,,,,,,,,,610.3196098000044,,,,,,,,,,,610.3169771000103,610.3196098000044,610.3196098000044,610.3196098000044,613.307272200007,j,613.3074626000016,,,613.307527099998,None,,,0.9406530999985989,0.12887889999547042,,,,,,,,,,,,,00034,001,2026-01-22_17h23.05.207,MST_task,2024.2.0,60.0350364484742,2026-01-22 17h23.19.624056 +0530,
,Scenes\154a.jpg,142,0,143,,,,,j,None,,,1.2045742999762297,0.15218190001905896,,,,143,0,142,613.3239192000183,,,,,,,,,,,,,,,,,,,,,,,613.3079075000132,613.3239192000183,613.8073173000012,,,,,,,,,,,,613.8243819999916,,,,,,,,,,,613.8203454000177,613.8243819999916,613.8243819999916,613.8243819999916,616.8083793999976,j,616.8085722000105,,,616.8086316999979,None,,,1.2045742999762297,0.15218190001905896,616.8238703999959,616.8238703999959,616.8238703999959,,,,,,,,,,00034,001,2026-01-22_17h23.05.207,MST_task,2024.2.0,60.0350364484742,2026-01-22 17h23.19.624056 +0530,
,Scenes\021a.jpg,143,0,144,,,,,j,None,,,1.9764161000202876,0.1438911999866832,,,,144,0,143,616.8238703999959,,,,,,,,,,,,,,,,,,,,,,,616.8090009000152,616.8238703999959,617.307493500004,,,,,,,,,,,,617.3561073000019,,,,,,,,,,,617.3533556000039,617.3561073000019,617.3561073000019,617.3561073000019,620.3238402999996,j,620.3240488000156,,,620.3241142000188,None,,,1.9764161000202876,0.1438911999866832,,,,,,,,,,,,,00034,001,2026-01-22_17h23.05.207,MST_task,2024.2.0,60.0350364484742,2026-01-22 17h23.19.624056 +0530,
,Scenes\024a.jpg,144,0,145,,,,,j,None,,,1.3898568000004161,0.10393659997498617,,,,145,0,144,620.3401718999958,,,,,,,,,,,,,,,,,,,,,,,620.3244078000134,620.3401718999958,620.8245901000046,,,,,,,,,,,,,,,,,,,,,,,620.8439090000174,620.8471000000136,620.8471000000136,620.8471000000136,623.8409179000009,j,623.841110600013,,,623.8411744000041,None,,,1.3898568000004161,0.10393659997498617,,,,,,,,,,,,,00034,001,2026-01-22_17h23.05.207,MST_task,2024.2.0,60.0350364484742,2026-01-22 17h23.19.624056 +0530,
,Scenes\142a.jpg,145,0,146,,,,,j,None,,,2.623699799994938,0.1361371999955736,,,,146,0,145,623.8571736000013,,,,,,,,,,,,,,,,,,,,,,,623.8415532000072,623.8571736000013,624.3408447999973,,,,,,,,,,,,624.3732603999961,,,,,,,,,,,624.3697033000062,624.3732603999961,624.3732603999961,624.3732603999961,627.3572539000015,j,627.3574523999996,,,627.3575170999975,None,,,2.623699799994938,0.1361371999955736,,,,,,,,,,,,,00034,001,2026-01-22_17h23.05.207,MST_task,2024.2.0,60.0350364484742,2026-01-22 17h23.19.624056 +0530,
,Scenes\053a.jpg,146,0,147,,,,,None,j,0.8903984999924432,None,,,,,,147,0,146,627.3737679000187,,,,,,,,,,,,,,,,,,,,,,,627.3578798999952,627.3737679000187,627.8572840999987,,,,,,,,,,,,627.8831054000184,,,,,,,,,,,627.8798284000077,627.8831054000184,627.8831054000184,627.8831054000184,630.874043799995,None,630.8742442000075,630.8905200000154,630.8905200000154,631.7924604,j,0.8903984999924432,None,,,,,,,,,,,,,,,00034,001,2026-01-22_17h23.05.207,MST_task,2024.2.0,60.0350364484742,2026-01-22 17h23.19.624056 +0530,
,Objects\140a.jpg,147,0,148,,,,,f,None,,,1.9136242999811657,0.23945700001786463,,,,148,0,147,631.8072335000033,,,,,,,,,,,,,,,,,,,,,,,631.7929298999952,631.8072335000033,632.2907325999986,,,,,,,,,,,,632.3072808000143,,,,,,,,,,,632.3015390000073,632.3072808000143,632.3072808000143,632.3072808000143,635.2916831000184,f,635.2918769000098,,,635.2919399999955,None,,,1.9136242999811657,0.23945700001786463,635.3072047000169,635.3072047000169,635.3072047000169,,,,,,,,,,00034,001,2026-01-22_17h23.05.207,MST_task,2024.2.0,60.0350364484742,2026-01-22 17h23.19.624056 +0530,
,Objects\164a.jpg,148,0,149,,,,,f,None,,,1.8774333999899682,0.18376030001672916,,,,149,0,148,635.3072047000169,,,,,,,,,,,,,,,,,,,,,,,635.2922343999962,635.3072047000169,635.790616000013,,,,,,,,,,,,635.8074617999955,,,,,,,,,,,635.800221500016,635.8074617999955,635.8074617999955,635.8074617999955,638.7925600000017,f,638.7927597000089,,,638.7928193999978,None,,,1.8774333999899682,0.18376030001672916,638.8072178000002,638.8072178000002,638.8072178000002,,,,,,,,,,00034,001,2026-01-22_17h23.05.207,MST_task,2024.2.0,60.0350364484742,2026-01-22 17h23.19.624056 +0530,
,Objects\142a.jpg,149,0,150,,,,,f,None,,,1.118687400012277,0.152199300006032,,,,150,0,149,638.8072178000002,,,,,,,,,,,,,,,,,,,,,,,638.7931811000162,638.8072178000002,639.2905860000174,,,,,,,,,,,,639.3182235000131,,,,,,,,,,,639.3156089000113,639.3182235000131,639.3182235000131,639.3182235000131,642.3075715000159,f,642.3077745000191,,,642.307839599991,None,,,1.118687400012277,0.152199300006032,,,,,,,,,,,,,00034,001,2026-01-22_17h23.05.207,MST_task,2024.2.0,60.0350364484742,2026-01-22 17h23.19.624056 +0530,
,Objects\075a.jpg,150,0,151,,,,,f,None,,,2.4553719999967143,0.16747419998864643,,,,151,0,150,642.323781700019,,,,,,,,,,,,,,,,,,,,,,,642.308211800002,642.323781700019,642.807632400014,,,,,,,,,,,,642.8295513000048,,,,,,,,,,,642.8274131999933,642.8295513000048,642.8295513000048,642.8295513000048,645.8241640999913,f,645.8243608000048,,,645.8244265000103,None,,,2.4553719999967143,0.16747419998864643,,,,,,,,,,,,,00034,001,2026-01-22_17h23.05.207,MST_task,2024.2.0,60.0350364484742,2026-01-22 17h23.19.624056 +0530,
,Objects\070a.jpg,151,0,152,,,,,f,None,,,0.7916873000212945,0.20056929998099804,,,,152,0,151,645.8405101000099,,,,,,,,,,,,,,,,,,,,,,,645.8247908999911,645.8405101000099,646.3241770000022,,,,,,,,,,,,646.3407949999964,,,,,,,,,,,646.3329535000084,646.3407949999964,646.3407949999964,646.3407949999964,649.3248514000152,f,649.3250390000176,,,649.3250998000149,None,,,0.7916873000212945,0.20056929998099804,649.3402124000131,649.3402124000131,649.3402124000131,,,,,,,,,,00034,001,2026-01-22_17h23.05.207,MST_task,2024.2.0,60.0350364484742,2026-01-22 17h23.19.624056 +0530,
,Objects\155a.jpg,152,0,153,,,,,f,None,,,1.0135444999905303,0.1765175000182353,,,,153,0,152,649.3402124000131,,,,,,,,,,,,,,,,,,,,,,,649.3253912999935,649.3402124000131,649.8242092000146,,,,,,,,,,,,649.8466686000174,,,,,,,,,,,649.8439866999979,649.8466686000174,649.8466686000174,649.8466686000174,652.8406193999981,f,652.8408171000192,,,652.8408816000156,None,,,1.0135444999905303,0.1765175000182353,,,,,,,,,,,,,00034,001,2026-01-22_17h23.05.207,MST_task,2024.2.0,60.0350364484742,2026-01-22 17h23.19.624056 +0530,
,Objects\064a.jpg,153,0,154,,,,,j,None,,,1.464132699999027,0.128791099996306,,,,154,0,153,652.857181600004,,,,,,,,,,,,,,,,,,,,,,,652.8412457999948,652.857181600004,653.3409331000003,,,,,,,,,,,,653.3721555999946,,,,,,,,,,,653.369288100017,653.3721555999946,653.3721555999946,653.3721555999946,656.3573888000101,j,656.3575816999946,,,656.3576451000117,None,,,1.464132699999027,0.128791099996306,,,,,,,,,,,,,00034,001,2026-01-22_17h23.05.207,MST_task,2024.2.0,60.0350364484742,2026-01-22 17h23.19.624056 +0530,
,Scenes\090a.jpg,154,0,155,,,,,j,None,,,1.2497078999876976,0.12846760000684299,,,,155,0,154,656.3735100000049,,,,,,,,,,,,,,,,,,,,,,,656.3580090000178,656.3735100000049,656.8578164000064,,,,,,,,,,,,656.906925999996,,,,,,,,,,,656.9040987000044,656.906925999996,656.906925999996,656.906925999996,659.8740605000057,j,659.8743080999993,,,659.874369600002,None,,,1.2497078999876976,0.12846760000684299,,,,,,,,,,,,,00034,001,2026-01-22_17h23.05.207,MST_task,2024.2.0,60.0350364484742,2026-01-22 17h23.19.624056 +0530,
,Scenes\171a.jpg,155,0,156,,,,,f,None,,,0.9047394000226632,0.16766499998630024,,,,156,0,155,659.8901267000183,,,,,,,,,,,,,,,,,,,,,,,659.8747228000138,659.8901267000183,660.3742868000118,,,,,,,,,,,,660.3961390000186,,,,,,,,,,,660.3931877000141,660.3961390000186,660.3961390000186,660.3961390000186,663.3908349999983,f,663.3910276000097,,,663.3910920000053,None,,,0.9047394000226632,0.16766499998630024,,,,,,,,,,,,,00034,001,2026-01-22_17h23.05.207,MST_task,2024.2.0,60.0350364484742,2026-01-22 17h23.19.624056 +0530,
,Scenes\161a.jpg,156,0,157,,,,,j,None,,,0.6652966999972705,0.2003584000049159,,,,157,0,156,663.4069145999965,,,,,,,,,,,,,,,,,,,,,,,663.3914592000074,663.4069145999965,663.8908768999972,,,,,,,,,,,,663.9230589999934,,,,,,,,,,,663.920094000001,663.9230589999934,663.9230589999934,663.9230589999934,666.9108834000072,j,666.9110962999985,,,666.9111621000047,None,,,0.6652966999972705,0.2003584000049159,,,,,,,,,,,,,00034,001,2026-01-22_17h23.05.207,MST_task,2024.2.0,60.0350364484742,2026-01-22 17h23.19.624056 +0530,
,Scenes\055a.jpg,157,0,158,,,,,j,None,,,0.8836712000193074,0.1520095999876503,,,,158,0,157,666.923850799998,,,,,,,,,,,,,,,,,,,,,,,666.9115329000051,666.923850799998,667.4093033999961,,,,,,,,,,,,667.4567184000043,,,,,,,,,,,667.4542841000075,667.4567184000043,667.4567184000043,667.4567184000043,670.4242492000049,j,670.4244468999968,,,670.4245127000031,None,,,0.8836712000193074,0.1520095999876503,,,,,,,,,,,,,00034,001,2026-01-22_17h23.05.207,MST_task,2024.2.0,60.0350364484742,2026-01-22 17h23.19.624056 +0530,
,Scenes\025a.jpg,158,0,159,,,,,j,None,,,2.466932799987262,0.1677285000041593,,,,159,0,158,670.4402597000008,,,,,,,,,,,,,,,,,,,,,,,670.424803700007,670.4402597000008,670.9242581000144,,,,,,,,,,,,670.9460218000168,,,,,,,,,,,670.9432805000106,670.9460218000168,670.9460218000168,670.9460218000168,673.9409367000044,j,673.941132900014,,,673.9411970000074,None,,,2.466932799987262,0.1677285000041593,,,,,,,,,,,,,00034,001,2026-01-22_17h23.05.207,MST_task,2024.2.0,60.0350364484742,2026-01-22 17h23.19.624056 +0530,
,Scenes\162a.jpg,159,0,160,,,,,None,j,0.946978299994953,None,,,,,,160,0,159,673.9568191000144,,,,,,,,,,,,,,,,,,,,,,,673.9414857999946,673.9568191000144,674.4406325000164,,,,,,,,,,,,674.457541300013,,,,,,,,,,,674.4541863999912,674.457541300013,674.457541300013,674.457541300013,677.4417337999912,None,677.4419158000092,677.4571618000045,677.4571618000045,678.4072068000096,j,0.946978299994953,None,,,677.4571618000045,677.4571618000045,677.4571618000045,,,,,,,,,,00034,001,2026-01-22_17h23.05.207,MST_task,2024.2.0,60.0350364484742,2026-01-22 17h23.19.624056 +0530,
,Scenes\045a.jpg,160,0,161,,,,,j,None,,,1.9967251000052784,0.1446107999945525,,,,161,0,160,678.4234257999924,,,,,,,,,,,,,,,,,,,,,,,678.407652599999,678.4234257999924,678.90750880001,,,,,,,,,,,,678.9437453999999,,,,,,,,,,,678.9410205000022,678.9437453999999,678.9437453999999,678.9437453999999,681.907529899996,j,681.9077265000087,,,681.907792700018,None,,,1.9967251000052784,0.1446107999945525,,,,,,,,,,,,,00034,001,2026-01-22_17h23.05.207,MST_task,2024.2.0,60.0350364484742,2026-01-22 17h23.19.624056 +0530,
,Objects\057a.jpg,161,0,162,,,,,f,None,,,1.595864500006428,0.1607748999958858,,,,162,0,161,681.9246556000144,,,,,,,,,,,,,,,,,,,,,,,681.9080780000077,681.9246556000144,682.4075203000102,,,,,,,,,,,,682.4242746999953,,,,,,,,,,,682.4201602000103,682.4242746999953,682.4242746999953,682.4242746999953,685.4083512999932,f,685.4085589000024,,,685.4086199000012,None,,,1.595864500006428,0.1607748999958858,685.4238673000073,685.4238673000073,685.4238673000073,,,,,,,,,,00034,001,2026-01-22_17h23.05.207,MST_task,2024.2.0,60.0350364484742,2026-01-22 17h23.19.624056 +0530,
,Objects\113a.jpg,162,0,163,,,,,f,None,,,1.6953486999846064,0.20007900000200607,,,,163,0,162,685.4238673000073,,,,,,,,,,,,,,,,,,,,,,,685.4089194000117,685.4238673000073,685.907566000009,,,,,,,,,,,,685.9489039000182,,,,,,,,,,,685.946151000011,685.9489039000182,685.9489039000182,685.9489039000182,688.9250940000056,f,688.925289900013,,,688.9253534000018,None,,,1.6953486999846064,0.20007900000200607,,,,,,,,,,,,,00034,001,2026-01-22_17h23.05.207,MST_task,2024.2.0,60.0350364484742,2026-01-22 17h23.19.624056 +0530,
,Objects\125a.jpg,163,0,164,,,,,j,None,,,1.637905999989016,0.14355959999375045,,,,164,0,163,688.940519900003,,,,,,,,,,,,,,,,,,,,,,,688.9256371000083,688.940519900003,689.424308799993,,,,,,,,,,,,689.4469527000037,,,,,,,,,,,689.4441968000028,689.4469527000037,689.4469527000037,689.4469527000037,692.4409089999972,j,692.4411222999915,,,692.4411856000079,None,,,1.637905999989016,0.14355959999375045,,,,,,,,,,,,,00034,001,2026-01-22_17h23.05.207,MST_task,2024.2.0,60.0350364484742,2026-01-22 17h23.19.624056 +0530,
,Objects\192a.jpg,164,0,165,,,,,j,None,,,0.9688241000112612,0.14351619998342358,,,,165,0,164,692.4570934000076,,,,,,,,,,,,,,,,,,,,,,,692.4415723000129,692.4570934000076,692.940929000004,,,,,,,,,,,,692.9640508000157,,,,,,,,,,,692.9612216000096,692.9640508000157,692.9640508000157,692.9640508000157,695.9575422999915,j,695.957744400017,,,695.9578097000194,None,,,0.9688241000112612,0.14351619998342358,,,,,,,,,,,,,00034,001,2026-01-22_17h23.05.207,MST_task,2024.2.0,60.0350364484742,2026-01-22 17h23.19.624056 +0530,
,Objects\133a.jpg,165,0,166,,,,,j,None,,,1.418076400004793,0.16812960000243038,,,,166,0,165,695.9738740000175,,,,,,,,,,,,,,,,,,,,,,,695.9581278999976,695.9738740000175,696.4575348999933,,,,,,,,,,,,696.4740944000077,,,,,,,,,,,696.4667311999947,696.4740944000077,696.4740944000077,696.4740944000077,699.4583169000107,j,699.4585112000059,,,699.4585694000125,None,,,1.418076400004793,0.16812960000243038,699.4746052999981,699.4746052999981,699.4746052999981,,,,,,,,,,00034,001,2026-01-22_17h23.05.207,MST_task,2024.2.0,60.0350364484742,2026-01-22 17h23.19.624056 +0530,
,Objects\101a.jpg,166,0,167,,,,,None,f,0.6629381999955513,None,,,,,,167,0,166,699.4746052999981,,,,,,,,,,,,,,,,,,,,,,,699.4588623000018,699.4746052999981,699.9575290000066,,,,,,,,,,,,699.9741578999965,,,,,,,,,,,699.9663251000165,699.9741578999965,699.9741578999965,699.9741578999965,702.9583623000071,None,702.9585346000094,702.9739044000162,702.9739044000162,703.6410426000075,f,0.6629381999955513,None,,,702.9739044000162,702.9739044000162,702.9739044000162,,,,,,,,,,00034,001,2026-01-22_17h23.05.207,MST_task,2024.2.0,60.0350364484742,2026-01-22 17h23.19.624056 +0530,
,Objects\182a.jpg,167,0,168,,,,,f,None,,,1.508386600005906,0.15273939998587593,,,,168,0,167,703.6571185000066,,,,,,,,,,,,,,,,,,,,,,,703.6413699999976,703.6571185000066,704.1408055000065,,,,,,,,,,,,704.1678871000186,,,,,,,,,,,704.1651093999972,704.1678871000186,704.1678871000186,704.1678871000186,707.1575473000121,f,707.1577466000163,,,707.1578117000172,None,,,1.508386600005906,0.15273939998587593,,,,,,,,,,,,,00034,001,2026-01-22_17h23.05.207,MST_task,2024.2.0,60.0350364484742,2026-01-22 17h23.19.624056 +0530,
,Scenes\153a.jpg,168,0,169,,,,,j,None,,,1.2648585999850184,0.16813780000666156,,,,169,0,168,707.1738758000138,,,,,,,,,,,,,,,,,,,,,,,707.1580952999939,707.1738758000138,707.6575211000163,,,,,,,,,,,,707.6754270000092,,,,,,,,,,,707.6729661000136,707.6754270000092,707.6754270000092,707.6754270000092,710.6742907000007,j,710.6744859000028,,,710.6745492999908,None,,,1.2648585999850184,0.16813780000666156,,,,,,,,,,,,,00034,001,2026-01-22_17h23.05.207,MST_task,2024.2.0,60.0350364484742,2026-01-22 17h23.19.624056 +0530,
,Scenes\104a.jpg,169,0,170,,,,,j,None,,,0.8396171000204049,0.2161729999934323,,,,170,0,169,710.6905419999966,,,,,,,,,,,,,,,,,,,,,,,710.6749092999962,710.6905419999966,711.1748157000111,,,,,,,,,,,,711.2292648000002,,,,,,,,,,,711.2265394999995,711.2292648000002,711.2292648000002,711.2292648000002,714.1909260000102,j,714.1911188999948,,,714.1911838999949,None,,,0.8396171000204049,0.2161729999934323,,,,,,,,,,,,,00034,001,2026-01-22_17h23.05.207,MST_task,2024.2.0,60.0350364484742,2026-01-22 17h23.19.624056 +0530,
,Scenes\117a.jpg,170,0,171,,,,,j,None,,,1.20844990000478,0.19203139998717234,,,,171,0,170,714.2071963000053,,,,,,,,,,,,,,,,,,,,,,,714.1914711999998,714.2071963000053,714.6910410000128,,,,,,,,,,,,714.7079135999957,,,,,,,,,,,714.7006614000129,714.7079135999957,714.7079135999957,714.7079135999957,717.6918514000135,j,717.6920435999928,,,717.692102800007,None,,,1.20844990000478,0.19203139998717234,717.7072363000188,717.7072363000188,717.7072363000188,,,,,,,,,,00034,001,2026-01-22_17h23.05.207,MST_task,2024.2.0,60.0350364484742,2026-01-22 17h23.19.624056 +0530,
,Scenes\180a.jpg,171,0,172,,,,,j,None,,,1.4407341000041924,0.16060890001244843,,,,172,0,171,717.7072363000188,,,,,,,,,,,,,,,,,,,,,,,717.6924754999927,717.7072363000188,718.1909209000005,,,,,,,,,,,,718.2194934000145,,,,,,,,,,,718.2168139000132,718.2194934000145,718.2194934000145,718.2194934000145,721.2075968999998,j,721.2078014000144,,,721.2078646000009,None,,,1.4407341000041924,0.16060890001244843,,,,,,,,,,,,,00034,001,2026-01-22_17h23.05.207,MST_task,2024.2.0,60.0350364484742,2026-01-22 17h23.19.624056 +0530,
,Scenes\095a.jpg,172,0,173,,,,,f,None,,,1.4862967999943066,0.2161449000122957,,,,173,0,172,721.2247119999956,,,,,,,,,,,,,,,,,,,,,,,721.2081547999987,721.2247119999956,721.7075111000158,,,,,,,,,,,,721.726553400018,,,,,,,,,,,721.723565399996,721.726553400018,721.726553400018,721.726553400018,724.7242145999917,f,724.7244221000001,,,724.7244921000092,None,,,1.4862967999943066,0.2161449000122957,,,,,,,,,,,,,00034,001,2026-01-22_17h23.05.207,MST_task,2024.2.0,60.0350364484742,2026-01-22 17h23.19.624056 +0530,
,Scenes\017a.jpg,173,0,174,,,,,f,None,,,1.2204476000042632,0.21580909998738207,,,,174,0,173,724.740198799991,,,,,,,,,,,,,,,,,,,,,,,724.7250309000083,724.740198799991,725.2239522000018,,,,,,,,,,,,725.3443940000143,,,,,,,,,,,725.3411175000074,725.3443940000143,725.3443940000143,725.3443940000143,728.2409250999917,f,728.2411332000047,,,728.2411989000102,None,,,1.2204476000042632,0.21580909998738207,,,,,,,,,,,,,00034,001,2026-01-22_17h23.05.207,MST_task,2024.2.0,60.0350364484742,2026-01-22 17h23.19.624056 +0530,
