Sl_no,image_path,thisN,thisTrialN,thisRepN,key_resp_5.keys,key_resp_7.keys,key_resp_7.rt,key_resp_7.duration,key_resp_5.rt,key_resp_5.duration,key_resp_9.keys,key_resp_9.rt,key_resp_9.duration,key_resp_8.keys,key_resp_8.rt,key_resp_8.duration,practice.thisRepN,practice.thisTrialN,practice.thisN,trials.thisRepN,trials.thisTrialN,trials.thisN,thisRow.t,notes,welcome_page.started,text.started,key_resp.started,welcome_page.stopped,key_resp.keys,key_resp.rt,key_resp.duration,instructions.started,ins.started,key_resp_2.started,instructions.stopped,key_resp_2.keys,key_resp_2.rt,key_resp_2.duration,objects_only_instruction.started,text_3.started,key_resp_3.started,objects_only_instruction.stopped,key_resp_3.keys,key_resp_3.rt,key_resp_3.duration,ISI.started,text_4.started,text_4.stopped,ISI.stopped,practice_block.started,image.started,text_5.started,key_resp_5.started,practice_block.stopped,practice.key_resp_5.keys,indoor_outdoor.started,text_7.started,key_resp_7.started,indoor_outdoor.stopped,practice.key_resp_7.keys,practice.key_resp_7.rt,practice.key_resp_7.duration,image.stopped,text_5.stopped,key_resp_5.stopped,practice.key_resp_5.rt,practice.key_resp_5.duration,practice_to_main.started,text_2.started,key_resp_4.started,practice_to_main.stopped,key_resp_4.keys,key_resp_4.rt,key_resp_4.duration,objects.started,image_2.started,text_9.started,key_resp_9.started,image_2.stopped,text_9.stopped,key_resp_9.stopped,objects.stopped,trials.key_resp_9.keys,trials.key_resp_9.rt,trials.key_resp_9.duration,encoding_task.started,encoding_task.stopped,trials.key_resp_8.keys,text_8.started,key_resp_8.started,trials.key_resp_8.rt,trials.key_resp_8.duration,end_experiment.started,text_6.started,key_resp_6.started,end_experiment.stopped,key_resp_6.keys,key_resp_6.rt,key_resp_6.duration,list_of_stimuli,encoding_task_accuracy,participant,session,date,expName,psychopyVersion,frameRate,expStart,
,,,,,,,,,,,,,,,,,,,,,,,,,0.0014381999790202826,0.0042320000065956265,0.0042320000065956265,4.598618699994404,space,4.575549000001047,None,,,,,,,,,,,,,,,,,,,,,,,,,,,,,,,,,,,,,,,,,,,,,,,,,,,,,,,,,,,,,,,,,,,,,,,00039,001,2026-01-23_17h02.47.129,MST_task,2024.2.0,60.0524858703198,2026-01-23 17h03.03.454905 +0530,
,,,,,,,,,,,,,,,,,,,,,,,,,,,,,,,,4.598661800002446,4.61295149999205,4.61295149999205,46.960564499982866,space,42.34283969999524,None,,,,,,,,,,,,,,,,,,,,,,,,,,,,,,,,,,,,,,,,,,,,,,,,,,,,,,,,,,,,,,,,00039,001,2026-01-23_17h02.47.129,MST_task,2024.2.0,60.0524858703198,2026-01-23 17h03.03.454905 +0530,
,,,,,,,,,,,,,,,,,,,,,,,,,,,,,,,,,,,,,,,46.960602000006475,46.977065499988385,46.977065499988385,87.92639049998252,space,40.946257800009334,None,,,,,,,,,,,,,,,,,,,,,,,,,,,,,,,,,,,,,,,,,,,,,,,,,,,,,,,,,00039,001,2026-01-23_17h02.47.129,MST_task,2024.2.0,60.0524858703198,2026-01-23 17h03.03.454905 +0530,
8,practice_images/178a.jpg,0,0,1,None,f,4.416314000001876,None,,,,,,,,,1,0,0,,,,87.94302499998594,,,,,,,,,,,,,,,,,,,,,,,87.933152099984,87.94302499998594,88.44995479998761,88.4260792999994,88.43586589998449,88.44995479998761,88.44995479998761,88.44995479998761,91.44323859998258,None,91.44573659999878,91.45955549998325,91.45955549998325,95.87690979999024,f,4.416314000001876,None,,,,,,,,,,,,,,,,,,,,,,,,,,,,,,,,,,,,,,,,00039,001,2026-01-23_17h02.47.129,MST_task,2024.2.0,60.0524858703198,2026-01-23 17h03.03.454905 +0530,
9,practice_images/180a.jpg,1,1,1,None,f,0.1300461999780964,None,,,,,,,,,1,1,1,,,,95.89289409999037,,,,,,,,,,,,,,,,,,,,,,,95.87701739999466,95.89289409999037,96.39293380000163,96.37629280000692,96.37868829999934,96.39293380000163,96.39293380000163,96.39293380000163,99.37647180000204,None,99.37653330000467,99.39321999999811,99.39321999999811,99.5267773999949,f,0.1300461999780964,None,99.39321999999811,99.39321999999811,99.39321999999811,,,,,,,,,,,,,,,,,,,,,,,,,,,,,,,,,,,,,00039,001,2026-01-23_17h02.47.129,MST_task,2024.2.0,60.0524858703198,2026-01-23 17h03.03.454905 +0530,
5,practice_images/139a.jpg,2,2,1,j,None,,,2.0002130000211764,0.15198569998028688,,,,,,,1,2,2,,,,99.54282820000662,,,,,,,,,,,,,,,,,,,,,,,99.52688600000693,99.54282820000662,100.04336579999654,100.02671169998939,100.02909209998325,100.04336579999654,100.04336579999654,100.04336579999654,103.02628449999611,j,103.026355399983,,,103.02637289999984,None,,,103.04248020000523,103.04248020000523,103.04248020000523,2.0002130000211764,0.15198569998028688,,,,,,,,,,,,,,,,,,,,,,,,,,,,,,,,,,,00039,001,2026-01-23_17h02.47.129,MST_task,2024.2.0,60.0524858703198,2026-01-23 17h03.03.454905 +0530,
7,practice_images/166a.jpg,3,3,1,f,None,,,1.2523956000222825,0.17587999999523163,,,,,,,1,3,3,,,,103.04248020000523,,,,,,,,,,,,,,,,,,,,,,,103.02645239999401,103.04248020000523,103.54296679998515,103.52645969999139,103.52902069999254,103.54296679998515,103.54296679998515,103.54296679998515,106.52663320000283,f,106.5267002999899,,,106.52671750000445,None,,,106.54303770000115,106.54303770000115,106.54303770000115,1.2523956000222825,0.17587999999523163,,,,,,,,,,,,,,,,,,,,,,,,,,,,,,,,,,,00039,001,2026-01-23_17h02.47.129,MST_task,2024.2.0,60.0524858703198,2026-01-23 17h03.03.454905 +0530,
4,practice_images/002b.jpg,4,4,1,f,None,,,1.1198649999860208,0.1600091999862343,,,,,,,1,4,4,,,,106.54303770000115,,,,,,,,,,,,,,,,,,,,,,,106.52679689999786,106.54303770000115,107.04319759999635,107.02631719998317,107.02857739999308,107.04319759999635,107.04319759999635,107.04319759999635,110.02632420000737,f,110.02640459997929,,,110.02641980000772,None,,,110.043179100001,110.043179100001,110.043179100001,1.1198649999860208,0.1600091999862343,,,,,,,,,,,,,,,,,,,,,,,,,,,,,,,,,,,00039,001,2026-01-23_17h02.47.129,MST_task,2024.2.0,60.0524858703198,2026-01-23 17h03.03.454905 +0530,
10,practice_images/182a.jpg,5,5,1,f,None,,,0.7560534999938682,0.1439457000233233,,,,,,,1,5,5,,,,110.043179100001,,,,,,,,,,,,,,,,,,,,,,,110.02650720000383,110.043179100001,,110.52646530000493,110.52863240000443,110.54342959998758,110.54342959998758,110.54342959998758,113.52640209998935,f,113.52646629998344,,,113.5264795999974,None,,,113.54275019999477,113.54275019999477,113.54275019999477,0.7560534999938682,0.1439457000233233,,,,,,,,,,,,,,,,,,,,,,,,,,,,,,,,,,,00039,001,2026-01-23_17h02.47.129,MST_task,2024.2.0,60.0524858703198,2026-01-23 17h03.03.454905 +0530,
6,practice_images/158a.jpg,6,6,1,j,None,,,1.1850267999980133,0.14402860001428053,,,,,,,1,6,6,,,,113.54275019999477,,,,,,,,,,,,,,,,,,,,,,,113.526552299998,113.54275019999477,114.04268630000297,114.02608449998661,114.02841440000338,114.04268630000297,114.04268630000297,114.04268630000297,117.02692989999196,j,117.02700020000339,,,117.02701540000271,None,,,117.04330639998079,117.04330639998079,117.04330639998079,1.1850267999980133,0.14402860001428053,,,,,,,,,,,,,,,,,,,,,,,,,,,,,,,,,,,00039,001,2026-01-23_17h02.47.129,MST_task,2024.2.0,60.0524858703198,2026-01-23 17h03.03.454905 +0530,
1,practice_images/013a.jpg,7,7,1,f,None,,,1.0764368000091054,0.1429731999814976,,,,,,,1,7,7,,,,117.04330639998079,,,,,,,,,,,,,,,,,,,,,,,117.02709560000221,117.04330639998079,117.54353649998666,117.52645380000467,117.52877000000444,117.54353649998666,117.54353649998666,117.54353649998666,120.52668179999455,f,120.52676670000073,,,120.52678469999228,None,,,120.54253479998442,120.54253479998442,120.54253479998442,1.0764368000091054,0.1429731999814976,,,,,,,,,,,,,,,,,,,,,,,,,,,,,,,,,,,00039,001,2026-01-23_17h02.47.129,MST_task,2024.2.0,60.0524858703198,2026-01-23 17h03.03.454905 +0530,
2,practice_images/031a.jpg,8,8,1,f,None,,,1.729045899992343,0.15985060000093654,,,,,,,1,8,8,,,,120.54253479998442,,,,,,,,,,,,,,,,,,,,,,,120.52687040000455,120.54253479998442,121.04263969999738,121.02622999998857,121.02827350000734,121.04263969999738,121.04263969999738,121.04263969999738,124.02686739998171,f,124.02694019998307,,,124.02695939998375,None,,,,,,1.729045899992343,0.15985060000093654,,,,,,,,,,,,,,,,,,,,,,,,,,,,,,,,,,,00039,001,2026-01-23_17h02.47.129,MST_task,2024.2.0,60.0524858703198,2026-01-23 17h03.03.454905 +0530,
3,practice_images/037a.jpg,9,9,1,f,None,,,1.1169897000072524,0.16737929999362677,,,,,,,1,9,9,,,,124.0433733999962,,,,,,,,,,,,,,,,,,,,,,,124.02704859999358,124.0433733999962,124.54264339999645,124.5263077999989,124.52883229998406,124.54264339999645,124.54264339999645,124.54264339999645,127.52654910000274,f,127.5266219000041,,,127.52663859998574,None,,,127.54298189998372,127.54298189998372,127.54298189998372,1.1169897000072524,0.16737929999362677,,,,,,,,,,,,,,,,,,,,,,,,,,,,,,,,,,,00039,001,2026-01-23_17h02.47.129,MST_task,2024.2.0,60.0524858703198,2026-01-23 17h03.03.454905 +0530,
,,,,,,,,,,,,,,,,,,,,,,,,,,,,,,,,,,,,,,,,,,,,,,,,,,,,,,,,,,,,,,,,,,,,127.52669880000758,127.54298189998372,127.54298189998372,145.7432171999826,space,18.18887429998722,None,,,,,,,,,,,,,,,,,,,,,,,,,,,,00039,001,2026-01-23_17h02.47.129,MST_task,2024.2.0,60.0524858703198,2026-01-23 17h03.03.454905 +0530,
,Objects\025a.jpg,0,0,1,,,,,,,j,1.3599634999991395,0.14364789999672212,None,,,,,,1,0,0,145.7592108999961,,,,,,,,,,,,,,,,,,,,,,,145.74400239999522,145.7592108999961,146.25956390000647,146.24295399998664,,,,,,,,,,,,,,,,,,,,,,,,,,146.25011759999325,146.25956390000647,146.25956390000647,146.25956390000647,149.25968139999895,149.25968139999895,149.25968139999895,149.24366569999256,j,1.3599634999991395,0.14364789999672212,149.24559400000726,149.2456173999817,None,,,,,,,,,,,,,,00039,001,2026-01-23_17h02.47.129,MST_task,2024.2.0,60.0524858703198,2026-01-23 17h03.03.454905 +0530,
,Objects\151a.jpg,1,0,2,,,,,,,j,2.14804020000156,0.1673542000062298,None,,,,,,2,0,1,149.25968139999895,,,,,,,,,,,,,,,,,,,,,,,149.2457260999945,149.25968139999895,149.75956269999733,149.7428997999814,,,,,,,,,,,,,,,,,,,,,,,,,,149.75643049998325,149.75956269999733,149.75956269999733,149.75956269999733,152.75927469998715,152.75927469998715,152.75927469998715,152.74329519999446,j,2.14804020000156,0.1673542000062298,152.74336589997984,152.7433805000037,None,,,,,,,,,,,,,,00039,001,2026-01-23_17h02.47.129,MST_task,2024.2.0,60.0524858703198,2026-01-23 17h03.03.454905 +0530,
,Objects\145a.jpg,2,0,3,,,,,,,None,,,j,0.6644090999907348,None,,,,3,0,2,152.75927469998715,,,,,,,,,,,,,,,,,,,,,,,152.74346359999618,152.75927469998715,153.26019259999157,153.24307900000713,,,,,,,,,,,,,,,,,,,,,,,,,,153.24720789998537,153.26019259999157,153.26019259999157,153.26019259999157,156.2591312000004,156.2591312000004,156.2591312000004,156.24404109999887,None,,,156.24410589999752,156.92632359999698,j,156.2591312000004,156.2591312000004,0.6644090999907348,None,,,,,,,,,,00039,001,2026-01-23_17h02.47.129,MST_task,2024.2.0,60.0524858703198,2026-01-23 17h03.03.454905 +0530,
,Objects\026a.jpg,3,0,4,,,,,,,j,1.7042876000050455,0.11959980000392534,None,,,,,,4,0,3,156.9426514999941,,,,,,,,,,,,,,,,,,,,,,,156.92647889998625,156.9426514999941,157.44325169999502,157.42637199998717,,,,,,,,,,,,,,,,,,,,,,,,,,157.4389239999873,157.44325169999502,157.44325169999502,157.44325169999502,160.44303120000404,160.44303120000404,160.44303120000404,160.42657999999938,j,1.7042876000050455,0.11959980000392534,160.4266466999834,160.42665969999507,None,,,,,,,,,,,,,,00039,001,2026-01-23_17h02.47.129,MST_task,2024.2.0,60.0524858703198,2026-01-23 17h03.03.454905 +0530,
,Objects\179a.jpg,4,0,5,,,,,,,f,1.092685999989044,0.1519797000219114,None,,,,,,5,0,4,160.44303120000404,,,,,,,,,,,,,,,,,,,,,,,160.42675719998078,160.44303120000404,,160.92713460000232,,,,,,,,,,,,,,,,,,,,,,,,,,160.9391415999853,160.94294479998644,160.94294479998644,160.94294479998644,163.9426814999897,163.9426814999897,163.9426814999897,163.92672309998306,f,1.092685999989044,0.1519797000219114,163.92679529997986,163.92680879999534,None,,,,,,,,,,,,,,00039,001,2026-01-23_17h02.47.129,MST_task,2024.2.0,60.0524858703198,2026-01-23 17h03.03.454905 +0530,
,Objects\176a.jpg,5,0,6,,,,,,,f,1.680009500007145,0.15280589999747463,None,,,,,,6,0,5,163.9426814999897,,,,,,,,,,,,,,,,,,,,,,,163.92690989997936,163.9426814999897,164.44294509998872,164.42654799998854,,,,,,,,,,,,,,,,,,,,,,,,,,164.43059659999562,164.44294509998872,164.44294509998872,164.44294509998872,167.44289869998465,167.44289869998465,167.44289869998465,167.42689469998004,f,1.680009500007145,0.15280589999747463,167.42697609998868,167.42699069998343,None,,,,,,,,,,,,,,00039,001,2026-01-23_17h02.47.129,MST_task,2024.2.0,60.0524858703198,2026-01-23 17h03.03.454905 +0530,
,Objects\082a.jpg,6,0,7,,,,,,,None,,,j,0.004410599998664111,None,,,,7,0,6,167.44289869998465,,,,,,,,,,,,,,,,,,,,,,,167.4271097999881,167.44289869998465,167.94286169999395,167.92611329999636,,,,,,,,,,,,,,,,,,,,,,,,,,167.93007239999133,167.94286169999395,167.94286169999395,167.94286169999395,170.94282749999547,170.94282749999547,170.94282749999547,170.92679679999128,None,,,170.9268655999913,170.96040959999664,j,170.94282749999547,170.94282749999547,0.004410599998664111,None,,,,,,,,,,00039,001,2026-01-23_17h02.47.129,MST_task,2024.2.0,60.0524858703198,2026-01-23 17h03.03.454905 +0530,
,Scenes\142a.jpg,7,0,8,,,,,,,j,0.9253197999787517,0.1201203000091482,None,,,,,,8,0,7,170.97648369998205,,,,,,,,,,,,,,,,,,,,,,,170.9605673000042,170.97648369998205,171.47813289999613,171.4597581999842,,,,,,,,,,,,,,,,,,,,,,,,,,171.4750486999983,171.47813289999613,171.47813289999613,171.47813289999613,,,,174.47657400000026,j,0.9253197999787517,0.1201203000091482,174.47666099999333,174.47667689999798,None,,,,,,,,,,,,,,00039,001,2026-01-23_17h02.47.129,MST_task,2024.2.0,60.0524858703198,2026-01-23 17h03.03.454905 +0530,
,Scenes\172a.jpg,8,0,9,,,,,,,j,0.8096658000140451,0.13602769997669384,None,,,,,,9,0,8,174.4928871000011,,,,,,,,,,,,,,,,,,,,,,,174.47680459998082,174.4928871000011,174.99356450000778,174.97625340000377,,,,,,,,,,,,,,,,,,,,,,,,,,174.98802629997954,174.99356450000778,174.99356450000778,174.99356450000778,,,,177.99310249998234,j,0.8096658000140451,0.13602769997669384,177.99320029999944,177.9932162000041,None,,,,,,,,,,,,,,00039,001,2026-01-23_17h02.47.129,MST_task,2024.2.0,60.0524858703198,2026-01-23 17h03.03.454905 +0530,
,Scenes\186a.jpg,9,0,10,,,,,,,j,1.3348581999889575,0.17583140000351705,None,,,,,,10,0,9,178.00924680000753,,,,,,,,,,,,,,,,,,,,,,,177.99331289998372,178.00924680000753,178.51655499998014,178.49327909998829,,,,,,,,,,,,,,,,,,,,,,,,,,178.51356170000508,178.51655499998014,178.51655499998014,178.51655499998014,,,,181.50994200000423,j,1.3348581999889575,0.17583140000351705,181.51002389998757,181.51003949998994,None,,,,,,,,,,,,,,00039,001,2026-01-23_17h02.47.129,MST_task,2024.2.0,60.0524858703198,2026-01-23 17h03.03.454905 +0530,
,Scenes\004a.jpg,10,0,11,,,,,,,j,1.1138398999755736,0.16745910001918674,None,,,,,,11,0,10,181.52559849998215,,,,,,,,,,,,,,,,,,,,,,,181.5101301999821,181.52559849998215,182.02635869997903,182.00945839998894,,,,,,,,,,,,,,,,,,,,,,,,,,182.0228584999859,182.02635869997903,182.02635869997903,182.02635869997903,185.02616300000227,185.02616300000227,185.02616300000227,185.01045830000658,j,1.1138398999755736,0.16745910001918674,185.01053649999085,185.0105502999795,None,,,,,,,,,,,,,,00039,001,2026-01-23_17h02.47.129,MST_task,2024.2.0,60.0524858703198,2026-01-23 17h03.03.454905 +0530,
,Scenes\122a.jpg,11,0,12,,,,,,,f,1.0217386000149418,0.19901989999925718,None,,,,,,12,0,11,185.02616300000227,,,,,,,,,,,,,,,,,,,,,,,185.01065039998502,185.02616300000227,185.5262875999906,185.5099182999984,,,,,,,,,,,,,,,,,,,,,,,,,,185.52337680000346,185.5262875999906,185.5262875999906,185.5262875999906,188.52613230000134,188.52613230000134,188.52613230000134,188.5105435999867,f,1.0217386000149418,0.19901989999925718,188.51061389999813,188.51062829999137,None,,,,,,,,,,,,,,00039,001,2026-01-23_17h02.47.129,MST_task,2024.2.0,60.0524858703198,2026-01-23 17h03.03.454905 +0530,
,Scenes\117a.jpg,12,0,13,,,,,,,j,0.9131735999835655,0.14397760000429116,None,,,,,,13,0,12,188.52613230000134,,,,,,,,,,,,,,,,,,,,,,,188.51073650000035,188.52613230000134,189.0260231999855,189.00987680000253,,,,,,,,,,,,,,,,,,,,,,,,,,189.01780959998723,189.0260231999855,189.0260231999855,189.0260231999855,192.02563600000576,192.02563600000576,192.02563600000576,192.01003219999257,j,0.9131735999835655,0.14397760000429116,192.01010799998767,192.01012170000467,None,,,,,,,,,,,,,,00039,001,2026-01-23_17h02.47.129,MST_task,2024.2.0,60.0524858703198,2026-01-23 17h03.03.454905 +0530,
,Scenes\185a.jpg,13,0,14,,,,,,,j,1.0055801999988034,0.12784790000296198,None,,,,,,14,0,13,192.02563600000576,,,,,,,,,,,,,,,,,,,,,,,192.01024129998405,192.02563600000576,192.5262917999935,192.50949229998514,,,,,,,,,,,,,,,,,,,,,,,,,,192.51862289998098,192.5262917999935,192.5262917999935,192.5262917999935,195.52566699997988,195.52566699997988,195.52566699997988,195.5102338999859,j,1.0055801999988034,0.12784790000296198,195.51030209998135,195.51031499999226,None,,,,,,,,,,,,,,00039,001,2026-01-23_17h02.47.129,MST_task,2024.2.0,60.0524858703198,2026-01-23 17h03.03.454905 +0530,
,Objects\192a.jpg,14,0,15,,,,,,,j,1.1301087000174448,0.167464199999813,None,,,,,,15,0,14,195.52566699997988,,,,,,,,,,,,,,,,,,,,,,,195.51038979997975,195.52566699997988,196.02619489998324,196.01015429999097,,,,,,,,,,,,,,,,,,,,,,,,,,196.01657469998463,196.02619489998324,196.02619489998324,196.02619489998324,199.02596979998634,199.02596979998634,199.02596979998634,199.01058770000236,j,1.1301087000174448,0.167464199999813,199.01067099999636,199.01068609999493,None,,,,,,,,,,,,,,00039,001,2026-01-23_17h02.47.129,MST_task,2024.2.0,60.0524858703198,2026-01-23 17h03.03.454905 +0530,
,Objects\033a.jpg,15,0,16,,,,,,,f,0.997400899999775,0.1603861999756191,None,,,,,,16,0,15,199.02596979998634,,,,,,,,,,,,,,,,,,,,,,,199.01078439998673,199.02596979998634,199.5261587999994,199.50950889999513,,,,,,,,,,,,,,,,,,,,,,,,,,199.51338180000312,199.5261587999994,199.5261587999994,199.5261587999994,202.52579600000172,202.52579600000172,202.52579600000172,202.5107306999853,f,0.997400899999775,0.1603861999756191,202.51081439998234,202.5108282000001,None,,,,,,,,,,,,,,00039,001,2026-01-23_17h02.47.129,MST_task,2024.2.0,60.0524858703198,2026-01-23 17h03.03.454905 +0530,
,Objects\037a.jpg,16,0,17,,,,,,,j,1.393659099994693,0.1361421000037808,None,,,,,,17,0,16,202.52579600000172,,,,,,,,,,,,,,,,,,,,,,,202.5109145999886,202.52579600000172,203.02619949998916,203.00946099997964,,,,,,,,,,,,,,,,,,,,,,,,,,203.01342309999745,203.02619949998916,203.02619949998916,203.02619949998916,206.0260311999882,206.0260311999882,206.0260311999882,206.01040800000192,j,1.393659099994693,0.1361421000037808,206.0104902999883,206.01050939998822,None,,,,,,,,,,,,,,00039,001,2026-01-23_17h02.47.129,MST_task,2024.2.0,60.0524858703198,2026-01-23 17h03.03.454905 +0530,
,Objects\072a.jpg,17,0,18,,,,,,,f,1.381568500015419,0.11982359999092296,None,,,,,,18,0,17,206.0260311999882,,,,,,,,,,,,,,,,,,,,,,,206.01062359998468,206.0260311999882,206.52614830000675,206.50969089998398,,,,,,,,,,,,,,,,,,,,,,,,,,206.5229877999809,206.52614830000675,206.52614830000675,206.52614830000675,209.52656129997922,209.52656129997922,209.52656129997922,209.51062909999746,f,1.381568500015419,0.11982359999092296,209.5107069000078,209.51072069999645,None,,,,,,,,,,,,,,00039,001,2026-01-23_17h02.47.129,MST_task,2024.2.0,60.0524858703198,2026-01-23 17h03.03.454905 +0530,
,Objects\017a.jpg,18,0,19,,,,,,,j,2.35247199999867,0.1369663999939803,None,,,,,,19,0,18,209.52656129997922,,,,,,,,,,,,,,,,,,,,,,,209.51081310000154,209.52656129997922,210.02653040000587,210.00997270000516,,,,,,,,,,,,,,,,,,,,,,,,,,210.01385779998964,210.02653040000587,210.02653040000587,210.02653040000587,213.02565669998876,213.02565669998876,213.02565669998876,213.00991349999094,j,2.35247199999867,0.1369663999939803,213.00998309999704,213.0099968999857,None,,,,,,,,,,,,,,00039,001,2026-01-23_17h02.47.129,MST_task,2024.2.0,60.0524858703198,2026-01-23 17h03.03.454905 +0530,
,Objects\098a.jpg,19,0,20,,,,,,,f,1.0614880999783054,0.17595319999963976,None,,,,,,20,0,19,213.02565669998876,,,,,,,,,,,,,,,,,,,,,,,213.01007580000442,213.02565669998876,213.52608340000734,213.51025779999327,,,,,,,,,,,,,,,,,,,,,,,,,,213.5140853000048,213.52608340000734,213.52608340000734,213.52608340000734,216.52634369998123,216.52634369998123,216.52634369998123,216.51013310000417,f,1.0614880999783054,0.17595319999963976,216.5102038999903,216.51021829998353,None,,,,,,,,,,,,,,00039,001,2026-01-23_17h02.47.129,MST_task,2024.2.0,60.0524858703198,2026-01-23 17h03.03.454905 +0530,
,Objects\027a.jpg,20,0,21,,,,,,,j,2.4087447999918368,0.1361155000049621,None,,,,,,21,0,20,216.52634369998123,,,,,,,,,,,,,,,,,,,,,,,216.5103276000009,216.52634369998123,217.02680309998686,217.00944110000273,,,,,,,,,,,,,,,,,,,,,,,,,,217.01344539999263,217.02680309998686,217.02680309998686,217.02680309998686,220.0258232000051,220.0258232000051,220.0258232000051,220.01063099998282,j,2.4087447999918368,0.1361155000049621,220.01070210000034,220.01073859998723,None,,,,,,,,,,,,,,00039,001,2026-01-23_17h02.47.129,MST_task,2024.2.0,60.0524858703198,2026-01-23 17h03.03.454905 +0530,
,Scenes\045a.jpg,21,0,22,,,,,,,None,,,j,0.5245518000156153,None,,,,22,0,21,220.0258232000051,,,,,,,,,,,,,,,,,,,,,,,220.01082209998276,220.0258232000051,220.52786889998242,220.51045380000141,,,,,,,,,,,,,,,,,,,,,,,,,,220.52473519998603,220.52786889998242,220.52786889998242,220.52786889998242,,,,223.5263219999906,None,,,223.52642519999063,224.07688889998826,j,223.5429953999992,223.5429953999992,0.5245518000156153,None,,,,,,,,,,00039,001,2026-01-23_17h02.47.129,MST_task,2024.2.0,60.0524858703198,2026-01-23 17h03.03.454905 +0530,
,Scenes\011a.jpg,22,0,23,,,,,,,j,1.3846896999748424,0.10502460002317093,None,,,,,,23,0,22,224.09245860000374,,,,,,,,,,,,,,,,,,,,,,,224.07699820000562,224.09245860000374,224.59429730000556,224.5764486999833,,,,,,,,,,,,,,,,,,,,,,,,,,224.59107769999537,224.59429730000556,224.59429730000556,224.59429730000556,,,,227.59291189999203,j,1.3846896999748424,0.10502460002317093,227.59298789998866,227.59300439999788,None,,,,,,,,,,,,,,00039,001,2026-01-23_17h02.47.129,MST_task,2024.2.0,60.0524858703198,2026-01-23 17h03.03.454905 +0530,
,Scenes\044a.jpg,23,0,24,,,,,,,None,,,f,1.7808441999950446,None,,,,24,0,23,227.60922969999956,,,,,,,,,,,,,,,,,,,,,,,227.59313389999443,227.60922969999956,,228.0931512999814,,,,,,,,,,,,,,,,,,,,,,,,,,228.1139106999908,228.11719069999526,228.11719069999526,228.11719069999526,,,,231.10975370000233,None,,,231.1098277999845,232.90996489999816,f,231.12616990000242,231.12616990000242,1.7808441999950446,None,,,,,,,,,,00039,001,2026-01-23_17h02.47.129,MST_task,2024.2.0,60.0524858703198,2026-01-23 17h03.03.454905 +0530,
,Scenes\047a.jpg,24,0,25,,,,,,,j,1.2008440000063274,0.1681496000092011,None,,,,,,25,0,24,232.92587770000682,,,,,,,,,,,,,,,,,,,,,,,232.9100732000079,232.92587770000682,233.42697919998318,233.40978359998553,,,,,,,,,,,,,,,,,,,,,,,,,,233.42177970000193,233.42697919998318,233.42697919998318,233.42697919998318,,,,236.4259078000032,j,1.2008440000063274,0.1681496000092011,236.42599220000557,236.42600780000794,None,,,,,,,,,,,,,,00039,001,2026-01-23_17h02.47.129,MST_task,2024.2.0,60.0524858703198,2026-01-23 17h03.03.454905 +0530,
,Scenes\167a.jpg,25,0,26,,,,,,,f,1.6439083000004757,0.16792279999936,None,,,,,,26,0,25,236.442392500001,,,,,,,,,,,,,,,,,,,,,,,236.42612389998976,236.442392500001,236.94323370000347,236.92595569998957,,,,,,,,,,,,,,,,,,,,,,,,,,236.93870159998187,236.94323370000347,236.94323370000347,236.94323370000347,239.9427264999831,239.9427264999831,239.9427264999831,239.9265691000037,f,1.6439083000004757,0.16792279999936,239.9266445999965,239.92665849998593,None,,,,,,,,,,,,,,00039,001,2026-01-23_17h02.47.129,MST_task,2024.2.0,60.0524858703198,2026-01-23 17h03.03.454905 +0530,
,Scenes\179a.jpg,26,0,27,,,,,,,j,1.0961582000018097,0.16817769999033771,None,,,,,,27,0,26,239.9427264999831,,,,,,,,,,,,,,,,,,,,,,,239.92677349998849,239.9427264999831,240.44311940000625,240.426598799997,,,,,,,,,,,,,,,,,,,,,,,,,,240.43410179999773,240.44311940000625,240.44311940000625,240.44311940000625,243.44298999998136,243.44298999998136,243.44298999998136,243.42698309998377,j,1.0961582000018097,0.16817769999033771,243.42705840000417,243.42707249999512,None,,,,,,,,,,,,,,00039,001,2026-01-23_17h02.47.129,MST_task,2024.2.0,60.0524858703198,2026-01-23 17h03.03.454905 +0530,
,Scenes\120a.jpg,27,0,28,,,,,,,j,0.6842816999997012,0.15230539999902248,None,,,,,,28,0,27,243.44298999998136,,,,,,,,,,,,,,,,,,,,,,,243.4271535000007,243.44298999998136,243.94320300000254,243.9265263999987,,,,,,,,,,,,,,,,,,,,,,,,,,243.93794740000158,243.94320300000254,243.94320300000254,243.94320300000254,246.9424497,246.9424497,246.9424497,246.9266295999987,j,0.6842816999997012,0.15230539999902248,246.9266995000071,246.92671279999195,None,,,,,,,,,,,,,,00039,001,2026-01-23_17h02.47.129,MST_task,2024.2.0,60.0524858703198,2026-01-23 17h03.03.454905 +0530,
,Objects\109a.jpg,28,0,29,,,,,,,f,1.0238503000000492,0.16809799999464303,None,,,,,,29,0,28,246.9424497,,,,,,,,,,,,,,,,,,,,,,,246.926816399995,246.9424497,247.4433528999798,247.4262325000018,,,,,,,,,,,,,,,,,,,,,,,,,,247.44011589998263,247.4433528999798,247.4433528999798,247.4433528999798,250.44276799997897,250.44276799997897,250.44276799997897,250.42628300000797,f,1.0238503000000492,0.16809799999464303,250.4263556000078,250.42637050000485,None,,,,,,,,,,,,,,00039,001,2026-01-23_17h02.47.129,MST_task,2024.2.0,60.0524858703198,2026-01-23 17h03.03.454905 +0530,
,Objects\054a.jpg,29,0,30,,,,,,,f,1.0616434999974445,0.13517009999486618,None,,,,,,30,0,29,250.44276799997897,,,,,,,,,,,,,,,,,,,,,,,250.42647889998625,250.44276799997897,250.94269140000688,250.92612940000254,,,,,,,,,,,,,,,,,,,,,,,,,,250.9383242999902,250.94269140000688,250.94269140000688,250.94269140000688,253.94267369998852,253.94267369998852,253.94267369998852,253.92634129998623,f,1.0616434999974445,0.13517009999486618,253.92643359999056,253.92644779998227,None,,,,,,,,,,,,,,00039,001,2026-01-23_17h02.47.129,MST_task,2024.2.0,60.0524858703198,2026-01-23 17h03.03.454905 +0530,
,Objects\005a.jpg,30,0,31,,,,,,,j,0.7278939000098035,0.12879590000375174,None,,,,,,31,0,30,253.94267369998852,,,,,,,,,,,,,,,,,,,,,,,253.92655989999184,253.94267369998852,254.44329049999942,254.42638809999335,,,,,,,,,,,,,,,,,,,,,,,,,,254.429813499999,254.44329049999942,254.44329049999942,254.44329049999942,257.4429469000024,257.4429469000024,257.4429469000024,257.4269415999879,j,0.7278939000098035,0.12879590000375174,257.4270101999864,257.42702400000417,None,,,,,,,,,,,,,,00039,001,2026-01-23_17h02.47.129,MST_task,2024.2.0,60.0524858703198,2026-01-23 17h03.03.454905 +0530,
,Objects\046a.jpg,31,0,32,,,,,,,f,1.492242999986047,0.1361433000129182,None,,,,,,32,0,31,257.4429469000024,,,,,,,,,,,,,,,,,,,,,,,257.4271239999798,257.4429469000024,257.94332659998327,257.92726830000174,,,,,,,,,,,,,,,,,,,,,,,,,,257.9308933999855,257.94332659998327,257.94332659998327,257.94332659998327,260.9426724999794,260.9426724999794,260.9426724999794,260.9276925000013,f,1.492242999986047,0.1361433000129182,260.9277599999914,260.92777310000383,None,,,,,,,,,,,,,,00039,001,2026-01-23_17h02.47.129,MST_task,2024.2.0,60.0524858703198,2026-01-23 17h03.03.454905 +0530,
,Objects\150a.jpg,32,0,33,,,,,,,f,1.5192234000132885,0.1439886000007391,None,,,,,,33,0,32,260.9426724999794,,,,,,,,,,,,,,,,,,,,,,,260.9278500000073,260.9426724999794,261.44383810000727,261.42622039999696,,,,,,,,,,,,,,,,,,,,,,,,,,261.44106589999865,261.44383810000727,261.44383810000727,261.44383810000727,264.443050700007,264.443050700007,264.443050700007,264.4269847999967,f,1.5192234000132885,0.1439886000007391,264.4270588000072,264.427073800005,None,,,,,,,,,,,,,,00039,001,2026-01-23_17h02.47.129,MST_task,2024.2.0,60.0524858703198,2026-01-23 17h03.03.454905 +0530,
,Objects\075a.jpg,33,0,34,,,,,,,f,1.2128418999782298,0.127993800007971,None,,,,,,34,0,33,264.443050700007,,,,,,,,,,,,,,,,,,,,,,,264.42716239998117,264.443050700007,264.9429650999955,264.92627679998986,,,,,,,,,,,,,,,,,,,,,,,,,,264.9300483999832,264.9429650999955,264.9429650999955,264.9429650999955,267.94290229998296,267.94290229998296,267.94290229998296,267.9267708999978,f,1.2128418999782298,0.127993800007971,267.9268448999792,267.92686029998004,None,,,,,,,,,,,,,,00039,001,2026-01-23_17h02.47.129,MST_task,2024.2.0,60.0524858703198,2026-01-23 17h03.03.454905 +0530,
,Objects\086a.jpg,34,0,35,,,,,,,None,,,f,0.48021360000711866,None,,,,35,0,34,267.94290229998296,,,,,,,,,,,,,,,,,,,,,,,267.92696969999815,267.94290229998296,268.4428490999853,268.4261566000059,,,,,,,,,,,,,,,,,,,,,,,,,,268.4300321000046,268.4428490999853,268.4428490999853,268.4428490999853,271.4429104999872,271.4429104999872,271.4429104999872,271.4263629000052,None,,,271.42642899998464,271.92681269999593,f,271.4429104999872,271.4429104999872,0.48021360000711866,None,,,,,,,,,,00039,001,2026-01-23_17h02.47.129,MST_task,2024.2.0,60.0524858703198,2026-01-23 17h03.03.454905 +0530,
,Scenes\188a.jpg,35,0,36,,,,,,,j,0.7447039000107907,0.14460499997949228,None,,,,,,36,0,35,271.942403699999,,,,,,,,,,,,,,,,,,,,,,,271.92698160000145,271.942403699999,272.4429753999866,272.425966699986,,,,,,,,,,,,,,,,,,,,,,,,,,272.4344177999883,272.4429753999866,272.4429753999866,272.4429753999866,275.44386199998553,275.44386199998553,275.44386199998553,275.42705529998057,j,0.7447039000107907,0.14460499997949228,275.42712929999107,275.4271424000035,None,,,,,,,,,,,,,,00039,001,2026-01-23_17h02.47.129,MST_task,2024.2.0,60.0524858703198,2026-01-23 17h03.03.454905 +0530,
,Scenes\021a.jpg,36,0,37,,,,,,,j,1.5238163000030909,0.09602430000086315,None,,,,,,37,0,36,275.44386199998553,,,,,,,,,,,,,,,,,,,,,,,275.4272404999938,275.44386199998553,275.9431842000049,275.92668299999787,,,,,,,,,,,,,,,,,,,,,,,,,,275.93844519997947,275.9431842000049,275.9431842000049,275.9431842000049,278.9424514999846,278.9424514999846,278.9424514999846,278.92673889998696,j,1.5238163000030909,0.09602430000086315,278.92681189998984,278.9268259999808,None,,,,,,,,,,,,,,00039,001,2026-01-23_17h02.47.129,MST_task,2024.2.0,60.0524858703198,2026-01-23 17h03.03.454905 +0530,
,Scenes\063a.jpg,37,0,38,,,,,,,j,0.6159446999954525,0.10501209998619743,None,,,,,,38,0,37,278.9424514999846,,,,,,,,,,,,,,,,,,,,,,,278.9269032999873,278.9424514999846,279.44305959998746,279.42602509999415,,,,,,,,,,,,,,,,,,,,,,,,,,279.4368204000057,279.44305959998746,279.44305959998746,279.44305959998746,282.4426631999959,282.4426631999959,282.4426631999959,282.42660279999836,j,0.6159446999954525,0.10501209998619743,282.4266798000026,282.4266950000019,None,,,,,,,,,,,,,,00039,001,2026-01-23_17h02.47.129,MST_task,2024.2.0,60.0524858703198,2026-01-23 17h03.03.454905 +0530,
,Scenes\127a.jpg,38,0,39,,,,,,,j,0.8202250000031199,0.135168499982683,None,,,,,,39,0,38,282.4426631999959,,,,,,,,,,,,,,,,,,,,,,,282.4268073999847,282.4426631999959,282.94406169999274,282.92648490000283,,,,,,,,,,,,,,,,,,,,,,,,,,282.9360599000065,282.94406169999274,282.94406169999274,282.94406169999274,,,,285.9426693999849,j,0.8202250000031199,0.135168499982683,285.9427427999908,285.94275819999166,None,,,,,,,,,,,,,,00039,001,2026-01-23_17h02.47.129,MST_task,2024.2.0,60.0524858703198,2026-01-23 17h03.03.454905 +0530,
,Scenes\034a.jpg,39,0,40,,,,,,,f,0.8782828000257723,0.15162659998168238,None,,,,,,40,0,39,285.95943990000524,,,,,,,,,,,,,,,,,,,,,,,285.9428687999898,285.95943990000524,,286.4428934000025,,,,,,,,,,,,,,,,,,,,,,,,,,286.4588362000068,286.46165250000195,286.46165250000195,286.46165250000195,,,,289.44284589999006,f,0.8782828000257723,0.15162659998168238,289.4429442999826,289.44295999998576,None,,,,,,,,,,,,,,00039,001,2026-01-23_17h02.47.129,MST_task,2024.2.0,60.0524858703198,2026-01-23 17h03.03.454905 +0530,
,Scenes\094a.jpg,40,0,41,,,,,,,j,0.8268500000122003,0.15210279999882914,None,,,,,,41,0,40,289.45977029998903,,,,,,,,,,,,,,,,,,,,,,,289.4430852000078,289.45977029998903,289.9602445999917,289.94272979997913,,,,,,,,,,,,,,,,,,,,,,,,,,289.9563416999881,289.9602445999917,289.9602445999917,289.9602445999917,,,,292.9432680000027,j,0.8268500000122003,0.15210279999882914,292.9433449000062,292.9433602000063,None,,,,,,,,,,,,,,00039,001,2026-01-23_17h02.47.129,MST_task,2024.2.0,60.0524858703198,2026-01-23 17h03.03.454905 +0530,
,Scenes\055a.jpg,41,0,42,,,,,,,j,1.455559499998344,0.12800540000898764,None,,,,,,42,0,41,292.95986909998464,,,,,,,,,,,,,,,,,,,,,,,292.9434574999905,292.95986909998464,293.45968379999977,293.4430953999981,,,,,,,,,,,,,,,,,,,,,,,,,,293.4529373999976,293.45968379999977,293.45968379999977,293.45968379999977,296.4592728999851,296.4592728999851,296.4592728999851,296.4436311000027,j,1.455559499998344,0.12800540000898764,296.4437016999873,296.4437147999997,None,,,,,,,,,,,,,,00039,001,2026-01-23_17h02.47.129,MST_task,2024.2.0,60.0524858703198,2026-01-23 17h03.03.454905 +0530,
,Objects\126a.jpg,42,0,43,,,,,,,j,2.667653500015149,0.12767330001224764,None,,,,,,43,0,42,296.4592728999851,,,,,,,,,,,,,,,,,,,,,,,296.44379359998857,296.4592728999851,296.9601943999878,296.94296650000615,,,,,,,,,,,,,,,,,,,,,,,,,,296.9474687000038,296.9601943999878,296.9601943999878,296.9601943999878,299.95907559999614,299.95907559999614,299.95907559999614,299.943750299979,j,2.667653500015149,0.12767330001224764,299.94382990000304,299.9438442999963,None,,,,,,,,,,,,,,00039,001,2026-01-23_17h02.47.129,MST_task,2024.2.0,60.0524858703198,2026-01-23 17h03.03.454905 +0530,
,Objects\039a.jpg,43,0,44,,,,,,,j,1.335474300023634,0.1680859999905806,None,,,,,,44,0,43,299.95907559999614,,,,,,,,,,,,,,,,,,,,,,,299.9439254000026,299.95907559999614,300.45961009999155,300.44303379999474,,,,,,,,,,,,,,,,,,,,,,,,,,300.44713849999243,300.45961009999155,300.45961009999155,300.45961009999155,303.4595311000012,303.4595311000012,303.4595311000012,303.44429789998685,j,1.335474300023634,0.1680859999905806,303.44444639998255,303.44447379998746,None,,,,,,,,,,,,,,00039,001,2026-01-23_17h02.47.129,MST_task,2024.2.0,60.0524858703198,2026-01-23 17h03.03.454905 +0530,
,Objects\071a.jpg,44,0,45,,,,,,,f,1.5473515999910887,0.17604180000489578,None,,,,,,45,0,44,303.4595311000012,,,,,,,,,,,,,,,,,,,,,,,303.44463630000246,303.4595311000012,303.96027429998503,303.942868299986,,,,,,,,,,,,,,,,,,,,,,,,,,303.9466928000038,303.96027429998503,303.96027429998503,303.96027429998503,306.9595268999983,306.9595268999983,306.9595268999983,306.94355820000055,f,1.5473515999910887,0.17604180000489578,306.94364260000293,306.9436580000038,None,,,,,,,,,,,,,,00039,001,2026-01-23_17h02.47.129,MST_task,2024.2.0,60.0524858703198,2026-01-23 17h03.03.454905 +0530,
,Objects\028a.jpg,45,0,46,,,,,,,f,1.4559333999932278,0.13605239999014884,None,,,,,,46,0,45,306.9595268999983,,,,,,,,,,,,,,,,,,,,,,,306.94377270000405,306.9595268999983,307.4595221999916,307.4434798999864,,,,,,,,,,,,,,,,,,,,,,,,,,307.4468818999885,307.4595221999916,307.4595221999916,307.4595221999916,310.45957829998224,310.45957829998224,310.45957829998224,310.44372609999846,f,1.4559333999932278,0.13605239999014884,310.44380350000574,310.4438165999891,None,,,,,,,,,,,,,,00039,001,2026-01-23_17h02.47.129,MST_task,2024.2.0,60.0524858703198,2026-01-23 17h03.03.454905 +0530,
,Objects\173a.jpg,46,0,47,,,,,,,f,0.9642542999936268,0.13497360001201741,None,,,,,,47,0,46,310.45957829998224,,,,,,,,,,,,,,,,,,,,,,,310.4439437999972,310.45957829998224,310.959655499988,310.94304589999956,,,,,,,,,,,,,,,,,,,,,,,,,,310.9566886999819,310.959655499988,310.959655499988,310.959655499988,313.9593012999976,313.9593012999976,313.9593012999976,313.9438382999797,f,0.9642542999936268,0.13497360001201741,313.9439205999952,313.9439378999814,None,,,,,,,,,,,,,,00039,001,2026-01-23_17h02.47.129,MST_task,2024.2.0,60.0524858703198,2026-01-23 17h03.03.454905 +0530,
,Objects\064a.jpg,47,0,48,,,,,,,j,1.647165300004417,0.13698869998916052,None,,,,,,48,0,47,313.9593012999976,,,,,,,,,,,,,,,,,,,,,,,313.94404229999054,313.9593012999976,314.4605032999825,314.44408570000087,,,,,,,,,,,,,,,,,,,,,,,,,,314.4475807999843,314.4605032999825,314.4605032999825,314.4605032999825,317.4593707000022,317.4593707000022,317.4593707000022,317.4436522999895,j,1.647165300004417,0.13698869998916052,317.4437329999928,317.4437532000011,None,,,,,,,,,,,,,,00039,001,2026-01-23_17h02.47.129,MST_task,2024.2.0,60.0524858703198,2026-01-23 17h03.03.454905 +0530,
,Objects\115a.jpg,48,0,49,,,,,,,f,1.5565168000175618,0.14328769998974167,None,,,,,,49,0,48,317.4593707000022,,,,,,,,,,,,,,,,,,,,,,,317.4438767999818,317.4593707000022,317.95936099998653,317.94281569999293,,,,,,,,,,,,,,,,,,,,,,,,,,317.94632429999183,317.95936099998653,317.95936099998653,317.95936099998653,320.9591111000045,320.9591111000045,320.9591111000045,320.94355979998363,f,1.5565168000175618,0.14328769998974167,320.9436335999926,320.9436482999881,None,,,,,,,,,,,,,,00039,001,2026-01-23_17h02.47.129,MST_task,2024.2.0,60.0524858703198,2026-01-23 17h03.03.454905 +0530,
,Scenes\086a.jpg,49,0,50,,,,,,,j,0.7631020999979228,0.18400119998841546,None,,,,,,50,0,49,320.9591111000045,,,,,,,,,,,,,,,,,,,,,,,320.9437573000032,320.9591111000045,321.47213369997917,321.44341869998607,,,,,,,,,,,,,,,,,,,,,,,,,,321.46945589999086,321.47213369997917,321.47213369997917,321.47213369997917,,,,324.4439623999933,j,0.7631020999979228,0.18400119998841546,324.44405960000586,324.444076499989,None,,,,,,,,,,,,,,00039,001,2026-01-23_17h02.47.129,MST_task,2024.2.0,60.0524858703198,2026-01-23 17h03.03.454905 +0530,
,Scenes\076a.jpg,50,0,51,,,,,,,j,0.7137048000004143,0.15197430000989698,None,,,,,,51,0,50,324.45948510000017,,,,,,,,,,,,,,,,,,,,,,,324.44416959999944,324.45948510000017,324.96194379997905,324.9433882999874,,,,,,,,,,,,,,,,,,,,,,,,,,324.95897159999004,324.96194379997905,324.96194379997905,324.96194379997905,,,,327.9594427999982,j,0.7137048000004143,0.15197430000989698,327.9595180999895,327.9595328999858,None,,,,,,,,,,,,,,00039,001,2026-01-23_17h02.47.129,MST_task,2024.2.0,60.0524858703198,2026-01-23 17h03.03.454905 +0530,
,Scenes\100a.jpg,51,0,52,,,,,,,f,1.2710745999938808,0.12791300000390038,None,,,,,,52,0,51,327.97603659998276,,,,,,,,,,,,,,,,,,,,,,,327.95965869998327,327.97603659998276,,328.45976120000705,,,,,,,,,,,,,,,,,,,,,,,,,,328.472340599983,328.4768503999803,328.4768503999803,328.4768503999803,331.47589929998503,331.47589929998503,331.47589929998503,331.4599664999987,f,1.2710745999938808,0.12791300000390038,331.46003879999625,331.4600523999834,None,,,,,,,,,,,,,,00039,001,2026-01-23_17h02.47.129,MST_task,2024.2.0,60.0524858703198,2026-01-23 17h03.03.454905 +0530,
,Scenes\128a.jpg,52,0,53,,,,,,,j,0.8827798999845982,0.13608560001011938,None,,,,,,53,0,52,331.47589929998503,,,,,,,,,,,,,,,,,,,,,,,331.4601568999933,331.47589929998503,331.97660170000745,331.9597690999799,,,,,,,,,,,,,,,,,,,,,,,,,,331.97236449999036,331.97660170000745,331.97660170000745,331.97660170000745,334.9757565000036,334.9757565000036,334.9757565000036,334.96001839998644,j,0.8827798999845982,0.13608560001011938,334.96009879998746,334.9601147999929,None,,,,,,,,,,,,,,00039,001,2026-01-23_17h02.47.129,MST_task,2024.2.0,60.0524858703198,2026-01-23 17h03.03.454905 +0530,
,Scenes\162a.jpg,53,0,54,,,,,,,j,0.6224529000173789,0.12799199999426492,None,,,,,,54,0,53,334.9757565000036,,,,,,,,,,,,,,,,,,,,,,,334.96024499999476,334.9757565000036,335.477164299984,335.4593434999988,,,,,,,,,,,,,,,,,,,,,,,,,,335.46629919999395,335.477164299984,335.477164299984,335.477164299984,,,,338.4759689999919,j,0.6224529000173789,0.12799199999426492,338.4760498999967,338.47606539999833,None,,,,,,,,,,,,,,00039,001,2026-01-23_17h02.47.129,MST_task,2024.2.0,60.0524858703198,2026-01-23 17h03.03.454905 +0530,
,Scenes\157a.jpg,54,0,55,,,,,,,j,0.626221299986355,0.14355239999713376,None,,,,,,55,0,54,338.4925546000013,,,,,,,,,,,,,,,,,,,,,,,338.47618100000545,338.4925546000013,338.9934311999823,338.97634170000674,,,,,,,,,,,,,,,,,,,,,,,,,,338.98515979998047,338.9934311999823,338.9934311999823,338.9934311999823,,,,341.97625029998017,j,0.626221299986355,0.14355239999713376,341.9763212999969,341.9763358999917,None,,,,,,,,,,,,,,00039,001,2026-01-23_17h02.47.129,MST_task,2024.2.0,60.0524858703198,2026-01-23 17h03.03.454905 +0530,
,Scenes\054a.jpg,55,0,56,,,,,,,j,0.818891300004907,0.16796250001061708,None,,,,,,56,0,55,341.9926620000042,,,,,,,,,,,,,,,,,,,,,,,341.9764557000017,341.9926620000042,342.50481399998534,342.4762175999931,,,,,,,,,,,,,,,,,,,,,,,,,,342.5022488999821,342.50481399998534,342.50481399998534,342.50481399998534,,,,345.49283000000287,j,0.818891300004907,0.16796250001061708,345.49291099997936,345.49292759998934,None,,,,,,,,,,,,,,00039,001,2026-01-23_17h02.47.129,MST_task,2024.2.0,60.0524858703198,2026-01-23 17h03.03.454905 +0530,
,Objects\040a.jpg,56,0,57,,,,,,,f,0.7694919999921694,0.12814730001264252,None,,,,,,57,0,56,345.5102150999883,,,,,,,,,,,,,,,,,,,,,,,345.4930494999862,345.5102150999883,346.0098983999924,345.9933773999801,,,,,,,,,,,,,,,,,,,,,,,,,,345.9971519999963,346.0098983999924,346.0098983999924,346.0098983999924,349.0091145999904,349.0091145999904,349.0091145999904,348.9936333000078,f,0.7694919999921694,0.12814730001264252,348.9937088000006,348.99372319999384,None,,,,,,,,,,,,,,00039,001,2026-01-23_17h02.47.129,MST_task,2024.2.0,60.0524858703198,2026-01-23 17h03.03.454905 +0530,
,Objects\114a.jpg,57,0,58,,,,,,,f,1.5735424000013154,0.13594939999165945,None,,,,,,58,0,57,349.0091145999904,,,,,,,,,,,,,,,,,,,,,,,348.9938075999962,349.0091145999904,349.5099979999941,349.4927611000021,,,,,,,,,,,,,,,,,,,,,,,,,,349.49676939999335,349.5099979999941,349.5099979999941,349.5099979999941,352.5093309000076,352.5093309000076,352.5093309000076,352.4937040999939,f,1.5735424000013154,0.13594939999165945,352.493779499986,352.493794399983,None,,,,,,,,,,,,,,00039,001,2026-01-23_17h02.47.129,MST_task,2024.2.0,60.0524858703198,2026-01-23 17h03.03.454905 +0530,
,Objects\091a.jpg,58,0,59,,,,,,,None,,,f,1.0260196000162978,None,,,,59,0,58,352.5093309000076,,,,,,,,,,,,,,,,,,,,,,,352.4938772000023,352.5093309000076,353.0098147999961,352.99312470000586,,,,,,,,,,,,,,,,,,,,,,,,,,352.9967211000039,353.0098147999961,353.0098147999961,353.0098147999961,356.00948999999673,356.00948999999673,356.00948999999673,355.9935331000015,None,,,355.9935954999819,357.04351369998767,f,356.00948999999673,356.00948999999673,1.0260196000162978,None,,,,,,,,,,00039,001,2026-01-23_17h02.47.129,MST_task,2024.2.0,60.0524858703198,2026-01-23 17h03.03.454905 +0530,
,Objects\063a.jpg,59,0,60,,,,,,,f,1.027493300003698,0.1598631000088062,None,,,,,,60,0,59,357.0599225999904,,,,,,,,,,,,,,,,,,,,,,,357.0436595999927,357.0599225999904,357.560183900001,357.54292000000714,,,,,,,,,,,,,,,,,,,,,,,,,,357.5576807000034,357.560183900001,357.560183900001,357.560183900001,360.55986239999766,360.55986239999766,360.55986239999766,360.5434336999897,f,1.027493300003698,0.1598631000088062,360.543508200004,360.5435216999904,None,,,,,,,,,,,,,,00039,001,2026-01-23_17h02.47.129,MST_task,2024.2.0,60.0524858703198,2026-01-23 17h03.03.454905 +0530,
,Objects\010a.jpg,60,0,61,,,,,,,f,0.8150972999865189,0.168975100008538,None,,,,,,61,0,60,360.55986239999766,,,,,,,,,,,,,,,,,,,,,,,360.54361849999987,360.55986239999766,361.05977859999985,361.0426996999886,,,,,,,,,,,,,,,,,,,,,,,,,,361.0463005999918,361.05977859999985,361.05977859999985,361.05977859999985,364.05917759999284,364.05917759999284,364.05917759999284,364.0436561999959,f,0.8150972999865189,0.168975100008538,364.043734100007,364.0437480999972,None,,,,,,,,,,,,,,00039,001,2026-01-23_17h02.47.129,MST_task,2024.2.0,60.0524858703198,2026-01-23 17h03.03.454905 +0530,
,Objects\135a.jpg,61,0,62,,,,,,,f,0.7716606000030879,0.13602259999606758,None,,,,,,62,0,61,364.05917759999284,,,,,,,,,,,,,,,,,,,,,,,364.0438302999828,364.05917759999284,364.5596774999867,364.5427653999941,,,,,,,,,,,,,,,,,,,,,,,,,,364.54695069999434,364.5596774999867,364.5596774999867,364.5596774999867,367.55927460000385,367.55927460000385,367.55927460000385,367.54362630000105,f,0.7716606000030879,0.13602259999606758,367.54370209999615,367.5437166999909,None,,,,,,,,,,,,,,00039,001,2026-01-23_17h02.47.129,MST_task,2024.2.0,60.0524858703198,2026-01-23 17h03.03.454905 +0530,
,Objects\062a.jpg,62,0,63,,,,,,,f,0.9917152000125498,0.1290300999826286,None,,,,,,63,0,62,367.55927460000385,,,,,,,,,,,,,,,,,,,,,,,367.543829799979,367.55927460000385,368.0598483000067,368.04307650000555,,,,,,,,,,,,,,,,,,,,,,,,,,368.04665109998314,368.0598483000067,368.0598483000067,368.0598483000067,371.0591729999869,371.0591729999869,371.0591729999869,371.0433725999901,f,0.9917152000125498,0.1290300999826286,371.04345319999265,371.04346719998284,None,,,,,,,,,,,,,,00039,001,2026-01-23_17h02.47.129,MST_task,2024.2.0,60.0524858703198,2026-01-23 17h03.03.454905 +0530,
,Scenes\090a.jpg,63,0,64,,,,,,,j,1.5559977999946568,0.11999990002368577,None,,,,,,64,0,63,371.0591729999869,,,,,,,,,,,,,,,,,,,,,,,371.0435557999881,371.0591729999869,371.5596688000078,371.54297149999184,,,,,,,,,,,,,,,,,,,,,,,,,,371.5561221999815,371.5596688000078,371.5596688000078,371.5596688000078,374.5591126999934,374.5591126999934,374.5591126999934,374.5435668999853,j,1.5559977999946568,0.11999990002368577,374.5436369999952,374.5436512999877,None,,,,,,,,,,,,,,00039,001,2026-01-23_17h02.47.129,MST_task,2024.2.0,60.0524858703198,2026-01-23 17h03.03.454905 +0530,
,Scenes\168a.jpg,64,0,65,,,,,,,j,0.7832472000154667,0.1199901000072714,None,,,,,,65,0,64,374.5591126999934,,,,,,,,,,,,,,,,,,,,,,,374.54375310000614,374.5591126999934,375.05982279998716,375.0433991999889,,,,,,,,,,,,,,,,,,,,,,,,,,375.05116350000026,375.05982279998716,375.05982279998716,375.05982279998716,378.0592406000069,378.0592406000069,378.0592406000069,378.04361359999166,j,0.7832472000154667,0.1199901000072714,378.043683099997,378.0436977999925,None,,,,,,,,,,,,,,00039,001,2026-01-23_17h02.47.129,MST_task,2024.2.0,60.0524858703198,2026-01-23 17h03.03.454905 +0530,
,Scenes\187a.jpg,65,0,66,,,,,,,j,0.7954049999825656,0.11208200000692159,None,,,,,,66,0,65,378.0592406000069,,,,,,,,,,,,,,,,,,,,,,,378.04377659998136,378.0592406000069,378.5594987999939,378.5431443999987,,,,,,,,,,,,,,,,,,,,,,,,,,378.5543941000069,378.5594987999939,378.5594987999939,378.5594987999939,381.5595536000037,381.5595536000037,381.5595536000037,381.5438446000044,j,0.7954049999825656,0.11208200000692159,381.54391189999296,381.54392559998087,None,,,,,,,,,,,,,,00039,001,2026-01-23_17h02.47.129,MST_task,2024.2.0,60.0524858703198,2026-01-23 17h03.03.454905 +0530,
,Scenes\125a.jpg,66,0,67,,,,,,,j,0.5434189999941736,0.14396410001791082,None,,,,,,67,0,66,381.5595536000037,,,,,,,,,,,,,,,,,,,,,,,381.5440302999923,381.5595536000037,382.0683091999963,382.0428321999789,,,,,,,,,,,,,,,,,,,,,,,,,,382.0654825999809,382.0683091999963,382.0683091999963,382.0683091999963,,,,385.05953410000075,j,0.5434189999941736,0.14396410001791082,385.0596127999888,385.05962779998663,None,,,,,,,,,,,,,,00039,001,2026-01-23_17h02.47.129,MST_task,2024.2.0,60.0524858703198,2026-01-23 17h03.03.454905 +0530,
,Scenes\059a.jpg,67,0,68,,,,,,,j,0.6825734000012744,0.16797190002398565,None,,,,,,68,0,67,385.07594280000194,,,,,,,,,,,,,,,,,,,,,,,385.0597471999936,385.07594280000194,385.5843135000032,385.5599044999981,,,,,,,,,,,,,,,,,,,,,,,,,,385.5809949999966,385.5843135000032,385.5843135000032,385.5843135000032,,,,388.55978320000577,j,0.6825734000012744,0.16797190002398565,388.5598573999887,388.5598717999819,None,,,,,,,,,,,,,,00039,001,2026-01-23_17h02.47.129,MST_task,2024.2.0,60.0524858703198,2026-01-23 17h03.03.454905 +0530,
,Scenes\175a.jpg,68,0,69,,,,,,,j,1.1117609999782871,0.1108527000178583,None,,,,,,69,0,68,388.5755084999837,,,,,,,,,,,,,,,,,,,,,,,388.5599916999927,388.5755084999837,389.0764785000065,389.05972940000356,,,,,,,,,,,,,,,,,,,,,,,,,,389.0671599000052,389.0764785000065,389.0764785000065,389.0764785000065,392.07591169999796,392.07591169999796,392.07591169999796,392.06009630000335,j,1.1117609999782871,0.1108527000178583,392.06017189999693,392.06018609998864,None,,,,,,,,,,,,,,00039,001,2026-01-23_17h02.47.129,MST_task,2024.2.0,60.0524858703198,2026-01-23 17h03.03.454905 +0530,
,Scenes\005a.jpg,69,0,70,,,,,,,f,1.1711676000268199,0.17656939997687005,None,,,,,,70,0,69,392.07591169999796,,,,,,,,,,,,,,,,,,,,,,,392.0602694999834,392.07591169999796,392.57598059999873,392.5597419999831,,,,,,,,,,,,,,,,,,,,,,,,,,392.56882650000625,392.57598059999873,392.57598059999873,392.57598059999873,395.57576839998364,395.57576839998364,395.57576839998364,395.5595533000014,f,1.1711676000268199,0.17656939997687005,395.55962280000676,395.55963679999695,None,,,,,,,,,,,,,,00039,001,2026-01-23_17h02.47.129,MST_task,2024.2.0,60.0524858703198,2026-01-23 17h03.03.454905 +0530,
,Objects\001a.jpg,70,0,71,,,,,,,f,1.423097199993208,0.12799639999866486,None,,,,,,71,0,70,395.57576839998364,,,,,,,,,,,,,,,,,,,,,,,395.55971649999265,395.57576839998364,396.07638230000157,396.05958450000617,,,,,,,,,,,,,,,,,,,,,,,,,,396.0632773999823,396.07638230000157,396.07638230000157,396.07638230000157,,,,399.0598137000052,f,1.423097199993208,0.12799639999866486,399.05989289999707,399.05990870000096,None,,,,,,,,,,,,,,00039,001,2026-01-23_17h02.47.129,MST_task,2024.2.0,60.0524858703198,2026-01-23 17h03.03.454905 +0530,
,Objects\100a.jpg,71,0,72,,,,,,,f,1.4504312000062782,0.16103990000556223,None,,,,,,72,0,71,399.0756440999976,,,,,,,,,,,,,,,,,,,,,,,399.0600063999882,399.0756440999976,399.576533799991,399.5598192999896,,,,,,,,,,,,,,,,,,,,,,,,,,399.5636197999993,399.576533799991,399.576533799991,399.576533799991,402.5756727999833,402.5756727999833,402.5756727999833,402.5599339999899,f,1.4504312000062782,0.16103990000556223,402.56003079999937,402.56004479998956,None,,,,,,,,,,,,,,00039,001,2026-01-23_17h02.47.129,MST_task,2024.2.0,60.0524858703198,2026-01-23 17h03.03.454905 +0530,
,Objects\008a.jpg,72,0,73,,,,,,,j,1.2789510000147857,0.1920543999876827,None,,,,,,73,0,72,402.5756727999833,,,,,,,,,,,,,,,,,,,,,,,402.560135000007,402.5756727999833,403.0759868999885,403.0596829999995,,,,,,,,,,,,,,,,,,,,,,,,,,403.07121639998513,403.0759868999885,403.0759868999885,403.0759868999885,,,,406.0602208999917,j,1.2789510000147857,0.1920543999876827,406.0602974999929,406.0603136999998,None,,,,,,,,,,,,,,00039,001,2026-01-23_17h02.47.129,MST_task,2024.2.0,60.0524858703198,2026-01-23 17h03.03.454905 +0530,
,Objects\190a.jpg,73,0,74,,,,,,,None,,,f,0.02007110000704415,None,,,,74,0,73,406.07581209999626,,,,,,,,,,,,,,,,,,,,,,,406.06042749999324,406.07581209999626,406.57575669998187,406.5603145000059,,,,,,,,,,,,,,,,,,,,,,,,,,406.5638866999943,406.57575669998187,406.57575669998187,406.57575669998187,409.5757770999917,409.5757770999917,409.5757770999917,409.56085489998804,None,,,409.5609271999856,409.6110877000028,f,409.5757770999917,409.5757770999917,0.02007110000704415,None,,,,,,,,,,00039,001,2026-01-23_17h02.47.129,MST_task,2024.2.0,60.0524858703198,2026-01-23 17h03.03.454905 +0530,
,Objects\047a.jpg,74,0,75,,,,,,,f,0.8047509999887552,0.12796589999925345,None,,,,,,75,0,74,409.6257304000028,,,,,,,,,,,,,,,,,,,,,,,409.61119729999336,409.6257304000028,410.1267450999876,410.10964340000646,,,,,,,,,,,,,,,,,,,,,,,,,,410.1133244999801,410.1267450999876,410.1267450999876,410.1267450999876,413.12574419999146,413.12574419999146,413.12574419999146,413.1101687999908,f,0.8047509999887552,0.12796589999925345,413.11023359998944,413.11024809998344,None,,,,,,,,,,,,,,00039,001,2026-01-23_17h02.47.129,MST_task,2024.2.0,60.0524858703198,2026-01-23 17h03.03.454905 +0530,
,Objects\166a.jpg,75,0,76,,,,,,,None,,,f,0.34511249998467974,None,,,,76,0,75,413.12574419999146,,,,,,,,,,,,,,,,,,,,,,,413.1103480999882,413.12574419999146,413.6264459999802,413.61005950000254,,,,,,,,,,,,,,,,,,,,,,,,,,413.6140513999853,413.6264459999802,413.6264459999802,413.6264459999802,416.6262291999883,416.6262291999883,416.6262291999883,416.6102820999804,None,,,416.61034250000375,416.9765463999938,f,416.6262291999883,416.6262291999883,0.34511249998467974,None,,,,,,,,,,00039,001,2026-01-23_17h02.47.129,MST_task,2024.2.0,60.0524858703198,2026-01-23 17h03.03.454905 +0530,
,Objects\142a.jpg,76,0,77,,,,,,,f,2.070422899996629,0.13597080000909045,None,,,,,,77,0,76,416.99249790000613,,,,,,,,,,,,,,,,,,,,,,,416.9766936999804,416.99249790000613,417.49277989999973,417.47595669998555,,,,,,,,,,,,,,,,,,,,,,,,,,417.47968699998455,417.49277989999973,417.49277989999973,417.49277989999973,420.49245150000206,420.49245150000206,420.49245150000206,420.47645220000413,f,2.070422899996629,0.13597080000909045,420.4765238999971,420.47653929999797,None,,,,,,,,,,,,,,00039,001,2026-01-23_17h02.47.129,MST_task,2024.2.0,60.0524858703198,2026-01-23 17h03.03.454905 +0530,
,Scenes\051a.jpg,77,0,78,,,,,,,j,1.010623599984683,0.13598330001696013,None,,,,,,78,0,77,420.49245150000206,,,,,,,,,,,,,,,,,,,,,,,420.4766455999925,420.49245150000206,420.99312060000375,420.97591629999806,,,,,,,,,,,,,,,,,,,,,,,,,,420.98625889999676,420.99312060000375,420.99312060000375,420.99312060000375,423.99256839999,423.99256839999,423.99256839999,423.97651149999,j,1.010623599984683,0.13598330001696013,423.97657999998773,423.97659259999637,None,,,,,,,,,,,,,,00039,001,2026-01-23_17h02.47.129,MST_task,2024.2.0,60.0524858703198,2026-01-23 17h03.03.454905 +0530,
,Scenes\165a.jpg,78,0,79,,,,,,,j,0.7255086000077426,0.11211449999245815,None,,,,,,79,0,78,423.99256839999,,,,,,,,,,,,,,,,,,,,,,,423.9766920999973,423.99256839999,424.49385539998184,424.47615539998515,,,,,,,,,,,,,,,,,,,,,,,,,,424.49029610000434,424.49385539998184,424.49385539998184,424.49385539998184,427.49252450000495,427.49252450000495,427.49252450000495,427.4767758999951,j,0.7255086000077426,0.11211449999245815,427.47685829998227,427.47687179999775,None,,,,,,,,,,,,,,00039,001,2026-01-23_17h02.47.129,MST_task,2024.2.0,60.0524858703198,2026-01-23 17h03.03.454905 +0530,
,Scenes\112a.jpg,79,0,80,,,,,,,j,0.5624771000002511,0.18310020002536476,None,,,,,,80,0,79,427.49252450000495,,,,,,,,,,,,,,,,,,,,,,,427.4769880999811,427.49252450000495,428.0020108000026,427.97595490000094,,,,,,,,,,,,,,,,,,,,,,,,,,427.9988003000035,428.0020108000026,428.0020108000026,428.0020108000026,,,,430.992582100007,j,0.5624771000002511,0.18310020002536476,430.992677799979,430.99269469999126,None,,,,,,,,,,,,,,00039,001,2026-01-23_17h02.47.129,MST_task,2024.2.0,60.0524858703198,2026-01-23 17h03.03.454905 +0530,
,Scenes\092a.jpg,80,0,81,,,,,,,j,2.0325043999764603,0.12899180001113564,None,,,,,,81,0,80,431.0095539999893,,,,,,,,,,,,,,,,,,,,,,,430.9928003999812,431.0095539999893,431.5145546999993,431.4929792000039,,,,,,,,,,,,,,,,,,,,,,,,,,431.511917900003,431.5145546999993,431.5145546999993,431.5145546999993,,,,434.49287200000254,j,2.0325043999764603,0.12899180001113564,434.49295939999865,434.49297619998106,None,,,,,,,,,,,,,,00039,001,2026-01-23_17h02.47.129,MST_task,2024.2.0,60.0524858703198,2026-01-23 17h03.03.454905 +0530,
,Scenes\015a.jpg,81,0,82,,,,,,,j,0.7287141999986488,0.11178800000925548,None,,,,,,82,0,81,434.50934170000255,,,,,,,,,,,,,,,,,,,,,,,434.4930785000033,434.50934170000255,,434.9931355000008,,,,,,,,,,,,,,,,,,,,,,,,,,435.01564689999213,435.01843719999306,435.01843719999306,435.01843719999306,,,,438.01009719999274,j,0.7287141999986488,0.11178800000925548,438.010169199988,438.01018929999555,None,,,,,,,,,,,,,,00039,001,2026-01-23_17h02.47.129,MST_task,2024.2.0,60.0524858703198,2026-01-23 17h03.03.454905 +0530,
,Scenes\068a.jpg,82,0,83,,,,,,,j,0.7247840999916662,0.13602360000368208,None,,,,,,83,0,82,438.0257638999901,,,,,,,,,,,,,,,,,,,,,,,438.01030569997965,438.0257638999901,438.526491800003,438.50974919999135,,,,,,,,,,,,,,,,,,,,,,,,,,438.52122059999965,438.526491800003,438.526491800003,438.526491800003,441.52558119999594,441.52558119999594,441.52558119999594,441.50995179999154,j,0.7247840999916662,0.13602360000368208,441.51001899997937,441.5100328999979,None,,,,,,,,,,,,,,00039,001,2026-01-23_17h02.47.129,MST_task,2024.2.0,60.0524858703198,2026-01-23 17h03.03.454905 +0530,
,Scenes\190a.jpg,83,0,84,,,,,,,j,1.2165875999780837,0.13647180001134984,None,,,,,,84,0,83,441.52558119999594,,,,,,,,,,,,,,,,,,,,,,,441.5101345999865,441.52558119999594,442.0344597999938,442.0100972999935,,,,,,,,,,,,,,,,,,,,,,,,,,442.03153499998734,442.0344597999938,442.0344597999938,442.0344597999938,,,,445.0259616999829,j,1.2165875999780837,0.13647180001134984,445.02602719998686,445.0260420999839,None,,,,,,,,,,,,,,00039,001,2026-01-23_17h02.47.129,MST_task,2024.2.0,60.0524858703198,2026-01-23 17h03.03.454905 +0530,
,Objects\156a.jpg,84,0,85,,,,,,,None,,,f,1.2295510999974795,None,,,,85,0,84,445.0429918000009,,,,,,,,,,,,,,,,,,,,,,,445.02613300000667,445.0429918000009,445.54336939999484,445.52637439998216,,,,,,,,,,,,,,,,,,,,,,,,,,445.5395651999861,445.54336939999484,445.54336939999484,445.54336939999484,448.5423857999849,448.5423857999849,448.5423857999849,448.5264876000001,None,,,448.52655740000773,449.776709800004,f,448.5423857999849,448.5423857999849,1.2295510999974795,None,,,,,,,,,,00039,001,2026-01-23_17h02.47.129,MST_task,2024.2.0,60.0524858703198,2026-01-23 17h03.03.454905 +0530,
,Objects\121a.jpg,85,0,86,,,,,,,j,2.126441500004148,0.13711119999061339,None,,,,,,86,0,85,449.79319530000794,,,,,,,,,,,,,,,,,,,,,,,449.77681889999076,449.79319530000794,450.2926327000023,450.2760108000075,,,,,,,,,,,,,,,,,,,,,,,,,,450.2796592999948,450.2926327000023,450.2926327000023,450.2926327000023,453.29253549998975,453.29253549998975,453.29253549998975,453.2762048000004,j,2.126441500004148,0.13711119999061339,453.27627249999205,453.2762863999815,None,,,,,,,,,,,,,,00039,001,2026-01-23_17h02.47.129,MST_task,2024.2.0,60.0524858703198,2026-01-23 17h03.03.454905 +0530,
,Objects\029a.jpg,86,0,87,,,,,,,f,1.1456507999973837,0.12806720001390204,None,,,,,,87,0,86,453.29253549998975,,,,,,,,,,,,,,,,,,,,,,,453.2763612999988,453.29253549998975,453.793380099989,453.7761691999913,,,,,,,,,,,,,,,,,,,,,,,,,,453.77969029999804,453.793380099989,453.793380099989,453.793380099989,456.7924917000055,456.7924917000055,456.7924917000055,456.7764759999991,f,1.1456507999973837,0.12806720001390204,456.77653979999013,456.7765531000041,None,,,,,,,,,,,,,,00039,001,2026-01-23_17h02.47.129,MST_task,2024.2.0,60.0524858703198,2026-01-23 17h03.03.454905 +0530,
,Objects\059a.jpg,87,0,88,,,,,,,f,0.7509232999873348,0.13500939999357797,None,,,,,,88,0,87,456.7924917000055,,,,,,,,,,,,,,,,,,,,,,,456.7766546999919,456.7924917000055,457.293399599992,457.2762446999841,,,,,,,,,,,,,,,,,,,,,,,,,,457.2892995000002,457.293399599992,457.293399599992,457.293399599992,460.29244990000734,460.29244990000734,460.29244990000734,460.27644640000653,f,0.7509232999873348,0.13500939999357797,460.2765187000041,460.27653380000265,None,,,,,,,,,,,,,,00039,001,2026-01-23_17h02.47.129,MST_task,2024.2.0,60.0524858703198,2026-01-23 17h03.03.454905 +0530,
,Objects\004a.jpg,88,0,89,,,,,,,None,,,f,0.1948481999861542,None,,,,89,0,88,460.29244990000734,,,,,,,,,,,,,,,,,,,,,,,460.27664039999945,460.29244990000734,460.79256499998155,460.7761067999818,,,,,,,,,,,,,,,,,,,,,,,,,,460.7795269000053,460.79256499998155,460.79256499998155,460.79256499998155,463.7929392000078,463.7929392000078,463.7929392000078,463.7766192999843,None,,,463.77668539999286,463.9932785999845,f,463.7929392000078,463.7929392000078,0.1948481999861542,None,,,,,,,,,,00039,001,2026-01-23_17h02.47.129,MST_task,2024.2.0,60.0524858703198,2026-01-23 17h03.03.454905 +0530,
,Objects\106a.jpg,89,0,90,,,,,,,f,1.6940907000098377,0.1361375999986194,None,,,,,,90,0,89,464.0094775999896,,,,,,,,,,,,,,,,,,,,,,,463.99337409998407,464.0094775999896,464.50954509997973,464.49286699999357,,,,,,,,,,,,,,,,,,,,,,,,,,464.4962828999851,464.50954509997973,464.50954509997973,464.50954509997973,467.50913960000616,467.50913960000616,467.50913960000616,467.4938273000007,f,1.6940907000098377,0.1361375999986194,467.49390139998286,467.49391619997914,None,,,,,,,,,,,,,,00039,001,2026-01-23_17h02.47.129,MST_task,2024.2.0,60.0524858703198,2026-01-23 17h03.03.454905 +0530,
,Objects\125a.jpg,90,0,91,,,,,,,f,2.769509999983711,0.15237789999810047,None,,,,,,91,0,90,467.50913960000616,,,,,,,,,,,,,,,,,,,,,,,467.4940499999793,467.50913960000616,468.0100442999974,467.99355519999517,,,,,,,,,,,,,,,,,,,,,,,,,,467.9973311999929,468.0100442999974,468.0100442999974,468.0100442999974,471.0091943999869,471.0091943999869,471.0091943999869,470.99345249999897,f,2.769509999983711,0.15237789999810047,470.99352419999195,470.99353770000744,None,,,,,,,,,,,,,,00039,001,2026-01-23_17h02.47.129,MST_task,2024.2.0,60.0524858703198,2026-01-23 17h03.03.454905 +0530,
,Scenes\144a.jpg,91,0,92,,,,,,,j,0.9822961000027135,0.17610539999441244,None,,,,,,92,0,91,471.0091943999869,,,,,,,,,,,,,,,,,,,,,,,470.99363799998537,471.0091943999869,471.5095816999965,471.49297829999705,,,,,,,,,,,,,,,,,,,,,,,,,,471.5037506999797,471.5095816999965,471.5095816999965,471.5095816999965,474.5090632000065,474.5090632000065,474.5090632000065,474.49312450000434,j,0.9822961000027135,0.17610539999441244,474.493192199996,474.493207099993,None,,,,,,,,,,,,,,00039,001,2026-01-23_17h02.47.129,MST_task,2024.2.0,60.0524858703198,2026-01-23 17h03.03.454905 +0530,
,Scenes\097a.jpg,92,0,93,,,,,,,f,1.6585713000094984,0.14297680000890978,None,,,,,,93,0,92,474.5090632000065,,,,,,,,,,,,,,,,,,,,,,,474.4933151000005,474.5090632000065,475.00960349998786,474.9929701999936,,,,,,,,,,,,,,,,,,,,,,,,,,474.9992265999899,475.00960349998786,475.00960349998786,475.00960349998786,478.00930599999265,478.00930599999265,478.00930599999265,477.99312649999047,f,1.6585713000094984,0.14297680000890978,477.99319740000647,477.99321139999665,None,,,,,,,,,,,,,,00039,001,2026-01-23_17h02.47.129,MST_task,2024.2.0,60.0524858703198,2026-01-23 17h03.03.454905 +0530,
,Scenes\141a.jpg,93,0,94,,,,,,,j,0.8454428000259213,0.16789699997752905,None,,,,,,94,0,93,478.00930599999265,,,,,,,,,,,,,,,,,,,,,,,477.9933225999994,478.00930599999265,478.5100184000039,478.49304189998657,,,,,,,,,,,,,,,,,,,,,,,,,,478.5025978999911,478.5100184000039,478.5100184000039,478.5100184000039,481.5094921999844,481.5094921999844,481.5094921999844,481.49371439998504,j,0.8454428000259213,0.16789699997752905,481.4937873999879,481.4938032999926,None,,,,,,,,,,,,,,00039,001,2026-01-23_17h02.47.129,MST_task,2024.2.0,60.0524858703198,2026-01-23 17h03.03.454905 +0530,
,Scenes\177a.jpg,94,0,95,,,,,,,j,1.0332990000024438,0.1439356999762822,None,,,,,,95,0,94,481.5094921999844,,,,,,,,,,,,,,,,,,,,,,,481.49392079998506,481.5094921999844,482.0102271999931,481.9931181999855,,,,,,,,,,,,,,,,,,,,,,,,,,482.00207409998984,482.0102271999931,482.0102271999931,482.0102271999931,485.00914839998586,485.00914839998586,485.00914839998586,484.99364430000423,j,1.0332990000024438,0.1439356999762822,484.99371489998884,484.99372889997903,None,,,,,,,,,,,,,,00039,001,2026-01-23_17h02.47.129,MST_task,2024.2.0,60.0524858703198,2026-01-23 17h03.03.454905 +0530,
,Scenes\039a.jpg,95,0,96,,,,,,,j,1.445538400002988,0.13638509999145754,None,,,,,,96,0,95,485.00914839998586,,,,,,,,,,,,,,,,,,,,,,,484.993819299998,485.00914839998586,485.50972199998796,485.4929990999808,,,,,,,,,,,,,,,,,,,,,,,,,,485.4999467000016,485.50972199998796,485.50972199998796,485.50972199998796,488.50924959999975,488.50924959999975,488.50924959999975,488.49327010000707,j,1.445538400002988,0.13638509999145754,488.49333919998026,488.49335909998626,None,,,,,,,,,,,,,,00039,001,2026-01-23_17h02.47.129,MST_task,2024.2.0,60.0524858703198,2026-01-23 17h03.03.454905 +0530,
,Scenes\087a.jpg,96,0,97,,,,,,,j,0.7562070999993011,0.15989459998672828,None,,,,,,97,0,96,488.50924959999975,,,,,,,,,,,,,,,,,,,,,,,488.49346599998535,488.50924959999975,489.01487509999424,488.9933390999795,,,,,,,,,,,,,,,,,,,,,,,,,,489.0115831999865,489.01487509999424,489.01487509999424,489.01487509999424,,,,492.0097199000011,j,0.7562070999993011,0.15989459998672828,492.00980090000667,492.0098175999883,None,,,,,,,,,,,,,,00039,001,2026-01-23_17h02.47.129,MST_task,2024.2.0,60.0524858703198,2026-01-23 17h03.03.454905 +0530,
,Scenes\089a.jpg,97,0,98,,,,,,,j,1.1621391999942716,0.13589370000408962,None,,,,,,98,0,97,492.0258188000007,,,,,,,,,,,,,,,,,,,,,,,492.00991249998333,492.0258188000007,492.5372676999832,492.5094954999804,,,,,,,,,,,,,,,,,,,,,,,,,,492.5338155000063,492.5372676999832,492.5372676999832,492.5372676999832,,,,495.52568550000433,j,1.1621391999942716,0.13589370000408962,495.52575430000434,495.52577000000747,None,,,,,,,,,,,,,,00039,001,2026-01-23_17h02.47.129,MST_task,2024.2.0,60.0524858703198,2026-01-23 17h03.03.454905 +0530,
,Objects\110a.jpg,98,0,99,,,,,,,j,0.6963425000139978,0.13607069998397492,None,,,,,,99,0,98,495.542586399999,,,,,,,,,,,,,,,,,,,,,,,495.52586009999504,495.542586399999,,496.0258845000062,,,,,,,,,,,,,,,,,,,,,,,,,,496.0301640999969,496.0431208999944,496.0431208999944,496.0431208999944,,,,499.02589089999674,j,0.6963425000139978,0.13607069998397492,499.0259817999904,499.025997299992,None,,,,,,,,,,,,,,00039,001,2026-01-23_17h02.47.129,MST_task,2024.2.0,60.0524858703198,2026-01-23 17h03.03.454905 +0530,
,Objects\129a.jpg,99,0,100,,,,,,,None,,,f,0.420990399987204,None,,,,100,0,99,499.0426608999842,,,,,,,,,,,,,,,,,,,,,,,499.0260893999948,499.0426608999842,,499.5262051000027,,,,,,,,,,,,,,,,,,,,,,,,,,499.52999059998547,499.5429409999924,499.5429409999924,499.5429409999924,,,,502.52638659998775,None,,,502.52644950000104,502.97683999998844,f,502.54243000000133,502.54243000000133,0.420990399987204,None,,,,,,,,,,00039,001,2026-01-23_17h02.47.129,MST_task,2024.2.0,60.0524858703198,2026-01-23 17h03.03.454905 +0530,
,Objects\188a.jpg,100,0,101,,,,,,,f,0.9903897999902256,0.13598390002152883,None,,,,,,101,0,100,502.99283699999796,,,,,,,,,,,,,,,,,,,,,,,502.9770012999943,502.99283699999796,503.49251700000605,503.47632669997984,,,,,,,,,,,,,,,,,,,,,,,,,,503.48896699998295,503.49251700000605,503.49251700000605,503.49251700000605,506.49289319998934,506.49289319998934,506.49289319998934,506.47684389998903,f,0.9903897999902256,0.13598390002152883,506.4769158999843,506.47695359998033,None,,,,,,,,,,,,,,00039,001,2026-01-23_17h02.47.129,MST_task,2024.2.0,60.0524858703198,2026-01-23 17h03.03.454905 +0530,
,Objects\065a.jpg,101,0,102,,,,,,,None,,,f,0.24244439997710288,None,,,,102,0,101,506.49289319998934,,,,,,,,,,,,,,,,,,,,,,,506.4770690999867,506.49289319998934,506.99252030000207,506.97650669998256,,,,,,,,,,,,,,,,,,,,,,,,,,506.9800186000066,506.99252030000207,506.99252030000207,506.99252030000207,509.9924500999914,509.9924500999914,509.9924500999914,509.9764170999988,None,,,509.9764843999874,510.2430992999871,f,509.9924500999914,509.9924500999914,0.24244439997710288,None,,,,,,,,,,00039,001,2026-01-23_17h02.47.129,MST_task,2024.2.0,60.0524858703198,2026-01-23 17h03.03.454905 +0530,
,Objects\080a.jpg,102,0,103,,,,,,,j,0.8994376999908127,0.1921660000225529,None,,,,,,103,0,102,510.2594972999941,,,,,,,,,,,,,,,,,,,,,,,510.24325100000715,510.2594972999941,510.75975409999955,510.74275989999296,,,,,,,,,,,,,,,,,,,,,,,,,,510.7464219999965,510.75975409999955,510.75975409999955,510.75975409999955,513.7591004999995,513.7591004999995,513.7591004999995,513.7438046000025,j,0.8994376999908127,0.1921660000225529,513.743933699996,513.744002899999,None,,,,,,,,,,,,,,00039,001,2026-01-23_17h02.47.129,MST_task,2024.2.0,60.0524858703198,2026-01-23 17h03.03.454905 +0530,
,Objects\055a.jpg,103,0,104,,,,,,,j,1.6878989999822807,0.13627690001158044,None,,,,,,104,0,103,513.7591004999995,,,,,,,,,,,,,,,,,,,,,,,513.744145899982,513.7591004999995,514.2595412999799,514.242817899998,,,,,,,,,,,,,,,,,,,,,,,,,,514.2540886999923,514.2595412999799,514.2595412999799,514.2595412999799,517.2589417999843,517.2589417999843,517.2589417999843,517.2431729999953,j,1.6878989999822807,0.13627690001158044,517.2432430000044,517.2432569999946,None,,,,,,,,,,,,,,00039,001,2026-01-23_17h02.47.129,MST_task,2024.2.0,60.0524858703198,2026-01-23 17h03.03.454905 +0530,
,Objects\042a.jpg,104,0,105,,,,,,,f,1.348019299999578,0.1370020000031218,None,,,,,,105,0,104,517.2589417999843,,,,,,,,,,,,,,,,,,,,,,,517.2433361999865,517.2589417999843,517.7594273999857,517.7427855999849,,,,,,,,,,,,,,,,,,,,,,,,,,517.746996300004,517.7594273999857,517.7594273999857,517.7594273999857,520.7590272999951,520.7590272999951,520.7590272999951,520.7430995999894,f,1.348019299999578,0.1370020000031218,520.7431686999917,520.7431824999803,None,,,,,,,,,,,,,,00039,001,2026-01-23_17h02.47.129,MST_task,2024.2.0,60.0524858703198,2026-01-23 17h03.03.454905 +0530,
,Scenes\073a.jpg,105,0,106,,,,,,,j,0.9190955999947619,0.12783840001793578,None,,,,,,106,0,105,520.7590272999951,,,,,,,,,,,,,,,,,,,,,,,520.7432625999791,520.7590272999951,521.2599879000045,521.2427441999898,,,,,,,,,,,,,,,,,,,,,,,,,,521.2553784000047,521.2599879000045,521.2599879000045,521.2599879000045,524.2592645999976,524.2592645999976,524.2592645999976,524.2433709999896,j,0.9190955999947619,0.12783840001793578,524.2434414000018,524.2434550999897,None,,,,,,,,,,,,,,00039,001,2026-01-23_17h02.47.129,MST_task,2024.2.0,60.0524858703198,2026-01-23 17h03.03.454905 +0530,
,Scenes\079a.jpg,106,0,107,,,,,,,j,0.8036525000061374,0.13617849998991005,None,,,,,,107,0,106,524.2592645999976,,,,,,,,,,,,,,,,,,,,,,,524.243555699999,524.2592645999976,524.7598311000038,524.7427897999878,,,,,,,,,,,,,,,,,,,,,,,,,,524.7546174000017,524.7598311000038,524.7598311000038,524.7598311000038,527.7593723000027,527.7593723000027,527.7593723000027,527.7430536999891,j,0.8036525000061374,0.13617849998991005,527.7431228999922,527.7431364999793,None,,,,,,,,,,,,,,00039,001,2026-01-23_17h02.47.129,MST_task,2024.2.0,60.0524858703198,2026-01-23 17h03.03.454905 +0530,
,Scenes\119a.jpg,107,0,108,,,,,,,j,0.6723608000029344,0.1507899999851361,None,,,,,,108,0,107,527.7593723000027,,,,,,,,,,,,,,,,,,,,,,,527.7432411999907,527.7593723000027,528.259702099982,528.2426662000071,,,,,,,,,,,,,,,,,,,,,,,,,,528.2542047000024,528.259702099982,528.259702099982,528.259702099982,531.2591966000036,531.2591966000036,531.2591966000036,531.2435723999806,j,0.6723608000029344,0.1507899999851361,531.2436462999904,531.2436606999836,None,,,,,,,,,,,,,,00039,001,2026-01-23_17h02.47.129,MST_task,2024.2.0,60.0524858703198,2026-01-23 17h03.03.454905 +0530,
,Scenes\132a.jpg,108,0,109,,,,,,,j,0.8674840000167023,0.15218209999147803,None,,,,,,109,0,108,531.2591966000036,,,,,,,,,,,,,,,,,,,,,,,531.243765399995,531.2591966000036,531.7598121000046,531.7428712999972,,,,,,,,,,,,,,,,,,,,,,,,,,531.7520786999958,531.7598121000046,531.7598121000046,531.7598121000046,534.7591665999789,534.7591665999789,534.7591665999789,534.7430938000034,j,0.8674840000167023,0.15218209999147803,534.743158199999,534.7431711999816,None,,,,,,,,,,,,,,00039,001,2026-01-23_17h02.47.129,MST_task,2024.2.0,60.0524858703198,2026-01-23 17h03.03.454905 +0530,
,Scenes\178a.jpg,109,0,110,,,,,,,j,0.7517189999925904,0.1279895000043325,None,,,,,,110,0,109,534.7591665999789,,,,,,,,,,,,,,,,,,,,,,,534.7432479999843,534.7591665999789,535.2596952999884,535.2426355000061,,,,,,,,,,,,,,,,,,,,,,,,,,535.2524292999879,535.2596952999884,535.2596952999884,535.2596952999884,538.2592568999971,538.2592568999971,538.2592568999971,538.2434904999973,j,0.7517189999925904,0.1279895000043325,538.2435755000042,538.2435897999967,None,,,,,,,,,,,,,,00039,001,2026-01-23_17h02.47.129,MST_task,2024.2.0,60.0524858703198,2026-01-23 17h03.03.454905 +0530,
,Scenes\093a.jpg,110,0,111,,,,,,,f,0.8912355000211392,0.1289198999875225,None,,,,,,111,0,110,538.2592568999971,,,,,,,,,,,,,,,,,,,,,,,538.2436738999968,538.2592568999971,538.7595997999888,538.7427286999882,,,,,,,,,,,,,,,,,,,,,,,,,,538.7537811000075,538.7595997999888,538.7595997999888,538.7595997999888,541.7589539999899,541.7589539999899,541.7589539999899,541.7432021999848,f,0.8912355000211392,0.1289198999875225,541.7432738000061,541.7432881999994,None,,,,,,,,,,,,,,00039,001,2026-01-23_17h02.47.129,MST_task,2024.2.0,60.0524858703198,2026-01-23 17h03.03.454905 +0530,
,Scenes\169a.jpg,111,0,112,,,,,,,j,0.9556859000003897,0.15207870001904666,None,,,,,,112,0,111,541.7589539999899,,,,,,,,,,,,,,,,,,,,,,,541.7433932999847,541.7589539999899,542.2634972999804,542.2432159000018,,,,,,,,,,,,,,,,,,,,,,,,,,542.2605311000079,542.2634972999804,542.2634972999804,542.2634972999804,,,,545.2593652000069,j,0.9556859000003897,0.15207870001904666,545.2594536999823,545.2594692999846,None,,,,,,,,,,,,,,00039,001,2026-01-23_17h02.47.129,MST_task,2024.2.0,60.0524858703198,2026-01-23 17h03.03.454905 +0530,
,Objects\170a.jpg,112,0,113,,,,,,,f,2.282599400001345,0.1759093999862671,None,,,,,,113,0,112,545.2765076000069,,,,,,,,,,,,,,,,,,,,,,,545.2595568999823,545.2765076000069,545.7766752000025,545.7592908999941,,,,,,,,,,,,,,,,,,,,,,,,,,545.7706876999873,545.7766752000025,545.7766752000025,545.7766752000025,548.7755880999903,548.7755880999903,548.7755880999903,548.7598164999799,f,2.282599400001345,0.1759093999862671,548.7598873999959,548.7599021999922,None,,,,,,,,,,,,,,00039,001,2026-01-23_17h02.47.129,MST_task,2024.2.0,60.0524858703198,2026-01-23 17h03.03.454905 +0530,
,Objects\067a.jpg,113,0,114,,,,,,,f,1.3516885999997612,0.1440981999912765,None,,,,,,114,0,113,548.7755880999903,,,,,,,,,,,,,,,,,,,,,,,548.7599841000047,548.7755880999903,549.2760701999941,549.2593527999998,,,,,,,,,,,,,,,,,,,,,,,,,,549.2628538999998,549.2760701999941,549.2760701999941,549.2760701999941,552.2759882999817,552.2759882999817,552.2759882999817,552.2599183999992,f,1.3516885999997612,0.1440981999912765,552.2599928999844,552.2600063999998,None,,,,,,,,,,,,,,00039,001,2026-01-23_17h02.47.129,MST_task,2024.2.0,60.0524858703198,2026-01-23 17h03.03.454905 +0530,
,Objects\068a.jpg,114,0,115,,,,,,,j,1.155018999997992,0.16797879998921417,None,,,,,,115,0,114,552.2759882999817,,,,,,,,,,,,,,,,,,,,,,,552.2600831000018,552.2759882999817,552.7758719999983,552.759221699991,,,,,,,,,,,,,,,,,,,,,,,,,,552.7625281999935,552.7758719999983,552.7758719999983,552.7758719999983,555.7756629000069,555.7756629000069,555.7756629000069,555.7600903999992,j,1.155018999997992,0.16797879998921417,555.7601613999868,555.760182900005,None,,,,,,,,,,,,,,00039,001,2026-01-23_17h02.47.129,MST_task,2024.2.0,60.0524858703198,2026-01-23 17h03.03.454905 +0530,
,Objects\009a.jpg,115,0,116,,,,,,,f,1.031072400015546,0.1841837999818381,None,,,,,,116,0,115,555.7756629000069,,,,,,,,,,,,,,,,,,,,,,,555.7602630000038,555.7756629000069,556.2762507000007,556.2593302000023,,,,,,,,,,,,,,,,,,,,,,,,,,556.2628502000007,556.2762507000007,556.2762507000007,556.2762507000007,559.2758098999911,559.2758098999911,559.2758098999911,559.2598716999928,f,1.031072400015546,0.1841837999818381,559.2599453000003,559.2599604999996,None,,,,,,,,,,,,,,00039,001,2026-01-23_17h02.47.129,MST_task,2024.2.0,60.0524858703198,2026-01-23 17h03.03.454905 +0530,
,Objects\066a.jpg,116,0,117,,,,,,,None,,,f,0.5806421000161208,None,,,,117,0,116,559.2758098999911,,,,,,,,,,,,,,,,,,,,,,,559.2600454000058,559.2758098999911,559.776013499999,559.7596411999839,,,,,,,,,,,,,,,,,,,,,,,,,,559.763989900006,559.776013499999,559.776013499999,559.776013499999,562.7753836000047,562.7753836000047,562.7753836000047,562.7601447000052,None,,,562.7602178999805,563.359746400005,f,562.7753836000047,562.7753836000047,0.5806421000161208,None,,,,,,,,,,00039,001,2026-01-23_17h02.47.129,MST_task,2024.2.0,60.0524858703198,2026-01-23 17h03.03.454905 +0530,
,Objects\169a.jpg,117,0,118,,,,,,,None,,,f,0.7592860000149813,None,,,,118,0,117,563.3757998000074,,,,,,,,,,,,,,,,,,,,,,,563.359864099999,563.3757998000074,563.8758751999994,563.8597882000031,,,,,,,,,,,,,,,,,,,,,,,,,,563.8635374000005,563.8758751999994,563.8758751999994,563.8758751999994,,,,566.8598271999799,None,,,566.8599040999834,567.6430914999801,f,566.8754755999835,566.8754755999835,0.7592860000149813,None,,,,,,,,,,00039,001,2026-01-23_17h02.47.129,MST_task,2024.2.0,60.0524858703198,2026-01-23 17h03.03.454905 +0530,
,Objects\030a.jpg,118,0,119,,,,,,,f,1.2201629999908619,0.14393630000995472,None,,,,,,119,0,118,567.6593059999868,,,,,,,,,,,,,,,,,,,,,,,567.6432010999997,567.6593059999868,568.1595756000024,568.1428634999902,,,,,,,,,,,,,,,,,,,,,,,,,,568.1562357000075,568.1595756000024,568.1595756000024,568.1595756000024,571.1591920999927,571.1591920999927,571.1591920999927,571.143711599987,f,1.2201629999908619,0.14393630000995472,571.1438213000074,571.1438488999847,None,,,,,,,,,,,,,,00039,001,2026-01-23_17h02.47.129,MST_task,2024.2.0,60.0524858703198,2026-01-23 17h03.03.454905 +0530,
,Scenes\007a.jpg,119,0,120,,,,,,,f,1.5113627999962773,0.1762250000028871,None,,,,,,120,0,119,571.1591920999927,,,,,,,,,,,,,,,,,,,,,,,571.1439827999857,571.1591920999927,571.6597125999979,571.643295899994,,,,,,,,,,,,,,,,,,,,,,,,,,571.6526558999904,571.6597125999979,571.6597125999979,571.6597125999979,574.6593613000005,574.6593613000005,574.6593613000005,574.643342299998,f,1.5113627999962773,0.1762250000028871,574.6434138999903,574.6434271000035,None,,,,,,,,,,,,,,00039,001,2026-01-23_17h02.47.129,MST_task,2024.2.0,60.0524858703198,2026-01-23 17h03.03.454905 +0530,
,Scenes\105a.jpg,120,0,121,,,,,,,j,0.6096379999944475,0.15284389999578707,None,,,,,,121,0,120,574.6593613000005,,,,,,,,,,,,,,,,,,,,,,,574.6435029999993,574.6593613000005,575.1613022999954,575.1431058000016,,,,,,,,,,,,,,,,,,,,,,,,,,575.158354299987,575.1613022999954,575.1613022999954,575.1613022999954,,,,578.1597855,j,0.6096379999944475,0.15284389999578707,578.1598546000023,578.1598704000062,None,,,,,,,,,,,,,,00039,001,2026-01-23_17h02.47.129,MST_task,2024.2.0,60.0524858703198,2026-01-23 17h03.03.454905 +0530,
,Scenes\008a.jpg,121,0,122,,,,,,,f,1.7830440000107046,0.1999560999975074,None,,,,,,122,0,121,578.1756270999904,,,,,,,,,,,,,,,,,,,,,,,578.1599879999994,578.1756270999904,578.676278400002,578.6594505999819,,,,,,,,,,,,,,,,,,,,,,,,,,578.6693838000065,578.676278400002,578.676278400002,578.676278400002,,,,581.6607108000026,f,1.7830440000107046,0.1999560999975074,581.6607876000053,581.6608047999907,None,,,,,,,,,,,,,,00039,001,2026-01-23_17h02.47.129,MST_task,2024.2.0,60.0524858703198,2026-01-23 17h03.03.454905 +0530,
,Scenes\131a.jpg,122,0,123,,,,,,,j,0.8696669999917503,0.19194200000492856,None,,,,,,123,0,122,581.675786799984,,,,,,,,,,,,,,,,,,,,,,,581.660896299989,581.675786799984,582.1821857999894,582.1596202999935,,,,,,,,,,,,,,,,,,,,,,,,,,582.1790717999975,582.1821857999894,582.1821857999894,582.1821857999894,,,,585.1764264999947,j,0.8696669999917503,0.19194200000492856,585.1764935999818,585.1765082000056,None,,,,,,,,,,,,,,00039,001,2026-01-23_17h02.47.129,MST_task,2024.2.0,60.0524858703198,2026-01-23 17h03.03.454905 +0530,
,Scenes\080a.jpg,123,0,124,,,,,,,j,0.5986250000132713,0.1682266999850981,None,,,,,,124,0,123,585.1922323000035,,,,,,,,,,,,,,,,,,,,,,,585.1766070000012,585.1922323000035,585.6928526999836,585.6763563999848,,,,,,,,,,,,,,,,,,,,,,,,,,585.6848672000051,585.6928526999836,585.6928526999836,585.6928526999836,588.692370499979,588.692370499979,588.692370499979,588.6765496000007,j,0.5986250000132713,0.1682266999850981,588.6766238999844,588.6766390999837,None,,,,,,,,,,,,,,00039,001,2026-01-23_17h02.47.129,MST_task,2024.2.0,60.0524858703198,2026-01-23 17h03.03.454905 +0530,
,Scenes\145a.jpg,124,0,125,,,,,,,j,0.5299909000168554,0.1361509999842383,None,,,,,,125,0,124,588.692370499979,,,,,,,,,,,,,,,,,,,,,,,588.6767517999979,588.692370499979,589.1933032999805,589.1764314000029,,,,,,,,,,,,,,,,,,,,,,,,,,589.1886586000037,589.1933032999805,589.1933032999805,589.1933032999805,592.1922389999963,592.1922389999963,592.1922389999963,592.1772767999792,j,0.5299909000168554,0.1361509999842383,592.1773493000073,592.1773628999945,None,,,,,,,,,,,,,,00039,001,2026-01-23_17h02.47.129,MST_task,2024.2.0,60.0524858703198,2026-01-23 17h03.03.454905 +0530,
,Scenes\002a.jpg,125,0,126,,,,,,,j,0.7578146000159904,0.15211470000213012,None,,,,,,126,0,125,592.1922389999963,,,,,,,,,,,,,,,,,,,,,,,592.1774824000022,592.1922389999963,592.693531500001,592.6758525999903,,,,,,,,,,,,,,,,,,,,,,,,,,592.6891139000072,592.693531500001,592.693531500001,592.693531500001,595.6923689999967,595.6923689999967,595.6923689999967,595.6765712999913,j,0.7578146000159904,0.15211470000213012,595.6766441999935,595.676659299992,None,,,,,,,,,,,,,,00039,001,2026-01-23_17h02.47.129,MST_task,2024.2.0,60.0524858703198,2026-01-23 17h03.03.454905 +0530,
,Objects\052a.jpg,126,0,127,,,,,,,f,0.9629077000136022,0.16735949998837896,None,,,,,,127,0,126,595.6923689999967,,,,,,,,,,,,,,,,,,,,,,,595.6767662999919,595.6923689999967,596.1931022999925,596.1760484999977,,,,,,,,,,,,,,,,,,,,,,,,,,596.1800228999928,596.1931022999925,596.1931022999925,596.1931022999925,599.192739399994,599.192739399994,599.192739399994,599.1766214999952,f,0.9629077000136022,0.16735949998837896,599.1766955000057,599.1767099999997,None,,,,,,,,,,,,,,00039,001,2026-01-23_17h02.47.129,MST_task,2024.2.0,60.0524858703198,2026-01-23 17h03.03.454905 +0530,
,Objects\041a.jpg,127,0,128,,,,,,,f,1.4789556000032462,0.1518995999940671,None,,,,,,128,0,127,599.192739399994,,,,,,,,,,,,,,,,,,,,,,,599.1767908000038,599.192739399994,,599.6775988999871,,,,,,,,,,,,,,,,,,,,,,,,,,599.6888705999881,599.6926306999812,599.6926306999812,599.6926306999812,602.6923858999799,602.6923858999799,602.6923858999799,602.6761993999826,f,1.4789556000032462,0.1518995999940671,602.6762719999824,602.6762862000032,None,,,,,,,,,,,,,,00039,001,2026-01-23_17h02.47.129,MST_task,2024.2.0,60.0524858703198,2026-01-23 17h03.03.454905 +0530,
,Objects\097a.jpg,128,0,129,,,,,,,j,0.8494498999789357,0.16037349999533035,None,,,,,,129,0,128,602.6923858999799,,,,,,,,,,,,,,,,,,,,,,,602.6763886999979,602.6923858999799,603.1934666000016,603.1760214999958,,,,,,,,,,,,,,,,,,,,,,,,,,603.1795688999991,603.1934666000016,603.1934666000016,603.1934666000016,606.193143499986,606.193143499986,606.193143499986,606.1767161999887,j,0.8494498999789357,0.16037349999533035,606.176787400007,606.1767998999858,None,,,,,,,,,,,,,,00039,001,2026-01-23_17h02.47.129,MST_task,2024.2.0,60.0524858703198,2026-01-23 17h03.03.454905 +0530,
,Objects\134a.jpg,129,0,130,,,,,,,f,0.9110196999972686,0.15185789999668486,None,,,,,,130,0,129,606.193143499986,,,,,,,,,,,,,,,,,,,,,,,606.1768774999946,606.193143499986,606.6926348999841,606.6761565000052,,,,,,,,,,,,,,,,,,,,,,,,,,606.6874404999835,606.6926348999841,606.6926348999841,606.6926348999841,,,,609.6768587999977,f,0.9110196999972686,0.15185789999668486,609.6769239999994,609.6769388999965,None,,,,,,,,,,,,,,00039,001,2026-01-23_17h02.47.129,MST_task,2024.2.0,60.0524858703198,2026-01-23 17h03.03.454905 +0530,
,Objects\162a.jpg,130,0,131,,,,,,,f,1.570304099994246,0.16099159998702817,None,,,,,,131,0,130,609.6924205999821,,,,,,,,,,,,,,,,,,,,,,,609.677060099988,609.6924205999821,610.1926481999981,610.1761729999853,,,,,,,,,,,,,,,,,,,,,,,,,,610.1899586999789,610.1926481999981,610.1926481999981,610.1926481999981,613.1923293999862,613.1923293999862,613.1923293999862,613.1767013999925,f,1.570304099994246,0.16099159998702817,613.1767811999889,613.1767953999806,None,,,,,,,,,,,,,,00039,001,2026-01-23_17h02.47.129,MST_task,2024.2.0,60.0524858703198,2026-01-23 17h03.03.454905 +0530,
,Objects\181a.jpg,131,0,132,,,,,,,j,0.8863303999823984,0.16101360000902787,None,,,,,,132,0,131,613.1923293999862,,,,,,,,,,,,,,,,,,,,,,,613.1768775999954,613.1923293999862,613.6932531000057,613.6764110999939,,,,,,,,,,,,,,,,,,,,,,,,,,613.6801829999895,613.6932531000057,613.6932531000057,613.6932531000057,616.693352000002,616.693352000002,616.693352000002,616.6767916999815,j,0.8863303999823984,0.16101360000902787,616.6768583999947,616.676871899981,None,,,,,,,,,,,,,,00039,001,2026-01-23_17h02.47.129,MST_task,2024.2.0,60.0524858703198,2026-01-23 17h03.03.454905 +0530,
,Objects\078a.jpg,132,0,133,,,,,,,j,1.498084300023038,0.16002799998386763,None,,,,,,133,0,132,616.693352000002,,,,,,,,,,,,,,,,,,,,,,,616.6769472000015,616.693352000002,617.1927173000004,617.1763464999967,,,,,,,,,,,,,,,,,,,,,,,,,,617.1888514999882,617.1927173000004,617.1927173000004,617.1927173000004,,,,620.1770072999934,j,1.498084300023038,0.16002799998386763,620.1770886000013,620.1771042000037,None,,,,,,,,,,,,,,00039,001,2026-01-23_17h02.47.129,MST_task,2024.2.0,60.0524858703198,2026-01-23 17h03.03.454905 +0530,
,Scenes\104a.jpg,133,0,134,,,,,,,j,2.8546493999892846,None,None,,,,,,134,0,133,620.1929247999797,,,,,,,,,,,,,,,,,,,,,,,620.1771913999983,620.1929247999797,620.6928982999816,620.676470299979,,,,,,,,,,,,,,,,,,,,,,,,,,620.6884885999898,620.6928982999816,620.6928982999816,620.6928982999816,623.6927322999982,623.6927322999982,623.6927322999982,623.6766209999914,j,2.8546493999892846,None,623.6766889999853,623.6767010999902,None,,,,,,,,,,,,,,00039,001,2026-01-23_17h02.47.129,MST_task,2024.2.0,60.0524858703198,2026-01-23 17h03.03.454905 +0530,
,Scenes\014a.jpg,134,0,135,,,,,,,f,2.682547699980205,0.1760138000245206,None,,,,,,135,0,134,623.6927322999982,,,,,,,,,,,,,,,,,,,,,,,623.6767724999809,623.6927322999982,624.1929333999869,624.1761748999998,,,,,,,,,,,,,,,,,,,,,,,,,,624.1828716000018,624.1929333999869,624.1929333999869,624.1929333999869,627.192521399993,627.192521399993,627.192521399993,627.1771561999922,f,2.682547699980205,0.1760138000245206,627.1772251999937,627.1772388999816,None,,,,,,,,,,,,,,00039,001,2026-01-23_17h02.47.129,MST_task,2024.2.0,60.0524858703198,2026-01-23 17h03.03.454905 +0530,
,Scenes\146a.jpg,135,0,136,,,,,,,j,0.6458785999857355,0.15995340002700686,None,,,,,,136,0,135,627.192521399993,,,,,,,,,,,,,,,,,,,,,,,627.1773161999881,627.192521399993,627.6930149999971,627.6761986000056,,,,,,,,,,,,,,,,,,,,,,,,,,627.6870695999824,627.6930149999971,627.6930149999971,627.6930149999971,630.6928626000008,630.6928626000008,630.6928626000008,630.6767105000035,j,0.6458785999857355,0.15995340002700686,630.6768422999885,630.6768724999856,None,,,,,,,,,,,,,,00039,001,2026-01-23_17h02.47.129,MST_task,2024.2.0,60.0524858703198,2026-01-23 17h03.03.454905 +0530,
,Scenes\009a.jpg,136,0,137,,,,,,,f,1.5958515999955125,0.18396259998553433,None,,,,,,137,0,136,630.6928626000008,,,,,,,,,,,,,,,,,,,,,,,630.6770710999845,630.6928626000008,631.199887099996,631.1757446999836,,,,,,,,,,,,,,,,,,,,,,,,,,631.1965117999935,631.199887099996,631.199887099996,631.199887099996,,,,634.1929333999869,f,1.5958515999955125,0.18396259998553433,634.1930150999979,634.193030800001,None,,,,,,,,,,,,,,00039,001,2026-01-23_17h02.47.129,MST_task,2024.2.0,60.0524858703198,2026-01-23 17h03.03.454905 +0530,
,Scenes\110a.jpg,137,0,138,,,,,,,j,0.8644666000036523,0.12801709998166189,None,,,,,,138,0,137,634.2092386999866,,,,,,,,,,,,,,,,,,,,,,,634.1931306000042,634.2092386999866,634.7144703999802,634.6929249999812,,,,,,,,,,,,,,,,,,,,,,,,,,634.7115419000038,634.7144703999802,634.7144703999802,634.7144703999802,,,,637.7092574999842,j,0.8644666000036523,0.12801709998166189,637.7093341999862,637.7093502999924,None,,,,,,,,,,,,,,00039,001,2026-01-23_17h02.47.129,MST_task,2024.2.0,60.0524858703198,2026-01-23 17h03.03.454905 +0530,
,Scenes\171a.jpg,138,0,139,,,,,,,f,0.8396151000051759,0.1519784999836702,None,,,,,,139,0,138,637.7255697000073,,,,,,,,,,,,,,,,,,,,,,,637.7094823999796,637.7255697000073,638.227861899999,638.2096249999886,,,,,,,,,,,,,,,,,,,,,,,,,,638.2247484999825,638.227861899999,638.227861899999,638.227861899999,,,,641.2260096999817,f,0.8396151000051759,0.1519784999836702,641.2260836999922,641.2260998999991,None,,,,,,,,,,,,,,00039,001,2026-01-23_17h02.47.129,MST_task,2024.2.0,60.0524858703198,2026-01-23 17h03.03.454905 +0530,
,Scenes\101a.jpg,139,0,140,,,,,,,j,2.078443500009598,0.10418559997924604,None,,,,,,140,0,139,641.2423369000026,,,,,,,,,,,,,,,,,,,,,,,641.2262107999995,641.2423369000026,641.7485175000038,641.7261436999834,,,,,,,,,,,,,,,,,,,,,,,,,,641.7451356999809,641.7485175000038,641.7485175000038,641.7485175000038,,,,644.7262602999981,j,2.078443500009598,0.10418559997924604,644.726330799982,644.7263463999843,None,,,,,,,,,,,,,,00039,001,2026-01-23_17h02.47.129,MST_task,2024.2.0,60.0524858703198,2026-01-23 17h03.03.454905 +0530,
,Objects\105a.jpg,140,0,141,,,,,,,f,1.2867752999882214,0.18386049999389797,None,,,,,,141,0,140,644.7422042999824,,,,,,,,,,,,,,,,,,,,,,,644.72644269999,644.7422042999824,,645.2266022999829,,,,,,,,,,,,,,,,,,,,,,,,,,645.2311307000055,645.2443362000049,645.2443362000049,645.2443362000049,,,,648.2429907000042,f,1.2867752999882214,0.18386049999389797,648.2430667000008,648.2430826000054,None,,,,,,,,,,,,,,00039,001,2026-01-23_17h02.47.129,MST_task,2024.2.0,60.0524858703198,2026-01-23 17h03.03.454905 +0530,
,Objects\085a.jpg,141,0,142,,,,,,,j,2.851120200008154,None,None,,,,,,142,0,141,648.2591767999984,,,,,,,,,,,,,,,,,,,,,,,648.2431709999801,648.2591767999984,648.7606042999832,648.7432696000033,,,,,,,,,,,,,,,,,,,,,,,,,,648.747572799999,648.7606042999832,648.7606042999832,648.7606042999832,,,,651.7593970999878,j,2.851120200008154,None,651.759487000003,651.7595008999924,None,,,,,,,,,,,,,,00039,001,2026-01-23_17h02.47.129,MST_task,2024.2.0,60.0524858703198,2026-01-23 17h03.03.454905 +0530,
,Objects\161a.jpg,142,0,143,,,,,,,j,1.6149992999853566,0.1350242999906186,None,,,,,,143,0,142,651.776709800004,,,,,,,,,,,,,,,,,,,,,,,651.7596352999972,651.776709800004,,652.275815800007,,,,,,,,,,,,,,,,,,,,,,,,,,652.2792805999925,652.2927524999832,652.2927524999832,652.2927524999832,,,,655.2596538999933,j,1.6149992999853566,0.1350242999906186,655.2597269999969,655.2597423999978,None,,,,,,,,,,,,,,00039,001,2026-01-23_17h02.47.129,MST_task,2024.2.0,60.0524858703198,2026-01-23 17h03.03.454905 +0530,
,Objects\122a.jpg,143,0,144,,,,,,,j,2.9550215000053868,None,None,,,,,,144,0,143,655.275751499983,,,,,,,,,,,,,,,,,,,,,,,655.2598329999892,655.275751499983,655.7763410999905,655.7595816999965,,,,,,,,,,,,,,,,,,,,,,,,,,655.763029099995,655.7763410999905,655.7763410999905,655.7763410999905,658.7755718999833,658.7755718999833,658.7755718999833,658.7601963999914,j,2.9550215000053868,None,658.7602699999989,658.7602874999866,None,,,,,,,,,,,,,,00039,001,2026-01-23_17h02.47.129,MST_task,2024.2.0,60.0524858703198,2026-01-23 17h03.03.454905 +0530,
,Objects\090a.jpg,144,0,145,,,,,,,j,1.3590322000090964,0.13685619999887422,None,,,,,,145,0,144,658.7755718999833,,,,,,,,,,,,,,,,,,,,,,,658.7603830999869,658.7755718999833,659.2760703999957,659.2602423999924,,,,,,,,,,,,,,,,,,,,,,,,,,659.2720454999944,659.2760703999957,659.2760703999957,659.2760703999957,662.277211299981,662.277211299981,662.277211299981,662.2610095999844,j,1.3590322000090964,0.13685619999887422,662.2610941999883,662.2611144999973,None,,,,,,,,,,,,,,00039,001,2026-01-23_17h02.47.129,MST_task,2024.2.0,60.0524858703198,2026-01-23 17h03.03.454905 +0530,
,Objects\139a.jpg,145,0,146,,,,,,,f,1.0271612999786157,0.17599190000328235,None,,,,,,146,0,145,662.277211299981,,,,,,,,,,,,,,,,,,,,,,,662.261197099986,662.277211299981,662.7761034999858,662.7598758999957,,,,,,,,,,,,,,,,,,,,,,,,,,662.7636265000037,662.7761034999858,662.7761034999858,662.7761034999858,665.7756629000069,665.7756629000069,665.7756629000069,665.7598325999861,f,1.0271612999786157,0.17599190000328235,665.7599036000029,665.7599165999854,None,,,,,,,,,,,,,,00039,001,2026-01-23_17h02.47.129,MST_task,2024.2.0,60.0524858703198,2026-01-23 17h03.03.454905 +0530,
,Objects\050a.jpg,146,0,147,,,,,,,f,2.575645400007488,0.22401209999225102,None,,,,,,147,0,146,665.7756629000069,,,,,,,,,,,,,,,,,,,,,,,665.7599996000063,665.7756629000069,666.2757549999806,666.2598146999953,,,,,,,,,,,,,,,,,,,,,,,,,,666.263925599982,666.2757549999806,666.2757549999806,666.2757549999806,669.2760389999894,669.2760389999894,669.2760389999894,669.2602394999994,f,2.575645400007488,0.22401209999225102,669.2603099999833,669.2603230999957,None,,,,,,,,,,,,,,00039,001,2026-01-23_17h02.47.129,MST_task,2024.2.0,60.0524858703198,2026-01-23 17h03.03.454905 +0530,
,Scenes\124a.jpg,147,0,148,,,,,,,f,1.003320599993458,0.13605010000173934,None,,,,,,148,0,147,669.2760389999894,,,,,,,,,,,,,,,,,,,,,,,669.2603974999802,669.2760389999894,669.7759530000039,669.7592393999803,,,,,,,,,,,,,,,,,,,,,,,,,,669.7693305999856,669.7759530000039,669.7759530000039,669.7759530000039,672.7754815999942,672.7754815999942,672.7754815999942,672.760151399998,f,1.003320599993458,0.13605010000173934,672.7602224999864,672.7602366000065,None,,,,,,,,,,,,,,00039,001,2026-01-23_17h02.47.129,MST_task,2024.2.0,60.0524858703198,2026-01-23 17h03.03.454905 +0530,
,Scenes\028a.jpg,148,0,149,,,,,,,j,0.8470592999947257,0.16784750000806525,None,,,,,,149,0,148,672.7754815999942,,,,,,,,,,,,,,,,,,,,,,,672.7603437000071,672.7754815999942,673.2760197999887,673.259247399983,,,,,,,,,,,,,,,,,,,,,,,,,,673.2693483000039,673.2760197999887,673.2760197999887,673.2760197999887,676.2759722000046,676.2759722000046,676.2759722000046,676.260048199998,j,0.8470592999947257,0.16784750000806525,676.2601117999875,676.2601244999969,None,,,,,,,,,,,,,,00039,001,2026-01-23_17h02.47.129,MST_task,2024.2.0,60.0524858703198,2026-01-23 17h03.03.454905 +0530,
,Scenes\138a.jpg,149,0,150,,,,,,,j,0.6056775000179186,0.13594569999258965,None,,,,,,150,0,149,676.2759722000046,,,,,,,,,,,,,,,,,,,,,,,676.2602237999963,676.2759722000046,676.7813367999915,676.7594245999935,,,,,,,,,,,,,,,,,,,,,,,,,,676.7785123999929,676.7813367999915,676.7813367999915,676.7813367999915,,,,679.7764512999856,j,0.6056775000179186,0.13594569999258965,679.7765234999824,679.7765383000078,None,,,,,,,,,,,,,,00039,001,2026-01-23_17h02.47.129,MST_task,2024.2.0,60.0524858703198,2026-01-23 17h03.03.454905 +0530,
,Scenes\115a.jpg,150,0,151,,,,,,,j,0.6779173999966588,0.12000260001514107,None,,,,,,151,0,150,679.7925671999983,,,,,,,,,,,,,,,,,,,,,,,679.7766720000072,679.7925671999983,680.2933510000003,680.2757641999924,,,,,,,,,,,,,,,,,,,,,,,,,,680.2877532999846,680.2933510000003,680.2933510000003,680.2933510000003,683.2930361999897,683.2930361999897,683.2930361999897,683.2762898000074,j,0.6779173999966588,0.12000260001514107,683.2763634999865,683.2763776000065,None,,,,,,,,,,,,,,00039,001,2026-01-23_17h02.47.129,MST_task,2024.2.0,60.0524858703198,2026-01-23 17h03.03.454905 +0530,
,Scenes\182a.jpg,151,0,152,,,,,,,None,,,j,0.2902462999918498,None,,,,152,0,151,683.2930361999897,,,,,,,,,,,,,,,,,,,,,,,683.276524099987,683.2930361999897,683.7945753999811,683.7764202999824,,,,,,,,,,,,,,,,,,,,,,,,,,683.7919266999816,683.7945753999811,683.7945753999811,683.7945753999811,,,,686.7927090000012,None,,,686.792776199989,687.1096268999972,j,686.8091243999952,686.8091243999952,0.2902462999918498,None,,,,,,,,,,00039,001,2026-01-23_17h02.47.129,MST_task,2024.2.0,60.0524858703198,2026-01-23 17h03.03.454905 +0530,
,Scenes\150a.jpg,152,0,153,,,,,,,j,0.5392044000036549,0.1519914999953471,None,,,,,,153,0,152,687.125672299997,,,,,,,,,,,,,,,,,,,,,,,687.1097335999948,687.125672299997,687.6320965999912,687.6099583999894,,,,,,,,,,,,,,,,,,,,,,,,,,687.6290372000076,687.6320965999912,687.6320965999912,687.6320965999912,,,,690.6259467999917,j,0.5392044000036549,0.1519914999953471,690.6260326000047,690.6260508999985,None,,,,,,,,,,,,,,00039,001,2026-01-23_17h02.47.129,MST_task,2024.2.0,60.0524858703198,2026-01-23 17h03.03.454905 +0530,
,Scenes\096a.jpg,153,0,154,,,,,,,j,0.6432249000063166,0.16000089998124167,None,,,,,,154,0,153,690.6424758000067,,,,,,,,,,,,,,,,,,,,,,,690.6261707999802,690.6424758000067,691.1440418999991,691.1260968999995,,,,,,,,,,,,,,,,,,,,,,,,,,691.1320059999998,691.1440418999991,691.1440418999991,691.1440418999991,,,,694.1264500999823,j,0.6432249000063166,0.16000089998124167,694.1265230999852,694.1265379999822,None,,,,,,,,,,,,,,00039,001,2026-01-23_17h02.47.129,MST_task,2024.2.0,60.0524858703198,2026-01-23 17h03.03.454905 +0530,
,Objects\118a.jpg,154,0,155,,,,,,,j,1.9920254000171553,0.13661980000324547,None,,,,,,155,0,154,694.1427552999812,,,,,,,,,,,,,,,,,,,,,,,694.1266720999847,694.1427552999812,694.6428478999878,694.6260905999807,,,,,,,,,,,,,,,,,,,,,,,,,,694.6304668999801,694.6428478999878,694.6428478999878,694.6428478999878,697.6430146000057,697.6430146000057,697.6430146000057,697.6264534000074,j,1.9920254000171553,0.13661980000324547,697.6265225999814,697.6265371000045,None,,,,,,,,,,,,,,00039,001,2026-01-23_17h02.47.129,MST_task,2024.2.0,60.0524858703198,2026-01-23 17h03.03.454905 +0530,
,Objects\184a.jpg,155,0,156,,,,,,,f,2.65229269998963,0.15202200002386235,None,,,,,,156,0,155,697.6430146000057,,,,,,,,,,,,,,,,,,,,,,,697.6266229999892,697.6430146000057,698.1432605999871,698.126636800007,,,,,,,,,,,,,,,,,,,,,,,,,,698.1303293999808,698.1432605999871,698.1432605999871,698.1432605999871,701.1426391999994,701.1426391999994,701.1426391999994,701.1267548000033,f,2.65229269998963,0.15202200002386235,701.1268334999913,701.1268509999791,None,,,,,,,,,,,,,,00039,001,2026-01-23_17h02.47.129,MST_task,2024.2.0,60.0524858703198,2026-01-23 17h03.03.454905 +0530,
,Objects\119a.jpg,156,0,157,,,,,,,f,2.255893100023968,0.16803239998989739,None,,,,,,157,0,156,701.1426391999994,,,,,,,,,,,,,,,,,,,,,,,701.1269676999946,701.1426391999994,701.6432090000017,701.6269391999813,,,,,,,,,,,,,,,,,,,,,,,,,,701.6303015000012,701.6432090000017,701.6432090000017,701.6432090000017,704.6429295999988,704.6429295999988,704.6429295999988,704.6264223000035,f,2.255893100023968,0.16803239998989739,704.6264919999812,704.6265073999821,None,,,,,,,,,,,,,,00039,001,2026-01-23_17h02.47.129,MST_task,2024.2.0,60.0524858703198,2026-01-23 17h03.03.454905 +0530,
,Objects\189a.jpg,157,0,158,,,,,,,f,2.9091483000083826,None,None,,,,,,158,0,157,704.6429295999988,,,,,,,,,,,,,,,,,,,,,,,704.626626399986,704.6429295999988,705.1424470999918,705.1268542000034,,,,,,,,,,,,,,,,,,,,,,,,,,705.1306441999914,705.1424470999918,705.1424470999918,705.1424470999918,708.1426333999843,708.1426333999843,708.1426333999843,708.1269143999962,f,2.9091483000083826,None,708.1269885000074,708.127003200003,None,,,,,,,,,,,,,,00039,001,2026-01-23_17h02.47.129,MST_task,2024.2.0,60.0524858703198,2026-01-23 17h03.03.454905 +0530,
,Objects\180a.jpg,158,0,159,,,,,,,f,1.4564668999810237,0.14401380001800135,None,,,,,,159,0,158,708.1426333999843,,,,,,,,,,,,,,,,,,,,,,,708.1271106000058,708.1426333999843,708.6425264999853,708.626662900002,,,,,,,,,,,,,,,,,,,,,,,,,,708.6302179000049,708.6425264999853,708.6425264999853,708.6425264999853,711.6423025999975,711.6423025999975,711.6423025999975,711.6265596000012,f,1.4564668999810237,0.14401380001800135,711.6266275999951,711.6266406000068,None,,,,,,,,,,,,,,00039,001,2026-01-23_17h02.47.129,MST_task,2024.2.0,60.0524858703198,2026-01-23 17h03.03.454905 +0530,
,Objects\116a.jpg,159,0,160,,,,,,,f,2.3162383000017144,0.1524990999896545,None,,,,,,160,0,159,711.6423025999975,,,,,,,,,,,,,,,,,,,,,,,711.6267177999835,711.6423025999975,712.1425933999999,712.1263811999816,,,,,,,,,,,,,,,,,,,,,,,,,,712.1297289000067,712.1425933999999,712.1425933999999,712.1425933999999,715.1423839000054,715.1423839000054,715.1423839000054,715.1267892000033,f,2.3162383000017144,0.1524990999896545,715.1268644999946,715.1268788999878,None,,,,,,,,,,,,,,00039,001,2026-01-23_17h02.47.129,MST_task,2024.2.0,60.0524858703198,2026-01-23 17h03.03.454905 +0530,
,Objects\152a.jpg,160,0,161,,,,,,,j,1.6640610999893397,0.1440590999845881,None,,,,,,161,0,160,715.1423839000054,,,,,,,,,,,,,,,,,,,,,,,715.1269910999981,715.1423839000054,715.6427369999874,715.6263845000067,,,,,,,,,,,,,,,,,,,,,,,,,,715.6305056999845,715.6427369999874,715.6427369999874,715.6427369999874,,,,718.6270688999793,j,1.6640610999893397,0.1440590999845881,718.6271481000003,718.6271637000027,None,,,,,,,,,,,,,,00039,001,2026-01-23_17h02.47.129,MST_task,2024.2.0,60.0524858703198,2026-01-23 17h03.03.454905 +0530,
,Scenes\077a.jpg,161,0,162,,,,,,,j,0.908811599976616,0.15200900001218542,None,,,,,,162,0,161,718.6423584999866,,,,,,,,,,,,,,,,,,,,,,,718.627289600001,718.6423584999866,719.1428704999853,719.1261856000056,,,,,,,,,,,,,,,,,,,,,,,,,,719.1398128999863,719.1428704999853,719.1428704999853,719.1428704999853,722.142308999988,722.142308999988,722.142308999988,722.126511599985,j,0.908811599976616,0.15200900001218542,722.1266232999915,722.126637999987,None,,,,,,,,,,,,,,00039,001,2026-01-23_17h02.47.129,MST_task,2024.2.0,60.0524858703198,2026-01-23 17h03.03.454905 +0530,
,Scenes\151a.jpg,162,0,163,,,,,,,j,0.7754576999868732,0.15198200001032092,None,,,,,,163,0,162,722.142308999988,,,,,,,,,,,,,,,,,,,,,,,722.1267217999848,722.142308999988,722.6438211000059,722.6260100000072,,,,,,,,,,,,,,,,,,,,,,,,,,722.6361993000028,722.6438211000059,722.6438211000059,722.6438211000059,,,,725.6426022999804,j,0.7754576999868732,0.15198200001032092,725.6426992999914,725.6427164000052,None,,,,,,,,,,,,,,00039,001,2026-01-23_17h02.47.129,MST_task,2024.2.0,60.0524858703198,2026-01-23 17h03.03.454905 +0530,
