thisN,thisTrialN,thisRepN,key_resp_3.keys,key_resp_3.rt,key_resp_3.duration,trials.thisRepN,trials.thisTrialN,trials.thisN,thisRow.t,notes,intro_page.started,text.started,key_resp.started,intro_page.stopped,key_resp.keys,key_resp.rt,key_resp.duration,instructions.started,text_2.started,key_resp_2.started,instructions.stopped,key_resp_2.keys,key_resp_2.rt,key_resp_2.duration,demo1.started,image_1.started,image_2.started,text_7.started,key_resp_6.started,text_9.started,demo1.stopped,key_resp_6.keys,key_resp_6.rt,key_resp_6.duration,demo2.started,image_5.started,image_6.started,text_11.started,text_12.started,key_resp_8.started,demo2.stopped,key_resp_8.keys,key_resp_8.rt,key_resp_8.duration,demo_conclusion.started,text_13.started,key_resp_9.started,demo_conclusion.stopped,key_resp_9.keys,key_resp_9.rt,key_resp_9.duration,start_test.started,text_6.started,key_resp_5.started,start_test.stopped,key_resp_5.keys,key_resp_5.rt,key_resp_5.duration,ISI.started,text_4.started,text_4.stopped,ISI.stopped,routine_1.started,image.started,text_3.started,key_resp_3.started,routine_1.stopped,image_path,position_of_stimuli,trials.key_resp_3.keys,trials.key_resp_3.rt,trials.key_resp_3.duration,End_page.started,text_5.started,key_resp_4.started,End_page.stopped,key_resp_4.keys,key_resp_4.rt,key_resp_4.duration,participant,session,date,expName,psychopyVersion,frameRate,expStart,
,,,,,,,,,,,0.001288499974180013,0.0029230999934952706,0.0029230999934952706,2.655393599998206,space,2.5833434999804012,None,,,,,,,,,,,,,,,,,,,,,,,,,,,,,,,,,,,,,,,,,,,,,,,,,,,,,,,,,,,,,,,00032,001,2026-01-22_11h26.12.622,MST_test,2024.2.0,59.86371426178474,2026-01-22 11h26.18.580262 +0530,
,,,,,,,,,,,,,,,,,,2.6554379999870434,2.6684947999892756,2.6684947999892756,22.186253799998667,space,19.501671499980148,None,,,,,,,,,,,,,,,,,,,,,,,,,,,,,,,,,,,,,,,,,,,,,,,,,,,,,,,,00032,001,2026-01-22_11h26.12.622,MST_test,2024.2.0,59.86371426178474,2026-01-22 11h26.18.580262 +0530,
,,,,,,,,,,,,,,,,,,,,,,,,,22.186367699992843,22.226998099999037,22.226998099999037,22.226998099999037,22.226998099999037,22.226998099999037,28.086129999981495,space,5.854584399989108,None,,,,,,,,,,,,,,,,,,,,,,,,,,,,,,,,,,,,,,,,,,,,,,00032,001,2026-01-22_11h26.12.622,MST_test,2024.2.0,59.86371426178474,2026-01-22 11h26.18.580262 +0530,
,,,,,,,,,,,,,,,,,,,,,,,,,,,,,,,,,,,28.086217699979898,28.1024951999716,28.1024951999716,28.1024951999716,28.1024951999716,28.1024951999716,31.953336799982935,space,3.84429189999355,None,,,,,,,,,,,,,,,,,,,,,,,,,,,,,,,,,,,,00032,001,2026-01-22_11h26.12.622,MST_test,2024.2.0,59.86371426178474,2026-01-22 11h26.18.580262 +0530,
,,,,,,,,,,,,,,,,,,,,,,,,,,,,,,,,,,,,,,,,,,,,,31.953432999987854,31.969535999989603,31.969535999989603,43.70280629998888,space,11.720870500023011,None,,,,,,,,,,,,,,,,,,,,,,,,,,,,,00032,001,2026-01-22_11h26.12.622,MST_test,2024.2.0,59.86371426178474,2026-01-22 11h26.18.580262 +0530,
,,,,,,,,,,,,,,,,,,,,,,,,,,,,,,,,,,,,,,,,,,,,,,,,,,,,43.70290749997366,43.71877779997885,43.71877779997885,97.6197299999767,space,53.89174210000783,None,,,,,,,,,,,,,,,,,,,,,,00032,001,2026-01-22_11h26.12.622,MST_test,2024.2.0,59.86371426178474,2026-01-22 11h26.18.580262 +0530,
0,0,1,o,3.872059499990428,None,1,0,0,97.63552979999804,,,,,,,,,,,,,,,,,,,,,,,,,,,,,,,,,,,,,,,,,,,,,,,,,,97.62988999998197,97.63552979999804,98.13829939998686,98.11989949998679,98.1360113999981,98.13829939998686,98.13829939998686,98.13829939998686,102.01968149997992,Scenes\139a.jpg,mid,o,3.872059499990428,None,,,,,,,,00032,001,2026-01-22_11h26.12.622,MST_test,2024.2.0,59.86371426178474,2026-01-22 11h26.18.580262 +0530,
1,0,2,n,4.684306499984814,None,2,0,1,102.03591449998203,,,,,,,,,,,,,,,,,,,,,,,,,,,,,,,,,,,,,,,,,,,,,,,,,,102.02004699999816,102.03591449998203,102.5821499999729,102.5192305999808,102.57951169999433,102.5821499999729,102.5821499999729,102.5821499999729,107.26954429998295,Scenes\129b.jpg,mid,n,4.684306499984814,None,,,,,,,,00032,001,2026-01-22_11h26.12.622,MST_test,2024.2.0,59.86371426178474,2026-01-22 11h26.18.580262 +0530,
2,0,3,n,1.2642540000088047,None,3,0,2,107.28570159999072,,,,,,,,,,,,,,,,,,,,,,,,,,,,,,,,,,,,,,,,,,,,,,,,,,107.26990449998993,107.28570159999072,107.90585679997457,107.76924539997708,107.90251429998898,107.90585679997457,107.90585679997457,107.90585679997457,109.18621639997582,Foils\scenes20.jpg,none,n,1.2642540000088047,None,,,,,,,,00032,001,2026-01-22_11h26.12.622,MST_test,2024.2.0,59.86371426178474,2026-01-22 11h26.18.580262 +0530,
3,0,4,o,2.011417599976994,None,4,0,3,109.2021174999827,,,,,,,,,,,,,,,,,,,,,,,,,,,,,,,,,,,,,,,,,,,,,,,,,,109.18658689997392,109.2021174999827,109.70295549998991,109.68619479998597,109.69479199999478,109.70295549998991,109.70295549998991,109.70295549998991,111.71985869997297,Objects\150a.jpg,post,o,2.011417599976994,None,,,,,,,,00032,001,2026-01-22_11h26.12.622,MST_test,2024.2.0,59.86371426178474,2026-01-22 11h26.18.580262 +0530,
4,0,5,n,2.12524900000426,None,5,0,4,111.73558799998136,,,,,,,,,,,,,,,,,,,,,,,,,,,,,,,,,,,,,,,,,,,,,,,,,,111.72022569997353,111.73558799998136,112.26884809997864,112.21964709999156,112.26678729997366,112.26884809997864,112.26884809997864,112.26884809997864,114.40292009999393,Foils\093b.jpg,none,n,2.12524900000426,None,,,,,,,,00032,001,2026-01-22_11h26.12.622,MST_test,2024.2.0,59.86371426178474,2026-01-22 11h26.18.580262 +0530,
5,0,6,n,1.7776718999957666,None,6,0,5,114.41907289999654,,,,,,,,,,,,,,,,,,,,,,,,,,,,,,,,,,,,,,,,,,,,,,,,,,114.40330099998391,114.41907289999654,114.92868230000022,114.90255309999338,114.9266740999883,114.92868230000022,114.92868230000022,114.92868230000022,116.71965849999106,Foils\097a.jpg,none,n,1.7776718999957666,None,,,,,,,,00032,001,2026-01-22_11h26.12.622,MST_test,2024.2.0,59.86371426178474,2026-01-22 11h26.18.580262 +0530,
6,0,7,s,6.45503079998889,None,7,0,6,116.73611599998549,,,,,,,,,,,,,,,,,,,,,,,,,,,,,,,,,,,,,,,,,,,,,,,,,,116.72003159997985,116.73611599998549,117.25855519998004,117.2196355999913,117.2559620999964,117.25855519998004,117.25855519998004,117.25855519998004,123.71918109999388,Scenes\121b.jpg,pre,s,6.45503079998889,None,,,,,,,,00032,001,2026-01-22_11h26.12.622,MST_test,2024.2.0,59.86371426178474,2026-01-22 11h26.18.580262 +0530,
7,0,8,n,1.0669422000064515,None,8,0,7,123.73543039997458,,,,,,,,,,,,,,,,,,,,,,,,,,,,,,,,,,,,,,,,,,,,,,,,,,123.71940369997174,123.73543039997458,,124.21945869998308,124.25249129999429,124.25475369999185,124.25475369999185,124.25475369999185,125.33654319998459,Foils\073a.jpg,none,n,1.0669422000064515,None,,,,,,,,00032,001,2026-01-22_11h26.12.622,MST_test,2024.2.0,59.86371426178474,2026-01-22 11h26.18.580262 +0530,
8,0,9,o,2.5849114999873564,None,9,0,8,125.3524669999897,,,,,,,,,,,,,,,,,,,,,,,,,,,,,,,,,,,,,,,,,,,,,,,,,,125.3369014999771,125.3524669999897,125.85698839998804,125.83606449997751,125.85483469997416,125.85698839998804,125.85698839998804,125.85698839998804,128.45306899998104,Scenes\022a.jpg,pre,o,2.5849114999873564,None,,,,,,,,00032,001,2026-01-22_11h26.12.622,MST_test,2024.2.0,59.86371426178474,2026-01-22 11h26.18.580262 +0530,
9,0,10,s,3.146665700012818,None,10,0,9,128.46891059997142,,,,,,,,,,,,,,,,,,,,,,,,,,,,,,,,,,,,,,,,,,,,,,,,,,128.4534783999843,128.46891059997142,129.06366559999879,128.95287519998965,129.06115419999696,129.06366559999879,129.06366559999879,129.06366559999879,132.22002069998416,Scenes\074b.jpg,pre,s,3.146665700012818,None,,,,,,,,00032,001,2026-01-22_11h26.12.622,MST_test,2024.2.0,59.86371426178474,2026-01-22 11h26.18.580262 +0530,
10,0,11,o,3.986019399977522,None,11,0,10,132.23589929999434,,,,,,,,,,,,,,,,,,,,,,,,,,,,,,,,,,,,,,,,,,,,,,,,,,132.22038379998412,132.23589929999434,132.8315939999884,132.71954059999553,132.82868989999406,132.8315939999884,132.8315939999884,132.8315939999884,136.81951089997892,Scenes\061b.jpg,post,o,3.986019399977522,None,,,,,,,,00032,001,2026-01-22_11h26.12.622,MST_test,2024.2.0,59.86371426178474,2026-01-22 11h26.18.580262 +0530,
11,0,12,n,1.038397199998144,None,12,0,11,136.83586629998172,,,,,,,,,,,,,,,,,,,,,,,,,,,,,,,,,,,,,,,,,,,,,,,,,,136.81987459998345,136.83586629998172,137.40331029999652,137.31964249999146,137.4009967999882,137.40331029999652,137.40331029999652,137.40331029999652,138.45339169999352,Foils\scenes3.jpg,none,n,1.038397199998144,None,,,,,,,,00032,001,2026-01-22_11h26.12.622,MST_test,2024.2.0,59.86371426178474,2026-01-22 11h26.18.580262 +0530,
12,0,13,n,1.430578500003321,None,13,0,12,138.46905199997127,,,,,,,,,,,,,,,,,,,,,,,,,,,,,,,,,,,,,,,,,,,,,,,,,,138.45386270000017,138.46905199997127,138.98782139999093,138.95297249997384,138.9853071999969,138.98782139999093,138.98782139999093,138.98782139999093,140.41969749997952,Objects\080b.jpg,post,n,1.430578500003321,None,,,,,,,,00032,001,2026-01-22_11h26.12.622,MST_test,2024.2.0,59.86371426178474,2026-01-22 11h26.18.580262 +0530,
13,0,14,s,6.066719299997203,None,14,0,13,140.43625349999638,,,,,,,,,,,,,,,,,,,,,,,,,,,,,,,,,,,,,,,,,,,,,,,,,,140.42005519999657,140.43625349999638,141.0070494999818,140.9196134999802,141.00496479999856,141.0070494999818,141.0070494999818,141.0070494999818,147.08637219999218,Objects\041b.jpg,mid,s,6.066719299997203,None,,,,,,,,00032,001,2026-01-22_11h26.12.622,MST_test,2024.2.0,59.86371426178474,2026-01-22 11h26.18.580262 +0530,
14,0,15,n,2.2256627999886405,None,15,0,14,147.10246919997735,,,,,,,,,,,,,,,,,,,,,,,,,,,,,,,,,,,,,,,,,,,,,,,,,,147.08676369997556,147.10246919997735,147.60865459998604,147.58627039997373,147.6056208999944,147.60865459998604,147.60865459998604,147.60865459998604,149.83625059999758,Foils\scenes29.jpg,none,n,2.2256627999886405,None,,,,,,,,00032,001,2026-01-22_11h26.12.622,MST_test,2024.2.0,59.86371426178474,2026-01-22 11h26.18.580262 +0530,
15,0,16,s,1.7314594000054058,None,16,0,15,149.85255139999208,,,,,,,,,,,,,,,,,,,,,,,,,,,,,,,,,,,,,,,,,,,,,,,,,,149.83661059997394,149.85255139999208,150.3588776999968,150.33571869999287,150.35653359998832,150.3588776999968,150.3588776999968,150.3588776999968,152.1032193999854,Objects\090a.jpg,post,s,1.7314594000054058,None,,,,,,,,00032,001,2026-01-22_11h26.12.622,MST_test,2024.2.0,59.86371426178474,2026-01-22 11h26.18.580262 +0530,
16,0,17,n,1.862753099994734,None,17,0,16,152.11895619999268,,,,,,,,,,,,,,,,,,,,,,,,,,,,,,,,,,,,,,,,,,,,,,,,,,152.10357739997562,152.11895619999268,152.67489969998132,152.6029458999983,152.6722167999833,152.67489969998132,152.67489969998132,152.67489969998132,154.55322419997538,Scenes\090b.jpg,mid,n,1.862753099994734,None,,,,,,,,00032,001,2026-01-22_11h26.12.622,MST_test,2024.2.0,59.86371426178474,2026-01-22 11h26.18.580262 +0530,
17,0,18,s,2.9601859000104014,None,18,0,17,154.56900639997912,,,,,,,,,,,,,,,,,,,,,,,,,,,,,,,,,,,,,,,,,,,,,,,,,,154.5535829999717,154.56900639997912,155.0976163999876,155.05299529997865,155.0951074999757,155.0976163999876,155.0976163999876,155.0976163999876,158.06980259998818,Scenes\094b.jpg,post,s,2.9601859000104014,None,,,,,,,,00032,001,2026-01-22_11h26.12.622,MST_test,2024.2.0,59.86371426178474,2026-01-22 11h26.18.580262 +0530,
18,0,19,n,1.561799900024198,None,19,0,18,158.0863793999888,,,,,,,,,,,,,,,,,,,,,,,,,,,,,,,,,,,,,,,,,,,,,,,,,,158.07016149998526,158.0863793999888,158.6485241999908,158.56924509999226,158.64580659999046,158.6485241999908,158.6485241999908,158.6485241999908,160.219709099998,Foils\065a.jpg,none,n,1.561799900024198,None,,,,,,,,00032,001,2026-01-22_11h26.12.622,MST_test,2024.2.0,59.86371426178474,2026-01-22 11h26.18.580262 +0530,
19,0,20,o,3.1080933999910485,None,20,0,19,160.23625859999447,,,,,,,,,,,,,,,,,,,,,,,,,,,,,,,,,,,,,,,,,,,,,,,,,,160.22006979997968,160.23625859999447,160.7422888999863,160.71926709997933,160.74047489999793,160.7422888999863,160.7422888999863,160.7422888999863,163.85335369998938,Objects\146a.jpg,pre,o,3.1080933999910485,None,,,,,,,,00032,001,2026-01-22_11h26.12.622,MST_test,2024.2.0,59.86371426178474,2026-01-22 11h26.18.580262 +0530,
20,0,21,s,1.6843104000145104,None,21,0,20,163.8699555999774,,,,,,,,,,,,,,,,,,,,,,,,,,,,,,,,,,,,,,,,,,,,,,,,,,163.8537132999918,163.8699555999774,164.4060044999933,164.35288209997816,164.4033744999906,164.4060044999933,164.4060044999933,164.4060044999933,166.10315799998352,Objects\190b.jpg,pre,s,1.6843104000145104,None,,,,,,,,00032,001,2026-01-22_11h26.12.622,MST_test,2024.2.0,59.86371426178474,2026-01-22 11h26.18.580262 +0530,
21,0,22,n,1.025160400022287,None,22,0,21,166.11911649999092,,,,,,,,,,,,,,,,,,,,,,,,,,,,,,,,,,,,,,,,,,,,,,,,,,166.10351969997282,166.11911649999092,166.64051869997638,166.6031453999749,166.63729669997701,166.64051869997638,166.64051869997638,166.64051869997638,167.66982419998385,Foils\scenes5.jpg,none,n,1.025160400022287,None,,,,,,,,00032,001,2026-01-22_11h26.12.622,MST_test,2024.2.0,59.86371426178474,2026-01-22 11h26.18.580262 +0530,
22,0,23,o,1.859366599994246,None,23,0,22,167.68588769997586,,,,,,,,,,,,,,,,,,,,,,,,,,,,,,,,,,,,,,,,,,,,,,,,,,167.67019139998592,167.68588769997586,168.20644329997594,168.1696449999872,168.20342779997736,168.20644329997594,168.20644329997594,168.20644329997594,170.06957059999695,Scenes\130a.jpg,post,o,1.859366599994246,None,,,,,,,,00032,001,2026-01-22_11h26.12.622,MST_test,2024.2.0,59.86371426178474,2026-01-22 11h26.18.580262 +0530,
23,0,24,s,1.855817300005583,None,24,0,23,170.08565559997805,,,,,,,,,,,,,,,,,,,,,,,,,,,,,,,,,,,,,,,,,,,,,,,,,,170.06992949999403,170.08565559997805,170.68217609997373,170.56955329998164,170.67943349998677,170.68217609997373,170.68217609997373,170.68217609997373,172.55321829998866,Scenes\077b.jpg,pre,s,1.855817300005583,None,,,,,,,,00032,001,2026-01-22_11h26.12.622,MST_test,2024.2.0,59.86371426178474,2026-01-22 11h26.18.580262 +0530,
24,0,25,n,2.547340599994641,None,25,0,24,172.56922439998016,,,,,,,,,,,,,,,,,,,,,,,,,,,,,,,,,,,,,,,,,,,,,,,,,,172.5535772999865,172.56922439998016,173.09496539999964,173.05249199998798,173.09197869998752,173.09496539999964,173.09496539999964,173.09496539999964,175.65340859998832,Foils\050a.jpg,none,n,2.547340599994641,None,,,,,,,,00032,001,2026-01-22_11h26.12.622,MST_test,2024.2.0,59.86371426178474,2026-01-22 11h26.18.580262 +0530,
25,0,26,o,1.3940413999953307,None,26,0,25,175.67000859999098,,,,,,,,,,,,,,,,,,,,,,,,,,,,,,,,,,,,,,,,,,,,,,,,,,175.6537687999953,175.67000859999098,176.21564169999328,176.1529157999903,176.21274319998338,176.21564169999328,176.21564169999328,176.21564169999328,177.62027319998015,Objects\165b.jpg,post,o,1.3940413999953307,None,,,,,,,,00032,001,2026-01-22_11h26.12.622,MST_test,2024.2.0,59.86371426178474,2026-01-22 11h26.18.580262 +0530,
26,0,27,s,1.4802266999904532,None,27,0,26,177.63589889998548,,,,,,,,,,,,,,,,,,,,,,,,,,,,,,,,,,,,,,,,,,,,,,,,,,177.62063169997418,177.63589889998548,178.1780251999735,178.1196409999975,178.17551379997167,178.1780251999735,178.1780251999735,178.1780251999735,179.6697973999835,Foils\066a.jpg,none,s,1.4802266999904532,None,,,,,,,,00032,001,2026-01-22_11h26.12.622,MST_test,2024.2.0,59.86371426178474,2026-01-22 11h26.18.580262 +0530,
27,0,28,o,2.3405099000083283,None,28,0,27,179.68588409997756,,,,,,,,,,,,,,,,,,,,,,,,,,,,,,,,,,,,,,,,,,,,,,,,,,179.67015869999886,179.68588409997756,180.19739899999695,180.16939599998295,180.1950643999735,180.19739899999695,180.19739899999695,180.19739899999695,182.55322719999822,Scenes\177a.jpg,pre,o,2.3405099000083283,None,,,,,,,,00032,001,2026-01-22_11h26.12.622,MST_test,2024.2.0,59.86371426178474,2026-01-22 11h26.18.580262 +0530,
28,0,29,n,1.3400668999820482,None,29,0,28,182.5688811999862,,,,,,,,,,,,,,,,,,,,,,,,,,,,,,,,,,,,,,,,,,,,,,,,,,182.55358579999302,182.5688811999862,183.09429119998822,183.0526142999879,183.09210749997874,183.09429119998822,183.09429119998822,183.09429119998822,184.4362228999962,Scenes\044b.jpg,mid,n,1.3400668999820482,None,,,,,,,,00032,001,2026-01-22_11h26.12.622,MST_test,2024.2.0,59.86371426178474,2026-01-22 11h26.18.580262 +0530,
29,0,30,s,1.5468117999844253,None,30,0,29,184.45253189999494,,,,,,,,,,,,,,,,,,,,,,,,,,,,,,,,,,,,,,,,,,,,,,,,,,184.43660369998543,184.45253189999494,184.9674834999896,184.93642569999793,184.96523999999044,184.9674834999896,184.9674834999896,184.9674834999896,186.519447699975,Foils\scenes1.jpg,none,s,1.5468117999844253,None,,,,,,,,00032,001,2026-01-22_11h26.12.622,MST_test,2024.2.0,59.86371426178474,2026-01-22 11h26.18.580262 +0530,
30,0,31,n,1.1779627999931108,None,31,0,30,186.53567619997193,,,,,,,,,,,,,,,,,,,,,,,,,,,,,,,,,,,,,,,,,,,,,,,,,,186.51980669997283,186.53567619997193,187.04837269999553,187.01968849997502,187.04616159998113,187.04837269999553,187.04837269999553,187.04837269999553,188.2365518999868,Scenes\155a.jpg,pre,n,1.1779627999931108,None,,,,,,,,00032,001,2026-01-22_11h26.12.622,MST_test,2024.2.0,59.86371426178474,2026-01-22 11h26.18.580262 +0530,
31,0,32,n,1.593362600018736,None,32,0,31,188.25255639999523,,,,,,,,,,,,,,,,,,,,,,,,,,,,,,,,,,,,,,,,,,,,,,,,,,188.23691139998846,188.25255639999523,188.76031199999852,188.7363091999723,188.7577940999763,188.76031199999852,188.76031199999852,188.76031199999852,190.36983029998373,Objects\039a.jpg,pre,n,1.593362600018736,None,,,,,,,,00032,001,2026-01-22_11h26.12.622,MST_test,2024.2.0,59.86371426178474,2026-01-22 11h26.18.580262 +0530,
32,0,33,n,0.9276912999921478,None,33,0,32,190.38569479997386,,,,,,,,,,,,,,,,,,,,,,,,,,,,,,,,,,,,,,,,,,,,,,,,,,190.37019299998065,190.38569479997386,190.906986099988,190.86966419999953,190.9050476999837,190.906986099988,190.906986099988,190.906986099988,191.83647319997544,Foils\121a.jpg,none,n,0.9276912999921478,None,,,,,,,,00032,001,2026-01-22_11h26.12.622,MST_test,2024.2.0,59.86371426178474,2026-01-22 11h26.18.580262 +0530,
33,0,34,s,1.4868691000156105,None,34,0,33,191.85260109999217,,,,,,,,,,,,,,,,,,,,,,,,,,,,,,,,,,,,,,,,,,,,,,,,,,191.83683359998395,191.85260109999217,192.36342349997722,192.33630169997923,192.36074429997825,192.36342349997722,192.36342349997722,192.36342349997722,193.85297339997487,Objects\104a.jpg,pre,s,1.4868691000156105,None,,,,,,,,00032,001,2026-01-22_11h26.12.622,MST_test,2024.2.0,59.86371426178474,2026-01-22 11h26.18.580262 +0530,
34,0,35,o,1.4270282000070438,None,35,0,34,193.86938619997818,,,,,,,,,,,,,,,,,,,,,,,,,,,,,,,,,,,,,,,,,,,,,,,,,,193.85333989997162,193.86938619997818,194.38256549998187,194.3531132999924,194.38018369997735,194.38256549998187,194.38256549998187,194.38256549998187,195.81952479999745,Scenes\087a.jpg,mid,o,1.4270282000070438,None,,,,,,,,00032,001,2026-01-22_11h26.12.622,MST_test,2024.2.0,59.86371426178474,2026-01-22 11h26.18.580262 +0530,
35,0,36,s,3.9395335000008345,None,36,0,35,195.83593709999695,,,,,,,,,,,,,,,,,,,,,,,,,,,,,,,,,,,,,,,,,,,,,,,,,,195.81990949998726,195.83593709999695,196.39036659998237,196.31954369999585,196.38793959998293,196.39036659998237,196.39036659998237,196.39036659998237,200.3361723999842,Objects\105b.jpg,post,s,3.9395335000008345,None,,,,,,,,00032,001,2026-01-22_11h26.12.622,MST_test,2024.2.0,59.86371426178474,2026-01-22 11h26.18.580262 +0530,
36,0,37,o,2.6172063999983948,None,37,0,36,200.35229509999044,,,,,,,,,,,,,,,,,,,,,,,,,,,,,,,,,,,,,,,,,,,,,,,,,,200.33653609998873,200.35229509999044,200.8566112999979,200.83629639999708,200.85463129999698,200.8566112999979,200.8566112999979,200.8566112999979,203.4865689999715,Objects\099a.jpg,pre,o,2.6172063999983948,None,,,,,,,,00032,001,2026-01-22_11h26.12.622,MST_test,2024.2.0,59.86371426178474,2026-01-22 11h26.18.580262 +0530,
37,0,38,n,2.392232399986824,None,38,0,37,203.50248199998168,,,,,,,,,,,,,,,,,,,,,,,,,,,,,,,,,,,,,,,,,,,,,,,,,,203.48695729998872,203.50248199998168,204.05010279998532,203.98626899998635,204.04702359999646,204.05010279998532,204.05010279998532,204.05010279998532,206.45321439998224,Scenes\032b.jpg,post,n,2.392232399986824,None,,,,,,,,00032,001,2026-01-22_11h26.12.622,MST_test,2024.2.0,59.86371426178474,2026-01-22 11h26.18.580262 +0530,
38,0,39,s,1.6475275999982841,None,39,0,38,206.46886159997666,,,,,,,,,,,,,,,,,,,,,,,,,,,,,,,,,,,,,,,,,,,,,,,,,,206.45357299997704,206.46886159997666,207.0268045999983,206.95297839998966,207.0240115999768,207.0268045999983,207.0268045999983,207.0268045999983,208.6864474999893,Scenes\011b.jpg,mid,s,1.6475275999982841,None,,,,,,,,00032,001,2026-01-22_11h26.12.622,MST_test,2024.2.0,59.86371426178474,2026-01-22 11h26.18.580262 +0530,
39,0,40,s,2.536737499991432,None,40,0,39,208.70248469998478,,,,,,,,,,,,,,,,,,,,,,,,,,,,,,,,,,,,,,,,,,,,,,,,,,208.68688279998605,208.70248469998478,209.26537929999176,209.18650479998905,209.26218819999485,209.26537929999176,209.26537929999176,209.26537929999176,211.80343279999215,Foils\scenes23.jpg,none,s,2.536737499991432,None,,,,,,,,00032,001,2026-01-22_11h26.12.622,MST_test,2024.2.0,59.86371426178474,2026-01-22 11h26.18.580262 +0530,
40,0,41,s,1.3765233999874908,None,41,0,40,211.81922729997314,,,,,,,,,,,,,,,,,,,,,,,,,,,,,,,,,,,,,,,,,,,,,,,,,,211.80379859998357,211.81922729997314,212.3537996999803,212.30279899999732,212.3518920999777,212.3537996999803,212.3537996999803,212.3537996999803,213.73655129998224,Objects\068b.jpg,mid,s,1.3765233999874908,None,,,,,,,,00032,001,2026-01-22_11h26.12.622,MST_test,2024.2.0,59.86371426178474,2026-01-22 11h26.18.580262 +0530,
41,0,42,o,2.614885000017239,None,42,0,41,213.7524943999888,,,,,,,,,,,,,,,,,,,,,,,,,,,,,,,,,,,,,,,,,,,,,,,,,,213.736909499974,213.7524943999888,,214.2368944999762,214.256980199978,214.25939839999774,214.25939839999774,214.25939839999774,216.8865432999737,Objects\069a.jpg,pre,o,2.614885000017239,None,,,,,,,,00032,001,2026-01-22_11h26.12.622,MST_test,2024.2.0,59.86371426178474,2026-01-22 11h26.18.580262 +0530,
42,0,43,n,3.607613300002413,None,43,0,42,216.9028867999732,,,,,,,,,,,,,,,,,,,,,,,,,,,,,,,,,,,,,,,,,,,,,,,,,,216.88692659998196,216.9028867999732,217.41802659997484,217.3862923999841,217.41564289998496,217.41802659997484,217.41802659997484,217.41802659997484,221.03647609998006,Objects\111b.jpg,post,n,3.607613300002413,None,,,,,,,,00032,001,2026-01-22_11h26.12.622,MST_test,2024.2.0,59.86371426178474,2026-01-22 11h26.18.580262 +0530,
43,0,44,n,0.9491453000227921,None,44,0,43,221.05249729999923,,,,,,,,,,,,,,,,,,,,,,,,,,,,,,,,,,,,,,,,,,,,,,,,,,221.0368324999872,221.05249729999923,221.56510889998754,221.53619339998113,221.56320079998113,221.56510889998754,221.56510889998754,221.56510889998754,222.51954169999226,Foils\098a.jpg,none,n,0.9491453000227921,None,,,,,,,,00032,001,2026-01-22_11h26.12.622,MST_test,2024.2.0,59.86371426178474,2026-01-22 11h26.18.580262 +0530,
44,0,45,s,1.94970519997878,None,45,0,44,222.53558199998224,,,,,,,,,,,,,,,,,,,,,,,,,,,,,,,,,,,,,,,,,,,,,,,,,,222.51989609998418,222.53558199998224,223.05989689999842,223.0196597999893,223.0575096999819,223.05989689999842,223.05989689999842,223.05989689999842,225.01986069997656,Objects\184b.jpg,post,s,1.94970519997878,None,,,,,,,,00032,001,2026-01-22_11h26.12.622,MST_test,2024.2.0,59.86371426178474,2026-01-22 11h26.18.580262 +0530,
45,0,46,o,1.5615701999922749,None,46,0,45,225.03589969998575,,,,,,,,,,,,,,,,,,,,,,,,,,,,,,,,,,,,,,,,,,,,,,,,,,225.0202134999854,225.03589969998575,225.5362886999792,225.51961359998677,225.53388519998407,225.5362886999792,225.5362886999792,225.5362886999792,227.10315309997532,Scenes\111a.jpg,post,o,1.5615701999922749,None,,,,,,,,00032,001,2026-01-22_11h26.12.622,MST_test,2024.2.0,59.86371426178474,2026-01-22 11h26.18.580262 +0530,
46,0,47,n,1.5260720000078436,None,47,0,46,227.11922739999136,,,,,,,,,,,,,,,,,,,,,,,,,,,,,,,,,,,,,,,,,,,,,,,,,,227.10350769999786,227.11922739999136,227.62750609999057,227.60303329999442,227.62510229999316,227.62750609999057,227.62750609999057,227.62750609999057,229.1701075999881,Objects\189a.jpg,pre,n,1.5260720000078436,None,,,,,,,,00032,001,2026-01-22_11h26.12.622,MST_test,2024.2.0,59.86371426178474,2026-01-22 11h26.18.580262 +0530,
47,0,48,n,1.1297683000157122,None,48,0,47,229.18590199999744,,,,,,,,,,,,,,,,,,,,,,,,,,,,,,,,,,,,,,,,,,,,,,,,,,229.17046759999357,229.18590199999744,229.7037981999747,229.6699122999853,229.70018029998755,229.7037981999747,229.7037981999747,229.7037981999747,230.83635189998313,Foils\scenes8.jpg,none,n,1.1297683000157122,None,,,,,,,,00032,001,2026-01-22_11h26.12.622,MST_test,2024.2.0,59.86371426178474,2026-01-22 11h26.18.580262 +0530,
48,0,49,n,2.0011568999907468,None,49,0,48,230.85206399997696,,,,,,,,,,,,,,,,,,,,,,,,,,,,,,,,,,,,,,,,,,,,,,,,,,230.83673249999993,230.85206399997696,231.36046979998355,231.33667239997885,231.35838439999497,231.36046979998355,231.36046979998355,231.36046979998355,233.36991229999694,Objects\144a.jpg,post,n,2.0011568999907468,None,,,,,,,,00032,001,2026-01-22_11h26.12.622,MST_test,2024.2.0,59.86371426178474,2026-01-22 11h26.18.580262 +0530,
49,0,50,n,2.2494102000200655,None,50,0,49,233.38589759997558,,,,,,,,,,,,,,,,,,,,,,,,,,,,,,,,,,,,,,,,,,,,,,,,,,233.37027609997313,233.38589759997558,233.89651649998268,233.87002839997876,233.89399579999736,233.89651649998268,233.89651649998268,233.89651649998268,236.15315609998652,Scenes\120a.jpg,pre,n,2.2494102000200655,None,,,,,,,,00032,001,2026-01-22_11h26.12.622,MST_test,2024.2.0,59.86371426178474,2026-01-22 11h26.18.580262 +0530,
50,0,51,s,1.709152300027199,None,51,0,50,236.16923229998793,,,,,,,,,,,,,,,,,,,,,,,,,,,,,,,,,,,,,,,,,,,,,,,,,,236.1535413999809,236.16923229998793,236.6926867000002,236.6529584999953,236.68996499999776,236.6926867000002,236.6926867000002,236.6926867000002,238.4032114999718,Foils\057a.jpg,none,s,1.709152300027199,None,,,,,,,,00032,001,2026-01-22_11h26.12.622,MST_test,2024.2.0,59.86371426178474,2026-01-22 11h26.18.580262 +0530,
51,0,52,o,1.2135530000086874,None,52,0,51,238.4199885999842,,,,,,,,,,,,,,,,,,,,,,,,,,,,,,,,,,,,,,,,,,,,,,,,,,238.40357299998868,238.4199885999842,238.92400829997496,238.90290269997786,238.9219942999771,238.92400829997496,238.92400829997496,238.92400829997496,240.15308379998896,Objects\133a.jpg,pre,o,1.2135530000086874,None,,,,,,,,00032,001,2026-01-22_11h26.12.622,MST_test,2024.2.0,59.86371426178474,2026-01-22 11h26.18.580262 +0530,
52,0,53,s,1.2790535000094678,None,53,0,52,240.16935669997474,,,,,,,,,,,,,,,,,,,,,,,,,,,,,,,,,,,,,,,,,,,,,,,,,,240.15346009997302,240.16935669997474,240.68319959999644,240.65287909997278,240.68127929998445,240.68319959999644,240.68319959999644,240.68319959999644,241.9701025999966,Foils\042a.jpg,none,s,1.2790535000094678,None,,,,,,,,00032,001,2026-01-22_11h26.12.622,MST_test,2024.2.0,59.86371426178474,2026-01-22 11h26.18.580262 +0530,
53,0,54,o,1.220071600022493,None,54,0,53,241.9859006999759,,,,,,,,,,,,,,,,,,,,,,,,,,,,,,,,,,,,,,,,,,,,,,,,,,241.97045909997541,241.9859006999759,242.48615309997695,242.4699364999833,242.4779282999807,242.48615309997695,242.48615309997695,242.48615309997695,243.7196024999721,Objects\038a.jpg,mid,o,1.220071600022493,None,,,,,,,,00032,001,2026-01-22_11h26.12.622,MST_test,2024.2.0,59.86371426178474,2026-01-22 11h26.18.580262 +0530,
54,0,55,n,1.6452941999887116,None,55,0,54,243.7366558999929,,,,,,,,,,,,,,,,,,,,,,,,,,,,,,,,,,,,,,,,,,,,,,,,,,243.71997849998297,243.7366558999929,244.2449827999808,244.2196622999909,244.24223799997708,244.2449827999808,244.2449827999808,244.2449827999808,245.90313459999743,Objects\046b.jpg,mid,n,1.6452941999887116,None,,,,,,,,00032,001,2026-01-22_11h26.12.622,MST_test,2024.2.0,59.86371426178474,2026-01-22 11h26.18.580262 +0530,
55,0,56,n,1.0877272000070661,None,56,0,55,245.9192594999913,,,,,,,,,,,,,,,,,,,,,,,,,,,,,,,,,,,,,,,,,,,,,,,,,,245.90351509998436,245.9192594999913,246.44251159997657,246.40327629999956,246.44045339999138,246.44251159997657,246.44251159997657,246.44251159997657,247.53654709999682,Objects\032a.jpg,mid,n,1.0877272000070661,None,,,,,,,,00032,001,2026-01-22_11h26.12.622,MST_test,2024.2.0,59.86371426178474,2026-01-22 11h26.18.580262 +0530,
56,0,57,o,1.5104086000064854,None,57,0,56,247.55250839999644,,,,,,,,,,,,,,,,,,,,,,,,,,,,,,,,,,,,,,,,,,,,,,,,,,247.53700659997412,247.55250839999644,248.05942129998584,248.03679859999102,248.05748799999128,248.05942129998584,248.05942129998584,248.05942129998584,249.58591219998198,Objects\031a.jpg,mid,o,1.5104086000064854,None,,,,,,,,00032,001,2026-01-22_11h26.12.622,MST_test,2024.2.0,59.86371426178474,2026-01-22 11h26.18.580262 +0530,
57,0,58,s,1.7790427000145428,None,58,0,57,249.60193419997813,,,,,,,,,,,,,,,,,,,,,,,,,,,,,,,,,,,,,,,,,,,,,,,,,,249.5862070999865,249.60193419997813,,250.08616819998133,250.11671099998057,250.11872359999688,250.11872359999688,250.11872359999688,251.9031488999899,Objects\152b.jpg,post,s,1.7790427000145428,None,,,,,,,,00032,001,2026-01-22_11h26.12.622,MST_test,2024.2.0,59.86371426178474,2026-01-22 11h26.18.580262 +0530,
58,0,59,n,1.880524600011995,None,59,0,58,251.91916009999113,,,,,,,,,,,,,,,,,,,,,,,,,,,,,,,,,,,,,,,,,,,,,,,,,,251.90352779999375,251.91916009999113,252.42498389998218,252.40288929999224,252.42216169997118,252.42498389998218,252.42498389998218,252.42498389998218,254.3199680999969,Foils\scenes19.jpg,none,n,1.880524600011995,None,,,,,,,,00032,001,2026-01-22_11h26.12.622,MST_test,2024.2.0,59.86371426178474,2026-01-22 11h26.18.580262 +0530,
59,0,60,s,2.3362166000006255,None,60,0,59,254.33589959997335,,,,,,,,,,,,,,,,,,,,,,,,,,,,,,,,,,,,,,,,,,,,,,,,,,254.32032329999493,254.33589959997335,254.89782569999807,254.81932939999388,254.8953223999997,254.89782569999807,254.89782569999807,254.89782569999807,257.236258799996,Scenes\114b.jpg,post,s,2.3362166000006255,None,,,,,,,,00032,001,2026-01-22_11h26.12.622,MST_test,2024.2.0,59.86371426178474,2026-01-22 11h26.18.580262 +0530,
60,0,61,o,1.3821284000005107,None,61,0,60,257.25242879998405,,,,,,,,,,,,,,,,,,,,,,,,,,,,,,,,,,,,,,,,,,,,,,,,,,257.2366385999776,257.25242879998405,257.76355949998833,257.7358030999894,257.7610118999728,257.76355949998833,257.76355949998833,257.76355949998833,259.15321679998306,Scenes\119a.jpg,post,o,1.3821284000005107,None,,,,,,,,00032,001,2026-01-22_11h26.12.622,MST_test,2024.2.0,59.86371426178474,2026-01-22 11h26.18.580262 +0530,
61,0,62,s,1.0178158000053372,None,62,0,61,259.16925009997794,,,,,,,,,,,,,,,,,,,,,,,,,,,,,,,,,,,,,,,,,,,,,,,,,,259.15356949999114,259.16925009997794,259.6878075999848,259.65256999997655,259.6851623999828,259.6878075999848,259.6878075999848,259.6878075999848,260.7198684999894,Scenes\098b.jpg,pre,s,1.0178158000053372,None,,,,,,,,00032,001,2026-01-22_11h26.12.622,MST_test,2024.2.0,59.86371426178474,2026-01-22 11h26.18.580262 +0530,
62,0,63,n,1.8417572999896947,None,63,0,62,260.7354866999958,,,,,,,,,,,,,,,,,,,,,,,,,,,,,,,,,,,,,,,,,,,,,,,,,,260.72024759999476,260.7354866999958,261.3117600999831,261.2193553999823,261.3089497999754,261.3117600999831,261.3117600999831,261.3117600999831,263.16990909999004,Scenes\145b.jpg,mid,n,1.8417572999896947,None,,,,,,,,00032,001,2026-01-22_11h26.12.622,MST_test,2024.2.0,59.86371426178474,2026-01-22 11h26.18.580262 +0530,
63,0,64,o,1.0284429999883287,None,64,0,63,263.1854891999974,,,,,,,,,,,,,,,,,,,,,,,,,,,,,,,,,,,,,,,,,,,,,,,,,,263.17026579999947,263.1854891999974,263.69308969998383,263.6696340999915,263.69062239999766,263.69308969998383,263.69308969998383,263.69308969998383,264.7365208999836,Objects\095a.jpg,pre,o,1.0284429999883287,None,,,,,,,,00032,001,2026-01-22_11h26.12.622,MST_test,2024.2.0,59.86371426178474,2026-01-22 11h26.18.580262 +0530,
64,0,65,o,1.3788918999780435,None,65,0,64,264.7523559999827,,,,,,,,,,,,,,,,,,,,,,,,,,,,,,,,,,,,,,,,,,,,,,,,,,264.736906599981,264.7523559999827,265.25499429999036,265.2367371,265.25245229998836,265.25499429999036,265.25499429999036,265.25499429999036,266.63628449998214,Scenes\052a.jpg,pre,o,1.3788918999780435,None,,,,,,,,00032,001,2026-01-22_11h26.12.622,MST_test,2024.2.0,59.86371426178474,2026-01-22 11h26.18.580262 +0530,
65,0,66,n,2.4986844999948516,None,66,0,65,266.65235909997136,,,,,,,,,,,,,,,,,,,,,,,,,,,,,,,,,,,,,,,,,,,,,,,,,,266.6366446999891,266.65235909997136,267.1830690999923,267.13623819997883,267.1805337999831,267.1830690999923,267.1830690999923,267.1830690999923,269.6865555999975,Foils\017a.jpg,none,n,2.4986844999948516,None,,,,,,,,00032,001,2026-01-22_11h26.12.622,MST_test,2024.2.0,59.86371426178474,2026-01-22 11h26.18.580262 +0530,
66,0,67,o,2.34940330000245,None,67,0,66,269.7025652999873,,,,,,,,,,,,,,,,,,,,,,,,,,,,,,,,,,,,,,,,,,,,,,,,,,269.6869310999755,269.7025652999873,270.22062489998643,270.18607629998587,270.21809839998605,270.22062489998643,270.22062489998643,270.22062489998643,272.58619609999005,Scenes\070a.jpg,post,o,2.34940330000245,None,,,,,,,,00032,001,2026-01-22_11h26.12.622,MST_test,2024.2.0,59.86371426178474,2026-01-22 11h26.18.580262 +0530,
67,0,68,n,1.0716951000213157,None,68,0,67,272.60233619998326,,,,,,,,,,,,,,,,,,,,,,,,,,,,,,,,,,,,,,,,,,,,,,,,,,272.58655359997647,272.60233619998326,,273.08648769999854,273.19893069998943,273.2019048999937,273.2019048999937,273.2019048999937,274.28655819999403,Objects\124a.jpg,mid,n,1.0716951000213157,None,,,,,,,,00032,001,2026-01-22_11h26.12.622,MST_test,2024.2.0,59.86371426178474,2026-01-22 11h26.18.580262 +0530,
68,0,69,s,1.556009299994912,None,69,0,68,274.3026137999841,,,,,,,,,,,,,,,,,,,,,,,,,,,,,,,,,,,,,,,,,,,,,,,,,,274.2869290999952,274.3026137999841,274.80557919997955,274.7860413999879,274.8036996999872,274.80557919997955,274.80557919997955,274.80557919997955,276.3698134999722,Objects\110a.jpg,pre,s,1.556009299994912,None,,,,,,,,00032,001,2026-01-22_11h26.12.622,MST_test,2024.2.0,59.86371426178474,2026-01-22 11h26.18.580262 +0530,
69,0,70,n,3.97423969997908,None,70,0,69,276.38592349999817,,,,,,,,,,,,,,,,,,,,,,,,,,,,,,,,,,,,,,,,,,,,,,,,,,276.37017229999765,276.38592349999817,276.90802029997576,276.8695770999766,276.90553529997123,276.90802029997576,276.90802029997576,276.90802029997576,280.88662159998785,Scenes\140a.jpg,post,n,3.97423969997908,None,,,,,,,,00032,001,2026-01-22_11h26.12.622,MST_test,2024.2.0,59.86371426178474,2026-01-22 11h26.18.580262 +0530,
70,0,71,o,1.4633511999854818,None,71,0,70,280.90249389997916,,,,,,,,,,,,,,,,,,,,,,,,,,,,,,,,,,,,,,,,,,,,,,,,,,280.8870051999984,280.90249389997916,281.4825367999729,281.3861023999925,281.4802516999771,281.4825367999729,281.4825367999729,281.4825367999729,282.9532142999815,Objects\136b.jpg,mid,o,1.4633511999854818,None,,,,,,,,00032,001,2026-01-22_11h26.12.622,MST_test,2024.2.0,59.86371426178474,2026-01-22 11h26.18.580262 +0530,
71,0,72,n,1.071155199984787,None,72,0,71,282.9691616999917,,,,,,,,,,,,,,,,,,,,,,,,,,,,,,,,,,,,,,,,,,,,,,,,,,282.9535738999839,282.9691616999917,283.54708339998615,283.4529681999993,283.54499189998023,283.54708339998615,283.54708339998615,283.54708339998615,284.61956819999614,Objects\192b.jpg,mid,n,1.071155199984787,None,,,,,,,,00032,001,2026-01-22_11h26.12.622,MST_test,2024.2.0,59.86371426178474,2026-01-22 11h26.18.580262 +0530,
72,0,73,o,2.153350999986287,None,73,0,72,284.63574609998614,,,,,,,,,,,,,,,,,,,,,,,,,,,,,,,,,,,,,,,,,,,,,,,,,,284.61991849998594,284.63574609998614,285.13635979997343,285.11950549998437,285.12783779998426,285.13635979997343,285.13635979997343,285.13635979997343,287.3036621999927,Scenes\096a.jpg,post,o,2.153350999986287,None,,,,,,,,00032,001,2026-01-22_11h26.12.622,MST_test,2024.2.0,59.86371426178474,2026-01-22 11h26.18.580262 +0530,
73,0,74,o,1.3002082999737468,None,74,0,73,287.3191952999914,,,,,,,,,,,,,,,,,,,,,,,,,,,,,,,,,,,,,,,,,,,,,,,,,,287.3040506999823,287.3191952999914,287.8375423999969,287.80302709998796,287.8349449999805,287.8375423999969,287.8375423999969,287.8375423999969,289.1532583999797,Scenes\002a.jpg,pre,o,1.3002082999737468,None,,,,,,,,00032,001,2026-01-22_11h26.12.622,MST_test,2024.2.0,59.86371426178474,2026-01-22 11h26.18.580262 +0530,
74,0,75,o,1.1002369000052568,None,75,0,74,289.16917529999046,,,,,,,,,,,,,,,,,,,,,,,,,,,,,,,,,,,,,,,,,,,,,,,,,,289.15361319997464,289.16917529999046,289.6933649999846,289.65296149998903,289.69032049999805,289.6933649999846,289.6933649999846,289.6933649999846,290.80326279997826,Scenes\030b.jpg,post,o,1.1002369000052568,None,,,,,,,,00032,001,2026-01-22_11h26.12.622,MST_test,2024.2.0,59.86371426178474,2026-01-22 11h26.18.580262 +0530,
75,0,76,s,1.935485099995276,None,76,0,75,290.81919979999657,,,,,,,,,,,,,,,,,,,,,,,,,,,,,,,,,,,,,,,,,,,,,,,,,,290.8036188999831,290.81919979999657,291.3387192999944,291.30273139997735,291.33609259998775,291.3387192999944,291.3387192999944,291.3387192999944,293.28655429999344,Objects\002b.jpg,post,s,1.935485099995276,None,,,,,,,,00032,001,2026-01-22_11h26.12.622,MST_test,2024.2.0,59.86371426178474,2026-01-22 11h26.18.580262 +0530,
76,0,77,n,2.609093800012488,None,77,0,76,293.3025847999961,,,,,,,,,,,,,,,,,,,,,,,,,,,,,,,,,,,,,,,,,,,,,,,,,,293.286909699993,293.3025847999961,293.8328347999777,293.7861786999856,293.8300009999948,293.8328347999777,293.8328347999777,293.8328347999777,296.4531220999779,Objects\087a.jpg,post,n,2.609093800012488,None,,,,,,,,00032,001,2026-01-22_11h26.12.622,MST_test,2024.2.0,59.86371426178474,2026-01-22 11h26.18.580262 +0530,
77,0,78,n,1.094150199991418,None,78,0,77,296.46892399998615,,,,,,,,,,,,,,,,,,,,,,,,,,,,,,,,,,,,,,,,,,,,,,,,,,296.4535018999886,296.46892399998615,296.99549179998576,296.9530093999929,296.99277029998484,296.99549179998576,296.99549179998576,296.99549179998576,298.103252299974,Foils\scenes13.jpg,none,n,1.094150199991418,None,,,,,,,,00032,001,2026-01-22_11h26.12.622,MST_test,2024.2.0,59.86371426178474,2026-01-22 11h26.18.580262 +0530,
78,0,79,s,2.5123910999973305,None,79,0,78,298.1191700999916,,,,,,,,,,,,,,,,,,,,,,,,,,,,,,,,,,,,,,,,,,,,,,,,,,298.10361919997376,298.1191700999916,,298.60355609998805,298.64758069999516,298.64989059997606,298.64989059997606,298.64989059997606,301.1704203999834,Scenes\083b.jpg,pre,s,2.5123910999973305,None,,,,,,,,00032,001,2026-01-22_11h26.12.622,MST_test,2024.2.0,59.86371426178474,2026-01-22 11h26.18.580262 +0530,
79,0,80,s,1.0118713999981992,None,80,0,79,301.18590459998813,,,,,,,,,,,,,,,,,,,,,,,,,,,,,,,,,,,,,,,,,,,,,,,,,,301.1707849999948,301.18590459998813,301.71832009998616,301.66932979997364,301.7158713999961,301.71832009998616,301.71832009998616,301.71832009998616,302.7366382999753,Objects\009b.jpg,pre,s,1.0118713999981992,None,,,,,,,,00032,001,2026-01-22_11h26.12.622,MST_test,2024.2.0,59.86371426178474,2026-01-22 11h26.18.580262 +0530,
80,0,81,s,1.0469181000080425,None,81,0,80,302.75228469999274,,,,,,,,,,,,,,,,,,,,,,,,,,,,,,,,,,,,,,,,,,,,,,,,,,302.7370136999816,302.75228469999274,303.28317839998635,303.2362352999917,303.2808569999761,303.28317839998635,303.28317839998635,303.28317839998635,304.3363540999999,Scenes\117b.jpg,mid,s,1.0469181000080425,None,,,,,,,,00032,001,2026-01-22_11h26.12.622,MST_test,2024.2.0,59.86371426178474,2026-01-22 11h26.18.580262 +0530,
81,0,82,s,0.7399059000017587,None,82,0,81,304.3524948999984,,,,,,,,,,,,,,,,,,,,,,,,,,,,,,,,,,,,,,,,,,,,,,,,,,304.3367092999979,304.3524948999984,304.89372289998573,304.8362393999996,304.89105129998643,304.89372289998573,304.89372289998573,304.89372289998573,305.6362578999833,Scenes\141b.jpg,post,s,0.7399059000017587,None,,,,,,,,00032,001,2026-01-22_11h26.12.622,MST_test,2024.2.0,59.86371426178474,2026-01-22 11h26.18.580262 +0530,
82,0,83,n,3.5831223000132013,None,83,0,82,305.652500599972,,,,,,,,,,,,,,,,,,,,,,,,,,,,,,,,,,,,,,,,,,,,,,,,,,305.6366107999929,305.652500599972,306.2347294999927,306.1363088999933,306.23031099999207,306.2347294999927,306.2347294999927,306.2347294999927,309.8195165999932,Foils\scenes15.jpg,none,n,3.5831223000132013,None,,,,,,,,00032,001,2026-01-22_11h26.12.622,MST_test,2024.2.0,59.86371426178474,2026-01-22 11h26.18.580262 +0530,
83,0,84,s,1.5344727000046987,None,84,0,83,309.83577799997875,,,,,,,,,,,,,,,,,,,,,,,,,,,,,,,,,,,,,,,,,,,,,,,,,,309.8198739999789,309.83577799997875,310.3630988999794,310.319577199989,310.3584657999745,310.3630988999794,310.3630988999794,310.3630988999794,311.90303569997195,Scenes\012a.jpg,post,s,1.5344727000046987,None,,,,,,,,00032,001,2026-01-22_11h26.12.622,MST_test,2024.2.0,59.86371426178474,2026-01-22 11h26.18.580262 +0530,
84,0,85,s,3.236656299995957,None,85,0,84,311.91918929998064,,,,,,,,,,,,,,,,,,,,,,,,,,,,,,,,,,,,,,,,,,,,,,,,,,311.9033905999968,311.91918929998064,312.4290910999989,312.40304759997525,312.4266023999953,312.4290910999989,312.4290910999989,312.4290910999989,315.6696328999824,Objects\024a.jpg,pre,s,3.236656299995957,None,,,,,,,,00032,001,2026-01-22_11h26.12.622,MST_test,2024.2.0,59.86371426178474,2026-01-22 11h26.18.580262 +0530,
85,0,86,n,1.0702815999975428,None,86,0,85,315.6857573999732,,,,,,,,,,,,,,,,,,,,,,,,,,,,,,,,,,,,,,,,,,,,,,,,,,315.67000449998886,315.6857573999732,316.20392019997234,316.16976909997175,316.20177119999425,316.20392019997234,316.20392019997234,316.20392019997234,317.28681039999356,Foils\009a.jpg,none,n,1.0702815999975428,None,,,,,,,,00032,001,2026-01-22_11h26.12.622,MST_test,2024.2.0,59.86371426178474,2026-01-22 11h26.18.580262 +0530,
86,0,87,n,2.5606935000105295,None,87,0,86,317.3033230000001,,,,,,,,,,,,,,,,,,,,,,,,,,,,,,,,,,,,,,,,,,,,,,,,,,317.2871812999947,317.3033230000001,317.8647608999745,317.786328599992,317.86224159999983,317.8647608999745,317.8647608999745,317.8647608999745,320.43650039998465,Scenes\076b.jpg,mid,n,2.5606935000105295,None,,,,,,,,00032,001,2026-01-22_11h26.12.622,MST_test,2024.2.0,59.86371426178474,2026-01-22 11h26.18.580262 +0530,
87,0,88,o,1.6910042999952566,None,88,0,87,320.45232129999204,,,,,,,,,,,,,,,,,,,,,,,,,,,,,,,,,,,,,,,,,,,,,,,,,,320.43685999998706,320.45232129999204,320.9593760999851,320.9363173999882,320.9568601999781,320.9593760999851,320.9593760999851,320.9593760999851,322.6529304999858,Objects\004a.jpg,pre,o,1.6910042999952566,None,,,,,,,,00032,001,2026-01-22_11h26.12.622,MST_test,2024.2.0,59.86371426178474,2026-01-22 11h26.18.580262 +0530,
88,0,89,o,1.804235300020082,None,89,0,88,322.6692695999809,,,,,,,,,,,,,,,,,,,,,,,,,,,,,,,,,,,,,,,,,,,,,,,,,,322.6532838999992,322.6692695999809,323.1739677999867,323.153236299986,323.17014169998583,323.1739677999867,323.1739677999867,323.1739677999867,324.98685579997255,Scenes\023a.jpg,pre,o,1.804235300020082,None,,,,,,,,00032,001,2026-01-22_11h26.12.622,MST_test,2024.2.0,59.86371426178474,2026-01-22 11h26.18.580262 +0530,
89,0,90,o,2.8620698000013363,None,90,0,89,325.0025109999988,,,,,,,,,,,,,,,,,,,,,,,,,,,,,,,,,,,,,,,,,,,,,,,,,,324.9872040999762,325.0025109999988,325.51579489998403,325.4861321999924,325.5131703999941,325.51579489998403,325.51579489998403,325.51579489998403,328.3863619999902,Scenes\116a.jpg,mid,o,2.8620698000013363,None,,,,,,,,00032,001,2026-01-22_11h26.12.622,MST_test,2024.2.0,59.86371426178474,2026-01-22 11h26.18.580262 +0530,
90,0,91,s,1.600589299981948,None,91,0,90,328.4023375999823,,,,,,,,,,,,,,,,,,,,,,,,,,,,,,,,,,,,,,,,,,,,,,,,,,328.3867119999777,328.4023375999823,328.9135092999786,328.8861270999769,328.91141639999114,328.9135092999786,328.9135092999786,328.9135092999786,330.52066539999214,Scenes\163a.jpg,pre,s,1.600589299981948,None,,,,,,,,00032,001,2026-01-22_11h26.12.622,MST_test,2024.2.0,59.86371426178474,2026-01-22 11h26.18.580262 +0530,
91,0,92,n,1.1394118999887723,None,92,0,91,330.5359170999727,,,,,,,,,,,,,,,,,,,,,,,,,,,,,,,,,,,,,,,,,,,,,,,,,,330.5210268999799,330.5359170999727,331.0547526999726,331.0196444999892,331.05101759999525,331.0547526999726,331.0547526999726,331.0547526999726,332.2033029999875,Foils\scenes18.jpg,none,n,1.1394118999887723,None,,,,,,,,00032,001,2026-01-22_11h26.12.622,MST_test,2024.2.0,59.86371426178474,2026-01-22 11h26.18.580262 +0530,
92,0,93,o,2.4562878999859095,None,93,0,92,332.21895989999757,,,,,,,,,,,,,,,,,,,,,,,,,,,,,,,,,,,,,,,,,,,,,,,,,,332.2036631999945,332.21895989999757,332.72933689999627,332.70290569998906,332.7267792999919,332.72933689999627,332.72933689999627,332.72933689999627,335.18638479997753,Objects\126a.jpg,pre,o,2.4562878999859095,None,,,,,,,,00032,001,2026-01-22_11h26.12.622,MST_test,2024.2.0,59.86371426178474,2026-01-22 11h26.18.580262 +0530,
93,0,94,s,1.8842558999895118,None,94,0,93,335.2025448999775,,,,,,,,,,,,,,,,,,,,,,,,,,,,,,,,,,,,,,,,,,,,,,,,,,335.18675289998646,335.2025448999775,,335.6878143999784,335.7313331999758,335.7338256999792,335.7338256999792,335.7338256999792,337.6195840999717,Objects\043b.jpg,pre,s,1.8842558999895118,None,,,,,,,,00032,001,2026-01-22_11h26.12.622,MST_test,2024.2.0,59.86371426178474,2026-01-22 11h26.18.580262 +0530,
94,0,95,s,1.0845451999921352,None,95,0,94,337.6364307999902,,,,,,,,,,,,,,,,,,,,,,,,,,,,,,,,,,,,,,,,,,,,,,,,,,337.61993969997275,337.6364307999902,338.18130719999317,338.11965769997914,338.1790315999824,338.18130719999317,338.18130719999317,338.18130719999317,339.2698362999945,Objects\092b.jpg,mid,s,1.0845451999921352,None,,,,,,,,00032,001,2026-01-22_11h26.12.622,MST_test,2024.2.0,59.86371426178474,2026-01-22 11h26.18.580262 +0530,
95,0,96,s,1.2933852999994997,None,96,0,95,339.2857342999778,,,,,,,,,,,,,,,,,,,,,,,,,,,,,,,,,,,,,,,,,,,,,,,,,,339.27020279999124,339.2857342999778,339.82040839997353,339.7698496999801,339.8176936999953,339.82040839997353,339.82040839997353,339.82040839997353,341.11967319998075,Scenes\020b.jpg,mid,s,1.2933852999994997,None,,,,,,,,00032,001,2026-01-22_11h26.12.622,MST_test,2024.2.0,59.86371426178474,2026-01-22 11h26.18.580262 +0530,
96,0,97,s,0.7388621999998577,None,97,0,96,341.13555459998315,,,,,,,,,,,,,,,,,,,,,,,,,,,,,,,,,,,,,,,,,,,,,,,,,,341.1200306999963,341.13555459998315,341.6552993999794,341.61962769998354,341.6522226999805,341.6552993999794,341.6552993999794,341.6552993999794,342.4032487999939,Scenes\181a.jpg,post,s,0.7388621999998577,None,,,,,,,,00032,001,2026-01-22_11h26.12.622,MST_test,2024.2.0,59.86371426178474,2026-01-22 11h26.18.580262 +0530,
97,0,98,o,1.5861804999876767,None,98,0,97,342.4192571999738,,,,,,,,,,,,,,,,,,,,,,,,,,,,,,,,,,,,,,,,,,,,,,,,,,342.40361549999216,342.4192571999738,342.9433802999847,342.9028697999893,342.9398983999854,342.9433802999847,342.9433802999847,342.9433802999847,344.5363955999783,Objects\138b.jpg,post,o,1.5861804999876767,None,,,,,,,,00032,001,2026-01-22_11h26.12.622,MST_test,2024.2.0,59.86371426178474,2026-01-22 11h26.18.580262 +0530,
98,0,99,n,1.4658727000060026,None,99,0,98,344.55229829999735,,,,,,,,,,,,,,,,,,,,,,,,,,,,,,,,,,,,,,,,,,,,,,,,,,344.53675039997324,344.55229829999735,345.0876416999963,345.0361621999764,345.084784799983,345.0876416999963,345.0876416999963,345.0876416999963,346.5706663999881,Scenes\086b.jpg,pre,n,1.4658727000060026,None,,,,,,,,00032,001,2026-01-22_11h26.12.622,MST_test,2024.2.0,59.86371426178474,2026-01-22 11h26.18.580262 +0530,
99,0,100,s,1.4699353000032715,None,100,0,99,346.58591899997555,,,,,,,,,,,,,,,,,,,,,,,,,,,,,,,,,,,,,,,,,,,,,,,,,,346.5710208999808,346.58591899997555,347.1478084999835,347.06934059999185,347.1454346999817,347.1478084999835,347.1478084999835,347.1478084999835,348.61949469998945,Objects\109b.jpg,pre,s,1.4699353000032715,None,,,,,,,,00032,001,2026-01-22_11h26.12.622,MST_test,2024.2.0,59.86371426178474,2026-01-22 11h26.18.580262 +0530,
100,0,101,n,5.159144600009313,None,101,0,100,348.6356778999907,,,,,,,,,,,,,,,,,,,,,,,,,,,,,,,,,,,,,,,,,,,,,,,,,,348.6198691999889,348.6356778999907,349.18653949999134,349.1196952999744,349.18411809997633,349.18653949999134,349.18653949999134,349.18653949999134,354.3530935999879,Scenes\118b.jpg,mid,n,5.159144600009313,None,,,,,,,,00032,001,2026-01-22_11h26.12.622,MST_test,2024.2.0,59.86371426178474,2026-01-22 11h26.18.580262 +0530,
101,0,102,n,1.2631370000017341,None,102,0,101,354.36910739997984,,,,,,,,,,,,,,,,,,,,,,,,,,,,,,,,,,,,,,,,,,,,,,,,,,354.35345209998195,354.36910739997984,354.8825821999926,354.85297419998096,354.8799623999803,354.8825821999926,354.8825821999926,354.8825821999926,356.1529160999926,Scenes\025a.jpg,mid,n,1.2631370000017341,None,,,,,,,,00032,001,2026-01-22_11h26.12.622,MST_test,2024.2.0,59.86371426178474,2026-01-22 11h26.18.580262 +0530,
102,0,103,n,1.2759544999862555,None,103,0,102,356.16917449998436,,,,,,,,,,,,,,,,,,,,,,,,,,,,,,,,,,,,,,,,,,,,,,,,,,356.15326809999533,356.16917449998436,356.70187699998496,356.6529850999941,356.6995286999736,356.70187699998496,356.70187699998496,356.70187699998496,357.98651349998545,Foils\scenes7.jpg,none,n,1.2759544999862555,None,,,,,,,,00032,001,2026-01-22_11h26.12.622,MST_test,2024.2.0,59.86371426178474,2026-01-22 11h26.18.580262 +0530,
103,0,104,s,1.2415686000022106,None,104,0,103,358.00277189997723,,,,,,,,,,,,,,,,,,,,,,,,,,,,,,,,,,,,,,,,,,,,,,,,,,357.9868674999743,358.00277189997723,358.5206253999786,358.4862418999837,358.5184165999817,358.5206253999786,358.5206253999786,358.5206253999786,359.76991509998334,Scenes\035a.jpg,post,s,1.2415686000022106,None,,,,,,,,00032,001,2026-01-22_11h26.12.622,MST_test,2024.2.0,59.86371426178474,2026-01-22 11h26.18.580262 +0530,
104,0,105,s,1.4914192999713123,None,105,0,104,359.78585129999556,,,,,,,,,,,,,,,,,,,,,,,,,,,,,,,,,,,,,,,,,,,,,,,,,,359.77026589997695,359.78585129999556,360.3106239999761,360.2696525999927,360.30781689999276,360.3106239999761,360.3106239999761,360.3106239999761,361.80346639998606,Scenes\008b.jpg,pre,s,1.4914192999713123,None,,,,,,,,00032,001,2026-01-22_11h26.12.622,MST_test,2024.2.0,59.86371426178474,2026-01-22 11h26.18.580262 +0530,
105,0,106,n,1.0688329999975394,None,106,0,105,361.81975919997785,,,,,,,,,,,,,,,,,,,,,,,,,,,,,,,,,,,,,,,,,,,,,,,,,,361.8038186999911,361.81975919997785,362.3332288999809,362.30284759998904,362.33073279997916,362.3332288999809,362.3332288999809,362.3332288999809,363.40341969998553,Objects\023b.jpg,post,n,1.0688329999975394,None,,,,,,,,00032,001,2026-01-22_11h26.12.622,MST_test,2024.2.0,59.86371426178474,2026-01-22 11h26.18.580262 +0530,
106,0,107,o,1.4740039999887813,None,107,0,106,363.4195510999998,,,,,,,,,,,,,,,,,,,,,,,,,,,,,,,,,,,,,,,,,,,,,,,,,,363.40377149998676,363.4195510999998,363.9277387999755,363.9028608999797,363.9251866999839,363.9277387999755,363.9277387999755,363.9277387999755,365.40307119998033,Objects\172a.jpg,mid,o,1.4740039999887813,None,,,,,,,,00032,001,2026-01-22_11h26.12.622,MST_test,2024.2.0,59.86371426178474,2026-01-22 11h26.18.580262 +0530,
107,0,108,n,1.0653277999954298,None,108,0,107,365.41930049998336,,,,,,,,,,,,,,,,,,,,,,,,,,,,,,,,,,,,,,,,,,,,,,,,,,365.4034349999856,365.41930049998336,365.9444149999763,365.90302039997187,365.94210989997373,365.9444149999763,365.9444149999763,365.9444149999763,367.0196936999855,Objects\010b.jpg,mid,n,1.0653277999954298,None,,,,,,,,00032,001,2026-01-22_11h26.12.622,MST_test,2024.2.0,59.86371426178474,2026-01-22 11h26.18.580262 +0530,
108,0,109,n,0.9875136000046041,None,109,0,108,367.0356687999738,,,,,,,,,,,,,,,,,,,,,,,,,,,,,,,,,,,,,,,,,,,,,,,,,,367.0200525999826,367.0356687999738,367.5586547999992,367.51944469998125,367.5560529999784,367.5586547999992,367.5586547999992,367.5586547999992,368.55413029997726,Scenes\037b.jpg,pre,n,0.9875136000046041,None,,,,,,,,00032,001,2026-01-22_11h26.12.622,MST_test,2024.2.0,59.86371426178474,2026-01-22 11h26.18.580262 +0530,
109,0,110,n,2.0471096000110265,None,110,0,109,368.5690685999871,,,,,,,,,,,,,,,,,,,,,,,,,,,,,,,,,,,,,,,,,,,,,,,,,,368.55449849998695,368.5690685999871,369.08257729999605,369.0530360999983,369.08019469998544,369.08257729999605,369.08257729999605,369.08257729999605,371.13650879997294,Foils\101b.jpg,none,n,2.0471096000110265,None,,,,,,,,00032,001,2026-01-22_11h26.12.622,MST_test,2024.2.0,59.86371426178474,2026-01-22 11h26.18.580262 +0530,
110,0,111,s,3.0440957999962848,None,111,0,110,371.15268929998274,,,,,,,,,,,,,,,,,,,,,,,,,,,,,,,,,,,,,,,,,,,,,,,,,,371.13686119997874,371.15268929998274,371.6614767999854,371.6365153999941,371.65920009999536,371.6614767999854,371.6614767999854,371.6614767999854,374.7198055999761,Objects\147a.jpg,mid,s,3.0440957999962848,None,,,,,,,,00032,001,2026-01-22_11h26.12.622,MST_test,2024.2.0,59.86371426178474,2026-01-22 11h26.18.580262 +0530,
111,0,112,n,1.005247799999779,None,112,0,111,374.735895299993,,,,,,,,,,,,,,,,,,,,,,,,,,,,,,,,,,,,,,,,,,,,,,,,,,374.72020799998427,374.735895299993,375.26060759997927,375.21964249998564,375.2580201999808,375.26060759997927,375.26060759997927,375.26060759997927,376.27084389998345,Scenes\168b.jpg,pre,n,1.005247799999779,None,,,,,,,,00032,001,2026-01-22_11h26.12.622,MST_test,2024.2.0,59.86371426178474,2026-01-22 11h26.18.580262 +0530,
112,0,113,o,1.1820677999930922,None,113,0,112,376.2858594999998,,,,,,,,,,,,,,,,,,,,,,,,,,,,,,,,,,,,,,,,,,,,,,,,,,376.2711971999961,376.2858594999998,376.79551159997936,376.7696639999922,376.79299479999463,376.79551159997936,376.79551159997936,376.79551159997936,377.98649559999467,Objects\134a.jpg,mid,o,1.1820677999930922,None,,,,,,,,00032,001,2026-01-22_11h26.12.622,MST_test,2024.2.0,59.86371426178474,2026-01-22 11h26.18.580262 +0530,
113,0,114,n,3.186127100023441,None,114,0,113,378.00259149997146,,,,,,,,,,,,,,,,,,,,,,,,,,,,,,,,,,,,,,,,,,,,,,,,,,377.98687359999167,378.00259149997146,378.5114123999956,378.4866592999897,378.5089039999875,378.5114123999956,378.5114123999956,378.5114123999956,381.7029451999988,Scenes\153a.jpg,post,n,3.186127100023441,None,,,,,,,,00032,001,2026-01-22_11h26.12.622,MST_test,2024.2.0,59.86371426178474,2026-01-22 11h26.18.580262 +0530,
114,0,115,s,1.531326700001955,None,115,0,114,381.71916489998694,,,,,,,,,,,,,,,,,,,,,,,,,,,,,,,,,,,,,,,,,,,,,,,,,,381.7033049999736,381.71916489998694,382.25416719997884,382.20297579999897,382.25139469999704,382.25416719997884,382.25416719997884,382.25416719997884,383.7867903999868,Scenes\165b.jpg,pre,s,1.531326700001955,None,,,,,,,,00032,001,2026-01-22_11h26.12.622,MST_test,2024.2.0,59.86371426178474,2026-01-22 11h26.18.580262 +0530,
115,0,116,s,1.2118715000106022,None,116,0,115,383.80279039999004,,,,,,,,,,,,,,,,,,,,,,,,,,,,,,,,,,,,,,,,,,,,,,,,,,383.7871600999788,383.80279039999004,384.3257658999937,384.28612509998493,384.3232360999973,384.3257658999937,384.3257658999937,384.3257658999937,385.553158499999,Objects\014b.jpg,mid,s,1.2118715000106022,None,,,,,,,,00032,001,2026-01-22_11h26.12.622,MST_test,2024.2.0,59.86371426178474,2026-01-22 11h26.18.580262 +0530,
116,0,117,s,0.9913083000283223,None,117,0,116,385.569254299975,,,,,,,,,,,,,,,,,,,,,,,,,,,,,,,,,,,,,,,,,,,,,,,,,,385.5535131999932,385.569254299975,386.08322019997286,386.05299559998093,386.0813096999773,386.08322019997286,386.08322019997286,386.08322019997286,387.086579899973,Objects\161b.jpg,post,s,0.9913083000283223,None,,,,,,,,00032,001,2026-01-22_11h26.12.622,MST_test,2024.2.0,59.86371426178474,2026-01-22 11h26.18.580262 +0530,
117,0,118,s,1.3791234999953303,None,118,0,117,387.1025238999864,,,,,,,,,,,,,,,,,,,,,,,,,,,,,,,,,,,,,,,,,,,,,,,,,,387.0869474999781,387.1025238999864,387.6226613999752,387.58612029999495,387.62062689999584,387.6226613999752,387.6226613999752,387.6226613999752,389.00317259997246,Objects\108b.jpg,pre,s,1.3791234999953303,None,,,,,,,,00032,001,2026-01-22_11h26.12.622,MST_test,2024.2.0,59.86371426178474,2026-01-22 11h26.18.580262 +0530,
118,0,119,s,0.8264441000064835,None,119,0,118,389.01893579997704,,,,,,,,,,,,,,,,,,,,,,,,,,,,,,,,,,,,,,,,,,,,,,,,,,389.0035297999857,389.01893579997704,389.58368209999753,389.50298949997523,389.58098659999087,389.58368209999753,389.58368209999753,389.58368209999753,390.42041899997275,Objects\145b.jpg,pre,s,0.8264441000064835,None,,,,,,,,00032,001,2026-01-22_11h26.12.622,MST_test,2024.2.0,59.86371426178474,2026-01-22 11h26.18.580262 +0530,
119,0,120,s,1.3500441000214778,None,120,0,119,390.4358549999888,,,,,,,,,,,,,,,,,,,,,,,,,,,,,,,,,,,,,,,,,,,,,,,,,,390.42079419997754,390.4358549999888,390.9554372999992,390.9196467999718,390.9528343999991,390.9554372999992,390.9554372999992,390.9554372999992,392.3196933999716,Scenes\031a.jpg,post,s,1.3500441000214778,None,,,,,,,,00032,001,2026-01-22_11h26.12.622,MST_test,2024.2.0,59.86371426178474,2026-01-22 11h26.18.580262 +0530,
120,0,121,n,2.3330585999938194,None,121,0,120,392.3357387999713,,,,,,,,,,,,,,,,,,,,,,,,,,,,,,,,,,,,,,,,,,,,,,,,,,392.3200490999734,392.3357387999713,392.86097219999647,392.81975839997176,392.8577798999904,392.86097219999647,392.86097219999647,392.86097219999647,395.2032291999785,Foils\074a.jpg,none,n,2.3330585999938194,None,,,,,,,,00032,001,2026-01-22_11h26.12.622,MST_test,2024.2.0,59.86371426178474,2026-01-22 11h26.18.580262 +0530,
121,0,122,o,1.4812400999944657,None,122,0,121,395.2190094999969,,,,,,,,,,,,,,,,,,,,,,,,,,,,,,,,,,,,,,,,,,,,,,,,,,395.20362259997637,395.2190094999969,395.7288902999717,395.7030173999956,395.72635819998686,395.7288902999717,395.7288902999717,395.7288902999717,397.2198947999859,Objects\020a.jpg,post,o,1.4812400999944657,None,,,,,,,,00032,001,2026-01-22_11h26.12.622,MST_test,2024.2.0,59.86371426178474,2026-01-22 11h26.18.580262 +0530,
122,0,123,n,3.6172084000136238,None,123,0,122,397.2358556999825,,,,,,,,,,,,,,,,,,,,,,,,,,,,,,,,,,,,,,,,,,,,,,,,,,397.2202937999973,397.2358556999825,397.7449749999796,397.719437199994,397.7430709999753,397.7449749999796,397.7449749999796,397.7449749999796,401.36982069999794,Objects\107b.jpg,post,n,3.6172084000136238,None,,,,,,,,00032,001,2026-01-22_11h26.12.622,MST_test,2024.2.0,59.86371426178474,2026-01-22 11h26.18.580262 +0530,
123,0,124,s,1.132198100007372,None,124,0,123,401.3859254999843,,,,,,,,,,,,,,,,,,,,,,,,,,,,,,,,,,,,,,,,,,,,,,,,,,401.3701912999968,401.3859254999843,401.8860203999793,401.86967399998684,401.88365089998115,401.8860203999793,401.8860203999793,401.8860203999793,403.01969639997697,Scenes\154a.jpg,mid,s,1.132198100007372,None,,,,,,,,00032,001,2026-01-22_11h26.12.622,MST_test,2024.2.0,59.86371426178474,2026-01-22 11h26.18.580262 +0530,
124,0,125,n,1.704190499993274,None,125,0,124,403.03590199997416,,,,,,,,,,,,,,,,,,,,,,,,,,,,,,,,,,,,,,,,,,,,,,,,,,403.0200564999832,403.03590199997416,403.5693129999854,403.5196297999937,403.56681339998613,403.5693129999854,403.5693129999854,403.5693129999854,405.2863877999771,Scenes\157b.jpg,pre,n,1.704190499993274,None,,,,,,,,00032,001,2026-01-22_11h26.12.622,MST_test,2024.2.0,59.86371426178474,2026-01-22 11h26.18.580262 +0530,
125,0,126,n,4.771559199987678,None,126,0,125,405.3021368999907,,,,,,,,,,,,,,,,,,,,,,,,,,,,,,,,,,,,,,,,,,,,,,,,,,405.2867155999993,405.3021368999907,405.81399009999586,405.7861505999754,405.8114648999763,405.81399009999586,405.81399009999586,405.81399009999586,410.58666749999975,Scenes\006a.jpg,post,n,4.771559199987678,None,,,,,,,,00032,001,2026-01-22_11h26.12.622,MST_test,2024.2.0,59.86371426178474,2026-01-22 11h26.18.580262 +0530,
126,0,127,n,2.856320199993206,None,127,0,126,410.60210959997494,,,,,,,,,,,,,,,,,,,,,,,,,,,,,,,,,,,,,,,,,,,,,,,,,,410.58702399997856,410.60210959997494,411.11324929998955,411.0859201999847,411.11080169997877,411.11324929998955,411.11324929998955,411.11324929998955,413.98657149999053,Scenes\095a.jpg,mid,n,2.856320199993206,None,,,,,,,,00032,001,2026-01-22_11h26.12.622,MST_test,2024.2.0,59.86371426178474,2026-01-22 11h26.18.580262 +0530,
127,0,128,s,1.2878937000059523,None,128,0,127,414.00251679998473,,,,,,,,,,,,,,,,,,,,,,,,,,,,,,,,,,,,,,,,,,,,,,,,,,413.9869622999977,414.00251679998473,414.52956089997315,414.48638539999956,414.52645929998835,414.52956089997315,414.52956089997315,414.52956089997315,415.8200063999975,Scenes\138b.jpg,pre,s,1.2878937000059523,None,,,,,,,,00032,001,2026-01-22_11h26.12.622,MST_test,2024.2.0,59.86371426178474,2026-01-22 11h26.18.580262 +0530,
128,0,129,n,1.3455770000000484,None,129,0,128,415.83552649998455,,,,,,,,,,,,,,,,,,,,,,,,,,,,,,,,,,,,,,,,,,,,,,,,,,415.82037269999273,415.83552649998455,416.359878999996,416.31965699998545,416.35753039998235,416.359878999996,416.359878999996,416.359878999996,417.719895599992,Foils\scenes30.jpg,none,n,1.3455770000000484,None,,,,,,,,00032,001,2026-01-22_11h26.12.622,MST_test,2024.2.0,59.86371426178474,2026-01-22 11h26.18.580262 +0530,
129,0,130,n,1.1651278999925125,None,130,0,129,417.7358675999858,,,,,,,,,,,,,,,,,,,,,,,,,,,,,,,,,,,,,,,,,,,,,,,,,,417.72026209998876,417.7358675999858,418.27643139997963,418.219386199984,418.2736226999841,418.27643139997963,418.27643139997963,418.27643139997963,419.45325499997125,Foils\scenes28.jpg,none,n,1.1651278999925125,None,,,,,,,,00032,001,2026-01-22_11h26.12.622,MST_test,2024.2.0,59.86371426178474,2026-01-22 11h26.18.580262 +0530,
130,0,131,s,1.1280758999928366,None,131,0,130,419.4692242999736,,,,,,,,,,,,,,,,,,,,,,,,,,,,,,,,,,,,,,,,,,,,,,,,,,419.45360479998635,419.4692242999736,419.9700177999912,419.9526863999781,419.96260039997287,419.9700177999912,419.9700177999912,419.9700177999912,421.10322809999343,Objects\153a.jpg,post,s,1.1280758999928366,None,,,,,,,,00032,001,2026-01-22_11h26.12.622,MST_test,2024.2.0,59.86371426178474,2026-01-22 11h26.18.580262 +0530,
131,0,132,s,2.358168399980059,None,132,0,131,421.1190357999876,,,,,,,,,,,,,,,,,,,,,,,,,,,,,,,,,,,,,,,,,,,,,,,,,,421.10358169997926,421.1190357999876,421.61944269997184,421.6029844999721,421.6114683999913,421.61944269997184,421.61944269997184,421.61944269997184,423.98657149999053,Objects\084a.jpg,mid,s,2.358168399980059,None,,,,,,,,00032,001,2026-01-22_11h26.12.622,MST_test,2024.2.0,59.86371426178474,2026-01-22 11h26.18.580262 +0530,
132,0,133,s,3.914950000005774,None,133,0,132,424.0025292999926,,,,,,,,,,,,,,,,,,,,,,,,,,,,,,,,,,,,,,,,,,,,,,,,,,423.9869262999855,424.0025292999926,424.51859479999985,424.4863187999872,424.5158981999848,424.51859479999985,424.51859479999985,424.51859479999985,428.4366668999719,Objects\169b.jpg,pre,s,3.914950000005774,None,,,,,,,,00032,001,2026-01-22_11h26.12.622,MST_test,2024.2.0,59.86371426178474,2026-01-22 11h26.18.580262 +0530,
133,0,134,s,1.2218881000007968,None,134,0,133,428.45259369999985,,,,,,,,,,,,,,,,,,,,,,,,,,,,,,,,,,,,,,,,,,,,,,,,,,428.43708619999234,428.45259369999985,428.97182869998505,428.93619619999663,428.9695835999737,428.97182869998505,428.97182869998505,428.97182869998505,430.203257199988,Scenes\014b.jpg,post,s,1.2218881000007968,None,,,,,,,,00032,001,2026-01-22_11h26.12.622,MST_test,2024.2.0,59.86371426178474,2026-01-22 11h26.18.580262 +0530,
134,0,135,s,0.8182317999890074,None,135,0,134,430.21921529999236,,,,,,,,,,,,,,,,,,,,,,,,,,,,,,,,,,,,,,,,,,,,,,,,,,430.20361229998525,430.21921529999236,430.7194642999966,430.7029854999855,430.7117239999934,430.7194642999966,430.7194642999966,430.7194642999966,431.5528918999771,Objects\164a.jpg,post,s,0.8182317999890074,None,,,,,,,,00032,001,2026-01-22_11h26.12.622,MST_test,2024.2.0,59.86371426178474,2026-01-22 11h26.18.580262 +0530,
135,0,136,n,2.1697666000109166,None,136,0,135,431.56953199999407,,,,,,,,,,,,,,,,,,,,,,,,,,,,,,,,,,,,,,,,,,,,,,,,,,431.5532484999858,431.56953199999407,432.09587299998384,432.05279679998057,432.0933005999832,432.09587299998384,432.09587299998384,432.09587299998384,434.2697955999756,Foils\020b.jpg,none,n,2.1697666000109166,None,,,,,,,,00032,001,2026-01-22_11h26.12.622,MST_test,2024.2.0,59.86371426178474,2026-01-22 11h26.18.580262 +0530,
136,0,137,s,1.151559299993096,None,137,0,136,434.28706529998453,,,,,,,,,,,,,,,,,,,,,,,,,,,,,,,,,,,,,,,,,,,,,,,,,,434.27015049997135,434.28706529998453,,434.78617029997986,434.81621719998657,434.81826399997226,434.81826399997226,434.81826399997226,435.9867586999899,Objects\183b.jpg,mid,s,1.151559299993096,None,,,,,,,,00032,001,2026-01-22_11h26.12.622,MST_test,2024.2.0,59.86371426178474,2026-01-22 11h26.18.580262 +0530,
137,0,138,n,2.158677400002489,None,138,0,137,436.0023797999893,,,,,,,,,,,,,,,,,,,,,,,,,,,,,,,,,,,,,,,,,,,,,,,,,,435.98714189999737,436.0023797999893,436.5229306999827,436.4862108999805,436.52101259998744,436.5229306999827,436.5229306999827,436.5229306999827,438.6862854999781,Objects\179a.jpg,post,n,2.158677400002489,None,,,,,,,,00032,001,2026-01-22_11h26.12.622,MST_test,2024.2.0,59.86371426178474,2026-01-22 11h26.18.580262 +0530,
138,0,139,o,1.4198564999969676,None,139,0,138,438.7023383999767,,,,,,,,,,,,,,,,,,,,,,,,,,,,,,,,,,,,,,,,,,,,,,,,,,438.6866720999824,438.7023383999767,439.2058138999855,439.1861608999898,439.2035562999954,439.2058138999855,439.2058138999855,439.2058138999855,440.6362384999811,Objects\093a.jpg,mid,o,1.4198564999969676,None,,,,,,,,00032,001,2026-01-22_11h26.12.622,MST_test,2024.2.0,59.86371426178474,2026-01-22 11h26.18.580262 +0530,
139,0,140,s,1.0516961000103038,None,140,0,139,440.6527317999862,,,,,,,,,,,,,,,,,,,,,,,,,,,,,,,,,,,,,,,,,,,,,,,,,,440.6365890999732,440.6527317999862,441.15779399999883,441.136325999978,441.15544809997664,441.15779399999883,441.15779399999883,441.15779399999883,442.21991359998356,Objects\055a.jpg,mid,s,1.0516961000103038,None,,,,,,,,00032,001,2026-01-22_11h26.12.622,MST_test,2024.2.0,59.86371426178474,2026-01-22 11h26.18.580262 +0530,
140,0,141,s,1.3754783000040334,None,141,0,140,442.23592669999925,,,,,,,,,,,,,,,,,,,,,,,,,,,,,,,,,,,,,,,,,,,,,,,,,,442.22026439997717,442.23592669999925,442.7459395999904,442.71957649997785,442.7429025999736,442.7459395999904,442.7459395999904,442.7459395999904,444.1364693999931,Scenes\071a.jpg,mid,s,1.3754783000040334,None,,,,,,,,00032,001,2026-01-22_11h26.12.622,MST_test,2024.2.0,59.86371426178474,2026-01-22 11h26.18.580262 +0530,
141,0,142,s,1.4905718000081833,None,142,0,141,444.1525877999957,,,,,,,,,,,,,,,,,,,,,,,,,,,,,,,,,,,,,,,,,,,,,,,,,,444.13682129999506,444.1525877999957,444.6715378999943,444.6363207999966,444.66920769997523,444.6715378999943,444.6715378999943,444.6715378999943,446.1700266999833,Objects\018b.jpg,pre,s,1.4905718000081833,None,,,,,,,,00032,001,2026-01-22_11h26.12.622,MST_test,2024.2.0,59.86371426178474,2026-01-22 11h26.18.580262 +0530,
142,0,143,s,1.5158316000015475,None,143,0,142,446.1859343999822,,,,,,,,,,,,,,,,,,,,,,,,,,,,,,,,,,,,,,,,,,,,,,,,,,446.1703764999984,446.1859343999822,446.686326199997,446.66945319998194,446.68376749998424,446.686326199997,446.686326199997,446.686326199997,448.2038887999952,Scenes\188a.jpg,mid,s,1.5158316000015475,None,,,,,,,,00032,001,2026-01-22_11h26.12.622,MST_test,2024.2.0,59.86371426178474,2026-01-22 11h26.18.580262 +0530,
143,0,144,n,1.2550556999922264,None,144,0,143,448.21918679997907,,,,,,,,,,,,,,,,,,,,,,,,,,,,,,,,,,,,,,,,,,,,,,,,,,448.2042517999944,448.21918679997907,448.7702654999739,448.7027537999966,448.7677208999812,448.7702654999739,448.7702654999739,448.7702654999739,450.0364309999859,Objects\121b.jpg,post,n,1.2550556999922264,None,,,,,,,,00032,001,2026-01-22_11h26.12.622,MST_test,2024.2.0,59.86371426178474,2026-01-22 11h26.18.580262 +0530,
144,0,145,s,1.2627039999933913,None,145,0,144,450.05317539998214,,,,,,,,,,,,,,,,,,,,,,,,,,,,,,,,,,,,,,,,,,,,,,,,,,450.0366708999791,450.05317539998214,450.55498029998853,450.53631859997404,450.5524830999784,450.55498029998853,450.55498029998853,450.55498029998853,451.8204571999959,Scenes\078a.jpg,mid,s,1.2627039999933913,None,,,,,,,,00032,001,2026-01-22_11h26.12.622,MST_test,2024.2.0,59.86371426178474,2026-01-22 11h26.18.580262 +0530,
145,0,146,s,1.2030358999909367,None,146,0,145,451.8368443999789,,,,,,,,,,,,,,,,,,,,,,,,,,,,,,,,,,,,,,,,,,,,,,,,,,451.82081529998686,451.8368443999789,452.36609809999936,452.31966529999045,452.363509399991,452.36609809999936,452.36609809999936,452.36609809999936,453.5862564999843,Scenes\122b.jpg,mid,s,1.2030358999909367,None,,,,,,,,00032,001,2026-01-22_11h26.12.622,MST_test,2024.2.0,59.86371426178474,2026-01-22 11h26.18.580262 +0530,
146,0,147,s,1.2174999999988358,None,147,0,146,453.60188339999877,,,,,,,,,,,,,,,,,,,,,,,,,,,,,,,,,,,,,,,,,,,,,,,,,,453.5865518999926,453.60188339999877,454.1035753999895,454.085401999997,454.10110699999495,454.1035753999895,454.1035753999895,454.1035753999895,455.33640179998474,Scenes\187a.jpg,mid,s,1.2174999999988358,None,,,,,,,,00032,001,2026-01-22_11h26.12.622,MST_test,2024.2.0,59.86371426178474,2026-01-22 11h26.18.580262 +0530,
147,0,148,n,1.98838359999354,None,148,0,147,455.3519243999908,,,,,,,,,,,,,,,,,,,,,,,,,,,,,,,,,,,,,,,,,,,,,,,,,,455.336576599977,455.3519243999908,455.8771038999839,455.8357710999844,455.87466169998515,455.8771038999839,455.8771038999839,455.8771038999839,457.8697147999774,Scenes\019b.jpg,post,n,1.98838359999354,None,,,,,,,,00032,001,2026-01-22_11h26.12.622,MST_test,2024.2.0,59.86371426178474,2026-01-22 11h26.18.580262 +0530,
148,0,149,n,1.343284600006882,None,149,0,148,457.88554999997723,,,,,,,,,,,,,,,,,,,,,,,,,,,,,,,,,,,,,,,,,,,,,,,,,,457.87007029997767,457.88554999997723,458.40311769998516,458.3695006999769,458.4007853999792,458.40311769998516,458.40311769998516,458.40311769998516,459.7530485999887,Objects\066b.jpg,mid,n,1.343284600006882,None,,,,,,,,00032,001,2026-01-22_11h26.12.622,MST_test,2024.2.0,59.86371426178474,2026-01-22 11h26.18.580262 +0530,
149,0,150,n,1.3750200999784283,None,150,0,149,459.76902429998154,,,,,,,,,,,,,,,,,,,,,,,,,,,,,,,,,,,,,,,,,,,,,,,,,,459.7534055999713,459.76902429998154,460.5463911999832,460.25292009999976,460.5395380999835,460.5463911999832,460.5463911999832,460.5463911999832,461.93704429999343,Foils\scenes26.jpg,none,n,1.3750200999784283,None,,,,,,,,00032,001,2026-01-22_11h26.12.622,MST_test,2024.2.0,59.86371426178474,2026-01-22 11h26.18.580262 +0530,
,,,,,,,,,,,,,,,,,,,,,,,,,,,,,,,,,,,,,,,,,,,,,,,,,,,,,,,,,,,,,,,,,,,,,,,,,461.93727139997645,461.95228139997926,461.95228139997926,463.8031601999828,space,1.8497198999975808,None,00032,001,2026-01-22_11h26.12.622,MST_test,2024.2.0,59.86371426178474,2026-01-22 11h26.18.580262 +0530,
