Sl_no,image_path,thisN,thisTrialN,thisRepN,key_resp_5.keys,key_resp_5.rt,key_resp_5.duration,key_resp_7.keys,key_resp_7.rt,key_resp_7.duration,key_resp_9.keys,key_resp_9.rt,key_resp_9.duration,key_resp_8.keys,key_resp_8.rt,key_resp_8.duration,practice.thisRepN,practice.thisTrialN,practice.thisN,trials.thisRepN,trials.thisTrialN,trials.thisN,thisRow.t,notes,welcome_page.started,text.started,key_resp.started,welcome_page.stopped,key_resp.keys,key_resp.rt,key_resp.duration,instructions.started,ins.started,key_resp_2.started,instructions.stopped,key_resp_2.keys,key_resp_2.rt,key_resp_2.duration,objects_only_instruction.started,text_3.started,key_resp_3.started,objects_only_instruction.stopped,key_resp_3.keys,key_resp_3.rt,key_resp_3.duration,ISI.started,text_4.started,ISI.stopped,practice_block.started,image.started,text_5.started,key_resp_5.started,practice_block.stopped,practice.key_resp_5.keys,practice.key_resp_5.rt,practice.key_resp_5.duration,indoor_outdoor.started,indoor_outdoor.stopped,practice.key_resp_7.keys,text_4.stopped,image.stopped,text_5.stopped,key_resp_5.stopped,text_7.started,key_resp_7.started,practice.key_resp_7.rt,practice.key_resp_7.duration,practice_to_main.started,text_2.started,key_resp_4.started,practice_to_main.stopped,key_resp_4.keys,key_resp_4.rt,key_resp_4.duration,objects.started,image_2.started,text_9.started,key_resp_9.started,objects.stopped,trials.key_resp_9.keys,trials.key_resp_9.rt,trials.key_resp_9.duration,encoding_task.started,encoding_task.stopped,trials.key_resp_8.keys,text_8.started,key_resp_8.started,trials.key_resp_8.rt,trials.key_resp_8.duration,image_2.stopped,text_9.stopped,key_resp_9.stopped,end_experiment.started,text_6.started,key_resp_6.started,end_experiment.stopped,key_resp_6.keys,key_resp_6.rt,key_resp_6.duration,list_of_stimuli,encoding_task_accuracy,participant,session,date,expName,psychopyVersion,frameRate,expStart,
,,,,,,,,,,,,,,,,,,,,,,,,,0.0012096999998902902,0.0026883999998972286,0.0026883999998972286,284.4693284999994,space,284.41055770000094,None,,,,,,,,,,,,,,,,,,,,,,,,,,,,,,,,,,,,,,,,,,,,,,,,,,,,,,,,,,,,,,,,,,,,,,,00030,001,2026-01-21_11h23.46.765,MST_task,2024.2.0,60.074744998203265,2026-01-21 11h23.55.243192 +0530,
,,,,,,,,,,,,,,,,,,,,,,,,,,,,,,,,284.46937980000075,284.4817218999997,284.4817218999997,309.5890299999992,space,25.091325099998357,None,,,,,,,,,,,,,,,,,,,,,,,,,,,,,,,,,,,,,,,,,,,,,,,,,,,,,,,,,,,,,,,,00030,001,2026-01-21_11h23.46.765,MST_task,2024.2.0,60.074744998203265,2026-01-21 11h23.55.243192 +0530,
,,,,,,,,,,,,,,,,,,,,,,,,,,,,,,,,,,,,,,,309.58906090000164,309.6052249000022,309.6052249000022,334.35570369999914,space,24.73663999999917,None,,,,,,,,,,,,,,,,,,,,,,,,,,,,,,,,,,,,,,,,,,,,,,,,,,,,,,,,,00030,001,2026-01-21_11h23.46.765,MST_task,2024.2.0,60.074744998203265,2026-01-21 11h23.55.243192 +0530,
8,practice_images/178a.jpg,0,0,1,j,1.580995799999073,0.17599989999871468,None,,,,,,,,,1,0,0,,,,334.37765710000167,,,,,,,,,,,,,,,,,,,,,,,334.37572870000076,334.37765710000167,334.8720080999992,334.88527389999945,334.91968070000075,334.91968070000075,334.91968070000075,337.8721155000021,j,1.580995799999073,0.17599989999871468,337.87424720000126,337.8742659999989,None,,,,,,,,,,,,,,,,,,,,,,,,,,,,,,,,,,,,,,,,,,,00030,001,2026-01-21_11h23.46.765,MST_task,2024.2.0,60.074744998203265,2026-01-21 11h23.55.243192 +0530,
1,practice_images/013a.jpg,1,1,1,f,2.4641922999981034,0.16800829999920097,None,,,,,,,,,1,1,1,,,,337.8886031000002,,,,,,,,,,,,,,,,,,,,,,,337.87433260000034,337.8886031000002,338.3721793000004,338.3807409000001,338.3886652000001,338.3886652000001,338.3886652000001,341.37227619999976,f,2.4641922999981034,0.16800829999920097,341.37232510000104,341.37233800000104,None,338.3886652000001,341.38860919999934,341.38860919999934,341.38860919999934,,,,,,,,,,,,,,,,,,,,,,,,,,,,,,,,,,,,,,,00030,001,2026-01-21_11h23.46.765,MST_task,2024.2.0,60.074744998203265,2026-01-21 11h23.55.243192 +0530,
2,practice_images/031a.jpg,2,2,1,f,1.2839123000012478,0.18397749999712687,None,,,,,,,,,1,2,2,,,,341.38860919999934,,,,,,,,,,,,,,,,,,,,,,,341.37239950000003,341.38860919999934,341.8720906999988,341.88029240000105,341.8887622000002,341.8887622000002,341.8887622000002,344.87226910000027,f,1.2839123000012478,0.18397749999712687,344.87231840000095,344.8723304000014,None,341.8887622000002,344.88861960000213,344.88861960000213,344.88861960000213,,,,,,,,,,,,,,,,,,,,,,,,,,,,,,,,,,,,,,,00030,001,2026-01-21_11h23.46.765,MST_task,2024.2.0,60.074744998203265,2026-01-21 11h23.55.243192 +0530,
4,practice_images/002b.jpg,3,3,1,j,2.760256000001391,0.1679980999979307,None,,,,,,,,,1,3,3,,,,344.88861960000213,,,,,,,,,,,,,,,,,,,,,,,344.8723922999998,344.88861960000213,345.37211749999915,345.3806218999998,345.38884300000063,345.38884300000063,345.38884300000063,348.3724070999997,j,2.760256000001391,0.1679980999979307,348.3724575999986,348.37247099999877,None,345.38884300000063,348.38855650000187,348.38855650000187,348.38855650000187,,,,,,,,,,,,,,,,,,,,,,,,,,,,,,,,,,,,,,,00030,001,2026-01-21_11h23.46.765,MST_task,2024.2.0,60.074744998203265,2026-01-21 11h23.55.243192 +0530,
3,practice_images/037a.jpg,4,4,1,None,,,f,1.9482105999995838,None,,,,,,,1,4,4,,,,348.38855650000187,,,,,,,,,,,,,,,,,,,,,,,348.37253409999903,348.38855650000187,348.87208720000126,348.88105820000055,348.88881330000004,348.88881330000004,348.88881330000004,351.8722318,None,,,351.87227880000137,353.83890969999993,f,348.88881330000004,351.8884588000001,351.8884588000001,351.8884588000001,351.8884588000001,351.8884588000001,1.9482105999995838,None,,,,,,,,,,,,,,,,,,,,,,,,,,,,,,,,,,,00030,001,2026-01-21_11h23.46.765,MST_task,2024.2.0,60.074744998203265,2026-01-21 11h23.55.243192 +0530,
6,practice_images/158a.jpg,5,5,1,j,1.0251733000004606,0.17606620000151452,None,,,,,,,,,1,5,5,,,,353.85518349999984,,,,,,,,,,,,,,,,,,,,,,,353.8389959999986,353.85518349999984,354.33875999999873,354.347235199999,354.3553877000013,354.3553877000013,354.3553877000013,357.33900189999986,j,1.0251733000004606,0.17606620000151452,357.33905380000215,357.3390670000008,None,354.3553877000013,357.35517379999874,357.35517379999874,357.35517379999874,,,,,,,,,,,,,,,,,,,,,,,,,,,,,,,,,,,,,,,00030,001,2026-01-21_11h23.46.765,MST_task,2024.2.0,60.074744998203265,2026-01-21 11h23.55.243192 +0530,
7,practice_images/166a.jpg,6,6,1,f,1.565288199999486,0.17599660000269068,None,,,,,,,,,1,6,6,,,,357.35517379999874,,,,,,,,,,,,,,,,,,,,,,,357.3391303999997,357.35517379999874,357.838725900001,357.8467191999989,357.8553795000007,357.8553795000007,357.8553795000007,360.8389246000006,f,1.565288199999486,0.17599660000269068,360.83897419999994,360.8389869999992,None,357.8553795000007,360.8551140000018,360.8551140000018,360.8551140000018,,,,,,,,,,,,,,,,,,,,,,,,,,,,,,,,,,,,,,,00030,001,2026-01-21_11h23.46.765,MST_task,2024.2.0,60.074744998203265,2026-01-21 11h23.55.243192 +0530,
10,practice_images/182a.jpg,7,7,1,f,1.0809864999973797,0.18398530000195024,None,,,,,,,,,1,7,7,,,,360.8551140000018,,,,,,,,,,,,,,,,,,,,,,,360.8390493000006,360.8551140000018,361.33872319999864,361.3484564999999,361.3555091999988,361.3555091999988,361.3555091999988,364.33887719999984,f,1.0809864999973797,0.18398530000195024,364.33892710000146,364.33895180000036,None,361.3555091999988,364.3551124000005,364.3551124000005,364.3551124000005,,,,,,,,,,,,,,,,,,,,,,,,,,,,,,,,,,,,,,,00030,001,2026-01-21_11h23.46.765,MST_task,2024.2.0,60.074744998203265,2026-01-21 11h23.55.243192 +0530,
9,practice_images/180a.jpg,8,8,1,f,1.0212176999993972,0.20003409999844735,None,,,,,,,,,1,8,8,,,,364.3551124000005,,,,,,,,,,,,,,,,,,,,,,,364.3390158000002,364.3551124000005,364.83869530000084,364.8468447000014,364.85531600000104,364.85531600000104,364.85531600000104,367.8388507999989,f,1.0212176999993972,0.20003409999844735,367.83890220000103,367.83891479999875,None,364.85531600000104,367.85527139999976,367.85527139999976,367.85527139999976,,,,,,,,,,,,,,,,,,,,,,,,,,,,,,,,,,,,,,,00030,001,2026-01-21_11h23.46.765,MST_task,2024.2.0,60.074744998203265,2026-01-21 11h23.55.243192 +0530,
5,practice_images/139a.jpg,9,9,1,j,1.4172251999989385,0.15296440000020084,None,,,,,,,,,1,9,9,,,,367.85527139999976,,,,,,,,,,,,,,,,,,,,,,,367.83897720000095,367.85527139999976,368.3386458999994,368.3472221000011,368.3554516000004,368.3554516000004,368.3554516000004,371.3389104000016,j,1.4172251999989385,0.15296440000020084,371.3389633000006,371.3389754000018,None,368.3554516000004,371.35533959999884,371.35533959999884,371.35533959999884,,,,,,,,,,,,,,,,,,,,,,,,,,,,,,,,,,,,,,,00030,001,2026-01-21_11h23.46.765,MST_task,2024.2.0,60.074744998203265,2026-01-21 11h23.55.243192 +0530,
,,,,,,,,,,,,,,,,,,,,,,,,,,,,,,,,,,,,,,,,,,,,,,,,,,,,,,,,,,,,,,,,,,,,371.339018900002,371.35533959999884,371.35533959999884,381.4389336999993,space,10.073272099998576,None,,,,,,,,,,,,,,,,,,,,,,,,,,,,00030,001,2026-01-21_11h23.46.765,MST_task,2024.2.0,60.074744998203265,2026-01-21 11h23.55.243192 +0530,
,Scenes\075a.jpg,0,0,1,,,,,,,j,0.9135612999998557,0.15198750000126893,None,,,,,,1,0,0,381.45515539999906,,,,,,,,,,,,,,,,,,,,,,,381.43956120000075,381.45515539999906,381.93865240000014,,,,,,,,,,,,381.96292750000066,,,,,,,,,,,,,,,381.95995849999963,381.96292750000066,381.96292750000066,381.96292750000066,384.95533830000204,j,0.9135612999998557,0.15198750000126893,384.95698640000046,384.9570076000018,None,,,,,,,,,,,,,,,,,00030,001,2026-01-21_11h23.46.765,MST_task,2024.2.0,60.074744998203265,2026-01-21 11h23.55.243192 +0530,
,Scenes\114a.jpg,1,0,2,,,,,,,f,1.6245147000008728,0.1919705000000249,None,,,,,,2,0,1,384.97183470000164,,,,,,,,,,,,,,,,,,,,,,,384.95709740000166,384.97183470000164,385.45541930000036,,,,,,,,,,,,385.4766434000012,,,,,,,,,,,,,,,385.4743821000011,385.4766434000012,385.4766434000012,385.4766434000012,388.47204839999904,f,1.6245147000008728,0.1919705000000249,388.4721074000008,388.4721200000022,None,,,,,,,,,,,,,,,,,00030,001,2026-01-21_11h23.46.765,MST_task,2024.2.0,60.074744998203265,2026-01-21 11h23.55.243192 +0530,
,Scenes\045a.jpg,2,0,3,,,,,,,j,1.2977807999996003,0.16800190000139992,None,,,,,,3,0,2,388.4884282000021,,,,,,,,,,,,,,,,,,,,,,,388.47221060000084,388.4884282000021,388.97208580000006,,,,,,,,,,,,388.99472850000166,,,,,,,,,,,,,,,388.9922676999995,388.99472850000166,388.99472850000166,388.99472850000166,391.98866740000085,j,1.2977807999996003,0.16800190000139992,391.98871879999933,391.988730699999,None,,,,,,,,,,,,,,,,,00030,001,2026-01-21_11h23.46.765,MST_task,2024.2.0,60.074744998203265,2026-01-21 11h23.55.243192 +0530,
,Scenes\115a.jpg,3,0,4,,,,,,,j,1.3222233999986202,0.1760099999992235,None,,,,,,4,0,3,392.0051550999997,,,,,,,,,,,,,,,,,,,,,,,391.9888002000007,392.0051550999997,392.4885828000006,,,,,,,,,,,,392.5064029999994,,,,,,,,,,,,,,,392.5036813000006,392.5064029999994,392.5064029999994,392.5064029999994,395.5053884000008,j,1.3222233999986202,0.1760099999992235,395.5054425999988,395.5054541999998,None,,,,,,,,,,,,,,,,,00030,001,2026-01-21_11h23.46.765,MST_task,2024.2.0,60.074744998203265,2026-01-21 11h23.55.243192 +0530,
,Scenes\054a.jpg,4,0,5,,,,,,,j,1.1537606000019878,0.17600879999736208,None,,,,,,5,0,4,395.52176750000217,,,,,,,,,,,,,,,,,,,,,,,395.5055289000011,395.52176750000217,396.0054182999993,,,,,,,,,,,,396.026769600001,,,,,,,,,,,,,,,396.02442919999885,396.026769600001,396.026769600001,396.026769600001,399.0220264000018,j,1.1537606000019878,0.17600879999736208,399.0220800999996,399.02209159999984,None,,,,,,,,,,,,,,,,,00030,001,2026-01-21_11h23.46.765,MST_task,2024.2.0,60.074744998203265,2026-01-21 11h23.55.243192 +0530,
,Scenes\188a.jpg,5,0,6,,,,,,,j,1.209122700001899,0.19310330000007525,None,,,,,,6,0,5,399.0383280999995,,,,,,,,,,,,,,,,,,,,,,,399.02217889999883,399.0383280999995,399.521991900001,,,,,,,,,,,,399.5396103000021,,,,,,,,,,,,,,,399.53717790000155,399.5396103000021,399.5396103000021,399.5396103000021,402.53866800000105,j,1.209122700001899,0.19310330000007525,402.5387300000002,402.5387422999993,None,,,,,,,,,,,,,,,,,00030,001,2026-01-21_11h23.46.765,MST_task,2024.2.0,60.074744998203265,2026-01-21 11h23.55.243192 +0530,
,Scenes\071a.jpg,6,0,7,,,,,,,None,,,j,2.0134082000004128,None,,,,7,0,6,402.5551431999993,,,,,,,,,,,,,,,,,,,,,,,402.5388098000003,402.5551431999993,403.0386867999987,,,,,,,,,,,,403.0565643000009,,,,,,,,,,,,,,,403.0543328999993,403.0565643000009,403.0565643000009,403.0565643000009,406.05539940000017,None,,,406.05544910000026,408.08878410000034,j,406.0718343000008,406.0718343000008,2.0134082000004128,None,,,,,,,,,,,,,00030,001,2026-01-21_11h23.46.765,MST_task,2024.2.0,60.074744998203265,2026-01-21 11h23.55.243192 +0530,
,Objects\008a.jpg,7,0,8,,,,,,,f,0.9732155000019702,0.19192760000078124,None,,,,,,8,0,7,408.10515569999916,,,,,,,,,,,,,,,,,,,,,,,408.0888732000021,408.10515569999916,408.58864130000075,,,,,,,,,,,,408.60781750000024,,,,,,,,,,,,,,,408.60583640000186,408.60781750000024,408.60781750000024,408.60781750000024,411.60538879999876,f,0.9732155000019702,0.19192760000078124,411.6054418999993,411.6054542999991,None,,,,,,,,,,,,,,,,,00030,001,2026-01-21_11h23.46.765,MST_task,2024.2.0,60.074744998203265,2026-01-21 11h23.55.243192 +0530,
,Objects\092a.jpg,8,0,9,,,,,,,f,1.7225679000002856,0.18439890000081505,None,,,,,,9,0,8,411.6218120000012,,,,,,,,,,,,,,,,,,,,,,,411.60554200000115,411.6218120000012,412.1054203999993,,,,,,,,,,,,412.12205299999914,,,,,,,,,,,,,,,412.11499430000185,412.12205299999914,412.12205299999914,412.12205299999914,415.10568760000024,f,1.7225679000002856,0.18439890000081505,415.105741899999,415.1057526000004,None,,,,,415.1218114000003,415.1218114000003,415.1218114000003,,,,,,,,,,00030,001,2026-01-21_11h23.46.765,MST_task,2024.2.0,60.074744998203265,2026-01-21 11h23.55.243192 +0530,
,Objects\176a.jpg,9,0,10,,,,,,,j,1.0710460000009334,0.18400439999822993,None,,,,,,10,0,9,415.1218114000003,,,,,,,,,,,,,,,,,,,,,,,415.1058383999989,415.1218114000003,415.6053921999992,,,,,,,,,,,,415.6220596000021,,,,,,,,,,,,,,,415.61549000000014,415.6220596000021,415.6220596000021,415.6220596000021,418.6056047999991,j,1.0710460000009334,0.18400439999822993,418.60565660000066,418.6056678999994,None,,,,,418.621816400002,418.621816400002,418.621816400002,,,,,,,,,,00030,001,2026-01-21_11h23.46.765,MST_task,2024.2.0,60.074744998203265,2026-01-21 11h23.55.243192 +0530,
,Objects\091a.jpg,10,0,11,,,,,,,j,1.8985068000001775,0.15310519999911776,None,,,,,,11,0,10,418.621816400002,,,,,,,,,,,,,,,,,,,,,,,418.6057533000021,418.621816400002,419.10531210000045,,,,,,,,,,,,419.1220496999995,,,,,,,,,,,,,,,419.1140059999998,419.1220496999995,419.1220496999995,419.1220496999995,422.1057089999995,j,1.8985068000001775,0.15310519999911776,422.1057624999994,422.10577380000177,None,,,,,422.1217465000009,422.1217465000009,422.1217465000009,,,,,,,,,,00030,001,2026-01-21_11h23.46.765,MST_task,2024.2.0,60.074744998203265,2026-01-21 11h23.55.243192 +0530,
,Objects\028a.jpg,11,0,12,,,,,,,f,1.223355600002833,0.16800079999666195,None,,,,,,12,0,11,422.1217465000009,,,,,,,,,,,,,,,,,,,,,,,422.10585880000144,422.1217465000009,422.60538390000147,,,,,,,,,,,,422.6219874000017,,,,,,,,,,,,,,,422.6170960999989,422.6219874000017,422.6219874000017,422.6219874000017,425.60559210000065,f,1.223355600002833,0.16800079999666195,425.60564370000066,425.6056544999992,None,,,,,425.621807800002,425.621807800002,425.621807800002,,,,,,,,,,00030,001,2026-01-21_11h23.46.765,MST_task,2024.2.0,60.074744998203265,2026-01-21 11h23.55.243192 +0530,
,Objects\186a.jpg,12,0,13,,,,,,,f,1.2347864000003028,0.20804750000024796,None,,,,,,13,0,12,425.621807800002,,,,,,,,,,,,,,,,,,,,,,,425.6057365000015,425.621807800002,426.1053409999986,,,,,,,,,,,,426.12203059999956,,,,,,,,,,,,,,,426.11661580000145,426.12203059999956,426.12203059999956,426.12203059999956,429.105709200001,f,1.2347864000003028,0.20804750000024796,429.1057615999998,429.1057725999999,None,,,,,429.1218125000014,429.1218125000014,429.1218125000014,,,,,,,,,,00030,001,2026-01-21_11h23.46.765,MST_task,2024.2.0,60.074744998203265,2026-01-21 11h23.55.243192 +0530,
,Objects\173a.jpg,13,0,14,,,,,,,f,1.3263863999964087,0.16799600000013015,None,,,,,,14,0,13,429.1218125000014,,,,,,,,,,,,,,,,,,,,,,,429.1058379999995,429.1218125000014,429.6054101000009,,,,,,,,,,,,429.6221250999988,,,,,,,,,,,,,,,429.6152542999989,429.6221250999988,429.6221250999988,429.6221250999988,432.6056881000004,f,1.3263863999964087,0.16799600000013015,432.60574389999965,432.6057553999999,None,,,,,432.62177430000156,432.62177430000156,432.62177430000156,,,,,,,,,,00030,001,2026-01-21_11h23.46.765,MST_task,2024.2.0,60.074744998203265,2026-01-21 11h23.55.243192 +0530,
,Scenes\049a.jpg,14,0,15,,,,,,,j,1.2103974999990896,0.16800589999911608,None,,,,,,15,0,14,432.62177430000156,,,,,,,,,,,,,,,,,,,,,,,432.60584050000034,432.62177430000156,433.1054054000015,,,,,,,,,,,,433.12252720000106,,,,,,,,,,,,,,,433.11995880000177,433.12252720000106,433.12252720000106,433.12252720000106,436.1057972000017,j,1.2103974999990896,0.16800589999911608,436.1058516000012,436.1058626000013,None,,,,,436.12192420000065,436.12192420000065,436.12192420000065,,,,,,,,,,00030,001,2026-01-21_11h23.46.765,MST_task,2024.2.0,60.074744998203265,2026-01-21 11h23.55.243192 +0530,
,Scenes\156a.jpg,15,0,16,,,,,,,j,0.9818144000018947,0.17601159999685478,None,,,,,,16,0,15,436.12192420000065,,,,,,,,,,,,,,,,,,,,,,,436.10594689999925,436.12192420000065,436.6057013999998,,,,,,,,,,,,436.6232874000016,,,,,,,,,,,,,,,436.62085020000086,436.6232874000016,436.6232874000016,436.6232874000016,439.6221700999995,j,0.9818144000018947,0.17601159999685478,439.62222330000077,439.6222353000012,None,,,,,,,,,,,,,,,,,00030,001,2026-01-21_11h23.46.765,MST_task,2024.2.0,60.074744998203265,2026-01-21 11h23.55.243192 +0530,
,Scenes\020a.jpg,16,0,17,,,,,,,f,1.0759715999993205,0.184052900000097,None,,,,,,17,0,16,439.6385460999991,,,,,,,,,,,,,,,,,,,,,,,439.6223221,439.6385460999991,440.1221759,,,,,,,,,,,,440.1444913000014,,,,,,,,,,,,,,,440.1419280000009,440.1444913000014,440.1444913000014,440.1444913000014,443.13877870000215,f,1.0759715999993205,0.184052900000097,443.13883550000173,443.1388470999991,None,,,,,,,,,,,,,,,,,00030,001,2026-01-21_11h23.46.765,MST_task,2024.2.0,60.074744998203265,2026-01-21 11h23.55.243192 +0530,
,Scenes\100a.jpg,17,0,18,,,,,,,f,0.9069809000029636,0.17638199999782955,None,,,,,,18,0,17,443.1552431000018,,,,,,,,,,,,,,,,,,,,,,,443.1389326999997,443.1552431000018,443.63882939999894,,,,,,,,,,,,443.6579946999991,,,,,,,,,,,,,,,443.6554591000022,443.6579946999991,443.6579946999991,443.6579946999991,446.6555284999995,f,0.9069809000029636,0.17638199999782955,446.6556139000022,446.6556261000005,None,,,,,,,,,,,,,,,,,00030,001,2026-01-21_11h23.46.765,MST_task,2024.2.0,60.074744998203265,2026-01-21 11h23.55.243192 +0530,
,Scenes\023a.jpg,18,0,19,,,,,,,f,1.322988500000065,0.20001129999945988,None,,,,,,19,0,18,446.67189860000144,,,,,,,,,,,,,,,,,,,,,,,446.65571420000197,446.67189860000144,447.15544370000134,,,,,,,,,,,,447.1779659999993,,,,,,,,,,,,,,,447.1753150000004,447.1779659999993,447.1779659999993,447.1779659999993,450.1721586999993,f,1.322988500000065,0.20001129999945988,450.1722257000001,450.17223849999937,None,,,,,,,,,,,,,,,,,00030,001,2026-01-21_11h23.46.765,MST_task,2024.2.0,60.074744998203265,2026-01-21 11h23.55.243192 +0530,
,Scenes\025a.jpg,19,0,20,,,,,,,j,0.6877079000005324,0.17600160000074538,None,,,,,,20,0,19,450.18849930000215,,,,,,,,,,,,,,,,,,,,,,,450.17232850000073,450.18849930000215,450.67221810000046,,,,,,,,,,,,450.6935894999988,,,,,,,,,,,,,,,450.69077390000166,450.6935894999988,450.6935894999988,450.6935894999988,453.688906899999,j,0.6877079000005324,0.17600160000074538,453.68895820000034,453.68896999999924,None,,,,,,,,,,,,,,,,,00030,001,2026-01-21_11h23.46.765,MST_task,2024.2.0,60.074744998203265,2026-01-21 11h23.55.243192 +0530,
,Scenes\006a.jpg,20,0,21,,,,,,,j,1.9993219999996654,0.1350696000008611,None,,,,,,21,0,20,453.7052459000006,,,,,,,,,,,,,,,,,,,,,,,453.68903689999934,453.7052459000006,454.18871070000023,,,,,,,,,,,,454.2059698000012,,,,,,,,,,,,,,,454.20273219999945,454.2059698000012,454.2059698000012,454.2059698000012,457.18905780000205,j,1.9993219999996654,0.1350696000008611,457.18911260000095,457.1891238999997,None,,,,,457.2052250000015,457.2052250000015,457.2052250000015,,,,,,,,,,00030,001,2026-01-21_11h23.46.765,MST_task,2024.2.0,60.074744998203265,2026-01-21 11h23.55.243192 +0530,
,Objects\076a.jpg,21,0,22,,,,,,,j,1.7387740000012855,0.16007209999952465,None,,,,,,22,0,21,457.2052250000015,,,,,,,,,,,,,,,,,,,,,,,457.18920069999876,457.2052250000015,457.68886570000177,,,,,,,,,,,,457.7056851999987,,,,,,,,,,,,,,,457.69899929999883,457.7056851999987,457.7056851999987,457.7056851999987,460.6889173000018,j,1.7387740000012855,0.16007209999952465,460.6889694999991,460.6889803000013,None,,,,,460.70525110000017,460.70525110000017,460.70525110000017,,,,,,,,,,00030,001,2026-01-21_11h23.46.765,MST_task,2024.2.0,60.074744998203265,2026-01-21 11h23.55.243192 +0530,
,Objects\021a.jpg,22,0,23,,,,,,,f,1.870918900000106,0.15994560000035563,None,,,,,,23,0,22,460.70525110000017,,,,,,,,,,,,,,,,,,,,,,,460.6890630000016,460.70525110000017,461.18875000000116,,,,,,,,,,,,461.2055798000001,,,,,,,,,,,,,,,461.1981565999995,461.2055798000001,461.2055798000001,461.2055798000001,464.18905540000196,f,1.870918900000106,0.15994560000035563,464.18910719999985,464.1891175000019,None,,,,,464.20524060000025,464.20524060000025,464.20524060000025,,,,,,,,,,00030,001,2026-01-21_11h23.46.765,MST_task,2024.2.0,60.074744998203265,2026-01-21 11h23.55.243192 +0530,
,Objects\068a.jpg,23,0,24,,,,,,,j,1.8269799999980023,0.16800040000089211,None,,,,,,24,0,23,464.20524060000025,,,,,,,,,,,,,,,,,,,,,,,464.1891816999996,464.20524060000025,464.68881469999906,,,,,,,,,,,,464.70554619999893,,,,,,,,,,,,,,,464.6985593999998,464.70554619999893,464.70554619999893,464.70554619999893,467.68905280000035,j,1.8269799999980023,0.16800040000089211,467.68910640000104,467.68911709999884,None,,,,,467.7052545000006,467.7052545000006,467.7052545000006,,,,,,,,,,00030,001,2026-01-21_11h23.46.765,MST_task,2024.2.0,60.074744998203265,2026-01-21 11h23.55.243192 +0530,
,Objects\126a.jpg,24,0,25,,,,,,,j,2.414899899999,0.12799939999968046,None,,,,,,25,0,24,467.7052545000006,,,,,,,,,,,,,,,,,,,,,,,467.6891800000012,467.7052545000006,468.1888030000009,,,,,,,,,,,,468.2055283000009,,,,,,,,,,,,,,,468.1985682000013,468.2055283000009,468.2055283000009,468.2055283000009,471.1890912000017,j,2.414899899999,0.12799939999968046,471.1891456000012,471.18915600000037,None,,,,,471.2052444000001,471.2052444000001,471.2052444000001,,,,,,,,,,00030,001,2026-01-21_11h23.46.765,MST_task,2024.2.0,60.074744998203265,2026-01-21 11h23.55.243192 +0530,
,Objects\123a.jpg,25,0,26,,,,,,,f,1.8674625999992713,0.1691121000003477,None,,,,,,26,0,25,471.2052444000001,,,,,,,,,,,,,,,,,,,,,,,471.1892215000007,471.2052444000001,471.68881390000024,,,,,,,,,,,,471.70533609999984,,,,,,,,,,,,,,,471.69817700000203,471.70533609999984,471.70533609999984,471.70533609999984,474.6890987000006,f,1.8674625999992713,0.1691121000003477,474.68915109999944,474.6891620999995,None,,,,,474.70519160000185,474.70519160000185,474.70519160000185,,,,,,,,,,00030,001,2026-01-21_11h23.46.765,MST_task,2024.2.0,60.074744998203265,2026-01-21 11h23.55.243192 +0530,
,Objects\006a.jpg,26,0,27,,,,,,,j,1.279009000001679,0.19199809999918216,None,,,,,,27,0,26,474.70519160000185,,,,,,,,,,,,,,,,,,,,,,,474.6892267000003,474.70519160000185,475.188779600001,,,,,,,,,,,,475.2055622000007,,,,,,,,,,,,,,,475.1982897000016,475.2055622000007,475.2055622000007,475.2055622000007,478.18892419999975,j,1.279009000001679,0.19199809999918216,478.188977400001,478.18898790000094,None,,,,,478.20523500000127,478.20523500000127,478.20523500000127,,,,,,,,,,00030,001,2026-01-21_11h23.46.765,MST_task,2024.2.0,60.074744998203265,2026-01-21 11h23.55.243192 +0530,
,Objects\005a.jpg,27,0,28,,,,,,,f,2.115387300000293,0.20799510000142618,None,,,,,,28,0,27,478.20523500000127,,,,,,,,,,,,,,,,,,,,,,,478.18905390000145,478.20523500000127,478.688804100002,,,,,,,,,,,,478.7055709000015,,,,,,,,,,,,,,,478.69823499999984,478.7055709000015,478.7055709000015,478.7055709000015,481.68904680000196,f,2.115387300000293,0.20799510000142618,481.68909939999867,481.6891106000003,None,,,,,481.7052298999988,481.7052298999988,481.7052298999988,,,,,,,,,,00030,001,2026-01-21_11h23.46.765,MST_task,2024.2.0,60.074744998203265,2026-01-21 11h23.55.243192 +0530,
,Scenes\003a.jpg,28,0,29,,,,,,,j,1.0115351000022201,0.1520232999973814,None,,,,,,29,0,28,481.7052298999988,,,,,,,,,,,,,,,,,,,,,,,481.6891954999992,481.7052298999988,482.18877150000117,,,,,,,,,,,,482.2097156999989,,,,,,,,,,,,,,,482.20740619999924,482.2097156999989,482.2097156999989,482.2097156999989,485.20548260000214,j,1.0115351000022201,0.1520232999973814,485.20553500000096,485.2055471999993,None,,,,,,,,,,,,,,,,,00030,001,2026-01-21_11h23.46.765,MST_task,2024.2.0,60.074744998203265,2026-01-21 11h23.55.243192 +0530,
,Scenes\163a.jpg,29,0,30,,,,,,,j,1.1133101000013994,0.15996259999883478,None,,,,,,30,0,29,485.2218408000008,,,,,,,,,,,,,,,,,,,,,,,485.20563369999945,485.2218408000008,485.70546979999926,,,,,,,,,,,,485.72312070000044,,,,,,,,,,,,,,,485.7207946000017,485.72312070000044,485.72312070000044,485.72312070000044,488.72214760000134,j,1.1133101000013994,0.15996259999883478,488.7222072000004,488.7222208000021,None,,,,,,,,,,,,,,,,,00030,001,2026-01-21_11h23.46.765,MST_task,2024.2.0,60.074744998203265,2026-01-21 11h23.55.243192 +0530,
,Scenes\152a.jpg,30,0,31,,,,,,,j,1.1178986999984772,0.16801310000300873,None,,,,,,31,0,30,488.73844409999947,,,,,,,,,,,,,,,,,,,,,,,488.722308299999,488.73844409999947,489.2220644000008,,,,,,,,,,,,489.23931770000127,,,,,,,,,,,,,,,489.2371084000006,489.23931770000127,489.23931770000127,489.23931770000127,492.2223405000004,j,1.1178986999984772,0.16801310000300873,492.2223938999996,492.22240410000086,None,,,,,492.2384821000014,492.2384821000014,492.2384821000014,,,,,,,,,,00030,001,2026-01-21_11h23.46.765,MST_task,2024.2.0,60.074744998203265,2026-01-21 11h23.55.243192 +0530,
,Scenes\147a.jpg,31,0,32,,,,,,,j,0.9939981999996235,0.16903630000160774,None,,,,,,32,0,31,492.2384821000014,,,,,,,,,,,,,,,,,,,,,,,492.2224881000002,492.2384821000014,492.72216860000117,,,,,,,,,,,,492.738902699999,,,,,,,,,,,,,,,492.73474120000174,492.738902699999,492.738902699999,492.738902699999,495.7223238000006,j,0.9939981999996235,0.16903630000160774,495.7223763000002,495.72238730000026,None,,,,,495.73854930000016,495.73854930000016,495.73854930000016,,,,,,,,,,00030,001,2026-01-21_11h23.46.765,MST_task,2024.2.0,60.074744998203265,2026-01-21 11h23.55.243192 +0530,
,Scenes\128a.jpg,32,0,33,,,,,,,j,0.9055120000011811,0.15285759999824222,None,,,,,,33,0,32,495.73854930000016,,,,,,,,,,,,,,,,,,,,,,,495.72247140000036,495.73854930000016,496.22204350000175,,,,,,,,,,,,496.2430052000018,,,,,,,,,,,,,,,496.2406312999992,496.2430052000018,496.2430052000018,496.2430052000018,499.2385398000006,j,0.9055120000011811,0.15285759999824222,499.23859359999915,499.23860950000017,None,,,,,,,,,,,,,,,,,00030,001,2026-01-21_11h23.46.765,MST_task,2024.2.0,60.074744998203265,2026-01-21 11h23.55.243192 +0530,
,Scenes\079a.jpg,33,0,34,,,,,,,j,0.849605799998244,0.15996699999959674,None,,,,,,34,0,33,499.2551256000006,,,,,,,,,,,,,,,,,,,,,,,499.23869520000153,499.2551256000006,499.73857489999864,,,,,,,,,,,,499.75566550000076,,,,,,,,,,,,,,,499.7515776,499.75566550000076,499.75566550000076,499.75566550000076,502.7388213000013,j,0.849605799998244,0.15996699999959674,502.7388744000018,502.73888609999995,None,,,,,502.75505519999933,502.75505519999933,502.75505519999933,,,,,,,,,,00030,001,2026-01-21_11h23.46.765,MST_task,2024.2.0,60.074744998203265,2026-01-21 11h23.55.243192 +0530,
,Scenes\059a.jpg,34,0,35,,,,,,,j,1.2023530999977083,0.16797030000088853,None,,,,,,35,0,34,502.75505519999933,,,,,,,,,,,,,,,,,,,,,,,502.73897099999886,502.75505519999933,503.2385304999989,,,,,,,,,,,,503.25888850000047,,,,,,,,,,,,,,,503.2565456000011,503.25888850000047,503.25888850000047,503.25888850000047,506.2553654000003,j,1.2023530999977083,0.16797030000088853,506.2554178999999,506.2554291000015,None,,,,,,,,,,,,,,,,,00030,001,2026-01-21_11h23.46.765,MST_task,2024.2.0,60.074744998203265,2026-01-21 11h23.55.243192 +0530,
,Objects\085a.jpg,35,0,36,,,,,,,f,1.8888263999979245,0.15196569999898202,None,,,,,,36,0,35,506.2717937999987,,,,,,,,,,,,,,,,,,,,,,,506.25551429999905,506.2717937999987,506.7553807000004,,,,,,,,,,,,506.77227960000164,,,,,,,,,,,,,,,506.7658908000012,506.77227960000164,506.77227960000164,506.77227960000164,509.75556890000007,f,1.8888263999979245,0.15196569999898202,509.75562060000084,509.7556317999988,None,,,,,509.7718018000014,509.7718018000014,509.7718018000014,,,,,,,,,,00030,001,2026-01-21_11h23.46.765,MST_task,2024.2.0,60.074744998203265,2026-01-21 11h23.55.243192 +0530,
,Objects\050a.jpg,36,0,37,,,,,,,j,2.028749599998264,0.17599360000167508,None,,,,,,37,0,36,509.7718018000014,,,,,,,,,,,,,,,,,,,,,,,509.7557229000013,509.7718018000014,510.255366100002,,,,,,,,,,,,510.27206450000085,,,,,,,,,,,,,,,510.2652483999991,510.27206450000085,510.27206450000085,510.27206450000085,513.2555336000005,j,2.028749599998264,0.17599360000167508,513.2555848000011,513.2555963000013,None,,,,,513.2717966000018,513.2717966000018,513.2717966000018,,,,,,,,,,00030,001,2026-01-21_11h23.46.765,MST_task,2024.2.0,60.074744998203265,2026-01-21 11h23.55.243192 +0530,
,Objects\077a.jpg,37,0,38,,,,,,,j,1.0491378999977314,0.14387429999987944,None,,,,,,38,0,37,513.2717966000018,,,,,,,,,,,,,,,,,,,,,,,513.2556590000022,513.2717966000018,513.7553754,,,,,,,,,,,,513.7720208999999,,,,,,,,,,,,,,,513.7651097999988,513.7720208999999,513.7720208999999,513.7720208999999,516.7556382000002,j,1.0491378999977314,0.14387429999987944,516.7556920999996,516.7557030999997,None,,,,,516.7717765999987,516.7717765999987,516.7717765999987,,,,,,,,,,00030,001,2026-01-21_11h23.46.765,MST_task,2024.2.0,60.074744998203265,2026-01-21 11h23.55.243192 +0530,
,Objects\159a.jpg,38,0,39,,,,,,,f,2.004718199998024,0.15999600000213832,None,,,,,,39,0,38,516.7717765999987,,,,,,,,,,,,,,,,,,,,,,,516.7557864000009,516.7717765999987,517.2554080000009,,,,,,,,,,,,517.2720179999997,,,,,,,,,,,,,,,517.2649268999994,517.2720179999997,517.2720179999997,517.2720179999997,520.2556374000014,f,2.004718199998024,0.15999600000213832,520.2556887999999,520.2557000000015,None,,,,,520.2718057999991,520.2718057999991,520.2718057999991,,,,,,,,,,00030,001,2026-01-21_11h23.46.765,MST_task,2024.2.0,60.074744998203265,2026-01-21 11h23.55.243192 +0530,
,Objects\132a.jpg,39,0,40,,,,,,,f,1.5452387999976054,0.17599970000082976,None,,,,,,40,0,39,520.2718057999991,,,,,,,,,,,,,,,,,,,,,,,520.255784500001,520.2718057999991,520.755353200002,,,,,,,,,,,,520.772030600001,,,,,,,,,,,,,,,520.7648287000011,520.772030600001,520.772030600001,520.772030600001,523.7557297000021,f,1.5452387999976054,0.17599970000082976,523.7557815,523.7557923000022,None,,,,,523.7717641999989,523.7717641999989,523.7717641999989,,,,,,,,,,00030,001,2026-01-21_11h23.46.765,MST_task,2024.2.0,60.074744998203265,2026-01-21 11h23.55.243192 +0530,
,Objects\179a.jpg,40,0,41,,,,,,,f,1.7887038000008033,0.20798699999795645,None,,,,,,41,0,40,523.7717641999989,,,,,,,,,,,,,,,,,,,,,,,523.7558747000003,523.7717641999989,524.2553779000009,,,,,,,,,,,,524.2720121999992,,,,,,,,,,,,,,,524.2650132999988,524.2720121999992,524.2720121999992,524.2720121999992,527.2556498000013,f,1.7887038000008033,0.20798699999795645,527.2557077999991,527.2557187999992,None,,,,,527.2718137000011,527.2718137000011,527.2718137000011,,,,,,,,,,00030,001,2026-01-21_11h23.46.765,MST_task,2024.2.0,60.074744998203265,2026-01-21 11h23.55.243192 +0530,
,Objects\105a.jpg,41,0,42,,,,,,,None,,,f,0.5934003000002122,None,,,,42,0,41,527.2718137000011,,,,,,,,,,,,,,,,,,,,,,,527.2558104999989,527.2718137000011,527.7553340000013,,,,,,,,,,,,527.7719414999992,,,,,,,,,,,,,,,527.7647342000018,527.7719414999992,527.7719414999992,527.7719414999992,530.7556170999997,None,,,530.7556702000002,531.372284699999,f,530.7717986999996,530.7717986999996,0.5934003000002122,None,530.7717986999996,530.7717986999996,530.7717986999996,,,,,,,,,,00030,001,2026-01-21_11h23.46.765,MST_task,2024.2.0,60.074744998203265,2026-01-21 11h23.55.243192 +0530,
,Scenes\073a.jpg,42,0,43,,,,,,,j,0.9884865999993053,0.1359937000015634,None,,,,,,43,0,42,531.3883066999988,,,,,,,,,,,,,,,,,,,,,,,531.3723704000004,531.3883066999988,531.872045600001,,,,,,,,,,,,531.8887878999994,,,,,,,,,,,,,,,531.886568599999,531.8887878999994,531.8887878999994,531.8887878999994,534.8722277000015,j,0.9884865999993053,0.1359937000015634,534.8722871999998,534.8722990999995,None,,,,,534.8883793999994,534.8883793999994,534.8883793999994,,,,,,,,,,00030,001,2026-01-21_11h23.46.765,MST_task,2024.2.0,60.074744998203265,2026-01-21 11h23.55.243192 +0530,
,Scenes\007a.jpg,43,0,44,,,,,,,f,2.031908699998894,0.1931146000024455,None,,,,,,44,0,43,534.8883793999994,,,,,,,,,,,,,,,,,,,,,,,534.8723877000011,534.8883793999994,535.3722180000004,,,,,,,,,,,,535.3888432999993,,,,,,,,,,,,,,,535.386168699999,535.3888432999993,535.3888432999993,535.3888432999993,538.3722799999996,f,2.031908699998894,0.1931146000024455,538.3723357999988,538.3723472999991,None,,,,,538.3883550999999,538.3883550999999,538.3883550999999,,,,,,,,,,00030,001,2026-01-21_11h23.46.765,MST_task,2024.2.0,60.074744998203265,2026-01-21 11h23.55.243192 +0530,
,Scenes\005a.jpg,44,0,45,,,,,,,f,1.5144444999968982,0.16876200000115205,None,,,,,,45,0,44,538.3883550999999,,,,,,,,,,,,,,,,,,,,,,,538.3724177000004,538.3883550999999,538.8720724000013,,,,,,,,,,,,538.8900930000018,,,,,,,,,,,,,,,538.8878016000017,538.8900930000018,538.8900930000018,538.8900930000018,541.8886176000015,f,1.5144444999968982,0.16876200000115205,541.8886764999988,541.8886889999994,None,,,,,,,,,,,,,,,,,00030,001,2026-01-21_11h23.46.765,MST_task,2024.2.0,60.074744998203265,2026-01-21 11h23.55.243192 +0530,
,Scenes\035a.jpg,45,0,46,,,,,,,j,2.460983599998144,0.14399640000192448,None,,,,,,46,0,45,541.9050520000019,,,,,,,,,,,,,,,,,,,,,,,541.8887563999997,541.9050520000019,542.3886323000006,,,,,,,,,,,,542.4084538999996,,,,,,,,,,,,,,,542.4061961000007,542.4084538999996,542.4084538999996,542.4084538999996,545.4052827000014,j,2.460983599998144,0.14399640000192448,545.4053389000001,545.4053501000017,None,,,,,,,,,,,,,,,,,00030,001,2026-01-21_11h23.46.765,MST_task,2024.2.0,60.074744998203265,2026-01-21 11h23.55.243192 +0530,
,Scenes\010a.jpg,46,0,47,,,,,,,j,0.955996700002288,0.16798779999953695,None,,,,,,47,0,46,545.4217744999987,,,,,,,,,,,,,,,,,,,,,,,545.4054174000012,545.4217744999987,545.9054032000022,,,,,,,,,,,,545.9285721999986,,,,,,,,,,,,,,,545.926479400001,545.9285721999986,545.9285721999986,545.9285721999986,548.9219636000016,j,0.955996700002288,0.16798779999953695,548.9220170000008,548.9220289000004,None,,,,,,,,,,,,,,,,,00030,001,2026-01-21_11h23.46.765,MST_task,2024.2.0,60.074744998203265,2026-01-21 11h23.55.243192 +0530,
,Scenes\047a.jpg,47,0,48,,,,,,,j,1.0416121999987809,0.13590920000206097,None,,,,,,48,0,47,548.9383740000012,,,,,,,,,,,,,,,,,,,,,,,548.9221195999999,548.9383740000012,549.4219775999991,,,,,,,,,,,,549.4438332999998,,,,,,,,,,,,,,,549.441412799999,549.4438332999998,549.4438332999998,549.4438332999998,552.4387888000019,j,1.0416121999987809,0.13590920000206097,552.4388418000017,552.4388532000012,None,,,,,,,,,,,,,,,,,00030,001,2026-01-21_11h23.46.765,MST_task,2024.2.0,60.074744998203265,2026-01-21 11h23.55.243192 +0530,
,Scenes\022a.jpg,48,0,49,,,,,,,j,1.0492378999988432,0.15999939999892376,None,,,,,,49,0,48,552.4550999999992,,,,,,,,,,,,,,,,,,,,,,,552.4389415000005,552.4550999999992,552.9386381000004,,,,,,,,,,,,552.9557171999986,,,,,,,,,,,,,,,552.9497450999988,552.9557171999986,552.9557171999986,552.9557171999986,555.9392487000005,j,1.0492378999988432,0.15999939999892376,555.9393127000003,555.9393244999992,None,,,,,555.9553128000007,555.9553128000007,555.9553128000007,,,,,,,,,,00030,001,2026-01-21_11h23.46.765,MST_task,2024.2.0,60.074744998203265,2026-01-21 11h23.55.243192 +0530,
,Objects\037a.jpg,49,0,50,,,,,,,f,1.253118100001302,0.16006389999893145,None,,,,,,50,0,49,555.9553128000007,,,,,,,,,,,,,,,,,,,,,,,555.9394171000022,555.9553128000007,556.4386879000012,,,,,,,,,,,,556.4556899000017,,,,,,,,,,,,,,,556.449566700001,556.4556899000017,556.4556899000017,556.4556899000017,559.4390612999996,f,1.253118100001302,0.16006389999893145,559.4391135000005,559.4391241000012,None,,,,,559.4552058000008,559.4552058000008,559.4552058000008,,,,,,,,,,00030,001,2026-01-21_11h23.46.765,MST_task,2024.2.0,60.074744998203265,2026-01-21 11h23.55.243192 +0530,
,Objects\046a.jpg,50,0,51,,,,,,,f,1.785096400002658,0.16799519999767654,None,,,,,,51,0,50,559.4552058000008,,,,,,,,,,,,,,,,,,,,,,,559.439207899999,559.4552058000008,559.9387160000006,,,,,,,,,,,,559.9554376000015,,,,,,,,,,,,,,,559.9484205000008,559.9554376000015,559.9554376000015,559.9554376000015,562.9390783999988,f,1.785096400002658,0.16799519999767654,562.9391299999988,562.939140800001,None,,,,,562.9551720000018,562.9551720000018,562.9551720000018,,,,,,,,,,00030,001,2026-01-21_11h23.46.765,MST_task,2024.2.0,60.074744998203265,2026-01-21 11h23.55.243192 +0530,
,Objects\108a.jpg,51,0,52,,,,,,,j,1.1329815999997663,0.15198330000202986,None,,,,,,52,0,51,562.9551720000018,,,,,,,,,,,,,,,,,,,,,,,562.9392049999988,562.9551720000018,563.4387575000001,,,,,,,,,,,,563.4554056999987,,,,,,,,,,,,,,,563.4484759000006,563.4554056999987,563.4554056999987,563.4554056999987,566.4389076000007,j,1.1329815999997663,0.15198330000202986,566.4389609999998,566.4389717000013,None,,,,,566.4552499999991,566.4552499999991,566.4552499999991,,,,,,,,,,00030,001,2026-01-21_11h23.46.765,MST_task,2024.2.0,60.074744998203265,2026-01-21 11h23.55.243192 +0530,
,Objects\148a.jpg,52,0,53,,,,,,,f,1.8089756999979727,0.15207550000195624,None,,,,,,53,0,52,566.4552499999991,,,,,,,,,,,,,,,,,,,,,,,566.439053099999,566.4552499999991,566.938702899999,,,,,,,,,,,,566.9554935999986,,,,,,,,,,,,,,,566.9486999000001,566.9554935999986,566.9554935999986,566.9554935999986,569.9389794000017,f,1.8089756999979727,0.15207550000195624,569.9390310000017,569.9390416999995,None,,,,,569.9552110000004,569.9552110000004,569.9552110000004,,,,,,,,,,00030,001,2026-01-21_11h23.46.765,MST_task,2024.2.0,60.074744998203265,2026-01-21 11h23.55.243192 +0530,
,Objects\182a.jpg,53,0,54,,,,,,,j,2.2609171999974933,0.14399190000040107,None,,,,,,54,0,53,569.9552110000004,,,,,,,,,,,,,,,,,,,,,,,569.9391051999992,569.9552110000004,570.4386899000019,,,,,,,,,,,,570.4554941999995,,,,,,,,,,,,,,,570.4487339000007,570.4554941999995,570.4554941999995,570.4554941999995,573.4392664000006,j,2.2609171999974933,0.14399190000040107,573.4393201000021,573.4393315000016,None,,,,,573.4551284000008,573.4551284000008,573.4551284000008,,,,,,,,,,00030,001,2026-01-21_11h23.46.765,MST_task,2024.2.0,60.074744998203265,2026-01-21 11h23.55.243192 +0530,
,Objects\129a.jpg,54,0,55,,,,,,,f,2.1776107999976375,0.1680865000016638,None,,,,,,55,0,54,573.4551284000008,,,,,,,,,,,,,,,,,,,,,,,573.4393978000007,573.4551284000008,573.9388089000022,,,,,,,,,,,,573.9554429999989,,,,,,,,,,,,,,,573.9485612999997,573.9554429999989,573.9554429999989,573.9554429999989,576.9390525999988,f,2.1776107999976375,0.1680865000016638,576.9391069000012,576.9391178000005,None,,,,,576.9551864999994,576.9551864999994,576.9551864999994,,,,,,,,,,00030,001,2026-01-21_11h23.46.765,MST_task,2024.2.0,60.074744998203265,2026-01-21 11h23.55.243192 +0530,
,Objects\181a.jpg,55,0,56,,,,,,,j,0.9247566999983974,0.15197510000143666,None,,,,,,56,0,55,576.9551864999994,,,,,,,,,,,,,,,,,,,,,,,576.9392023,576.9551864999994,577.4387621999995,,,,,,,,,,,,577.4556082999989,,,,,,,,,,,,,,,577.448707800002,577.4556082999989,577.4556082999989,577.4556082999989,580.4389984000009,j,0.9247566999983974,0.15197510000143666,580.4390534000013,580.4390644000014,None,,,,,580.4552074000021,580.4552074000021,580.4552074000021,,,,,,,,,,00030,001,2026-01-21_11h23.46.765,MST_task,2024.2.0,60.074744998203265,2026-01-21 11h23.55.243192 +0530,
,Scenes\161a.jpg,56,0,57,,,,,,,j,0.982134900001256,0.15999449999799253,None,,,,,,57,0,56,580.4552074000021,,,,,,,,,,,,,,,,,,,,,,,580.4391878999995,580.4552074000021,580.9386870000017,,,,,,,,,,,,580.9584138999999,,,,,,,,,,,,,,,580.9561943000008,580.9584138999999,580.9584138999999,580.9584138999999,583.9554505999986,j,0.982134900001256,0.15999449999799253,583.9555034000005,583.9555146999992,None,,,,,,,,,,,,,,,,,00030,001,2026-01-21_11h23.46.765,MST_task,2024.2.0,60.074744998203265,2026-01-21 11h23.55.243192 +0530,
,Scenes\107a.jpg,57,0,58,,,,,,,j,1.0590921000002709,0.15999590000137687,None,,,,,,58,0,57,583.9717874999988,,,,,,,,,,,,,,,,,,,,,,,583.9556131999998,583.9717874999988,584.4554620000017,,,,,,,,,,,,584.4740663000011,,,,,,,,,,,,,,,584.4716225000011,584.4740663000011,584.4740663000011,584.4740663000011,587.472063199999,j,1.0590921000002709,0.15999590000137687,587.4721156000014,587.4721272999996,None,,,,,,,,,,,,,,,,,00030,001,2026-01-21_11h23.46.765,MST_task,2024.2.0,60.074744998203265,2026-01-21 11h23.55.243192 +0530,
,Scenes\039a.jpg,58,0,59,,,,,,,j,0.8961602999988827,0.1600016999982472,None,,,,,,59,0,58,587.4885235000002,,,,,,,,,,,,,,,,,,,,,,,587.4721969999991,587.4885235000002,587.972076500002,,,,,,,,,,,,587.989021100002,,,,,,,,,,,,,,,587.9852200999994,587.989021100002,587.989021100002,587.989021100002,590.9723283000021,j,0.8961602999988827,0.1600016999982472,590.9723818999992,590.9723928000021,None,,,,,590.9885393000004,590.9885393000004,590.9885393000004,,,,,,,,,,00030,001,2026-01-21_11h23.46.765,MST_task,2024.2.0,60.074744998203265,2026-01-21 11h23.55.243192 +0530,
,Scenes\182a.jpg,59,0,60,,,,,,,j,1.0920155999992858,0.1519990000015241,None,,,,,,60,0,59,590.9885393000004,,,,,,,,,,,,,,,,,,,,,,,590.9724763000013,590.9885393000004,591.4720942000022,,,,,,,,,,,,591.4889760000005,,,,,,,,,,,,,,,591.4863461999994,591.4889760000005,591.4889760000005,591.4889760000005,594.4723612999987,j,1.0920155999992858,0.1519990000015241,594.4724156000011,594.4724266000012,None,,,,,594.4885232000015,594.4885232000015,594.4885232000015,,,,,,,,,,00030,001,2026-01-21_11h23.46.765,MST_task,2024.2.0,60.074744998203265,2026-01-21 11h23.55.243192 +0530,
,Scenes\061a.jpg,60,0,61,,,,,,,j,0.9530572999974538,0.1749937000022328,None,,,,,,61,0,60,594.4885232000015,,,,,,,,,,,,,,,,,,,,,,,594.472491200002,594.4885232000015,594.9721324999991,,,,,,,,,,,,594.9890645000014,,,,,,,,,,,,,,,594.9845449000022,594.9890645000014,594.9890645000014,594.9890645000014,597.9723699999995,j,0.9530572999974538,0.1749937000022328,597.9724242000011,597.972435300002,None,,,,,597.9885193000009,597.9885193000009,597.9885193000009,,,,,,,,,,00030,001,2026-01-21_11h23.46.765,MST_task,2024.2.0,60.074744998203265,2026-01-21 11h23.55.243192 +0530,
,Scenes\138a.jpg,61,0,62,,,,,,,j,0.8842803000006825,0.16008059999876423,None,,,,,,62,0,61,597.9885193000009,,,,,,,,,,,,,,,,,,,,,,,597.9725184999988,597.9885193000009,598.4719483000008,,,,,,,,,,,,598.488753900001,,,,,,,,,,,,,,,598.4863946000005,598.488753900001,598.488753900001,598.488753900001,601.4724100999993,j,0.8842803000006825,0.16008059999876423,601.472464800001,601.472475999999,None,,,,,601.4884468000018,601.4884468000018,601.4884468000018,,,,,,,,,,00030,001,2026-01-21_11h23.46.765,MST_task,2024.2.0,60.074744998203265,2026-01-21 11h23.55.243192 +0530,
,Scenes\096a.jpg,62,0,63,,,,,,,j,0.9037043999996968,0.15999839999858523,None,,,,,,63,0,62,601.4884468000018,,,,,,,,,,,,,,,,,,,,,,,601.4725624999992,601.4884468000018,601.9720949000002,,,,,,,,,,,,601.989040299999,,,,,,,,,,,,,,,601.9837976000017,601.989040299999,601.989040299999,601.989040299999,604.9724377999992,j,0.9037043999996968,0.15999839999858523,604.972490600001,604.9725015000004,None,,,,,604.9885580000009,604.9885580000009,604.9885580000009,,,,,,,,,,00030,001,2026-01-21_11h23.46.765,MST_task,2024.2.0,60.074744998203265,2026-01-21 11h23.55.243192 +0530,
,Objects\171a.jpg,63,0,64,,,,,,,f,1.444179099999019,0.160004299999855,None,,,,,,64,0,63,604.9885580000009,,,,,,,,,,,,,,,,,,,,,,,604.9729109,604.9885580000009,605.4720878000007,,,,,,,,,,,,605.4888379000004,,,,,,,,,,,,,,,605.4826107000008,605.4888379000004,605.4888379000004,605.4888379000004,608.4723946000013,f,1.444179099999019,0.160004299999855,608.4724457000011,608.4724571000006,None,,,,,608.4884468000018,608.4884468000018,608.4884468000018,,,,,,,,,,00030,001,2026-01-21_11h23.46.765,MST_task,2024.2.0,60.074744998203265,2026-01-21 11h23.55.243192 +0530,
,Objects\031a.jpg,64,0,65,,,,,,,f,1.031648899999709,0.17610009999771137,None,,,,,,65,0,64,608.4884468000018,,,,,,,,,,,,,,,,,,,,,,,608.4725408000013,608.4884468000018,608.9720860999987,,,,,,,,,,,,608.9887390000004,,,,,,,,,,,,,,,608.9832465,608.9887390000004,608.9887390000004,608.9887390000004,611.9724160000005,f,1.031648899999709,0.17610009999771137,611.9724786000006,611.972493199999,None,,,,,611.9884677000009,611.9884677000009,611.9884677000009,,,,,,,,,,00030,001,2026-01-21_11h23.46.765,MST_task,2024.2.0,60.074744998203265,2026-01-21 11h23.55.243192 +0530,
,Objects\188a.jpg,65,0,66,,,,,,,f,1.292348499999207,0.16796880000038072,None,,,,,,66,0,65,611.9884677000009,,,,,,,,,,,,,,,,,,,,,,,611.9725787999996,611.9884677000009,612.4720242000003,,,,,,,,,,,,612.4887094000005,,,,,,,,,,,,,,,612.4832559999995,612.4887094000005,612.4887094000005,612.4887094000005,615.4724105999994,f,1.292348499999207,0.16796880000038072,615.472462400001,615.4724729000009,None,,,,,615.4885136000012,615.4885136000012,615.4885136000012,,,,,,,,,,00030,001,2026-01-21_11h23.46.765,MST_task,2024.2.0,60.074744998203265,2026-01-21 11h23.55.243192 +0530,
,Objects\033a.jpg,66,0,67,,,,,,,f,1.7045167000032961,0.17600149999998393,None,,,,,,67,0,66,615.4885136000012,,,,,,,,,,,,,,,,,,,,,,,615.4725581999992,615.4885136000012,615.9720554000014,,,,,,,,,,,,615.9886059000019,,,,,,,,,,,,,,,615.9818298999999,615.9886059000019,615.9886059000019,615.9886059000019,618.9721768000018,f,1.7045167000032961,0.17600149999998393,618.9722299999994,618.9722406000001,None,,,,,618.988354699999,618.988354699999,618.988354699999,,,,,,,,,,00030,001,2026-01-21_11h23.46.765,MST_task,2024.2.0,60.074744998203265,2026-01-21 11h23.55.243192 +0530,
,Objects\101a.jpg,67,0,68,,,,,,,j,1.1162596000031044,0.14444749999893247,None,,,,,,68,0,67,618.988354699999,,,,,,,,,,,,,,,,,,,,,,,618.972312599999,618.988354699999,619.4719452999998,,,,,,,,,,,,619.4885751000002,,,,,,,,,,,,,,,619.4816935000017,619.4885751000002,619.4885751000002,619.4885751000002,622.472278600002,j,1.1162596000031044,0.14444749999893247,622.4723292000017,622.4723397000016,None,,,,,622.4882758000022,622.4882758000022,622.4882758000022,,,,,,,,,,00030,001,2026-01-21_11h23.46.765,MST_task,2024.2.0,60.074744998203265,2026-01-21 11h23.55.243192 +0530,
,Objects\147a.jpg,68,0,69,,,,,,,f,1.0808450000004086,0.15195300000050338,None,,,,,,69,0,68,622.4882758000022,,,,,,,,,,,,,,,,,,,,,,,622.4724038999993,622.4882758000022,622.9719929999992,,,,,,,,,,,,622.9884343000012,,,,,,,,,,,,,,,622.9818083999999,622.9884343000012,622.9884343000012,622.9884343000012,625.9722509000021,f,1.0808450000004086,0.15195300000050338,625.9723030999994,625.9723138000008,None,,,,,625.9883504999998,625.9883504999998,625.9883504999998,,,,,,,,,,00030,001,2026-01-21_11h23.46.765,MST_task,2024.2.0,60.074744998203265,2026-01-21 11h23.55.243192 +0530,
,Objects\089a.jpg,69,0,70,,,,,,,f,2.172795099999348,0.15104280000014114,None,,,,,,70,0,69,625.9883504999998,,,,,,,,,,,,,,,,,,,,,,,625.9723785999995,625.9883504999998,626.4719698000008,,,,,,,,,,,,626.4885986000008,,,,,,,,,,,,,,,626.4816452000014,626.4885986000008,626.4885986000008,626.4885986000008,629.4722465000013,f,2.172795099999348,0.15104280000014114,629.4722999000005,629.4723114000008,None,,,,,629.4882480999986,629.4882480999986,629.4882480999986,,,,,,,,,,00030,001,2026-01-21_11h23.46.765,MST_task,2024.2.0,60.074744998203265,2026-01-21 11h23.55.243192 +0530,
,Scenes\068a.jpg,70,0,71,,,,,,,j,0.6622239999996964,0.16019010000309208,None,,,,,,71,0,70,629.4882480999986,,,,,,,,,,,,,,,,,,,,,,,629.4724100000021,629.4882480999986,629.9719016999989,,,,,,,,,,,,629.9905340000005,,,,,,,,,,,,,,,629.9883535000008,629.9905340000005,629.9905340000005,629.9905340000005,632.9885768000022,j,0.6622239999996964,0.16019010000309208,632.988629200001,632.9886402000011,None,,,,,,,,,,,,,,,,,00030,001,2026-01-21_11h23.46.765,MST_task,2024.2.0,60.074744998203265,2026-01-21 11h23.55.243192 +0530,
,Scenes\081a.jpg,71,0,72,,,,,,,j,0.7269952000024205,0.14399860000048648,None,,,,,,72,0,71,633.0050832000015,,,,,,,,,,,,,,,,,,,,,,,632.9887259999996,633.0050832000015,633.4885073000005,,,,,,,,,,,,633.5096025000021,,,,,,,,,,,,,,,633.5072203000018,633.5096025000021,633.5096025000021,633.5096025000021,636.5052534999995,j,0.7269952000024205,0.14399860000048648,636.5053044999986,636.5053163000011,None,,,,,,,,,,,,,,,,,00030,001,2026-01-21_11h23.46.765,MST_task,2024.2.0,60.074744998203265,2026-01-21 11h23.55.243192 +0530,
,Scenes\095a.jpg,72,0,73,,,,,,,None,,,f,None,None,,,,73,0,72,636.5217369999991,,,,,,,,,,,,,,,,,,,,,,,636.5054012,636.5217369999991,637.0053107999993,,,,,,,,,,,,637.0226199999997,,,,,,,,,,,,,,,637.0203603000009,637.0226199999997,637.0226199999997,637.0226199999997,640.0056256999997,None,,,640.0056741000008,640.1720725000014,f,640.0216800000017,640.0216800000017,None,None,640.0216800000017,640.0216800000017,640.0216800000017,,,,,,,,,,00030,001,2026-01-21_11h23.46.765,MST_task,2024.2.0,60.074744998203265,2026-01-21 11h23.55.243192 +0530,
,Scenes\168a.jpg,73,0,74,,,,,,,j,0.8923190999994404,0.11199960000158171,None,,,,,,74,0,73,640.1882322999991,,,,,,,,,,,,,,,,,,,,,,,640.1721846,640.1882322999991,640.6719990999991,,,,,,,,,,,,640.6888859999999,,,,,,,,,,,,,,,640.6852623000013,640.6888859999999,640.6888859999999,640.6888859999999,643.6723026,j,0.8923190999994404,0.11199960000158171,643.6723585,643.6723697000016,None,,,,,643.6882757000021,643.6882757000021,643.6882757000021,,,,,,,,,,00030,001,2026-01-21_11h23.46.765,MST_task,2024.2.0,60.074744998203265,2026-01-21 11h23.55.243192 +0530,
,Scenes\034a.jpg,74,0,75,,,,,,,f,1.4655132999978377,0.16829150000194204,None,,,,,,75,0,74,643.6882757000021,,,,,,,,,,,,,,,,,,,,,,,643.6724356000013,643.6882757000021,644.1720916000013,,,,,,,,,,,,644.1955025999996,,,,,,,,,,,,,,,644.1931153000005,644.1955025999996,644.1955025999996,644.1955025999996,647.1885953000019,f,1.4655132999978377,0.16829150000194204,647.1886501000008,647.1886618999997,None,,,,,,,,,,,,,,,,,00030,001,2026-01-21_11h23.46.765,MST_task,2024.2.0,60.074744998203265,2026-01-21 11h23.55.243192 +0530,
,Scenes\139a.jpg,75,0,76,,,,,,,j,0.8992197000006854,0.17600080000192975,None,,,,,,76,0,75,647.2051021000007,,,,,,,,,,,,,,,,,,,,,,,647.1887506999992,647.2051021000007,647.688511700002,,,,,,,,,,,,647.7058008000022,,,,,,,,,,,,,,,647.7003229000002,647.7058008000022,647.7058008000022,647.7058008000022,650.6888870000002,j,0.8992197000006854,0.17600080000192975,650.6889379999993,650.6889488000015,None,,,,,650.7050014999986,650.7050014999986,650.7050014999986,,,,,,,,,,00030,001,2026-01-21_11h23.46.765,MST_task,2024.2.0,60.074744998203265,2026-01-21 11h23.55.243192 +0530,
,Scenes\062a.jpg,76,0,77,,,,,,,j,1.2671829999999318,0.16117389999999432,None,,,,,,77,0,76,650.7050014999986,,,,,,,,,,,,,,,,,,,,,,,650.6890428000006,650.7050014999986,651.1885770000008,,,,,,,,,,,,651.2093107000001,,,,,,,,,,,,,,,651.2068160000017,651.2093107000001,651.2093107000001,651.2093107000001,654.205318100001,j,1.2671829999999318,0.16117389999999432,654.2053689000022,654.2053808000019,None,,,,,,,,,,,,,,,,,00030,001,2026-01-21_11h23.46.765,MST_task,2024.2.0,60.074744998203265,2026-01-21 11h23.55.243192 +0530,
,Objects\088a.jpg,77,0,78,,,,,,,f,1.4024165000009816,0.15202539999881992,None,,,,,,78,0,77,654.2216833999992,,,,,,,,,,,,,,,,,,,,,,,654.2054664999996,654.2216833999992,654.7053648000001,,,,,,,,,,,,654.7222489000014,,,,,,,,,,,,,,,654.7158133000012,654.7222489000014,654.7222489000014,654.7222489000014,657.7055489000013,f,1.4024165000009816,0.15202539999881992,657.7055991000016,657.7056096000015,None,,,,,657.7216627999987,657.7216627999987,657.7216627999987,,,,,,,,,,00030,001,2026-01-21_11h23.46.765,MST_task,2024.2.0,60.074744998203265,2026-01-21 11h23.55.243192 +0530,
,Objects\075a.jpg,78,0,79,,,,,,,f,0.7344879000011133,0.18559580000146525,None,,,,,,79,0,78,657.7216627999987,,,,,,,,,,,,,,,,,,,,,,,657.7057041000007,657.7216627999987,658.2052225000007,,,,,,,,,,,,658.2219350000014,,,,,,,,,,,,,,,658.2148793999986,658.2219350000014,658.2219350000014,658.2219350000014,661.2056143000009,f,0.7344879000011133,0.18559580000146525,661.2056649000006,661.2056756999991,None,,,,,661.2217385000004,661.2217385000004,661.2217385000004,,,,,,,,,,00030,001,2026-01-21_11h23.46.765,MST_task,2024.2.0,60.074744998203265,2026-01-21 11h23.55.243192 +0530,
,Objects\112a.jpg,79,0,80,,,,,,,f,1.2267606999994314,0.18505650000224705,None,,,,,,80,0,79,661.2217385000004,,,,,,,,,,,,,,,,,,,,,,,661.205759299999,661.2217385000004,661.7054296999995,,,,,,,,,,,,661.7220625000009,,,,,,,,,,,,,,,661.7151764000009,661.7220625000009,661.7220625000009,661.7220625000009,664.7055583000001,f,1.2267606999994314,0.18505650000224705,664.7056101000016,664.7056206000016,None,,,,,664.7218331000004,664.7218331000004,664.7218331000004,,,,,,,,,,00030,001,2026-01-21_11h23.46.765,MST_task,2024.2.0,60.074744998203265,2026-01-21 11h23.55.243192 +0530,
,Objects\170a.jpg,80,0,81,,,,,,,f,1.0472098999998707,0.1839983999998367,None,,,,,,81,0,80,664.7218331000004,,,,,,,,,,,,,,,,,,,,,,,664.705683799999,664.7218331000004,665.2052289999992,,,,,,,,,,,,665.2219093999993,,,,,,,,,,,,,,,665.2145414000006,665.2219093999993,665.2219093999993,665.2219093999993,668.2054379000001,f,1.0472098999998707,0.1839983999998367,668.205494400001,668.2055112000016,None,,,,,668.2217296000017,668.2217296000017,668.2217296000017,,,,,,,,,,00030,001,2026-01-21_11h23.46.765,MST_task,2024.2.0,60.074744998203265,2026-01-21 11h23.55.243192 +0530,
,Objects\131a.jpg,81,0,82,,,,,,,f,1.618504000001849,0.15999359999841545,None,,,,,,82,0,81,668.2217296000017,,,,,,,,,,,,,,,,,,,,,,,668.2055784000004,668.2217296000017,668.7053263999987,,,,,,,,,,,,668.7219761999986,,,,,,,,,,,,,,,668.7153515999998,668.7219761999986,668.7219761999986,668.7219761999986,671.7055,f,1.618504000001849,0.15999359999841545,671.7055526000004,671.7055636000005,None,,,,,671.7220367000009,671.7220367000009,671.7220367000009,,,,,,,,,,00030,001,2026-01-21_11h23.46.765,MST_task,2024.2.0,60.074744998203265,2026-01-21 11h23.55.243192 +0530,
,Objects\049a.jpg,82,0,83,,,,,,,f,2.479395199999999,0.16025299999819254,None,,,,,,83,0,82,671.7220367000009,,,,,,,,,,,,,,,,,,,,,,,671.705628300002,671.7220367000009,672.2053329000009,,,,,,,,,,,,672.221983200001,,,,,,,,,,,,,,,672.217033500001,672.221983200001,672.221983200001,672.221983200001,675.2055633999989,f,2.479395199999999,0.16025299999819254,675.2056241999999,675.2056359999988,None,,,,,675.2217831999988,675.2217831999988,675.2217831999988,,,,,,,,,,00030,001,2026-01-21_11h23.46.765,MST_task,2024.2.0,60.074744998203265,2026-01-21 11h23.55.243192 +0530,
,Objects\024a.jpg,83,0,84,,,,,,,f,1.5795521000000008,0.16717619999690214,None,,,,,,84,0,83,675.2217831999988,,,,,,,,,,,,,,,,,,,,,,,675.2057017000006,675.2217831999988,675.705305200001,,,,,,,,,,,,675.7219165999995,,,,,,,,,,,,,,,675.7171105999987,675.7219165999995,675.7219165999995,675.7219165999995,678.7056959000001,f,1.5795521000000008,0.16717619999690214,678.7057491000014,678.7057604000001,None,,,,,678.7217511000017,678.7217511000017,678.7217511000017,,,,,,,,,,00030,001,2026-01-21_11h23.46.765,MST_task,2024.2.0,60.074744998203265,2026-01-21 11h23.55.243192 +0530,
,Scenes\117a.jpg,84,0,85,,,,,,,j,0.9029333000034967,0.15107939999870723,None,,,,,,85,0,84,678.7217511000017,,,,,,,,,,,,,,,,,,,,,,,678.7058424999996,678.7217511000017,679.2054432000004,,,,,,,,,,,,679.2223066000006,,,,,,,,,,,,,,,679.218931200001,679.2223066000006,679.2223066000006,679.2223066000006,682.2056929999999,j,0.9029333000034967,0.15107939999870723,682.2057461000004,682.2057572000012,None,,,,,682.2218159000004,682.2218159000004,682.2218159000004,,,,,,,,,,00030,001,2026-01-21_11h23.46.765,MST_task,2024.2.0,60.074744998203265,2026-01-21 11h23.55.243192 +0530,
,Scenes\053a.jpg,85,0,86,,,,,,,j,0.8112627000009525,0.14290059999984805,None,,,,,,86,0,85,682.2218159000004,,,,,,,,,,,,,,,,,,,,,,,682.2058424999996,682.2218159000004,682.7053913999989,,,,,,,,,,,,682.722304400002,,,,,,,,,,,,,,,682.7152418000005,682.722304400002,682.722304400002,682.722304400002,685.7057993000017,j,0.8112627000009525,0.14290059999984805,685.7058503000007,685.7058614999987,None,,,,,685.721752100002,685.721752100002,685.721752100002,,,,,,,,,,00030,001,2026-01-21_11h23.46.765,MST_task,2024.2.0,60.074744998203265,2026-01-21 11h23.55.243192 +0530,
,Scenes\076a.jpg,86,0,87,,,,,,,j,0.9532046999993327,0.1359855000009702,None,,,,,,87,0,86,685.721752100002,,,,,,,,,,,,,,,,,,,,,,,685.7059463000005,685.721752100002,686.2053947999993,,,,,,,,,,,,686.2278073999987,,,,,,,,,,,,,,,686.2256087999995,686.2278073999987,686.2278073999987,686.2278073999987,689.2220799999996,j,0.9532046999993327,0.1359855000009702,689.2221304000013,689.222142300001,None,,,,,,,,,,,,,,,,,00030,001,2026-01-21_11h23.46.765,MST_task,2024.2.0,60.074744998203265,2026-01-21 11h23.55.243192 +0530,
,Scenes\009a.jpg,87,0,88,,,,,,,f,1.8055013999983203,0.1360056000012264,None,,,,,,88,0,87,689.2384001999999,,,,,,,,,,,,,,,,,,,,,,,689.222228300001,689.2384001999999,689.7220049999996,,,,,,,,,,,,689.7428642000013,,,,,,,,,,,,,,,689.740172400001,689.7428642000013,689.7428642000013,689.7428642000013,692.7385861000002,f,1.8055013999983203,0.1360056000012264,692.7386375999995,692.738648999999,None,,,,,,,,,,,,,,,,,00030,001,2026-01-21_11h23.46.765,MST_task,2024.2.0,60.074744998203265,2026-01-21 11h23.55.243192 +0530,
,Scenes\160a.jpg,88,0,89,,,,,,,j,0.7562085999998089,0.135977300000377,None,,,,,,89,0,88,692.755167700001,,,,,,,,,,,,,,,,,,,,,,,692.7387253000015,692.755167700001,693.2385618000008,,,,,,,,,,,,693.2561720000012,,,,,,,,,,,,,,,693.2538432000001,693.2561720000012,693.2561720000012,693.2561720000012,696.2387210999987,j,0.7562085999998089,0.135977300000377,696.2387753000003,696.2387869000013,None,,,,,,,,,,,,,,,,,00030,001,2026-01-21_11h23.46.765,MST_task,2024.2.0,60.074744998203265,2026-01-21 11h23.55.243192 +0530,
,Scenes\036a.jpg,89,0,90,,,,,,,j,2.056759499999316,0.09599010000238195,None,,,,,,90,0,89,696.2550904999989,,,,,,,,,,,,,,,,,,,,,,,696.2388737000001,696.2550904999989,696.7387349000019,,,,,,,,,,,,696.7556083000018,,,,,,,,,,,,,,,696.7497024000004,696.7556083000018,696.7556083000018,696.7556083000018,699.7390368999986,j,2.056759499999316,0.09599010000238195,699.7390884000015,699.7390990999993,None,,,,,699.7551601000014,699.7551601000014,699.7551601000014,,,,,,,,,,00030,001,2026-01-21_11h23.46.765,MST_task,2024.2.0,60.074744998203265,2026-01-21 11h23.55.243192 +0530,
,Scenes\084a.jpg,90,0,91,,,,,,,j,0.7294078999984777,0.16001460000188672,None,,,,,,91,0,90,699.7551601000014,,,,,,,,,,,,,,,,,,,,,,,699.7391639999987,699.7551601000014,700.2386456999993,,,,,,,,,,,,700.2592240000013,,,,,,,,,,,,,,,700.2567253000016,700.2592240000013,700.2592240000013,700.2592240000013,703.2554197999998,j,0.7294078999984777,0.16001460000188672,703.2554713999998,703.2554826000014,None,,,,,,,,,,,,,,,,,00030,001,2026-01-21_11h23.46.765,MST_task,2024.2.0,60.074744998203265,2026-01-21 11h23.55.243192 +0530,
,Objects\107a.jpg,91,0,92,,,,,,,f,2.0408782999984396,0.17701859999942826,None,,,,,,92,0,91,703.2718247000012,,,,,,,,,,,,,,,,,,,,,,,703.255567799999,703.2718247000012,703.7554237000004,,,,,,,,,,,,703.7722098000013,,,,,,,,,,,,,,,703.7657233999998,703.7722098000013,703.7722098000013,703.7722098000013,706.7555097000004,f,2.0408782999984396,0.17701859999942826,706.7555702999998,706.7555810000013,None,,,,,706.7717144999988,706.7717144999988,706.7717144999988,,,,,,,,,,00030,001,2026-01-21_11h23.46.765,MST_task,2024.2.0,60.074744998203265,2026-01-21 11h23.55.243192 +0530,
,Objects\062a.jpg,92,0,93,,,,,,,f,1.3812356000016734,0.16794260000096983,None,,,,,,93,0,92,706.7717144999988,,,,,,,,,,,,,,,,,,,,,,,706.7556651000014,706.7717144999988,707.255301600002,,,,,,,,,,,,707.2719590000015,,,,,,,,,,,,,,,707.2649734000006,707.2719590000015,707.2719590000015,707.2719590000015,710.2555735999995,f,1.3812356000016734,0.16794260000096983,710.2556253000002,710.2556359000009,None,,,,,710.2717162000008,710.2717162000008,710.2717162000008,,,,,,,,,,00030,001,2026-01-21_11h23.46.765,MST_task,2024.2.0,60.074744998203265,2026-01-21 11h23.55.243192 +0530,
,Objects\115a.jpg,93,0,94,,,,,,,f,0.9213003000004392,0.1513574000018707,None,,,,,,94,0,93,710.2717162000008,,,,,,,,,,,,,,,,,,,,,,,710.2557018000007,710.2717162000008,710.7552942000002,,,,,,,,,,,,710.7719309000022,,,,,,,,,,,,,,,710.7649227000002,710.7719309000022,710.7719309000022,710.7719309000022,713.7555851999969,f,0.9213003000004392,0.1513574000018707,713.7556379999987,713.7556485999994,None,,,,,713.7717173000019,713.7717173000019,713.7717173000019,,,,,,,,,,00030,001,2026-01-21_11h23.46.765,MST_task,2024.2.0,60.074744998203265,2026-01-21 11h23.55.243192 +0530,
,Objects\023a.jpg,94,0,95,,,,,,,f,1.0609193999989657,0.1599973000047612,None,,,,,,95,0,94,713.7717173000019,,,,,,,,,,,,,,,,,,,,,,,713.755732900001,713.7717173000019,714.2553232000027,,,,,,,,,,,,714.2720272999977,,,,,,,,,,,,,,,714.2649134999992,714.2720272999977,714.2720272999977,714.2720272999977,717.2555036000012,f,1.0609193999989657,0.1599973000047612,717.2555552000013,717.2555660999969,None,,,,,717.2717090999977,717.2717090999977,717.2717090999977,,,,,,,,,,00030,001,2026-01-21_11h23.46.765,MST_task,2024.2.0,60.074744998203265,2026-01-21 11h23.55.243192 +0530,
,Objects\119a.jpg,95,0,96,,,,,,,j,2.4171926000053645,0.1360830999983591,None,,,,,,96,0,95,717.2717090999977,,,,,,,,,,,,,,,,,,,,,,,717.2556300000033,717.2717090999977,717.7553339999977,,,,,,,,,,,,717.7719397000001,,,,,,,,,,,,,,,717.7647818000005,717.7719397000001,717.7719397000001,717.7719397000001,720.7555653999989,j,2.4171926000053645,0.1360830999983591,720.7556176000035,720.7556280000026,None,,,,,720.7717148999982,720.7717148999982,720.7717148999982,,,,,,,,,,00030,001,2026-01-21_11h23.46.765,MST_task,2024.2.0,60.074744998203265,2026-01-21 11h23.55.243192 +0530,
,Objects\180a.jpg,96,0,97,,,,,,,f,0.9970887000017683,0.1679943999988609,None,,,,,,97,0,96,720.7717148999982,,,,,,,,,,,,,,,,,,,,,,,720.7557102000028,720.7717148999982,721.2553179999995,,,,,,,,,,,,721.2720147000036,,,,,,,,,,,,,,,721.2650040999979,721.2720147000036,721.2720147000036,721.2720147000036,724.2555345999972,f,0.9970887000017683,0.1679943999988609,724.2555866000002,724.2555972000009,None,,,,,724.2717527000023,724.2717527000023,724.2717527000023,,,,,,,,,,00030,001,2026-01-21_11h23.46.765,MST_task,2024.2.0,60.074744998203265,2026-01-21 11h23.55.243192 +0530,
,Objects\060a.jpg,97,0,98,,,,,,,f,1.5928364999999758,0.20901439999579452,None,,,,,,98,0,97,724.2717527000023,,,,,,,,,,,,,,,,,,,,,,,724.2556622000011,724.2717527000023,724.7556809999987,,,,,,,,,,,,724.7720855999978,,,,,,,,,,,,,,,724.7655997000002,724.7720855999978,724.7720855999978,724.7720855999978,727.7556281000034,f,1.5928364999999758,0.20901439999579452,727.7556790999988,727.7556900000018,None,,,,,727.7716521000002,727.7716521000002,727.7716521000002,,,,,,,,,,00030,001,2026-01-21_11h23.46.765,MST_task,2024.2.0,60.074744998203265,2026-01-21 11h23.55.243192 +0530,
,Scenes\008a.jpg,98,0,99,,,,,,,j,2.0209424999993644,0.11999810000270372,None,,,,,,99,0,98,727.7716521000002,,,,,,,,,,,,,,,,,,,,,,,727.755753399997,727.7716521000002,728.2552092000005,,,,,,,,,,,,728.2721983999982,,,,,,,,,,,,,,,728.2696235000003,728.2721983999982,728.2721983999982,728.2721983999982,731.2555400000019,j,2.0209424999993644,0.11999810000270372,731.2555910999981,731.2556022000026,None,,,,,731.271723599999,731.271723599999,731.271723599999,,,,,,,,,,00030,001,2026-01-21_11h23.46.765,MST_task,2024.2.0,60.074744998203265,2026-01-21 11h23.55.243192 +0530,
,Scenes\141a.jpg,99,0,100,,,,,,,j,1.048864100004721,0.1360729000007268,None,,,,,,100,0,99,731.271723599999,,,,,,,,,,,,,,,,,,,,,,,731.2556669000005,731.271723599999,731.7561402000028,,,,,,,,,,,,,,,,,,,,,,,,,,,731.7691463999981,731.7722944000016,731.7722944000016,731.7722944000016,734.7555517000037,j,1.048864100004721,0.1360729000007268,734.7556038000002,734.7556143000002,None,,,,,734.7717172000011,734.7717172000011,734.7717172000011,,,,,,,,,,00030,001,2026-01-21_11h23.46.765,MST_task,2024.2.0,60.074744998203265,2026-01-21 11h23.55.243192 +0530,
,Scenes\112a.jpg,100,0,101,,,,,,,j,2.001821800004109,0.1199890999996569,None,,,,,,101,0,100,734.7717172000011,,,,,,,,,,,,,,,,,,,,,,,734.755698099998,734.7717172000011,735.2552974000027,,,,,,,,,,,,735.2747543999976,,,,,,,,,,,,,,,735.2723299000027,735.2747543999976,735.2747543999976,735.2747543999976,738.2718793999993,j,2.001821800004109,0.1199890999996569,738.2719312000008,738.2719426000003,None,,,,,,,,,,,,,,,,,00030,001,2026-01-21_11h23.46.765,MST_task,2024.2.0,60.074744998203265,2026-01-21 11h23.55.243192 +0530,
,Scenes\021a.jpg,101,0,102,,,,,,,j,1.7077781000043615,0.14397219999955269,None,,,,,,102,0,101,738.288304800004,,,,,,,,,,,,,,,,,,,,,,,738.2720099000035,738.288304800004,738.7719701999995,,,,,,,,,,,,738.7933311999986,,,,,,,,,,,,,,,738.7907075000003,738.7933311999986,738.7933311999986,738.7933311999986,741.7884883999977,j,1.7077781000043615,0.14397219999955269,741.7885408999973,741.7885522999968,None,,,,,,,,,,,,,,,,,00030,001,2026-01-21_11h23.46.765,MST_task,2024.2.0,60.074744998203265,2026-01-21 11h23.55.243192 +0530,
,Scenes\104a.jpg,102,0,103,,,,,,,j,2.360375100004603,0.12103959999512881,None,,,,,,103,0,102,741.805599700001,,,,,,,,,,,,,,,,,,,,,,,741.7886191000034,741.805599700001,742.2884640000011,,,,,,,,,,,,742.3080030000019,,,,,,,,,,,,,,,742.3055841999994,742.3080030000019,742.3080030000019,742.3080030000019,745.3052671000005,j,2.360375100004603,0.12103959999512881,745.3053180000024,745.3053289999989,None,,,,,,,,,,,,,,,,,00030,001,2026-01-21_11h23.46.765,MST_task,2024.2.0,60.074744998203265,2026-01-21 11h23.55.243192 +0530,
,Scenes\055a.jpg,103,0,104,,,,,,,j,1.1082232000044314,0.11198719999811146,None,,,,,,104,0,103,745.3216416000032,,,,,,,,,,,,,,,,,,,,,,,745.305404499999,745.3216416000032,745.8052871,,,,,,,,,,,,745.8241222999968,,,,,,,,,,,,,,,745.8217899999981,745.8241222999968,745.8241222999968,745.8241222999968,748.821874199999,j,1.1082232000044314,0.11198719999811146,748.8219255999975,748.8219378000031,None,,,,,,,,,,,,,,,,,00030,001,2026-01-21_11h23.46.765,MST_task,2024.2.0,60.074744998203265,2026-01-21 11h23.55.243192 +0530,
,Scenes\157a.jpg,104,0,105,,,,,,,j,1.4645075000007637,0.13599190000240924,None,,,,,,105,0,104,748.8382222999971,,,,,,,,,,,,,,,,,,,,,,,748.8220054000012,748.8382222999971,749.3219312000037,,,,,,,,,,,,749.3399791000011,,,,,,,,,,,,,,,749.3375570000026,749.3399791000011,749.3399791000011,749.3399791000011,752.3389984999994,j,1.4645075000007637,0.13599190000240924,752.3390515000028,752.3390627000008,None,,,,,,,,,,,,,,,,,00030,001,2026-01-21_11h23.46.765,MST_task,2024.2.0,60.074744998203265,2026-01-21 11h23.55.243192 +0530,
,Objects\017a.jpg,105,0,106,,,,,,,f,1.764917599997716,0.1439855999997235,None,,,,,,106,0,105,752.3550665000039,,,,,,,,,,,,,,,,,,,,,,,752.3391487000008,752.3550665000039,752.8384088999992,,,,,,,,,,,,752.8554354999978,,,,,,,,,,,,,,,752.8484733999976,752.8554354999978,752.8554354999978,752.8554354999978,755.838781100003,f,1.764917599997716,0.1439855999997235,755.8388335000018,755.8388446999998,None,,,,,755.8550412000004,755.8550412000004,755.8550412000004,,,,,,,,,,00030,001,2026-01-21_11h23.46.765,MST_task,2024.2.0,60.074744998203265,2026-01-21 11h23.55.243192 +0530,
,Objects\035a.jpg,106,0,107,,,,,,,f,1.1214371000023675,0.16800149999471614,None,,,,,,107,0,106,755.8550412000004,,,,,,,,,,,,,,,,,,,,,,,755.8389082000031,755.8550412000004,756.3384904000013,,,,,,,,,,,,756.3552710999975,,,,,,,,,,,,,,,756.3481575000005,756.3552710999975,756.3552710999975,756.3552710999975,759.3388597999983,f,1.1214371000023675,0.16800149999471614,759.338910800001,759.3389217999975,None,,,,,759.3550359999972,759.3550359999972,759.3550359999972,,,,,,,,,,00030,001,2026-01-21_11h23.46.765,MST_task,2024.2.0,60.074744998203265,2026-01-21 11h23.55.243192 +0530,
,Objects\040a.jpg,107,0,108,,,,,,,f,0.8615446999974665,0.12799939999968046,None,,,,,,108,0,107,759.3550359999972,,,,,,,,,,,,,,,,,,,,,,,759.3389865000026,759.3550359999972,759.8385474999995,,,,,,,,,,,,759.8553034999968,,,,,,,,,,,,,,,759.8480955000014,759.8553034999968,759.8553034999968,759.8553034999968,762.8387234000002,f,0.8615446999974665,0.12799939999968046,762.838775500004,762.838786700002,None,,,,,762.8550238999997,762.8550238999997,762.8550238999997,,,,,,,,,,00030,001,2026-01-21_11h23.46.765,MST_task,2024.2.0,60.074744998203265,2026-01-21 11h23.55.243192 +0530,
,Objects\093a.jpg,108,0,109,,,,,,,f,2.001780200000212,0.14396449999912875,None,,,,,,109,0,108,762.8550238999997,,,,,,,,,,,,,,,,,,,,,,,762.8388517000021,762.8550238999997,763.338498699999,,,,,,,,,,,,763.3552173000026,,,,,,,,,,,,,,,763.3481723999976,763.3552173000026,763.3552173000026,763.3552173000026,766.3387710999996,f,2.001780200000212,0.14396449999912875,766.3388225999988,766.338832999998,None,,,,,766.355030499999,766.355030499999,766.355030499999,,,,,,,,,,00030,001,2026-01-21_11h23.46.765,MST_task,2024.2.0,60.074744998203265,2026-01-21 11h23.55.243192 +0530,
,Objects\002a.jpg,109,0,110,,,,,,,f,2.8211690000025555,None,None,,,,,,110,0,109,766.355030499999,,,,,,,,,,,,,,,,,,,,,,,766.3388978999974,766.355030499999,766.838447099999,,,,,,,,,,,,766.8552782000006,,,,,,,,,,,,,,,766.8481197999972,766.8552782000006,766.8552782000006,766.8552782000006,769.8387608000012,f,2.8211690000025555,None,769.8388117000031,769.8388226999996,None,,,,,769.8550295999994,769.8550295999994,769.8550295999994,,,,,,,,,,00030,001,2026-01-21_11h23.46.765,MST_task,2024.2.0,60.074744998203265,2026-01-21 11h23.55.243192 +0530,
,Objects\007a.jpg,110,0,111,,,,,,,f,1.2980409000010695,0.1282680000003893,None,,,,,,111,0,110,769.8550295999994,,,,,,,,,,,,,,,,,,,,,,,769.8389051000013,769.8550295999994,770.3386312000039,,,,,,,,,,,,770.3552862999968,,,,,,,,,,,,,,,770.3478569000035,770.3552862999968,770.3552862999968,770.3552862999968,773.3388696000002,f,1.2980409000010695,0.1282680000003893,773.3389214000017,773.3389322999974,None,,,,,773.354973999998,773.354973999998,773.354973999998,,,,,,,,,,00030,001,2026-01-21_11h23.46.765,MST_task,2024.2.0,60.074744998203265,2026-01-21 11h23.55.243192 +0530,
,Objects\069a.jpg,111,0,112,,,,,,,j,0.9252011999997194,0.145039099996211,None,,,,,,112,0,111,773.354973999998,,,,,,,,,,,,,,,,,,,,,,,773.338999399999,773.354973999998,773.8385538000039,,,,,,,,,,,,773.855213400002,,,,,,,,,,,,,,,773.8482623999989,773.855213400002,773.855213400002,773.855213400002,776.8388317000026,j,0.9252011999997194,0.145039099996211,776.8388825000038,776.8388930999972,None,,,,,776.8549872999974,776.8549872999974,776.8549872999974,,,,,,,,,,00030,001,2026-01-21_11h23.46.765,MST_task,2024.2.0,60.074744998203265,2026-01-21 11h23.55.243192 +0530,
,Scenes\070a.jpg,112,0,113,,,,,,,f,2.6535065000061877,0.14391299999988405,None,,,,,,113,0,112,776.8549872999974,,,,,,,,,,,,,,,,,,,,,,,776.8389749000016,776.8549872999974,777.3385388999995,,,,,,,,,,,,777.3589009000025,,,,,,,,,,,,,,,777.3564975000008,777.3589009000025,777.3589009000025,777.3589009000025,780.3552925000004,f,2.6535065000061877,0.14391299999988405,780.3553449999999,780.3553563999994,None,,,,,,,,,,,,,,,,,00030,001,2026-01-21_11h23.46.765,MST_task,2024.2.0,60.074744998203265,2026-01-21 11h23.55.243192 +0530,
,Scenes\159a.jpg,113,0,114,,,,,,,j,0.9917438999982551,0.17599669999617618,None,,,,,,114,0,113,780.3716079999977,,,,,,,,,,,,,,,,,,,,,,,780.355443299999,780.3716079999977,780.8553578000028,,,,,,,,,,,,780.8773629000025,,,,,,,,,,,,,,,780.8750991000015,780.8773629000025,780.8773629000025,780.8773629000025,783.8719463999987,j,0.9917438999982551,0.17599669999617618,783.8720164000006,783.8720279000008,None,,,,,,,,,,,,,,,,,00030,001,2026-01-21_11h23.46.765,MST_task,2024.2.0,60.074744998203265,2026-01-21 11h23.55.243192 +0530,
,Scenes\033a.jpg,114,0,115,,,,,,,j,0.7757423000002746,0.18399769999814453,None,,,,,,115,0,114,783.8882417000023,,,,,,,,,,,,,,,,,,,,,,,783.8721191999975,783.8882417000023,784.3719337000039,,,,,,,,,,,,784.3887467999994,,,,,,,,,,,,,,,784.3826483999983,784.3887467999994,784.3887467999994,784.3887467999994,787.3726187000029,j,0.7757423000002746,0.18399769999814453,787.3726852,787.3726969000018,None,,,,,787.3885678999977,787.3885678999977,787.3885678999977,,,,,,,,,,00030,001,2026-01-21_11h23.46.765,MST_task,2024.2.0,60.074744998203265,2026-01-21 11h23.55.243192 +0530,
,Scenes\181a.jpg,115,0,116,,,,,,,f,1.4334208000000217,0.14425099999789381,None,,,,,,116,0,115,787.3885678999977,,,,,,,,,,,,,,,,,,,,,,,787.372768899997,787.3885678999977,787.8718770000014,,,,,,,,,,,,787.8913262000024,,,,,,,,,,,,,,,787.8890178999973,787.8913262000024,787.8913262000024,787.8913262000024,790.8885341000023,f,1.4334208000000217,0.14425099999789381,790.8885864000003,790.8886057000018,None,,,,,,,,,,,,,,,,,00030,001,2026-01-21_11h23.46.765,MST_task,2024.2.0,60.074744998203265,2026-01-21 11h23.55.243192 +0530,
,Scenes\083a.jpg,116,0,117,,,,,,,j,0.7842999999993481,0.1665008000054513,None,,,,,,117,0,116,790.9049762000031,,,,,,,,,,,,,,,,,,,,,,,790.8886754000014,790.9049762000031,791.3885264000019,,,,,,,,,,,,791.4058241999992,,,,,,,,,,,,,,,791.4035392999976,791.4058241999992,791.4058241999992,791.4058241999992,794.3888333000032,j,0.7842999999993481,0.1665008000054513,794.388885700002,794.3888969,None,,,,,794.4049906000037,794.4049906000037,794.4049906000037,,,,,,,,,,00030,001,2026-01-21_11h23.46.765,MST_task,2024.2.0,60.074744998203265,2026-01-21 11h23.55.243192 +0530,
,Scenes\113a.jpg,117,0,118,,,,,,,j,0.9154693000018597,0.15293450000172015,None,,,,,,118,0,117,794.4049906000037,,,,,,,,,,,,,,,,,,,,,,,794.3889813000023,794.4049906000037,794.8886158999994,,,,,,,,,,,,794.9055659999976,,,,,,,,,,,,,,,794.8996147999969,794.9055659999976,794.9055659999976,794.9055659999976,797.8889971999997,j,0.9154693000018597,0.15293450000172015,797.8890485999982,797.8890592999996,None,,,,,797.9050593000029,797.9050593000029,797.9050593000029,,,,,,,,,,00030,001,2026-01-21_11h23.46.765,MST_task,2024.2.0,60.074744998203265,2026-01-21 11h23.55.243192 +0530,
,Scenes\089a.jpg,118,0,119,,,,,,,j,1.2567809000029229,0.1680737999995472,None,,,,,,119,0,118,797.9050593000029,,,,,,,,,,,,,,,,,,,,,,,797.889143999997,797.9050593000029,798.3886913999995,,,,,,,,,,,,798.4122705000009,,,,,,,,,,,,,,,798.4098484000024,798.4122705000009,798.4122705000009,798.4122705000009,801.4053475000001,j,1.2567809000029229,0.1680737999995472,801.4053977999974,801.4054092999977,None,,,,,,,,,,,,,,,,,00030,001,2026-01-21_11h23.46.765,MST_task,2024.2.0,60.074744998203265,2026-01-21 11h23.55.243192 +0530,
,Objects\010a.jpg,119,0,120,,,,,,,f,1.7396411000008811,0.16710109999985434,None,,,,,,120,0,119,801.4217929999977,,,,,,,,,,,,,,,,,,,,,,,801.4054767000016,801.4217929999977,801.905369600001,,,,,,,,,,,,801.9222957999991,,,,,,,,,,,,,,,801.9156705000023,801.9222957999991,801.9222957999991,801.9222957999991,804.9055599000021,f,1.7396411000008811,0.16710109999985434,804.9056120999994,804.9056233999981,None,,,,,804.9217936000023,804.9217936000023,804.9217936000023,,,,,,,,,,00030,001,2026-01-21_11h23.46.765,MST_task,2024.2.0,60.074744998203265,2026-01-21 11h23.55.243192 +0530,
,Objects\106a.jpg,120,0,121,,,,,,,f,1.5102890999987721,0.15999429999646964,None,,,,,,121,0,120,804.9217936000023,,,,,,,,,,,,,,,,,,,,,,,804.905687100003,804.9217936000023,805.4053409000007,,,,,,,,,,,,805.4220462999983,,,,,,,,,,,,,,,805.4157425999983,805.4220462999983,805.4220462999983,805.4220462999983,808.4057114999996,f,1.5102890999987721,0.15999429999646964,808.4057635000026,808.4057747000006,None,,,,,808.4218378999976,808.4218378999976,808.4218378999976,,,,,,,,,,00030,001,2026-01-21_11h23.46.765,MST_task,2024.2.0,60.074744998203265,2026-01-21 11h23.55.243192 +0530,
,Objects\113a.jpg,121,0,122,,,,,,,None,,,f,0.05045360000076471,None,,,,122,0,121,808.4218378999976,,,,,,,,,,,,,,,,,,,,,,,808.4058602999976,808.4218378999976,808.905396099999,,,,,,,,,,,,808.9221179999986,,,,,,,,,,,,,,,808.915140400004,808.9221179999986,808.9221179999986,808.9221179999986,811.9056738000036,None,,,811.9057229999999,811.9887208999971,f,811.9217935000015,811.9217935000015,0.05045360000076471,None,811.9217935000015,811.9217935000015,811.9217935000015,,,,,,,,,,00030,001,2026-01-21_11h23.46.765,MST_task,2024.2.0,60.074744998203265,2026-01-21 11h23.55.243192 +0530,
,Objects\020a.jpg,122,0,123,,,,,,,f,1.6518743999986327,0.11103070000535809,None,,,,,,123,0,122,812.0050979999978,,,,,,,,,,,,,,,,,,,,,,,811.9888016000004,812.0050979999978,812.4885669000032,,,,,,,,,,,,812.5053982999998,,,,,,,,,,,,,,,812.4982896999973,812.5053982999998,812.5053982999998,812.5053982999998,815.4888776999978,f,1.6518743999986327,0.11103070000535809,815.4889292999978,815.4889413000019,None,,,,,815.5051196000022,815.5051196000022,815.5051196000022,,,,,,,,,,00030,001,2026-01-21_11h23.46.765,MST_task,2024.2.0,60.074744998203265,2026-01-21 11h23.55.243192 +0530,
,Objects\178a.jpg,123,0,124,,,,,,,j,2.0389308000012534,0.1363850999987335,None,,,,,,124,0,123,815.5051196000022,,,,,,,,,,,,,,,,,,,,,,,815.4890240999994,815.5051196000022,815.9886452000028,,,,,,,,,,,,816.0053943999992,,,,,,,,,,,,,,,815.9988454000013,816.0053943999992,816.0053943999992,816.0053943999992,818.9889281000032,j,2.0389308000012534,0.1363850999987335,818.9889793000002,818.988991000002,None,,,,,819.0050959000037,819.0050959000037,819.0050959000037,,,,,,,,,,00030,001,2026-01-21_11h23.46.765,MST_task,2024.2.0,60.074744998203265,2026-01-21 11h23.55.243192 +0530,
,Objects\081a.jpg,124,0,125,,,,,,,j,1.2831165999959921,0.16834980000567157,None,,,,,,125,0,124,819.0050959000037,,,,,,,,,,,,,,,,,,,,,,,818.9890670999994,819.0050959000037,819.4887065000039,,,,,,,,,,,,819.5052942000002,,,,,,,,,,,,,,,819.4986595999981,819.5052942000002,819.5052942000002,819.5052942000002,822.4889380999994,j,1.2831165999959921,0.16834980000567157,822.4889894999978,822.4890006000023,None,,,,,822.5053604000022,822.5053604000022,822.5053604000022,,,,,,,,,,00030,001,2026-01-21_11h23.46.765,MST_task,2024.2.0,60.074744998203265,2026-01-21 11h23.55.243192 +0530,
,Objects\138a.jpg,125,0,126,,,,,,,j,1.1035740999941481,0.16802410000673262,None,,,,,,126,0,125,822.5053604000022,,,,,,,,,,,,,,,,,,,,,,,822.4890893000011,822.5053604000022,822.9886839999999,,,,,,,,,,,,823.0053026999994,,,,,,,,,,,,,,,822.9981679000011,823.0053026999994,823.0053026999994,823.0053026999994,825.9889159999984,j,1.1035740999941481,0.16802410000673262,825.9889693999976,825.9889807000036,None,,,,,826.0051188000034,826.0051188000034,826.0051188000034,,,,,,,,,,00030,001,2026-01-21_11h23.46.765,MST_task,2024.2.0,60.074744998203265,2026-01-21 11h23.55.243192 +0530,
,Scenes\044a.jpg,126,0,127,,,,,,,j,2.274832900002366,0.12046759999793721,None,,,,,,127,0,126,826.0051188000034,,,,,,,,,,,,,,,,,,,,,,,825.9890648000037,826.0051188000034,826.4886903999977,,,,,,,,,,,,826.5056539000034,,,,,,,,,,,,,,,826.5022952000036,826.5056539000034,826.5056539000034,826.5056539000034,829.4887941000015,j,2.274832900002366,0.12046759999793721,829.4888456000008,829.4888567999988,None,,,,,829.5051093000038,829.5051093000038,829.5051093000038,,,,,,,,,,00030,001,2026-01-21_11h23.46.765,MST_task,2024.2.0,60.074744998203265,2026-01-21 11h23.55.243192 +0530,
,Scenes\052a.jpg,127,0,128,,,,,,,j,1.389727000001585,0.15199890000076266,None,,,,,,128,0,127,829.5051093000038,,,,,,,,,,,,,,,,,,,,,,,829.4889216999982,829.5051093000038,829.9885973000019,,,,,,,,,,,,830.0073092999992,,,,,,,,,,,,,,,830.0048599999973,830.0073092999992,830.0073092999992,830.0073092999992,832.988908299998,j,1.389727000001585,0.15199890000076266,832.9889679000007,832.9889789999979,None,,,,,,,,,,,,,,,,,00030,001,2026-01-21_11h23.46.765,MST_task,2024.2.0,60.074744998203265,2026-01-21 11h23.55.243192 +0530,
,Scenes\105a.jpg,128,0,129,,,,,,,j,0.7908857000002172,0.17601429999922402,None,,,,,,129,0,128,833.0050689000018,,,,,,,,,,,,,,,,,,,,,,,832.9890484000025,833.0050689000018,833.4885794000038,,,,,,,,,,,,833.5093860000015,,,,,,,,,,,,,,,833.5070455999994,833.5093860000015,833.5093860000015,833.5093860000015,836.5052577999995,j,0.7908857000002172,0.17601429999922402,836.5053101999983,836.5053220000009,None,,,,,,,,,,,,,,,,,00030,001,2026-01-21_11h23.46.765,MST_task,2024.2.0,60.074744998203265,2026-01-21 11h23.55.243192 +0530,
,Scenes\165a.jpg,129,0,130,,,,,,,j,2.1148351000010734,0.1274933000022429,None,,,,,,130,0,129,836.5217635999979,,,,,,,,,,,,,,,,,,,,,,,836.5054100000016,836.5217635999979,837.0052751000003,,,,,,,,,,,,837.0259716000037,,,,,,,,,,,,,,,837.0234622000025,837.0259716000037,837.0259716000037,837.0259716000037,840.0056348000035,j,2.1148351000010734,0.1274933000022429,840.0056895999987,840.0057016000028,None,,,,,,,,,,,,,,,,,00030,001,2026-01-21_11h23.46.765,MST_task,2024.2.0,60.074744998203265,2026-01-21 11h23.55.243192 +0530,
,Scenes\106a.jpg,130,0,131,,,,,,,j,0.9119823000000906,0.14396680000209017,None,,,,,,131,0,130,840.0217685999996,,,,,,,,,,,,,,,,,,,,,,,840.005772200002,840.0217685999996,840.5053697000003,,,,,,,,,,,,840.5249646999982,,,,,,,,,,,,,,,840.5228504000006,840.5249646999982,840.5249646999982,840.5249646999982,843.5220609999997,j,0.9119823000000906,0.14396680000209017,843.5221133999985,843.5221246000037,None,,,,,,,,,,,,,,,,,00030,001,2026-01-21_11h23.46.765,MST_task,2024.2.0,60.074744998203265,2026-01-21 11h23.55.243192 +0530,
,Scenes\065a.jpg,131,0,132,,,,,,,j,2.14996400000382,0.10428939999837894,None,,,,,,132,0,131,843.5383133000032,,,,,,,,,,,,,,,,,,,,,,,843.5222106000037,843.5383133000032,844.0220012000027,,,,,,,,,,,,844.0388600999977,,,,,,,,,,,,,,,844.0359818999968,844.0388600999977,844.0388600999977,844.0388600999977,847.0223608999986,j,2.14996400000382,0.10428939999837894,847.0224124999986,847.0224234000016,None,,,,,847.0384497000014,847.0384497000014,847.0384497000014,,,,,,,,,,00030,001,2026-01-21_11h23.46.765,MST_task,2024.2.0,60.074744998203265,2026-01-21 11h23.55.243192 +0530,
,Scenes\040a.jpg,132,0,133,,,,,,,f,1.0462476999964565,0.13708860000042478,None,,,,,,133,0,132,847.0384497000014,,,,,,,,,,,,,,,,,,,,,,,847.0225094000016,847.0384497000014,847.5219896000017,,,,,,,,,,,,847.5420868999972,,,,,,,,,,,,,,,847.5394667000037,847.5420868999972,847.5420868999972,847.5420868999972,850.5386526999973,f,1.0462476999964565,0.13708860000042478,850.5387109999974,850.5387233999973,None,,,,,,,,,,,,,,,,,00030,001,2026-01-21_11h23.46.765,MST_task,2024.2.0,60.074744998203265,2026-01-21 11h23.55.243192 +0530,
,Objects\009a.jpg,133,0,134,,,,,,,f,1.325300899996364,0.11999720000312664,None,,,,,,134,0,133,850.5551465999997,,,,,,,,,,,,,,,,,,,,,,,850.5388125999998,850.5551465999997,851.038651699997,,,,,,,,,,,,851.0557155000024,,,,,,,,,,,,,,,851.0491826000034,851.0557155000024,851.0557155000024,851.0557155000024,854.0388117000002,f,1.325300899996364,0.11999720000312664,854.0388646000029,854.0388754999985,None,,,,,854.0550941000001,854.0550941000001,854.0550941000001,,,,,,,,,,00030,001,2026-01-21_11h23.46.765,MST_task,2024.2.0,60.074744998203265,2026-01-21 11h23.55.243192 +0530,
,Objects\057a.jpg,134,0,135,,,,,,,f,2.0658553000030224,0.13609899999573827,None,,,,,,135,0,134,854.0550941000001,,,,,,,,,,,,,,,,,,,,,,,854.0389413999983,854.0550941000001,854.5385592999992,,,,,,,,,,,,854.5552820999983,,,,,,,,,,,,,,,854.5482032999971,854.5552820999983,854.5552820999983,854.5552820999983,857.5387654999977,f,2.0658553000030224,0.13609899999573827,857.5388292000025,857.5388408000035,None,,,,,857.5549668999993,857.5549668999993,857.5549668999993,,,,,,,,,,00030,001,2026-01-21_11h23.46.765,MST_task,2024.2.0,60.074744998203265,2026-01-21 11h23.55.243192 +0530,
,Objects\083a.jpg,135,0,136,,,,,,,f,1.157657099996868,0.1920107999976608,None,,,,,,136,0,135,857.5549668999993,,,,,,,,,,,,,,,,,,,,,,,857.5389106999974,857.5549668999993,858.0384782000001,,,,,,,,,,,,858.0551846999988,,,,,,,,,,,,,,,858.0497432000011,858.0551846999988,858.0551846999988,858.0551846999988,861.0388098000003,f,1.157657099996868,0.1920107999976608,861.0388607000023,861.0388717999995,None,,,,,861.0549293999975,861.0549293999975,861.0549293999975,,,,,,,,,,00030,001,2026-01-21_11h23.46.765,MST_task,2024.2.0,60.074744998203265,2026-01-21 11h23.55.243192 +0530,
,Objects\044a.jpg,136,0,137,,,,,,,f,2.2660258000032627,0.19208709999657003,None,,,,,,137,0,136,861.0549293999975,,,,,,,,,,,,,,,,,,,,,,,861.0389374999977,861.0549293999975,861.5384110999985,,,,,,,,,,,,861.5551756000023,,,,,,,,,,,,,,,861.5492769000011,861.5551756000023,861.5551756000023,861.5551756000023,864.5386311000002,f,2.2660258000032627,0.19208709999657003,864.5386868000023,864.5386980000003,None,,,,,864.5549930000016,864.5549930000016,864.5549930000016,,,,,,,,,,00030,001,2026-01-21_11h23.46.765,MST_task,2024.2.0,60.074744998203265,2026-01-21 11h23.55.243192 +0530,
,Objects\099a.jpg,137,0,138,,,,,,,j,2.17321030000312,0.15199829999619396,None,,,,,,138,0,137,864.5549930000016,,,,,,,,,,,,,,,,,,,,,,,864.5387644999973,864.5549930000016,865.0384269000024,,,,,,,,,,,,865.0552115999999,,,,,,,,,,,,,,,865.0485243999974,865.0552115999999,865.0552115999999,865.0552115999999,868.0386896000018,j,2.17321030000312,0.15199829999619396,868.0387470000023,868.038757899998,None,,,,,868.0550006000012,868.0550006000012,868.0550006000012,,,,,,,,,,00030,001,2026-01-21_11h23.46.765,MST_task,2024.2.0,60.074744998203265,2026-01-21 11h23.55.243192 +0530,
,Objects\156a.jpg,138,0,139,,,,,,,j,2.0497133000026224,0.1200031999978819,None,,,,,,139,0,138,868.0550006000012,,,,,,,,,,,,,,,,,,,,,,,868.0388218999979,868.0550006000012,868.5383967999987,,,,,,,,,,,,868.5551742999996,,,,,,,,,,,,,,,868.5479582000007,868.5551742999996,868.5551742999996,868.5551742999996,871.5388855000019,j,2.0497133000026224,0.1200031999978819,871.5389411999968,871.5389522000005,None,,,,,871.5549426000034,871.5549426000034,871.5549426000034,,,,,,,,,,00030,001,2026-01-21_11h23.46.765,MST_task,2024.2.0,60.074744998203265,2026-01-21 11h23.55.243192 +0530,
,Objects\043a.jpg,139,0,140,,,,,,,None,,,f,0.0462658000033116,None,,,,140,0,139,871.5549426000034,,,,,,,,,,,,,,,,,,,,,,,871.5390187999983,871.5549426000034,872.0384771999998,,,,,,,,,,,,872.0551766000026,,,,,,,,,,,,,,,872.0483797000015,872.0551766000026,872.0551766000026,872.0551766000026,875.0387859000002,None,,,875.0388357000011,875.1054246000022,f,875.0549907999994,875.0549907999994,0.0462658000033116,None,875.0549907999994,875.0549907999994,875.0549907999994,,,,,,,,,,00030,001,2026-01-21_11h23.46.765,MST_task,2024.2.0,60.074744998203265,2026-01-21 11h23.55.243192 +0530,
,Scenes\011a.jpg,140,0,141,,,,,,,j,1.2652717999953893,0.1600036000018008,None,,,,,,141,0,140,875.1215830000037,,,,,,,,,,,,,,,,,,,,,,,875.1055060000035,875.1215830000037,875.6052529999979,,,,,,,,,,,,875.6275152999988,,,,,,,,,,,,,,,875.6250080999998,875.6275152999988,875.6275152999988,875.6275152999988,878.621955700004,j,1.2652717999953893,0.1600036000018008,878.6220168000036,878.6220292000035,None,,,,,,,,,,,,,,,,,00030,001,2026-01-21_11h23.46.765,MST_task,2024.2.0,60.074744998203265,2026-01-21 11h23.55.243192 +0530,
,Scenes\143a.jpg,141,0,142,,,,,,,j,0.7828825999968103,0.15202339999814285,None,,,,,,142,0,141,878.6381787000028,,,,,,,,,,,,,,,,,,,,,,,878.622118299998,878.6381787000028,879.1218735000039,,,,,,,,,,,,879.1417306000039,,,,,,,,,,,,,,,879.1392377999982,879.1417306000039,879.1417306000039,879.1417306000039,882.1384895999981,j,0.7828825999968103,0.15202339999814285,882.1385410000039,882.1385524000034,None,,,,,,,,,,,,,,,,,00030,001,2026-01-21_11h23.46.765,MST_task,2024.2.0,60.074744998203265,2026-01-21 11h23.55.243192 +0530,
,Scenes\173a.jpg,142,0,143,,,,,,,j,1.2927374999999302,0.15199179999763146,None,,,,,,143,0,142,882.1549137000002,,,,,,,,,,,,,,,,,,,,,,,882.1386374000031,882.1549137000002,882.6384865000036,,,,,,,,,,,,882.6556177999992,,,,,,,,,,,,,,,882.6526233000004,882.6556177999992,882.6556177999992,882.6556177999992,885.638719300001,j,1.2927374999999302,0.15199179999763146,885.6387727000001,885.6387837999973,None,,,,,885.6549674000016,885.6549674000016,885.6549674000016,,,,,,,,,,00030,001,2026-01-21_11h23.46.765,MST_task,2024.2.0,60.074744998203265,2026-01-21 11h23.55.243192 +0530,
,Scenes\038a.jpg,143,0,144,,,,,,,j,0.9915382000035606,0.15200059999915538,None,,,,,,144,0,143,885.6549674000016,,,,,,,,,,,,,,,,,,,,,,,885.6388518999993,885.6549674000016,886.1384741000038,,,,,,,,,,,,886.1569256000039,,,,,,,,,,,,,,,886.154651599998,886.1569256000039,886.1569256000039,886.1569256000039,889.1552413999998,j,0.9915382000035606,0.15200059999915538,889.1552927999983,889.1553045,None,,,,,,,,,,,,,,,,,00030,001,2026-01-21_11h23.46.765,MST_task,2024.2.0,60.074744998203265,2026-01-21 11h23.55.243192 +0530,
,Scenes\091a.jpg,144,0,145,,,,,,,j,0.6922098000068218,0.1440011999948183,None,,,,,,145,0,144,889.1716569000018,,,,,,,,,,,,,,,,,,,,,,,889.1553892999982,889.1716569000018,889.655295499997,,,,,,,,,,,,889.6722888999975,,,,,,,,,,,,,,,889.668477700001,889.6722888999975,889.6722888999975,889.6722888999975,892.6555559000008,j,0.6922098000068218,0.1440011999948183,892.655607800003,892.6556187999995,None,,,,,892.6715854000031,892.6715854000031,892.6715854000031,,,,,,,,,,00030,001,2026-01-21_11h23.46.765,MST_task,2024.2.0,60.074744998203265,2026-01-21 11h23.55.243192 +0530,
,Scenes\154a.jpg,145,0,146,,,,,,,j,1.2161726000049384,0.17602400000032503,None,,,,,,146,0,145,892.6715854000031,,,,,,,,,,,,,,,,,,,,,,,892.6557049000003,892.6715854000031,893.1552560000018,,,,,,,,,,,,893.1721564,,,,,,,,,,,,,,,893.1690627000025,893.1721564,893.1721564,893.1721564,896.155463799998,j,1.2161726000049384,0.17602400000032503,896.155515100003,896.1555260999994,None,,,,,896.1716418000033,896.1716418000033,896.1716418000033,,,,,,,,,,00030,001,2026-01-21_11h23.46.765,MST_task,2024.2.0,60.074744998203265,2026-01-21 11h23.55.243192 +0530,
,Scenes\097a.jpg,146,0,147,,,,,,,f,2.2362260000008973,0.14399669999693288,None,,,,,,147,0,146,896.1716418000033,,,,,,,,,,,,,,,,,,,,,,,896.1556146999974,896.1716418000033,896.6552177000012,,,,,,,,,,,,896.672122699998,,,,,,,,,,,,,,,896.6652737000004,896.672122699998,896.672122699998,896.672122699998,899.655563999997,f,2.2362260000008973,0.14399669999693288,899.6556146999974,899.6556259000026,None,,,,,899.671572700001,899.671572700001,899.671572700001,,,,,,,,,,00030,001,2026-01-21_11h23.46.765,MST_task,2024.2.0,60.074744998203265,2026-01-21 11h23.55.243192 +0530,
,Objects\064a.jpg,147,0,148,,,,,,,j,1.2405614999952377,0.13599170000088634,None,,,,,,148,0,147,899.671572700001,,,,,,,,,,,,,,,,,,,,,,,899.6557107000008,899.671572700001,900.1552163999986,,,,,,,,,,,,900.1720519999981,,,,,,,,,,,,,,,900.1650235000016,900.1720519999981,900.1720519999981,900.1720519999981,903.1554748000017,j,1.2405614999952377,0.13599170000088634,903.1555263000009,903.1555372999974,None,,,,,903.1716084000036,903.1716084000036,903.1716084000036,,,,,,,,,,00030,001,2026-01-21_11h23.46.765,MST_task,2024.2.0,60.074744998203265,2026-01-21 11h23.55.243192 +0530,
,Objects\116a.jpg,148,0,149,,,,,,,f,2.1969662999981665,0.14417250000406057,None,,,,,,149,0,148,903.1716084000036,,,,,,,,,,,,,,,,,,,,,,,903.1556211000025,903.1716084000036,903.6551979000033,,,,,,,,,,,,903.6718154000009,,,,,,,,,,,,,,,903.6650168000015,903.6718154000009,903.6718154000009,903.6718154000009,906.6555763000033,f,2.1969662999981665,0.14417250000406057,906.6556273999995,906.6556381000009,None,,,,,906.6716510000006,906.6716510000006,906.6716510000006,,,,,,,,,,00030,001,2026-01-21_11h23.46.765,MST_task,2024.2.0,60.074744998203265,2026-01-21 11h23.55.243192 +0530,
,Objects\155a.jpg,149,0,150,,,,,,,f,1.1849119999969844,0.1519897000034689,None,,,,,,150,0,149,906.6716510000006,,,,,,,,,,,,,,,,,,,,,,,906.6557293999977,906.6716510000006,907.1553383000028,,,,,,,,,,,,907.1718759000032,,,,,,,,,,,,,,,907.1638552999975,907.1718759000032,907.1718759000032,907.1718759000032,910.1554996000013,f,1.1849119999969844,0.1519897000034689,910.1555507999983,910.155561100004,None,,,,,910.171600800004,910.171600800004,910.171600800004,,,,,,,,,,00030,001,2026-01-21_11h23.46.765,MST_task,2024.2.0,60.074744998203265,2026-01-21 11h23.55.243192 +0530,
,Objects\019a.jpg,150,0,151,,,,,,,f,1.6450967999990098,0.16800950000470039,None,,,,,,151,0,150,910.171600800004,,,,,,,,,,,,,,,,,,,,,,,910.1556444999987,910.171600800004,910.6552371999969,,,,,,,,,,,,910.6718089000024,,,,,,,,,,,,,,,910.6651336000032,910.6718089000024,910.6718089000024,910.6718089000024,913.6554192000003,f,1.6450967999990098,0.16800950000470039,913.655470499998,913.6554816000025,None,,,,,913.6716315999984,913.6716315999984,913.6716315999984,,,,,,,,,,00030,001,2026-01-21_11h23.46.765,MST_task,2024.2.0,60.074744998203265,2026-01-21 11h23.55.243192 +0530,
,Objects\124a.jpg,151,0,152,,,,,,,j,1.0973677000001771,0.14400059999752557,None,,,,,,152,0,151,913.6716315999984,,,,,,,,,,,,,,,,,,,,,,,913.6555477000038,913.6716315999984,914.1552118,,,,,,,,,,,,914.1718293999984,,,,,,,,,,,,,,,914.1646478000002,914.1718293999984,914.1718293999984,914.1718293999984,917.1555725000035,j,1.0973677000001771,0.14400059999752557,917.155624199997,917.1556350999999,None,,,,,917.1717419000015,917.1717419000015,917.1717419000015,,,,,,,,,,00030,001,2026-01-21_11h23.46.765,MST_task,2024.2.0,60.074744998203265,2026-01-21 11h23.55.243192 +0530,
,Objects\054a.jpg,152,0,153,,,,,,,f,1.2370430000009947,0.16000589999748627,None,,,,,,153,0,152,917.1717419000015,,,,,,,,,,,,,,,,,,,,,,,917.1557196000031,917.1717419000015,917.6553626999994,,,,,,,,,,,,917.6720184999976,,,,,,,,,,,,,,,917.6654630000012,917.6720184999976,917.6720184999976,917.6720184999976,920.6556374000029,f,1.2370430000009947,0.16000589999748627,920.6556885999998,920.6556990999998,None,,,,,920.6717553000017,920.6717553000017,920.6717553000017,,,,,,,,,,00030,001,2026-01-21_11h23.46.765,MST_task,2024.2.0,60.074744998203265,2026-01-21 11h23.55.243192 +0530,
,Objects\104a.jpg,153,0,154,,,,,,,f,1.808294599999499,0.1765266000002157,None,,,,,,154,0,153,920.6717553000017,,,,,,,,,,,,,,,,,,,,,,,920.655781700003,920.6717553000017,921.155321000002,,,,,,,,,,,,921.1720014999992,,,,,,,,,,,,,,,921.1665995000039,921.1720014999992,921.1720014999992,921.1720014999992,924.1555468999977,f,1.808294599999499,0.1765266000002157,924.155598399997,924.1556090999984,None,,,,,924.171747299999,924.171747299999,924.171747299999,,,,,,,,,,00030,001,2026-01-21_11h23.46.765,MST_task,2024.2.0,60.074744998203265,2026-01-21 11h23.55.243192 +0530,
,Scenes\192a.jpg,154,0,155,,,,,,,j,1.3550618000008399,0.14519060000020545,None,,,,,,155,0,154,924.171747299999,,,,,,,,,,,,,,,,,,,,,,,924.1556946000019,924.171747299999,924.655284299999,,,,,,,,,,,,924.6733370000038,,,,,,,,,,,,,,,924.6709446999994,924.6733370000038,924.6733370000038,924.6733370000038,927.6719095999979,j,1.3550618000008399,0.14519060000020545,927.6719602999983,927.6719716999978,None,,,,,,,,,,,,,,,,,00030,001,2026-01-21_11h23.46.765,MST_task,2024.2.0,60.074744998203265,2026-01-21 11h23.55.243192 +0530,
,Scenes\175a.jpg,155,0,156,,,,,,,j,1.0637419999984559,0.15202809999755118,None,,,,,,156,0,155,927.6883892000005,,,,,,,,,,,,,,,,,,,,,,,927.6720392000025,927.6883892000005,928.1720413999974,,,,,,,,,,,,928.1885683000037,,,,,,,,,,,,,,,928.184578299999,928.1885683000037,928.1885683000037,928.1885683000037,931.172282399999,j,1.0637419999984559,0.15202809999755118,931.172337,931.1723482999987,None,,,,,931.1884096000031,931.1884096000031,931.1884096000031,,,,,,,,,,00030,001,2026-01-21_11h23.46.765,MST_task,2024.2.0,60.074744998203265,2026-01-21 11h23.55.243192 +0530,
,Scenes\090a.jpg,156,0,157,,,,,,,j,0.8154770000037388,0.13598169999750098,None,,,,,,157,0,156,931.1884096000031,,,,,,,,,,,,,,,,,,,,,,,931.1724125000001,931.1884096000031,931.6720017000007,,,,,,,,,,,,931.6936798999996,,,,,,,,,,,,,,,931.6911549999968,931.6936798999996,931.6936798999996,931.6936798999996,934.6886455000022,j,0.8154770000037388,0.13598169999750098,934.6886966999991,934.6887078999971,None,,,,,,,,,,,,,,,,,00030,001,2026-01-21_11h23.46.765,MST_task,2024.2.0,60.074744998203265,2026-01-21 11h23.55.243192 +0530,
,Scenes\074a.jpg,157,0,158,,,,,,,j,1.0133925000045565,0.11193619999539806,None,,,,,,158,0,157,934.7049931000038,,,,,,,,,,,,,,,,,,,,,,,934.6887928000033,934.7049931000038,935.1886206000017,,,,,,,,,,,,935.2076035000027,,,,,,,,,,,,,,,935.2050867000034,935.2076035000027,935.2076035000027,935.2076035000027,938.2052482000036,j,1.0133925000045565,0.11193619999539806,938.205299899997,938.2053116999996,None,,,,,,,,,,,,,,,,,00030,001,2026-01-21_11h23.46.765,MST_task,2024.2.0,60.074744998203265,2026-01-21 11h23.55.243192 +0530,
,Scenes\069a.jpg,158,0,159,,,,,,,j,0.9302273000066634,0.11199439999472816,None,,,,,,159,0,158,938.2217323999976,,,,,,,,,,,,,,,,,,,,,,,938.2053985999992,938.2217323999976,938.7053415000009,,,,,,,,,,,,938.7222927000003,,,,,,,,,,,,,,,938.718816800003,938.7222927000003,938.7222927000003,938.7222927000003,941.7055610999996,j,0.9302273000066634,0.11199439999472816,941.7056138000007,941.7056247000037,None,,,,,941.721751400004,941.721751400004,941.721751400004,,,,,,,,,,00030,001,2026-01-21_11h23.46.765,MST_task,2024.2.0,60.074744998203265,2026-01-21 11h23.55.243192 +0530,
,Scenes\136a.jpg,159,0,160,,,,,,,None,,,f,0.006516399997053668,None,,,,160,0,159,941.721751400004,,,,,,,,,,,,,,,,,,,,,,,941.7057222999974,941.721751400004,942.205216899998,,,,,,,,,,,,942.2222841000003,,,,,,,,,,,,,,,942.2190346000025,942.2222841000003,942.2222841000003,942.2222841000003,945.2055807000033,None,,,945.205628599997,945.2387645000017,f,945.2217668999983,945.2217668999983,0.006516399997053668,None,945.2217668999983,945.2217668999983,945.2217668999983,,,,,,,,,,00030,001,2026-01-21_11h23.46.765,MST_task,2024.2.0,60.074744998203265,2026-01-21 11h23.55.243192 +0530,
,Scenes\082a.jpg,160,0,161,,,,,,,f,1.596846699998423,0.1510361999971792,None,,,,,,161,0,160,945.2550660000015,,,,,,,,,,,,,,,,,,,,,,,945.2388746000033,945.2550660000015,945.7385472999995,,,,,,,,,,,,945.7603987000002,,,,,,,,,,,,,,,945.7580380000036,945.7603987000002,945.7603987000002,945.7603987000002,948.7553162000004,f,1.596846699998423,0.1510361999971792,948.755369100003,948.7553807999975,None,,,,,,,,,,,,,,,,,00030,001,2026-01-21_11h23.46.765,MST_task,2024.2.0,60.074744998203265,2026-01-21 11h23.55.243192 +0530,
,Objects\051a.jpg,161,0,162,,,,,,,f,1.869749800003774,0.16699859999789624,None,,,,,,162,0,161,948.7717164000023,,,,,,,,,,,,,,,,,,,,,,,948.755469300002,948.7717164000023,949.255314799997,,,,,,,,,,,,949.2722280999988,,,,,,,,,,,,,,,949.265408700001,949.2722280999988,949.2722280999988,949.2722280999988,952.2554831999987,f,1.869749800003774,0.16699859999789624,952.2555347999987,952.2555458000024,None,,,,,952.2717366999968,952.2717366999968,952.2717366999968,,,,,,,,,,00030,001,2026-01-21_11h23.46.765,MST_task,2024.2.0,60.074744998203265,2026-01-21 11h23.55.243192 +0530,
,Objects\045a.jpg,162,0,163,,,,,,,j,1.7371722999960184,0.16799620000529103,None,,,,,,163,0,162,952.2717366999968,,,,,,,,,,,,,,,,,,,,,,,952.2556103999996,952.2717366999968,952.7553125000013,,,,,,,,,,,,952.7719757999985,,,,,,,,,,,,,,,952.7650985999971,952.7719757999985,952.7719757999985,952.7719757999985,955.7555670999973,j,1.7371722999960184,0.16799620000529103,955.7556205000037,955.7556313999994,None,,,,,955.7717443999973,955.7717443999973,955.7717443999973,,,,,,,,,,00030,001,2026-01-21_11h23.46.765,MST_task,2024.2.0,60.074744998203265,2026-01-21 11h23.55.243192 +0530,
,Objects\102a.jpg,163,0,164,,,,,,,f,0.8362973999974201,0.14505450000433484,None,,,,,,164,0,163,955.7717443999973,,,,,,,,,,,,,,,,,,,,,,,955.7557162999983,955.7717443999973,956.2553529000033,,,,,,,,,,,,956.2719929999985,,,,,,,,,,,,,,,956.2651656999988,956.2719929999985,956.2719929999985,956.2719929999985,959.2555890999975,f,0.8362973999974201,0.14505450000433484,959.255649900002,959.2556616000038,None,,,,,959.2717201000014,959.2717201000014,959.2717201000014,,,,,,,,,,00030,001,2026-01-21_11h23.46.765,MST_task,2024.2.0,60.074744998203265,2026-01-21 11h23.55.243192 +0530,
