Sl_no,image_path,thisN,thisTrialN,thisRepN,key_resp_5.keys,key_resp_5.rt,key_resp_5.duration,key_resp_7.keys,key_resp_7.rt,key_resp_7.duration,key_resp_9.keys,key_resp_8.keys,key_resp_8.rt,key_resp_8.duration,key_resp_9.rt,key_resp_9.duration,practice.thisRepN,practice.thisTrialN,practice.thisN,trials.thisRepN,trials.thisTrialN,trials.thisN,thisRow.t,notes,welcome_page.started,text.started,key_resp.started,welcome_page.stopped,key_resp.keys,key_resp.rt,key_resp.duration,instructions.started,ins.started,key_resp_2.started,instructions.stopped,key_resp_2.keys,key_resp_2.rt,key_resp_2.duration,objects_only_instruction.started,text_3.started,key_resp_3.started,objects_only_instruction.stopped,key_resp_3.keys,key_resp_3.rt,key_resp_3.duration,ISI.started,text_4.started,ISI.stopped,practice_block.started,image.started,text_5.started,key_resp_5.started,practice_block.stopped,practice.key_resp_5.keys,practice.key_resp_5.rt,practice.key_resp_5.duration,indoor_outdoor.started,indoor_outdoor.stopped,practice.key_resp_7.keys,text_4.stopped,image.stopped,text_5.stopped,key_resp_5.stopped,text_7.started,key_resp_7.started,practice.key_resp_7.rt,practice.key_resp_7.duration,practice_to_main.started,text_2.started,key_resp_4.started,practice_to_main.stopped,key_resp_4.keys,key_resp_4.rt,key_resp_4.duration,objects.started,image_2.started,text_9.started,key_resp_9.started,objects.stopped,trials.key_resp_9.keys,encoding_task.started,text_8.started,key_resp_8.started,encoding_task.stopped,trials.key_resp_8.keys,trials.key_resp_8.rt,trials.key_resp_8.duration,image_2.stopped,text_9.stopped,key_resp_9.stopped,trials.key_resp_9.rt,trials.key_resp_9.duration,end_experiment.started,text_6.started,key_resp_6.started,end_experiment.stopped,key_resp_6.keys,key_resp_6.rt,key_resp_6.duration,list_of_stimuli,encoding_task_accuracy,participant,session,date,expName,psychopyVersion,frameRate,expStart,
,,,,,,,,,,,,,,,,,,,,,,,,,0.0014754000003449619,0.0035288000071886927,0.0035288000071886927,7.6375963000173215,space,7.580606500006979,None,,,,,,,,,,,,,,,,,,,,,,,,,,,,,,,,,,,,,,,,,,,,,,,,,,,,,,,,,,,,,,,,,,,,,,,00037,001,2026-01-23_16h05.43.404,MST_task,2024.2.0,60.09200085778801,2026-01-23 16h05.52.777520 +0530,
,,,,,,,,,,,,,,,,,,,,,,,,,,,,,,,,7.637648800009629,7.651350000000093,7.651350000000093,77.00510400001076,space,69.34869740001159,None,,,,,,,,,,,,,,,,,,,,,,,,,,,,,,,,,,,,,,,,,,,,,,,,,,,,,,,,,,,,,,,,00037,001,2026-01-23_16h05.43.404,MST_task,2024.2.0,60.09200085778801,2026-01-23 16h05.52.777520 +0530,
,,,,,,,,,,,,,,,,,,,,,,,,,,,,,,,,,,,,,,,77.00514300001669,77.02188169999863,77.02188169999863,88.02108070001123,space,10.99363209999865,None,,,,,,,,,,,,,,,,,,,,,,,,,,,,,,,,,,,,,,,,,,,,,,,,,,,,,,,,,00037,001,2026-01-23_16h05.43.404,MST_task,2024.2.0,60.09200085778801,2026-01-23 16h05.52.777520 +0530,
10,practice_images/182a.jpg,0,0,1,f,2.4269947000138927,0.18400119998841546,None,,,,,,,,,1,0,0,,,,88.044432900002,,,,,,,,,,,,,,,,,,,,,,,88.04181630001403,88.044432900002,88.53703360000509,88.55100820001098,88.56427760000224,88.56427760000224,88.56427760000224,91.53731530002551,f,2.4269947000138927,0.18400119998841546,91.5393484000233,91.53937850001967,None,,,,,,,,,,,,,,,,,,,,,,,,,,,,,,,,,,,,,,,,,,,00037,001,2026-01-23_16h05.43.404,MST_task,2024.2.0,60.09200085778801,2026-01-23 16h05.52.777520 +0530,
1,practice_images/013a.jpg,1,1,1,f,1.578132700000424,0.19093380001140758,None,,,,,,,,,1,1,1,,,,91.55366289999802,,,,,,,,,,,,,,,,,,,,,,,91.53947300001164,91.55366289999802,92.03756360002444,92.04679910000414,92.05415180002456,92.05415180002456,92.05415180002456,95.03751470000134,f,1.578132700000424,0.19093380001140758,95.03758110001218,95.0375976000214,None,92.05415180002456,95.05377200001385,95.05377200001385,95.05377200001385,,,,,,,,,,,,,,,,,,,,,,,,,,,,,,,,,,,,,,,00037,001,2026-01-23_16h05.43.404,MST_task,2024.2.0,60.09200085778801,2026-01-23 16h05.52.777520 +0530,
8,practice_images/178a.jpg,2,2,1,None,,,j,2.1587367999891285,None,,,,,,,1,2,2,,,,95.05377200001385,,,,,,,,,,,,,,,,,,,,,,,95.03768670000136,95.05377200001385,95.53790230001323,95.5471746000112,95.55438560000039,95.55438560000039,95.55438560000039,98.53757220000261,None,,,98.53763630002504,100.72112170001492,j,95.55438560000039,98.55376200002502,98.55376200002502,98.55376200002502,98.55376200002502,98.55376200002502,2.1587367999891285,None,,,,,,,,,,,,,,,,,,,,,,,,,,,,,,,,,,,00037,001,2026-01-23_16h05.43.404,MST_task,2024.2.0,60.09200085778801,2026-01-23 16h05.52.777520 +0530,
9,practice_images/180a.jpg,3,3,1,f,0.96323179997853,0.1840284000209067,None,,,,,,,,,1,3,3,,,,100.73673440000857,,,,,,,,,,,,,,,,,,,,,,,100.72122340000351,100.73673440000857,101.22088750000694,101.23224660000415,101.23686950001866,101.23686950001866,101.23686950001866,104.22078750000219,f,0.96323179997853,0.1840284000209067,104.22085040001548,104.22086719999788,None,101.23686950001866,104.23764820001088,104.23764820001088,104.23764820001088,,,,,,,,,,,,,,,,,,,,,,,,,,,,,,,,,,,,,,,00037,001,2026-01-23_16h05.43.404,MST_task,2024.2.0,60.09200085778801,2026-01-23 16h05.52.777520 +0530,
4,practice_images/002b.jpg,4,4,1,f,2.775376100005815,0.18385580001631752,None,,,,,,,,,1,4,4,,,,104.23764820001088,,,,,,,,,,,,,,,,,,,,,,,104.22093920002226,104.23764820001088,104.72094950001338,104.7302597000089,104.73687160000554,104.73687160000554,104.73687160000554,107.72114619999775,f,2.775376100005815,0.18385580001631752,107.72122710000258,107.72124460001942,None,104.73687160000554,107.73691220002365,107.73691220002365,107.73691220002365,,,,,,,,,,,,,,,,,,,,,,,,,,,,,,,,,,,,,,,00037,001,2026-01-23_16h05.43.404,MST_task,2024.2.0,60.09200085778801,2026-01-23 16h05.52.777520 +0530,
2,practice_images/031a.jpg,5,5,1,f,1.826346099987859,0.16812270000809804,None,,,,,,,,,1,5,5,,,,107.73691220002365,,,,,,,,,,,,,,,,,,,,,,,107.72132310000597,107.73691220002365,108.22048410002026,108.22968000001856,108.23754220001865,108.23754220001865,108.23754220001865,111.22133000000031,f,1.826346099987859,0.16812270000809804,111.22140820001368,111.22142630000599,None,108.23754220001865,,,,,,,,,,,,,,,,,,,,,,,,,,,,,,,,,,,,,,,,,,00037,001,2026-01-23_16h05.43.404,MST_task,2024.2.0,60.09200085778801,2026-01-23 16h05.52.777520 +0530,
5,practice_images/139a.jpg,6,6,1,None,,,j,0.5983737999922596,None,,,,,,,1,6,6,,,,111.23681940001552,,,,,,,,,,,,,,,,,,,,,,,111.22151480001048,111.23681940001552,111.72074869999778,111.72966430001543,111.73724950000178,111.73724950000178,111.73724950000178,114.72087050002301,None,,,114.7209370000055,115.3375799000205,j,111.73724950000178,114.73700240001199,114.73700240001199,114.73700240001199,114.73700240001199,114.73700240001199,0.5983737999922596,None,,,,,,,,,,,,,,,,,,,,,,,,,,,,,,,,,,,00037,001,2026-01-23_16h05.43.404,MST_task,2024.2.0,60.09200085778801,2026-01-23 16h05.52.777520 +0530,
7,practice_images/166a.jpg,7,7,1,None,,,f,1.497244199999841,None,,,,,,,1,7,7,,,,115.35391220002202,,,,,,,,,,,,,,,,,,,,,,,115.33769100002246,115.35391220002202,115.83752250001999,115.84679050001432,115.85374810002395,115.85374810002395,115.85374810002395,118.8377768000064,None,,,118.83787149999989,120.35510200000135,f,115.85374810002395,,,,118.85422490001656,118.85422490001656,1.497244199999841,None,,,,,,,,,,,,,,,,,,,,,,,,,,,,,,,,,,,00037,001,2026-01-23_16h05.43.404,MST_task,2024.2.0,60.09200085778801,2026-01-23 16h05.52.777520 +0530,
3,practice_images/037a.jpg,8,8,1,f,1.1852601999999024,0.16898139999830164,None,,,,,,,,,1,8,8,,,,120.37041170001612,,,,,,,,,,,,,,,,,,,,,,,120.35520520000136,120.37041170001612,120.8538613000128,120.863128099998,120.87072880001506,120.87072880001506,120.87072880001506,123.85419560002629,f,1.1852601999999024,0.16898139999830164,123.85425940001733,123.85427630000049,None,120.87072880001506,123.87029880000046,123.87029880000046,123.87029880000046,,,,,,,,,,,,,,,,,,,,,,,,,,,,,,,,,,,,,,,00037,001,2026-01-23_16h05.43.404,MST_task,2024.2.0,60.09200085778801,2026-01-23 16h05.52.777520 +0530,
6,practice_images/158a.jpg,9,9,1,j,0.9247103999950923,0.18486269999993965,None,,,,,,,,,1,9,9,,,,123.87029880000046,,,,,,,,,,,,,,,,,,,,,,,123.85435550002148,123.87029880000046,124.35399130001315,124.36314770000172,124.37061060001724,124.37061060001724,124.37061060001724,127.3543697000132,j,0.9247103999950923,0.18486269999993965,127.35443400000804,127.35444980001193,None,124.37061060001724,127.3706577999983,127.3706577999983,127.3706577999983,,,,,,,,,,,,,,,,,,,,,,,,,,,,,,,,,,,,,,,00037,001,2026-01-23_16h05.43.404,MST_task,2024.2.0,60.09200085778801,2026-01-23 16h05.52.777520 +0530,
,,,,,,,,,,,,,,,,,,,,,,,,,,,,,,,,,,,,,,,,,,,,,,,,,,,,,,,,,,,,,,,,,,,,127.3545019000012,127.3706577999983,127.3706577999983,147.15441129999817,space,19.77288820000831,None,,,,,,,,,,,,,,,,,,,,,,,,,,,,00037,001,2026-01-23_16h05.43.404,MST_task,2024.2.0,60.09200085778801,2026-01-23 16h05.52.777520 +0530,
,Objects\051a.jpg,0,0,1,,,,,,,None,j,2.665495599998394,None,,,,,,1,0,0,147.17021050001495,,,,,,,,,,,,,,,,,,,,,,,147.15514970000368,147.17021050001495,147.65398180001648,,,,,,,,,,,,147.67906180000864,,,,,,,,,,,,,,,147.67446600002586,147.67906180000864,147.67906180000864,147.67906180000864,150.6705576000095,None,150.6727415000205,150.6868185000203,150.6868185000203,153.35453979999875,j,2.665495599998394,None,,,,,,,,,,,,,,,00037,001,2026-01-23_16h05.43.404,MST_task,2024.2.0,60.09200085778801,2026-01-23 16h05.52.777520 +0530,
,Objects\142a.jpg,1,0,2,,,,,,,f,None,,,1.8098663999990094,0.1669625999929849,,,,2,0,1,153.37031310002203,,,,,,,,,,,,,,,,,,,,,,,153.3546447000117,153.37031310002203,153.85419360001106,,,,,,,,,,,,153.87047760002315,,,,,,,,,,,,,,,153.86605100001907,153.87047760002315,153.87047760002315,153.87047760002315,156.8547557000129,f,156.85482780000893,,,156.85484090002137,None,,,156.8702125000127,156.8702125000127,156.8702125000127,1.8098663999990094,0.1669625999929849,,,,,,,,,,00037,001,2026-01-23_16h05.43.404,MST_task,2024.2.0,60.09200085778801,2026-01-23 16h05.52.777520 +0530,
,Objects\009a.jpg,2,0,3,,,,,,,None,f,0.22923610001453198,None,,,,,,3,0,2,156.8702125000127,,,,,,,,,,,,,,,,,,,,,,,156.85493430000497,156.8702125000127,157.354012100026,,,,,,,,,,,,157.37039740002365,,,,,,,,,,,,,,,157.3650556000066,157.37039740002365,157.37039740002365,157.37039740002365,160.3543666000187,None,160.35443680000026,160.37064840001403,160.37064840001403,160.60435720000532,f,0.22923610001453198,None,160.37064840001403,160.37064840001403,160.37064840001403,,,,,,,,,,,,00037,001,2026-01-23_16h05.43.404,MST_task,2024.2.0,60.09200085778801,2026-01-23 16h05.52.777520 +0530,
,Objects\190a.jpg,3,0,4,,,,,,,f,None,,,1.5586982000095304,0.16850149998208508,,,,4,0,3,160.62064600002486,,,,,,,,,,,,,,,,,,,,,,,160.60446480000974,160.62064600002486,161.10399230002076,,,,,,,,,,,,161.12111750000622,,,,,,,,,,,,,,,161.11652790001244,161.12111750000622,161.12111750000622,161.12111750000622,164.1043099000235,f,164.10437870002352,,,164.1043932000175,None,,,164.1202658000111,164.1202658000111,164.1202658000111,1.5586982000095304,0.16850149998208508,,,,,,,,,,00037,001,2026-01-23_16h05.43.404,MST_task,2024.2.0,60.09200085778801,2026-01-23 16h05.52.777520 +0530,
,Objects\143a.jpg,4,0,5,,,,,,,f,None,,,2.1945969999942463,0.1921614999882877,,,,5,0,4,164.1202658000111,,,,,,,,,,,,,,,,,,,,,,,164.10447280001245,164.1202658000111,164.60417600002256,,,,,,,,,,,,164.62057980001555,,,,,,,,,,,,,,,164.61516180000035,164.62057980001555,164.62057980001555,164.62057980001555,167.6039821000013,f,167.6040600000124,,,167.60407390000182,None,,,167.62030940002296,167.62030940002296,167.62030940002296,2.1945969999942463,0.1921614999882877,,,,,,,,,,00037,001,2026-01-23_16h05.43.404,MST_task,2024.2.0,60.09200085778801,2026-01-23 16h05.52.777520 +0530,
,Objects\064a.jpg,5,0,6,,,,,,,None,f,1.5112610000069253,None,,,,,,6,0,5,167.62030940002296,,,,,,,,,,,,,,,,,,,,,,,167.60416390001774,167.62030940002296,168.10401490001823,,,,,,,,,,,,168.12084480002522,,,,,,,,,,,,,,,168.11533380000037,168.12084480002522,168.12084480002522,168.12084480002522,171.10438610002166,None,171.10445150002488,171.12034150000545,171.12034150000545,172.6371221000154,f,1.5112610000069253,None,171.12034150000545,171.12034150000545,171.12034150000545,,,,,,,,,,,,00037,001,2026-01-23_16h05.43.404,MST_task,2024.2.0,60.09200085778801,2026-01-23 16h05.52.777520 +0530,
,Objects\032a.jpg,6,0,7,,,,,,,j,None,,,1.061679499980528,0.22396600001957268,,,,7,0,6,172.65422900000704,,,,,,,,,,,,,,,,,,,,,,,172.63726940000197,172.65422900000704,173.13706140001887,,,,,,,,,,,,173.15398620002088,,,,,,,,,,,,,,,173.14789530000417,173.15398620002088,173.15398620002088,173.15398620002088,176.1375365999993,j,176.13760560000082,,,176.1376199000224,None,,,176.15379020001274,176.15379020001274,176.15379020001274,1.061679499980528,0.22396600001957268,,,,,,,,,,00037,001,2026-01-23_16h05.43.404,MST_task,2024.2.0,60.09200085778801,2026-01-23 16h05.52.777520 +0530,
,Scenes\155a.jpg,7,0,8,,,,,,,j,None,,,1.4831326999992598,0.19206309999572113,,,,8,0,7,176.15379020001274,,,,,,,,,,,,,,,,,,,,,,,176.13771800001268,176.15379020001274,176.63711210002657,,,,,,,,,,,,176.6680792000261,,,,,,,,,,,,,,,176.66513380000833,176.6680792000261,176.6680792000261,176.6680792000261,179.65366209999775,j,179.65374720000545,,,179.65376490002382,None,,,,,,1.4831326999992598,0.19206309999572113,,,,,,,,,,00037,001,2026-01-23_16h05.43.404,MST_task,2024.2.0,60.09200085778801,2026-01-23 16h05.52.777520 +0530,
,Scenes\178a.jpg,8,0,9,,,,,,,j,None,,,1.4645142999943346,0.20044070002040826,,,,9,0,8,179.67034460001742,,,,,,,,,,,,,,,,,,,,,,,179.65388880000683,179.67034460001742,180.15412670001388,,,,,,,,,,,,180.1750390000234,,,,,,,,,,,,,,,180.172168900026,180.1750390000234,180.1750390000234,180.1750390000234,183.15473560002283,j,183.1548252000066,,,183.15483980000135,None,,,,,,1.4645142999943346,0.20044070002040826,,,,,,,,,,00037,001,2026-01-23_16h05.43.404,MST_task,2024.2.0,60.09200085778801,2026-01-23 16h05.52.777520 +0530,
,Scenes\077a.jpg,9,0,10,,,,,,,j,None,,,2.7079725000075996,0.19250340000144206,,,,10,0,9,183.17015610000817,,,,,,,,,,,,,,,,,,,,,,,183.1549341000209,183.17015610000817,183.65499190002447,,,,,,,,,,,,,,,,,,,,,,,,,,,183.67270150000695,183.67550280000432,183.67550280000432,183.67550280000432,186.67071260002558,j,186.670783700014,,,186.67079910001485,None,,,,,,2.7079725000075996,0.19250340000144206,,,,,,,,,,00037,001,2026-01-23_16h05.43.404,MST_task,2024.2.0,60.09200085778801,2026-01-23 16h05.52.777520 +0530,
,Scenes\069a.jpg,10,0,11,,,,,,,j,None,,,2.378055100009078,0.21539850000408478,,,,11,0,10,186.68663320000633,,,,,,,,,,,,,,,,,,,,,,,186.67093280001427,186.68663320000633,187.17068890001974,,,,,,,,,,,,187.19006740002078,,,,,,,,,,,,,,,187.18725050002104,187.19006740002078,187.19006740002078,187.19006740002078,190.18719009999768,j,190.18726410000818,,,190.18728000001283,None,,,,,,2.378055100009078,0.21539850000408478,,,,,,,,,,00037,001,2026-01-23_16h05.43.404,MST_task,2024.2.0,60.09200085778801,2026-01-23 16h05.52.777520 +0530,
,Scenes\072a.jpg,11,0,12,,,,,,,j,None,,,2.281984100001864,0.21600019998732023,,,,12,0,11,190.2036139999982,,,,,,,,,,,,,,,,,,,,,,,190.1874100000132,190.2036139999982,190.6873924000247,,,,,,,,,,,,190.7098809000163,,,,,,,,,,,,,,,190.7071174000157,190.7098809000163,190.7098809000163,190.7098809000163,193.7036877000064,j,193.7037695000181,,,193.70378999999957,None,,,,,,2.281984100001864,0.21600019998732023,,,,,,,,,,00037,001,2026-01-23_16h05.43.404,MST_task,2024.2.0,60.09200085778801,2026-01-23 16h05.52.777520 +0530,
,Scenes\126a.jpg,12,0,13,,,,,,,j,None,,,2.1272094000014476,0.20676680002361536,,,,13,0,12,193.72008520000963,,,,,,,,,,,,,,,,,,,,,,,193.70391340000788,193.72008520000963,194.20393499999773,,,,,,,,,,,,194.22544050001306,,,,,,,,,,,,,,,194.2225432000123,194.22544050001306,194.22544050001306,194.22544050001306,197.22020979999797,j,197.22029040000052,,,197.22030549999909,None,,,,,,2.1272094000014476,0.20676680002361536,,,,,,,,,,00037,001,2026-01-23_16h05.43.404,MST_task,2024.2.0,60.09200085778801,2026-01-23 16h05.52.777520 +0530,
,Scenes\187a.jpg,13,0,14,,,,,,,j,None,,,1.2573297999915667,0.29624320002039894,,,,14,0,13,197.23731720002252,,,,,,,,,,,,,,,,,,,,,,,197.22042880000663,197.23731720002252,197.7205924000009,,,,,,,,,,,,197.74221760002547,,,,,,,,,,,,,,,197.7389441000123,197.74221760002547,197.74221760002547,197.74221760002547,200.72057060000952,j,200.72064169999794,,,200.7206568000256,None,,,,,,1.2573297999915667,0.29624320002039894,,,,,,,,,,00037,001,2026-01-23_16h05.43.404,MST_task,2024.2.0,60.09200085778801,2026-01-23 16h05.52.777520 +0530,
,Objects\042a.jpg,14,0,15,,,,,,,f,None,,,0.7940528000181075,0.2000269999844022,,,,15,0,14,200.73695670001325,,,,,,,,,,,,,,,,,,,,,,,200.72074200000498,200.73695670001325,201.22094800000195,,,,,,,,,,,,201.2371915000258,,,,,,,,,,,,,,,201.23442320001777,201.2371915000258,201.2371915000258,201.2371915000258,204.22161090001464,f,204.22169220002252,,,204.2217082999996,None,,,,,,0.7940528000181075,0.2000269999844022,,,,,,,,,,00037,001,2026-01-23_16h05.43.404,MST_task,2024.2.0,60.09200085778801,2026-01-23 16h05.52.777520 +0530,
,Objects\005a.jpg,15,0,16,,,,,,,None,f,2.303485999989789,None,,,,,,16,0,15,204.2366430000111,,,,,,,,,,,,,,,,,,,,,,,204.22180360002676,204.2366430000111,204.72085330000846,,,,,,,,,,,,204.73702030000277,,,,,,,,,,,,,,,204.73157130001346,204.73702030000277,204.73702030000277,204.73702030000277,207.72160420002183,None,207.7216829000099,207.7368122000189,207.7368122000189,210.05436760000885,f,2.303485999989789,None,207.7368122000189,207.7368122000189,207.7368122000189,,,,,,,,,,,,00037,001,2026-01-23_16h05.43.404,MST_task,2024.2.0,60.09200085778801,2026-01-23 16h05.52.777520 +0530,
,Objects\068a.jpg,16,0,17,,,,,,,None,j,0.12525349998031743,None,,,,,,17,0,16,210.07033360001515,,,,,,,,,,,,,,,,,,,,,,,210.05452720000176,210.07033360001515,210.55386750001344,,,,,,,,,,,,210.57098270001006,,,,,,,,,,,,,,,210.56476030001068,210.57098270001006,210.57098270001006,210.57098270001006,213.55473390000407,None,213.55479680001736,213.5701707000262,213.5701707000262,213.7044686000154,j,0.12525349998031743,None,213.5701707000262,213.5701707000262,213.5701707000262,,,,,,,,,,,,00037,001,2026-01-23_16h05.43.404,MST_task,2024.2.0,60.09200085778801,2026-01-23 16h05.52.777520 +0530,
,Objects\187a.jpg,17,0,18,,,,,,,f,None,,,0.6904671000083908,0.22408119999454357,,,,18,0,17,213.7205576999986,,,,,,,,,,,,,,,,,,,,,,,213.70457890001126,213.7205576999986,214.20414010001696,,,,,,,,,,,,214.2209642000089,,,,,,,,,,,,,,,214.21446640000795,214.2209642000089,214.2209642000089,214.2209642000089,217.20440820002113,f,217.20448060001945,,,217.20449490001192,None,,,217.21997800000827,217.21997800000827,217.21997800000827,0.6904671000083908,0.22408119999454357,,,,,,,,,,00037,001,2026-01-23_16h05.43.404,MST_task,2024.2.0,60.09200085778801,2026-01-23 16h05.52.777520 +0530,
,Objects\159a.jpg,18,0,19,,,,,,,f,None,,,1.175090700009605,0.1994436999957543,,,,19,0,18,217.21997800000827,,,,,,,,,,,,,,,,,,,,,,,217.20459970002412,217.21997800000827,217.7039462000248,,,,,,,,,,,,217.72088050001184,,,,,,,,,,,,,,,217.71460090001347,217.72088050001184,217.72088050001184,217.72088050001184,220.70443050001631,f,220.70453509999788,,,220.70455200001015,None,,,220.72084350002115,220.72084350002115,220.72084350002115,1.175090700009605,0.1994436999957543,,,,,,,,,,00037,001,2026-01-23_16h05.43.404,MST_task,2024.2.0,60.09200085778801,2026-01-23 16h05.52.777520 +0530,
,Objects\124a.jpg,19,0,20,,,,,,,j,None,,,1.5546651000040583,0.2246584999957122,,,,20,0,19,220.72084350002115,,,,,,,,,,,,,,,,,,,,,,,220.70468290001736,220.72084350002115,221.2037677000044,,,,,,,,,,,,221.22074960000464,,,,,,,,,,,,,,,221.2161537000211,221.22074960000464,221.22074960000464,221.22074960000464,224.20478980001644,j,224.20485500001814,,,224.20486850000452,None,,,224.22035560000222,224.22035560000222,224.22035560000222,1.5546651000040583,0.2246584999957122,,,,,,,,,,00037,001,2026-01-23_16h05.43.404,MST_task,2024.2.0,60.09200085778801,2026-01-23 16h05.52.777520 +0530,
,Objects\136a.jpg,20,0,21,,,,,,,None,f,0.5110748000151943,None,,,,,,21,0,20,224.22035560000222,,,,,,,,,,,,,,,,,,,,,,,224.20496930001536,224.22035560000222,224.70440200000303,,,,,,,,,,,,224.72045360002085,,,,,,,,,,,,,,,224.71505759999854,224.72045360002085,224.72045360002085,224.72045360002085,227.7044550999999,None,227.70452450000448,227.72036920001847,227.72036920001847,228.23847810001462,f,0.5110748000151943,None,227.72036920001847,227.72036920001847,227.72036920001847,,,,,,,,,,,,00037,001,2026-01-23_16h05.43.404,MST_task,2024.2.0,60.09200085778801,2026-01-23 16h05.52.777520 +0530,
,Scenes\035a.jpg,21,0,22,,,,,,,j,None,,,2.7194004000048153,None,,,,22,0,21,228.25383729999885,,,,,,,,,,,,,,,,,,,,,,,228.23863120001624,228.25383729999885,228.73708580000675,,,,,,,,,,,,228.76044700000784,,,,,,,,,,,,,,,228.7575416000036,228.76044700000784,228.76044700000784,228.76044700000784,231.75398270000005,j,231.75407100000302,,,231.75408650000463,None,,,,,,2.7194004000048153,None,,,,,,,,,,00037,001,2026-01-23_16h05.43.404,MST_task,2024.2.0,60.09200085778801,2026-01-23 16h05.52.777520 +0530,
,Scenes\158a.jpg,22,0,23,,,,,,,None,j,1.6174298000114504,None,,,,,,23,0,22,231.7704518000246,,,,,,,,,,,,,,,,,,,,,,,231.75418220000574,231.7704518000246,232.25440620002337,,,,,,,,,,,,,,,,,,,,,,,,,,,232.2755090999999,232.2780907000124,232.2780907000124,232.2780907000124,235.2546444000036,None,235.25472080000327,235.27032540002256,235.27032540002256,236.90408230002504,j,1.6174298000114504,None,,,,,,,,,,,,,,,00037,001,2026-01-23_16h05.43.404,MST_task,2024.2.0,60.09200085778801,2026-01-23 16h05.52.777520 +0530,
,Scenes\172a.jpg,23,0,24,,,,,,,j,None,,,0.9682170999876689,0.30455369999981485,,,,24,0,23,236.92033260001335,,,,,,,,,,,,,,,,,,,,,,,236.90418920002412,236.92033260001335,237.40434800001094,,,,,,,,,,,,237.42365229999996,,,,,,,,,,,,,,,237.41995380001026,237.42365229999996,237.42365229999996,237.42365229999996,240.42061260002083,j,240.42070620000595,,,240.42072310001822,None,,,,,,0.9682170999876689,0.30455369999981485,,,,,,,,,,00037,001,2026-01-23_16h05.43.404,MST_task,2024.2.0,60.09200085778801,2026-01-23 16h05.52.777520 +0530,
,Scenes\170a.jpg,24,0,25,,,,,,,j,None,,,2.229113799985498,0.23172189999604598,,,,25,0,24,240.43678940000245,,,,,,,,,,,,,,,,,,,,,,,240.42081560002407,240.43678940000245,240.9206665000238,,,,,,,,,,,,240.94632650000858,,,,,,,,,,,,,,,240.94370950001758,240.94632650000858,240.94632650000858,240.94632650000858,243.93723750000936,j,243.93732220001402,,,243.9373378000164,None,,,,,,2.229113799985498,0.23172189999604598,,,,,,,,,,00037,001,2026-01-23_16h05.43.404,MST_task,2024.2.0,60.09200085778801,2026-01-23 16h05.52.777520 +0530,
,Scenes\177a.jpg,25,0,26,,,,,,,j,None,,,1.3269119999895338,0.26405959998373874,,,,26,0,25,243.95430180002586,,,,,,,,,,,,,,,,,,,,,,,243.93744030001108,243.95430180002586,244.4371580000152,,,,,,,,,,,,244.45631580002373,,,,,,,,,,,,,,,244.4533757000172,244.45631580002373,244.45631580002373,244.45631580002373,247.45406070002355,j,247.45413320002262,,,247.4541492999997,None,,,,,,1.3269119999895338,0.26405959998373874,,,,,,,,,,00037,001,2026-01-23_16h05.43.404,MST_task,2024.2.0,60.09200085778801,2026-01-23 16h05.52.777520 +0530,
,Scenes\013a.jpg,26,0,27,,,,,,,j,None,,,1.0062347000057343,0.24106059997575358,,,,27,0,26,247.4706638000207,,,,,,,,,,,,,,,,,,,,,,,247.45423860001029,247.4706638000207,247.95404120002058,,,,,,,,,,,,247.97700810001697,,,,,,,,,,,,,,,247.97442370001227,247.97700810001697,247.97700810001697,247.97700810001697,250.970212300017,j,250.97031120001338,,,250.97032910000416,None,,,,,,1.0062347000057343,0.24106059997575358,,,,,,,,,,00037,001,2026-01-23_16h05.43.404,MST_task,2024.2.0,60.09200085778801,2026-01-23 16h05.52.777520 +0530,
,Scenes\078a.jpg,27,0,28,,,,,,,None,j,0.9518956999818329,None,,,,,,28,0,27,250.98680050001713,,,,,,,,,,,,,,,,,,,,,,,250.9704690000217,250.98680050001713,251.47064030001638,,,,,,,,,,,,251.4928584000154,,,,,,,,,,,,,,,251.48971420002636,251.4928584000154,251.4928584000154,251.4928584000154,254.48683220002567,None,254.48690470002475,254.50395959999878,254.50395959999878,255.47070460001123,j,0.9518956999818329,None,,,,,,,,,,,,,,,00037,001,2026-01-23_16h05.43.404,MST_task,2024.2.0,60.09200085778801,2026-01-23 16h05.52.777520 +0530,
,Objects\113a.jpg,28,0,29,,,,,,,f,None,,,1.8044519000104629,0.2159537999832537,,,,29,0,28,255.48701910002274,,,,,,,,,,,,,,,,,,,,,,,255.47085589999915,255.48701910002274,255.97088930002064,,,,,,,,,,,,255.98728660002234,,,,,,,,,,,,,,,255.98248230002355,255.98728660002234,255.98728660002234,255.98728660002234,258.9711011000036,f,258.9711771000002,,,258.9711932000064,None,,,,,,1.8044519000104629,0.2159537999832537,,,,,,,,,,00037,001,2026-01-23_16h05.43.404,MST_task,2024.2.0,60.09200085778801,2026-01-23 16h05.52.777520 +0530,
,Objects\111a.jpg,29,0,30,,,,,,,f,None,,,0.7042500999814365,0.19999760002247058,,,,30,0,29,258.98698280000826,,,,,,,,,,,,,,,,,,,,,,,258.9712845000031,258.98698280000826,259.47084250001353,,,,,,,,,,,,259.48707390000345,,,,,,,,,,,,,,,259.4819001000142,259.48707390000345,259.48707390000345,259.48707390000345,262.471008100023,f,262.47108930000104,,,262.471102600015,None,,,262.48712570001953,262.48712570001953,262.48712570001953,0.7042500999814365,0.19999760002247058,,,,,,,,,,00037,001,2026-01-23_16h05.43.404,MST_task,2024.2.0,60.09200085778801,2026-01-23 16h05.52.777520 +0530,
,Objects\065a.jpg,30,0,31,,,,,,,f,None,,,1.6447487999976147,0.2636965000128839,,,,31,0,30,262.48712570001953,,,,,,,,,,,,,,,,,,,,,,,262.4712353000068,262.48712570001953,262.9709836000111,,,,,,,,,,,,262.98702610001783,,,,,,,,,,,,,,,262.9814763000177,262.98702610001783,262.98702610001783,262.98702610001783,265.9711623000039,f,265.9712353000068,,,265.9712488000223,None,,,265.9866702000145,265.9866702000145,265.9866702000145,1.6447487999976147,0.2636965000128839,,,,,,,,,,00037,001,2026-01-23_16h05.43.404,MST_task,2024.2.0,60.09200085778801,2026-01-23 16h05.52.777520 +0530,
,Objects\047a.jpg,31,0,32,,,,,,,f,None,,,0.8640527999959886,0.2160474999982398,,,,32,0,31,265.9866702000145,,,,,,,,,,,,,,,,,,,,,,,265.97135420000996,265.9866702000145,266.47067920002155,,,,,,,,,,,,266.4876026000129,,,,,,,,,,,,,,,266.48116510000546,266.4876026000129,266.4876026000129,266.4876026000129,269.4719559000223,f,269.47202410001773,,,269.4720379000064,None,,,269.4868353000202,269.4868353000202,269.4868353000202,0.8640527999959886,0.2160474999982398,,,,,,,,,,00037,001,2026-01-23_16h05.43.404,MST_task,2024.2.0,60.09200085778801,2026-01-23 16h05.52.777520 +0530,
,Objects\157a.jpg,32,0,33,,,,,,,f,None,,,1.893110600009095,0.1995022000046447,,,,33,0,32,269.4868353000202,,,,,,,,,,,,,,,,,,,,,,,269.47214280001936,269.4868353000202,269.97111800001585,,,,,,,,,,,,269.9869699999981,,,,,,,,,,,,,,,269.9815296000161,269.9869699999981,269.9869699999981,269.9869699999981,272.9713111000019,f,272.97138530001394,,,272.9713996000064,None,,,272.9866694000084,272.9866694000084,272.9866694000084,1.893110600009095,0.1995022000046447,,,,,,,,,,00037,001,2026-01-23_16h05.43.404,MST_task,2024.2.0,60.09200085778801,2026-01-23 16h05.52.777520 +0530,
,Objects\137a.jpg,33,0,34,,,,,,,None,f,0.2815571000101045,None,,,,,,34,0,33,272.9866694000084,,,,,,,,,,,,,,,,,,,,,,,272.97150920002605,272.9866694000084,273.47070040000835,,,,,,,,,,,,273.4865635000169,,,,,,,,,,,,,,,273.48136510001495,273.4865635000169,273.4865635000169,273.4865635000169,276.4710206000018,None,276.47108750001644,276.48680590000004,276.48680590000004,276.7709576000052,f,0.2815571000101045,None,276.48680590000004,276.48680590000004,276.48680590000004,,,,,,,,,,,,00037,001,2026-01-23_16h05.43.404,MST_task,2024.2.0,60.09200085778801,2026-01-23 16h05.52.777520 +0530,
,Objects\123a.jpg,34,0,35,,,,,,,None,j,2.0504636999976356,None,,,,,,35,0,34,276.7867922000005,,,,,,,,,,,,,,,,,,,,,,,276.7710658000142,276.7867922000005,277.27067620001617,,,,,,,,,,,,277.28693590001785,,,,,,,,,,,,,,,277.280965700018,277.28693590001785,277.28693590001785,277.28693590001785,280.2710754,None,280.27113629999803,280.2866150000191,280.2866150000191,282.3540858000051,j,2.0504636999976356,None,,,,,,,,,,,,,,,00037,001,2026-01-23_16h05.43.404,MST_task,2024.2.0,60.09200085778801,2026-01-23 16h05.52.777520 +0530,
,Scenes\094a.jpg,35,0,36,,,,,,,f,None,,,1.9337319000042044,0.18475470002158545,,,,36,0,35,282.37013300001854,,,,,,,,,,,,,,,,,,,,,,,282.354187000019,282.37013300001854,282.8540437000047,,,,,,,,,,,,282.88168540000333,,,,,,,,,,,,,,,282.87867720000213,282.88168540000333,282.88168540000333,282.88168540000333,285.8703735000163,f,285.8704501000175,,,285.87047610001173,None,,,,,,1.9337319000042044,0.18475470002158545,,,,,,,,,,00037,001,2026-01-23_16h05.43.404,MST_task,2024.2.0,60.09200085778801,2026-01-23 16h05.52.777520 +0530,
,Scenes\021a.jpg,36,0,37,,,,,,,j,None,,,2.1121481000154745,0.21607520000543445,,,,37,0,36,285.8868432000163,,,,,,,,,,,,,,,,,,,,,,,285.8705657000246,285.8868432000163,286.3708508000127,,,,,,,,,,,,286.3910969000135,,,,,,,,,,,,,,,286.38828060001833,286.3910969000135,286.3910969000135,286.3910969000135,289.3874937000219,j,289.3875897000253,,,289.38760580000235,None,,,,,,2.1121481000154745,0.21607520000543445,,,,,,,,,,00037,001,2026-01-23_16h05.43.404,MST_task,2024.2.0,60.09200085778801,2026-01-23 16h05.52.777520 +0530,
,Scenes\079a.jpg,37,0,38,,,,,,,j,None,,,1.0068787999916822,0.20101119999890216,,,,38,0,37,289.4043851000024,,,,,,,,,,,,,,,,,,,,,,,289.387710400013,289.4043851000024,289.9033662000147,,,,,,,,,,,,,,,,,,,,,,,,,,,289.917471200024,289.9208857000049,289.9208857000049,289.9208857000049,292.90420210000593,j,292.90429669999867,,,292.90431100002024,None,,,,,,1.0068787999916822,0.20101119999890216,,,,,,,,,,00037,001,2026-01-23_16h05.43.404,MST_task,2024.2.0,60.09200085778801,2026-01-23 16h05.52.777520 +0530,
,Scenes\046a.jpg,38,0,39,,,,,,,j,None,,,0.8235115999996196,0.1758579000015743,,,,39,0,38,292.92028089999803,,,,,,,,,,,,,,,,,,,,,,,292.9044307000004,292.92028089999803,293.40398080000887,,,,,,,,,,,,293.43183040001895,,,,,,,,,,,,,,,293.4291995000094,293.43183040001895,293.43183040001895,293.43183040001895,296.4209457000252,j,296.42106220001006,,,296.4210778000124,None,,,,,,0.8235115999996196,0.1758579000015743,,,,,,,,,,00037,001,2026-01-23_16h05.43.404,MST_task,2024.2.0,60.09200085778801,2026-01-23 16h05.52.777520 +0530,
,Scenes\014a.jpg,39,0,40,,,,,,,j,None,,,1.7419102000130806,0.20001359999878332,,,,40,0,39,296.43723310000496,,,,,,,,,,,,,,,,,,,,,,,296.4212088000204,296.43723310000496,296.9206672,,,,,,,,,,,,296.93784140000935,,,,,,,,,,,,,,,296.933724100003,296.93784140000935,296.93784140000935,296.93784140000935,299.9209597000154,j,299.9210352000082,,,299.92104880002444,None,,,299.93689240000094,299.93689240000094,299.93689240000094,1.7419102000130806,0.20001359999878332,,,,,,,,,,00037,001,2026-01-23_16h05.43.404,MST_task,2024.2.0,60.09200085778801,2026-01-23 16h05.52.777520 +0530,
,Scenes\081a.jpg,40,0,41,,,,,,,j,None,,,1.2107635000138544,0.18399359998875298,,,,41,0,40,299.93689240000094,,,,,,,,,,,,,,,,,,,,,,,299.9211293000262,299.93689240000094,300.4210313000076,,,,,,,,,,,,300.4451568000077,,,,,,,,,,,,,,,300.44229870001436,300.4451568000077,300.4451568000077,300.4451568000077,303.43766310001956,j,303.43773140001576,,,303.4377460000105,None,,,,,,1.2107635000138544,0.18399359998875298,,,,,,,,,,00037,001,2026-01-23_16h05.43.404,MST_task,2024.2.0,60.09200085778801,2026-01-23 16h05.52.777520 +0530,
,Scenes\146a.jpg,41,0,42,,,,,,,j,None,,,1.4883228999970015,0.22400859999470413,,,,42,0,41,303.45428270002594,,,,,,,,,,,,,,,,,,,,,,,303.4378661000228,303.45428270002594,303.93719980001333,,,,,,,,,,,,303.9595063000161,,,,,,,,,,,,,,,303.9564929000044,303.9595063000161,303.9595063000161,303.9595063000161,306.95391090001795,j,306.9540235000022,,,306.9540445000166,None,,,,,,1.4883228999970015,0.22400859999470413,,,,,,,,,,00037,001,2026-01-23_16h05.43.404,MST_task,2024.2.0,60.09200085778801,2026-01-23 16h05.52.777520 +0530,
,Objects\129a.jpg,42,0,43,,,,,,,f,None,,,1.552865000005113,0.1920215999998618,,,,43,0,42,306.9705800000229,,,,,,,,,,,,,,,,,,,,,,,306.9542156000098,306.9705800000229,307.45426740002586,,,,,,,,,,,,307.4705477000098,,,,,,,,,,,,,,,307.4655478000059,307.4705477000098,307.4705477000098,307.4705477000098,310.45477010001196,f,310.4548419000057,,,310.4548549000174,None,,,310.47041400001035,310.47041400001035,310.47041400001035,1.552865000005113,0.1920215999998618,,,,,,,,,,00037,001,2026-01-23_16h05.43.404,MST_task,2024.2.0,60.09200085778801,2026-01-23 16h05.52.777520 +0530,
,Objects\039a.jpg,43,0,44,,,,,,,None,j,0.8772600000083912,None,,,,,,44,0,43,310.47041400001035,,,,,,,,,,,,,,,,,,,,,,,310.4549803000118,310.47041400001035,310.9544548000267,,,,,,,,,,,,310.97060550001333,,,,,,,,,,,,,,,310.96558490002644,310.97060550001333,310.97060550001333,310.97060550001333,313.95509480001056,None,313.9551723000186,313.97037680001813,313.97037680001813,314.8541283000086,j,0.8772600000083912,None,313.97037680001813,313.97037680001813,313.97037680001813,,,,,,,,,,,,00037,001,2026-01-23_16h05.43.404,MST_task,2024.2.0,60.09200085778801,2026-01-23 16h05.52.777520 +0530,
,Objects\076a.jpg,44,0,45,,,,,,,j,None,,,2.100871599977836,0.2000090000219643,,,,45,0,44,314.8707372000208,,,,,,,,,,,,,,,,,,,,,,,314.8543016000185,314.8707372000208,315.35384490000433,,,,,,,,,,,,315.3704483000038,,,,,,,,,,,,,,,315.3648871000041,315.3704483000038,315.3704483000038,315.3704483000038,318.3545942000055,j,318.3546757000149,,,318.3546908000135,None,,,318.37033040000824,318.37033040000824,318.37033040000824,2.100871599977836,0.2000090000219643,,,,,,,,,,00037,001,2026-01-23_16h05.43.404,MST_task,2024.2.0,60.09200085778801,2026-01-23 16h05.52.777520 +0530,
,Objects\066a.jpg,45,0,46,,,,,,,None,j,0.913792100007413,None,,,,,,46,0,45,318.37033040000824,,,,,,,,,,,,,,,,,,,,,,,318.3548033000261,318.37033040000824,318.85452950000763,,,,,,,,,,,,318.87074930002564,,,,,,,,,,,,,,,318.86602000001585,318.87074930002564,318.87074930002564,318.87074930002564,321.85455460002413,None,321.85461900001974,321.8702073000022,321.8702073000022,322.7878553000046,j,0.913792100007413,None,321.8702073000022,321.8702073000022,321.8702073000022,,,,,,,,,,,,00037,001,2026-01-23_16h05.43.404,MST_task,2024.2.0,60.09200085778801,2026-01-23 16h05.52.777520 +0530,
,Objects\018a.jpg,46,0,47,,,,,,,None,f,0.6476278000045568,None,,,,,,47,0,46,322.8050785000087,,,,,,,,,,,,,,,,,,,,,,,322.78801970000495,322.8050785000087,323.30414900000324,,,,,,,,,,,,,,,,,,,,,,,,,,,323.3158371000027,323.320530099998,323.320530099998,323.320530099998,326.3039946000208,None,326.3040652000054,326.3204046000028,326.3204046000028,326.97128820000216,f,0.6476278000045568,None,,,,,,,,,,,,,,,00037,001,2026-01-23_16h05.43.404,MST_task,2024.2.0,60.09200085778801,2026-01-23 16h05.52.777520 +0530,
,Objects\084a.jpg,47,0,48,,,,,,,f,None,,,2.0887677000137046,0.19182949999230914,,,,48,0,47,326.9868854000233,,,,,,,,,,,,,,,,,,,,,,,326.97139920000336,326.9868854000233,327.4708273000142,,,,,,,,,,,,327.4871322000108,,,,,,,,,,,,,,,327.4822658000048,327.4871322000108,327.4871322000108,327.4871322000108,330.4710868000111,f,330.47116020001704,,,330.4711751000141,None,,,330.4871837000246,330.4871837000246,330.4871837000246,2.0887677000137046,0.19182949999230914,,,,,,,,,,00037,001,2026-01-23_16h05.43.404,MST_task,2024.2.0,60.09200085778801,2026-01-23 16h05.52.777520 +0530,
,Objects\192a.jpg,48,0,49,,,,,,,j,None,,,1.7486888999992516,0.1838350000034552,,,,49,0,48,330.4871837000246,,,,,,,,,,,,,,,,,,,,,,,330.47127810001257,330.4871837000246,330.9705854000058,,,,,,,,,,,,330.9870616000262,,,,,,,,,,,,,,,330.9805366000219,330.9870616000262,330.9870616000262,330.9870616000262,333.97107820000383,j,333.9711570000218,,,333.971171400015,None,,,333.98678440001095,333.98678440001095,333.98678440001095,1.7486888999992516,0.1838350000034552,,,,,,,,,,00037,001,2026-01-23_16h05.43.404,MST_task,2024.2.0,60.09200085778801,2026-01-23 16h05.52.777520 +0530,
,Scenes\055a.jpg,49,0,50,,,,,,,j,None,,,1.5402678000100423,0.2560531999915838,,,,50,0,49,333.98678440001095,,,,,,,,,,,,,,,,,,,,,,,333.971254700009,333.98678440001095,334.47060440000496,,,,,,,,,,,,334.4915304000024,,,,,,,,,,,,,,,334.4882354000001,334.4915304000024,334.4915304000024,334.4915304000024,337.4870767000248,j,337.4871547000075,,,337.48717070001294,None,,,,,,1.5402678000100423,0.2560531999915838,,,,,,,,,,00037,001,2026-01-23_16h05.43.404,MST_task,2024.2.0,60.09200085778801,2026-01-23 16h05.52.777520 +0530,
,Scenes\164a.jpg,50,0,51,,,,,,,j,None,,,2.312207999988459,0.20791430000099353,,,,51,0,50,337.5037461000029,,,,,,,,,,,,,,,,,,,,,,,337.4872802000027,337.5037461000029,337.987283800001,,,,,,,,,,,,338.0076588000229,,,,,,,,,,,,,,,338.00505300000077,338.0076588000229,338.0076588000229,338.0076588000229,341.0038775000139,j,341.00397420002264,,,341.00398940002196,None,,,,,,2.312207999988459,0.20791430000099353,,,,,,,,,,00037,001,2026-01-23_16h05.43.404,MST_task,2024.2.0,60.09200085778801,2026-01-23 16h05.52.777520 +0530,
,Scenes\115a.jpg,51,0,52,,,,,,,j,None,,,0.8226290000020526,0.19196460000239313,,,,52,0,51,341.02058589999797,,,,,,,,,,,,,,,,,,,,,,,341.0040829000063,341.02058589999797,341.5044004000083,,,,,,,,,,,,,,,,,,,,,,,,,,,341.5258064000227,341.5290187000064,341.5290187000064,341.5290187000064,344.52080480000586,j,344.52089280000655,,,344.5209089000127,None,,,,,,0.8226290000020526,0.19196460000239313,,,,,,,,,,00037,001,2026-01-23_16h05.43.404,MST_task,2024.2.0,60.09200085778801,2026-01-23 16h05.52.777520 +0530,
,Scenes\129a.jpg,52,0,53,,,,,,,None,j,0.8182449000014458,None,,,,,,53,0,52,344.53667349999887,,,,,,,,,,,,,,,,,,,,,,,344.52099780002027,344.53667349999887,345.020794400014,,,,,,,,,,,,345.03820940002333,,,,,,,,,,,,,,,345.0354902000108,345.03820940002333,345.03820940002333,345.03820940002333,348.0372160000261,None,348.03730540000834,348.05392440001015,348.05392440001015,348.887576100009,j,0.8182449000014458,None,,,,,,,,,,,,,,,00037,001,2026-01-23_16h05.43.404,MST_task,2024.2.0,60.09200085778801,2026-01-23 16h05.52.777520 +0530,
,Scenes\163a.jpg,53,0,54,,,,,,,j,None,,,0.971429099998204,0.29596449999371544,,,,54,0,53,348.90419070000644,,,,,,,,,,,,,,,,,,,,,,,348.8876861000026,348.90419070000644,349.3870830000087,,,,,,,,,,,,349.40430790002574,,,,,,,,,,,,,,,349.40158350000274,349.40430790002574,349.40430790002574,349.40430790002574,352.38792150001973,j,352.3880054000183,,,352.38802050001686,None,,,352.40347060002387,352.40347060002387,352.40347060002387,0.971429099998204,0.29596449999371544,,,,,,,,,,00037,001,2026-01-23_16h05.43.404,MST_task,2024.2.0,60.09200085778801,2026-01-23 16h05.52.777520 +0530,
,Scenes\104a.jpg,54,0,55,,,,,,,None,j,0.5833065999904647,None,,,,,,55,0,54,352.40347060002387,,,,,,,,,,,,,,,,,,,,,,,352.38813820001087,352.40347060002387,352.8873811000085,,,,,,,,,,,,352.9103956000181,,,,,,,,,,,,,,,352.9073566000152,352.9103956000181,352.9103956000181,352.9103956000181,355.90364460001,None,355.90373710001586,355.9202282000042,355.9202282000042,356.50581190001685,j,0.5833065999904647,None,,,,,,,,,,,,,,,00037,001,2026-01-23_16h05.43.404,MST_task,2024.2.0,60.09200085778801,2026-01-23 16h05.52.777520 +0530,
,Scenes\031a.jpg,55,0,56,,,,,,,None,j,0.4112790999934077,None,,,,,,56,0,55,356.52048320000176,,,,,,,,,,,,,,,,,,,,,,,356.50592110000434,356.52048320000176,357.0038734000118,,,,,,,,,,,,357.02728490001755,,,,,,,,,,,,,,,357.02486270002555,357.02728490001755,357.02728490001755,357.02728490001755,360.02053500001784,None,360.020622800017,360.0367704000091,360.0367704000091,360.45431790000293,j,0.4112790999934077,None,,,,,,,,,,,,,,,00037,001,2026-01-23_16h05.43.404,MST_task,2024.2.0,60.09200085778801,2026-01-23 16h05.52.777520 +0530,
,Objects\048a.jpg,56,0,57,,,,,,,j,None,,,1.548617100022966,0.23990499999490567,,,,57,0,56,360.4701658000122,,,,,,,,,,,,,,,,,,,,,,,360.45447150000837,360.4701658000122,360.9546207000094,,,,,,,,,,,,360.97063630001503,,,,,,,,,,,,,,,360.965781100007,360.97063630001503,360.97063630001503,360.97063630001503,363.95440660000895,j,363.9544825000048,,,363.95450130000245,None,,,363.97022800002014,363.97022800002014,363.97022800002014,1.548617100022966,0.23990499999490567,,,,,,,,,,00037,001,2026-01-23_16h05.43.404,MST_task,2024.2.0,60.09200085778801,2026-01-23 16h05.52.777520 +0530,
,Objects\085a.jpg,57,0,58,,,,,,,f,None,,,2.130210499977693,0.21487360002356581,,,,58,0,57,363.97022800002014,,,,,,,,,,,,,,,,,,,,,,,363.95458430002327,363.97022800002014,364.45372280001175,,,,,,,,,,,,364.47049649999826,,,,,,,,,,,,,,,364.46488320000935,364.47049649999826,364.47049649999826,364.47049649999826,367.4543894000235,f,367.45447850000346,,,367.45449410000583,None,,,367.47044040000765,367.47044040000765,367.47044040000765,2.130210499977693,0.21487360002356581,,,,,,,,,,00037,001,2026-01-23_16h05.43.404,MST_task,2024.2.0,60.09200085778801,2026-01-23 16h05.52.777520 +0530,
,Objects\127a.jpg,58,0,59,,,,,,,f,None,,,1.2768026000121608,0.27197219998924993,,,,59,0,58,367.47044040000765,,,,,,,,,,,,,,,,,,,,,,,367.454613400012,367.47044040000765,367.9542222000018,,,,,,,,,,,,367.97071720001986,,,,,,,,,,,,,,,367.9656931000063,367.97071720001986,367.97071720001986,367.97071720001986,370.95442030002596,f,370.95448660000693,,,370.95450030002394,None,,,370.9707658000116,370.9707658000116,370.9707658000116,1.2768026000121608,0.27197219998924993,,,,,,,,,,00037,001,2026-01-23_16h05.43.404,MST_task,2024.2.0,60.09200085778801,2026-01-23 16h05.52.777520 +0530,
,Objects\034a.jpg,59,0,60,,,,,,,None,f,0.9937768000236247,None,,,,,,60,0,59,370.9707658000116,,,,,,,,,,,,,,,,,,,,,,,370.9545821000065,370.9707658000116,371.4539767000242,,,,,,,,,,,,371.4707704000175,,,,,,,,,,,,,,,371.46475020001526,371.4707704000175,371.4707704000175,371.4707704000175,374.4540839000256,None,374.45417350000935,374.4700509000104,374.4700509000104,375.4713328000216,f,0.9937768000236247,None,374.4700509000104,374.4700509000104,374.4700509000104,,,,,,,,,,,,00037,001,2026-01-23_16h05.43.404,MST_task,2024.2.0,60.09200085778801,2026-01-23 16h05.52.777520 +0530,
,Objects\046a.jpg,60,0,61,,,,,,,None,f,1.5408085999952164,None,,,,,,61,0,60,375.48673110001255,,,,,,,,,,,,,,,,,,,,,,,375.47148800001014,375.48673110001255,375.9705098000122,,,,,,,,,,,,375.9872305000026,,,,,,,,,,,,,,,375.98134050000226,375.9872305000026,375.9872305000026,375.9872305000026,378.97117720000097,None,378.9712434000103,378.98679290001746,378.98679290001746,380.5375613000069,f,1.5408085999952164,None,378.98679290001746,378.98679290001746,378.98679290001746,,,,,,,,,,,,00037,001,2026-01-23_16h05.43.404,MST_task,2024.2.0,60.09200085778801,2026-01-23 16h05.52.777520 +0530,
,Objects\029a.jpg,61,0,62,,,,,,,f,None,,,2.3222517000103835,0.208962699980475,,,,62,0,61,380.55360250000376,,,,,,,,,,,,,,,,,,,,,,,380.53766339999856,380.55360250000376,381.0374234000046,,,,,,,,,,,,381.05374300002586,,,,,,,,,,,,,,,381.04876900001545,381.05374300002586,381.05374300002586,381.05374300002586,384.0377557000029,f,384.0378265000181,,,384.03784120001364,None,,,384.05395980001776,384.05395980001776,384.05395980001776,2.3222517000103835,0.208962699980475,,,,,,,,,,00037,001,2026-01-23_16h05.43.404,MST_task,2024.2.0,60.09200085778801,2026-01-23 16h05.52.777520 +0530,
,Objects\053a.jpg,62,0,63,,,,,,,f,None,,,1.7018983000016306,0.22381110000424087,,,,63,0,62,384.05395980001776,,,,,,,,,,,,,,,,,,,,,,,384.03795350002474,384.05395980001776,384.5369342000049,,,,,,,,,,,,384.5537325000041,,,,,,,,,,,,,,,384.5477629000088,384.5537325000041,384.5537325000041,384.5537325000041,387.538521200011,f,387.5385864000127,,,387.53860060000443,None,,,387.5533755000215,387.5533755000215,387.5533755000215,1.7018983000016306,0.22381110000424087,,,,,,,,,,00037,001,2026-01-23_16h05.43.404,MST_task,2024.2.0,60.09200085778801,2026-01-23 16h05.52.777520 +0530,
,Scenes\132a.jpg,63,0,64,,,,,,,j,None,,,0.8557064000051469,0.1759877000004053,,,,64,0,63,387.5533755000215,,,,,,,,,,,,,,,,,,,,,,,387.53869760001544,387.5533755000215,388.03704790002666,,,,,,,,,,,,388.05575410000165,,,,,,,,,,,,,,,388.0528536000056,388.05575410000165,388.05575410000165,388.05575410000165,391.0538448000152,j,391.05393760002335,,,391.0539532000257,None,,,,,,0.8557064000051469,0.1759877000004053,,,,,,,,,,00037,001,2026-01-23_16h05.43.404,MST_task,2024.2.0,60.09200085778801,2026-01-23 16h05.52.777520 +0530,
,Scenes\070a.jpg,64,0,65,,,,,,,j,None,,,0.9137524999969173,0.23211549999541603,,,,65,0,64,391.0700437000196,,,,,,,,,,,,,,,,,,,,,,,391.0540436000156,391.0700437000196,391.554126300005,,,,,,,,,,,,391.5819659999979,,,,,,,,,,,,,,,391.57899960002396,391.5819659999979,391.5819659999979,391.5819659999979,394.5541369999992,j,394.55423360000714,,,394.55424960001255,None,,,,,,0.9137524999969173,0.23211549999541603,,,,,,,,,,00037,001,2026-01-23_16h05.43.404,MST_task,2024.2.0,60.09200085778801,2026-01-23 16h05.52.777520 +0530,
,Scenes\141a.jpg,65,0,66,,,,,,,j,None,,,0.5923797000141349,0.240015699993819,,,,66,0,65,394.5703878000204,,,,,,,,,,,,,,,,,,,,,,,394.5543620000244,394.5703878000204,395.0538632000098,,,,,,,,,,,,395.07145100002526,,,,,,,,,,,,,,,395.06868370002485,395.07145100002526,395.07145100002526,395.07145100002526,398.0706189000048,j,398.07069500000216,,,398.07071130000986,None,,,,,,0.5923797000141349,0.240015699993819,,,,,,,,,,00037,001,2026-01-23_16h05.43.404,MST_task,2024.2.0,60.09200085778801,2026-01-23 16h05.52.777520 +0530,
,Scenes\188a.jpg,66,0,67,,,,,,,j,None,,,1.1709045000025071,0.2160213000024669,,,,67,0,66,398.08667340001557,,,,,,,,,,,,,,,,,,,,,,,398.0708975000016,398.08667340001557,398.5712059000216,,,,,,,,,,,,398.5891636000015,,,,,,,,,,,,,,,398.5865287000197,398.5891636000015,398.5891636000015,398.5891636000015,401.58736240002327,j,401.5874405000068,,,401.5874568000145,None,,,,,,1.1709045000025071,0.2160213000024669,,,,,,,,,,00037,001,2026-01-23_16h05.43.404,MST_task,2024.2.0,60.09200085778801,2026-01-23 16h05.52.777520 +0530,
,Scenes\109a.jpg,67,0,68,,,,,,,None,j,0.9842415000020992,None,,,,,,68,0,67,401.60367360000964,,,,,,,,,,,,,,,,,,,,,,,401.58755230001407,401.60367360000964,402.0873010000214,,,,,,,,,,,,402.1125540000212,,,,,,,,,,,,,,,402.109724000009,402.1125540000212,402.1125540000212,402.1125540000212,405.08772650000174,None,405.08781160000945,405.1038300000073,405.1038300000073,406.1043466000119,j,0.9842415000020992,None,,,,,,,,,,,,,,,00037,001,2026-01-23_16h05.43.404,MST_task,2024.2.0,60.09200085778801,2026-01-23 16h05.52.777520 +0530,
,Scenes\140a.jpg,68,0,69,,,,,,,j,None,,,0.7777118999802042,0.21545700001297519,,,,69,0,68,406.1201801999996,,,,,,,,,,,,,,,,,,,,,,,406.10445179999806,406.1201801999996,406.6040082000254,,,,,,,,,,,,406.6220508000115,,,,,,,,,,,,,,,406.61893789999885,406.6220508000115,406.6220508000115,406.6220508000115,409.6203051000193,j,409.6203817000205,,,409.62039710002136,None,,,,,,0.7777118999802042,0.21545700001297519,,,,,,,,,,00037,001,2026-01-23_16h05.43.404,MST_task,2024.2.0,60.09200085778801,2026-01-23 16h05.52.777520 +0530,
,Scenes\029a.jpg,69,0,70,,,,,,,None,j,0.9017597000056412,None,,,,,,70,0,69,409.63654610002413,,,,,,,,,,,,,,,,,,,,,,,409.62053370001377,409.63654610002413,410.1205898000044,,,,,,,,,,,,410.1448417000065,,,,,,,,,,,,,,,410.1419368000061,410.1448417000065,410.1448417000065,410.1448417000065,413.1370194000192,None,413.13710830002674,413.15396840000176,413.15396840000176,414.07117390001076,j,0.9017597000056412,None,,,,,,,,,,,,,,,00037,001,2026-01-23_16h05.43.404,MST_task,2024.2.0,60.09200085778801,2026-01-23 16h05.52.777520 +0530,
,Objects\132a.jpg,70,0,71,,,,,,,f,None,,,0.7159069000044838,0.20043470000382513,,,,71,0,70,414.0871065000247,,,,,,,,,,,,,,,,,,,,,,,414.0713438000239,414.0871065000247,414.5705079000036,,,,,,,,,,,,414.58752570001525,,,,,,,,,,,,,,,414.5822079000063,414.58752570001525,414.58752570001525,414.58752570001525,417.5709554000059,f,417.5710251000128,,,417.571039500006,None,,,417.58705510001164,417.58705510001164,417.58705510001164,0.7159069000044838,0.20043470000382513,,,,,,,,,,00037,001,2026-01-23_16h05.43.404,MST_task,2024.2.0,60.09200085778801,2026-01-23 16h05.52.777520 +0530,
,Objects\038a.jpg,71,0,72,,,,,,,f,None,,,0.8486213999858592,0.16788520000409335,,,,72,0,71,417.58705510001164,,,,,,,,,,,,,,,,,,,,,,,417.57114520002506,417.58705510001164,418.0710061000136,,,,,,,,,,,,418.08716370002367,,,,,,,,,,,,,,,418.0817461000115,418.08716370002367,418.08716370002367,418.08716370002367,421.07133980002254,f,421.0714077000157,,,421.0714206000266,None,,,421.0867711000028,421.0867711000028,421.0867711000028,0.8486213999858592,0.16788520000409335,,,,,,,,,,00037,001,2026-01-23_16h05.43.404,MST_task,2024.2.0,60.09200085778801,2026-01-23 16h05.52.777520 +0530,
,Objects\071a.jpg,72,0,73,,,,,,,f,None,,,1.0524619999923743,0.19193609998910688,,,,73,0,72,421.0867711000028,,,,,,,,,,,,,,,,,,,,,,,421.0715223000152,421.0867711000028,421.57071340002585,,,,,,,,,,,,421.58703410002636,,,,,,,,,,,,,,,421.5811630000244,421.58703410002636,421.58703410002636,421.58703410002636,424.5711410000222,f,424.5712069000001,,,424.57122020001407,None,,,424.5866060999979,424.5866060999979,424.5866060999979,1.0524619999923743,0.19193609998910688,,,,,,,,,,00037,001,2026-01-23_16h05.43.404,MST_task,2024.2.0,60.09200085778801,2026-01-23 16h05.52.777520 +0530,
,Objects\079a.jpg,73,0,74,,,,,,,f,None,,,0.7768984999856912,0.19933960001799278,,,,74,0,73,424.5866060999979,,,,,,,,,,,,,,,,,,,,,,,424.5713234000141,424.5866060999979,425.07059180000215,,,,,,,,,,,,425.087070700014,,,,,,,,,,,,,,,425.08162880002055,425.087070700014,425.087070700014,425.087070700014,428.0711251000175,f,428.0711922000046,,,428.0712057000201,None,,,428.0871121000091,428.0871121000091,428.0871121000091,0.7768984999856912,0.19933960001799278,,,,,,,,,,00037,001,2026-01-23_16h05.43.404,MST_task,2024.2.0,60.09200085778801,2026-01-23 16h05.52.777520 +0530,
,Objects\116a.jpg,74,0,75,,,,,,,f,None,,,2.604531799996039,0.151870500005316,,,,75,0,74,428.0871121000091,,,,,,,,,,,,,,,,,,,,,,,428.0713083000155,428.0871121000091,428.5706103000266,,,,,,,,,,,,428.58692700002575,,,,,,,,,,,,,,,428.5816754999978,428.58692700002575,428.58692700002575,428.58692700002575,431.5709415000165,f,431.5710082000005,,,431.57102230002056,None,,,431.58666960001574,431.58666960001574,431.58666960001574,2.604531799996039,0.151870500005316,,,,,,,,,,00037,001,2026-01-23_16h05.43.404,MST_task,2024.2.0,60.09200085778801,2026-01-23 16h05.52.777520 +0530,
,Objects\007a.jpg,75,0,76,,,,,,,f,None,,,1.0563248000107706,0.17643110000062734,,,,76,0,75,431.58666960001574,,,,,,,,,,,,,,,,,,,,,,,431.57112160002,431.58666960001574,432.0710001999978,,,,,,,,,,,,432.08710040000733,,,,,,,,,,,,,,,432.0816789000237,432.08710040000733,432.08710040000733,432.08710040000733,435.07089270002325,f,435.0709650000208,,,435.0709792000125,None,,,435.0870231000008,435.0870231000008,435.0870231000008,1.0563248000107706,0.17643110000062734,,,,,,,,,,00037,001,2026-01-23_16h05.43.404,MST_task,2024.2.0,60.09200085778801,2026-01-23 16h05.52.777520 +0530,
,Objects\062a.jpg,76,0,77,,,,,,,f,None,,,0.9230486000014935,0.19999059999827296,,,,77,0,76,435.0870231000008,,,,,,,,,,,,,,,,,,,,,,,435.0710850000032,435.0870231000008,435.5708343000151,,,,,,,,,,,,435.58831200000714,,,,,,,,,,,,,,,435.581411799998,435.58831200000714,435.58831200000714,435.58831200000714,438.58697670002584,f,438.5870570000261,,,438.5870725999994,None,,,,,,0.9230486000014935,0.19999059999827296,,,,,,,,,,00037,001,2026-01-23_16h05.43.404,MST_task,2024.2.0,60.09200085778801,2026-01-23 16h05.52.777520 +0530,
,Scenes\165a.jpg,77,0,78,,,,,,,j,None,,,0.6414585000020452,0.2079879999801051,,,,78,0,77,438.603508900007,,,,,,,,,,,,,,,,,,,,,,,438.58715910001774,438.603508900007,439.08736679999856,,,,,,,,,,,,439.11002760002157,,,,,,,,,,,,,,,439.1073277000105,439.11002760002157,439.11002760002157,439.11002760002157,442.0871481000213,j,442.0872700000182,,,442.0872862000251,None,,,,,,0.6414585000020452,0.2079879999801051,,,,,,,,,,00037,001,2026-01-23_16h05.43.404,MST_task,2024.2.0,60.09200085778801,2026-01-23 16h05.52.777520 +0530,
,Scenes\151a.jpg,78,0,79,,,,,,,j,None,,,1.4166039999981876,0.18389889999525622,,,,79,0,78,442.1036779000133,,,,,,,,,,,,,,,,,,,,,,,442.08737540000584,442.1036779000133,442.58715730000404,,,,,,,,,,,,442.60750250000274,,,,,,,,,,,,,,,442.6045793000085,442.60750250000274,442.60750250000274,442.60750250000274,445.6038937000267,j,445.60398850002093,,,445.60400320001645,None,,,,,,1.4166039999981876,0.18389889999525622,,,,,,,,,,00037,001,2026-01-23_16h05.43.404,MST_task,2024.2.0,60.09200085778801,2026-01-23 16h05.52.777520 +0530,
,Scenes\032a.jpg,79,0,80,,,,,,,j,None,,,1.5320310999813955,0.1843972000060603,,,,80,0,79,445.6204231000156,,,,,,,,,,,,,,,,,,,,,,,445.6040952000185,445.6204231000156,446.10406530002365,,,,,,,,,,,,446.13106980000157,,,,,,,,,,,,,,,446.1277511000226,446.13106980000157,446.13106980000157,446.13106980000157,449.1204462000169,j,449.12053680000827,,,449.12055130000226,None,,,,,,1.5320310999813955,0.1843972000060603,,,,,,,,,,00037,001,2026-01-23_16h05.43.404,MST_task,2024.2.0,60.09200085778801,2026-01-23 16h05.52.777520 +0530,
,Scenes\076a.jpg,80,0,81,,,,,,,j,None,,,0.9974903000111226,0.19995720000588335,,,,81,0,80,449.13647800000035,,,,,,,,,,,,,,,,,,,,,,,449.12063620000845,449.13647800000035,449.6206110000203,,,,,,,,,,,,449.65043890001834,,,,,,,,,,,,,,,449.64751450001495,449.65043890001834,449.65043890001834,449.65043890001834,452.6370274000219,j,452.6371016000048,,,452.6371164000011,None,,,,,,0.9974903000111226,0.19995720000588335,,,,,,,,,,00037,001,2026-01-23_16h05.43.404,MST_task,2024.2.0,60.09200085778801,2026-01-23 16h05.52.777520 +0530,
,Scenes\175a.jpg,81,0,82,,,,,,,j,None,,,0.8126616000081412,0.1920154000108596,,,,82,0,81,452.65373530000215,,,,,,,,,,,,,,,,,,,,,,,452.6372377000225,452.65373530000215,453.137169900001,,,,,,,,,,,,453.154503400001,,,,,,,,,,,,,,,453.15140370000154,453.154503400001,453.154503400001,453.154503400001,456.1539401000191,j,456.1540329999989,,,456.15404860000126,None,,,,,,0.8126616000081412,0.1920154000108596,,,,,,,,,,00037,001,2026-01-23_16h05.43.404,MST_task,2024.2.0,60.09200085778801,2026-01-23 16h05.52.777520 +0530,
,Scenes\184a.jpg,82,0,83,,,,,,,j,None,,,2.182666500011692,0.2001682999834884,,,,83,0,82,456.1705325000221,,,,,,,,,,,,,,,,,,,,,,,456.1541443000024,456.1705325000221,456.6540750999993,,,,,,,,,,,,456.67260350001743,,,,,,,,,,,,,,,456.66972820000956,456.67260350001743,456.67260350001743,456.67260350001743,459.6702898000076,j,459.67037970002275,,,459.67039390001446,None,,,,,,2.182666500011692,0.2001682999834884,,,,,,,,,,00037,001,2026-01-23_16h05.43.404,MST_task,2024.2.0,60.09200085778801,2026-01-23 16h05.52.777520 +0530,
,Scenes\145a.jpg,83,0,84,,,,,,,j,None,,,1.5904271000181325,0.19218489999184385,,,,84,0,83,459.6865854000207,,,,,,,,,,,,,,,,,,,,,,,459.67048660002183,459.6865854000207,460.1705764000071,,,,,,,,,,,,,,,,,,,,,,,,,,,460.19013339999947,460.1930031000229,460.1930031000229,460.1930031000229,463.1707747000037,j,463.17084900001646,,,463.17086430001655,None,,,,,,1.5904271000181325,0.19218489999184385,,,,,,,,,,00037,001,2026-01-23_16h05.43.404,MST_task,2024.2.0,60.09200085778801,2026-01-23 16h05.52.777520 +0530,
,Objects\036a.jpg,84,0,85,,,,,,,f,None,,,1.9121062000049278,0.15960059998906218,,,,85,0,84,463.1866204000253,,,,,,,,,,,,,,,,,,,,,,,463.1709883000003,463.1866204000253,463.670506399998,,,,,,,,,,,,463.68815370000084,,,,,,,,,,,,,,,463.6831640000164,463.68815370000084,463.68815370000084,463.68815370000084,466.6871466000157,f,466.6872115000151,,,466.68722540000454,None,,,,,,1.9121062000049278,0.15960059998906218,,,,,,,,,,00037,001,2026-01-23_16h05.43.404,MST_task,2024.2.0,60.09200085778801,2026-01-23 16h05.52.777520 +0530,
,Objects\135a.jpg,85,0,86,,,,,,,f,None,,,0.907701200019801,0.1769882999942638,,,,86,0,85,466.70385010002065,,,,,,,,,,,,,,,,,,,,,,,466.68731700000353,466.70385010002065,467.1873098000069,,,,,,,,,,,,467.20396000001347,,,,,,,,,,,,,,,467.19812240000465,467.20396000001347,467.20396000001347,467.20396000001347,470.18773380000493,f,470.1878066000063,,,470.18782020002254,None,,,470.2039853000024,470.2039853000024,470.2039853000024,0.907701200019801,0.1769882999942638,,,,,,,,,,00037,001,2026-01-23_16h05.43.404,MST_task,2024.2.0,60.09200085778801,2026-01-23 16h05.52.777520 +0530,
,Objects\166a.jpg,86,0,87,,,,,,,f,None,,,0.6875819000124466,0.19998109998414293,,,,87,0,86,470.2039853000024,,,,,,,,,,,,,,,,,,,,,,,470.1879249000049,470.2039853000024,470.6880593000096,,,,,,,,,,,,,,,,,,,,,,,,,,,470.70018390001496,470.70414060002076,470.70414060002076,470.70414060002076,473.6875145000231,f,473.68759919999866,,,473.6876134000195,None,,,473.7036629000213,473.7036629000213,473.7036629000213,0.6875819000124466,0.19998109998414293,,,,,,,,,,00037,001,2026-01-23_16h05.43.404,MST_task,2024.2.0,60.09200085778801,2026-01-23 16h05.52.777520 +0530,
,Objects\102a.jpg,87,0,88,,,,,,,f,None,,,1.4668418999935966,0.15201829999568872,,,,88,0,87,473.7036629000213,,,,,,,,,,,,,,,,,,,,,,,473.68772909999825,473.7036629000213,474.1869807000039,,,,,,,,,,,,474.2043918000127,,,,,,,,,,,,,,,474.1983802000177,474.2043918000127,474.2043918000127,474.2043918000127,477.18827320000855,f,477.1883479000244,,,477.1883610000077,None,,,477.20358440000564,477.20358440000564,477.20358440000564,1.4668418999935966,0.15201829999568872,,,,,,,,,,00037,001,2026-01-23_16h05.43.404,MST_task,2024.2.0,60.09200085778801,2026-01-23 16h05.52.777520 +0530,
,Objects\089a.jpg,88,0,89,,,,,,,f,None,,,0.8873198000073899,0.1838422000000719,,,,89,0,88,477.20358440000564,,,,,,,,,,,,,,,,,,,,,,,477.18844220001483,477.20358440000564,477.6873598000093,,,,,,,,,,,,477.70423070000834,,,,,,,,,,,,,,,477.6978573000233,477.70423070000834,477.70423070000834,477.70423070000834,480.68749780001235,f,480.68756690001464,,,480.687579999998,None,,,480.70406770001864,480.70406770001864,480.70406770001864,0.8873198000073899,0.1838422000000719,,,,,,,,,,00037,001,2026-01-23_16h05.43.404,MST_task,2024.2.0,60.09200085778801,2026-01-23 16h05.52.777520 +0530,
,Objects\191a.jpg,89,0,90,,,,,,,None,f,0.5004161999968346,None,,,,,,90,0,89,480.70406770001864,,,,,,,,,,,,,,,,,,,,,,,480.68768100001034,480.70406770001864,481.18686890002573,,,,,,,,,,,,481.20433680000133,,,,,,,,,,,,,,,481.19748770000297,481.20433680000133,481.20433680000133,481.20433680000133,484.18778710000333,None,484.1878539000172,484.2033959000255,484.2033959000255,484.72045700001763,f,0.5004161999968346,None,484.2033959000255,484.2033959000255,484.2033959000255,,,,,,,,,,,,00037,001,2026-01-23_16h05.43.404,MST_task,2024.2.0,60.09200085778801,2026-01-23 16h05.52.777520 +0530,
,Objects\067a.jpg,90,0,91,,,,,,,f,None,,,0.6600731000071391,0.23073199999635108,,,,91,0,90,484.73691450001206,,,,,,,,,,,,,,,,,,,,,,,484.7206059000164,484.73691450001206,485.22094160001143,,,,,,,,,,,,485.2370463999978,,,,,,,,,,,,,,,485.2317003000062,485.2370463999978,485.2370463999978,485.2370463999978,488.2208641000034,f,488.22093609999865,,,488.22095110002556,None,,,488.23704080001335,488.23704080001335,488.23704080001335,0.6600731000071391,0.23073199999635108,,,,,,,,,,00037,001,2026-01-23_16h05.43.404,MST_task,2024.2.0,60.09200085778801,2026-01-23 16h05.52.777520 +0530,
,Scenes\144a.jpg,91,0,92,,,,,,,j,None,,,0.5945505000127014,0.16013659999589436,,,,92,0,91,488.23704080001335,,,,,,,,,,,,,,,,,,,,,,,488.2210299000144,488.23704080001335,488.7210785000061,,,,,,,,,,,,488.7404845000128,,,,,,,,,,,,,,,488.73786540000583,488.7404845000128,488.7404845000128,488.7404845000128,491.73723120000795,j,491.73730050001177,,,491.7373159000126,None,,,,,,0.5945505000127014,0.16013659999589436,,,,,,,,,,00037,001,2026-01-23_16h05.43.404,MST_task,2024.2.0,60.09200085778801,2026-01-23 16h05.52.777520 +0530,
,Scenes\171a.jpg,92,0,93,,,,,,,f,None,,,0.9035878000140656,0.19092039999668486,,,,93,0,92,491.7541771000251,,,,,,,,,,,,,,,,,,,,,,,491.73743610002566,491.7541771000251,492.2372008000093,,,,,,,,,,,,492.2645737999992,,,,,,,,,,,,,,,492.2612200000149,492.2645737999992,492.2645737999992,492.2645737999992,495.2542059000116,f,495.25428260001354,,,495.25429760001134,None,,,,,,0.9035878000140656,0.19092039999668486,,,,,,,,,,00037,001,2026-01-23_16h05.43.404,MST_task,2024.2.0,60.09200085778801,2026-01-23 16h05.52.777520 +0530,
,Scenes\124a.jpg,93,0,94,,,,,,,j,None,,,0.7470900999906007,0.22456780000356957,,,,94,0,93,495.2704547000176,,,,,,,,,,,,,,,,,,,,,,,495.2544273000094,495.2704547000176,495.75387720001163,,,,,,,,,,,,495.772853500006,,,,,,,,,,,,,,,495.76975860001403,495.772853500006,495.772853500006,495.772853500006,498.7705832000065,j,498.77065350001794,,,498.7706692000211,None,,,,,,0.7470900999906007,0.22456780000356957,,,,,,,,,,00037,001,2026-01-23_16h05.43.404,MST_task,2024.2.0,60.09200085778801,2026-01-23 16h05.52.777520 +0530,
,Scenes\157a.jpg,94,0,95,,,,,,,None,j,1.32043550000526,None,,,,,,95,0,94,498.78731730001164,,,,,,,,,,,,,,,,,,,,,,,498.77078210000764,498.78731730001164,499.2707468000008,,,,,,,,,,,,499.2912893000175,,,,,,,,,,,,,,,499.2882512000215,499.2912893000175,499.2912893000175,499.2912893000175,502.27084650000324,None,502.2709190000023,502.28664020000724,502.28664020000724,503.62064220002503,j,1.32043550000526,None,,,,,,,,,,,,,,,00037,001,2026-01-23_16h05.43.404,MST_task,2024.2.0,60.09200085778801,2026-01-23 16h05.52.777520 +0530,
,Scenes\160a.jpg,95,0,96,,,,,,,j,None,,,0.9076357999874745,0.24823689999175258,,,,96,0,95,503.63727669999935,,,,,,,,,,,,,,,,,,,,,,,503.62080000000424,503.63727669999935,504.12014310000814,,,,,,,,,,,,504.13997260000906,,,,,,,,,,,,,,,504.1371280000021,504.13997260000906,504.13997260000906,504.13997260000906,507.1367865000211,j,507.13685450001503,,,507.1368693000113,None,,,,,,0.9076357999874745,0.24823689999175258,,,,,,,,,,00037,001,2026-01-23_16h05.43.404,MST_task,2024.2.0,60.09200085778801,2026-01-23 16h05.52.777520 +0530,
,Scenes\017a.jpg,96,0,97,,,,,,,f,None,,,1.218875200022012,0.19995619999826886,,,,97,0,96,507.1538379000267,,,,,,,,,,,,,,,,,,,,,,,507.1369816000224,507.1538379000267,507.63700240000617,,,,,,,,,,,,507.660635200009,,,,,,,,,,,,,,,507.6577283000224,507.660635200009,507.660635200009,507.660635200009,510.63702750002267,f,510.6371281000029,,,510.63714220002294,None,,,,,,1.218875200022012,0.19995619999826886,,,,,,,,,,00037,001,2026-01-23_16h05.43.404,MST_task,2024.2.0,60.09200085778801,2026-01-23 16h05.52.777520 +0530,
,Scenes\005a.jpg,97,0,98,,,,,,,j,None,,,0.9781787999963854,0.2160087999945972,,,,98,0,97,510.6543805000256,,,,,,,,,,,,,,,,,,,,,,,510.6372728999995,510.6543805000256,511.1371324000065,,,,,,,,,,,,511.15740150000784,,,,,,,,,,,,,,,511.1543425999989,511.15740150000784,511.15740150000784,511.15740150000784,514.1373513000144,j,514.1374208000198,,,514.1374364000221,None,,,,,,0.9781787999963854,0.2160087999945972,,,,,,,,,,00037,001,2026-01-23_16h05.43.404,MST_task,2024.2.0,60.09200085778801,2026-01-23 16h05.52.777520 +0530,
,Objects\070a.jpg,98,0,99,,,,,,,f,None,,,0.5771405999839772,0.17681060000904836,,,,99,0,98,514.15342040002,,,,,,,,,,,,,,,,,,,,,,,514.1375361000246,514.15342040002,514.6374962000118,,,,,,,,,,,,514.6540103000007,,,,,,,,,,,,,,,514.6490300000005,514.6540103000007,514.6540103000007,514.6540103000007,517.637558300019,f,517.6376258000091,,,517.6376396999985,None,,,517.653307200002,517.653307200002,517.653307200002,0.5771405999839772,0.17681060000904836,,,,,,,,,,00037,001,2026-01-23_16h05.43.404,MST_task,2024.2.0,60.09200085778801,2026-01-23 16h05.52.777520 +0530,
,Objects\056a.jpg,99,0,100,,,,,,,f,None,,,2.3739223999727983,0.2001392000238411,,,,100,0,99,517.653307200002,,,,,,,,,,,,,,,,,,,,,,,517.6377178000112,517.653307200002,518.1381370000017,,,,,,,,,,,,,,,,,,,,,,,,,,,518.1489504000056,518.1535768000176,518.1535768000176,518.1535768000176,521.1373562000226,f,521.1374289000232,,,521.1374420000066,None,,,521.1534288000257,521.1534288000257,521.1534288000257,2.3739223999727983,0.2001392000238411,,,,,,,,,,00037,001,2026-01-23_16h05.43.404,MST_task,2024.2.0,60.09200085778801,2026-01-23 16h05.52.777520 +0530,
,Objects\024a.jpg,100,0,101,,,,,,,f,None,,,1.1209130999923218,0.20018480002181605,,,,101,0,100,521.1534288000257,,,,,,,,,,,,,,,,,,,,,,,521.1375237000175,521.1534288000257,521.6369694000168,,,,,,,,,,,,521.6545992000028,,,,,,,,,,,,,,,521.6479768000136,521.6545992000028,521.6545992000028,521.6545992000028,524.6540813000174,f,524.6541643000091,,,524.6541790000047,None,,,,,,1.1209130999923218,0.20018480002181605,,,,,,,,,,00037,001,2026-01-23_16h05.43.404,MST_task,2024.2.0,60.09200085778801,2026-01-23 16h05.52.777520 +0530,
,Objects\082a.jpg,101,0,102,,,,,,,j,None,,,1.2449697999982163,0.19233130000066012,,,,102,0,101,524.6703121000028,,,,,,,,,,,,,,,,,,,,,,,524.654297000001,524.6703121000028,525.154013899999,,,,,,,,,,,,525.1702260000166,,,,,,,,,,,,,,,525.166735900013,525.1702260000166,525.1702260000166,525.1702260000166,528.1542666000023,j,528.1543381000229,,,528.1543505000009,None,,,528.1704937000177,528.1704937000177,528.1704937000177,1.2449697999982163,0.19233130000066012,,,,,,,,,,00037,001,2026-01-23_16h05.43.404,MST_task,2024.2.0,60.09200085778801,2026-01-23 16h05.52.777520 +0530,
,Objects\128a.jpg,102,0,103,,,,,,,j,None,,,2.5294855999818537,0.1919771000102628,,,,103,0,102,528.1704937000177,,,,,,,,,,,,,,,,,,,,,,,528.1544493000256,528.1704937000177,528.6543203000037,,,,,,,,,,,,528.6703084000037,,,,,,,,,,,,,,,528.6648279000074,528.6703084000037,528.6703084000037,528.6703084000037,531.654779000004,j,531.6548480000056,,,531.6548620000249,None,,,531.6705132000207,531.6705132000207,531.6705132000207,2.5294855999818537,0.1919771000102628,,,,,,,,,,00037,001,2026-01-23_16h05.43.404,MST_task,2024.2.0,60.09200085778801,2026-01-23 16h05.52.777520 +0530,
,Objects\174a.jpg,103,0,104,,,,,,,f,None,,,1.5332437000179198,0.19086329999845475,,,,104,0,103,531.6705132000207,,,,,,,,,,,,,,,,,,,,,,,531.6549414000183,531.6705132000207,532.1539585000137,,,,,,,,,,,,532.1709672000143,,,,,,,,,,,,,,,532.1647755000158,532.1709672000143,532.1709672000143,532.1709672000143,535.1548036000167,f,535.154875600012,,,535.154889700003,None,,,535.1702272000257,535.1702272000257,535.1702272000257,1.5332437000179198,0.19086329999845475,,,,,,,,,,00037,001,2026-01-23_16h05.43.404,MST_task,2024.2.0,60.09200085778801,2026-01-23 16h05.52.777520 +0530,
,Objects\033a.jpg,104,0,105,,,,,,,j,None,,,1.5123777999833692,0.16019110000343062,,,,105,0,104,535.1702272000257,,,,,,,,,,,,,,,,,,,,,,,535.1549994000234,535.1702272000257,535.6540949000046,,,,,,,,,,,,535.6706188000098,,,,,,,,,,,,,,,535.6652466000232,535.6706188000098,535.6706188000098,535.6706188000098,538.6545618000091,j,538.6546378000057,,,538.6546527000028,None,,,538.6702982000133,538.6702982000133,538.6702982000133,1.5123777999833692,0.16019110000343062,,,,,,,,,,00037,001,2026-01-23_16h05.43.404,MST_task,2024.2.0,60.09200085778801,2026-01-23 16h05.52.777520 +0530,
,Scenes\007a.jpg,105,0,106,,,,,,,None,j,1.7003408999880776,None,,,,,,106,0,105,538.6702982000133,,,,,,,,,,,,,,,,,,,,,,,538.6547646000108,538.6702982000133,539.153965400008,,,,,,,,,,,,539.1728584000084,,,,,,,,,,,,,,,539.1695835000137,539.1728584000084,539.1728584000084,539.1728584000084,542.1704073000001,None,542.1704876000003,542.1870997000078,542.1870997000078,543.8879563000228,j,1.7003408999880776,None,,,,,,,,,,,,,,,00037,001,2026-01-23_16h05.43.404,MST_task,2024.2.0,60.09200085778801,2026-01-23 16h05.52.777520 +0530,
,Scenes\133a.jpg,106,0,107,,,,,,,j,None,,,2.1438168000022415,0.19997730001341552,,,,107,0,106,543.903375200025,,,,,,,,,,,,,,,,,,,,,,,543.8880625000165,543.903375200025,544.3868558000249,,,,,,,,,,,,544.4079613000213,,,,,,,,,,,,,,,544.4052828999993,544.4079613000213,544.4079613000213,544.4079613000213,547.4045401000185,j,547.4046251000254,,,547.4046425000124,None,,,,,,2.1438168000022415,0.19997730001341552,,,,,,,,,,00037,001,2026-01-23_16h05.43.404,MST_task,2024.2.0,60.09200085778801,2026-01-23 16h05.52.777520 +0530,
,Scenes\011a.jpg,107,0,108,,,,,,,j,None,,,1.180969200009713,0.1997370999888517,,,,108,0,107,547.4207452000119,,,,,,,,,,,,,,,,,,,,,,,547.4047650000139,547.4207452000119,547.9037570000219,,,,,,,,,,,,547.9304946000047,,,,,,,,,,,,,,,547.9273533000087,547.9304946000047,547.9304946000047,547.9304946000047,550.920924200007,j,550.9209904000163,,,550.9210113000008,None,,,,,,1.180969200009713,0.1997370999888517,,,,,,,,,,00037,001,2026-01-23_16h05.43.404,MST_task,2024.2.0,60.09200085778801,2026-01-23 16h05.52.777520 +0530,
,Scenes\143a.jpg,108,0,109,,,,,,,None,j,1.2817818000039551,None,,,,,,109,0,108,550.9367145000142,,,,,,,,,,,,,,,,,,,,,,,550.9211251000233,550.9367145000142,551.4204630000168,,,,,,,,,,,,551.4454390000028,,,,,,,,,,,,,,,551.4423478000099,551.4454390000028,551.4454390000028,551.4454390000028,554.4368252000131,None,554.4369035999989,554.4536198000133,554.4536198000133,555.7378399000154,j,1.2817818000039551,None,,,,,,,,,,,,,,,00037,001,2026-01-23_16h05.43.404,MST_task,2024.2.0,60.09200085778801,2026-01-23 16h05.52.777520 +0530,
,Scenes\180a.jpg,109,0,110,,,,,,,j,None,,,0.9020075000007637,0.08798559999559075,,,,110,0,109,555.7534549000266,,,,,,,,,,,,,,,,,,,,,,,555.7379938000231,555.7534549000266,556.2373855000187,,,,,,,,,,,,556.2575272000104,,,,,,,,,,,,,,,556.2544465000101,556.2575272000104,556.2575272000104,556.2575272000104,559.2540857999993,j,559.2541689000209,,,559.254185800004,None,,,,,,0.9020075000007637,0.08798559999559075,,,,,,,,,,00037,001,2026-01-23_16h05.43.404,MST_task,2024.2.0,60.09200085778801,2026-01-23 16h05.52.777520 +0530,
,Scenes\095a.jpg,110,0,111,,,,,,,j,None,,,1.2732822000107262,0.17603539998526685,,,,111,0,110,559.2703450999979,,,,,,,,,,,,,,,,,,,,,,,559.2542800000228,559.2703450999979,559.7537699000095,,,,,,,,,,,,559.7746554000187,,,,,,,,,,,,,,,559.771804500022,559.7746554000187,559.7746554000187,559.7746554000187,562.7705659000203,j,562.7706360000011,,,562.7706604000123,None,,,,,,1.2732822000107262,0.17603539998526685,,,,,,,,,,00037,001,2026-01-23_16h05.43.404,MST_task,2024.2.0,60.09200085778801,2026-01-23 16h05.52.777520 +0530,
,Scenes\082a.jpg,111,0,112,,,,,,,f,None,,,2.7045266999921296,0.16805040001054294,,,,112,0,111,562.7869535000063,,,,,,,,,,,,,,,,,,,,,,,562.7707923999988,562.7869535000063,563.2704130000202,,,,,,,,,,,,563.2948832000257,,,,,,,,,,,,,,,563.2916735000035,563.2948832000257,563.2948832000257,563.2948832000257,566.287103700015,f,566.2871722000127,,,566.287187400012,None,,,,,,2.7045266999921296,0.16805040001054294,,,,,,,,,,00037,001,2026-01-23_16h05.43.404,MST_task,2024.2.0,60.09200085778801,2026-01-23 16h05.52.777520 +0530,
,Objects\049a.jpg,112,0,113,,,,,,,f,None,,,1.1394714000052772,0.19210529999691062,,,,113,0,112,566.3035442000255,,,,,,,,,,,,,,,,,,,,,,,566.287305100006,566.3035442000255,566.7869854000164,,,,,,,,,,,,566.8038833000173,,,,,,,,,,,,,,,566.799133100023,566.8038833000173,566.8038833000173,566.8038833000173,569.7876870000036,f,569.7877555000014,,,569.7877687000146,None,,,569.8032923999999,569.8032923999999,569.8032923999999,1.1394714000052772,0.19210529999691062,,,,,,,,,,00037,001,2026-01-23_16h05.43.404,MST_task,2024.2.0,60.09200085778801,2026-01-23 16h05.52.777520 +0530,
,Objects\140a.jpg,113,0,114,,,,,,,f,None,,,2.0794541999930516,0.15194519999204203,,,,114,0,113,569.8032923999999,,,,,,,,,,,,,,,,,,,,,,,569.7878719000146,569.8032923999999,570.2873410000175,,,,,,,,,,,,570.303856100014,,,,,,,,,,,,,,,570.2982923000236,570.303856100014,570.303856100014,570.303856100014,573.2876183000044,f,573.2876878000097,,,573.2877019000007,None,,,573.3034339000005,573.3034339000005,573.3034339000005,2.0794541999930516,0.15194519999204203,,,,,,,,,,00037,001,2026-01-23_16h05.43.404,MST_task,2024.2.0,60.09200085778801,2026-01-23 16h05.52.777520 +0530,
,Objects\110a.jpg,114,0,115,,,,,,,f,None,,,2.276271500013536,0.20004309999058023,,,,115,0,114,573.3034339000005,,,,,,,,,,,,,,,,,,,,,,,573.2877805000171,573.3034339000005,573.78714640002,,,,,,,,,,,,573.8036705999984,,,,,,,,,,,,,,,573.7976390000258,573.8036705999984,573.8036705999984,573.8036705999984,576.787804200023,f,576.7878848000255,,,576.7879016000079,None,,,,,,2.276271500013536,0.20004309999058023,,,,,,,,,,00037,001,2026-01-23_16h05.43.404,MST_task,2024.2.0,60.09200085778801,2026-01-23 16h05.52.777520 +0530,
,Objects\103a.jpg,115,0,116,,,,,,,f,None,,,0.7113212000112981,0.19205779998446815,,,,116,0,115,576.8037165999995,,,,,,,,,,,,,,,,,,,,,,,576.7879996999982,576.8037165999995,577.2868437000143,,,,,,,,,,,,577.3038722000201,,,,,,,,,,,,,,,577.2981050000235,577.3038722000201,577.3038722000201,577.3038722000201,580.2875789000245,f,580.2876536000113,,,580.2876685000083,None,,,580.3035345000098,580.3035345000098,580.3035345000098,0.7113212000112981,0.19205779998446815,,,,,,,,,,00037,001,2026-01-23_16h05.43.404,MST_task,2024.2.0,60.09200085778801,2026-01-23 16h05.52.777520 +0530,
,Objects\117a.jpg,116,0,117,,,,,,,None,f,0.10771139999269508,None,,,,,,117,0,116,580.3035345000098,,,,,,,,,,,,,,,,,,,,,,,580.2877771000203,580.3035345000098,580.7868908000237,,,,,,,,,,,,580.8037687000178,,,,,,,,,,,,,,,580.797983299999,580.8037687000178,580.8037687000178,580.8037687000178,583.7876171000244,None,583.787705499999,583.8040657000092,583.8040657000092,583.9209943000169,f,0.10771139999269508,None,583.8040657000092,583.8040657000092,583.8040657000092,,,,,,,,,,,,00037,001,2026-01-23_16h05.43.404,MST_task,2024.2.0,60.09200085778801,2026-01-23 16h05.52.777520 +0530,
,Objects\161a.jpg,117,0,118,,,,,,,j,None,,,1.7310459000000264,0.1599417999968864,,,,118,0,117,583.9374877000228,,,,,,,,,,,,,,,,,,,,,,,583.9211102000263,583.9374877000228,584.4207777000265,,,,,,,,,,,,584.4365867000015,,,,,,,,,,,,,,,584.4332572999992,584.4365867000015,584.4365867000015,584.4365867000015,587.4215593000117,j,587.4216453000263,,,587.4216605000256,None,,,587.4369608999987,587.4369608999987,587.4369608999987,1.7310459000000264,0.1599417999968864,,,,,,,,,,00037,001,2026-01-23_16h05.43.404,MST_task,2024.2.0,60.09200085778801,2026-01-23 16h05.52.777520 +0530,
,Objects\069a.jpg,118,0,119,,,,,,,j,None,,,0.8703608999785502,0.2561592000129167,,,,119,0,118,587.4369608999987,,,,,,,,,,,,,,,,,,,,,,,587.4217506000132,587.4369608999987,587.9210011000105,,,,,,,,,,,,587.9371366999985,,,,,,,,,,,,,,,587.9320211000158,587.9371366999985,587.9371366999985,587.9371366999985,590.9213629000005,j,590.9214487000136,,,590.9214643000159,None,,,590.936620500026,590.936620500026,590.936620500026,0.8703608999785502,0.2561592000129167,,,,,,,,,,00037,001,2026-01-23_16h05.43.404,MST_task,2024.2.0,60.09200085778801,2026-01-23 16h05.52.777520 +0530,
,Scenes\183a.jpg,119,0,120,,,,,,,j,None,,,0.8204545000044163,0.1991320000088308,,,,120,0,119,590.936620500026,,,,,,,,,,,,,,,,,,,,,,,590.9215870000189,590.936620500026,591.4213029000093,,,,,,,,,,,,591.4434597000072,,,,,,,,,,,,,,,591.4402364999987,591.4434597000072,591.4434597000072,591.4434597000072,594.4368047000025,j,594.4368810000014,,,594.4368966000038,None,,,,,,0.8204545000044163,0.1991320000088308,,,,,,,,,,00037,001,2026-01-23_16h05.43.404,MST_task,2024.2.0,60.09200085778801,2026-01-23 16h05.52.777520 +0530,
,Scenes\058a.jpg,120,0,121,,,,,,,f,None,,,2.6738258000114,0.15982179998536594,,,,121,0,120,594.4533205000043,,,,,,,,,,,,,,,,,,,,,,,594.4370116000064,594.4533205000043,594.9367843000218,,,,,,,,,,,,594.9575544000254,,,,,,,,,,,,,,,594.9546464000014,594.9575544000254,594.9575544000254,594.9575544000254,597.93703250002,f,597.9371015000215,,,597.9371151000087,None,,,,,,2.6738258000114,0.15982179998536594,,,,,,,,,,00037,001,2026-01-23_16h05.43.404,MST_task,2024.2.0,60.09200085778801,2026-01-23 16h05.52.777520 +0530,
,Scenes\152a.jpg,121,0,122,,,,,,,j,None,,,0.8138001000043005,0.18399479999789037,,,,122,0,121,597.9551582999993,,,,,,,,,,,,,,,,,,,,,,,597.937235200021,597.9551582999993,598.4540985000203,,,,,,,,,,,,,,,,,,,,,,,,,,,598.4699274000013,598.47343860002,598.47343860002,598.47343860002,601.4537769000162,j,601.4538459000178,,,601.4538600000087,None,,,,,,0.8138001000043005,0.18399479999789037,,,,,,,,,,00037,001,2026-01-23_16h05.43.404,MST_task,2024.2.0,60.09200085778801,2026-01-23 16h05.52.777520 +0530,
,Scenes\080a.jpg,122,0,123,,,,,,,j,None,,,2.002368099987507,0.1689722000155598,,,,123,0,122,601.4701632000215,,,,,,,,,,,,,,,,,,,,,,,601.4539877000207,601.4701632000215,601.9540053000092,,,,,,,,,,,,601.9728150000155,,,,,,,,,,,,,,,601.9698913000175,601.9728150000155,601.9728150000155,601.9728150000155,604.97083570002,j,604.9709157000179,,,604.970931000018,None,,,,,,2.002368099987507,0.1689722000155598,,,,,,,,,,00037,001,2026-01-23_16h05.43.404,MST_task,2024.2.0,60.09200085778801,2026-01-23 16h05.52.777520 +0530,
,Scenes\073a.jpg,123,0,124,,,,,,,j,None,,,1.9170950000116136,0.17697089997818694,,,,124,0,123,604.9874101000023,,,,,,,,,,,,,,,,,,,,,,,604.9710529000149,604.9874101000023,605.4704471000005,,,,,,,,,,,,605.4898949000053,,,,,,,,,,,,,,,605.4869315000251,605.4898949000053,605.4898949000053,605.4898949000053,608.486813800002,j,608.4868906000047,,,608.4869060000055,None,,,,,,1.9170950000116136,0.17697089997818694,,,,,,,,,,00037,001,2026-01-23_16h05.43.404,MST_task,2024.2.0,60.09200085778801,2026-01-23 16h05.52.777520 +0530,
,Scenes\149a.jpg,124,0,125,,,,,,,j,None,,,0.9336745000036899,0.15202129998942837,,,,125,0,124,608.5035662000009,,,,,,,,,,,,,,,,,,,,,,,608.4870333000144,608.5035662000009,608.9871532000252,,,,,,,,,,,,,,,,,,,,,,,,,,,609.0062562000239,609.0095299000095,609.0095299000095,609.0095299000095,611.9870231000241,j,611.9871069000219,,,611.987122200022,None,,,,,,0.9336745000036899,0.15202129998942837,,,,,,,,,,00037,001,2026-01-23_16h05.43.404,MST_task,2024.2.0,60.09200085778801,2026-01-23 16h05.52.777520 +0530,
,Scenes\026a.jpg,125,0,126,,,,,,,j,None,,,1.9903475000173785,0.19286469998769462,,,,126,0,125,612.003601400007,,,,,,,,,,,,,,,,,,,,,,,611.9872181000246,612.003601400007,612.4869326000044,,,,,,,,,,,,612.512678900006,,,,,,,,,,,,,,,612.5096167000011,612.512678900006,612.512678900006,612.512678900006,615.4872391000099,j,615.4873147000035,,,615.4873304000066,None,,,,,,1.9903475000173785,0.19286469998769462,,,,,,,,,,00037,001,2026-01-23_16h05.43.404,MST_task,2024.2.0,60.09200085778801,2026-01-23 16h05.52.777520 +0530,
,Objects\172a.jpg,126,0,127,,,,,,,j,None,,,1.0197848999814596,0.20795949999592267,,,,127,0,126,615.5040408000059,,,,,,,,,,,,,,,,,,,,,,,615.4874304000114,615.5040408000059,615.9870253000117,,,,,,,,,,,,616.004122000013,,,,,,,,,,,,,,,615.9986428999982,616.004122000013,616.004122000013,616.004122000013,618.9873552000208,j,618.987428100023,,,618.987442600017,None,,,619.0034690000175,619.0034690000175,619.0034690000175,1.0197848999814596,0.20795949999592267,,,,,,,,,,00037,001,2026-01-23_16h05.43.404,MST_task,2024.2.0,60.09200085778801,2026-01-23 16h05.52.777520 +0530,
,Objects\093a.jpg,127,0,128,,,,,,,j,None,,,1.1520559999917168,0.1841207000252325,,,,128,0,127,619.0034690000175,,,,,,,,,,,,,,,,,,,,,,,618.9875539000204,619.0034690000175,619.4872527000261,,,,,,,,,,,,619.5038607000024,,,,,,,,,,,,,,,619.4985598000058,619.5038607000024,619.5038607000024,619.5038607000024,622.4880090000224,j,622.488075900008,,,622.488089600025,None,,,622.5038631000207,622.5038631000207,622.5038631000207,1.1520559999917168,0.1841207000252325,,,,,,,,,,00037,001,2026-01-23_16h05.43.404,MST_task,2024.2.0,60.09200085778801,2026-01-23 16h05.52.777520 +0530,
,Objects\125a.jpg,128,0,129,,,,,,,j,None,,,1.1158598999900278,0.20041410002158955,,,,129,0,128,622.5038631000207,,,,,,,,,,,,,,,,,,,,,,,622.488173300022,622.5038631000207,622.9875527000113,,,,,,,,,,,,623.0035795000149,,,,,,,,,,,,,,,622.9983795000007,623.0035795000149,623.0035795000149,623.0035795000149,625.9876970000041,j,625.9877674000163,,,625.987781200005,None,,,626.0035932000028,626.0035932000028,626.0035932000028,1.1158598999900278,0.20041410002158955,,,,,,,,,,00037,001,2026-01-23_16h05.43.404,MST_task,2024.2.0,60.09200085778801,2026-01-23 16h05.52.777520 +0530,
,Objects\175a.jpg,129,0,130,,,,,,,f,None,,,0.952068499987945,0.18395380000583827,,,,130,0,129,626.0035932000028,,,,,,,,,,,,,,,,,,,,,,,625.9878892000124,626.0035932000028,626.4876224000182,,,,,,,,,,,,626.5036764000251,,,,,,,,,,,,,,,626.4983693000104,626.5036764000251,626.5036764000251,626.5036764000251,629.4876124000002,f,629.4876848999993,,,629.4877000999986,None,,,629.5038285000192,629.5038285000192,629.5038285000192,0.952068499987945,0.18395380000583827,,,,,,,,,,00037,001,2026-01-23_16h05.43.404,MST_task,2024.2.0,60.09200085778801,2026-01-23 16h05.52.777520 +0530,
,Objects\075a.jpg,130,0,131,,,,,,,f,None,,,1.4912883999932092,0.1999814000155311,,,,131,0,130,629.5038285000192,,,,,,,,,,,,,,,,,,,,,,,629.4877828000172,629.5038285000192,629.9874078000139,,,,,,,,,,,,630.0038451,,,,,,,,,,,,,,,629.9979507000244,630.0038451,630.0038451,630.0038451,632.9875652000192,f,632.9876346000237,,,632.9876476000063,None,,,633.0032930000161,633.0032930000161,633.0032930000161,1.4912883999932092,0.1999814000155311,,,,,,,,,,00037,001,2026-01-23_16h05.43.404,MST_task,2024.2.0,60.09200085778801,2026-01-23 16h05.52.777520 +0530,
,Objects\171a.jpg,131,0,132,,,,,,,f,None,,,1.1846234000113327,0.1835185999807436,,,,132,0,131,633.0032930000161,,,,,,,,,,,,,,,,,,,,,,,632.9877554000122,633.0032930000161,633.4873756000015,,,,,,,,,,,,633.5038808000099,,,,,,,,,,,,,,,633.4984607000079,633.5038808000099,633.5038808000099,633.5038808000099,636.4878453999991,f,636.4879171000211,,,636.4879305000068,None,,,636.5034521000052,636.5034521000052,636.5034521000052,1.1846234000113327,0.1835185999807436,,,,,,,,,,00037,001,2026-01-23_16h05.43.404,MST_task,2024.2.0,60.09200085778801,2026-01-23 16h05.52.777520 +0530,
,Objects\027a.jpg,132,0,133,,,,,,,f,None,,,0.7953184000216424,0.18511180000496097,,,,133,0,132,636.5034521000052,,,,,,,,,,,,,,,,,,,,,,,636.4880305000115,636.5034521000052,636.9873864000256,,,,,,,,,,,,637.0036996999988,,,,,,,,,,,,,,,636.9983086000138,637.0036996999988,637.0036996999988,637.0036996999988,639.9876928000012,f,639.9877644000226,,,639.9877800000249,None,,,640.0035445000103,640.0035445000103,640.0035445000103,0.7953184000216424,0.18511180000496097,,,,,,,,,,00037,001,2026-01-23_16h05.43.404,MST_task,2024.2.0,60.09200085778801,2026-01-23 16h05.52.777520 +0530,
,Scenes\142a.jpg,133,0,134,,,,,,,j,None,,,0.8252931000024546,0.20802150000235997,,,,134,0,133,640.0035445000103,,,,,,,,,,,,,,,,,,,,,,,639.9878713000217,640.0035445000103,640.4870255000133,,,,,,,,,,,,640.5104103000194,,,,,,,,,,,,,,,640.5076712000009,640.5104103000194,640.5104103000194,640.5104103000194,643.503581099998,j,643.5036661000049,,,643.503681000002,None,,,,,,0.8252931000024546,0.20802150000235997,,,,,,,,,,00037,001,2026-01-23_16h05.43.404,MST_task,2024.2.0,60.09200085778801,2026-01-23 16h05.52.777520 +0530,
,Scenes\113a.jpg,134,0,135,,,,,,,j,None,,,0.9543063000019174,0.22484169999370351,,,,135,0,134,643.5204991000064,,,,,,,,,,,,,,,,,,,,,,,643.5037985000235,643.5204991000064,644.004105400003,,,,,,,,,,,,644.0207304000214,,,,,,,,,,,,,,,644.0170229000214,644.0207304000214,644.0207304000214,644.0207304000214,647.0040042000182,j,647.0040969000256,,,647.0041101000097,None,,,,,,0.9543063000019174,0.22484169999370351,,,,,,,,,,00037,001,2026-01-23_16h05.43.404,MST_task,2024.2.0,60.09200085778801,2026-01-23 16h05.52.777520 +0530,
,Scenes\020a.jpg,135,0,136,,,,,,,f,None,,,1.7489937999926042,0.19194779999088496,,,,136,0,135,647.020287500025,,,,,,,,,,,,,,,,,,,,,,,647.0042319000058,647.020287500025,647.5038633000222,,,,,,,,,,,,647.5304360000009,,,,,,,,,,,,,,,647.5270123000082,647.5304360000009,647.5304360000009,647.5304360000009,650.5205614000151,f,650.5206415000139,,,650.5206648000167,None,,,,,,1.7489937999926042,0.19194779999088496,,,,,,,,,,00037,001,2026-01-23_16h05.43.404,MST_task,2024.2.0,60.09200085778801,2026-01-23 16h05.52.777520 +0530,
,Scenes\154a.jpg,136,0,137,,,,,,,j,None,,,0.7611498000042047,0.22413320001214743,,,,137,0,136,650.5368251000182,,,,,,,,,,,,,,,,,,,,,,,650.5208086000057,650.5368251000182,651.0206368000072,,,,,,,,,,,,651.03871600001,,,,,,,,,,,,,,,651.0360040000232,651.03871600001,651.03871600001,651.03871600001,654.0368552000145,j,654.0369312000112,,,654.0369502000103,None,,,,,,0.7611498000042047,0.22413320001214743,,,,,,,,,,00037,001,2026-01-23_16h05.43.404,MST_task,2024.2.0,60.09200085778801,2026-01-23 16h05.52.777520 +0530,
,Scenes\111a.jpg,137,0,138,,,,,,,None,j,1.2769184999924619,None,,,,,,138,0,137,654.0533784000145,,,,,,,,,,,,,,,,,,,,,,,654.0370733000163,654.0533784000145,654.5372226000181,,,,,,,,,,,,654.5555146000115,,,,,,,,,,,,,,,654.5521373000229,654.5555146000115,654.5555146000115,654.5555146000115,657.5535779000202,None,657.5536464000179,657.570123500016,657.570123500016,658.8544400000246,j,1.2769184999924619,None,,,,,,,,,,,,,,,00037,001,2026-01-23_16h05.43.404,MST_task,2024.2.0,60.09200085778801,2026-01-23 16h05.52.777520 +0530,
,Scenes\107a.jpg,138,0,139,,,,,,,j,None,,,0.8874225000035949,0.2641501000034623,,,,139,0,138,658.8700766000256,,,,,,,,,,,,,,,,,,,,,,,658.8545386000187,658.8700766000256,659.3540753000125,,,,,,,,,,,,659.3760791000095,,,,,,,,,,,,,,,659.3726171000162,659.3760791000095,659.3760791000095,659.3760791000095,662.3702962000098,j,662.3703768000123,,,662.3704112000123,None,,,,,,0.8874225000035949,0.2641501000034623,,,,,,,,,,00037,001,2026-01-23_16h05.43.404,MST_task,2024.2.0,60.09200085778801,2026-01-23 16h05.52.777520 +0530,
,Scenes\018a.jpg,139,0,140,,,,,,,f,None,,,1.734377900022082,0.1918965999793727,,,,140,0,139,662.3865765000228,,,,,,,,,,,,,,,,,,,,,,,662.3705047000258,662.3865765000228,662.8703242000192,,,,,,,,,,,,662.8889401000051,,,,,,,,,,,,,,,662.8855151000025,662.8889401000051,662.8889401000051,662.8889401000051,665.8869836000085,f,665.8870544000238,,,665.8870685000147,None,,,,,,1.734377900022082,0.1918965999793727,,,,,,,,,,00037,001,2026-01-23_16h05.43.404,MST_task,2024.2.0,60.09200085778801,2026-01-23 16h05.52.777520 +0530,
,Objects\152a.jpg,140,0,141,,,,,,,f,None,,,1.1720636999816634,0.238986800017301,,,,141,0,140,665.9034822000249,,,,,,,,,,,,,,,,,,,,,,,665.8871641000151,665.9034822000249,666.3870600000082,,,,,,,,,,,,666.4039077000052,,,,,,,,,,,,,,,666.3983514000138,666.4039077000052,666.4039077000052,666.4039077000052,669.3875633999996,f,669.3876381000155,,,669.3876519000041,None,,,669.4035950000107,669.4035950000107,669.4035950000107,1.1720636999816634,0.238986800017301,,,,,,,,,,00037,001,2026-01-23_16h05.43.404,MST_task,2024.2.0,60.09200085778801,2026-01-23 16h05.52.777520 +0530,
,Objects\077a.jpg,141,0,142,,,,,,,j,None,,,0.9357687000010628,0.20053770000231452,,,,142,0,141,669.4035950000107,,,,,,,,,,,,,,,,,,,,,,,669.3877582999994,669.4035950000107,669.8869649000117,,,,,,,,,,,,669.903687300015,,,,,,,,,,,,,,,669.897732500016,669.903687300015,669.903687300015,669.903687300015,672.8874102000264,j,672.8874844000093,,,672.8874995000078,None,,,672.9040196000133,672.9040196000133,672.9040196000133,0.9357687000010628,0.20053770000231452,,,,,,,,,,00037,001,2026-01-23_16h05.43.404,MST_task,2024.2.0,60.09200085778801,2026-01-23 16h05.52.777520 +0530,
,Objects\108a.jpg,142,0,143,,,,,,,j,None,,,1.4033925000112504,0.20012149997637607,,,,143,0,142,672.9040196000133,,,,,,,,,,,,,,,,,,,,,,,672.8876111000136,672.9040196000133,673.3875784999982,,,,,,,,,,,,673.4037820000085,,,,,,,,,,,,,,,673.3984945999982,673.4037820000085,673.4037820000085,673.4037820000085,676.3874670000223,j,676.38753800001,,,676.3875506000186,None,,,676.4038123000064,676.4038123000064,676.4038123000064,1.4033925000112504,0.20012149997637607,,,,,,,,,,00037,001,2026-01-23_16h05.43.404,MST_task,2024.2.0,60.09200085778801,2026-01-23 16h05.52.777520 +0530,
,Objects\138a.jpg,143,0,144,,,,,,,f,None,,,2.3913594000041485,0.19200549999368377,,,,144,0,143,676.4038123000064,,,,,,,,,,,,,,,,,,,,,,,676.3876787000045,676.4038123000064,676.8871673000103,,,,,,,,,,,,676.903998200025,,,,,,,,,,,,,,,676.8978485000262,676.903998200025,676.903998200025,676.903998200025,679.8876765000168,f,679.8877459000214,,,679.8877598000108,None,,,679.9034760000068,679.9034760000068,679.9034760000068,2.3913594000041485,0.19200549999368377,,,,,,,,,,00037,001,2026-01-23_16h05.43.404,MST_task,2024.2.0,60.09200085778801,2026-01-23 16h05.52.777520 +0530,
,Objects\133a.jpg,144,0,145,,,,,,,f,None,,,2.3870030000107363,0.2554006999998819,,,,145,0,144,679.9034760000068,,,,,,,,,,,,,,,,,,,,,,,679.8878663000069,679.9034760000068,680.3870819000003,,,,,,,,,,,,680.405072100024,,,,,,,,,,,,,,,680.3977654000046,680.405072100024,680.405072100024,680.405072100024,683.4034567000053,f,683.4035333000065,,,683.403550100018,None,,,,,,2.3870030000107363,0.2554006999998819,,,,,,,,,,00037,001,2026-01-23_16h05.43.404,MST_task,2024.2.0,60.09200085778801,2026-01-23 16h05.52.777520 +0530,
,Objects\181a.jpg,145,0,146,,,,,,,j,None,,,1.5750642000057269,0.2319941000023391,,,,146,0,145,683.4206949000072,,,,,,,,,,,,,,,,,,,,,,,683.4036589000025,683.4206949000072,683.9037765000248,,,,,,,,,,,,683.9203278000059,,,,,,,,,,,,,,,683.9145339000097,683.9203278000059,683.9203278000059,683.9203278000059,686.9039560000238,j,686.9040223000047,,,686.9040350000141,None,,,686.9199676999997,686.9199676999997,686.9199676999997,1.5750642000057269,0.2319941000023391,,,,,,,,,,00037,001,2026-01-23_16h05.43.404,MST_task,2024.2.0,60.09200085778801,2026-01-23 16h05.52.777520 +0530,
,Objects\180a.jpg,146,0,147,,,,,,,f,None,,,1.8024245999986306,0.2078456000017468,,,,147,0,146,686.9199676999997,,,,,,,,,,,,,,,,,,,,,,,686.9041116000153,686.9199676999997,687.4042956000194,,,,,,,,,,,,687.4212136999995,,,,,,,,,,,,,,,687.4156337000022,687.4212136999995,687.4212136999995,687.4212136999995,690.4043831000163,f,690.4044504000049,,,690.4044637000188,None,,,690.4202143000148,690.4202143000148,690.4202143000148,1.8024245999986306,0.2078456000017468,,,,,,,,,,00037,001,2026-01-23_16h05.43.404,MST_task,2024.2.0,60.09200085778801,2026-01-23 16h05.52.777520 +0530,
,Scenes\027a.jpg,147,0,148,,,,,,,f,None,,,1.892810700024711,0.19899559998884797,,,,148,0,147,690.4202143000148,,,,,,,,,,,,,,,,,,,,,,,690.4045449000259,690.4202143000148,690.9039599000243,,,,,,,,,,,,690.9232512000017,,,,,,,,,,,,,,,690.9204520000203,690.9232512000017,690.9232512000017,690.9232512000017,693.9205962000124,f,693.9206723000098,,,693.9206879000121,None,,,,,,1.892810700024711,0.19899559998884797,,,,,,,,,,00037,001,2026-01-23_16h05.43.404,MST_task,2024.2.0,60.09200085778801,2026-01-23 16h05.52.777520 +0530,
,Scenes\090a.jpg,148,0,149,,,,,,,j,None,,,0.7142697999952361,0.24851900001522154,,,,149,0,148,693.9367631000059,,,,,,,,,,,,,,,,,,,,,,,693.9207752000075,693.9367631000059,694.420574400021,,,,,,,,,,,,694.4452443000046,,,,,,,,,,,,,,,694.4419969000155,694.4452443000046,694.4452443000046,694.4452443000046,697.4369607999979,j,697.4370331000246,,,697.4370481000224,None,,,,,,0.7142697999952361,0.24851900001522154,,,,,,,,,,00037,001,2026-01-23_16h05.43.404,MST_task,2024.2.0,60.09200085778801,2026-01-23 16h05.52.777520 +0530,
,Scenes\127a.jpg,149,0,150,,,,,,,j,None,,,0.8557835000101477,0.14400359999854118,,,,150,0,149,697.4541312000074,,,,,,,,,,,,,,,,,,,,,,,697.4371689000109,697.4541312000074,697.9373455000168,,,,,,,,,,,,,,,,,,,,,,,,,,,697.9570106000174,697.9599273000204,697.9599273000204,697.9599273000204,700.9371573000099,j,700.9372465000197,,,700.9372609000129,None,,,,,,0.8557835000101477,0.14400359999854118,,,,,,,,,,00037,001,2026-01-23_16h05.43.404,MST_task,2024.2.0,60.09200085778801,2026-01-23 16h05.52.777520 +0530,
,Scenes\039a.jpg,150,0,151,,,,,,,j,None,,,0.9441602999868337,0.23218620000989176,,,,151,0,150,700.9537805000145,,,,,,,,,,,,,,,,,,,,,,,700.9373885000241,700.9537805000145,701.4373673000082,,,,,,,,,,,,701.4551723000186,,,,,,,,,,,,,,,701.4519020000007,701.4551723000186,701.4551723000186,701.4551723000186,704.4537252000009,j,704.4538295000093,,,704.4538449000102,None,,,,,,0.9441602999868337,0.23218620000989176,,,,,,,,,,00037,001,2026-01-23_16h05.43.404,MST_task,2024.2.0,60.09200085778801,2026-01-23 16h05.52.777520 +0530,
,Scenes\002a.jpg,151,0,152,,,,,,,j,None,,,0.8889140999817755,0.22378960001515225,,,,152,0,151,704.4698504000262,,,,,,,,,,,,,,,,,,,,,,,704.4539614000241,704.4698504000262,704.9540943000175,,,,,,,,,,,,704.9823221000261,,,,,,,,,,,,,,,704.9794354000187,704.9823221000261,704.9823221000261,704.9823221000261,707.9546150000242,j,707.9546830000181,,,707.9546980000159,None,,,,,,0.8889140999817755,0.22378960001515225,,,,,,,,,,00037,001,2026-01-23_16h05.43.404,MST_task,2024.2.0,60.09200085778801,2026-01-23 16h05.52.777520 +0530,
,Scenes\006a.jpg,152,0,153,,,,,,,j,None,,,0.9723021000099834,0.24807000000146218,,,,153,0,152,707.9699866000155,,,,,,,,,,,,,,,,,,,,,,,707.9548240000149,707.9699866000155,708.4537340000097,,,,,,,,,,,,708.4748780000082,,,,,,,,,,,,,,,708.4719326000195,708.4748780000082,708.4748780000082,708.4748780000082,711.4708234000136,j,711.4708927000174,,,711.4709164000233,None,,,,,,0.9723021000099834,0.24807000000146218,,,,,,,,,,00037,001,2026-01-23_16h05.43.404,MST_task,2024.2.0,60.09200085778801,2026-01-23 16h05.52.777520 +0530,
,Scenes\024a.jpg,153,0,154,,,,,,,j,None,,,0.9619883999985177,0.21635020000394434,,,,154,0,153,711.4864139000128,,,,,,,,,,,,,,,,,,,,,,,711.4710058000055,711.4864139000128,711.9707356000145,,,,,,,,,,,,711.9892778000212,,,,,,,,,,,,,,,711.9864463000267,711.9892778000212,711.9892778000212,711.9892778000212,714.9869233000209,j,714.9870209000073,,,714.987041800021,None,,,,,,0.9619883999985177,0.21635020000394434,,,,,,,,,,00037,001,2026-01-23_16h05.43.404,MST_task,2024.2.0,60.09200085778801,2026-01-23 16h05.52.777520 +0530,
,Objects\139a.jpg,154,0,155,,,,,,,f,None,,,2.5595458000025246,0.2151153000013437,,,,155,0,154,715.0033102000016,,,,,,,,,,,,,,,,,,,,,,,714.987169,715.0033102000016,715.486847400025,,,,,,,,,,,,715.5043538000027,,,,,,,,,,,,,,,715.4976718000253,715.5043538000027,715.5043538000027,715.5043538000027,718.5042098000122,f,718.5042850000027,,,718.5043068000232,None,,,,,,2.5595458000025246,0.2151153000013437,,,,,,,,,,00037,001,2026-01-23_16h05.43.404,MST_task,2024.2.0,60.09200085778801,2026-01-23 16h05.52.777520 +0530,
,Objects\057a.jpg,155,0,156,,,,,,,f,None,,,1.3794788000232074,0.21596209998824634,,,,156,0,155,718.5202946000209,,,,,,,,,,,,,,,,,,,,,,,718.5043986000237,718.5202946000209,719.003809900023,,,,,,,,,,,,719.0203807000071,,,,,,,,,,,,,,,719.0146615000267,719.0203807000071,719.0203807000071,719.0203807000071,722.0049374000228,f,722.0050101000234,,,722.0050236000097,None,,,722.020015200018,722.020015200018,722.020015200018,1.3794788000232074,0.21596209998824634,,,,,,,,,,00037,001,2026-01-23_16h05.43.404,MST_task,2024.2.0,60.09200085778801,2026-01-23 16h05.52.777520 +0530,
,Objects\160a.jpg,156,0,157,,,,,,,f,None,,,2.526855699979933,0.19251610001083463,,,,157,0,156,722.020015200018,,,,,,,,,,,,,,,,,,,,,,,722.005108900019,722.020015200018,722.503739000007,,,,,,,,,,,,722.5203848000092,,,,,,,,,,,,,,,722.5146095000091,722.5203848000092,722.5203848000092,722.5203848000092,725.504617700004,f,725.5046912000107,,,725.5047063000093,None,,,725.5205762000114,725.5205762000114,725.5205762000114,2.526855699979933,0.19251610001083463,,,,,,,,,,00037,001,2026-01-23_16h05.43.404,MST_task,2024.2.0,60.09200085778801,2026-01-23 16h05.52.777520 +0530,
,Objects\115a.jpg,157,0,158,,,,,,,f,None,,,0.8430213000101503,0.215986499999417,,,,158,0,157,725.5205762000114,,,,,,,,,,,,,,,,,,,,,,,725.5047903000086,725.5205762000114,726.004044900008,,,,,,,,,,,,726.0206020000041,,,,,,,,,,,,,,,726.0146480000112,726.0206020000041,726.0206020000041,726.0206020000041,729.0042722000217,f,729.0043389000057,,,729.004350800009,None,,,729.020251000009,729.020251000009,729.020251000009,0.8430213000101503,0.215986499999417,,,,,,,,,,00037,001,2026-01-23_16h05.43.404,MST_task,2024.2.0,60.09200085778801,2026-01-23 16h05.52.777520 +0530,
,Objects\184a.jpg,158,0,159,,,,,,,f,None,,,1.2321168000053149,0.23896889999741688,,,,159,0,158,729.020251000009,,,,,,,,,,,,,,,,,,,,,,,729.0044487999985,729.020251000009,729.5039242000203,,,,,,,,,,,,729.5206998000212,,,,,,,,,,,,,,,729.5149704000214,729.5206998000212,729.5206998000212,729.5206998000212,732.5042495000234,f,732.5043200000073,,,732.5043331000197,None,,,732.5202414000232,732.5202414000232,732.5202414000232,1.2321168000053149,0.23896889999741688,,,,,,,,,,00037,001,2026-01-23_16h05.43.404,MST_task,2024.2.0,60.09200085778801,2026-01-23 16h05.52.777520 +0530,
,Objects\061a.jpg,159,0,160,,,,,,,j,None,,,1.1949709999898914,0.1675637000007555,,,,160,0,159,732.5202414000232,,,,,,,,,,,,,,,,,,,,,,,732.504437800002,732.5202414000232,733.0037234000047,,,,,,,,,,,,733.0205802000128,,,,,,,,,,,,,,,733.0146769999992,733.0205802000128,733.0205802000128,733.0205802000128,736.0041862000071,j,736.0042562000162,,,736.0042702000064,None,,,736.0199445000035,736.0199445000035,736.0199445000035,1.1949709999898914,0.1675637000007555,,,,,,,,,,00037,001,2026-01-23_16h05.43.404,MST_task,2024.2.0,60.09200085778801,2026-01-23 16h05.52.777520 +0530,
,Objects\028a.jpg,160,0,161,,,,,,,f,None,,,0.759285899985116,0.20733950001886114,,,,161,0,160,736.0199445000035,,,,,,,,,,,,,,,,,,,,,,,736.0043824000168,736.0199445000035,736.5038524999982,,,,,,,,,,,,736.5204586000182,,,,,,,,,,,,,,,736.5156262000091,736.5204586000182,736.5204586000182,736.5204586000182,739.5040831000078,f,739.5041797000158,,,739.504193300003,None,,,739.5201597000123,739.5201597000123,739.5201597000123,0.759285899985116,0.20733950001886114,,,,,,,,,,00037,001,2026-01-23_16h05.43.404,MST_task,2024.2.0,60.09200085778801,2026-01-23 16h05.52.777520 +0530,
,Scenes\052a.jpg,161,0,162,,,,,,,j,None,,,0.9100418000016361,0.17649680000613444,,,,162,0,161,739.5201597000123,,,,,,,,,,,,,,,,,,,,,,,739.5042941000138,739.5201597000123,740.0045735000167,,,,,,,,,,,,740.0251977000153,,,,,,,,,,,,,,,740.022472200013,740.0251977000153,740.0251977000153,740.0251977000153,743.0205552999978,j,743.0206279999984,,,743.0206509999989,None,,,,,,0.9100418000016361,0.17649680000613444,,,,,,,,,,00037,001,2026-01-23_16h05.43.404,MST_task,2024.2.0,60.09200085778801,2026-01-23 16h05.52.777520 +0530,
,Scenes\105a.jpg,162,0,163,,,,,,,j,None,,,2.334983100008685,0.20798969999304973,,,,163,0,162,743.0366547000012,,,,,,,,,,,,,,,,,,,,,,,743.0207404000103,743.0366547000012,743.5204913000052,,,,,,,,,,,,743.5446794000163,,,,,,,,,,,,,,,743.5414604000107,743.5446794000163,743.5446794000163,743.5446794000163,746.5208481000154,j,746.5209471000126,,,746.5209620000096,None,,,,,,2.334983100008685,0.20798969999304973,,,,,,,,,,00037,001,2026-01-23_16h05.43.404,MST_task,2024.2.0,60.09200085778801,2026-01-23 16h05.52.777520 +0530,
,Scenes\166a.jpg,163,0,164,,,,,,,j,None,,,0.6974370000243653,0.20003119998727925,,,,164,0,163,746.5373291000142,,,,,,,,,,,,,,,,,,,,,,,746.5210899000231,746.5373291000142,747.0205704000255,,,,,,,,,,,,747.038434600021,,,,,,,,,,,,,,,747.0352589000249,747.038434600021,747.038434600021,747.038434600021,750.0367976000125,j,750.0368681000255,,,750.0369047000131,None,,,,,,0.6974370000243653,0.20003119998727925,,,,,,,,,,00037,001,2026-01-23_16h05.43.404,MST_task,2024.2.0,60.09200085778801,2026-01-23 16h05.52.777520 +0530,
,Scenes\038a.jpg,164,0,165,,,,,,,j,None,,,1.9119887999841012,0.19204000002355315,,,,165,0,164,750.0535799000063,,,,,,,,,,,,,,,,,,,,,,,750.0369921000092,750.0535799000063,750.5376428000163,,,,,,,,,,,,,,,,,,,,,,,,,,,750.5559919000079,750.5594864000159,750.5594864000159,750.5594864000159,753.53728400002,j,753.537370200007,,,753.5373854000063,None,,,,,,1.9119887999841012,0.19204000002355315,,,,,,,,,,00037,001,2026-01-23_16h05.43.404,MST_task,2024.2.0,60.09200085778801,2026-01-23 16h05.52.777520 +0530,
,Scenes\025a.jpg,165,0,166,,,,,,,j,None,,,2.8331650999898557,None,,,,166,0,165,753.5533943000191,,,,,,,,,,,,,,,,,,,,,,,753.537504500011,753.5533943000191,754.0370298000053,,,,,,,,,,,,754.0620276000118,,,,,,,,,,,,,,,754.0589051000134,754.0620276000118,754.0620276000118,754.0620276000118,757.0539157000021,j,757.0539849000052,,,757.0540001000045,None,,,,,,2.8331650999898557,None,,,,,,,,,,00037,001,2026-01-23_16h05.43.404,MST_task,2024.2.0,60.09200085778801,2026-01-23 16h05.52.777520 +0530,
,Scenes\004a.jpg,166,0,167,,,,,,,j,None,,,2.2630405999952927,0.2240256000077352,,,,167,0,166,757.0704966000048,,,,,,,,,,,,,,,,,,,,,,,757.054108100012,757.0704966000048,757.5535566000035,,,,,,,,,,,,757.5761887000117,,,,,,,,,,,,,,,757.5732641000068,757.5761887000117,757.5761887000117,757.5761887000117,760.5540765000042,j,760.5541805000103,,,760.5542072000098,None,,,,,,2.2630405999952927,0.2240256000077352,,,,,,,,,,00037,001,2026-01-23_16h05.43.404,MST_task,2024.2.0,60.09200085778801,2026-01-23 16h05.52.777520 +0530,
