Sl_no,image_path,thisN,thisTrialN,thisRepN,key_resp_5.keys,key_resp_5.rt,key_resp_5.duration,key_resp_7.keys,key_resp_7.rt,key_resp_7.duration,key_resp_9.keys,key_resp_9.rt,key_resp_9.duration,key_resp_8.keys,key_resp_8.rt,key_resp_8.duration,practice.thisRepN,practice.thisTrialN,practice.thisN,trials.thisRepN,trials.thisTrialN,trials.thisN,thisRow.t,notes,welcome_page.started,text.started,key_resp.started,welcome_page.stopped,key_resp.keys,key_resp.rt,key_resp.duration,instructions.started,ins.started,key_resp_2.started,instructions.stopped,key_resp_2.keys,key_resp_2.rt,key_resp_2.duration,objects_only_instruction.started,text_3.started,key_resp_3.started,objects_only_instruction.stopped,key_resp_3.keys,key_resp_3.rt,key_resp_3.duration,ISI.started,text_4.started,ISI.stopped,practice_block.started,image.started,text_5.started,key_resp_5.started,practice_block.stopped,practice.key_resp_5.keys,practice.key_resp_5.rt,practice.key_resp_5.duration,indoor_outdoor.started,indoor_outdoor.stopped,practice.key_resp_7.keys,text_4.stopped,text_7.started,key_resp_7.started,practice.key_resp_7.rt,practice.key_resp_7.duration,image.stopped,text_5.stopped,key_resp_5.stopped,practice_to_main.started,text_2.started,key_resp_4.started,practice_to_main.stopped,key_resp_4.keys,key_resp_4.rt,key_resp_4.duration,objects.started,image_2.started,text_9.started,key_resp_9.started,objects.stopped,trials.key_resp_9.keys,trials.key_resp_9.rt,trials.key_resp_9.duration,encoding_task.started,encoding_task.stopped,trials.key_resp_8.keys,text_8.started,key_resp_8.started,trials.key_resp_8.rt,trials.key_resp_8.duration,image_2.stopped,text_9.stopped,key_resp_9.stopped,end_experiment.started,text_6.started,key_resp_6.started,end_experiment.stopped,key_resp_6.keys,key_resp_6.rt,key_resp_6.duration,list_of_stimuli,encoding_task_accuracy,participant,session,date,expName,psychopyVersion,frameRate,expStart,
,,,,,,,,,,,,,,,,,,,,,,,,,0.0014921000110916793,0.005192600016016513,0.005192600016016513,64.1150574000203,space,63.92188969999552,None,,,,,,,,,,,,,,,,,,,,,,,,,,,,,,,,,,,,,,,,,,,,,,,,,,,,,,,,,,,,,,,,,,,,,,,00036,001,2026-01-23_16h03.45.360,MST_task,2024.2.0,59.913102030762104,2026-01-23 16h04.48.712471 +0530,
,,,,,,,,,,,,,,,,,,,,,,,,,,,,,,,,64.11519000004046,64.13192770001478,64.13192770001478,97.5693684000289,space,33.43440080003347,None,,,,,,,,,,,,,,,,,,,,,,,,,,,,,,,,,,,,,,,,,,,,,,,,,,,,,,,,,,,,,,,,00036,001,2026-01-23_16h03.45.360,MST_task,2024.2.0,59.913102030762104,2026-01-23 16h04.48.712471 +0530,
,,,,,,,,,,,,,,,,,,,,,,,,,,,,,,,,,,,,,,,97.56948550004745,97.59282620000886,97.59282620000886,126.402567800018,space,28.805886399990413,None,,,,,,,,,,,,,,,,,,,,,,,,,,,,,,,,,,,,,,,,,,,,,,,,,,,,,,,,,00036,001,2026-01-23_16h03.45.360,MST_task,2024.2.0,59.913102030762104,2026-01-23 16h04.48.712471 +0530,
5,practice_images/139a.jpg,0,0,1,f,2.810888600011822,None,None,,,,,,,,,1,0,0,,,,126.45769280003151,,,,,,,,,,,,,,,,,,,,,,,126.45511080004508,126.45769280003151,126.91891970002325,126.96191620000172,126.99531690002186,126.99531690002186,126.99531690002186,129.9191418000264,f,2.810888600011822,None,129.92513139999937,129.92516490002163,None,,,,,,,,,,,,,,,,,,,,,,,,,,,,,,,,,,,,,,,,,,,00036,001,2026-01-23_16h03.45.360,MST_task,2024.2.0,59.913102030762104,2026-01-23 16h04.48.712471 +0530,
2,practice_images/031a.jpg,1,1,1,f,1.5910595000023022,0.15266419999534264,None,,,,,,,,,1,1,1,,,,129.9355792000424,,,,,,,,,,,,,,,,,,,,,,,129.9252780000097,129.9355792000424,130.41934350004885,130.43554390000645,130.4391072000144,130.4391072000144,130.4391072000144,133.4355453000171,f,1.5910595000023022,0.15266419999534264,133.435729800025,133.43580179999117,None,130.4391072000144,,,,,,,,,,,,,,,,,,,,,,,,,,,,,,,,,,,,,,,,,,00036,001,2026-01-23_16h03.45.360,MST_task,2024.2.0,59.913102030762104,2026-01-23 16h04.48.712471 +0530,
10,practice_images/182a.jpg,2,2,1,f,0.9784780999762006,0.12856270000338554,None,,,,,,,,,1,2,2,,,,133.45227400003932,,,,,,,,,,,,,,,,,,,,,,,133.43607990001328,133.45227400003932,133.93575370003236,133.95250549999764,133.95561720000114,133.95561720000114,133.95561720000114,136.95229780004593,f,0.9784780999762006,0.12856270000338554,136.95249049999984,136.95256160001736,None,133.95561720000114,,,,,,,,,,,,,,,,,,,,,,,,,,,,,,,,,,,,,,,,,,00036,001,2026-01-23_16h03.45.360,MST_task,2024.2.0,59.913102030762104,2026-01-23 16h04.48.712471 +0530,
4,practice_images/002b.jpg,3,3,1,f,1.8044460999662988,0.12082589999772608,None,,,,,,,,,1,3,3,,,,136.96893880004063,,,,,,,,,,,,,,,,,,,,,,,136.95285699999658,136.96893880004063,137.4526676000096,137.47024230001261,137.47332440002356,137.47332440002356,137.47332440002356,140.46927920001326,f,1.8044460999662988,0.12082589999772608,140.46948780003004,140.46956040000077,None,137.47332440002356,,,,,,,,,,,,,,,,,,,,,,,,,,,,,,,,,,,,,,,,,,00036,001,2026-01-23_16h03.45.360,MST_task,2024.2.0,59.913102030762104,2026-01-23 16h04.48.712471 +0530,
8,practice_images/178a.jpg,4,4,1,f,2.16235580004286,0.14397719997214153,None,,,,,,,,,1,4,4,,,,140.4852169000078,,,,,,,,,,,,,,,,,,,,,,,140.4697589999996,140.4852169000078,140.9685640000389,140.98501890001353,140.9880789000308,140.9880789000308,140.9880789000308,143.98554260004312,f,2.16235580004286,0.14397719997214153,143.9857494000462,143.9858196999994,None,140.9880789000308,,,,,,,,,,,,,,,,,,,,,,,,,,,,,,,,,,,,,,,,,,00036,001,2026-01-23_16h03.45.360,MST_task,2024.2.0,59.913102030762104,2026-01-23 16h04.48.712471 +0530,
7,practice_images/166a.jpg,5,5,1,None,,,f,0.16779000003589317,None,,,,,,,1,5,5,,,,144.00198380002985,,,,,,,,,,,,,,,,,,,,,,,143.98610520001967,144.00198380002985,144.48572570004035,144.50570989999687,144.50881210004445,144.50881210004445,144.50881210004445,147.5025222999975,None,,,147.50269090000074,147.70307160000084,f,144.50881210004445,147.51857300003758,147.51857300003758,0.16779000003589317,None,,,,,,,,,,,,,,,,,,,,,,,,,,,,,,,,,,,,,,00036,001,2026-01-23_16h03.45.360,MST_task,2024.2.0,59.913102030762104,2026-01-23 16h04.48.712471 +0530,
1,practice_images/013a.jpg,6,6,1,f,2.2270008999621496,0.11956200003623962,None,,,,,,,,,1,6,6,,,,147.7189927000436,,,,,,,,,,,,,,,,,,,,,,,147.70353520003846,147.7189927000436,148.20243970002048,148.21665100002429,148.21971830003895,148.21971830003895,148.21971830003895,151.20286399999168,f,2.2270008999621496,0.11956200003623962,151.20304180000676,151.20310730003985,None,148.21971830003895,,,,,151.21894310001517,151.21894310001517,151.21894310001517,,,,,,,,,,,,,,,,,,,,,,,,,,,,,,,,,,,00036,001,2026-01-23_16h03.45.360,MST_task,2024.2.0,59.913102030762104,2026-01-23 16h04.48.712471 +0530,
9,practice_images/180a.jpg,7,7,1,f,2.9715393999940716,None,None,,,,,,,,,1,7,7,,,,151.21894310001517,,,,,,,,,,,,,,,,,,,,,,,151.20337659999495,151.21894310001517,151.70271720003802,151.71937679999974,151.72254290001,151.72254290001,151.72254290001,154.71932210004888,f,2.9715393999940716,None,154.71951379999518,154.71958470001118,None,151.72254290001,,,,,,,,,,,,,,,,,,,,,,,,,,,,,,,,,,,,,,,,,,00036,001,2026-01-23_16h03.45.360,MST_task,2024.2.0,59.913102030762104,2026-01-23 16h04.48.712471 +0530,
6,practice_images/158a.jpg,8,8,1,j,2.2161709000356495,0.13640899996971712,None,,,,,,,,,1,8,8,,,,154.7355346000404,,,,,,,,,,,,,,,,,,,,,,,154.71985900000436,154.7355346000404,155.21900840004673,155.2358707000385,155.23783480003476,155.23783480003476,155.23783480003476,158.23591230000602,j,2.2161709000356495,0.13640899996971712,158.23610000003828,158.23617280001054,None,155.23783480003476,,,,,,,,,,,,,,,,,,,,,,,,,,,,,,,,,,,,,,,,,,00036,001,2026-01-23_16h03.45.360,MST_task,2024.2.0,59.913102030762104,2026-01-23 16h04.48.712471 +0530,
3,practice_images/037a.jpg,9,9,1,f,2.9626513000112027,None,None,,,,,,,,,1,9,9,,,,158.25303550000535,,,,,,,,,,,,,,,,,,,,,,,158.23645010002656,158.25303550000535,158.73596600000747,158.75260130001698,158.75571830000263,158.75571830000263,158.75571830000263,161.75264980003703,f,2.9626513000112027,None,161.75285340001574,161.75292380002793,None,158.75571830000263,,,,,,,,,,,,,,,,,,,,,,,,,,,,,,,,,,,,,,,,,,00036,001,2026-01-23_16h03.45.360,MST_task,2024.2.0,59.913102030762104,2026-01-23 16h04.48.712471 +0530,
,,,,,,,,,,,,,,,,,,,,,,,,,,,,,,,,,,,,,,,,,,,,,,,,,,,,,,,,,,,,,,,,,,,,161.75311210000655,161.76894440001342,161.76894440001342,175.7695292000426,space,13.989723599981517,None,,,,,,,,,,,,,,,,,,,,,,,,,,,,00036,001,2026-01-23_16h03.45.360,MST_task,2024.2.0,59.913102030762104,2026-01-23 16h04.48.712471 +0530,
,Scenes\023a.jpg,0,0,1,,,,,,,f,2.1801552000106312,0.17555300000822172,None,,,,,,1,0,0,175.7855557000148,,,,,,,,,,,,,,,,,,,,,,,175.77272490004543,175.7855557000148,176.2693483000039,,,,,,,,,,,,176.31445040000835,,,,,,,,,,,,,,,176.30980470002396,176.31445040000835,176.31445040000835,176.31445040000835,179.28597130003618,f,2.1801552000106312,0.17555300000822172,179.29336190002505,179.29342699999688,None,,,,,,,,,,,,,,,,,00036,001,2026-01-23_16h03.45.360,MST_task,2024.2.0,59.913102030762104,2026-01-23 16h04.48.712471 +0530,
,Scenes\157a.jpg,1,0,2,,,,,,,j,2.0672140000388026,0.14413089997833595,None,,,,,,2,0,1,179.30230770003982,,,,,,,,,,,,,,,,,,,,,,,179.29371450003237,179.30230770003982,179.78597220004303,,,,,,,,,,,,179.81882450002013,,,,,,,,,,,,,,,179.81575720000546,179.81882450002013,179.81882450002013,179.81882450002013,182.8038404000108,j,2.0672140000388026,0.14413089997833595,182.80404190003173,182.80410830001347,None,,,,,,,,,,,,,,,,,00036,001,2026-01-23_16h03.45.360,MST_task,2024.2.0,59.913102030762104,2026-01-23 16h04.48.712471 +0530,
,Scenes\113a.jpg,2,0,3,,,,,,,j,1.2519896000158042,0.16798090003430843,None,,,,,,3,0,2,182.81894200004172,,,,,,,,,,,,,,,,,,,,,,,182.80448690004414,182.81894200004172,183.30268369999249,,,,,,,,,,,,183.34665070002666,,,,,,,,,,,,,,,183.34314240003005,183.34665070002666,183.34665070002666,183.34665070002666,186.31942050001817,j,1.2519896000158042,0.16798090003430843,186.31964380003046,186.31971650000196,None,,,,,,,,,,,,,,,,,00036,001,2026-01-23_16h03.45.360,MST_task,2024.2.0,59.913102030762104,2026-01-23 16h04.48.712471 +0530,
,Scenes\075a.jpg,3,0,4,,,,,,,j,2.432710600027349,0.16773960000136867,None,,,,,,4,0,3,186.33539900003234,,,,,,,,,,,,,,,,,,,,,,,186.3201834000065,186.33539900003234,186.81934790004743,,,,,,,,,,,,186.84566079999786,,,,,,,,,,,,,,,186.8429901000345,186.84566079999786,186.84566079999786,186.84566079999786,189.83595010003773,j,2.432710600027349,0.16773960000136867,189.8361577000469,189.83622360002482,None,,,,,,,,,,,,,,,,,00036,001,2026-01-23_16h03.45.360,MST_task,2024.2.0,59.913102030762104,2026-01-23 16h04.48.712471 +0530,
,Scenes\050a.jpg,4,0,5,,,,,,,j,2.7475172000122257,0.11997739999787882,None,,,,,,5,0,4,189.8521115000476,,,,,,,,,,,,,,,,,,,,,,,189.83659730001818,189.8521115000476,190.33596660004696,,,,,,,,,,,,190.38662400003523,,,,,,,,,,,,,,,190.3835675000446,190.38662400003523,190.38662400003523,190.38662400003523,193.35346790001495,j,2.7475172000122257,0.11997739999787882,193.3536634000484,193.3537323999917,None,,,,,,,,,,,,,,,,,00036,001,2026-01-23_16h03.45.360,MST_task,2024.2.0,59.913102030762104,2026-01-23 16h04.48.712471 +0530,
,Scenes\109a.jpg,5,0,6,,,,,,,None,,,j,0.0327510999632068,None,,,,6,0,5,193.36930409999331,,,,,,,,,,,,,,,,,,,,,,,193.35409510001773,193.36930409999331,193.85244740004418,,,,,,,,,,,,193.88917810004205,,,,,,,,,,,,,,,193.88625929999398,193.88917810004205,193.88917810004205,193.88917810004205,196.86935779999476,None,,,196.86954420001712,196.9196011000313,j,196.88562320003984,196.88562320003984,0.0327510999632068,None,,,,,,,,,,,,,00036,001,2026-01-23_16h03.45.360,MST_task,2024.2.0,59.913102030762104,2026-01-23 16h04.48.712471 +0530,
,Scenes\008a.jpg,6,0,7,,,,,,,j,2.5202249999856576,0.13556000002427027,None,,,,,,7,0,6,196.93564430001425,,,,,,,,,,,,,,,,,,,,,,,196.91994789999444,196.93564430001425,197.4194003000157,,,,,,,,,,,,197.44627040001797,,,,,,,,,,,,,,,197.44360840000445,197.44627040001797,197.44627040001797,197.44627040001797,200.42010109999683,j,2.5202249999856576,0.13556000002427027,200.42028270004084,200.42034160002368,None,,,,,,,,,,,,,,,,,00036,001,2026-01-23_16h03.45.360,MST_task,2024.2.0,59.913102030762104,2026-01-23 16h04.48.712471 +0530,
,Objects\076a.jpg,7,0,8,,,,,,,j,2.4174994999775663,0.16793960001086816,None,,,,,,8,0,7,200.43545420002192,,,,,,,,,,,,,,,,,,,,,,,200.420596400043,200.43545420002192,200.9191537000006,,,,,,,,,,,,200.95716079999693,,,,,,,,,,,,,,,200.95405810000375,200.95716079999693,200.95716079999693,200.95716079999693,203.93592550000176,j,2.4174994999775663,0.16793960001086816,203.9361390999984,203.93617639999138,None,,,,,,,,,,,,,,,,,00036,001,2026-01-23_16h03.45.360,MST_task,2024.2.0,59.913102030762104,2026-01-23 16h04.48.712471 +0530,
,Objects\105a.jpg,8,0,9,,,,,,,f,2.5385572999948636,0.1679905999917537,None,,,,,,9,0,8,203.9520950000151,,,,,,,,,,,,,,,,,,,,,,,203.9363846000051,203.9520950000151,204.43603750003967,,,,,,,,,,,,204.45966799999587,,,,,,,,,,,,,,,204.45700039999792,204.45966799999587,204.45966799999587,204.45966799999587,207.45232280000346,f,2.5385572999948636,0.1679905999917537,207.45247130002826,207.45251500001177,None,,,,,,,,,,,,,,,,,00036,001,2026-01-23_16h03.45.360,MST_task,2024.2.0,59.913102030762104,2026-01-23 16h04.48.712471 +0530,
,Objects\004a.jpg,9,0,10,,,,,,,f,2.8130063000135124,0.13576749997446314,None,,,,,,10,0,9,207.46860810002545,,,,,,,,,,,,,,,,,,,,,,,207.45272430003388,207.46860810002545,207.95255030004773,,,,,,,,,,,,207.97711249999702,,,,,,,,,,,,,,,207.97422680002637,207.97711249999702,207.97711249999702,207.97711249999702,210.96927050000522,f,2.8130063000135124,0.13576749997446314,210.96947320003528,210.96953830000712,None,,,,,,,,,,,,,,,,,00036,001,2026-01-23_16h03.45.360,MST_task,2024.2.0,59.913102030762104,2026-01-23 16h04.48.712471 +0530,
,Objects\040a.jpg,10,0,11,,,,,,,f,2.655120200011879,0.15978500002529472,None,,,,,,11,0,10,210.98557380004786,,,,,,,,,,,,,,,,,,,,,,,210.96984760003397,210.98557380004786,211.46935339999618,,,,,,,,,,,,211.50347350002266,,,,,,,,,,,,,,,211.50057730003027,211.50347350002266,211.50347350002266,211.50347350002266,214.4859972000122,f,2.655120200011879,0.15978500002529472,214.48619379999582,214.4862611000426,None,,,,,,,,,,,,,,,,,00036,001,2026-01-23_16h03.45.360,MST_task,2024.2.0,59.913102030762104,2026-01-23 16h04.48.712471 +0530,
,Objects\057a.jpg,11,0,12,,,,,,,f,2.2004954000003636,0.12858379998942837,None,,,,,,12,0,11,214.50209500000346,,,,,,,,,,,,,,,,,,,,,,,214.48655540001346,214.50209500000346,214.98587050003698,,,,,,,,,,,,215.02145030000247,,,,,,,,,,,,,,,215.01804759999504,215.02145030000247,215.02145030000247,215.02145030000247,218.00311230000807,f,2.2004954000003636,0.12858379998942837,218.00332290004008,218.00339100003475,None,,,,,,,,,,,,,,,,,00036,001,2026-01-23_16h03.45.360,MST_task,2024.2.0,59.913102030762104,2026-01-23 16h04.48.712471 +0530,
,Objects\021a.jpg,12,0,13,,,,,,,f,1.7022573999711312,0.14432050002506003,None,,,,,,13,0,12,218.0189566000481,,,,,,,,,,,,,,,,,,,,,,,218.0038664000458,218.0189566000481,218.50266510003712,,,,,,,,,,,,218.52806310000597,,,,,,,,,,,,,,,218.5254394999938,218.52806310000597,218.52806310000597,218.52806310000597,221.51904879999347,f,1.7022573999711312,0.14432050002506003,221.51927620003698,221.51934850000544,None,,,,,,,,,,,,,,,,,00036,001,2026-01-23_16h03.45.360,MST_task,2024.2.0,59.913102030762104,2026-01-23 16h04.48.712471 +0530,
,Objects\084a.jpg,13,0,14,,,,,,,f,2.4602650000015274,0.1673261999967508,None,,,,,,14,0,13,221.53531940001994,,,,,,,,,,,,,,,,,,,,,,,221.51967220002552,221.53531940001994,222.01934560004156,,,,,,,,,,,,222.0423262999975,,,,,,,,,,,,,,,222.03959749999922,222.0423262999975,222.0423262999975,222.0423262999975,225.0356654000352,f,2.4602650000015274,0.1673261999967508,225.0358869000338,225.03595049999421,None,,,,,,,,,,,,,,,,,00036,001,2026-01-23_16h03.45.360,MST_task,2024.2.0,59.913102030762104,2026-01-23 16h04.48.712471 +0530,
,Scenes\089a.jpg,14,0,15,,,,,,,j,2.771153899957426,None,None,,,,,,15,0,14,225.05190500000026,,,,,,,,,,,,,,,,,,,,,,,225.03633279999485,225.05190500000026,225.5361793000484,,,,,,,,,,,,225.5874389000237,,,,,,,,,,,,,,,225.58466650004266,225.5874389000237,225.5874389000237,225.5874389000237,228.55254770000465,j,2.771153899957426,None,228.5527489000233,228.55281369999284,None,,,,,,,,,,,,,,,,,00036,001,2026-01-23_16h03.45.360,MST_task,2024.2.0,59.913102030762104,2026-01-23 16h04.48.712471 +0530,
,Scenes\078a.jpg,15,0,16,,,,,,,j,2.7383796999929473,0.13658799999393523,None,,,,,,16,0,15,228.5688781000208,,,,,,,,,,,,,,,,,,,,,,,228.5531085000257,228.5688781000208,229.05269540002337,,,,,,,,,,,,229.0917996999924,,,,,,,,,,,,,,,229.0887279000017,229.0917996999924,229.0917996999924,229.0917996999924,232.06903660000535,j,2.7383796999929473,0.13658799999393523,232.06923760002246,232.06930490001105,None,,,,,,,,,,,,,,,,,00036,001,2026-01-23_16h03.45.360,MST_task,2024.2.0,59.913102030762104,2026-01-23 16h04.48.712471 +0530,
,Scenes\098a.jpg,16,0,17,,,,,,,f,2.8497836000169627,None,None,,,,,,17,0,16,232.08557130000554,,,,,,,,,,,,,,,,,,,,,,,232.06967870000517,232.08557130000554,232.56929240003228,,,,,,,,,,,,232.59693810000317,,,,,,,,,,,,,,,232.5941937000025,232.59693810000317,232.59693810000317,232.59693810000317,235.58599410002353,f,2.8497836000169627,None,235.58619140001247,235.586260400014,None,,,,,,,,,,,,,,,,,00036,001,2026-01-23_16h03.45.360,MST_task,2024.2.0,59.913102030762104,2026-01-23 16h04.48.712471 +0530,
,Scenes\094a.jpg,17,0,18,,,,,,,None,,,f,1.1279008000274189,None,,,,18,0,17,235.602677100047,,,,,,,,,,,,,,,,,,,,,,,235.5865582000115,235.602677100047,236.08661270001903,,,,,,,,,,,,,,,,,,,,,,,,,,,236.1167702000239,236.1199142000405,236.1199142000405,236.1199142000405,239.10235230001854,None,,,239.10254240001086,240.2528235000209,f,239.1187665000325,239.1187665000325,1.1279008000274189,None,,,,,,,,,,,,,00036,001,2026-01-23_16h03.45.360,MST_task,2024.2.0,59.913102030762104,2026-01-23 16h04.48.712471 +0530,
,Scenes\183a.jpg,18,0,19,,,,,,,j,1.9927416000282392,0.11233049997827038,None,,,,,,19,0,18,240.26888980000513,,,,,,,,,,,,,,,,,,,,,,,240.25316469999962,240.26888980000513,240.75268050003797,,,,,,,,,,,,240.81326010002522,,,,,,,,,,,,,,,240.81058990000747,240.81326010002522,240.81326010002522,240.81326010002522,243.75335950002773,j,1.9927416000282392,0.11233049997827038,243.7535777000012,243.75364740000805,None,,,,,,,,,,,,,,,,,00036,001,2026-01-23_16h03.45.360,MST_task,2024.2.0,59.913102030762104,2026-01-23 16h04.48.712471 +0530,
,Scenes\165a.jpg,19,0,20,,,,,,,j,2.5763835000107065,0.12041309999767691,None,,,,,,20,0,19,243.76909590000287,,,,,,,,,,,,,,,,,,,,,,,243.7540237000212,243.76909590000287,244.2526659000432,,,,,,,,,,,,244.3017934000236,,,,,,,,,,,,,,,244.29907770000864,244.3017934000236,244.3017934000236,244.3017934000236,247.26918550004484,j,2.5763835000107065,0.12041309999767691,247.26938800001517,247.2694454000448,None,,,,,,,,,,,,,,,,,00036,001,2026-01-23_16h03.45.360,MST_task,2024.2.0,59.913102030762104,2026-01-23 16h04.48.712471 +0530,
,Scenes\163a.jpg,20,0,21,,,,,,,j,2.9080268999678083,None,None,,,,,,21,0,20,247.2851609000354,,,,,,,,,,,,,,,,,,,,,,,247.26969810004812,247.2851609000354,247.76959909999277,,,,,,,,,,,,247.84252950001974,,,,,,,,,,,,,,,247.83921360003296,247.84252950001974,247.84252950001974,247.84252950001974,250.76976650004508,j,2.9080268999678083,None,250.76997570000822,250.7700429999968,None,,,,,,,,,,,,,,,,,00036,001,2026-01-23_16h03.45.360,MST_task,2024.2.0,59.913102030762104,2026-01-23 16h04.48.712471 +0530,
,Objects\096a.jpg,21,0,22,,,,,,,f,2.86369220004417,None,None,,,,,,22,0,21,250.78592370002298,,,,,,,,,,,,,,,,,,,,,,,250.77041769999778,250.78592370002298,251.26921210001456,,,,,,,,,,,,251.29485860001296,,,,,,,,,,,,,,,251.2919491000357,251.29485860001296,251.29485860001296,251.29485860001296,254.28563840000425,f,2.86369220004417,None,254.28583609999623,254.2859044999932,None,,,,,,,,,,,,,,,,,00036,001,2026-01-23_16h03.45.360,MST_task,2024.2.0,59.913102030762104,2026-01-23 16h04.48.712471 +0530,
,Objects\188a.jpg,22,0,23,,,,,,,f,1.862565600022208,0.17592660000082105,None,,,,,,23,0,22,254.30217390001053,,,,,,,,,,,,,,,,,,,,,,,254.28619730001083,254.30217390001053,254.78596649999963,,,,,,,,,,,,254.81559070001822,,,,,,,,,,,,,,,254.8133163000457,254.81559070001822,254.81559070001822,254.81559070001822,257.8028946000268,f,1.862565600022208,0.17592660000082105,257.8030987000093,257.8031673000078,None,,,,,,,,,,,,,,,,,00036,001,2026-01-23_16h03.45.360,MST_task,2024.2.0,59.913102030762104,2026-01-23 16h04.48.712471 +0530,
,Objects\086a.jpg,23,0,24,,,,,,,f,2.489146100007929,0.19216899998718873,None,,,,,,24,0,23,257.81895690003876,,,,,,,,,,,,,,,,,,,,,,,257.8035393000464,257.81895690003876,258.3023707999964,,,,,,,,,,,,258.3247060000431,,,,,,,,,,,,,,,258.3218594000209,258.3247060000431,258.3247060000431,258.3247060000431,261.3190305000171,f,2.489146100007929,0.19216899998718873,261.3192297000205,261.3192945000483,None,,,,,,,,,,,,,,,,,00036,001,2026-01-23_16h03.45.360,MST_task,2024.2.0,59.913102030762104,2026-01-23 16h04.48.712471 +0530,
,Objects\001a.jpg,24,0,25,,,,,,,f,2.631700800033286,0.19151969999074936,None,,,,,,25,0,24,261.3353600000264,,,,,,,,,,,,,,,,,,,,,,,261.3197244000039,261.3353600000264,261.8193803000031,,,,,,,,,,,,261.84681660000933,,,,,,,,,,,,,,,261.84457440004917,261.84681660000933,261.84681660000933,261.84681660000933,264.83592650003266,f,2.631700800033286,0.19151969999074936,264.8361266000429,264.83619250002084,None,,,,,,,,,,,,,,,,,00036,001,2026-01-23_16h03.45.360,MST_task,2024.2.0,59.913102030762104,2026-01-23 16h04.48.712471 +0530,
,Objects\145a.jpg,25,0,26,,,,,,,f,1.1296923999907449,0.18465000001015142,None,,,,,,26,0,25,264.8530380000011,,,,,,,,,,,,,,,,,,,,,,,264.83648610004457,264.8530380000011,265.3359446999966,,,,,,,,,,,,265.3963723000488,,,,,,,,,,,,,,,265.39339690003544,265.3963723000488,265.3963723000488,265.3963723000488,268.3524413999985,f,1.1296923999907449,0.18465000001015142,268.3526417000103,268.35270620003575,None,,,,,,,,,,,,,,,,,00036,001,2026-01-23_16h03.45.360,MST_task,2024.2.0,59.913102030762104,2026-01-23 16h04.48.712471 +0530,
,Objects\140a.jpg,26,0,27,,,,,,,f,1.3459642000379972,0.19287899998016655,None,,,,,,27,0,26,268.3689614000032,,,,,,,,,,,,,,,,,,,,,,,268.35307900002226,268.3689614000032,268.8526251000003,,,,,,,,,,,,268.87589150003623,,,,,,,,,,,,,,,268.87327290000394,268.87589150003623,268.87589150003623,268.87589150003623,271.8700985000469,f,1.3459642000379972,0.19287899998016655,271.8702975999913,271.8703639000305,None,,,,,,,,,,,,,,,,,00036,001,2026-01-23_16h03.45.360,MST_task,2024.2.0,59.913102030762104,2026-01-23 16h04.48.712471 +0530,
,Objects\118a.jpg,27,0,28,,,,,,,f,1.1363409999758005,0.20070350001333281,None,,,,,,28,0,27,271.88592590001645,,,,,,,,,,,,,,,,,,,,,,,271.87065950001124,271.88592590001645,272.3693503999966,,,,,,,,,,,,272.40572780004004,,,,,,,,,,,,,,,272.40278599999147,272.40572780004004,272.40572780004004,272.40572780004004,275.386005700042,f,1.1363409999758005,0.20070350001333281,275.38620760000776,275.3862755000009,None,,,,,,,,,,,,,,,,,00036,001,2026-01-23_16h03.45.360,MST_task,2024.2.0,59.913102030762104,2026-01-23 16h04.48.712471 +0530,
,Scenes\055a.jpg,28,0,29,,,,,,,j,2.066397799993865,0.14387009997153655,None,,,,,,29,0,28,275.40222410002025,,,,,,,,,,,,,,,,,,,,,,,275.38656940002693,275.40222410002025,275.8858872000128,,,,,,,,,,,,275.91622479999205,,,,,,,,,,,,,,,275.91329470003257,275.91622479999205,275.91622479999205,275.91622479999205,278.90273530001286,j,2.066397799993865,0.14387009997153655,278.90293480001856,278.9030014000018,None,,,,,,,,,,,,,,,,,00036,001,2026-01-23_16h03.45.360,MST_task,2024.2.0,59.913102030762104,2026-01-23 16h04.48.712471 +0530,
,Scenes\181a.jpg,29,0,30,,,,,,,None,,,f,0.6025315999868326,None,,,,30,0,29,278.91928420000477,,,,,,,,,,,,,,,,,,,,,,,278.9032959000324,278.91928420000477,279.40262490004534,,,,,,,,,,,,279.43455450003967,,,,,,,,,,,,,,,279.43136930000037,279.43455450003967,279.43455450003967,279.43455450003967,282.41896730003646,None,,,282.4191545000067,283.05251950002275,f,282.4353399000247,282.4353399000247,0.6025315999868326,None,,,,,,,,,,,,,00036,001,2026-01-23_16h03.45.360,MST_task,2024.2.0,59.913102030762104,2026-01-23 16h04.48.712471 +0530,
,Scenes\162a.jpg,30,0,31,,,,,,,j,2.369812999968417,0.135735800024122,None,,,,,,31,0,30,283.06899780000094,,,,,,,,,,,,,,,,,,,,,,,283.05285999999614,283.06899780000094,283.5526310999994,,,,,,,,,,,,283.5809276000364,,,,,,,,,,,,,,,283.5782065000385,283.5809276000364,283.5809276000364,283.5809276000364,286.5693307000329,j,2.369812999968417,0.135735800024122,286.56954450003104,286.56961659999797,None,,,,,,,,,,,,,,,,,00036,001,2026-01-23_16h03.45.360,MST_task,2024.2.0,59.913102030762104,2026-01-23 16h04.48.712471 +0530,
,Scenes\177a.jpg,31,0,32,,,,,,,j,1.7314338000142016,0.19121509999968112,None,,,,,,32,0,31,286.5855991000426,,,,,,,,,,,,,,,,,,,,,,,286.5700371999992,286.5855991000426,287.06988990004174,,,,,,,,,,,,287.0993869000231,,,,,,,,,,,,,,,287.09664760000305,287.0993869000231,287.0993869000231,287.0993869000231,290.08602069999324,j,1.7314338000142016,0.19121509999968112,290.08619629999157,290.08622930001,None,,,,,,,,,,,,,,,,,00036,001,2026-01-23_16h03.45.360,MST_task,2024.2.0,59.913102030762104,2026-01-23 16h04.48.712471 +0530,
,Scenes\097a.jpg,32,0,33,,,,,,,j,1.1960257000173442,0.18431370001053438,None,,,,,,33,0,32,290.1022248000372,,,,,,,,,,,,,,,,,,,,,,,290.08638190000784,290.1022248000372,290.5858487000223,,,,,,,,,,,,290.60984029999236,,,,,,,,,,,,,,,290.606621700048,290.60984029999236,290.60984029999236,290.60984029999236,293.6026342000114,j,1.1960257000173442,0.18431370001053438,293.60284070001217,293.6029043000308,None,,,,,,,,,,,,,,,,,00036,001,2026-01-23_16h03.45.360,MST_task,2024.2.0,59.913102030762104,2026-01-23 16h04.48.712471 +0530,
,Scenes\051a.jpg,33,0,34,,,,,,,j,1.1528371999738738,0.14477030001580715,None,,,,,,34,0,33,293.6197109000059,,,,,,,,,,,,,,,,,,,,,,,293.60330900002737,293.6197109000059,294.1026738000219,,,,,,,,,,,,294.14908990002004,,,,,,,,,,,,,,,294.1458018000121,294.14908990002004,294.14908990002004,294.14908990002004,297.1193489000434,j,1.1528371999738738,0.14477030001580715,297.1195518000168,297.11961860000156,None,,,,,,,,,,,,,,,,,00036,001,2026-01-23_16h03.45.360,MST_task,2024.2.0,59.913102030762104,2026-01-23 16h04.48.712471 +0530,
,Scenes\117a.jpg,34,0,35,,,,,,,j,0.7680257000029087,0.13614129996858537,None,,,,,,35,0,34,297.1355397000443,,,,,,,,,,,,,,,,,,,,,,,297.1199854000006,297.1355397000443,297.61925540002994,,,,,,,,,,,,297.64657070004614,,,,,,,,,,,,,,,297.64424680004595,297.64657070004614,297.64657070004614,297.64657070004614,300.6358446000377,j,0.7680257000029087,0.13614129996858537,300.63604900002247,300.63611530000344,None,,,,,,,,,,,,,,,,,00036,001,2026-01-23_16h03.45.360,MST_task,2024.2.0,59.913102030762104,2026-01-23 16h04.48.712471 +0530,
,Objects\113a.jpg,35,0,36,,,,,,,j,1.8007489999872632,0.16044490004424006,None,,,,,,36,0,35,300.6521164000151,,,,,,,,,,,,,,,,,,,,,,,300.6364849000238,300.6521164000151,301.13585660001263,,,,,,,,,,,,301.1732615000219,,,,,,,,,,,,,,,301.17064130003564,301.1732615000219,301.1732615000219,301.1732615000219,304.15241890004836,j,1.8007489999872632,0.16044490004424006,304.1526226000278,304.1526878000004,None,,,,,,,,,,,,,,,,,00036,001,2026-01-23_16h03.45.360,MST_task,2024.2.0,59.913102030762104,2026-01-23 16h04.48.712471 +0530,
,Objects\048a.jpg,36,0,37,,,,,,,j,0.8475613999762572,0.1198135000304319,None,,,,,,37,0,36,304.16871200001333,,,,,,,,,,,,,,,,,,,,,,,304.1529855999979,304.16871200001333,304.6528255000012,,,,,,,,,,,,304.6866154000163,,,,,,,,,,,,,,,304.6840374000021,304.6866154000163,304.6866154000163,304.6866154000163,307.66935250000097,j,0.8475613999762572,0.1198135000304319,307.6695618000231,307.6696265999926,None,,,,,,,,,,,,,,,,,00036,001,2026-01-23_16h03.45.360,MST_task,2024.2.0,59.913102030762104,2026-01-23 16h04.48.712471 +0530,
,Objects\071a.jpg,37,0,38,,,,,,,f,1.8658141000196338,0.12840980000328273,None,,,,,,38,0,37,307.68562280002516,,,,,,,,,,,,,,,,,,,,,,,307.66992740001297,307.68562280002516,308.1695425999933,,,,,,,,,,,,308.20401099999435,,,,,,,,,,,,,,,308.20178669999586,308.20401099999435,308.20401099999435,308.20401099999435,311.17005340004107,f,1.8658141000196338,0.12840980000328273,311.1702570000198,311.17032200004905,None,,,,,,,,,,,,,,,,,00036,001,2026-01-23_16h03.45.360,MST_task,2024.2.0,59.913102030762104,2026-01-23 16h04.48.712471 +0530,
,Objects\130a.jpg,38,0,39,,,,,,,f,2.587151499988977,0.16866849997313693,None,,,,,,39,0,38,311.18571310001425,,,,,,,,,,,,,,,,,,,,,,,311.17069280002033,311.18571310001425,311.66942220000783,,,,,,,,,,,,311.6908775000484,,,,,,,,,,,,,,,311.68813369999407,311.6908775000484,311.6908775000484,311.6908775000484,314.6861133000348,f,2.587151499988977,0.16866849997313693,314.68637670000317,314.6864437000477,None,,,,,,,,,,,,,,,,,00036,001,2026-01-23_16h03.45.360,MST_task,2024.2.0,59.913102030762104,2026-01-23 16h04.48.712471 +0530,
,Objects\035a.jpg,39,0,40,,,,,,,j,0.7886830000206828,0.15278559998841956,None,,,,,,40,0,39,314.70222300000023,,,,,,,,,,,,,,,,,,,,,,,314.68674050003756,314.70222300000023,315.1858920000377,,,,,,,,,,,,315.2091864999966,,,,,,,,,,,,,,,315.20624279999174,315.2091864999966,315.2091864999966,315.2091864999966,318.202598200005,j,0.7886830000206828,0.15278559998841956,318.2028068000218,318.20287390000885,None,,,,,,,,,,,,,,,,,00036,001,2026-01-23_16h03.45.360,MST_task,2024.2.0,59.913102030762104,2026-01-23 16h04.48.712471 +0530,
,Objects\072a.jpg,40,0,41,,,,,,,f,1.3846591000328772,0.19231349998153746,None,,,,,,41,0,40,318.2189596000244,,,,,,,,,,,,,,,,,,,,,,,318.20316890004324,318.2189596000244,318.70266120001907,,,,,,,,,,,,318.72535459999926,,,,,,,,,,,,,,,318.72268050001003,318.72535459999926,318.72535459999926,318.72535459999926,321.7193984000478,f,1.3846591000328772,0.19231349998153746,321.71960880002007,321.7196740999934,None,,,,,,,,,,,,,,,,,00036,001,2026-01-23_16h03.45.360,MST_task,2024.2.0,59.913102030762104,2026-01-23 16h04.48.712471 +0530,
,Objects\126a.jpg,41,0,42,,,,,,,j,2.8154879999929108,0.13658990000840276,None,,,,,,42,0,41,321.73530630004825,,,,,,,,,,,,,,,,,,,,,,,321.71997130004456,321.73530630004825,322.219047599996,,,,,,,,,,,,322.24661239999114,,,,,,,,,,,,,,,322.24388490000274,322.24661239999114,322.24661239999114,322.24661239999114,325.23671379999723,j,2.8154879999929108,0.13658990000840276,325.2369193000486,325.2369864000357,None,,,,,,,,,,,,,,,,,00036,001,2026-01-23_16h03.45.360,MST_task,2024.2.0,59.913102030762104,2026-01-23 16h04.48.712471 +0530,
,Scenes\090a.jpg,42,0,43,,,,,,,j,1.4469260000041686,0.14374249998945743,None,,,,,,43,0,42,325.2522193000186,,,,,,,,,,,,,,,,,,,,,,,325.2372813000111,325.2522193000186,325.73547600000165,,,,,,,,,,,,325.7675957000465,,,,,,,,,,,,,,,325.76448240003083,325.7675957000465,325.7675957000465,325.7675957000465,328.7526250000228,j,1.4469260000041686,0.14374249998945743,328.75282799999695,328.7528925000224,None,,,,,,,,,,,,,,,,,00036,001,2026-01-23_16h03.45.360,MST_task,2024.2.0,59.913102030762104,2026-01-23 16h04.48.712471 +0530,
,Scenes\185a.jpg,43,0,44,,,,,,,j,1.1684004999697208,0.1522162000183016,None,,,,,,44,0,43,328.7689623000333,,,,,,,,,,,,,,,,,,,,,,,328.7532629999914,328.7689623000333,329.2526330000255,,,,,,,,,,,,329.2854359000339,,,,,,,,,,,,,,,329.2825412999955,329.2854359000339,329.2854359000339,329.2854359000339,332.27011510002194,j,1.1684004999697208,0.1522162000183016,332.2703174999915,332.2703819000162,None,,,,,,,,,,,,,,,,,00036,001,2026-01-23_16h03.45.360,MST_task,2024.2.0,59.913102030762104,2026-01-23 16h04.48.712471 +0530,
,Scenes\110a.jpg,44,0,45,,,,,,,j,1.0227259999956004,0.11291530000744388,None,,,,,,45,0,44,332.28563040000154,,,,,,,,,,,,,,,,,,,,,,,332.27073809999274,332.28563040000154,332.77009310002904,,,,,,,,,,,,332.7991419000318,,,,,,,,,,,,,,,332.7969303000136,332.7991419000318,332.7991419000318,332.7991419000318,335.7860351999989,j,1.0227259999956004,0.11291530000744388,335.7862385000335,335.7863052000175,None,,,,,,,,,,,,,,,,,00036,001,2026-01-23_16h03.45.360,MST_task,2024.2.0,59.913102030762104,2026-01-23 16h04.48.712471 +0530,
,Scenes\003a.jpg,45,0,46,,,,,,,j,0.6962342000333592,0.16791709995595738,None,,,,,,46,0,45,335.8020907000173,,,,,,,,,,,,,,,,,,,,,,,335.78674000001047,335.8020907000173,336.28571630001534,,,,,,,,,,,,336.34185860003345,,,,,,,,,,,,,,,336.3387789000408,336.34185860003345,336.34185860003345,336.34185860003345,339.302750700037,j,0.6962342000333592,0.16791709995595738,339.3029556000256,339.30302069999743,None,,,,,,,,,,,,,,,,,00036,001,2026-01-23_16h03.45.360,MST_task,2024.2.0,59.913102030762104,2026-01-23 16h04.48.712471 +0530,
,Scenes\061a.jpg,46,0,47,,,,,,,j,0.7759487999719568,0.19143750000512227,None,,,,,,47,0,46,339.31892740004696,,,,,,,,,,,,,,,,,,,,,,,339.30338990001474,339.31892740004696,339.80239200004144,,,,,,,,,,,,339.85459180001635,,,,,,,,,,,,,,,339.85178700002143,339.85459180001635,339.85459180001635,339.85459180001635,342.81985080003506,j,0.7759487999719568,0.19143750000512227,342.82005860004574,342.8201244000229,None,,,,,,,,,,,,,,,,,00036,001,2026-01-23_16h03.45.360,MST_task,2024.2.0,59.913102030762104,2026-01-23 16h04.48.712471 +0530,
,Scenes\167a.jpg,47,0,48,,,,,,,j,2.4435457999934442,0.16820269997697324,None,,,,,,48,0,47,342.83556770003634,,,,,,,,,,,,,,,,,,,,,,,342.8204910000204,342.83556770003634,343.31938920001267,,,,,,,,,,,,343.35461219999706,,,,,,,,,,,,,,,343.34986260003643,343.35461219999706,343.35461219999706,343.35461219999706,346.3360477000242,j,2.4435457999934442,0.16820269997697324,346.3362502999953,346.33631820004666,None,,,,,,,,,,,,,,,,,00036,001,2026-01-23_16h03.45.360,MST_task,2024.2.0,59.913102030762104,2026-01-23 16h04.48.712471 +0530,
,Scenes\121a.jpg,48,0,49,,,,,,,j,1.1877059999969788,0.21630760002881289,None,,,,,,49,0,48,346.3520174000296,,,,,,,,,,,,,,,,,,,,,,,346.3367481000023,346.3520174000296,346.8359556000214,,,,,,,,,,,,346.8660977000254,,,,,,,,,,,,,,,346.8630924000172,346.8660977000254,346.8660977000254,346.8660977000254,349.85269870003685,j,1.1877059999969788,0.21630760002881289,349.8528975000372,349.8529611999984,None,,,,,,,,,,,,,,,,,00036,001,2026-01-23_16h03.45.360,MST_task,2024.2.0,59.913102030762104,2026-01-23 16h04.48.712471 +0530,
,Objects\092a.jpg,49,0,50,,,,,,,f,2.9569363000337034,None,None,,,,,,50,0,49,349.8688407000154,,,,,,,,,,,,,,,,,,,,,,,349.85339110001223,349.8688407000154,350.3525015000487,,,,,,,,,,,,350.3771270000143,,,,,,,,,,,,,,,350.3739193000365,350.3771270000143,350.3771270000143,350.3771270000143,353.36917750001885,f,2.9569363000337034,None,353.36937020003097,353.36943100002827,None,,,,,,,,,,,,,,,,,00036,001,2026-01-23_16h03.45.360,MST_task,2024.2.0,59.913102030762104,2026-01-23 16h04.48.712471 +0530,
,Objects\192a.jpg,50,0,51,,,,,,,j,1.7383666000096127,0.14466280001215637,None,,,,,,51,0,50,353.38541049999185,,,,,,,,,,,,,,,,,,,,,,,353.36976890004007,353.38541049999185,353.8693654999952,,,,,,,,,,,,353.899637399998,,,,,,,,,,,,,,,353.8974349999917,353.899637399998,353.899637399998,353.899637399998,356.88654320000205,j,1.7383666000096127,0.14466280001215637,356.88674290000927,356.88680790003855,None,,,,,,,,,,,,,,,,,00036,001,2026-01-23_16h03.45.360,MST_task,2024.2.0,59.913102030762104,2026-01-23 16h04.48.712471 +0530,
,Objects\155a.jpg,51,0,52,,,,,,,f,0.8763513999874704,0.1921351000200957,None,,,,,,52,0,51,356.90239360003034,,,,,,,,,,,,,,,,,,,,,,,356.887100699998,356.90239360003034,357.3855695000384,,,,,,,,,,,,357.40958750003483,,,,,,,,,,,,,,,357.40650860004826,357.40958750003483,357.40958750003483,357.40958750003483,360.4027016000473,f,0.8763513999874704,0.1921351000200957,360.40290710004047,360.4029730000184,None,,,,,,,,,,,,,,,,,00036,001,2026-01-23_16h03.45.360,MST_task,2024.2.0,59.913102030762104,2026-01-23 16h04.48.712471 +0530,
,Objects\112a.jpg,52,0,53,,,,,,,f,0.7377030000207014,0.13547679997282103,None,,,,,,53,0,52,360.41898410004796,,,,,,,,,,,,,,,,,,,,,,,360.4033349000383,360.41898410004796,360.90319790004287,,,,,,,,,,,,,,,,,,,,,,,,,,,360.95436960004736,360.95714990003034,360.95714990003034,360.95714990003034,363.92010750004556,f,0.7377030000207014,0.13547679997282103,363.92030520003755,363.92037090001395,None,,,,,,,,,,,,,,,,,00036,001,2026-01-23_16h03.45.360,MST_task,2024.2.0,59.913102030762104,2026-01-23 16h04.48.712471 +0530,
,Objects\050a.jpg,53,0,54,,,,,,,f,0.7923367000184953,0.17643859999952838,None,,,,,,54,0,53,363.9356454000226,,,,,,,,,,,,,,,,,,,,,,,363.92066659999546,363.9356454000226,364.41936110000825,,,,,,,,,,,,364.4455736000091,,,,,,,,,,,,,,,364.4429596000118,364.4455736000091,364.4455736000091,364.4455736000091,367.4357518000179,f,0.7923367000184953,0.17643859999952838,367.4359623999917,367.4360296000377,None,,,,,,,,,,,,,,,,,00036,001,2026-01-23_16h03.45.360,MST_task,2024.2.0,59.913102030762104,2026-01-23 16h04.48.712471 +0530,
,Objects\041a.jpg,54,0,55,,,,,,,None,,,j,0.3098965000244789,None,,,,55,0,54,367.4519786000019,,,,,,,,,,,,,,,,,,,,,,,367.43632450001314,367.4519786000019,367.9358951000031,,,,,,,,,,,,367.9875221000402,,,,,,,,,,,,,,,367.9846369000152,367.9875221000402,367.9875221000402,367.9875221000402,370.9524980999995,None,,,370.9527716000448,371.2861661000061,j,370.9685723000439,370.9685723000439,0.3098965000244789,None,,,,,,,,,,,,,00036,001,2026-01-23_16h03.45.360,MST_task,2024.2.0,59.913102030762104,2026-01-23 16h04.48.712471 +0530,
,Objects\139a.jpg,55,0,56,,,,,,,f,1.470959700003732,0.16817610000725836,None,,,,,,56,0,55,371.3023236000445,,,,,,,,,,,,,,,,,,,,,,,371.2866509000305,371.3023236000445,371.7855806000298,,,,,,,,,,,,371.8235006000032,,,,,,,,,,,,,,,371.8202683000127,371.8235006000032,371.8235006000032,371.8235006000032,374.7867619000026,f,1.470959700003732,0.16817610000725836,374.786961100006,374.7870268000406,None,,,,,,,,,,,,,,,,,00036,001,2026-01-23_16h03.45.360,MST_task,2024.2.0,59.913102030762104,2026-01-23 16h04.48.712471 +0530,
,Scenes\156a.jpg,56,0,57,,,,,,,j,1.7790070999762975,0.11905350000597537,None,,,,,,57,0,56,374.80230630002916,,,,,,,,,,,,,,,,,,,,,,,374.7873193999985,374.80230630002916,375.2855133000412,,,,,,,,,,,,375.3559086000314,,,,,,,,,,,,,,,375.3530057000462,375.3559086000314,375.3559086000314,375.3559086000314,378.30283590004547,j,1.7790070999762975,0.11905350000597537,378.3030384000158,378.3031033000443,None,,,,,,,,,,,,,,,,,00036,001,2026-01-23_16h03.45.360,MST_task,2024.2.0,59.913102030762104,2026-01-23 16h04.48.712471 +0530,
,Scenes\188a.jpg,57,0,58,,,,,,,j,1.0428882999694906,0.1119697000249289,None,,,,,,58,0,57,378.31933780002873,,,,,,,,,,,,,,,,,,,,,,,378.3034725000034,378.31933780002873,378.8026285000378,,,,,,,,,,,,378.85112690000096,,,,,,,,,,,,,,,378.84761210001307,378.85112690000096,378.85112690000096,378.85112690000096,381.8189204999944,j,1.0428882999694906,0.1119697000249289,381.81912020000163,381.81918460002635,None,,,,,,,,,,,,,,,,,00036,001,2026-01-23_16h03.45.360,MST_task,2024.2.0,59.913102030762104,2026-01-23 16h04.48.712471 +0530,
,Scenes\083a.jpg,58,0,59,,,,,,,j,1.0615236000157893,0.14378149999538437,None,,,,,,59,0,58,381.835324899992,,,,,,,,,,,,,,,,,,,,,,,381.81948140001623,381.835324899992,382.31925190001493,,,,,,,,,,,,382.3526717000059,,,,,,,,,,,,,,,382.3495920000132,382.3526717000059,382.3526717000059,382.3526717000059,385.3195066000335,j,1.0615236000157893,0.14378149999538437,385.3197050000308,385.3197718000156,None,,,,,,,,,,,,,,,,,00036,001,2026-01-23_16h03.45.360,MST_task,2024.2.0,59.913102030762104,2026-01-23 16h04.48.712471 +0530,
,Scenes\159a.jpg,59,0,60,,,,,,,j,1.024198199971579,0.21557550004217774,None,,,,,,60,0,59,385.3355341000133,,,,,,,,,,,,,,,,,,,,,,,385.3201371000032,385.3355341000133,385.8189123000484,,,,,,,,,,,,385.85426620004,,,,,,,,,,,,,,,385.851395900012,385.85426620004,385.85426620004,385.85426620004,388.8358852000092,j,1.024198199971579,0.21557550004217774,388.83608280000044,388.83614900003886,None,,,,,,,,,,,,,,,,,00036,001,2026-01-23_16h03.45.360,MST_task,2024.2.0,59.913102030762104,2026-01-23 16h04.48.712471 +0530,
,Scenes\192a.jpg,60,0,61,,,,,,,j,2.1709202000056393,0.1675038999528624,None,,,,,,61,0,60,388.8527002000483,,,,,,,,,,,,,,,,,,,,,,,388.8365157000371,388.8527002000483,389.33596039999975,,,,,,,,,,,,389.37151920003816,,,,,,,,,,,,,,,389.36816120002186,389.37151920003816,389.37151920003816,389.37151920003816,392.33678860001964,j,2.1709202000056393,0.1675038999528624,392.3369880000246,392.3370560000185,None,,,,,,,,,,,,,,,,,00036,001,2026-01-23_16h03.45.360,MST_task,2024.2.0,59.913102030762104,2026-01-23 16h04.48.712471 +0530,
,Scenes\071a.jpg,61,0,62,,,,,,,j,1.8844661000184715,0.19204749999335036,None,,,,,,62,0,61,392.3522980000125,,,,,,,,,,,,,,,,,,,,,,,392.3373450000072,392.3522980000125,392.83605869999155,,,,,,,,,,,,392.8657532000216,,,,,,,,,,,,,,,392.8629788000253,392.8657532000216,392.8657532000216,392.8657532000216,395.85253520001424,j,1.8844661000184715,0.19204749999335036,395.8527379000443,395.8528031000169,None,,,,,,,,,,,,,,,,,00036,001,2026-01-23_16h03.45.360,MST_task,2024.2.0,59.913102030762104,2026-01-23 16h04.48.712471 +0530,
,Scenes\108a.jpg,62,0,63,,,,,,,j,1.2607776999939233,0.16842170001473278,None,,,,,,63,0,62,395.8685577000142,,,,,,,,,,,,,,,,,,,,,,,395.8530923000071,395.8685577000142,396.35272170003736,,,,,,,,,,,,396.40114830003586,,,,,,,,,,,,,,,396.39773359999526,396.40114830003586,396.40114830003586,396.40114830003586,399.36968689999776,j,1.2607776999939233,0.16842170001473278,399.3698849999928,399.36994980002055,None,,,,,,,,,,,,,,,,,00036,001,2026-01-23_16h03.45.360,MST_task,2024.2.0,59.913102030762104,2026-01-23 16h04.48.712471 +0530,
,Objects\107a.jpg,63,0,64,,,,,,,f,2.1033960999920964,0.21678960003191605,None,,,,,,64,0,63,399.3860709000146,,,,,,,,,,,,,,,,,,,,,,,399.3702423000359,399.3860709000146,399.86915780004347,,,,,,,,,,,,399.8943734000204,,,,,,,,,,,,,,,399.8918509000214,399.8943734000204,399.8943734000204,399.8943734000204,402.88609169999836,f,2.1033960999920964,0.21678960003191605,402.88629090000177,402.8863566000364,None,,,,,,,,,,,,,,,,,00036,001,2026-01-23_16h03.45.360,MST_task,2024.2.0,59.913102030762104,2026-01-23 16h04.48.712471 +0530,
,Objects\116a.jpg,64,0,65,,,,,,,j,1.0332760000019334,0.15281630004756153,None,,,,,,65,0,64,402.90270660002716,,,,,,,,,,,,,,,,,,,,,,,402.8867227000301,402.90270660002716,403.38611630001105,,,,,,,,,,,,403.4125425000093,,,,,,,,,,,,,,,403.40951970004244,403.4125425000093,403.4125425000093,403.4125425000093,406.4026741000125,j,1.0332760000019334,0.15281630004756153,406.4028710999992,406.40293770004064,None,,,,,,,,,,,,,,,,,00036,001,2026-01-23_16h03.45.360,MST_task,2024.2.0,59.913102030762104,2026-01-23 16h04.48.712471 +0530,
,Objects\049a.jpg,65,0,66,,,,,,,f,2.0573230999871157,0.19146070000715554,None,,,,,,66,0,65,406.4194037000416,,,,,,,,,,,,,,,,,,,,,,,406.4033124000416,406.4194037000416,406.90288690000307,,,,,,,,,,,,406.9331294000149,,,,,,,,,,,,,,,406.93083530000877,406.9331294000149,406.9331294000149,406.9331294000149,409.91954530001385,f,2.0573230999871157,0.19146070000715554,409.91974119999213,409.91980580001837,None,,,,,,,,,,,,,,,,,00036,001,2026-01-23_16h03.45.360,MST_task,2024.2.0,59.913102030762104,2026-01-23 16h04.48.712471 +0530,
,Objects\019a.jpg,66,0,67,,,,,,,f,1.6295023999991827,0.15211949998047203,None,,,,,,67,0,66,409.9359792000032,,,,,,,,,,,,,,,,,,,,,,,409.92009540001163,409.9359792000032,410.4190111000207,,,,,,,,,,,,410.4485619000043,,,,,,,,,,,,,,,410.4459164,410.4485619000043,410.4485619000043,410.4485619000043,413.4357396000414,f,1.6295023999991827,0.15211949998047203,413.4359360000235,413.43600129999686,None,,,,,,,,,,,,,,,,,00036,001,2026-01-23_16h03.45.360,MST_task,2024.2.0,59.913102030762104,2026-01-23 16h04.48.712471 +0530,
,Objects\160a.jpg,67,0,68,,,,,,,j,2.7508951000054367,0.19212220003828406,None,,,,,,68,0,67,413.45209880004404,,,,,,,,,,,,,,,,,,,,,,,413.43629530002363,413.45209880004404,413.9361883000238,,,,,,,,,,,,413.95903339999495,,,,,,,,,,,,,,,413.95635640004184,413.95903339999495,413.95903339999495,413.95903339999495,416.9526829000097,j,2.7508951000054367,0.19212220003828406,416.9528823000146,416.95294770004693,None,,,,,,,,,,,,,,,,,00036,001,2026-01-23_16h03.45.360,MST_task,2024.2.0,59.913102030762104,2026-01-23 16h04.48.712471 +0530,
,Objects\055a.jpg,68,0,69,,,,,,,f,1.8327713999897242,0.21616010001162067,None,,,,,,69,0,68,416.96867900004145,,,,,,,,,,,,,,,,,,,,,,,416.9532407000079,416.96867900004145,417.4533089000033,,,,,,,,,,,,,,,,,,,,,,,,,,,417.4751586000202,417.47765860002255,417.47765860002255,417.47765860002255,420.4692595000379,f,1.8327713999897242,0.21616010001162067,420.46946550003486,420.46953040000517,None,,,,,,,,,,,,,,,,,00036,001,2026-01-23_16h03.45.360,MST_task,2024.2.0,59.913102030762104,2026-01-23 16h04.48.712471 +0530,
,Objects\099a.jpg,69,0,70,,,,,,,f,0.9197060000151396,0.1757520000101067,None,,,,,,70,0,69,420.48599090002244,,,,,,,,,,,,,,,,,,,,,,,420.46987590001663,420.48599090002244,420.9691194000188,,,,,,,,,,,,420.9907444000128,,,,,,,,,,,,,,,420.98819340002956,420.9907444000128,420.9907444000128,420.9907444000128,423.9859768000315,f,0.9197060000151396,0.1757520000101067,423.98619190003956,423.986247599998,None,,,,,,,,,,,,,,,,,00036,001,2026-01-23_16h03.45.360,MST_task,2024.2.0,59.913102030762104,2026-01-23 16h04.48.712471 +0530,
,Scenes\095a.jpg,70,0,71,,,,,,,j,1.3691533000092022,0.14410320000024512,None,,,,,,71,0,70,424.0023060000385,,,,,,,,,,,,,,,,,,,,,,,423.9865020000143,424.0023060000385,424.4857856000308,,,,,,,,,,,,424.51674049999565,,,,,,,,,,,,,,,424.5140980000142,424.51674049999565,424.51674049999565,424.51674049999565,427.50271339999745,j,1.3691533000092022,0.14410320000024512,427.5029169000336,427.502984700026,None,,,,,,,,,,,,,,,,,00036,001,2026-01-23_16h03.45.360,MST_task,2024.2.0,59.913102030762104,2026-01-23 16h04.48.712471 +0530,
,Scenes\030a.jpg,71,0,72,,,,,,,j,0.975964599987492,0.1446282000397332,None,,,,,,72,0,71,427.5187911000103,,,,,,,,,,,,,,,,,,,,,,,427.5033655000152,427.5187911000103,428.0030757000204,,,,,,,,,,,,428.03764890000457,,,,,,,,,,,,,,,428.034605199995,428.03764890000457,428.03764890000457,428.03764890000457,431.01980950002326,j,0.975964599987492,0.1446282000397332,431.02000800002133,431.02007260004757,None,,,,,,,,,,,,,,,,,00036,001,2026-01-23_16h03.45.360,MST_task,2024.2.0,59.913102030762104,2026-01-23 16h04.48.712471 +0530,
,Scenes\122a.jpg,72,0,73,,,,,,,f,2.0936918999650516,0.1444779000012204,None,,,,,,73,0,72,431.03526239999337,,,,,,,,,,,,,,,,,,,,,,,431.02036240004236,431.03526239999337,431.5197538000066,,,,,,,,,,,,431.5524381000432,,,,,,,,,,,,,,,431.54886840004474,431.5524381000432,431.5524381000432,431.5524381000432,434.5361947999918,f,2.0936918999650516,0.1444779000012204,434.53639290004503,434.53646120004123,None,,,,,,,,,,,,,,,,,00036,001,2026-01-23_16h03.45.360,MST_task,2024.2.0,59.913102030762104,2026-01-23 16h04.48.712471 +0530,
,Scenes\141a.jpg,73,0,74,,,,,,,j,0.8137740999809466,0.13624870002968237,None,,,,,,74,0,73,434.5519811999984,,,,,,,,,,,,,,,,,,,,,,,434.53682850004407,434.5519811999984,435.0358654000447,,,,,,,,,,,,435.06420900003286,,,,,,,,,,,,,,,435.06162440002663,435.06420900003286,435.06420900003286,435.06420900003286,438.05274900002405,j,0.8137740999809466,0.13624870002968237,438.05289420002373,438.0529421000392,None,,,,,,,,,,,,,,,,,00036,001,2026-01-23_16h03.45.360,MST_task,2024.2.0,59.913102030762104,2026-01-23 16h04.48.712471 +0530,
,Scenes\092a.jpg,74,0,75,,,,,,,j,2.1143302000127733,0.12057810003170744,None,,,,,,75,0,74,438.06864360003965,,,,,,,,,,,,,,,,,,,,,,,438.05320670001674,438.06864360003965,438.5524069000385,,,,,,,,,,,,438.5794419000158,,,,,,,,,,,,,,,438.5768283000216,438.5794419000158,438.5794419000158,438.5794419000158,441.5693869999959,j,2.1143302000127733,0.12057810003170744,441.56958820001455,441.56965489999857,None,,,,,,,,,,,,,,,,,00036,001,2026-01-23_16h03.45.360,MST_task,2024.2.0,59.913102030762104,2026-01-23 16h04.48.712471 +0530,
,Scenes\020a.jpg,75,0,76,,,,,,,f,0.9166854999493808,0.19291959999827668,None,,,,,,76,0,75,441.5852651000023,,,,,,,,,,,,,,,,,,,,,,,441.56994810001925,441.5852651000023,442.06959910003934,,,,,,,,,,,,442.1050105000031,,,,,,,,,,,,,,,442.10195050004404,442.1050105000031,442.1050105000031,442.1050105000031,445.0856407000101,f,0.9166854999493808,0.19291959999827668,445.08586859999923,445.0859339000308,None,,,,,,,,,,,,,,,,,00036,001,2026-01-23_16h03.45.360,MST_task,2024.2.0,59.913102030762104,2026-01-23 16h04.48.712471 +0530,
,Scenes\007a.jpg,76,0,77,,,,,,,f,1.2907675000024028,0.14391049998812377,None,,,,,,77,0,76,445.1023180000484,,,,,,,,,,,,,,,,,,,,,,,445.0863698000321,445.1023180000484,445.58615260000806,,,,,,,,,,,,,,,,,,,,,,,,,,,445.6323704000097,445.6355489999987,445.6355489999987,445.6355489999987,448.602658400021,f,1.2907675000024028,0.14391049998812377,448.60285500000464,448.60292070003925,None,,,,,,,,,,,,,,,,,00036,001,2026-01-23_16h03.45.360,MST_task,2024.2.0,59.913102030762104,2026-01-23 16h04.48.712471 +0530,
,Objects\122a.jpg,77,0,78,,,,,,,f,1.4914347000303678,0.17588029999751598,None,,,,,,78,0,77,448.61877649999224,,,,,,,,,,,,,,,,,,,,,,,448.60321250004927,448.61877649999224,449.10178550001,,,,,,,,,,,,449.12271120003425,,,,,,,,,,,,,,,449.12004030001117,449.12271120003425,449.12271120003425,449.12271120003425,452.1190628000186,f,1.4914347000303678,0.17588029999751598,452.1192604000098,452.1193253000383,None,,,,,,,,,,,,,,,,,00036,001,2026-01-23_16h03.45.360,MST_task,2024.2.0,59.913102030762104,2026-01-23 16h04.48.712471 +0530,
,Objects\159a.jpg,78,0,79,,,,,,,f,0.9959471999900416,0.16033789998618886,None,,,,,,79,0,78,452.13565140002174,,,,,,,,,,,,,,,,,,,,,,,452.11961789999623,452.13565140002174,452.61998240003595,,,,,,,,,,,,,,,,,,,,,,,,,,,452.6716652000323,452.67390330001945,452.67390330001945,452.67390330001945,455.63614370004507,f,0.9959471999900416,0.16033789998618886,455.63633670000127,455.63640120002674,None,,,,,,,,,,,,,,,,,00036,001,2026-01-23_16h03.45.360,MST_task,2024.2.0,59.913102030762104,2026-01-23 16h04.48.712471 +0530,
,Objects\121a.jpg,79,0,80,,,,,,,f,2.1829564999789,0.20054970000637695,None,,,,,,80,0,79,455.65214110002853,,,,,,,,,,,,,,,,,,,,,,,455.6367739000125,455.65214110002853,456.1361040000338,,,,,,,,,,,,456.15943010000046,,,,,,,,,,,,,,,456.15684290003264,456.15943010000046,456.15943010000046,456.15943010000046,459.15269060002174,f,2.1829564999789,0.20054970000637695,459.15288589999545,459.1529495000141,None,,,,,,,,,,,,,,,,,00036,001,2026-01-23_16h03.45.360,MST_task,2024.2.0,59.913102030762104,2026-01-23 16h04.48.712471 +0530,
,Objects\152a.jpg,80,0,81,,,,,,,None,,,j,0.6725496000144631,None,,,,81,0,80,459.16890010004863,,,,,,,,,,,,,,,,,,,,,,,459.1532400000142,459.16890010004863,459.65271590003977,,,,,,,,,,,,459.6793669000035,,,,,,,,,,,,,,,459.67685690004146,459.6793669000035,459.6793669000035,459.6793669000035,462.6693402000237,None,,,462.6695209000027,463.36938809999265,j,462.6854038000456,462.6854038000456,0.6725496000144631,None,,,,,,,,,,,,,00036,001,2026-01-23_16h03.45.360,MST_task,2024.2.0,59.913102030762104,2026-01-23 16h04.48.712471 +0530,
,Objects\154a.jpg,81,0,82,,,,,,,f,1.1769228000193834,0.16805869998643175,None,,,,,,82,0,81,463.3855125000118,,,,,,,,,,,,,,,,,,,,,,,463.3698560000048,463.3855125000118,463.86935650004307,,,,,,,,,,,,463.89294000004884,,,,,,,,,,,,,,,463.8906837000395,463.89294000004884,463.89294000004884,463.89294000004884,466.8858376000426,f,1.1769228000193834,0.16805869998643175,466.88603470003,466.8861038000323,None,,,,,,,,,,,,,,,,,00036,001,2026-01-23_16h03.45.360,MST_task,2024.2.0,59.913102030762104,2026-01-23 16h04.48.712471 +0530,
,Objects\138a.jpg,82,0,83,,,,,,,j,2.713943000009749,0.16824029997223988,None,,,,,,83,0,82,466.9023177000345,,,,,,,,,,,,,,,,,,,,,,,466.88646900001913,466.9023177000345,467.3860165000078,,,,,,,,,,,,467.41985320003005,,,,,,,,,,,,,,,467.41656990000047,467.41985320003005,467.41985320003005,467.41985320003005,470.4024909000145,j,2.713943000009749,0.16824029997223988,470.40268800000194,470.40275500004645,None,,,,,,,,,,,,,,,,,00036,001,2026-01-23_16h03.45.360,MST_task,2024.2.0,59.913102030762104,2026-01-23 16h04.48.712471 +0530,
,Objects\053a.jpg,83,0,84,,,,,,,f,1.1682456000125967,0.19223330001113936,None,,,,,,84,0,83,470.41876860003686,,,,,,,,,,,,,,,,,,,,,,,470.4031189000234,470.41876860003686,470.90249780000886,,,,,,,,,,,,470.9335086999927,,,,,,,,,,,,,,,470.9308023999911,470.9335086999927,470.9335086999927,470.9335086999927,473.9036917000194,f,1.1682456000125967,0.19223330001113936,473.90388930001063,473.90395400003763,None,,,,,,,,,,,,,,,,,00036,001,2026-01-23_16h03.45.360,MST_task,2024.2.0,59.913102030762104,2026-01-23 16h04.48.712471 +0530,
,Scenes\054a.jpg,84,0,85,,,,,,,j,0.9749630999867804,0.16817920003086329,None,,,,,,85,0,84,473.9190070000477,,,,,,,,,,,,,,,,,,,,,,,473.9043231999967,473.9190070000477,474.4027200000128,,,,,,,,,,,,474.4393991000252,,,,,,,,,,,,,,,474.43619640002726,474.4393991000252,474.4393991000252,474.4393991000252,477.4194733000477,j,0.9749630999867804,0.16817920003086329,477.4196684000199,477.4197333000484,None,,,,,,,,,,,,,,,,,00036,001,2026-01-23_16h03.45.360,MST_task,2024.2.0,59.913102030762104,2026-01-23 16h04.48.712471 +0530,
,Scenes\033a.jpg,85,0,86,,,,,,,j,0.6921211000299081,0.14437459997134283,None,,,,,,86,0,85,477.4356401000405,,,,,,,,,,,,,,,,,,,,,,,477.42009950004285,477.4356401000405,477.9193234000122,,,,,,,,,,,,477.94573100004345,,,,,,,,,,,,,,,477.94303640001453,477.94573100004345,477.94573100004345,477.94573100004345,480.93605360004585,j,0.6921211000299081,0.14437459997134283,480.9362531999941,480.936319200031,None,,,,,,,,,,,,,,,,,00036,001,2026-01-23_16h03.45.360,MST_task,2024.2.0,59.913102030762104,2026-01-23 16h04.48.712471 +0530,
,Scenes\096a.jpg,86,0,87,,,,,,,j,1.2771045999834314,0.17683090001810342,None,,,,,,87,0,86,480.9523261000286,,,,,,,,,,,,,,,,,,,,,,,480.9366111000418,480.9523261000286,481.435950700019,,,,,,,,,,,,481.46466640004655,,,,,,,,,,,,,,,481.46097260003444,481.46466640004655,481.46466640004655,481.46466640004655,484.45275180001045,j,1.2771045999834314,0.17683090001810342,484.45294950000243,484.4530158000416,None,,,,,,,,,,,,,,,,,00036,001,2026-01-23_16h03.45.360,MST_task,2024.2.0,59.913102030762104,2026-01-23 16h04.48.712471 +0530,
,Scenes\136a.jpg,87,0,88,,,,,,,j,0.8606903000036255,0.15290310001000762,None,,,,,,88,0,87,484.46892060001846,,,,,,,,,,,,,,,,,,,,,,,484.4533839999931,484.46892060001846,484.95255440002074,,,,,,,,,,,,484.9769703000202,,,,,,,,,,,,,,,484.97427270002663,484.9769703000202,484.9769703000202,484.9769703000202,487.9700067000231,j,0.8606903000036255,0.15290310001000762,487.970255799999,487.9703235999914,None,,,,,,,,,,,,,,,,,00036,001,2026-01-23_16h03.45.360,MST_task,2024.2.0,59.913102030762104,2026-01-23 16h04.48.712471 +0530,
,Scenes\100a.jpg,88,0,89,,,,,,,j,1.1495756999938749,0.15218540001660585,None,,,,,,89,0,88,487.9856992000132,,,,,,,,,,,,,,,,,,,,,,,487.9707016000175,487.9856992000132,488.46932190004736,,,,,,,,,,,,488.50412600004347,,,,,,,,,,,,,,,488.501233100018,488.50412600004347,488.50412600004347,488.50412600004347,491.4859377000248,j,1.1495756999938749,0.15218540001660585,491.4861465000431,491.4862125000218,None,,,,,,,,,,,,,,,,,00036,001,2026-01-23_16h03.45.360,MST_task,2024.2.0,59.913102030762104,2026-01-23 16h04.48.712471 +0530,
,Scenes\103a.jpg,89,0,90,,,,,,,j,1.5007655000081286,0.10345629998482764,None,,,,,,90,0,89,491.50217230001,,,,,,,,,,,,,,,,,,,,,,,491.4865894000395,491.50217230001,491.9860604000278,,,,,,,,,,,,492.0176322000334,,,,,,,,,,,,,,,492.014785700012,492.0176322000334,492.0176322000334,492.0176322000334,495.00246240000706,j,1.5007655000081286,0.10345629998482764,495.0026519999956,495.0026895000483,None,,,,,,,,,,,,,,,,,00036,001,2026-01-23_16h03.45.360,MST_task,2024.2.0,59.913102030762104,2026-01-23 16h04.48.712471 +0530,
,Scenes\161a.jpg,90,0,91,,,,,,,j,0.8136139000416733,0.1198681999812834,None,,,,,,91,0,90,495.0186667999951,,,,,,,,,,,,,,,,,,,,,,,495.0028912000125,495.0186667999951,495.5025653000339,,,,,,,,,,,,495.53676770004677,,,,,,,,,,,,,,,495.5338657000102,495.53676770004677,495.53676770004677,495.53676770004677,498.5031885000062,j,0.8136139000416733,0.1198681999812834,498.5033875000081,498.5034608000424,None,,,,,,,,,,,,,,,,,00036,001,2026-01-23_16h03.45.360,MST_task,2024.2.0,59.913102030762104,2026-01-23 16h04.48.712471 +0530,
,Objects\098a.jpg,91,0,92,,,,,,,f,1.212020900042262,0.12040249997517094,None,,,,,,92,0,91,498.51875500002643,,,,,,,,,,,,,,,,,,,,,,,498.5038460000069,498.51875500002643,499.00269660004415,,,,,,,,,,,,499.0261220000102,,,,,,,,,,,,,,,499.0232773000025,499.0261220000102,499.0261220000102,499.0261220000102,502.0192852000473,f,1.212020900042262,0.12040249997517094,502.01948070002254,502.01954430004116,None,,,,,,,,,,,,,,,,,00036,001,2026-01-23_16h03.45.360,MST_task,2024.2.0,59.913102030762104,2026-01-23 16h04.48.712471 +0530,
,Objects\184a.jpg,92,0,93,,,,,,,f,1.6151054999791086,0.16843939997488633,None,,,,,,93,0,92,502.03564820002066,,,,,,,,,,,,,,,,,,,,,,,502.0199181000353,502.03564820002066,502.5193129000254,,,,,,,,,,,,502.5426858999999,,,,,,,,,,,,,,,502.54029190004803,502.5426858999999,502.5426858999999,502.5426858999999,505.5361111999955,f,1.6151054999791086,0.16843939997488633,505.53631310001947,505.5363795000012,None,,,,,,,,,,,,,,,,,00036,001,2026-01-23_16h03.45.360,MST_task,2024.2.0,59.913102030762104,2026-01-23 16h04.48.712471 +0530,
,Objects\097a.jpg,93,0,94,,,,,,,j,0.8841967000043951,0.18362100003287196,None,,,,,,94,0,93,505.5521553000435,,,,,,,,,,,,,,,,,,,,,,,505.5367412000196,505.5521553000435,506.0358303000103,,,,,,,,,,,,506.05816570000025,,,,,,,,,,,,,,,506.0553716000286,506.05816570000025,506.05816570000025,506.05816570000025,509.03680210001767,j,0.8841967000043951,0.18362100003287196,509.0369764000061,509.0370325000258,None,,,,,,,,,,,,,,,,,00036,001,2026-01-23_16h03.45.360,MST_task,2024.2.0,59.913102030762104,2026-01-23 16h04.48.712471 +0530,
,Objects\166a.jpg,94,0,95,,,,,,,f,1.516093899961561,0.16834259999450296,None,,,,,,95,0,94,509.0523183000041,,,,,,,,,,,,,,,,,,,,,,,509.03728180000326,509.0523183000041,509.5361669000122,,,,,,,,,,,,509.5939406999969,,,,,,,,,,,,,,,509.59105680003995,509.5939406999969,509.5939406999969,509.5939406999969,512.5528944000253,f,1.516093899961561,0.16834259999450296,512.5531003000215,512.5531671000062,None,,,,,,,,,,,,,,,,,00036,001,2026-01-23_16h03.45.360,MST_task,2024.2.0,59.913102030762104,2026-01-23 16h04.48.712471 +0530,
,Objects\117a.jpg,95,0,96,,,,,,,f,2.8730908999568783,None,None,,,,,,96,0,95,512.5690139000071,,,,,,,,,,,,,,,,,,,,,,,512.5535411000019,512.5690139000071,513.0527568000252,,,,,,,,,,,,513.0772706000134,,,,,,,,,,,,,,,513.0744959000149,513.0772706000134,513.0772706000134,513.0772706000134,516.0695604000357,f,2.8730908999568783,None,516.0697574000224,516.0698239000048,None,,,,,,,,,,,,,,,,,00036,001,2026-01-23_16h03.45.360,MST_task,2024.2.0,59.913102030762104,2026-01-23 16h04.48.712471 +0530,
,Objects\185a.jpg,96,0,97,,,,,,,f,2.91328480001539,None,None,,,,,,97,0,96,516.0854165000492,,,,,,,,,,,,,,,,,,,,,,,516.0701132999966,516.0854165000492,516.5693872999982,,,,,,,,,,,,516.6044549000217,,,,,,,,,,,,,,,516.6021749000065,516.6044549000217,516.6044549000217,516.6044549000217,519.5860236000153,f,2.91328480001539,None,519.5862387000234,519.5863104000455,None,,,,,,,,,,,,,,,,,00036,001,2026-01-23_16h03.45.360,MST_task,2024.2.0,59.913102030762104,2026-01-23 16h04.48.712471 +0530,
,Objects\022a.jpg,97,0,98,,,,,,,f,1.3003218999947421,0.17676220001885667,None,,,,,,98,0,97,519.602899599995,,,,,,,,,,,,,,,,,,,,,,,519.5867059000302,519.602899599995,520.0859875000315,,,,,,,,,,,,520.1134174000472,,,,,,,,,,,,,,,520.110451799992,520.1134174000472,520.1134174000472,520.1134174000472,523.1031087000156,f,1.3003218999947421,0.17676220001885667,523.1033727000467,523.1034394000308,None,,,,,,,,,,,,,,,,,00036,001,2026-01-23_16h03.45.360,MST_task,2024.2.0,59.913102030762104,2026-01-23 16h04.48.712471 +0530,
,Scenes\052a.jpg,98,0,99,,,,,,,j,1.415202300006058,0.13537239999277517,None,,,,,,99,0,98,523.1190609000041,,,,,,,,,,,,,,,,,,,,,,,523.1037442000234,523.1190609000041,523.6027429000242,,,,,,,,,,,,523.631560400012,,,,,,,,,,,,,,,523.6289229000104,523.631560400012,523.631560400012,523.631560400012,526.6194831000175,j,1.415202300006058,0.13537239999277517,526.6197126000188,526.6197772000451,None,,,,,,,,,,,,,,,,,00036,001,2026-01-23_16h03.45.360,MST_task,2024.2.0,59.913102030762104,2026-01-23 16h04.48.712471 +0530,
,Scenes\006a.jpg,99,0,100,,,,,,,None,,,j,0.23796659999061376,None,,,,100,0,99,526.6358417000156,,,,,,,,,,,,,,,,,,,,,,,526.6200713000144,526.6358417000156,527.1194014000357,,,,,,,,,,,,527.1502645,,,,,,,,,,,,,,,527.1476190999965,527.1502645,527.1502645,527.1502645,530.1358948000125,None,,,530.136086500017,530.402863299998,j,530.1523711000336,530.1523711000336,0.23796659999061376,None,,,,,,,,,,,,,00036,001,2026-01-23_16h03.45.360,MST_task,2024.2.0,59.913102030762104,2026-01-23 16h04.48.712471 +0530,
,Scenes\169a.jpg,100,0,101,,,,,,,j,0.748322699975688,0.0960149000165984,None,,,,,,101,0,100,530.418845200038,,,,,,,,,,,,,,,,,,,,,,,530.4032051000395,530.418845200038,530.902495300048,,,,,,,,,,,,530.9300482000108,,,,,,,,,,,,,,,530.9277027000207,530.9300482000108,530.9300482000108,530.9300482000108,533.9191108000232,j,0.748322699975688,0.0960149000165984,533.9193121000426,533.9193800000357,None,,,,,,,,,,,,,,,,,00036,001,2026-01-23_16h03.45.360,MST_task,2024.2.0,59.913102030762104,2026-01-23 16h04.48.712471 +0530,
,Scenes\066a.jpg,101,0,102,,,,,,,j,1.4477181999827735,0.1518060999806039,None,,,,,,102,0,101,533.9356140000164,,,,,,,,,,,,,,,,,,,,,,,533.9196715000435,533.9356140000164,534.4191678999923,,,,,,,,,,,,534.4706794000231,,,,,,,,,,,,,,,534.467587799998,534.4706794000231,534.4706794000231,534.4706794000231,537.435815200035,j,1.4477181999827735,0.1518060999806039,537.4360339000123,537.4360999999917,None,,,,,,,,,,,,,,,,,00036,001,2026-01-23_16h03.45.360,MST_task,2024.2.0,59.913102030762104,2026-01-23 16h04.48.712471 +0530,
,Scenes\173a.jpg,102,0,103,,,,,,,j,1.0814860999817029,0.12083500000881031,None,,,,,,103,0,102,537.4522632000153,,,,,,,,,,,,,,,,,,,,,,,537.436477500014,537.4522632000153,537.936450600042,,,,,,,,,,,,,,,,,,,,,,,,,,,537.9616297000321,537.9642287000315,537.9642287000315,537.9642287000315,540.9528023000457,j,1.0814860999817029,0.12083500000881031,540.9529980000225,540.9530657000141,None,,,,,,,,,,,,,,,,,00036,001,2026-01-23_16h03.45.360,MST_task,2024.2.0,59.913102030762104,2026-01-23 16h04.48.712471 +0530,
,Scenes\166a.jpg,103,0,104,,,,,,,j,0.759363699995447,0.12085069995373487,None,,,,,,104,0,103,540.9689923000406,,,,,,,,,,,,,,,,,,,,,,,540.9533578000264,540.9689923000406,541.4527057000087,,,,,,,,,,,,541.4942909000092,,,,,,,,,,,,,,,541.4915017000167,541.4942909000092,541.4942909000092,541.4942909000092,544.4694515000447,j,0.759363699995447,0.12085069995373487,544.4696527000051,544.4697164000245,None,,,,,,,,,,,,,,,,,00036,001,2026-01-23_16h03.45.360,MST_task,2024.2.0,59.913102030762104,2026-01-23 16h04.48.712471 +0530,
,Scenes\043a.jpg,104,0,105,,,,,,,j,0.7840472999960184,0.1520732000353746,None,,,,,,105,0,104,544.485639200022,,,,,,,,,,,,,,,,,,,,,,,544.470010399993,544.485639200022,544.9693975000409,,,,,,,,,,,,545.005779500003,,,,,,,,,,,,,,,545.0028053999995,545.005779500003,545.005779500003,545.005779500003,547.9858889000025,j,0.7840472999960184,0.1520732000353746,547.9861013000482,547.9861667000223,None,,,,,,,,,,,,,,,,,00036,001,2026-01-23_16h03.45.360,MST_task,2024.2.0,59.913102030762104,2026-01-23 16h04.48.712471 +0530,
,Objects\066a.jpg,105,0,106,,,,,,,j,1.3432513000443578,0.13613579998491332,None,,,,,,106,0,105,548.0022695999942,,,,,,,,,,,,,,,,,,,,,,,547.9866003000061,548.0022695999942,548.4861322999932,,,,,,,,,,,,548.5104024000466,,,,,,,,,,,,,,,548.5075697000138,548.5104024000466,548.5104024000466,548.5104024000466,551.4864413000178,j,1.3432513000443578,0.13613579998491332,551.4866380000021,551.4867013000185,None,,,,,,,,,,,,,,,,,00036,001,2026-01-23_16h03.45.360,MST_task,2024.2.0,59.913102030762104,2026-01-23 16h04.48.712471 +0530,
,Objects\133a.jpg,106,0,107,,,,,,,f,1.9432909000315703,0.16885590000310913,None,,,,,,107,0,106,551.5022601000383,,,,,,,,,,,,,,,,,,,,,,,551.4869930000277,551.5022601000383,551.9859065000201,,,,,,,,,,,,552.0070534000406,,,,,,,,,,,,,,,552.0047369000386,552.0070534000406,552.0070534000406,552.0070534000406,555.0023925999994,f,1.9432909000315703,0.16885590000310913,555.0025932000135,555.0026601999998,None,,,,,,,,,,,,,,,,,00036,001,2026-01-23_16h03.45.360,MST_task,2024.2.0,59.913102030762104,2026-01-23 16h04.48.712471 +0530,
,Objects\031a.jpg,107,0,108,,,,,,,f,1.09125800000038,0.16083059995435178,None,,,,,,108,0,107,555.018686800031,,,,,,,,,,,,,,,,,,,,,,,555.0029550000327,555.018686800031,555.5027063000016,,,,,,,,,,,,555.5303767000441,,,,,,,,,,,,,,,555.5275302000227,555.5303767000441,555.5303767000441,555.5303767000441,558.5195053000352,f,1.09125800000038,0.16083059995435178,558.5197013000143,558.5197685000021,None,,,,,,,,,,,,,,,,,00036,001,2026-01-23_16h03.45.360,MST_task,2024.2.0,59.913102030762104,2026-01-23 16h04.48.712471 +0530,
,Objects\033a.jpg,108,0,109,,,,,,,f,0.7218810999765992,0.12760000000707805,None,,,,,,109,0,108,558.5356602999964,,,,,,,,,,,,,,,,,,,,,,,558.520205400011,558.5356602999964,559.0192986000329,,,,,,,,,,,,559.0364677000325,,,,,,,,,,,,,,,559.0339220000315,559.0364677000325,559.0364677000325,559.0364677000325,562.0199374000076,f,0.7218810999765992,0.12760000000707805,562.0200479000341,562.0200814999989,None,,,,,562.035609100014,562.035609100014,562.035609100014,,,,,,,,,,00036,001,2026-01-23_16h03.45.360,MST_task,2024.2.0,59.913102030762104,2026-01-23 16h04.48.712471 +0530,
,Objects\149a.jpg,109,0,110,,,,,,,f,0.7756999999983236,0.13650020002387464,None,,,,,,110,0,109,562.035609100014,,,,,,,,,,,,,,,,,,,,,,,562.0202417999972,562.035609100014,562.5193318999954,,,,,,,,,,,,562.5419004000141,,,,,,,,,,,,,,,562.5390165999997,562.5419004000141,562.5419004000141,562.5419004000141,565.5359876000439,f,0.7756999999983236,0.13650020002387464,565.5361857000389,565.5362525000237,None,,,,,,,,,,,,,,,,,00036,001,2026-01-23_16h03.45.360,MST_task,2024.2.0,59.913102030762104,2026-01-23 16h04.48.712471 +0530,
,Objects\091a.jpg,110,0,111,,,,,,,f,2.6838428000337444,0.1681024999707006,None,,,,,,111,0,110,565.5522576000076,,,,,,,,,,,,,,,,,,,,,,,565.5366788000101,565.5522576000076,566.0358370000031,,,,,,,,,,,,566.0578763000085,,,,,,,,,,,,,,,566.0551094000111,566.0578763000085,566.0578763000085,566.0578763000085,569.0526747000404,f,2.6838428000337444,0.1681024999707006,569.0528737000423,569.0529388000141,None,,,,,,,,,,,,,,,,,00036,001,2026-01-23_16h03.45.360,MST_task,2024.2.0,59.913102030762104,2026-01-23 16h04.48.712471 +0530,
,Objects\093a.jpg,111,0,112,,,,,,,j,1.564793199999258,0.1515021999948658,None,,,,,,112,0,111,569.0697545000003,,,,,,,,,,,,,,,,,,,,,,,569.0533642999944,569.0697545000003,569.5526763999951,,,,,,,,,,,,569.5775260000373,,,,,,,,,,,,,,,569.5747311000014,569.5775260000373,569.5775260000373,569.5775260000373,572.5694206000189,j,1.564793199999258,0.1515021999948658,572.5696119000204,572.5696771999937,None,,,,,,,,,,,,,,,,,00036,001,2026-01-23_16h03.45.360,MST_task,2024.2.0,59.913102030762104,2026-01-23 16h04.48.712471 +0530,
,Scenes\155a.jpg,112,0,113,,,,,,,j,1.8550079999840818,0.12036790000274777,None,,,,,,113,0,112,572.5860653000418,,,,,,,,,,,,,,,,,,,,,,,572.5699698000099,572.5860653000418,573.0700110000325,,,,,,,,,,,,,,,,,,,,,,,,,,,573.1001880000113,573.1028138000402,573.1028138000402,573.1028138000402,576.0860946000321,j,1.8550079999840818,0.12036790000274777,576.0862920000218,576.0863572999951,None,,,,,,,,,,,,,,,,,00036,001,2026-01-23_16h03.45.360,MST_task,2024.2.0,59.913102030762104,2026-01-23 16h04.48.712471 +0530,
,Scenes\031a.jpg,113,0,114,,,,,,,None,,,f,0.0187838000128977,None,,,,114,0,113,576.1024159000372,,,,,,,,,,,,,,,,,,,,,,,576.0867198000196,576.1024159000372,576.5861909000087,,,,,,,,,,,,576.6237097000121,,,,,,,,,,,,,,,576.620609900041,576.6237097000121,576.6237097000121,576.6237097000121,579.6027113000164,None,,,579.6028910000459,579.6526620000368,f,579.6188483000151,579.6188483000151,0.0187838000128977,None,,,,,,,,,,,,,00036,001,2026-01-23_16h03.45.360,MST_task,2024.2.0,59.913102030762104,2026-01-23 16h04.48.712471 +0530,
,Scenes\070a.jpg,114,0,115,,,,,,,j,1.6608760000090115,0.17573780001839623,None,,,,,,115,0,114,579.6689981000382,,,,,,,,,,,,,,,,,,,,,,,579.6531117000268,579.6689981000382,580.1528159000445,,,,,,,,,,,,580.1854416000424,,,,,,,,,,,,,,,580.1824524000403,580.1854416000424,580.1854416000424,580.1854416000424,583.1694260000368,j,1.6608760000090115,0.17573780001839623,583.16963020002,583.1696978000109,None,,,,,,,,,,,,,,,,,00036,001,2026-01-23_16h03.45.360,MST_task,2024.2.0,59.913102030762104,2026-01-23 16h04.48.712471 +0530,
,Scenes\074a.jpg,115,0,116,,,,,,,j,1.3872683999943547,0.1440574000007473,None,,,,,,116,0,115,583.1856602000189,,,,,,,,,,,,,,,,,,,,,,,583.1700768000446,583.1856602000189,583.669725600048,,,,,,,,,,,,583.6986524999957,,,,,,,,,,,,,,,583.6962495000334,583.6986524999957,583.6986524999957,583.6986524999957,586.686073800025,j,1.3872683999943547,0.1440574000007473,586.6862607999938,586.6863206000417,None,,,,,,,,,,,,,,,,,00036,001,2026-01-23_16h03.45.360,MST_task,2024.2.0,59.913102030762104,2026-01-23 16h04.48.712471 +0530,
,Scenes\149a.jpg,116,0,117,,,,,,,f,2.494080100033898,0.12074579996988177,None,,,,,,117,0,116,586.7022871000227,,,,,,,,,,,,,,,,,,,,,,,586.6866605000105,586.7022871000227,587.1861080999952,,,,,,,,,,,,587.2316253000172,,,,,,,,,,,,,,,587.2291118000285,587.2316253000172,587.2316253000172,587.2316253000172,590.2025067000068,f,2.494080100033898,0.12074579996988177,590.2027052000049,590.2027727999957,None,,,,,,,,,,,,,,,,,00036,001,2026-01-23_16h03.45.360,MST_task,2024.2.0,59.913102030762104,2026-01-23 16h04.48.712471 +0530,
,Scenes\079a.jpg,117,0,118,,,,,,,j,1.1077029000152834,0.13681109994649887,None,,,,,,118,0,117,590.2190291000297,,,,,,,,,,,,,,,,,,,,,,,590.2030669000233,590.2190291000297,590.7024350000429,,,,,,,,,,,,590.7301039000158,,,,,,,,,,,,,,,590.7273335999926,590.7301039000158,590.7301039000158,590.7301039000158,593.7195730000385,j,1.1077029000152834,0.13681109994649887,593.7197864000336,593.7198536000215,None,,,,,,,,,,,,,,,,,00036,001,2026-01-23_16h03.45.360,MST_task,2024.2.0,59.913102030762104,2026-01-23 16h04.48.712471 +0530,
,Scenes\060a.jpg,118,0,119,,,,,,,j,1.9211788999964483,0.18404140003258362,None,,,,,,119,0,118,593.7356665999978,,,,,,,,,,,,,,,,,,,,,,,593.7202435000218,593.7356665999978,594.2191224000417,,,,,,,,,,,,594.308796700032,,,,,,,,,,,,,,,594.3058943999931,594.308796700032,594.308796700032,594.308796700032,597.2364326000097,j,1.9211788999964483,0.18404140003258362,597.2366250000196,597.236691500002,None,,,,,,,,,,,,,,,,,00036,001,2026-01-23_16h03.45.360,MST_task,2024.2.0,59.913102030762104,2026-01-23 16h04.48.712471 +0530,
,Objects\148a.jpg,119,0,120,,,,,,,f,2.5431250000256114,0.1440326999872923,None,,,,,,120,0,119,597.2523051000317,,,,,,,,,,,,,,,,,,,,,,,597.2370565000456,597.2523051000317,597.7368305000127,,,,,,,,,,,,597.7585835999926,,,,,,,,,,,,,,,597.7559084999957,597.7585835999926,597.7585835999926,597.7585835999926,600.7526757000014,f,2.5431250000256114,0.1440326999872923,600.7528700000257,600.7529359000036,None,,,,,,,,,,,,,,,,,00036,001,2026-01-23_16h03.45.360,MST_task,2024.2.0,59.913102030762104,2026-01-23 16h04.48.712471 +0530,
,Objects\110a.jpg,120,0,121,,,,,,,f,0.7819730999763124,0.17612120002740994,None,,,,,,121,0,120,600.7689966000034,,,,,,,,,,,,,,,,,,,,,,,600.7532293000259,600.7689966000034,601.25265520002,,,,,,,,,,,,601.2956906000036,,,,,,,,,,,,,,,601.2928315000026,601.2956906000036,601.2956906000036,601.2956906000036,604.2690927000367,f,0.7819730999763124,0.17612120002740994,604.2692893000203,604.2693545999937,None,,,,,,,,,,,,,,,,,00036,001,2026-01-23_16h03.45.360,MST_task,2024.2.0,59.913102030762104,2026-01-23 16h04.48.712471 +0530,
,Objects\090a.jpg,121,0,122,,,,,,,j,1.3334838000009768,0.16012710001086816,None,,,,,,122,0,121,604.2856658000383,,,,,,,,,,,,,,,,,,,,,,,604.2696448999923,604.2856658000383,604.769607299997,,,,,,,,,,,,,,,,,,,,,,,,,,,604.7893987999996,604.7922191999969,604.7922191999969,604.7922191999969,607.786065799999,j,1.3334838000009768,0.16012710001086816,607.7862634000485,607.7863264000043,None,,,,,,,,,,,,,,,,,00036,001,2026-01-23_16h03.45.360,MST_task,2024.2.0,59.913102030762104,2026-01-23 16h04.48.712471 +0530,
,Objects\056a.jpg,122,0,123,,,,,,,None,,,f,0.255039100011345,None,,,,123,0,122,607.8023171999957,,,,,,,,,,,,,,,,,,,,,,,607.7866199000273,607.8023171999957,608.2867339000222,,,,,,,,,,,,,,,,,,,,,,,,,,,608.3108074000338,608.3136378999916,608.3136378999916,608.3136378999916,611.302896600042,None,,,611.3030906000058,611.586015000008,f,611.3186553000123,611.3186553000123,0.255039100011345,None,,,,,,,,,,,,,00036,001,2026-01-23_16h03.45.360,MST_task,2024.2.0,59.913102030762104,2026-01-23 16h04.48.712471 +0530,
,Objects\136a.jpg,123,0,124,,,,,,,f,2.0986462000291795,0.16831419995287433,None,,,,,,124,0,123,611.6019992000074,,,,,,,,,,,,,,,,,,,,,,,611.5863535000244,611.6019992000074,612.0860718000331,,,,,,,,,,,,612.1069472000236,,,,,,,,,,,,,,,612.1045817999984,612.1069472000236,612.1069472000236,612.1069472000236,615.1025408999994,f,2.0986462000291795,0.16831419995287433,615.1027569000144,615.1028252000106,None,,,,,,,,,,,,,,,,,00036,001,2026-01-23_16h03.45.360,MST_task,2024.2.0,59.913102030762104,2026-01-23 16h04.48.712471 +0530,
,Objects\146a.jpg,124,0,125,,,,,,,j,1.0525674999807961,0.12783540005329996,None,,,,,,125,0,124,615.1197771000443,,,,,,,,,,,,,,,,,,,,,,,615.1031972000492,615.1197771000443,615.6026641000062,,,,,,,,,,,,615.62534160004,,,,,,,,,,,,,,,615.6225139000453,615.62534160004,615.62534160004,615.62534160004,618.6189468000084,j,1.0525674999807961,0.12783540005329996,618.6191266000387,618.6191876000375,None,,,,,,,,,,,,,,,,,00036,001,2026-01-23_16h03.45.360,MST_task,2024.2.0,59.913102030762104,2026-01-23 16h04.48.712471 +0530,
,Objects\020a.jpg,125,0,126,,,,,,,None,,,f,0.14152539998758584,None,,,,126,0,125,618.6352143000113,,,,,,,,,,,,,,,,,,,,,,,618.6193850000273,618.6352143000113,619.119411599997,,,,,,,,,,,,619.1420535999932,,,,,,,,,,,,,,,619.1391979000182,619.1420535999932,619.1420535999932,619.1420535999932,622.1361221999978,None,,,622.1363118000445,622.3028378000017,f,622.1522732000449,622.1522732000449,0.14152539998758584,None,,,,,,,,,,,,,00036,001,2026-01-23_16h03.45.360,MST_task,2024.2.0,59.913102030762104,2026-01-23 16h04.48.712471 +0530,
,Scenes\170a.jpg,126,0,127,,,,,,,j,1.7211576999980025,0.17629540001507849,None,,,,,,127,0,126,622.3193582000094,,,,,,,,,,,,,,,,,,,,,,,622.3033163000364,622.3193582000094,622.8026559000136,,,,,,,,,,,,622.8364480000455,,,,,,,,,,,,,,,622.8327919000294,622.8364480000455,622.8364480000455,622.8364480000455,625.8194157000398,j,1.7211576999980025,0.17629540001507849,625.8196155000478,625.8196824000333,None,,,,,,,,,,,,,,,,,00036,001,2026-01-23_16h03.45.360,MST_task,2024.2.0,59.913102030762104,2026-01-23 16h04.48.712471 +0530,
,Scenes\072a.jpg,127,0,128,,,,,,,j,1.0065324999741279,0.13657919998513535,None,,,,,,128,0,127,625.8355227000429,,,,,,,,,,,,,,,,,,,,,,,625.8199742000434,625.8355227000429,626.3193721999996,,,,,,,,,,,,626.3677489000256,,,,,,,,,,,,,,,626.3649708000012,626.3677489000256,626.3677489000256,626.3677489000256,629.3362320000306,j,1.0065324999741279,0.13657919998513535,629.3364507000078,629.3365176999941,None,,,,,,,,,,,,,,,,,00036,001,2026-01-23_16h03.45.360,MST_task,2024.2.0,59.913102030762104,2026-01-23 16h04.48.712471 +0530,
,Scenes\037a.jpg,128,0,129,,,,,,,j,0.923458400007803,0.14402339997468516,None,,,,,,129,0,128,629.3523797999951,,,,,,,,,,,,,,,,,,,,,,,629.3369085000013,629.3523797999951,629.8361084000207,,,,,,,,,,,,629.8588361000293,,,,,,,,,,,,,,,629.8558521000086,629.8588361000293,629.8588361000293,629.8588361000293,632.8524388000369,j,0.923458400007803,0.14402339997468516,632.852643900027,632.8527109000133,None,,,,,,,,,,,,,,,,,00036,001,2026-01-23_16h03.45.360,MST_task,2024.2.0,59.913102030762104,2026-01-23 16h04.48.712471 +0530,
,Scenes\114a.jpg,129,0,130,,,,,,,f,1.8695880000013858,0.1434315000078641,None,,,,,,130,0,129,632.8693492000457,,,,,,,,,,,,,,,,,,,,,,,632.853012000036,632.8693492000457,633.3524289000197,,,,,,,,,,,,633.3926869000425,,,,,,,,,,,,,,,633.3895542999962,633.3926869000425,633.3926869000425,633.3926869000425,636.3529380999971,f,1.8695880000013858,0.1434315000078641,636.3531420000363,636.3532067000051,None,,,,,,,,,,,,,,,,,00036,001,2026-01-23_16h03.45.360,MST_task,2024.2.0,59.913102030762104,2026-01-23 16h04.48.712471 +0530,
,Scenes\184a.jpg,130,0,131,,,,,,,j,0.9668588999775238,0.13559070002520457,None,,,,,,131,0,130,636.3686377000413,,,,,,,,,,,,,,,,,,,,,,,636.3535743000102,636.3686377000413,636.8527384000481,,,,,,,,,,,,636.9032145999954,,,,,,,,,,,,,,,636.8999439000036,636.9032145999954,636.9032145999954,636.9032145999954,639.8691565000336,j,0.9668588999775238,0.13559070002520457,639.8693524000118,639.8694176000427,None,,,,,,,,,,,,,,,,,00036,001,2026-01-23_16h03.45.360,MST_task,2024.2.0,59.913102030762104,2026-01-23 16h04.48.712471 +0530,
,Scenes\019a.jpg,131,0,132,,,,,,,j,2.2894041999825276,0.08837980002863333,None,,,,,,132,0,131,639.8860100000165,,,,,,,,,,,,,,,,,,,,,,,639.8697083000443,639.8860100000165,640.3694102000445,,,,,,,,,,,,640.4043257000158,,,,,,,,,,,,,,,640.4012243000325,640.4043257000158,640.4043257000158,640.4043257000158,643.3856536000385,j,2.2894041999825276,0.08837980002863333,643.3858513000305,643.3859149000491,None,,,,,,,,,,,,,,,,,00036,001,2026-01-23_16h03.45.360,MST_task,2024.2.0,59.913102030762104,2026-01-23 16h04.48.712471 +0530,
,Scenes\009a.jpg,132,0,133,,,,,,,f,2.8934767000027932,None,None,,,,,,133,0,132,643.4023350999923,,,,,,,,,,,,,,,,,,,,,,,643.3862102000276,643.4023350999923,643.8861355000408,,,,,,,,,,,,,,,,,,,,,,,,,,,643.9422375000431,643.9452350999927,643.9452350999927,643.9452350999927,646.8860772000044,f,2.8934767000027932,None,646.8862998000113,646.8863657000475,None,,,,,,,,,,,,,,,,,00036,001,2026-01-23_16h03.45.360,MST_task,2024.2.0,59.913102030762104,2026-01-23 16h04.48.712471 +0530,
,Objects\036a.jpg,133,0,134,,,,,,,f,1.7546633000019938,0.1999540999531746,None,,,,,,134,0,133,646.9022783000255,,,,,,,,,,,,,,,,,,,,,,,646.886659700016,646.9022783000255,647.3859262000187,,,,,,,,,,,,647.4114324999973,,,,,,,,,,,,,,,647.408547500032,647.4114324999973,647.4114324999973,647.4114324999973,650.4024724000483,f,1.7546633000019938,0.1999540999531746,650.4026892000111,650.4027534000343,None,,,,,,,,,,,,,,,,,00036,001,2026-01-23_16h03.45.360,MST_task,2024.2.0,59.913102030762104,2026-01-23 16h04.48.712471 +0530,
,Objects\011a.jpg,134,0,135,,,,,,,None,,,f,1.4542728000087664,None,,,,135,0,134,650.4188757000375,,,,,,,,,,,,,,,,,,,,,,,650.403051500034,650.4188757000375,650.9026709000464,,,,,,,,,,,,650.9440203999984,,,,,,,,,,,,,,,650.9409589000279,650.9440203999984,650.9440203999984,650.9440203999984,653.9194780000253,None,,,653.9197146000224,655.4026327000465,f,653.9359604000347,653.9359604000347,1.4542728000087664,None,,,,,,,,,,,,,00036,001,2026-01-23_16h03.45.360,MST_task,2024.2.0,59.913102030762104,2026-01-23 16h04.48.712471 +0530,
,Objects\028a.jpg,135,0,136,,,,,,,f,1.7678210000158288,0.12024090002523735,None,,,,,,136,0,135,655.419038299995,,,,,,,,,,,,,,,,,,,,,,,655.4029749000329,655.419038299995,655.9026745000156,,,,,,,,,,,,655.9263977000373,,,,,,,,,,,,,,,655.9236252999981,655.9263977000373,655.9263977000373,655.9263977000373,658.9192861000192,f,1.7678210000158288,0.12024090002523735,658.9194827000028,658.9195488000405,None,,,,,,,,,,,,,,,,,00036,001,2026-01-23_16h03.45.360,MST_task,2024.2.0,59.913102030762104,2026-01-23 16h04.48.712471 +0530,
,Objects\186a.jpg,136,0,137,,,,,,,f,2.2206899999873713,0.19194360001711175,None,,,,,,137,0,136,658.9356667000102,,,,,,,,,,,,,,,,,,,,,,,658.9199164000456,658.9356667000102,659.4190830000443,,,,,,,,,,,,659.4410780000035,,,,,,,,,,,,,,,659.4389041000395,659.4410780000035,659.4410780000035,659.4410780000035,662.4197915000259,f,2.2206899999873713,0.19194360001711175,662.4199901000247,662.4200577000156,None,,,,,,,,,,,,,,,,,00036,001,2026-01-23_16h03.45.360,MST_task,2024.2.0,59.913102030762104,2026-01-23 16h04.48.712471 +0530,
,Objects\127a.jpg,137,0,138,,,,,,,f,1.9435904999845661,0.1679405000177212,None,,,,,,138,0,137,662.4353347000433,,,,,,,,,,,,,,,,,,,,,,,662.4203511000378,662.4353347000433,662.9194266000413,,,,,,,,,,,,662.9666701999959,,,,,,,,,,,,,,,662.9635021000286,662.9666701999959,662.9666701999959,662.9666701999959,665.9359763000393,f,1.9435904999845661,0.1679405000177212,665.9361705000047,665.936237899994,None,,,,,,,,,,,,,,,,,00036,001,2026-01-23_16h03.45.360,MST_task,2024.2.0,59.913102030762104,2026-01-23 16h04.48.712471 +0530,
,Objects\123a.jpg,138,0,139,,,,,,,f,1.8097675999742933,0.1440430000075139,None,,,,,,139,0,138,665.9522413000232,,,,,,,,,,,,,,,,,,,,,,,665.9365544000175,665.9522413000232,666.4360858,,,,,,,,,,,,666.4598415000364,,,,,,,,,,,,,,,666.4570115000242,666.4598415000364,666.4598415000364,666.4598415000364,669.452697700006,f,1.8097675999742933,0.1440430000075139,669.4529193000053,669.4529839000315,None,,,,,,,,,,,,,,,,,00036,001,2026-01-23_16h03.45.360,MST_task,2024.2.0,59.913102030762104,2026-01-23 16h04.48.712471 +0530,
,Objects\106a.jpg,139,0,140,,,,,,,f,2.270060700015165,0.1923391000018455,None,,,,,,140,0,139,669.4689655000111,,,,,,,,,,,,,,,,,,,,,,,669.4532803000184,669.4689655000111,669.9527246000362,,,,,,,,,,,,669.9756115000346,,,,,,,,,,,,,,,669.9726810000138,669.9756115000346,669.9756115000346,669.9756115000346,672.9697192000458,f,2.270060700015165,0.1923391000018455,672.9699166000355,672.9699829000165,None,,,,,,,,,,,,,,,,,00036,001,2026-01-23_16h03.45.360,MST_task,2024.2.0,59.913102030762104,2026-01-23 16h04.48.712471 +0530,
,Scenes\106a.jpg,140,0,141,,,,,,,j,1.3495834000059403,0.21616519999224693,None,,,,,,141,0,140,672.9854263000307,,,,,,,,,,,,,,,,,,,,,,,672.9703462000471,672.9854263000307,673.4700766000315,,,,,,,,,,,,673.5286128000007,,,,,,,,,,,,,,,673.5256653000251,673.5286128000007,673.5286128000007,673.5286128000007,676.4859404000454,j,1.3495834000059403,0.21616519999224693,676.4861311000423,676.4861972000217,None,,,,,,,,,,,,,,,,,00036,001,2026-01-23_16h03.45.360,MST_task,2024.2.0,59.913102030762104,2026-01-23 16h04.48.712471 +0530,
,Scenes\102a.jpg,141,0,142,,,,,,,j,2.535443499975372,0.1364552999730222,None,,,,,,142,0,141,676.5028003000189,,,,,,,,,,,,,,,,,,,,,,,676.486570100009,676.5028003000189,676.9857365000062,,,,,,,,,,,,677.0464193000225,,,,,,,,,,,,,,,677.0439634000068,677.0464193000225,677.0464193000225,677.0464193000225,680.0033960000146,j,2.535443499975372,0.1364552999730222,680.0036510000355,680.0037212000461,None,,,,,,,,,,,,,,,,,00036,001,2026-01-23_16h03.45.360,MST_task,2024.2.0,59.913102030762104,2026-01-23 16h04.48.712471 +0530,
,Scenes\032a.jpg,142,0,143,,,,,,,j,2.382327599974815,0.1357475999975577,None,,,,,,143,0,142,680.0187582999934,,,,,,,,,,,,,,,,,,,,,,,680.0041018000338,680.0187582999934,680.5024428000324,,,,,,,,,,,,680.5357309000101,,,,,,,,,,,,,,,680.5326355000143,680.5357309000101,680.5357309000101,680.5357309000101,683.5202374000219,j,2.382327599974815,0.1357475999975577,683.5204349000123,683.5205025000032,None,,,,,,,,,,,,,,,,,00036,001,2026-01-23_16h03.45.360,MST_task,2024.2.0,59.913102030762104,2026-01-23 16h04.48.712471 +0530,
,Scenes\189a.jpg,143,0,144,,,,,,,j,1.099934600002598,0.14485920005245134,None,,,,,,144,0,143,683.5356324000168,,,,,,,,,,,,,,,,,,,,,,,683.5207936000079,683.5356324000168,684.0187972999993,,,,,,,,,,,,684.0976062000263,,,,,,,,,,,,,,,684.0947235000203,684.0976062000263,684.0976062000263,684.0976062000263,687.0361001000274,j,1.099934600002598,0.14485920005245134,687.0362990000285,687.0363665000186,None,,,,,,,,,,,,,,,,,00036,001,2026-01-23_16h03.45.360,MST_task,2024.2.0,59.913102030762104,2026-01-23 16h04.48.712471 +0530,
,Scenes\158a.jpg,144,0,145,,,,,,,j,2.267047100001946,0.12039569998160005,None,,,,,,145,0,144,687.0523002000409,,,,,,,,,,,,,,,,,,,,,,,687.0366604000446,687.0523002000409,687.5360821000068,,,,,,,,,,,,687.5864888000069,,,,,,,,,,,,,,,687.5835478000226,687.5864888000069,687.5864888000069,687.5864888000069,690.5524127000244,j,2.267047100001946,0.12039569998160005,690.5526074999943,690.5526728000259,None,,,,,,,,,,,,,,,,,00036,001,2026-01-23_16h03.45.360,MST_task,2024.2.0,59.913102030762104,2026-01-23 16h04.48.712471 +0530,
,Scenes\010a.jpg,145,0,146,,,,,,,j,1.0533189999987371,0.1683125999988988,None,,,,,,146,0,145,690.5690119999927,,,,,,,,,,,,,,,,,,,,,,,690.5529626000207,690.5690119999927,691.0528109000297,,,,,,,,,,,,,,,,,,,,,,,,,,,691.1014835000387,691.1042776000104,691.1042776000104,691.1042776000104,694.0530297000078,j,1.0533189999987371,0.1683125999988988,694.0532240000321,694.0532900000107,None,,,,,,,,,,,,,,,,,00036,001,2026-01-23_16h03.45.360,MST_task,2024.2.0,59.913102030762104,2026-01-23 16h04.48.712471 +0530,
,Scenes\168a.jpg,146,0,147,,,,,,,j,0.9195074999588542,0.14476090000243858,None,,,,,,147,0,146,694.0686927000061,,,,,,,,,,,,,,,,,,,,,,,694.0536441000295,694.0686927000061,694.5526817000355,,,,,,,,,,,,694.5821448999923,,,,,,,,,,,,,,,694.5794677000376,694.5821448999923,694.5821448999923,694.5821448999923,697.5691960999975,j,0.9195074999588542,0.14476090000243858,697.5693993000314,697.5694669000222,None,,,,,,,,,,,,,,,,,00036,001,2026-01-23_16h03.45.360,MST_task,2024.2.0,59.913102030762104,2026-01-23 16h04.48.712471 +0530,
,Objects\016a.jpg,147,0,148,,,,,,,f,2.375526899995748,0.17657740000868216,None,,,,,,148,0,147,697.5854359000223,,,,,,,,,,,,,,,,,,,,,,,697.5697204000317,697.5854359000223,698.0694328999962,,,,,,,,,,,,698.0942684000474,,,,,,,,,,,,,,,698.0914693000377,698.0942684000474,698.0942684000474,698.0942684000474,701.0696588000283,f,2.375526899995748,0.17657740000868216,701.0698704000097,701.069933700026,None,,,,,,,,,,,,,,,,,00036,001,2026-01-23_16h03.45.360,MST_task,2024.2.0,59.913102030762104,2026-01-23 16h04.48.712471 +0530,
,Objects\153a.jpg,148,0,149,,,,,,,f,1.087561399966944,0.21619140001712367,None,,,,,,149,0,148,701.0860393000185,,,,,,,,,,,,,,,,,,,,,,,701.0702982000075,701.0860393000185,701.5695913000382,,,,,,,,,,,,701.614658800012,,,,,,,,,,,,,,,701.6118492000387,701.614658800012,701.614658800012,701.614658800012,704.5863609000226,f,1.087561399966944,0.21619140001712367,704.5866039000102,704.586670699995,None,,,,,,,,,,,,,,,,,00036,001,2026-01-23_16h03.45.360,MST_task,2024.2.0,59.913102030762104,2026-01-23 16h04.48.712471 +0530,
,Objects\103a.jpg,149,0,150,,,,,,,f,0.9918106000404805,0.16016649996163324,None,,,,,,150,0,149,704.6023980000173,,,,,,,,,,,,,,,,,,,,,,,704.5869710000115,704.6023980000173,705.0862512000022,,,,,,,,,,,,705.1099878000095,,,,,,,,,,,,,,,705.1077614999958,705.1099878000095,705.1099878000095,705.1099878000095,708.1029240000062,f,0.9918106000404805,0.16016649996163324,708.1031253000256,708.1031911000027,None,,,,,,,,,,,,,,,,,00036,001,2026-01-23_16h03.45.360,MST_task,2024.2.0,59.913102030762104,2026-01-23 16h04.48.712471 +0530,
,Objects\047a.jpg,150,0,151,,,,,,,f,2.005074999993667,0.09624430001713336,None,,,,,,151,0,150,708.1188044000301,,,,,,,,,,,,,,,,,,,,,,,708.1035614000284,708.1188044000301,708.602698200033,,,,,,,,,,,,708.6246228000382,,,,,,,,,,,,,,,708.6218311000266,708.6246228000382,708.6246228000382,708.6246228000382,711.6196117000072,f,2.005074999993667,0.09624430001713336,711.6198027000064,711.6198688000441,None,,,,,,,,,,,,,,,,,00036,001,2026-01-23_16h03.45.360,MST_task,2024.2.0,59.913102030762104,2026-01-23 16h04.48.712471 +0530,
,Objects\164a.jpg,151,0,152,,,,,,,f,1.8868301999755204,0.15930669999215752,None,,,,,,152,0,151,711.6356330999988,,,,,,,,,,,,,,,,,,,,,,,711.6202332000248,711.6356330999988,712.1193690000218,,,,,,,,,,,,712.1437337000389,,,,,,,,,,,,,,,712.1411052000476,712.1437337000389,712.1437337000389,712.1437337000389,715.1358540999936,f,1.8868301999755204,0.15930669999215752,715.1360574000282,715.1361218999955,None,,,,,,,,,,,,,,,,,00036,001,2026-01-23_16h03.45.360,MST_task,2024.2.0,59.913102030762104,2026-01-23 16h04.48.712471 +0530,
,Objects\043a.jpg,152,0,153,,,,,,,f,2.484230700007174,0.1677365999785252,None,,,,,,153,0,152,715.1522704000236,,,,,,,,,,,,,,,,,,,,,,,715.136499300017,715.1522704000236,715.6366915000253,,,,,,,,,,,,,,,,,,,,,,,,,,,715.6710714999936,715.6739826000412,715.6739826000412,715.6739826000412,718.6526700000395,f,2.484230700007174,0.1677365999785252,718.6528631999972,718.6529303000425,None,,,,,,,,,,,,,,,,,00036,001,2026-01-23_16h03.45.360,MST_task,2024.2.0,59.913102030762104,2026-01-23 16h04.48.712471 +0530,
,Objects\124a.jpg,153,0,154,,,,,,,f,1.4951112000271678,0.17586740001570433,None,,,,,,154,0,153,718.6690211000387,,,,,,,,,,,,,,,,,,,,,,,718.6532237000065,718.6690211000387,719.1525403000414,,,,,,,,,,,,719.1747911000275,,,,,,,,,,,,,,,719.1720276999986,719.1747911000275,719.1747911000275,719.1747911000275,722.1692212000489,f,1.4951112000271678,0.17586740001570433,722.1694203999941,722.1694840000127,None,,,,,,,,,,,,,,,,,00036,001,2026-01-23_16h03.45.360,MST_task,2024.2.0,59.913102030762104,2026-01-23 16h04.48.712471 +0530,
,Scenes\107a.jpg,154,0,155,,,,,,,j,1.4141289999824949,0.14411499997368082,None,,,,,,155,0,154,722.1858575000078,,,,,,,,,,,,,,,,,,,,,,,722.1698465000372,722.1858575000078,722.670057100011,,,,,,,,,,,,,,,,,,,,,,,,,,,722.7170281000435,722.7196769000147,722.7196769000147,722.7196769000147,725.6864284000476,j,1.4141289999824949,0.14411499997368082,725.6866298000095,725.686696299992,None,,,,,,,,,,,,,,,,,00036,001,2026-01-23_16h03.45.360,MST_task,2024.2.0,59.913102030762104,2026-01-23 16h04.48.712471 +0530,
,Scenes\018a.jpg,155,0,156,,,,,,,f,1.383854900021106,0.1921714000054635,None,,,,,,156,0,155,725.7025566000375,,,,,,,,,,,,,,,,,,,,,,,725.686990200018,725.7025566000375,726.1862375000492,,,,,,,,,,,,726.2137554000365,,,,,,,,,,,,,,,726.2111586999963,726.2137554000365,726.2137554000365,726.2137554000365,729.203508000006,f,1.383854900021106,0.1921714000054635,729.2037175000296,729.2037819999969,None,,,,,,,,,,,,,,,,,00036,001,2026-01-23_16h03.45.360,MST_task,2024.2.0,59.913102030762104,2026-01-23 16h04.48.712471 +0530,
,Scenes\137a.jpg,156,0,157,,,,,,,j,1.6628191000199877,0.14376679999986663,None,,,,,,157,0,156,729.2189717000001,,,,,,,,,,,,,,,,,,,,,,,729.2040801999974,729.2189717000001,729.7025503000477,,,,,,,,,,,,729.7511946000159,,,,,,,,,,,,,,,729.7480193999945,729.7511946000159,729.7511946000159,729.7511946000159,732.7192299000453,j,1.6628191000199877,0.14376679999986663,732.7194293999928,732.719494000019,None,,,,,,,,,,,,,,,,,00036,001,2026-01-23_16h03.45.360,MST_task,2024.2.0,59.913102030762104,2026-01-23 16h04.48.712471 +0530,
,Scenes\024a.jpg,157,0,158,,,,,,,j,1.810492200020235,0.11243280000053346,None,,,,,,158,0,157,732.735949599999,,,,,,,,,,,,,,,,,,,,,,,732.7198690000223,732.735949599999,733.2197148000123,,,,,,,,,,,,,,,,,,,,,,,,,,,733.2566656999988,733.2594329999993,733.2594329999993,733.2594329999993,736.2200509000104,j,1.810492200020235,0.11243280000053346,736.2202448000317,736.220309700002,None,,,,,,,,,,,,,,,,,00036,001,2026-01-23_16h03.45.360,MST_task,2024.2.0,59.913102030762104,2026-01-23 16h04.48.712471 +0530,
,Scenes\138a.jpg,158,0,159,,,,,,,j,2.255558700009715,0.11275000002933666,None,,,,,,159,0,158,736.2358693000278,,,,,,,,,,,,,,,,,,,,,,,736.2206751999911,736.2358693000278,736.7197516000015,,,,,,,,,,,,736.7499521000427,,,,,,,,,,,,,,,736.747182400024,736.7499521000427,736.7499521000427,736.7499521000427,739.736163900001,j,2.255558700009715,0.11275000002933666,739.7363598000375,739.7364281000337,None,,,,,,,,,,,,,,,,,00036,001,2026-01-23_16h03.45.360,MST_task,2024.2.0,59.913102030762104,2026-01-23 16h04.48.712471 +0530,
,Scenes\152a.jpg,159,0,160,,,,,,,j,1.6395372999832034,0.07181489997310564,None,,,,,,160,0,159,739.7520055000205,,,,,,,,,,,,,,,,,,,,,,,739.7367983000004,739.7520055000205,740.2358154000249,,,,,,,,,,,,740.3178896000027,,,,,,,,,,,,,,,740.3146651000134,740.3178896000027,740.3178896000027,740.3178896000027,743.2526337000309,j,1.6395372999832034,0.07181489997310564,743.2528284,743.2528951000422,None,,,,,,,,,,,,,,,,,00036,001,2026-01-23_16h03.45.360,MST_task,2024.2.0,59.913102030762104,2026-01-23 16h04.48.712471 +0530,
,Scenes\093a.jpg,160,0,161,,,,,,,f,1.6135567000019364,0.11985389998881146,None,,,,,,161,0,160,743.2687128999969,,,,,,,,,,,,,,,,,,,,,,,743.2532630999922,743.2687128999969,743.7525011000107,,,,,,,,,,,,743.7846034000395,,,,,,,,,,,,,,,743.7815533000394,743.7846034000395,743.7846034000395,743.7846034000395,746.7694521000376,f,1.6135567000019364,0.11985389998881146,746.7696451999946,746.7697124000406,None,,,,,,,,,,,,,,,,,00036,001,2026-01-23_16h03.45.360,MST_task,2024.2.0,59.913102030762104,2026-01-23 16h04.48.712471 +0530,
,Objects\070a.jpg,161,0,162,,,,,,,f,1.1417685999767855,0.09672620001947507,None,,,,,,162,0,161,746.7853903000359,,,,,,,,,,,,,,,,,,,,,,,746.7701476000366,746.7853903000359,747.2694997999934,,,,,,,,,,,,747.2956799000385,,,,,,,,,,,,,,,747.2925706999958,747.2956799000385,747.2956799000385,747.2956799000385,750.2860250000376,f,1.1417685999767855,0.09672620001947507,750.2862567999982,750.2863239000435,None,,,,,,,,,,,,,,,,,00036,001,2026-01-23_16h03.45.360,MST_task,2024.2.0,59.913102030762104,2026-01-23 16h04.48.712471 +0530,
,Objects\187a.jpg,162,0,163,,,,,,,f,1.0204060000251047,0.1120736000011675,None,,,,,,163,0,162,750.3021856000414,,,,,,,,,,,,,,,,,,,,,,,750.2866190000204,750.3021856000414,750.7857139999978,,,,,,,,,,,,750.8172312999959,,,,,,,,,,,,,,,750.8150493000285,750.8172312999959,750.8172312999959,750.8172312999959,753.8029317000182,f,1.0204060000251047,0.1120736000011675,753.8031314000254,753.8031959999935,None,,,,,,,,,,,,,,,,,00036,001,2026-01-23_16h03.45.360,MST_task,2024.2.0,59.913102030762104,2026-01-23 16h04.48.712471 +0530,
,Objects\014a.jpg,163,0,164,,,,,,,f,2.2265327999484725,0.16770890000043437,None,,,,,,164,0,163,753.8191723000491,,,,,,,,,,,,,,,,,,,,,,,753.8035694000428,753.8191723000491,754.3025804000208,,,,,,,,,,,,754.3316273000091,,,,,,,,,,,,,,,754.3289617000264,754.3316273000091,754.3316273000091,754.3316273000091,757.3194078000379,f,2.2265327999484725,0.16770890000043437,757.3195994000416,757.3196642000112,None,,,,,,,,,,,,,,,,,00036,001,2026-01-23_16h03.45.360,MST_task,2024.2.0,59.913102030762104,2026-01-23 16h04.48.712471 +0530,
,Objects\051a.jpg,164,0,165,,,,,,,f,2.233738999988418,0.1201359000406228,None,,,,,,165,0,164,757.3353888000129,,,,,,,,,,,,,,,,,,,,,,,757.3200488000293,757.3353888000129,757.8200482000248,,,,,,,,,,,,,,,,,,,,,,,,,,,757.8414761000313,757.8436824000091,757.8436824000091,757.8436824000091,760.8367065000348,f,2.233738999988418,0.1201359000406228,760.8369705000077,760.8370384000009,None,,,,,,,,,,,,,,,,,00036,001,2026-01-23_16h03.45.360,MST_task,2024.2.0,59.913102030762104,2026-01-23 16h04.48.712471 +0530,
,Objects\173a.jpg,165,0,166,,,,,,,f,1.821339700021781,0.10339160001603886,None,,,,,,166,0,165,760.852347600041,,,,,,,,,,,,,,,,,,,,,,,760.8373340000398,760.852347600041,761.3362068000133,,,,,,,,,,,,761.3687889000284,,,,,,,,,,,,,,,761.3659851000411,761.3687889000284,761.3687889000284,761.3687889000284,764.3529322000104,f,1.821339700021781,0.10339160001603886,764.3531349000405,764.3532007000176,None,,,,,,,,,,,,,,,,,00036,001,2026-01-23_16h03.45.360,MST_task,2024.2.0,59.913102030762104,2026-01-23 16h04.48.712471 +0530,
,Objects\170a.jpg,166,0,167,,,,,,,f,2.1611501000006683,0.08877039997605607,None,,,,,,167,0,166,764.3687409000122,,,,,,,,,,,,,,,,,,,,,,,764.3535640000482,764.3687409000122,764.8524728000048,,,,,,,,,,,,764.8762551000109,,,,,,,,,,,,,,,764.8735876000137,764.8762551000109,764.8762551000109,764.8762551000109,767.8690325000207,f,2.1611501000006683,0.08877039997605607,767.8692244000267,767.8692897000001,None,,,,,,,,,,,,,,,,,00036,001,2026-01-23_16h03.45.360,MST_task,2024.2.0,59.913102030762104,2026-01-23 16h04.48.712471 +0530,
,Objects\161a.jpg,167,0,168,,,,,,,j,2.758886600029655,0.08817919995635748,None,,,,,,168,0,167,767.8852029000409,,,,,,,,,,,,,,,,,,,,,,,767.8695783000439,767.8852029000409,768.3694211000111,,,,,,,,,,,,768.415260000038,,,,,,,,,,,,,,,768.4118536000024,768.415260000038,768.415260000038,768.415260000038,771.3860224999953,j,2.758886600029655,0.08817919995635748,771.3862180000287,771.3862841000082,None,,,,,,,,,,,,,,,,,00036,001,2026-01-23_16h03.45.360,MST_task,2024.2.0,59.913102030762104,2026-01-23 16h04.48.712471 +0530,
,Scenes\123a.jpg,168,0,169,,,,,,,j,1.4688962000072934,0.1440184999955818,None,,,,,,169,0,168,771.4023621000233,,,,,,,,,,,,,,,,,,,,,,,771.3865777000319,771.4023621000233,771.8857734000194,,,,,,,,,,,,771.9287130000303,,,,,,,,,,,,,,,771.9257642000448,771.9287130000303,771.9287130000303,771.9287130000303,774.9026940000476,j,1.4688962000072934,0.1440184999955818,774.9028933999944,774.9029611000442,None,,,,,,,,,,,,,,,,,00036,001,2026-01-23_16h03.45.360,MST_task,2024.2.0,59.913102030762104,2026-01-23 16h04.48.712471 +0530,
,Scenes\143a.jpg,169,0,170,,,,,,,j,1.3263968999963254,0.07214589999057353,None,,,,,,170,0,169,774.9192186000291,,,,,,,,,,,,,,,,,,,,,,,774.9033393000136,774.9192186000291,775.4028851000476,,,,,,,,,,,,775.4631294000428,,,,,,,,,,,,,,,775.4603477000492,775.4631294000428,775.4631294000428,775.4631294000428,778.4191245000111,j,1.3263968999963254,0.07214589999057353,778.4193183000316,778.419384400011,None,,,,,,,,,,,,,,,,,00036,001,2026-01-23_16h03.45.360,MST_task,2024.2.0,59.913102030762104,2026-01-23 16h04.48.712471 +0530,
,Scenes\013a.jpg,170,0,171,,,,,,,j,1.4161598000209779,0.087353200011421,None,,,,,,171,0,170,778.4353620000184,,,,,,,,,,,,,,,,,,,,,,,778.4197481000447,778.4353620000184,778.9191615000018,,,,,,,,,,,,778.9499754999997,,,,,,,,,,,,,,,778.9470510000247,778.9499754999997,778.9499754999997,778.9499754999997,781.9196264999919,j,1.4161598000209779,0.087353200011421,781.9198200000101,781.9198850000394,None,,,,,,,,,,,,,,,,,00036,001,2026-01-23_16h03.45.360,MST_task,2024.2.0,59.913102030762104,2026-01-23 16h04.48.712471 +0530,
,Scenes\016a.jpg,171,0,172,,,,,,,j,2.0990696999942884,0.0956797000253573,None,,,,,,172,0,171,781.9356988000218,,,,,,,,,,,,,,,,,,,,,,,781.9202480000095,781.9356988000218,782.4192664000439,,,,,,,,,,,,782.4429851000314,,,,,,,,,,,,,,,782.4402848000173,782.4429851000314,782.4429851000314,782.4429851000314,785.4361092000036,j,2.0990696999942884,0.0956797000253573,785.4363056000439,785.436371000018,None,,,,,,,,,,,,,,,,,00036,001,2026-01-23_16h03.45.360,MST_task,2024.2.0,59.913102030762104,2026-01-23 16h04.48.712471 +0530,
,Scenes\073a.jpg,172,0,173,,,,,,,j,0.9621522999950685,0.0716783000389114,None,,,,,,173,0,172,785.4520559000084,,,,,,,,,,,,,,,,,,,,,,,785.436808700033,785.4520559000084,785.935944100027,,,,,,,,,,,,785.9876574000227,,,,,,,,,,,,,,,785.9839718000148,785.9876574000227,785.9876574000227,785.9876574000227,788.9527554000379,j,0.9621522999950685,0.0716783000389114,788.952946400037,788.9530120000127,None,,,,,,,,,,,,,,,,,00036,001,2026-01-23_16h03.45.360,MST_task,2024.2.0,59.913102030762104,2026-01-23 16h04.48.712471 +0530,
,Scenes\002a.jpg,173,0,174,,,,,,,j,1.443591799994465,0.0635552000021562,None,,,,,,174,0,173,788.9689539000392,,,,,,,,,,,,,,,,,,,,,,,788.9533846999984,788.9689539000392,789.4527592000086,,,,,,,,,,,,789.49053000001,,,,,,,,,,,,,,,789.487595100014,789.49053000001,789.49053000001,789.49053000001,792.469354300003,j,1.443591799994465,0.0635552000021562,792.4695494000334,792.4696141000022,None,,,,,,,,,,,,,,,,,00036,001,2026-01-23_16h03.45.360,MST_task,2024.2.0,59.913102030762104,2026-01-23 16h04.48.712471 +0530,
,Scenes\126a.jpg,174,0,175,,,,,,,j,2.5641413999837823,0.08007730002282187,None,,,,,,175,0,174,792.4864124000305,,,,,,,,,,,,,,,,,,,,,,,792.4699855000363,792.4864124000305,792.9693710000138,,,,,,,,,,,,793.0019864999922,,,,,,,,,,,,,,,792.999002800032,793.0019864999922,793.0019864999922,793.0019864999922,795.986101699993,j,2.5641413999837823,0.08007730002282187,795.9862973000272,795.9863643000135,None,,,,,,,,,,,,,,,,,00036,001,2026-01-23_16h03.45.360,MST_task,2024.2.0,59.913102030762104,2026-01-23 16h04.48.712471 +0530,
