thisN,thisTrialN,thisRepN,key_resp_3.keys,key_resp_3.rt,key_resp_3.duration,trials.thisRepN,trials.thisTrialN,trials.thisN,thisRow.t,notes,intro_page.started,text.started,key_resp.started,intro_page.stopped,key_resp.keys,key_resp.rt,key_resp.duration,instructions.started,text_2.started,key_resp_2.started,instructions.stopped,key_resp_2.keys,key_resp_2.rt,key_resp_2.duration,demo1.started,image_1.started,image_2.started,text_7.started,key_resp_6.started,text_9.started,demo1.stopped,key_resp_6.keys,key_resp_6.rt,key_resp_6.duration,demo2.started,image_5.started,image_6.started,text_11.started,text_12.started,key_resp_8.started,demo2.stopped,key_resp_8.keys,key_resp_8.rt,key_resp_8.duration,demo_conclusion.started,text_13.started,key_resp_9.started,demo_conclusion.stopped,key_resp_9.keys,key_resp_9.rt,key_resp_9.duration,start_test.started,text_6.started,key_resp_5.started,start_test.stopped,key_resp_5.keys,key_resp_5.rt,key_resp_5.duration,ISI.started,text_4.started,text_4.stopped,ISI.stopped,routine_1.started,image.started,text_3.started,key_resp_3.started,routine_1.stopped,image_path,position_of_stimuli,trials.key_resp_3.keys,trials.key_resp_3.rt,trials.key_resp_3.duration,End_page.started,text_5.started,key_resp_4.started,End_page.stopped,key_resp_4.keys,key_resp_4.rt,key_resp_4.duration,participant,session,date,expName,psychopyVersion,frameRate,expStart,
,,,,,,,,,,,0.0010209999745711684,0.002551899990066886,0.002551899990066886,2.169458799995482,space,2.1500547000032384,None,,,,,,,,,,,,,,,,,,,,,,,,,,,,,,,,,,,,,,,,,,,,,,,,,,,,,,,,,,,,,,,00031,001,2026-01-21_15h25.55.946,MST_test,2024.2.0,59.95764591749849,2026-01-21 15h26.03.022666 +0530,
,,,,,,,,,,,,,,,,,,2.1695820999739226,2.181887299986556,2.181887299986556,10.597266999975545,space,8.410989600000903,None,,,,,,,,,,,,,,,,,,,,,,,,,,,,,,,,,,,,,,,,,,,,,,,,,,,,,,,,00031,001,2026-01-21_15h25.55.946,MST_test,2024.2.0,59.95764591749849,2026-01-21 15h26.03.022666 +0530,
,,,,,,,,,,,,,,,,,,,,,,,,,10.597363099979702,10.646949099987978,10.646949099987978,10.646949099987978,10.646949099987978,10.646949099987978,16.5462925999891,space,5.896740199998021,None,,,,,,,,,,,,,,,,,,,,,,,,,,,,,,,,,,,,,,,,,,,,,,00031,001,2026-01-21_15h25.55.946,MST_test,2024.2.0,59.95764591749849,2026-01-21 15h26.03.022666 +0530,
,,,,,,,,,,,,,,,,,,,,,,,,,,,,,,,,,,,16.546329999982845,16.56299899998703,16.56299899998703,16.56299899998703,16.56299899998703,16.56299899998703,20.81300039999769,space,4.23675050001475,None,,,,,,,,,,,,,,,,,,,,,,,,,,,,,,,,,,,,00031,001,2026-01-21_15h25.55.946,MST_test,2024.2.0,59.95764591749849,2026-01-21 15h26.03.022666 +0530,
,,,,,,,,,,,,,,,,,,,,,,,,,,,,,,,,,,,,,,,,,,,,,20.81304119998822,20.829782699991483,20.829782699991483,31.945969699998386,space,11.1059403999825,None,,,,,,,,,,,,,,,,,,,,,,,,,,,,,00031,001,2026-01-21_15h25.55.946,MST_test,2024.2.0,59.95764591749849,2026-01-21 15h26.03.022666 +0530,
,,,,,,,,,,,,,,,,,,,,,,,,,,,,,,,,,,,,,,,,,,,,,,,,,,,,31.946005899982993,31.962550199998077,31.962550199998077,73.76411009998992,space,41.789793799980544,None,,,,,,,,,,,,,,,,,,,,,,00031,001,2026-01-21_15h25.55.946,MST_test,2024.2.0,59.95764591749849,2026-01-21 15h26.03.022666 +0530,
0,0,1,n,6.042634100012947,None,1,0,0,73.77938289998565,,,,,,,,,,,,,,,,,,,,,,,,,,,,,,,,,,,,,,,,,,,,,,,,,,73.77337949999492,73.77938289998565,74.30176529998425,74.26359829999274,74.29925250000088,74.30176529998425,74.30176529998425,74.30176529998425,80.34693010000046,Foils\scenes30.jpg,none,n,6.042634100012947,None,,,,,,,,00031,001,2026-01-21_15h25.55.946,MST_test,2024.2.0,59.95764591749849,2026-01-21 15h26.03.022666 +0530,
1,0,2,n,11.453658299986273,None,2,0,1,80.36294019999332,,,,,,,,,,,,,,,,,,,,,,,,,,,,,,,,,,,,,,,,,,,,,,,,,,80.34730119997403,80.36294019999332,80.87456489997567,80.84683679998852,80.87280809998629,80.87456489997567,80.87456489997567,80.87456489997567,92.330189899978,Foils\scenes11.jpg,none,n,11.453658299986273,None,,,,,,,,00031,001,2026-01-21_15h25.55.946,MST_test,2024.2.0,59.95764591749849,2026-01-21 15h26.03.022666 +0530,
2,0,3,o,4.659426400001394,None,3,0,2,92.34684149999521,,,,,,,,,,,,,,,,,,,,,,,,,,,,,,,,,,,,,,,,,,,,,,,,,,92.33054729999276,92.34684149999521,92.86091069999384,92.83018140000058,92.85869289998664,92.86091069999384,92.86091069999384,92.86091069999384,97.53033929999219,Objects\018b.jpg,mid,o,4.659426400001394,None,,,,,,,,00031,001,2026-01-21_15h25.55.946,MST_test,2024.2.0,59.95764591749849,2026-01-21 15h26.03.022666 +0530,
3,0,4,s,2.3212873000011314,None,4,0,3,97.54644509998616,,,,,,,,,,,,,,,,,,,,,,,,,,,,,,,,,,,,,,,,,,,,,,,,,,97.53064759998233,97.54644509998616,98.05435159997432,98.03014879999682,98.05204399998183,98.05435159997432,98.05435159997432,98.05435159997432,100.37966839998262,Objects\070b.jpg,pre,s,2.3212873000011314,None,,,,,,,,00031,001,2026-01-21_15h25.55.946,MST_test,2024.2.0,59.95764591749849,2026-01-21 15h26.03.022666 +0530,
4,0,5,o,2.0474188000080176,None,5,0,4,100.39578429999528,,,,,,,,,,,,,,,,,,,,,,,,,,,,,,,,,,,,,,,,,,,,,,,,,,100.37982299999567,100.39578429999528,,100.88078139998834,100.90226719999919,100.90464449999854,100.90464449999854,100.90464449999854,102.9637557999813,Scenes\015a.jpg,post,o,2.0474188000080176,None,,,,,,,,00031,001,2026-01-21_15h25.55.946,MST_test,2024.2.0,59.95764591749849,2026-01-21 15h26.03.022666 +0530,
5,0,6,s,4.243676999991294,None,6,0,5,102.97985569998855,,,,,,,,,,,,,,,,,,,,,,,,,,,,,,,,,,,,,,,,,,,,,,,,,,102.96411269999226,102.97985569998855,103.50907509998069,103.4633469999826,103.50686459999997,103.50907509998069,103.50907509998069,103.50907509998069,107.7638309999893,Objects\014b.jpg,mid,s,4.243676999991294,None,,,,,,,,00031,001,2026-01-21_15h25.55.946,MST_test,2024.2.0,59.95764591749849,2026-01-21 15h26.03.022666 +0530,
6,0,7,o,3.0388002000108827,None,7,0,6,107.77987479997682,,,,,,,,,,,,,,,,,,,,,,,,,,,,,,,,,,,,,,,,,,,,,,,,,,107.76419059999171,107.77987479997682,108.29014199998346,108.26325109999743,108.28763189999154,108.29014199998346,108.29014199998346,108.29014199998346,111.33121209999081,Scenes\002a.jpg,post,o,3.0388002000108827,None,,,,,,,,00031,001,2026-01-21_15h25.55.946,MST_test,2024.2.0,59.95764591749849,2026-01-21 15h26.03.022666 +0530,
7,0,8,o,1.4971070000028703,None,8,0,7,111.34623119997559,,,,,,,,,,,,,,,,,,,,,,,,,,,,,,,,,,,,,,,,,,,,,,,,,,111.33157229999779,111.34623119997559,111.84714339999482,111.83025369999814,111.83527679997496,111.84714339999482,111.84714339999482,111.84714339999482,113.34687199999462,Objects\182a.jpg,post,o,1.4971070000028703,None,,,,,,,,00031,001,2026-01-21_15h25.55.946,MST_test,2024.2.0,59.95764591749849,2026-01-21 15h26.03.022666 +0530,
8,0,9,o,1.2807584999827668,None,9,0,8,113.36313079998945,,,,,,,,,,,,,,,,,,,,,,,,,,,,,,,,,,,,,,,,,,,,,,,,,,113.34722939998028,113.36313079998945,113.86394299997482,113.84665039999527,113.8535564999911,113.86394299997482,113.86394299997482,113.86394299997482,115.14679439997417,Objects\184a.jpg,mid,o,1.2807584999827668,None,,,,,,,,00031,001,2026-01-21_15h25.55.946,MST_test,2024.2.0,59.95764591749849,2026-01-21 15h26.03.022666 +0530,
9,0,10,o,7.789895099995192,None,10,0,9,115.16322789998958,,,,,,,,,,,,,,,,,,,,,,,,,,,,,,,,,,,,,,,,,,,,,,,,,,115.14716399999452,115.16322789998958,115.66683529998409,115.64687519997824,115.66419179999502,115.66683529998409,115.66683529998409,115.66683529998409,123.46387709997362,Scenes\041a.jpg,pre,o,7.789895099995192,None,,,,,,,,00031,001,2026-01-21_15h25.55.946,MST_test,2024.2.0,59.95764591749849,2026-01-21 15h26.03.022666 +0530,
10,0,11,s,31.41194990000804,None,11,0,10,123.47987279997324,,,,,,,,,,,,,,,,,,,,,,,,,,,,,,,,,,,,,,,,,,,,,,,,,,123.46425399999134,123.47987279997324,123.99688099999912,123.9641192999843,123.99311309997574,123.99688099999912,123.99688099999912,123.99688099999912,155.41443539998727,Foils\scenes20.jpg,none,s,31.41194990000804,None,,,,,,,,00031,001,2026-01-21_15h25.55.946,MST_test,2024.2.0,59.95764591749849,2026-01-21 15h26.03.022666 +0530,
11,0,12,o,2.569065000017872,None,12,0,11,155.42987669998547,,,,,,,,,,,,,,,,,,,,,,,,,,,,,,,,,,,,,,,,,,,,,,,,,,155.41479119998985,155.42987669998547,155.93524009999237,155.9137017999892,155.93302769999718,155.93524009999237,155.93524009999237,155.93524009999237,158.51461239997298,Scenes\059a.jpg,pre,o,2.569065000017872,None,,,,,,,,00031,001,2026-01-21_15h25.55.946,MST_test,2024.2.0,59.95764591749849,2026-01-21 15h26.03.022666 +0530,
12,0,13,n,50.215156899997965,None,13,0,12,158.52987609998672,,,,,,,,,,,,,,,,,,,,,,,,,,,,,,,,,,,,,,,,,,,,,,,,,,158.514964699978,158.52987609998672,159.0811419999809,159.01359589997446,159.0779658999818,159.0811419999809,159.0811419999809,159.0811419999809,209.29722779997974,Foils\scenes23.jpg,none,n,50.215156899997965,None,,,,,,,,00031,001,2026-01-21_15h25.55.946,MST_test,2024.2.0,59.95764591749849,2026-01-21 15h26.03.022666 +0530,
13,0,14,s,10.654799600015394,None,14,0,13,209.31302889998187,,,,,,,,,,,,,,,,,,,,,,,,,,,,,,,,,,,,,,,,,,,,,,,,,,209.29767429997446,209.31302889998187,209.84133729999303,209.7972850999795,209.83908399997745,209.84133729999303,209.84133729999303,209.84133729999303,220.4972965999914,Foils\065a.jpg,none,s,10.654799600015394,None,,,,,,,,00031,001,2026-01-21_15h25.55.946,MST_test,2024.2.0,59.95764591749849,2026-01-21 15h26.03.022666 +0530,
14,0,15,o,1.402897899999516,None,15,0,14,220.51299540000036,,,,,,,,,,,,,,,,,,,,,,,,,,,,,,,,,,,,,,,,,,,,,,,,,,220.49774539997452,220.51299540000036,221.01316099998076,220.9975487999909,221.0051687999803,221.01316099998076,221.01316099998076,221.01316099998076,222.43034679998527,Objects\159a.jpg,mid,o,1.402897899999516,None,,,,,,,,00031,001,2026-01-21_15h25.55.946,MST_test,2024.2.0,59.95764591749849,2026-01-21 15h26.03.022666 +0530,
15,0,16,s,2.5938637999934144,None,16,0,15,222.4465147999872,,,,,,,,,,,,,,,,,,,,,,,,,,,,,,,,,,,,,,,,,,,,,,,,,,222.4306980999827,222.4465147999872,222.96639279997908,222.92988599999808,222.96358650000184,222.96639279997908,222.96639279997908,222.96639279997908,225.56348789998447,Objects\156b.jpg,post,s,2.5938637999934144,None,,,,,,,,00031,001,2026-01-21_15h25.55.946,MST_test,2024.2.0,59.95764591749849,2026-01-21 15h26.03.022666 +0530,
16,0,17,o,1.7121582000108901,None,17,0,16,225.57961529999739,,,,,,,,,,,,,,,,,,,,,,,,,,,,,,,,,,,,,,,,,,,,,,,,,,225.56383719999576,225.57961529999739,226.079998399975,226.06359659999725,226.07416369998828,226.079998399975,226.079998399975,226.079998399975,227.79682679998223,Scenes\033a.jpg,mid,o,1.7121582000108901,None,,,,,,,,00031,001,2026-01-21_15h25.55.946,MST_test,2024.2.0,59.95764591749849,2026-01-21 15h26.03.022666 +0530,
17,0,18,s,1.7190600999747403,None,18,0,17,227.81299229999422,,,,,,,,,,,,,,,,,,,,,,,,,,,,,,,,,,,,,,,,,,,,,,,,,,227.7971755999897,227.81299229999422,228.32917789998464,228.29694159998326,228.3266271999746,228.32917789998464,228.32917789998464,228.32917789998464,230.0643625999801,Objects\150b.jpg,mid,s,1.7190600999747403,None,,,,,,,,00031,001,2026-01-21_15h25.55.946,MST_test,2024.2.0,59.95764591749849,2026-01-21 15h26.03.022666 +0530,
18,0,19,s,2.022583999991184,None,19,0,18,230.07985779998126,,,,,,,,,,,,,,,,,,,,,,,,,,,,,,,,,,,,,,,,,,,,,,,,,,230.0647151999874,230.07985779998126,230.59343569999328,230.56336689999443,230.5906705999805,230.59343569999328,230.59343569999328,230.59343569999328,232.63031209999463,Objects\101b.jpg,mid,s,2.022583999991184,None,,,,,,,,00031,001,2026-01-21_15h25.55.946,MST_test,2024.2.0,59.95764591749849,2026-01-21 15h26.03.022666 +0530,
19,0,20,s,2.396271200006595,None,20,0,19,232.64648999998462,,,,,,,,,,,,,,,,,,,,,,,,,,,,,,,,,,,,,,,,,,,,,,,,,,232.63066179997986,232.64648999998462,233.1718922999862,233.13021199998911,233.1693616999837,233.1718922999862,233.1718922999862,233.1718922999862,235.58027469998342,Scenes\137b.jpg,mid,s,2.396271200006595,None,,,,,,,,00031,001,2026-01-21_15h25.55.946,MST_test,2024.2.0,59.95764591749849,2026-01-21 15h26.03.022666 +0530,
20,0,21,o,1.4502233999955934,None,21,0,20,235.5972819000017,,,,,,,,,,,,,,,,,,,,,,,,,,,,,,,,,,,,,,,,,,,,,,,,,,235.58062749999226,235.5972819000017,236.1020998999884,236.08040339997387,236.09940789997927,236.1020998999884,236.1020998999884,236.1020998999884,237.5638723000011,Scenes\045a.jpg,mid,o,1.4502233999955934,None,,,,,,,,00031,001,2026-01-21_15h25.55.946,MST_test,2024.2.0,59.95764591749849,2026-01-21 15h26.03.022666 +0530,
21,0,22,n,9.001435399986804,None,22,0,21,237.57980329997372,,,,,,,,,,,,,,,,,,,,,,,,,,,,,,,,,,,,,,,,,,,,,,,,,,237.56422099997872,237.57980329997372,238.11097459998564,238.063396499987,238.10807659997954,238.11097459998564,238.11097459998564,238.11097459998564,247.1138304999913,Scenes\091b.jpg,post,n,9.001435399986804,None,,,,,,,,00031,001,2026-01-21_15h25.55.946,MST_test,2024.2.0,59.95764591749849,2026-01-21 15h26.03.022666 +0530,
22,0,23,s,1.459875500004273,None,23,0,22,247.12981759998365,,,,,,,,,,,,,,,,,,,,,,,,,,,,,,,,,,,,,,,,,,,,,,,,,,247.11419129997375,247.12981759998365,247.65277499999502,247.61362089999602,247.64991629999713,247.65277499999502,247.65277499999502,247.65277499999502,249.1140428999788,Objects\048b.jpg,post,s,1.459875500004273,None,,,,,,,,00031,001,2026-01-21_15h25.55.946,MST_test,2024.2.0,59.95764591749849,2026-01-21 15h26.03.022666 +0530,
23,0,24,o,3.3935927000129595,None,24,0,23,249.12954049999826,,,,,,,,,,,,,,,,,,,,,,,,,,,,,,,,,,,,,,,,,,,,,,,,,,249.11439179998706,249.12954049999826,249.6300621999835,249.613629999978,249.6222049999924,249.6300621999835,249.6300621999835,249.6300621999835,253.02955359997577,Objects\111a.jpg,mid,o,3.3935927000129595,None,,,,,,,,00031,001,2026-01-21_15h25.55.946,MST_test,2024.2.0,59.95764591749849,2026-01-21 15h26.03.022666 +0530,
24,0,25,o,7.02952800001367,None,25,0,24,253.04596779998974,,,,,,,,,,,,,,,,,,,,,,,,,,,,,,,,,,,,,,,,,,,,,,,,,,253.02966109997942,253.04596779998974,,253.5304678999819,253.58387399997446,253.58657039998798,253.58657039998798,253.58657039998798,260.63054409998585,Scenes\029b.jpg,pre,o,7.02952800001367,None,,,,,,,,00031,001,2026-01-21_15h25.55.946,MST_test,2024.2.0,59.95764591749849,2026-01-21 15h26.03.022666 +0530,
25,0,26,o,1.8334044000075664,None,26,0,25,260.6464844000002,,,,,,,,,,,,,,,,,,,,,,,,,,,,,,,,,,,,,,,,,,,,,,,,,,260.6309288999764,260.6464844000002,261.1745564999874,261.1300037999754,261.1717657999834,261.1745564999874,261.1745564999874,261.1745564999874,263.01347119998536,Scenes\037b.jpg,post,o,1.8334044000075664,None,,,,,,,,00031,001,2026-01-21_15h25.55.946,MST_test,2024.2.0,59.95764591749849,2026-01-21 15h26.03.022666 +0530,
26,0,27,o,1.1494662999757566,None,27,0,26,263.0298760999867,,,,,,,,,,,,,,,,,,,,,,,,,,,,,,,,,,,,,,,,,,,,,,,,,,263.0138242999965,263.0298760999867,263.5304900999763,263.5136066999985,263.5238607999927,263.5304900999763,263.5304900999763,263.5304900999763,264.6806316000002,Scenes\016a.jpg,post,o,1.1494662999757566,None,,,,,,,,00031,001,2026-01-21_15h25.55.946,MST_test,2024.2.0,59.95764591749849,2026-01-21 15h26.03.022666 +0530,
27,0,28,o,1.2986653000116348,None,28,0,27,264.6963446000009,,,,,,,,,,,,,,,,,,,,,,,,,,,,,,,,,,,,,,,,,,,,,,,,,,264.6809562999988,264.6963446000009,265.2059210999869,265.18043719997513,265.203288299992,265.2059210999869,265.2059210999869,265.2059210999869,266.5136485999974,Scenes\004a.jpg,post,o,1.2986653000116348,None,,,,,,,,00031,001,2026-01-21_15h25.55.946,MST_test,2024.2.0,59.95764591749849,2026-01-21 15h26.03.022666 +0530,
28,0,29,s,1.9030295000120532,None,29,0,28,266.52987889997894,,,,,,,,,,,,,,,,,,,,,,,,,,,,,,,,,,,,,,,,,,,,,,,,,,266.5139970999735,266.52987889997894,267.04912339997827,267.0136389999825,267.0457983999804,267.04912339997827,267.04912339997827,267.04912339997827,268.9638969999796,Objects\144b.jpg,post,s,1.9030295000120532,None,,,,,,,,00031,001,2026-01-21_15h25.55.946,MST_test,2024.2.0,59.95764591749849,2026-01-21 15h26.03.022666 +0530,
29,0,30,o,1.3125708000152372,None,30,0,29,268.9798849999788,,,,,,,,,,,,,,,,,,,,,,,,,,,,,,,,,,,,,,,,,,,,,,,,,,268.96424799997476,268.9798849999788,269.4799809999822,269.4635925999901,269.47004009998636,269.4799809999822,269.4799809999822,269.4799809999822,270.7971225999936,Objects\042a.jpg,post,o,1.3125708000152372,None,,,,,,,,00031,001,2026-01-21_15h25.55.946,MST_test,2024.2.0,59.95764591749849,2026-01-21 15h26.03.022666 +0530,
30,0,31,o,7.896125500003109,None,31,0,30,270.8132046999817,,,,,,,,,,,,,,,,,,,,,,,,,,,,,,,,,,,,,,,,,,,,,,,,,,270.7974720999773,270.8132046999817,271.3361594999733,271.2968905000016,271.33366629999364,271.3361594999733,271.3361594999733,271.3361594999733,279.2471474999911,Scenes\069b.jpg,mid,o,7.896125500003109,None,,,,,,,,00031,001,2026-01-21_15h25.55.946,MST_test,2024.2.0,59.95764591749849,2026-01-21 15h26.03.022666 +0530,
31,0,32,n,2.5935516999743413,None,32,0,31,279.2632099999755,,,,,,,,,,,,,,,,,,,,,,,,,,,,,,,,,,,,,,,,,,,,,,,,,,279.2474995999946,279.2632099999755,279.7830240999756,279.74728499999037,279.780503099988,279.7830240999756,279.7830240999756,279.7830240999756,282.38056709998637,Foils\002a.jpg,none,n,2.5935516999743413,None,,,,,,,,00031,001,2026-01-21_15h25.55.946,MST_test,2024.2.0,59.95764591749849,2026-01-21 15h26.03.022666 +0530,
32,0,33,o,1.2936050000134856,None,33,0,32,282.39648989998386,,,,,,,,,,,,,,,,,,,,,,,,,,,,,,,,,,,,,,,,,,,,,,,,,,282.38092830000096,282.39648989998386,,282.88094489998184,282.9196540999983,282.92224849999184,282.92224849999184,282.92224849999184,284.2305602999986,Scenes\080b.jpg,mid,o,1.2936050000134856,None,,,,,,,,00031,001,2026-01-21_15h25.55.946,MST_test,2024.2.0,59.95764591749849,2026-01-21 15h26.03.022666 +0530,
33,0,34,s,1.8913248000026215,None,34,0,33,284.2464122999809,,,,,,,,,,,,,,,,,,,,,,,,,,,,,,,,,,,,,,,,,,,,,,,,,,284.2309101999854,284.2464122999809,284.78089149997686,284.7300159999868,284.7782844999747,284.78089149997686,284.78089149997686,284.78089149997686,286.680927599984,Scenes\044b.jpg,mid,s,1.8913248000026215,None,,,,,,,,00031,001,2026-01-21_15h25.55.946,MST_test,2024.2.0,59.95764591749849,2026-01-21 15h26.03.022666 +0530,
34,0,35,s,5.3236958000052255,None,35,0,34,286.69633249999606,,,,,,,,,,,,,,,,,,,,,,,,,,,,,,,,,,,,,,,,,,,,,,,,,,286.6812763999915,286.69633249999606,287.22107739999774,287.18034919997444,287.2179421999899,287.22107739999774,287.22107739999774,287.22107739999774,292.5470338999876,Foils\057a.jpg,none,s,5.3236958000052255,None,,,,,,,,00031,001,2026-01-21_15h25.55.946,MST_test,2024.2.0,59.95764591749849,2026-01-21 15h26.03.022666 +0530,
35,0,36,o,4.54158930000267,None,36,0,35,292.5630393999745,,,,,,,,,,,,,,,,,,,,,,,,,,,,,,,,,,,,,,,,,,,,,,,,,,292.5474221999757,292.5630393999745,293.07438649999676,293.04696359997615,293.07190459998674,293.07438649999676,293.07438649999676,293.07438649999676,297.63054199999897,Scenes\081a.jpg,pre,o,4.54158930000267,None,,,,,,,,00031,001,2026-01-21_15h25.55.946,MST_test,2024.2.0,59.95764591749849,2026-01-21 15h26.03.022666 +0530,
36,0,37,o,5.564776899991557,None,37,0,36,297.6464866999886,,,,,,,,,,,,,,,,,,,,,,,,,,,,,,,,,,,,,,,,,,,,,,,,,,297.6308949999802,297.6464866999886,298.1471947999962,298.1307216999994,298.14023129999987,298.1471947999962,298.1471947999962,298.1471947999962,303.7134640000004,Objects\161a.jpg,mid,o,5.564776899991557,None,,,,,,,,00031,001,2026-01-21_15h25.55.946,MST_test,2024.2.0,59.95764591749849,2026-01-21 15h26.03.022666 +0530,
37,0,38,s,1.5077041000186,None,38,0,37,303.7295158999914,,,,,,,,,,,,,,,,,,,,,,,,,,,,,,,,,,,,,,,,,,,,,,,,,,303.71385969998664,303.7295158999914,304.24416069997824,304.2135430999915,304.2421934999875,304.24416069997824,304.24416069997824,304.24416069997824,305.76342929998646,Objects\009b.jpg,post,s,1.5077041000186,None,,,,,,,,00031,001,2026-01-21_15h25.55.946,MST_test,2024.2.0,59.95764591749849,2026-01-21 15h26.03.022666 +0530,
38,0,39,o,4.756247799989069,None,39,0,38,305.77943749999395,,,,,,,,,,,,,,,,,,,,,,,,,,,,,,,,,,,,,,,,,,,,,,,,,,305.7637848999875,305.77943749999395,306.3077951000014,306.26352349997615,306.3052199999802,306.3077951000014,306.3077951000014,306.3077951000014,311.0805608999799,Scenes\149b.jpg,post,o,4.756247799989069,None,,,,,,,,00031,001,2026-01-21_15h25.55.946,MST_test,2024.2.0,59.95764591749849,2026-01-21 15h26.03.022666 +0530,
39,0,40,s,1.6951927000191063,None,40,0,39,311.09655859999475,,,,,,,,,,,,,,,,,,,,,,,,,,,,,,,,,,,,,,,,,,,,,,,,,,311.08091499999864,311.09655859999475,311.61748960000114,311.5800097999745,311.61505289998604,311.61748960000114,311.61748960000114,311.61748960000114,313.31404629998724,Foils\086a.jpg,none,s,1.6951927000191063,None,,,,,,,,00031,001,2026-01-21_15h25.55.946,MST_test,2024.2.0,59.95764591749849,2026-01-21 15h26.03.022666 +0530,
40,0,41,s,1.7462412000168115,None,41,0,40,313.32995559999836,,,,,,,,,,,,,,,,,,,,,,,,,,,,,,,,,,,,,,,,,,,,,,,,,,313.3144248999888,313.32995559999836,313.8695727000013,313.8134587999957,313.86650279999594,313.8695727000013,313.8695727000013,313.8695727000013,315.63024040000164,Foils\105a.jpg,none,s,1.7462412000168115,None,,,,,,,,00031,001,2026-01-21_15h25.55.946,MST_test,2024.2.0,59.95764591749849,2026-01-21 15h26.03.022666 +0530,
41,0,42,o,1.8531877999776043,None,42,0,41,315.64723919998505,,,,,,,,,,,,,,,,,,,,,,,,,,,,,,,,,,,,,,,,,,,,,,,,,,315.6305871999939,315.64723919998505,316.16272889997344,316.1300228999753,316.15999099999317,316.16272889997344,316.16272889997344,316.16272889997344,318.03027499999735,Objects\140b.jpg,mid,o,1.8531877999776043,None,,,,,,,,00031,001,2026-01-21_15h25.55.946,MST_test,2024.2.0,59.95764591749849,2026-01-21 15h26.03.022666 +0530,
42,0,43,s,1.535819700016873,None,43,0,42,318.0461488000001,,,,,,,,,,,,,,,,,,,,,,,,,,,,,,,,,,,,,,,,,,,,,,,,,,318.0308047999861,318.0461488000001,318.56874550000066,318.5298236999952,318.5662423999747,318.56874550000066,318.56874550000066,318.56874550000066,320.1138968000014,Scenes\098b.jpg,post,s,1.535819700016873,None,,,,,,,,00031,001,2026-01-21_15h25.55.946,MST_test,2024.2.0,59.95764591749849,2026-01-21 15h26.03.022666 +0530,
43,0,44,s,2.16648929999792,None,44,0,43,320.1298267999955,,,,,,,,,,,,,,,,,,,,,,,,,,,,,,,,,,,,,,,,,,,,,,,,,,320.1142592999968,320.1298267999955,320.6494211999816,320.6136185999785,320.646239099995,320.6494211999816,320.6494211999816,320.6494211999816,322.8304922999814,Scenes\097b.jpg,post,s,2.16648929999792,None,,,,,,,,00031,001,2026-01-21_15h25.55.946,MST_test,2024.2.0,59.95764591749849,2026-01-21 15h26.03.022666 +0530,
44,0,45,s,1.7058785000117496,None,45,0,44,322.8467814999749,,,,,,,,,,,,,,,,,,,,,,,,,,,,,,,,,,,,,,,,,,,,,,,,,,322.83094499999424,322.8467814999749,323.3660394999897,323.33023089999915,323.3635376999737,323.3660394999897,323.3660394999897,323.3660394999897,325.0802226999949,Objects\151b.jpg,mid,s,1.7058785000117496,None,,,,,,,,00031,001,2026-01-21_15h25.55.946,MST_test,2024.2.0,59.95764591749849,2026-01-21 15h26.03.022666 +0530,
45,0,46,s,1.5411119000054896,None,46,0,45,325.09703929998796,,,,,,,,,,,,,,,,,,,,,,,,,,,,,,,,,,,,,,,,,,,,,,,,,,325.0803999999771,325.09703929998796,325.62692919999245,325.5800353999948,325.6243181999889,325.62692919999245,325.62692919999245,325.62692919999245,327.180477899994,Scenes\101b.jpg,mid,s,1.5411119000054896,None,,,,,,,,00031,001,2026-01-21_15h25.55.946,MST_test,2024.2.0,59.95764591749849,2026-01-21 15h26.03.022666 +0530,
46,0,47,o,6.969924700009869,None,47,0,46,327.19655860000057,,,,,,,,,,,,,,,,,,,,,,,,,,,,,,,,,,,,,,,,,,,,,,,,,,327.18084779998753,327.19655860000057,327.718627299997,327.67980709997937,327.7161218999827,327.718627299997,327.718627299997,327.718627299997,334.69722199998796,Objects\190b.jpg,pre,o,6.969924700009869,None,,,,,,,,00031,001,2026-01-21_15h25.55.946,MST_test,2024.2.0,59.95764591749849,2026-01-21 15h26.03.022666 +0530,
47,0,48,o,2.7870381000102498,None,48,0,47,334.71322039997904,,,,,,,,,,,,,,,,,,,,,,,,,,,,,,,,,,,,,,,,,,,,,,,,,,334.69757540000137,334.71322039997904,335.21349019999616,335.1967489999952,335.21059639999294,335.21349019999616,335.21349019999616,335.21349019999616,338.0136404999939,Scenes\185a.jpg,pre,o,2.7870381000102498,None,,,,,,,,00031,001,2026-01-21_15h25.55.946,MST_test,2024.2.0,59.95764591749849,2026-01-21 15h26.03.022666 +0530,
48,0,49,s,1.8471597000025213,None,49,0,48,338.0297311999893,,,,,,,,,,,,,,,,,,,,,,,,,,,,,,,,,,,,,,,,,,,,,,,,,,338.0140135999827,338.0297311999893,,338.51384770000004,338.5496699999785,338.5533270999731,338.5533270999731,338.5533270999731,340.4139788999746,Objects\145b.jpg,pre,s,1.8471597000025213,None,,,,,,,,00031,001,2026-01-21_15h25.55.946,MST_test,2024.2.0,59.95764591749849,2026-01-21 15h26.03.022666 +0530,
49,0,50,n,4.019641799997771,None,50,0,49,340.4298245999962,,,,,,,,,,,,,,,,,,,,,,,,,,,,,,,,,,,,,,,,,,,,,,,,,,340.414332299988,340.4298245999962,340.94821059997776,340.91364189999877,340.94593609997537,340.94821059997776,340.94821059997776,340.94821059997776,344.98030149997794,Foils\scenes18.jpg,none,n,4.019641799997771,None,,,,,,,,00031,001,2026-01-21_15h25.55.946,MST_test,2024.2.0,59.95764591749849,2026-01-21 15h26.03.022666 +0530,
50,0,51,o,1.467631599982269,None,51,0,50,344.9960941999743,,,,,,,,,,,,,,,,,,,,,,,,,,,,,,,,,,,,,,,,,,,,,,,,,,344.98069709999254,344.9960941999743,345.5162675999745,345.47989679998136,345.5141573000001,345.5162675999745,345.5162675999745,345.5162675999745,346.99746359998244,Objects\028b.jpg,post,o,1.467631599982269,None,,,,,,,,00031,001,2026-01-21_15h25.55.946,MST_test,2024.2.0,59.95764591749849,2026-01-21 15h26.03.022666 +0530,
51,0,52,s,1.4873809000127949,None,52,0,51,347.01343529997393,,,,,,,,,,,,,,,,,,,,,,,,,,,,,,,,,,,,,,,,,,,,,,,,,,346.9978118999861,347.01343529997393,347.5371152999869,347.49739859998226,347.5346110999817,347.5371152999869,347.5371152999869,347.5371152999869,349.0303275999904,Objects\135b.jpg,mid,s,1.4873809000127949,None,,,,,,,,00031,001,2026-01-21_15h25.55.946,MST_test,2024.2.0,59.95764591749849,2026-01-21 15h26.03.022666 +0530,
52,0,53,s,1.4375235000043176,None,53,0,52,349.04655400000047,,,,,,,,,,,,,,,,,,,,,,,,,,,,,,,,,,,,,,,,,,,,,,,,,,349.03069749998394,349.04655400000047,349.54696259999764,349.5302277999872,349.536160299991,349.54696259999764,349.54696259999764,349.54696259999764,350.9972008999903,Scenes\053a.jpg,pre,s,1.4375235000043176,None,,,,,,,,00031,001,2026-01-21_15h25.55.946,MST_test,2024.2.0,59.95764591749849,2026-01-21 15h26.03.022666 +0530,
53,0,54,n,4.136127300007502,None,54,0,53,351.01327070000116,,,,,,,,,,,,,,,,,,,,,,,,,,,,,,,,,,,,,,,,,,,,,,,,,,350.9975497999985,351.01327070000116,351.52802800000063,351.4967946999823,351.5259126999881,351.52802800000063,351.52802800000063,351.52802800000063,355.68032229997334,Foils\scenes7.jpg,none,n,4.136127300007502,None,,,,,,,,00031,001,2026-01-21_15h25.55.946,MST_test,2024.2.0,59.95764591749849,2026-01-21 15h26.03.022666 +0530,
54,0,55,o,2.107152299984591,None,55,0,54,355.6963872999768,,,,,,,,,,,,,,,,,,,,,,,,,,,,,,,,,,,,,,,,,,,,,,,,,,355.68075589998625,355.6963872999768,356.1982228999841,356.1802587999846,356.1959064999828,356.1982228999841,356.1982228999841,356.1982228999841,358.31357559998287,Scenes\126a.jpg,mid,o,2.107152299984591,None,,,,,,,,00031,001,2026-01-21_15h25.55.946,MST_test,2024.2.0,59.95764591749849,2026-01-21 15h26.03.022666 +0530,
55,0,56,o,1.2412968999997247,None,56,0,55,358.3298196999822,,,,,,,,,,,,,,,,,,,,,,,,,,,,,,,,,,,,,,,,,,,,,,,,,,358.31393169998773,358.3298196999822,358.8304089999874,358.81362839997746,358.8204003999999,358.8304089999874,358.8304089999874,358.8304089999874,360.08021379998536,Objects\107a.jpg,post,o,1.2412968999997247,None,,,,,,,,00031,001,2026-01-21_15h25.55.946,MST_test,2024.2.0,59.95764591749849,2026-01-21 15h26.03.022666 +0530,
56,0,57,s,1.3891045000054874,None,57,0,56,360.0965503999905,,,,,,,,,,,,,,,,,,,,,,,,,,,,,,,,,,,,,,,,,,,,,,,,,,360.08057089999784,360.0965503999905,360.64286959997844,360.58023739999044,360.64032269999734,360.64286959997844,360.64286959997844,360.64286959997844,362.04759899998317,Scenes\159b.jpg,mid,s,1.3891045000054874,None,,,,,,,,00031,001,2026-01-21_15h25.55.946,MST_test,2024.2.0,59.95764591749849,2026-01-21 15h26.03.022666 +0530,
57,0,58,s,1.3553188999940176,None,58,0,57,362.0632233999786,,,,,,,,,,,,,,,,,,,,,,,,,,,,,,,,,,,,,,,,,,,,,,,,,,362.0479543999827,362.0632233999786,362.58076019998407,362.5469104999793,362.577738699998,362.58076019998407,362.58076019998407,362.58076019998407,363.94715239998186,Objects\010b.jpg,post,s,1.3553188999940176,None,,,,,,,,00031,001,2026-01-21_15h25.55.946,MST_test,2024.2.0,59.95764591749849,2026-01-21 15h26.03.022666 +0530,
58,0,59,o,1.534395399998175,None,59,0,58,363.96323929997743,,,,,,,,,,,,,,,,,,,,,,,,,,,,,,,,,,,,,,,,,,,,,,,,,,363.94753299999866,363.96323929997743,364.46560840000166,364.4468919999781,364.46298909999314,364.46560840000166,364.46560840000166,364.46560840000166,366.01389299999573,Scenes\109a.jpg,mid,o,1.534395399998175,None,,,,,,,,00031,001,2026-01-21_15h25.55.946,MST_test,2024.2.0,59.95764591749849,2026-01-21 15h26.03.022666 +0530,
59,0,60,n,4.318870099988999,None,60,0,59,366.0296967999893,,,,,,,,,,,,,,,,,,,,,,,,,,,,,,,,,,,,,,,,,,,,,,,,,,366.01424739998765,366.0296967999893,,366.51481819999753,366.5424851999851,366.5449326999951,366.5449326999951,366.5449326999951,370.88040099997306,Foils\058a.jpg,none,n,4.318870099988999,None,,,,,,,,00031,001,2026-01-21_15h25.55.946,MST_test,2024.2.0,59.95764591749849,2026-01-21 15h26.03.022666 +0530,
60,0,61,s,7.25923930000863,None,61,0,60,370.89627129997825,,,,,,,,,,,,,,,,,,,,,,,,,,,,,,,,,,,,,,,,,,,,,,,,,,370.8807801999792,370.89627129997825,371.4292797999806,371.38021239999216,371.4265240999812,371.4292797999806,371.4292797999806,371.4292797999806,378.6971925999969,Scenes\169b.jpg,pre,s,7.25923930000863,None,,,,,,,,00031,001,2026-01-21_15h25.55.946,MST_test,2024.2.0,59.95764591749849,2026-01-21 15h26.03.022666 +0530,
61,0,62,n,6.709974199999124,None,62,0,61,378.71319289997336,,,,,,,,,,,,,,,,,,,,,,,,,,,,,,,,,,,,,,,,,,,,,,,,,,378.69755789998453,378.71319289997336,379.2265233999933,379.1970154999872,379.2229654999974,379.2265233999933,379.2265233999933,379.2265233999933,385.94727269999566,Foils\scenes19.jpg,none,n,6.709974199999124,None,,,,,,,,00031,001,2026-01-21_15h25.55.946,MST_test,2024.2.0,59.95764591749849,2026-01-21 15h26.03.022666 +0530,
62,0,63,o,1.064723600022262,None,63,0,62,385.9632272000017,,,,,,,,,,,,,,,,,,,,,,,,,,,,,,,,,,,,,,,,,,,,,,,,,,385.94763260000036,385.9632272000017,386.46329179999884,386.44684399999096,386.45679719999316,386.46329179999884,386.46329179999884,386.46329179999884,387.530244900001,Objects\081a.jpg,post,o,1.064723600022262,None,,,,,,,,00031,001,2026-01-21_15h25.55.946,MST_test,2024.2.0,59.95764591749849,2026-01-21 15h26.03.022666 +0530,
63,0,64,o,0.9719611000036821,None,64,0,63,387.54630389998783,,,,,,,,,,,,,,,,,,,,,,,,,,,,,,,,,,,,,,,,,,,,,,,,,,387.53059529999155,387.54630389998783,388.06851909999386,388.0303027999762,388.0660726999922,388.06851909999386,388.06851909999386,388.06851909999386,389.0472114000004,Scenes\079b.jpg,post,o,0.9719611000036821,None,,,,,,,,00031,001,2026-01-21_15h25.55.946,MST_test,2024.2.0,59.95764591749849,2026-01-21 15h26.03.022666 +0530,
64,0,65,o,0.744624200015096,None,65,0,64,389.06316789999255,,,,,,,,,,,,,,,,,,,,,,,,,,,,,,,,,,,,,,,,,,,,,,,,,,389.0475686999853,389.06316789999255,389.5838686999923,389.54698999997345,389.5810571999755,389.5838686999923,389.5838686999923,389.5838686999923,390.33021929999813,Objects\001b.jpg,post,o,0.744624200015096,None,,,,,,,,00031,001,2026-01-21_15h25.55.946,MST_test,2024.2.0,59.95764591749849,2026-01-21 15h26.03.022666 +0530,
65,0,66,o,0.759440399997402,None,66,0,65,390.3462034999975,,,,,,,,,,,,,,,,,,,,,,,,,,,,,,,,,,,,,,,,,,,,,,,,,,390.3305717999756,390.3462034999975,,390.830499099975,390.84628849997534,390.8490591000009,390.8490591000009,390.8490591000009,391.6135766999796,Scenes\027a.jpg,mid,o,0.759440399997402,None,,,,,,,,00031,001,2026-01-21_15h25.55.946,MST_test,2024.2.0,59.95764591749849,2026-01-21 15h26.03.022666 +0530,
66,0,67,s,1.5915365000255406,None,67,0,66,391.6300904999953,,,,,,,,,,,,,,,,,,,,,,,,,,,,,,,,,,,,,,,,,,,,,,,,,,391.6139489999914,391.6300904999953,392.15258239998366,392.11356909997994,392.1498117999872,392.15258239998366,392.15258239998366,392.15258239998366,393.74707029998535,Objects\109b.jpg,mid,s,1.5915365000255406,None,,,,,,,,00031,001,2026-01-21_15h25.55.946,MST_test,2024.2.0,59.95764591749849,2026-01-21 15h26.03.022666 +0530,
67,0,68,s,4.633572200022172,None,68,0,67,393.76292709997506,,,,,,,,,,,,,,,,,,,,,,,,,,,,,,,,,,,,,,,,,,,,,,,,,,393.7474170999776,393.76292709997506,394.3104955999879,394.2467001999903,394.30672379999305,394.3104955999879,394.3104955999879,394.3104955999879,398.94698219999555,Foils\scenes6.jpg,none,s,4.633572200022172,None,,,,,,,,00031,001,2026-01-21_15h25.55.946,MST_test,2024.2.0,59.95764591749849,2026-01-21 15h26.03.022666 +0530,
68,0,69,o,1.1118397999962326,None,69,0,68,398.96311509999214,,,,,,,,,,,,,,,,,,,,,,,,,,,,,,,,,,,,,,,,,,,,,,,,,,398.94733999998425,398.96311509999214,399.46396729999105,399.4468658999831,399.4585514999926,399.46396729999105,399.46396729999105,399.46396729999105,400.5801572999917,Objects\181a.jpg,post,o,1.1118397999962326,None,,,,,,,,00031,001,2026-01-21_15h25.55.946,MST_test,2024.2.0,59.95764591749849,2026-01-21 15h26.03.022666 +0530,
69,0,70,o,2.8154980999825057,None,70,0,69,400.59656819998054,,,,,,,,,,,,,,,,,,,,,,,,,,,,,,,,,,,,,,,,,,,,,,,,,,400.5805130999943,400.59656819998054,,401.08035039997776,401.09191389998887,401.0973164999741,401.0973164999741,401.0973164999741,403.9146112999879,Scenes\138a.jpg,mid,o,2.8154980999825057,None,,,,,,,,00031,001,2026-01-21_15h25.55.946,MST_test,2024.2.0,59.95764591749849,2026-01-21 15h26.03.022666 +0530,
70,0,71,o,2.750331699993694,None,71,0,70,403.9299608999863,,,,,,,,,,,,,,,,,,,,,,,,,,,,,,,,,,,,,,,,,,,,,,,,,,403.914970599988,403.9299608999863,404.44963309998275,404.4136756999942,404.44610380000086,404.44963309998275,404.44963309998275,404.44963309998275,407.21376449998934,Objects\166b.jpg,pre,o,2.750331699993694,None,,,,,,,,00031,001,2026-01-21_15h25.55.946,MST_test,2024.2.0,59.95764591749849,2026-01-21 15h26.03.022666 +0530,
71,0,72,s,5.51701119999052,None,72,0,71,407.2295080999902,,,,,,,,,,,,,,,,,,,,,,,,,,,,,,,,,,,,,,,,,,,,,,,,,,407.214118599979,407.2295080999902,407.762937099993,407.71364000000176,407.76040169998305,407.762937099993,407.762937099993,407.762937099993,413.2807677999954,Scenes\071b.jpg,post,s,5.51701119999052,None,,,,,,,,00031,001,2026-01-21_15h25.55.946,MST_test,2024.2.0,59.95764591749849,2026-01-21 15h26.03.022666 +0530,
72,0,73,s,4.475655599992024,None,73,0,72,413.29649509998853,,,,,,,,,,,,,,,,,,,,,,,,,,,,,,,,,,,,,,,,,,,,,,,,,,413.28112339999643,413.29649509998853,413.8204469999764,413.7802954999788,413.8165371999785,413.8204469999764,413.8204469999764,413.8204469999764,418.29731619998347,Foils\042a.jpg,none,s,4.475655599992024,None,,,,,,,,00031,001,2026-01-21_15h25.55.946,MST_test,2024.2.0,59.95764591749849,2026-01-21 15h26.03.022666 +0530,
73,0,74,s,1.124235299997963,None,74,0,73,418.3132893999864,,,,,,,,,,,,,,,,,,,,,,,,,,,,,,,,,,,,,,,,,,,,,,,,,,418.2976650999917,418.3132893999864,418.82819419997395,418.7969041999895,418.82616789999884,418.82819419997395,418.82819419997395,418.82819419997395,419.96387779997895,Objects\073b.jpg,post,s,1.124235299997963,None,,,,,,,,00031,001,2026-01-21_15h25.55.946,MST_test,2024.2.0,59.95764591749849,2026-01-21 15h26.03.022666 +0530,
74,0,75,s,1.1686355999845546,None,75,0,74,419.9799134999921,,,,,,,,,,,,,,,,,,,,,,,,,,,,,,,,,,,,,,,,,,,,,,,,,,419.9642216999782,419.9799134999921,420.5112420999794,420.46365499999956,420.50914129999,420.5112420999794,420.5112420999794,420.5112420999794,421.6806159999978,Objects\116b.jpg,post,s,1.1686355999845546,None,,,,,,,,00031,001,2026-01-21_15h25.55.946,MST_test,2024.2.0,59.95764591749849,2026-01-21 15h26.03.022666 +0530,
75,0,76,o,3.418885799997952,None,76,0,75,421.6965002999932,,,,,,,,,,,,,,,,,,,,,,,,,,,,,,,,,,,,,,,,,,,,,,,,,,421.68100449998747,421.6965002999932,422.1969341999793,422.1800760999904,422.18876839999575,422.1969341999793,422.1969341999793,422.1969341999793,425.63055109998095,Objects\031a.jpg,pre,o,3.418885799997952,None,,,,,,,,00031,001,2026-01-21_15h25.55.946,MST_test,2024.2.0,59.95764591749849,2026-01-21 15h26.03.022666 +0530,
76,0,77,o,5.781548400002066,None,77,0,76,425.64617759999237,,,,,,,,,,,,,,,,,,,,,,,,,,,,,,,,,,,,,,,,,,,,,,,,,,425.63090249997913,425.64617759999237,426.1708884999971,426.129996499978,426.1682227999845,426.1708884999971,426.1708884999971,426.1708884999971,431.9638605999935,Objects\086b.jpg,post,o,5.781548400002066,None,,,,,,,,00031,001,2026-01-21_15h25.55.946,MST_test,2024.2.0,59.95764591749849,2026-01-21 15h26.03.022666 +0530,
77,0,78,s,2.561547299992526,None,78,0,77,431.97989859999507,,,,,,,,,,,,,,,,,,,,,,,,,,,,,,,,,,,,,,,,,,,,,,,,,,431.9642080999911,431.97989859999507,432.51098669998464,432.4635151999828,432.5083938999742,432.51098669998464,432.51098669998464,432.51098669998464,435.0808685999946,Scenes\192b.jpg,post,s,2.561547299992526,None,,,,,,,,00031,001,2026-01-21_15h25.55.946,MST_test,2024.2.0,59.95764591749849,2026-01-21 15h26.03.022666 +0530,
78,0,79,s,1.688211800006684,None,79,0,78,435.0964945000014,,,,,,,,,,,,,,,,,,,,,,,,,,,,,,,,,,,,,,,,,,,,,,,,,,435.08121849998133,435.0964945000014,435.6239849999838,435.58006089998526,435.62115779999294,435.6239849999838,435.6239849999838,435.6239849999838,437.31361939999624,Scenes\184b.jpg,pre,s,1.688211800006684,None,,,,,,,,00031,001,2026-01-21_15h25.55.946,MST_test,2024.2.0,59.95764591749849,2026-01-21 15h26.03.022666 +0530,
79,0,80,s,1.7623356000112835,None,80,0,79,437.329680899973,,,,,,,,,,,,,,,,,,,,,,,,,,,,,,,,,,,,,,,,,,,,,,,,,,437.3139733999851,437.329680899973,437.869609699992,437.8133788999985,437.86665769998217,437.869609699992,437.869609699992,437.869609699992,439.6468882999907,Scenes\179b.jpg,pre,s,1.7623356000112835,None,,,,,,,,00031,001,2026-01-21_15h25.55.946,MST_test,2024.2.0,59.95764591749849,2026-01-21 15h26.03.022666 +0530,
80,0,81,s,4.733915699995123,None,81,0,80,439.6631734999828,,,,,,,,,,,,,,,,,,,,,,,,,,,,,,,,,,,,,,,,,,,,,,,,,,439.64723249999224,439.6631734999828,440.20193109998945,440.1469821999781,440.19937049999135,440.20193109998945,440.20193109998945,440.20193109998945,444.94712339999387,Scenes\176b.jpg,mid,s,4.733915699995123,None,,,,,,,,00031,001,2026-01-21_15h25.55.946,MST_test,2024.2.0,59.95764591749849,2026-01-21 15h26.03.022666 +0530,
81,0,82,n,4.5899641000141855,None,82,0,81,444.9630422999908,,,,,,,,,,,,,,,,,,,,,,,,,,,,,,,,,,,,,,,,,,,,,,,,,,444.947471499996,444.9630422999908,445.48240859998623,445.44702569997753,445.47996159998,445.48240859998623,445.48240859998623,445.48240859998623,450.0811584999901,Foils\081a.jpg,none,n,4.5899641000141855,None,,,,,,,,00031,001,2026-01-21_15h25.55.946,MST_test,2024.2.0,59.95764591749849,2026-01-21 15h26.03.022666 +0530,
82,0,83,o,1.8626209999783896,None,83,0,82,450.09627169999294,,,,,,,,,,,,,,,,,,,,,,,,,,,,,,,,,,,,,,,,,,,,,,,,,,450.08147799997823,450.09627169999294,450.61722639997606,450.5802363999828,450.61475559999235,450.61722639997606,450.61722639997606,450.61722639997606,452.4806099999987,Objects\075b.jpg,mid,o,1.8626209999783896,None,,,,,,,,00031,001,2026-01-21_15h25.55.946,MST_test,2024.2.0,59.95764591749849,2026-01-21 15h26.03.022666 +0530,
83,0,84,s,1.4734870999818668,None,84,0,83,452.49657609997666,,,,,,,,,,,,,,,,,,,,,,,,,,,,,,,,,,,,,,,,,,,,,,,,,,452.4809649999952,452.49657609997666,453.01404069998534,452.9802855999733,453.01192349998746,453.01404069998534,453.01404069998534,453.01404069998534,454.49799989999156,Objects\076b.jpg,pre,s,1.4734870999818668,None,,,,,,,,00031,001,2026-01-21_15h25.55.946,MST_test,2024.2.0,59.95764591749849,2026-01-21 15h26.03.022666 +0530,
84,0,85,o,1.2748706999991555,None,85,0,84,454.5128024999867,,,,,,,,,,,,,,,,,,,,,,,,,,,,,,,,,,,,,,,,,,,,,,,,,,454.49837839999236,454.5128024999867,455.01355039997725,454.99661929998547,455.00599449998117,455.01355039997725,455.01355039997725,455.01355039997725,456.29745289997663,Scenes\151a.jpg,pre,o,1.2748706999991555,None,,,,,,,,00031,001,2026-01-21_15h25.55.946,MST_test,2024.2.0,59.95764591749849,2026-01-21 15h26.03.022666 +0530,
85,0,86,o,1.2548138000129256,None,86,0,85,456.3129920999927,,,,,,,,,,,,,,,,,,,,,,,,,,,,,,,,,,,,,,,,,,,,,,,,,,456.297866399982,456.3129920999927,456.865258899983,456.79693519999273,456.8625569999858,456.865258899983,456.865258899983,456.865258899983,458.13094099998125,Scenes\010b.jpg,pre,o,1.2548138000129256,None,,,,,,,,00031,001,2026-01-21_15h25.55.946,MST_test,2024.2.0,59.95764591749849,2026-01-21 15h26.03.022666 +0530,
86,0,87,o,1.169031500001438,None,87,0,86,458.1462843999907,,,,,,,,,,,,,,,,,,,,,,,,,,,,,,,,,,,,,,,,,,,,,,,,,,458.13129130000016,458.1462843999907,458.647060599993,458.6305296999926,458.64434949998395,458.647060599993,458.647060599993,458.647060599993,459.8305950999784,Scenes\111a.jpg,mid,o,1.169031500001438,None,,,,,,,,00031,001,2026-01-21_15h25.55.946,MST_test,2024.2.0,59.95764591749849,2026-01-21 15h26.03.022666 +0530,
87,0,88,s,3.364670800016029,None,88,0,87,459.84645979999914,,,,,,,,,,,,,,,,,,,,,,,,,,,,,,,,,,,,,,,,,,,,,,,,,,459.8309642999957,459.84645979999914,460.34784499998204,460.3303077999735,460.33831689998624,460.34784499998204,460.34784499998204,460.34784499998204,463.71384519999265,Objects\147a.jpg,post,s,3.364670800016029,None,,,,,,,,00031,001,2026-01-21_15h25.55.946,MST_test,2024.2.0,59.95764591749849,2026-01-21 15h26.03.022666 +0530,
88,0,89,o,1.2420123999763746,None,89,0,88,463.7299054999894,,,,,,,,,,,,,,,,,,,,,,,,,,,,,,,,,,,,,,,,,,,,,,,,,,463.71418699997594,463.7299054999894,464.23025929997675,464.2133227000013,464.2220489999745,464.23025929997675,464.23025929997675,464.23025929997675,465.48054389999015,Objects\002a.jpg,mid,o,1.2420123999763746,None,,,,,,,,00031,001,2026-01-21_15h25.55.946,MST_test,2024.2.0,59.95764591749849,2026-01-21 15h26.03.022666 +0530,
89,0,90,n,5.123090699984459,None,90,0,89,465.49626149999676,,,,,,,,,,,,,,,,,,,,,,,,,,,,,,,,,,,,,,,,,,,,,,,,,,465.48089809998055,465.49626149999676,466.0128430999757,465.98069709999254,466.01083819998894,466.0128430999757,466.0128430999757,466.0128430999757,471.14708339999197,Foils\050a.jpg,none,n,5.123090699984459,None,,,,,,,,00031,001,2026-01-21_15h25.55.946,MST_test,2024.2.0,59.95764591749849,2026-01-21 15h26.03.022666 +0530,
90,0,91,n,3.1639607999823056,None,91,0,90,471.1629912999924,,,,,,,,,,,,,,,,,,,,,,,,,,,,,,,,,,,,,,,,,,,,,,,,,,471.147444000002,471.1629912999924,471.68395629999577,471.6470209999825,471.68167829999584,471.68395629999577,471.68395629999577,471.68395629999577,474.863835999975,Foils\scenes16.jpg,none,n,3.1639607999823056,None,,,,,,,,00031,001,2026-01-21_15h25.55.946,MST_test,2024.2.0,59.95764591749849,2026-01-21 15h26.03.022666 +0530,
91,0,92,o,1.284093499998562,None,92,0,91,474.87977439997485,,,,,,,,,,,,,,,,,,,,,,,,,,,,,,,,,,,,,,,,,,,,,,,,,,474.8641983999987,474.87977439997485,475.37996529997326,475.36342029998195,475.376521499973,475.37996529997326,475.37996529997326,475.37996529997326,476.68062989998725,Objects\167a.jpg,mid,o,1.284093499998562,None,,,,,,,,00031,001,2026-01-21_15h25.55.946,MST_test,2024.2.0,59.95764591749849,2026-01-21 15h26.03.022666 +0530,
92,0,93,n,4.045178500004113,None,93,0,92,476.6963618999871,,,,,,,,,,,,,,,,,,,,,,,,,,,,,,,,,,,,,,,,,,,,,,,,,,476.6809875999752,476.6963618999871,477.218979999976,477.1806771999982,477.21656159998383,477.218979999976,477.218979999976,477.218979999976,481.2799842999957,Foils\098a.jpg,none,n,4.045178500004113,None,,,,,,,,00031,001,2026-01-21_15h25.55.946,MST_test,2024.2.0,59.95764591749849,2026-01-21 15h26.03.022666 +0530,
93,0,94,o,1.0990396999986842,None,94,0,93,481.2966720999975,,,,,,,,,,,,,,,,,,,,,,,,,,,,,,,,,,,,,,,,,,,,,,,,,,481.28032619997975,481.2966720999975,481.79683529998874,481.78031299999566,481.7867882999999,481.79683529998874,481.79683529998874,481.79683529998874,482.89719309998327,Objects\127a.jpg,pre,o,1.0990396999986842,None,,,,,,,,00031,001,2026-01-21_15h25.55.946,MST_test,2024.2.0,59.95764591749849,2026-01-21 15h26.03.022666 +0530,
94,0,95,o,1.6012492000008933,None,95,0,94,482.9131951999734,,,,,,,,,,,,,,,,,,,,,,,,,,,,,,,,,,,,,,,,,,,,,,,,,,482.89753489999566,482.9131951999734,483.4144793000014,483.39701539999805,483.4121363000013,483.4144793000014,483.4144793000014,483.4144793000014,485.03022379998583,Scenes\083a.jpg,post,o,1.6012492000008933,None,,,,,,,,00031,001,2026-01-21_15h25.55.946,MST_test,2024.2.0,59.95764591749849,2026-01-21 15h26.03.022666 +0530,
95,0,96,o,2.9107469000155106,None,96,0,95,485.0463324000011,,,,,,,,,,,,,,,,,,,,,,,,,,,,,,,,,,,,,,,,,,,,,,,,,,485.03058669998427,485.0463324000011,,485.53090009998414,485.5504644999746,485.55307419999735,485.55307419999735,485.55307419999735,488.48025149997557,Scenes\013a.jpg,pre,o,2.9107469000155106,None,,,,,,,,00031,001,2026-01-21_15h25.55.946,MST_test,2024.2.0,59.95764591749849,2026-01-21 15h26.03.022666 +0530,
96,0,97,o,3.6985702000092715,None,97,0,96,488.4965922999836,,,,,,,,,,,,,,,,,,,,,,,,,,,,,,,,,,,,,,,,,,,,,,,,,,488.48059929997544,488.4965922999836,488.9972263999807,488.9801098999742,488.9862965999928,488.9972263999807,488.9972263999807,488.9972263999807,492.6972172999813,Objects\066a.jpg,post,o,3.6985702000092715,None,,,,,,,,00031,001,2026-01-21_15h25.55.946,MST_test,2024.2.0,59.95764591749849,2026-01-21 15h26.03.022666 +0530,
97,0,98,s,1.4346654000109993,None,98,0,97,492.7132013999799,,,,,,,,,,,,,,,,,,,,,,,,,,,,,,,,,,,,,,,,,,,,,,,,,,492.69756219998817,492.7132013999799,493.23733879998326,493.19698349997634,493.2347231999738,493.23733879998326,493.23733879998326,493.23733879998326,494.6805828999786,Scenes\051b.jpg,pre,s,1.4346654000109993,None,,,,,,,,00031,001,2026-01-21_15h25.55.946,MST_test,2024.2.0,59.95764591749849,2026-01-21 15h26.03.022666 +0530,
98,0,99,s,1.321387500007404,None,99,0,98,494.69640699998126,,,,,,,,,,,,,,,,,,,,,,,,,,,,,,,,,,,,,,,,,,,,,,,,,,494.68092669997714,494.69640699998126,495.22266589998617,495.1803156999813,495.2191778999986,495.22266589998617,495.22266589998617,495.22266589998617,496.54686989999027,Objects\192b.jpg,pre,s,1.321387500007404,None,,,,,,,,00031,001,2026-01-21_15h25.55.946,MST_test,2024.2.0,59.95764591749849,2026-01-21 15h26.03.022666 +0530,
99,0,100,o,1.7120335999934468,None,100,0,99,496.5631977999874,,,,,,,,,,,,,,,,,,,,,,,,,,,,,,,,,,,,,,,,,,,,,,,,,,496.5472170999856,496.5631977999874,497.06394999998156,497.046989399998,497.06159459997434,497.06394999998156,497.06394999998156,497.06394999998156,498.78057179998723,Scenes\058a.jpg,mid,o,1.7120335999934468,None,,,,,,,,00031,001,2026-01-21_15h25.55.946,MST_test,2024.2.0,59.95764591749849,2026-01-21 15h26.03.022666 +0530,
100,0,101,o,1.4683881000091787,None,101,0,100,498.79639360000147,,,,,,,,,,,,,,,,,,,,,,,,,,,,,,,,,,,,,,,,,,,,,,,,,,498.78093709997484,498.79639360000147,499.29936049997923,499.2808005999832,499.29674649998196,499.29936049997923,499.29936049997923,499.29936049997923,500.780219999986,Scenes\154a.jpg,mid,o,1.4683881000091787,None,,,,,,,,00031,001,2026-01-21_15h25.55.946,MST_test,2024.2.0,59.95764591749849,2026-01-21 15h26.03.022666 +0530,
101,0,102,s,1.743113699980313,None,102,0,101,500.7965766999987,,,,,,,,,,,,,,,,,,,,,,,,,,,,,,,,,,,,,,,,,,,,,,,,,,500.78059089998715,500.7965766999987,501.2970196999959,501.28031459997874,501.2899211999902,501.2970196999959,501.2970196999959,501.2970196999959,503.04709269999876,Objects\036a.jpg,post,s,1.743113699980313,None,,,,,,,,00031,001,2026-01-21_15h25.55.946,MST_test,2024.2.0,59.95764591749849,2026-01-21 15h26.03.022666 +0530,
102,0,103,o,1.25210790001438,None,103,0,102,503.0628367999743,,,,,,,,,,,,,,,,,,,,,,,,,,,,,,,,,,,,,,,,,,,,,,,,,,503.0474338999775,503.0628367999743,503.5635293999803,503.54700479999883,503.55532980000135,503.5635293999803,503.5635293999803,503.5635293999803,504.83029019998503,Objects\155a.jpg,pre,o,1.25210790001438,None,,,,,,,,00031,001,2026-01-21_15h25.55.946,MST_test,2024.2.0,59.95764591749849,2026-01-21 15h26.03.022666 +0530,
103,0,104,n,2.3378733999852557,None,104,0,103,504.84625559998676,,,,,,,,,,,,,,,,,,,,,,,,,,,,,,,,,,,,,,,,,,,,,,,,,,504.83063919999404,504.84625559998676,505.35817359999055,505.3300780999998,505.35572549997596,505.35817359999055,505.35817359999055,505.35817359999055,507.6973970999825,Foils\090a.jpg,none,n,2.3378733999852557,None,,,,,,,,00031,001,2026-01-21_15h25.55.946,MST_test,2024.2.0,59.95764591749849,2026-01-21 15h26.03.022666 +0530,
104,0,105,s,3.584009399986826,None,105,0,104,507.7130082999938,,,,,,,,,,,,,,,,,,,,,,,,,,,,,,,,,,,,,,,,,,,,,,,,,,507.6977667999745,507.7130082999938,508.2403822999913,508.1966599999869,508.237870699988,508.2403822999913,508.2403822999913,508.2403822999913,511.8305967999913,Scenes\153b.jpg,pre,s,3.584009399986826,None,,,,,,,,00031,001,2026-01-21_15h25.55.946,MST_test,2024.2.0,59.95764591749849,2026-01-21 15h26.03.022666 +0530,
105,0,106,o,1.1407643999846186,None,106,0,105,511.8465773999924,,,,,,,,,,,,,,,,,,,,,,,,,,,,,,,,,,,,,,,,,,,,,,,,,,511.8309766999737,511.8465773999924,512.3470959999831,512.3303170999861,512.3410365999734,512.3470959999831,512.3470959999831,512.3470959999831,513.4973063999787,Objects\029a.jpg,post,o,1.1407643999846186,None,,,,,,,,00031,001,2026-01-21_15h25.55.946,MST_test,2024.2.0,59.95764591749849,2026-01-21 15h26.03.022666 +0530,
106,0,107,o,1.204429400007939,None,107,0,106,513.5131729999848,,,,,,,,,,,,,,,,,,,,,,,,,,,,,,,,,,,,,,,,,,,,,,,,,,513.4976499999757,513.5131729999848,514.059597799991,513.9970059999905,514.0569031999912,514.059597799991,514.059597799991,514.059597799991,515.2807465999795,Scenes\017b.jpg,pre,o,1.204429400007939,None,,,,,,,,00031,001,2026-01-21_15h25.55.946,MST_test,2024.2.0,59.95764591749849,2026-01-21 15h26.03.022666 +0530,
107,0,108,o,1.256212999986019,None,108,0,107,515.2968328999996,,,,,,,,,,,,,,,,,,,,,,,,,,,,,,,,,,,,,,,,,,,,,,,,,,515.2811221999873,515.2968328999996,515.7995419999934,515.7801943999948,515.7969764999871,515.7995419999934,515.7995419999934,515.7995419999934,517.0635392999975,Scenes\068a.jpg,post,o,1.256212999986019,None,,,,,,,,00031,001,2026-01-21_15h25.55.946,MST_test,2024.2.0,59.95764591749849,2026-01-21 15h26.03.022666 +0530,
108,0,109,s,5.450935300003039,None,109,0,108,517.079639899981,,,,,,,,,,,,,,,,,,,,,,,,,,,,,,,,,,,,,,,,,,,,,,,,,,517.0638862999913,517.079639899981,517.5888757999928,517.5634775999933,517.586375999992,517.5888757999928,517.5888757999928,517.5888757999928,523.047257499973,Scenes\180a.jpg,pre,s,5.450935300003039,None,,,,,,,,00031,001,2026-01-21_15h25.55.946,MST_test,2024.2.0,59.95764591749849,2026-01-21 15h26.03.022666 +0530,
109,0,110,o,1.100380399991991,None,110,0,109,523.0632815999852,,,,,,,,,,,,,,,,,,,,,,,,,,,,,,,,,,,,,,,,,,,,,,,,,,523.0477390000015,523.0632815999852,523.5635900999769,523.5470073999895,523.5595730999776,523.5635900999769,523.5635900999769,523.5635900999769,524.680490699975,Objects\132a.jpg,pre,o,1.100380399991991,None,,,,,,,,00031,001,2026-01-21_15h25.55.946,MST_test,2024.2.0,59.95764591749849,2026-01-21 15h26.03.022666 +0530,
110,0,111,n,2.6521569000033196,None,111,0,110,524.6962082999817,,,,,,,,,,,,,,,,,,,,,,,,,,,,,,,,,,,,,,,,,,,,,,,,,,524.6808357999835,524.6962082999817,525.2119189999939,525.1799294999801,525.2098480999994,525.2119189999939,525.2119189999939,525.2119189999939,527.8805997000018,Foils\097a.jpg,none,n,2.6521569000033196,None,,,,,,,,00031,001,2026-01-21_15h25.55.946,MST_test,2024.2.0,59.95764591749849,2026-01-21 15h26.03.022666 +0530,
111,0,112,s,1.6212009000009857,None,112,0,111,527.8964349000016,,,,,,,,,,,,,,,,,,,,,,,,,,,,,,,,,,,,,,,,,,,,,,,,,,527.8809646999871,527.8964349000016,528.4038306000002,528.3802637999761,528.4020108999975,528.4038306000002,528.4038306000002,528.4038306000002,530.0304830999812,Objects\171b.jpg,pre,s,1.6212009000009857,None,,,,,,,,00031,001,2026-01-21_15h25.55.946,MST_test,2024.2.0,59.95764591749849,2026-01-21 15h26.03.022666 +0530,
112,0,113,o,1.2034187999961432,None,113,0,112,530.0466062999913,,,,,,,,,,,,,,,,,,,,,,,,,,,,,,,,,,,,,,,,,,,,,,,,,,530.0308247999928,530.0466062999913,530.5490085999772,530.5302561999997,530.5464539999957,530.5490085999772,530.5490085999772,530.5490085999772,531.7637754999741,Scenes\011a.jpg,post,o,1.2034187999961432,None,,,,,,,,00031,001,2026-01-21_15h25.55.946,MST_test,2024.2.0,59.95764591749849,2026-01-21 15h26.03.022666 +0530,
113,0,114,s,2.651864099985687,None,114,0,113,531.779672899982,,,,,,,,,,,,,,,,,,,,,,,,,,,,,,,,,,,,,,,,,,,,,,,,,,531.7641491999966,531.779672899982,532.3005101999734,532.263480900001,532.2977777999768,532.3005101999734,532.3005101999734,532.3005101999734,534.9639427999791,Foils\scenes27.jpg,none,s,2.651864099985687,None,,,,,,,,00031,001,2026-01-21_15h25.55.946,MST_test,2024.2.0,59.95764591749849,2026-01-21 15h26.03.022666 +0530,
114,0,115,o,2.296015100000659,None,115,0,114,534.9798485999927,,,,,,,,,,,,,,,,,,,,,,,,,,,,,,,,,,,,,,,,,,,,,,,,,,534.964290599979,534.9798485999927,535.480327199999,535.4636516999744,535.473234199977,535.480327199999,535.480327199999,535.480327199999,537.7805066999863,Objects\146a.jpg,pre,o,2.296015100000659,None,,,,,,,,00031,001,2026-01-21_15h25.55.946,MST_test,2024.2.0,59.95764591749849,2026-01-21 15h26.03.022666 +0530,
115,0,116,o,1.0391896000073757,None,116,0,115,537.7965728999989,,,,,,,,,,,,,,,,,,,,,,,,,,,,,,,,,,,,,,,,,,,,,,,,,,537.7808756000013,537.7965728999989,538.2966371999937,538.2801575999765,538.2888509999902,538.2966371999937,538.2966371999937,538.2966371999937,539.3472371999815,Objects\003a.jpg,mid,o,1.0391896000073757,None,,,,,,,,00031,001,2026-01-21_15h25.55.946,MST_test,2024.2.0,59.95764591749849,2026-01-21 15h26.03.022666 +0530,
116,0,117,o,0.8002557000145316,None,117,0,116,539.3630380999821,,,,,,,,,,,,,,,,,,,,,,,,,,,,,,,,,,,,,,,,,,,,,,,,,,539.3475804999762,539.3630380999821,539.8634918999742,539.8469908999978,539.8558980999805,539.8634918999742,539.8634918999742,539.8634918999742,540.664503499982,Objects\129a.jpg,pre,o,0.8002557000145316,None,,,,,,,,00031,001,2026-01-21_15h25.55.946,MST_test,2024.2.0,59.95764591749849,2026-01-21 15h26.03.022666 +0530,
117,0,118,n,1.2984486000204924,None,118,0,117,540.679856999981,,,,,,,,,,,,,,,,,,,,,,,,,,,,,,,,,,,,,,,,,,,,,,,,,,540.664867399988,540.679856999981,541.2140375000017,541.1637224000006,541.2102648,541.2140375000017,541.2140375000017,541.2140375000017,542.5138575999881,Foils\scenes28.jpg,none,n,1.2984486000204924,None,,,,,,,,00031,001,2026-01-21_15h25.55.946,MST_test,2024.2.0,59.95764591749849,2026-01-21 15h26.03.022666 +0530,
118,0,119,o,1.2031093999976292,None,119,0,118,542.529908699973,,,,,,,,,,,,,,,,,,,,,,,,,,,,,,,,,,,,,,,,,,,,,,,,,,542.5142034000019,542.529908699973,,543.0141640999936,543.034121899982,543.0372586000012,543.0372586000012,543.0372586000012,544.2471828999987,Scenes\130a.jpg,mid,o,1.2031093999976292,None,,,,,,,,00031,001,2026-01-21_15h25.55.946,MST_test,2024.2.0,59.95764591749849,2026-01-21 15h26.03.022666 +0530,
119,0,120,s,1.495916199986823,None,120,0,119,544.2632454999839,,,,,,,,,,,,,,,,,,,,,,,,,,,,,,,,,,,,,,,,,,,,,,,,,,544.2475481999863,544.2632454999839,544.7838088999852,544.7466999999888,544.7798457999888,544.7838088999852,544.7838088999852,544.7838088999852,546.28066389999,Objects\143b.jpg,pre,s,1.495916199986823,None,,,,,,,,00031,001,2026-01-21_15h25.55.946,MST_test,2024.2.0,59.95764591749849,2026-01-21 15h26.03.022666 +0530,
120,0,121,s,1.3939115999964997,None,121,0,120,546.2965163999761,,,,,,,,,,,,,,,,,,,,,,,,,,,,,,,,,,,,,,,,,,,,,,,,,,546.2810176999774,546.2965163999761,546.8217479999876,546.7800093999831,546.8191892999748,546.8217479999876,546.8217479999876,546.8217479999876,548.230279499985,Objects\113b.jpg,post,s,1.3939115999964997,None,,,,,,,,00031,001,2026-01-21_15h25.55.946,MST_test,2024.2.0,59.95764591749849,2026-01-21 15h26.03.022666 +0530,
121,0,122,o,3.22848220000742,None,122,0,121,548.2462980999844,,,,,,,,,,,,,,,,,,,,,,,,,,,,,,,,,,,,,,,,,,,,,,,,,,548.2306760999782,548.2462980999844,548.7467691999918,548.7303195999993,548.7384525999951,548.7467691999918,548.7467691999918,548.7467691999918,551.9796046999982,Objects\032a.jpg,pre,o,3.22848220000742,None,,,,,,,,00031,001,2026-01-21_15h25.55.946,MST_test,2024.2.0,59.95764591749849,2026-01-21 15h26.03.022666 +0530,
122,0,123,s,7.550774300005287,None,123,0,122,551.9964591999887,,,,,,,,,,,,,,,,,,,,,,,,,,,,,,,,,,,,,,,,,,,,,,,,,,551.9797126999765,551.9964591999887,,552.480181299994,552.5262740999751,552.528942999983,552.528942999983,552.528942999983,560.0807239999995,Scenes\165b.jpg,mid,s,7.550774300005287,None,,,,,,,,00031,001,2026-01-21_15h25.55.946,MST_test,2024.2.0,59.95764591749849,2026-01-21 15h26.03.022666 +0530,
123,0,124,o,4.047736400010763,None,124,0,123,560.0968215999892,,,,,,,,,,,,,,,,,,,,,,,,,,,,,,,,,,,,,,,,,,,,,,,,,,560.0811124999891,560.0968215999892,560.6000256999978,560.5801688999927,560.5978778999997,560.6000256999978,560.6000256999978,560.6000256999978,564.6482211999828,Scenes\030a.jpg,pre,o,4.047736400010763,None,,,,,,,,00031,001,2026-01-21_15h25.55.946,MST_test,2024.2.0,59.95764591749849,2026-01-21 15h26.03.022666 +0530,
124,0,125,n,1.3284403999859933,None,125,0,124,564.6631903999951,,,,,,,,,,,,,,,,,,,,,,,,,,,,,,,,,,,,,,,,,,,,,,,,,,564.6485694999865,564.6631903999951,565.1839510999853,565.1469496999925,565.1808087999816,565.1839510999853,565.1839510999853,565.1839510999853,566.5141374999948,Foils\009a.jpg,none,n,1.3284403999859933,None,,,,,,,,00031,001,2026-01-21_15h25.55.946,MST_test,2024.2.0,59.95764591749849,2026-01-21 15h26.03.022666 +0530,
125,0,126,s,2.0529612000100315,None,126,0,125,566.5299345999956,,,,,,,,,,,,,,,,,,,,,,,,,,,,,,,,,,,,,,,,,,,,,,,,,,566.5144865999755,566.5299345999956,567.0592641999829,567.0137484000006,567.0571409999975,567.0592641999829,567.0592641999829,567.0592641999829,569.1135818999901,Objects\104b.jpg,mid,s,2.0529612000100315,None,,,,,,,,00031,001,2026-01-21_15h25.55.946,MST_test,2024.2.0,59.95764591749849,2026-01-21 15h26.03.022666 +0530,
126,0,127,o,1.3695482999901287,None,127,0,126,569.1296032999817,,,,,,,,,,,,,,,,,,,,,,,,,,,,,,,,,,,,,,,,,,,,,,,,,,569.1139483999868,569.1296032999817,569.630150699988,569.6135486999992,569.6219353999768,569.630150699988,569.630150699988,569.630150699988,571.0138068999804,Objects\128a.jpg,mid,o,1.3695482999901287,None,,,,,,,,00031,001,2026-01-21_15h25.55.946,MST_test,2024.2.0,59.95764591749849,2026-01-21 15h26.03.022666 +0530,
127,0,128,s,1.6223002999904566,None,128,0,127,571.0296251999971,,,,,,,,,,,,,,,,,,,,,,,,,,,,,,,,,,,,,,,,,,,,,,,,,,571.0141743999848,571.0296251999971,571.5454467999807,571.5132490999822,571.5430657999823,571.5454467999807,571.5454467999807,571.5454467999807,573.1803419999778,Objects\103b.jpg,pre,s,1.6223002999904566,None,,,,,,,,00031,001,2026-01-21_15h25.55.946,MST_test,2024.2.0,59.95764591749849,2026-01-21 15h26.03.022666 +0530,
128,0,129,n,1.3482593000226188,None,129,0,128,573.1961814999813,,,,,,,,,,,,,,,,,,,,,,,,,,,,,,,,,,,,,,,,,,,,,,,,,,573.1807133999828,573.1961814999813,573.7157392999798,573.6802812999813,573.7132576000004,573.7157392999798,573.7157392999798,573.7157392999798,575.0810791999975,Foils\106a.jpg,none,n,1.3482593000226188,None,,,,,,,,00031,001,2026-01-21_15h25.55.946,MST_test,2024.2.0,59.95764591749849,2026-01-21 15h26.03.022666 +0530,
129,0,130,o,1.374887400015723,None,130,0,129,575.0965944999771,,,,,,,,,,,,,,,,,,,,,,,,,,,,,,,,,,,,,,,,,,,,,,,,,,575.0814497999963,575.0965944999771,575.6010516999813,575.5800148999842,575.5974074999976,575.6010516999813,575.6010516999813,575.6010516999813,576.9803459999966,Scenes\168a.jpg,pre,o,1.374887400015723,None,,,,,,,,00031,001,2026-01-21_15h25.55.946,MST_test,2024.2.0,59.95764591749849,2026-01-21 15h26.03.022666 +0530,
130,0,131,o,1.472353099990869,None,131,0,130,576.9966268999851,,,,,,,,,,,,,,,,,,,,,,,,,,,,,,,,,,,,,,,,,,,,,,,,,,576.980690299999,576.9966268999851,577.5034489999816,577.4804487999936,577.5008833999746,577.5034489999816,577.5034489999816,577.5034489999816,578.9803807999997,Scenes\187a.jpg,pre,o,1.472353099990869,None,,,,,,,,00031,001,2026-01-21_15h25.55.946,MST_test,2024.2.0,59.95764591749849,2026-01-21 15h26.03.022666 +0530,
131,0,132,s,1.4776519000006374,None,132,0,131,578.9963981999899,,,,,,,,,,,,,,,,,,,,,,,,,,,,,,,,,,,,,,,,,,,,,,,,,,578.980739599996,578.9963981999899,579.5140404999838,579.4800897999958,579.5113402999996,579.5140404999838,579.5140404999838,579.5140404999838,580.9977782999922,Objects\023b.jpg,mid,s,1.4776519000006374,None,,,,,,,,00031,001,2026-01-21_15h25.55.946,MST_test,2024.2.0,59.95764591749849,2026-01-21 15h26.03.022666 +0530,
132,0,133,s,2.2003328000137117,None,133,0,132,581.0131812999898,,,,,,,,,,,,,,,,,,,,,,,,,,,,,,,,,,,,,,,,,,,,,,,,,,580.9981242999784,581.0131812999898,581.5279988999828,581.4969875999959,581.5260353999911,581.5279988999828,581.5279988999828,581.5279988999828,583.7302377999877,Objects\096b.jpg,mid,s,2.2003328000137117,None,,,,,,,,00031,001,2026-01-21_15h25.55.946,MST_test,2024.2.0,59.95764591749849,2026-01-21 15h26.03.022666 +0530,
133,0,134,s,1.286745899997186,None,134,0,133,583.7465464999841,,,,,,,,,,,,,,,,,,,,,,,,,,,,,,,,,,,,,,,,,,,,,,,,,,583.7306068999751,583.7465464999841,584.2656026999757,584.2303259999899,584.2634892999777,584.2656026999757,584.2656026999757,584.2656026999757,585.5638479999907,Objects\110b.jpg,pre,s,1.286745899997186,None,,,,,,,,00031,001,2026-01-21_15h25.55.946,MST_test,2024.2.0,59.95764591749849,2026-01-21 15h26.03.022666 +0530,
134,0,135,n,17.66200400001253,None,135,0,134,585.5798680000007,,,,,,,,,,,,,,,,,,,,,,,,,,,,,,,,,,,,,,,,,,,,,,,,,,585.564200199995,585.5798680000007,586.0978323999734,586.0634850999922,586.0957540999807,586.0978323999734,586.0978323999734,586.0978323999734,603.7637582999887,Foils\074a.jpg,none,n,17.66200400001253,None,,,,,,,,00031,001,2026-01-21_15h25.55.946,MST_test,2024.2.0,59.95764591749849,2026-01-21 15h26.03.022666 +0530,
135,0,136,o,1.504115500021726,None,136,0,135,603.7802301999764,,,,,,,,,,,,,,,,,,,,,,,,,,,,,,,,,,,,,,,,,,,,,,,,,,603.7641691999743,603.7802301999764,604.2801583999826,604.2636827999959,604.2721380000003,604.2801583999826,604.2801583999826,604.2801583999826,605.7972394999815,Objects\016a.jpg,pre,o,1.504115500021726,None,,,,,,,,00031,001,2026-01-21_15h25.55.946,MST_test,2024.2.0,59.95764591749849,2026-01-21 15h26.03.022666 +0530,
136,0,137,s,4.527297299995553,None,137,0,136,605.813599999994,,,,,,,,,,,,,,,,,,,,,,,,,,,,,,,,,,,,,,,,,,,,,,,,,,605.7975827999762,605.813599999994,606.336634199979,606.2969916999864,606.3339227999968,606.336634199979,606.336634199979,606.336634199979,610.8803025999805,Objects\165b.jpg,pre,s,4.527297299995553,None,,,,,,,,00031,001,2026-01-21_15h25.55.946,MST_test,2024.2.0,59.95764591749849,2026-01-21 15h26.03.022666 +0530,
137,0,138,o,1.438411899987841,None,138,0,137,610.8965880999749,,,,,,,,,,,,,,,,,,,,,,,,,,,,,,,,,,,,,,,,,,,,,,,,,,610.8806528999994,610.8965880999749,,611.3809195999929,611.3994635999843,611.4019346999994,611.4019346999994,611.4019346999994,612.8472449999826,Scenes\025a.jpg,post,o,1.438411899987841,None,,,,,,,,00031,001,2026-01-21_15h25.55.946,MST_test,2024.2.0,59.95764591749849,2026-01-21 15h26.03.022666 +0530,
138,0,139,o,3.6123154999804683,None,139,0,138,612.8632019999786,,,,,,,,,,,,,,,,,,,,,,,,,,,,,,,,,,,,,,,,,,,,,,,,,,612.847592199978,612.8632019999786,613.3635518999945,613.3466293999809,613.3583452999883,613.3635518999945,613.3635518999945,613.3635518999945,616.9804586999817,Objects\056a.jpg,pre,o,3.6123154999804683,None,,,,,,,,00031,001,2026-01-21_15h25.55.946,MST_test,2024.2.0,59.95764591749849,2026-01-21 15h26.03.022666 +0530,
139,0,140,o,1.6860429999942426,None,140,0,139,616.9969848999754,,,,,,,,,,,,,,,,,,,,,,,,,,,,,,,,,,,,,,,,,,,,,,,,,,616.9808004999941,616.9969848999754,617.4975646999956,617.4798208999855,617.4903783999907,617.4975646999956,617.4975646999956,617.4975646999956,619.1970937000006,Scenes\113a.jpg,mid,o,1.6860429999942426,None,,,,,,,,00031,001,2026-01-21_15h25.55.946,MST_test,2024.2.0,59.95764591749849,2026-01-21 15h26.03.022666 +0530,
140,0,141,n,3.159714299981715,None,141,0,140,619.2131417999917,,,,,,,,,,,,,,,,,,,,,,,,,,,,,,,,,,,,,,,,,,,,,,,,,,619.1974680999992,619.2131417999917,619.7439714999928,619.6969941999996,619.7414176999882,619.7439714999928,619.7439714999928,619.7439714999928,622.9139067999786,Scenes\190b.jpg,post,n,3.159714299981715,None,,,,,,,,00031,001,2026-01-21_15h25.55.946,MST_test,2024.2.0,59.95764591749849,2026-01-21 15h26.03.022666 +0530,
141,0,142,n,1.4511711999948602,None,142,0,141,622.9305928999966,,,,,,,,,,,,,,,,,,,,,,,,,,,,,,,,,,,,,,,,,,,,,,,,,,622.9142799999972,622.9305928999966,623.4445356999931,623.4136015999829,623.4422601999831,623.4445356999931,623.4445356999931,623.4445356999931,624.8971464999777,Foils\scenes3.jpg,none,n,1.4511711999948602,None,,,,,,,,00031,001,2026-01-21_15h25.55.946,MST_test,2024.2.0,59.95764591749849,2026-01-21 15h26.03.022666 +0530,
142,0,143,o,4.868002500006696,None,143,0,142,624.9131401999912,,,,,,,,,,,,,,,,,,,,,,,,,,,,,,,,,,,,,,,,,,,,,,,,,,624.8974981999781,624.9131401999912,625.4282265999936,625.3966915999772,625.4258932999801,625.4282265999936,625.4282265999936,625.4282265999936,630.2981085999927,Scenes\046a.jpg,post,o,4.868002500006696,None,,,,,,,,00031,001,2026-01-21_15h25.55.946,MST_test,2024.2.0,59.95764591749849,2026-01-21 15h26.03.022666 +0530,
143,0,144,n,1.538640899991151,None,144,0,143,630.3129478999763,,,,,,,,,,,,,,,,,,,,,,,,,,,,,,,,,,,,,,,,,,,,,,,,,,630.2984662999806,630.3129478999763,630.8371812999831,630.7968026000017,630.8341654999822,630.8371812999831,630.8371812999831,630.8371812999831,632.380612399982,Foils\034a.jpg,none,n,1.538640899991151,None,,,,,,,,00031,001,2026-01-21_15h25.55.946,MST_test,2024.2.0,59.95764591749849,2026-01-21 15h26.03.022666 +0530,
144,0,145,n,1.3266316000081133,None,145,0,144,632.3963825999817,,,,,,,,,,,,,,,,,,,,,,,,,,,,,,,,,,,,,,,,,,,,,,,,,,632.3809722999868,632.3963825999817,632.8974576999899,632.8803310999938,632.8951440999808,632.8974576999899,632.8974576999899,632.8974576999899,634.2307622999942,Scenes\147a.jpg,mid,n,1.3266316000081133,None,,,,,,,,00031,001,2026-01-21_15h25.55.946,MST_test,2024.2.0,59.95764591749849,2026-01-21 15h26.03.022666 +0530,
145,0,146,n,1.505547500011744,None,146,0,145,634.2473413999833,,,,,,,,,,,,,,,,,,,,,,,,,,,,,,,,,,,,,,,,,,,,,,,,,,634.2311178999953,634.2473413999833,,634.7468583000009,634.7798269999912,634.7823796999874,634.7823796999874,634.7823796999874,636.297154299973,Foils\scenes4.jpg,none,n,1.505547500011744,None,,,,,,,,00031,001,2026-01-21_15h25.55.946,MST_test,2024.2.0,59.95764591749849,2026-01-21 15h26.03.022666 +0530,
146,0,147,s,4.905565700028092,None,147,0,146,636.3134464999894,,,,,,,,,,,,,,,,,,,,,,,,,,,,,,,,,,,,,,,,,,,,,,,,,,636.2975135000015,636.3134464999894,636.8621064999897,636.7969971999992,636.8591457000002,636.8621064999897,636.8621064999897,636.8621064999897,641.7805897999788,Scenes\026b.jpg,pre,s,4.905565700028092,None,,,,,,,,00031,001,2026-01-21_15h25.55.946,MST_test,2024.2.0,59.95764591749849,2026-01-21 15h26.03.022666 +0530,
147,0,148,n,1.2813112000003457,None,148,0,147,641.7965448999894,,,,,,,,,,,,,,,,,,,,,,,,,,,,,,,,,,,,,,,,,,,,,,,,,,641.780944099999,641.7965448999894,642.3029571999796,642.2798505999963,642.299632499984,642.3029571999796,642.3029571999796,642.3029571999796,643.5971806999878,Foils\scenes8.jpg,none,n,1.2813112000003457,None,,,,,,,,00031,001,2026-01-21_15h25.55.946,MST_test,2024.2.0,59.95764591749849,2026-01-21 15h26.03.022666 +0530,
148,0,149,o,1.422249199997168,None,149,0,148,643.6132612999936,,,,,,,,,,,,,,,,,,,,,,,,,,,,,,,,,,,,,,,,,,,,,,,,,,643.59752879999,643.6132612999936,644.1137440999737,644.0972408999805,644.1113946999831,644.1137440999737,644.1137440999737,644.1137440999737,645.5475874999829,Scenes\174a.jpg,post,o,1.422249199997168,None,,,,,,,,00031,001,2026-01-21_15h25.55.946,MST_test,2024.2.0,59.95764591749849,2026-01-21 15h26.03.022666 +0530,
149,0,150,o,1.272428199998103,None,150,0,149,645.5632598999946,,,,,,,,,,,,,,,,,,,,,,,,,,,,,,,,,,,,,,,,,,,,,,,,,,645.5479379999742,645.5632598999946,646.0634236999904,646.0469521999767,646.0613871999958,646.0634236999904,646.0634236999904,646.0634236999904,647.3472669999755,Scenes\102a.jpg,post,o,1.272428199998103,None,,,,,,,,00031,001,2026-01-21_15h25.55.946,MST_test,2024.2.0,59.95764591749849,2026-01-21 15h26.03.022666 +0530,
,,,,,,,,,,,,,,,,,,,,,,,,,,,,,,,,,,,,,,,,,,,,,,,,,,,,,,,,,,,,,,,,,,,,,,,,,647.34749309998,647.3630250999995,647.3630250999995,650.1967072999978,space,2.8292341000051238,None,00031,001,2026-01-21_15h25.55.946,MST_test,2024.2.0,59.95764591749849,2026-01-21 15h26.03.022666 +0530,
