Sl_no,image_path,thisN,thisTrialN,thisRepN,key_resp_5.keys,key_resp_7.keys,key_resp_7.rt,key_resp_7.duration,key_resp_5.rt,key_resp_5.duration,key_resp_9.keys,key_resp_8.keys,key_resp_8.rt,key_resp_8.duration,key_resp_9.rt,key_resp_9.duration,practice.thisRepN,practice.thisTrialN,practice.thisN,trials.thisRepN,trials.thisTrialN,trials.thisN,thisRow.t,notes,welcome_page.started,text.started,key_resp.started,welcome_page.stopped,key_resp.keys,key_resp.rt,key_resp.duration,instructions.started,ins.started,key_resp_2.started,instructions.stopped,key_resp_2.keys,key_resp_2.rt,key_resp_2.duration,objects_only_instruction.started,text_3.started,key_resp_3.started,objects_only_instruction.stopped,key_resp_3.keys,key_resp_3.rt,key_resp_3.duration,ISI.started,text_4.started,ISI.stopped,practice_block.started,image.started,text_5.started,key_resp_5.started,practice_block.stopped,practice.key_resp_5.keys,indoor_outdoor.started,text_7.started,key_resp_7.started,indoor_outdoor.stopped,practice.key_resp_7.keys,practice.key_resp_7.rt,practice.key_resp_7.duration,practice.key_resp_5.rt,practice.key_resp_5.duration,practice_to_main.started,text_2.started,key_resp_4.started,practice_to_main.stopped,key_resp_4.keys,key_resp_4.rt,key_resp_4.duration,objects.started,image_2.started,text_9.started,key_resp_9.started,objects.stopped,trials.key_resp_9.keys,encoding_task.started,text_8.started,key_resp_8.started,encoding_task.stopped,trials.key_resp_8.keys,trials.key_resp_8.rt,trials.key_resp_8.duration,trials.key_resp_9.rt,trials.key_resp_9.duration,end_experiment.started,text_6.started,key_resp_6.started,end_experiment.stopped,key_resp_6.keys,key_resp_6.rt,key_resp_6.duration,list_of_stimuli,encoding_task_accuracy,participant,session,date,expName,psychopyVersion,frameRate,expStart,
,,,,,,,,,,,,,,,,,,,,,,,,,0.01193300005979836,0.028484200011007488,0.028484200011007488,15.314852500101551,space,15.235685000079684,None,,,,,,,,,,,,,,,,,,,,,,,,,,,,,,,,,,,,,,,,,,,,,,,,,,,,,,,,,,,,,,,,00033,001,2026-01-22_11h03.27.713,MST_task,2024.2.0,59.71628791089772,2026-01-22 11h03.40.191759 +0530,
,,,,,,,,,,,,,,,,,,,,,,,,,,,,,,,,15.314893000060692,15.333891300018877,15.333891300018877,42.211906300042756,space,26.866621599998325,None,,,,,,,,,,,,,,,,,,,,,,,,,,,,,,,,,,,,,,,,,,,,,,,,,,,,,,,,,00033,001,2026-01-22_11h03.27.713,MST_task,2024.2.0,59.71628791089772,2026-01-22 11h03.40.191759 +0530,
,,,,,,,,,,,,,,,,,,,,,,,,,,,,,,,,,,,,,,,42.211939500062726,42.24526490003336,42.24526490003336,58.820120300049894,space,16.56249439995736,None,,,,,,,,,,,,,,,,,,,,,,,,,,,,,,,,,,,,,,,,,,,,,,,,,,00033,001,2026-01-22_11h03.27.713,MST_task,2024.2.0,59.71628791089772,2026-01-22 11h03.40.191759 +0530,
8,practice_images/178a.jpg,0,0,1,None,j,2.658257900038734,None,,,,,,,,,1,0,0,,,,58.85219230002258,,,,,,,,,,,,,,,,,,,,,,,58.84537180000916,58.85219230002258,59.32134780008346,59.338236000039615,59.35496060003061,59.35496060003061,59.35496060003061,62.331897300085984,None,62.333927800063975,62.34883360005915,62.34883360005915,65.0085923000006,j,2.658257900038734,None,,,,,,,,,,,,,,,,,,,,,,,,,,,,,,,,,,00033,001,2026-01-22_11h03.27.713,MST_task,2024.2.0,59.71628791089772,2026-01-22 11h03.40.191759 +0530,
9,practice_images/180a.jpg,1,1,1,f,None,,,2.672464800067246,0.12023739994037896,,,,,,,1,1,1,,,,65.02470410009846,,,,,,,,,,,,,,,,,,,,,,,65.00868120009545,65.02470410009846,65.5096694000531,65.51854429999366,65.54321530007292,65.54321530007292,65.54321530007292,68.52035200002138,f,68.52067520003766,,,68.52070230001118,None,,,2.672464800067246,0.12023739994037896,,,,,,,,,,,,,,,,,,,,,,,,,,,,,,,,00033,001,2026-01-22_11h03.27.713,MST_task,2024.2.0,59.71628791089772,2026-01-22 11h03.40.191759 +0530,
6,practice_images/158a.jpg,2,2,1,None,j,0.14260120003018528,None,,,,,,,,,1,2,2,,,,68.53691130003426,,,,,,,,,,,,,,,,,,,,,,,68.5207716000732,68.53691130003426,69.0220784000121,69.03112580010202,69.03853310004342,69.03853310004342,69.03853310004342,72.03266960009933,None,72.03272820007987,72.04921150009613,72.04921150009613,72.20042510004714,j,0.14260120003018528,None,,,,,,,,,,,,,,,,,,,,,,,,,,,,,,,,,,00033,001,2026-01-22_11h03.27.713,MST_task,2024.2.0,59.71628791089772,2026-01-22 11h03.40.191759 +0530,
5,practice_images/139a.jpg,3,3,1,None,f,4.647597700008191,None,,,,,,,,,1,3,3,,,,72.21657020004932,,,,,,,,,,,,,,,,,,,,,,,72.20052010007203,72.21657020004932,72.70190119999461,72.71039940009359,72.71769870002754,72.71769870002754,72.71769870002754,75.71217590000015,None,75.71222850005142,75.72873560001608,75.72873560001608,80.3790623000823,f,4.647597700008191,None,,,,,,,,,,,,,,,,,,,,,,,,,,,,,,,,,,00033,001,2026-01-22_11h03.27.713,MST_task,2024.2.0,59.71628791089772,2026-01-22 11h03.40.191759 +0530,
4,practice_images/002b.jpg,4,4,1,None,f,0.5081725000636652,None,,,,,,,,,1,4,4,,,,80.39520930009894,,,,,,,,,,,,,,,,,,,,,,,80.37915080005769,80.39520930009894,80.88016610010527,80.88913770008367,80.8965281000128,80.8965281000128,80.8965281000128,83.89071330009028,None,83.89077860000543,83.90762910002377,83.90762910002377,84.4266519000521,f,0.5081725000636652,None,,,,,,,,,,,,,,,,,,,,,,,,,,,,,,,,,,00033,001,2026-01-22_11h03.27.713,MST_task,2024.2.0,59.71628791089772,2026-01-22 11h03.40.191759 +0530,
10,practice_images/182a.jpg,5,5,1,None,f,0.33253659994807094,None,,,,,,,,,1,5,5,,,,84.44257200008724,,,,,,,,,,,,,,,,,,,,,,,84.42673780000769,84.44257200008724,84.92778800008819,84.93633340008091,84.94361850002315,84.94361850002315,84.94361850002315,87.93853670009412,None,87.93860640004277,87.955018900102,87.955018900102,88.290031200042,f,0.33253659994807094,None,,,,,,,,,,,,,,,,,,,,,,,,,,,,,,,,,,00033,001,2026-01-22_11h03.27.713,MST_task,2024.2.0,59.71628791089772,2026-01-22 11h03.40.191759 +0530,
1,practice_images/013a.jpg,6,6,1,j,None,,,2.6872970999684185,0.08831160003319383,,,,,,,1,6,6,,,,88.3062611001078,,,,,,,,,,,,,,,,,,,,,,,88.290120700025,88.3062611001078,88.79128500004299,88.80122490006033,88.82474820001516,88.82474820001516,88.82474820001516,91.80188730009831,j,91.8020917000249,,,91.80211879999842,None,,,2.6872970999684185,0.08831160003319383,,,,,,,,,,,,,,,,,,,,,,,,,,,,,,,,00033,001,2026-01-22_11h03.27.713,MST_task,2024.2.0,59.71628791089772,2026-01-22 11h03.40.191759 +0530,
3,practice_images/037a.jpg,7,7,1,None,f,0.06886300002224743,None,,,,,,,,,1,7,7,,,,91.81843920005485,,,,,,,,,,,,,,,,,,,,,,,91.80218980007339,91.81843920005485,92.30404720001388,92.31270720006432,92.3369225000497,92.3369225000497,92.3369225000497,95.31416070007253,None,95.3142327000387,95.33086109999567,95.33086109999567,95.414954100037,f,0.06886300002224743,None,,,,,,,,,,,,,,,,,,,,,,,,,,,,,,,,,,00033,001,2026-01-22_11h03.27.713,MST_task,2024.2.0,59.71628791089772,2026-01-22 11h03.40.191759 +0530,
2,practice_images/031a.jpg,8,8,1,None,j,4.008829800062813,None,,,,,,,,,1,8,8,,,,95.43119730008766,,,,,,,,,,,,,,,,,,,,,,,95.4150423000101,95.43119730008766,95.9161652000621,95.92523030005395,95.93314520001877,95.93314520001877,95.93314520001877,98.92677590006497,None,98.92685300006997,98.94349890004378,98.94349890004378,102.95796290005092,j,4.008829800062813,None,,,,,,,,,,,,,,,,,,,,,,,,,,,,,,,,,,00033,001,2026-01-22_11h03.27.713,MST_task,2024.2.0,59.71628791089772,2026-01-22 11h03.40.191759 +0530,
7,practice_images/166a.jpg,9,9,1,None,f,0.2733956999145448,None,,,,,,,,,1,9,9,,,,102.97488500003237,,,,,,,,,,,,,,,,,,,,,,,102.95804900000803,102.97488500003237,103.45928980002645,103.46810470009223,103.49290120007936,103.49290120007936,103.49290120007936,106.47002500004601,None,106.4700892000692,106.48646800010465,106.48646800010465,106.77150790009182,f,0.2733956999145448,None,,,,,,,,,,,,,,,,,,,,,,,,,,,,,,,,,,00033,001,2026-01-22_11h03.27.713,MST_task,2024.2.0,59.71628791089772,2026-01-22 11h03.40.191759 +0530,
,,,,,,,,,,,,,,,,,,,,,,,,,,,,,,,,,,,,,,,,,,,,,,,,,,,,,,,,,,,,,,,,106.77157179999631,106.78775410004891,106.78775410004891,119.34868260007352,space,12.55623420001939,None,,,,,,,,,,,,,,,,,,,,,,,,,00033,001,2026-01-22_11h03.27.713,MST_task,2024.2.0,59.71628791089772,2026-01-22 11h03.40.191759 +0530,
,Objects\170a.jpg,0,0,1,,,,,,,None,j,0.6027150000445545,None,,,,,,1,0,0,119.36470969999209,,,,,,,,,,,,,,,,,,,,,,,119.34983620001003,119.36470969999209,119.84979970008135,,,,,,,,,,,,,,,,,,,,,,,119.87831550010014,119.90052110003307,119.90052110003307,119.90052110003307,122.86020640004426,None,122.86169700010214,122.87703690002672,122.87703690002672,123.49636410002131,j,0.6027150000445545,None,,,,,,,,,,,,00033,001,2026-01-22_11h03.27.713,MST_task,2024.2.0,59.71628791089772,2026-01-22 11h03.40.191759 +0530,
,Objects\124a.jpg,1,0,2,,,,,,,None,f,0.454438199987635,None,,,,,,2,0,1,123.5125428000465,,,,,,,,,,,,,,,,,,,,,,,123.49646200006828,123.5125428000465,123.99754580005538,,,,,,,,,,,,,,,,,,,,,,,124.00772600003984,124.03103650000412,124.03103650000412,124.03103650000412,127.00835150002968,None,127.00842220010236,127.02476230007596,127.02476230007596,127.49379430001136,f,0.454438199987635,None,,,,,,,,,,,,00033,001,2026-01-22_11h03.27.713,MST_task,2024.2.0,59.71628791089772,2026-01-22 11h03.40.191759 +0530,
,Objects\087a.jpg,2,0,3,,,,,,,None,j,0.02500370005145669,None,,,,,,3,0,2,127.50992080010474,,,,,,,,,,,,,,,,,,,,,,,127.49392650008667,127.50992080010474,127.99493020004593,,,,,,,,,,,,,,,,,,,,,,,128.0057743000798,128.02838350005914,128.02838350005914,128.02838350005914,131.00551120005548,None,131.00556690001395,131.02211470005568,131.02211470005568,131.05596420005895,j,0.02500370005145669,None,,,,,,,,,,,,00033,001,2026-01-22_11h03.27.713,MST_task,2024.2.0,59.71628791089772,2026-01-22 11h03.40.191759 +0530,
,Objects\166a.jpg,3,0,4,,,,,,,f,None,,,2.28091869992204,0.18416539998725057,,,,4,0,3,131.07240910001565,,,,,,,,,,,,,,,,,,,,,,,131.0561198000796,131.07240910001565,131.55735260003712,,,,,,,,,,,,,,,,,,,,,,,131.5682199000148,131.59090500010643,131.59090500010643,131.59090500010643,134.5682797000045,f,134.5683428000193,,,134.56836270005442,None,,,2.28091869992204,0.18416539998725057,,,,,,,,,,00033,001,2026-01-22_11h03.27.713,MST_task,2024.2.0,59.71628791089772,2026-01-22 11h03.40.191759 +0530,
,Objects\090a.jpg,4,0,5,,,,,,,j,None,,,2.1849707999499515,0.12801230000331998,,,,5,0,4,134.5845789000159,,,,,,,,,,,,,,,,,,,,,,,134.56845430005342,134.5845789000159,135.06991930003278,,,,,,,,,,,,,,,,,,,,,,,135.08048260002397,135.10302360006608,135.10302360006608,135.10302360006608,138.08056010003202,j,138.080615999992,,,138.0806287000887,None,,,2.1849707999499515,0.12801230000331998,,,,,,,,,,00033,001,2026-01-22_11h03.27.713,MST_task,2024.2.0,59.71628791089772,2026-01-22 11h03.40.191759 +0530,
,Objects\138a.jpg,5,0,6,,,,,,,j,None,,,2.8882090999977663,None,,,,6,0,5,138.09702740004286,,,,,,,,,,,,,,,,,,,,,,,138.08070680010132,138.09702740004286,138.58208340010606,,,,,,,,,,,,,,,,,,,,,,,138.59377090004273,138.6154460000107,138.6154460000107,138.6154460000107,141.59247730008792,j,141.59253730007913,,,141.5925648000557,None,,,2.8882090999977663,None,,,,,,,,,,00033,001,2026-01-22_11h03.27.713,MST_task,2024.2.0,59.71628791089772,2026-01-22 11h03.40.191759 +0530,
,Objects\054a.jpg,6,0,7,,,,,,,f,None,,,2.8716410999186337,None,,,,7,0,6,141.60943980002776,,,,,,,,,,,,,,,,,,,,,,,141.5926626001019,141.60943980002776,142.09456530003808,,,,,,,,,,,,,,,,,,,,,,,142.1046716000419,142.12791929999366,142.12791929999366,142.12791929999366,145.10507520008832,f,145.10516050003935,,,145.10517440002877,None,,,2.8716410999186337,None,,,,,,,,,,00033,001,2026-01-22_11h03.27.713,MST_task,2024.2.0,59.71628791089772,2026-01-22 11h03.40.191759 +0530,
,Scenes\050a.jpg,7,0,8,,,,,,,j,None,,,2.877646900014952,None,,,,8,0,7,145.12148230010644,,,,,,,,,,,,,,,,,,,,,,,145.1052654000232,145.12148230010644,145.6076894000871,,,,,,,,,,,,,,,,,,,,,,,145.64080930000637,145.6576753000263,145.6576753000263,145.6576753000263,148.6172626001062,j,148.6177228000015,,,148.61773660010658,None,,,2.877646900014952,None,,,,,,,,,,00033,001,2026-01-22_11h03.27.713,MST_task,2024.2.0,59.71628791089772,2026-01-22 11h03.40.191759 +0530,
,Scenes\154a.jpg,8,0,9,,,,,,,j,None,,,2.0309324000263587,0.11193949996959418,,,,9,0,8,148.6338958000997,,,,,,,,,,,,,,,,,,,,,,,148.61782670009416,148.6338958000997,149.11933280003723,,,,,,,,,,,,,,,,,,,,,,,149.1398680000566,149.1523536000168,149.1523536000168,149.1523536000168,152.12951680005062,j,152.12973170005716,,,152.1297461000504,None,,,2.0309324000263587,0.11193949996959418,,,,,,,,,,00033,001,2026-01-22_11h03.27.713,MST_task,2024.2.0,59.71628791089772,2026-01-22 11h03.40.191759 +0530,
,Scenes\032a.jpg,9,0,10,,,,,,,None,j,0.6293816000688821,None,,,,,,10,0,9,152.14620429999195,,,,,,,,,,,,,,,,,,,,,,,152.1298467000015,152.14620429999195,152.6312878000317,,,,,,,,,,,,,,,,,,,,,,,152.66250360000413,152.6823035000125,152.6823035000125,152.6823035000125,155.64184040005784,None,155.64189500000793,155.65851760003716,155.65851760003716,156.29463270003907,j,0.6293816000688821,None,,,,,,,,,,,,00033,001,2026-01-22_11h03.27.713,MST_task,2024.2.0,59.71628791089772,2026-01-22 11h03.40.191759 +0530,
,Scenes\060a.jpg,10,0,11,,,,,,,j,None,,,1.84887979994528,0.13519219995941967,,,,11,0,10,156.31066730001476,,,,,,,,,,,,,,,,,,,,,,,156.29472130001523,156.31066730001476,156.7958719000453,,,,,,,,,,,,,,,,,,,,,,,156.84437500010245,156.86371190007776,156.86371190007776,156.86371190007776,159.80626640003175,j,159.80632510001305,,,159.8063387000002,None,,,1.84887979994528,0.13519219995941967,,,,,,,,,,00033,001,2026-01-22_11h03.27.713,MST_task,2024.2.0,59.71628791089772,2026-01-22 11h03.40.191759 +0530,
,Scenes\133a.jpg,11,0,12,,,,,,,j,None,,,0.04275160003453493,0.09468340000603348,,,,12,0,11,159.82310300006066,,,,,,,,,,,,,,,,,,,,,,,159.80670860002283,159.82310300006066,160.3081154000247,,,,,,,,,,,,,,,,,,,,,,,160.33220870001242,160.35815179999918,160.35815179999918,160.35815179999918,163.31917730008718,j,163.31927610002458,,,163.3192903000163,None,,,0.04275160003453493,0.09468340000603348,,,,,,,,,,00033,001,2026-01-22_11h03.27.713,MST_task,2024.2.0,59.71628791089772,2026-01-22 11h03.40.191759 +0530,
,Scenes\055a.jpg,12,0,13,,,,,,,None,j,0.17552689998410642,None,,,,,,13,0,12,163.335279299994,,,,,,,,,,,,,,,,,,,,,,,163.31938640004955,163.335279299994,163.82047350006178,,,,,,,,,,,,,,,,,,,,,,,163.84473180002533,163.87056360009592,163.87056360009592,163.87056360009592,166.83085970010143,None,166.8309151000576,166.847819800023,166.847819800023,167.0322593000019,j,0.17552689998410642,None,,,,,,,,,,,,00033,001,2026-01-22_11h03.27.713,MST_task,2024.2.0,59.71628791089772,2026-01-22 11h03.40.191759 +0530,
,Scenes\070a.jpg,13,0,14,,,,,,,f,None,,,2.784845000016503,None,,,,14,0,13,167.0485394001007,,,,,,,,,,,,,,,,,,,,,,,167.03234610008076,167.0485394001007,167.53349100006744,,,,,,,,,,,,,,,,,,,,,,,167.55200680007692,167.56704540003557,167.56704540003557,167.56704540003557,170.54385330004152,f,170.5439255000092,,,170.5439389999956,None,,,2.784845000016503,None,,,,,,,,,,00033,001,2026-01-22_11h03.27.713,MST_task,2024.2.0,59.71628791089772,2026-01-22 11h03.40.191759 +0530,
,Objects\131a.jpg,14,0,15,,,,,,,f,None,,,2.5107126000802964,0.20913759991526604,,,,15,0,14,170.56070180004463,,,,,,,,,,,,,,,,,,,,,,,170.544032100006,170.56070180004463,171.04580330010504,,,,,,,,,,,,,,,,,,,,,,,171.06904610001948,171.0803366000764,171.0803366000764,171.0803366000764,174.05629050009884,f,174.0563721000217,,,174.05639010004234,None,,,2.5107126000802964,0.20913759991526604,,,,,,,,,,00033,001,2026-01-22_11h03.27.713,MST_task,2024.2.0,59.71628791089772,2026-01-22 11h03.40.191759 +0530,
,Objects\141a.jpg,15,0,16,,,,,,,None,j,0.1663924999302253,None,,,,,,16,0,15,174.07299590006005,,,,,,,,,,,,,,,,,,,,,,,174.05646640004124,174.07299590006005,174.55797780002467,,,,,,,,,,,,,,,,,,,,,,,174.58078920003027,174.59145800000988,174.59145800000988,174.59145800000988,177.56860220001545,None,177.56868730008136,177.58516970009077,177.58516970009077,177.75345930003095,j,0.1663924999302253,None,,,,,,,,,,,,00033,001,2026-01-22_11h03.27.713,MST_task,2024.2.0,59.71628791089772,2026-01-22 11h03.40.191759 +0530,
,Objects\168a.jpg,16,0,17,,,,,,,f,None,,,2.295427000033669,0.20021170005202293,,,,17,0,16,177.7692718000617,,,,,,,,,,,,,,,,,,,,,,,177.7535544000566,177.7692718000617,178.25424320006277,,,,,,,,,,,,,,,,,,,,,,,178.27504310000222,178.28772970009595,178.28772970009595,178.28772970009595,181.26499410008546,f,181.2650825000601,,,181.26509710005485,None,,,2.295427000033669,0.20021170005202293,,,,,,,,,,00033,001,2026-01-22_11h03.27.713,MST_task,2024.2.0,59.71628791089772,2026-01-22 11h03.40.191759 +0530,
,Objects\184a.jpg,17,0,18,,,,,,,j,None,,,2.9197735000634566,None,,,,18,0,17,181.28145240002777,,,,,,,,,,,,,,,,,,,,,,,181.26520090003032,181.28145240002777,181.76673200004734,,,,,,,,,,,,,,,,,,,,,,,181.7910270000575,181.80017669999506,181.80017669999506,181.80017669999506,184.777078300016,j,184.77714780007955,,,184.77716100006364,None,,,2.9197735000634566,None,,,,,,,,,,00033,001,2026-01-22_11h03.27.713,MST_task,2024.2.0,59.71628791089772,2026-01-22 11h03.40.191759 +0530,
,Objects\111a.jpg,18,0,19,,,,,,,None,f,0.509494400001131,None,,,,,,19,0,18,184.79387910000514,,,,,,,,,,,,,,,,,,,,,,,184.77738530002534,184.79387910000514,185.27891610004008,,,,,,,,,,,,,,,,,,,,,,,185.30235080001876,185.31234180007596,185.31234180007596,185.31234180007596,188.28950760001317,None,188.2895756000653,188.30618160008453,188.30618160008453,188.82513460004702,f,0.509494400001131,None,,,,,,,,,,,,00033,001,2026-01-22_11h03.27.713,MST_task,2024.2.0,59.71628791089772,2026-01-22 11h03.40.191759 +0530,
,Objects\035a.jpg,19,0,20,,,,,,,None,j,0.31816599995363504,None,,,,,,20,0,19,188.84127620002255,,,,,,,,,,,,,,,,,,,,,,,188.82525720004924,188.84127620002255,189.32653300010134,,,,,,,,,,,,,,,,,,,,,,,189.34888950001914,189.35971660003997,189.35971660003997,189.35971660003997,192.3377023000503,None,192.33775990002323,192.3536973000737,192.3536973000737,192.6887362000998,j,0.31816599995363504,None,,,,,,,,,,,,00033,001,2026-01-22_11h03.27.713,MST_task,2024.2.0,59.71628791089772,2026-01-22 11h03.40.191759 +0530,
,Objects\092a.jpg,20,0,21,,,,,,,f,None,,,2.872369799995795,None,,,,21,0,20,192.70491500000935,,,,,,,,,,,,,,,,,,,,,,,192.68882400006987,192.70491500000935,193.19014530000277,,,,,,,,,,,,,,,,,,,,,,,193.21268410002813,193.2232490000315,193.2232490000315,193.2232490000315,196.20051130000502,f,196.2005903000245,,,196.20061060006265,None,,,2.872369799995795,None,,,,,,,,,,00033,001,2026-01-22_11h03.27.713,MST_task,2024.2.0,59.71628791089772,2026-01-22 11h03.40.191759 +0530,
,Scenes\109a.jpg,21,0,22,,,,,,,None,j,1.4383156000403687,None,,,,,,22,0,21,196.21749609999824,,,,,,,,,,,,,,,,,,,,,,,196.2007248000009,196.21749609999824,196.70254200010095,,,,,,,,,,,,,,,,,,,,,,,196.72537820006255,196.73624780005775,196.73624780005775,196.73624780005775,199.71286190010142,None,199.71291330002714,199.72951710002962,199.72951710002962,201.1685336000519,j,1.4383156000403687,None,,,,,,,,,,,,00033,001,2026-01-22_11h03.27.713,MST_task,2024.2.0,59.71628791089772,2026-01-22 11h03.40.191759 +0530,
,Scenes\008a.jpg,22,0,23,,,,,,,j,None,,,1.8003886999795213,0.1592249000677839,,,,23,0,22,201.1846830000868,,,,,,,,,,,,,,,,,,,,,,,201.16862660006154,201.1846830000868,201.66983970010187,,,,,,,,,,,,,,,,,,,,,,,201.69324460008647,201.70339110004716,201.70339110004716,201.70339110004716,204.68020090006758,j,204.68026950000785,,,204.68028289999347,None,,,1.8003886999795213,0.1592249000677839,,,,,,,,,,00033,001,2026-01-22_11h03.27.713,MST_task,2024.2.0,59.71628791089772,2026-01-22 11h03.40.191759 +0530,
,Scenes\013a.jpg,23,0,24,,,,,,,None,j,0.5107065999181941,None,,,,,,24,0,23,204.69691729999613,,,,,,,,,,,,,,,,,,,,,,,204.68035380006768,204.69691729999613,205.18205390009098,,,,,,,,,,,,,,,,,,,,,,,205.20919080008753,205.2330661000451,205.2330661000451,205.2330661000451,208.1929304000223,None,208.19300410000142,208.2092480000574,208.2092480000574,208.72840080002788,j,0.5107065999181941,None,,,,,,,,,,,,00033,001,2026-01-22_11h03.27.713,MST_task,2024.2.0,59.71628791089772,2026-01-22 11h03.40.191759 +0530,
,Scenes\131a.jpg,24,0,25,,,,,,,j,None,,,2.3608309999108315,0.10461970011238009,,,,25,0,24,208.7444339999929,,,,,,,,,,,,,,,,,,,,,,,208.72853419999592,208.7444339999929,209.2295557000907,,,,,,,,,,,,,,,,,,,,,,,209.2523604000453,209.26225540007,209.26225540007,209.26225540007,212.2400246000616,j,212.2400812000269,,,212.24009400000796,None,,,2.3608309999108315,0.10461970011238009,,,,,,,,,,00033,001,2026-01-22_11h03.27.713,MST_task,2024.2.0,59.71628791089772,2026-01-22 11h03.40.191759 +0530,
,Scenes\076a.jpg,25,0,26,,,,,,,None,j,0.35046390001662076,None,,,,,,26,0,25,212.25727960001677,,,,,,,,,,,,,,,,,,,,,,,212.24025190004613,212.25727960001677,212.74183270009235,,,,,,,,,,,,,,,,,,,,,,,212.77220370003488,212.79270170000382,212.79270170000382,212.79270170000382,215.75218330009375,None,215.75224620010704,215.7692226000363,215.7692226000363,216.1211251000641,j,0.35046390001662076,None,,,,,,,,,,,,00033,001,2026-01-22_11h03.27.713,MST_task,2024.2.0,59.71628791089772,2026-01-22 11h03.40.191759 +0530,
,Scenes\134a.jpg,26,0,27,,,,,,,None,j,0.9103253999492154,None,,,,,,27,0,26,216.13699010002892,,,,,,,,,,,,,,,,,,,,,,,216.12124860007316,216.13699010002892,216.62196250003763,,,,,,,,,,,,,,,,,,,,,,,216.6469550000038,216.67241300002206,216.67241300002206,216.67241300002206,219.63265320006758,None,219.6327090000268,219.64910410006996,219.64910410006996,220.57011670002248,j,0.9103253999492154,None,,,,,,,,,,,,00033,001,2026-01-22_11h03.27.713,MST_task,2024.2.0,59.71628791089772,2026-01-22 11h03.40.191759 +0530,
,Scenes\093a.jpg,27,0,28,,,,,,,f,None,,,2.711316299973987,0.15933499997481704,,,,28,0,27,220.5859129000455,,,,,,,,,,,,,,,,,,,,,,,220.5702634000918,220.5859129000455,221.0709772000555,,,,,,,,,,,,,,,,,,,,,,,221.0957505000988,221.1210751000326,221.1210751000326,221.1210751000326,224.0813568000449,f,224.0814246000955,,,224.0814380000811,None,,,2.711316299973987,0.15933499997481704,,,,,,,,,,00033,001,2026-01-22_11h03.27.713,MST_task,2024.2.0,59.71628791089772,2026-01-22 11h03.40.191759 +0530,
,Objects\069a.jpg,28,0,29,,,,,,,j,None,,,2.278002899955027,0.12771379994228482,,,,29,0,28,224.09819460008293,,,,,,,,,,,,,,,,,,,,,,,224.08156060008332,224.09819460008293,224.58333100005984,,,,,,,,,,,,,,,,,,,,,,,224.6060975000728,224.6175549000036,224.6175549000036,224.6175549000036,227.59367070009466,j,227.5937314000912,,,227.593744300073,None,,,2.278002899955027,0.12771379994228482,,,,,,,,,,00033,001,2026-01-22_11h03.27.713,MST_task,2024.2.0,59.71628791089772,2026-01-22 11h03.40.191759 +0530,
,Objects\152a.jpg,29,0,30,,,,,,,None,f,0.3172058999771252,None,,,,,,30,0,29,227.61051010002848,,,,,,,,,,,,,,,,,,,,,,,227.59386740007903,227.61051010002848,228.09567480010446,,,,,,,,,,,,,,,,,,,,,,,228.11692679999396,228.12895320006646,228.12895320006646,228.12895320006646,231.1061178999953,None,231.10620840010233,231.12279460008722,231.12279460008722,231.44141470000613,f,0.3172058999771252,None,,,,,,,,,,,,00033,001,2026-01-22_11h03.27.713,MST_task,2024.2.0,59.71628791089772,2026-01-22 11h03.40.191759 +0530,
,Objects\037a.jpg,30,0,31,,,,,,,f,None,,,2.7997414999408647,None,,,,31,0,30,231.45731800002977,,,,,,,,,,,,,,,,,,,,,,,231.44153840001673,231.45731800002977,231.94232770008966,,,,,,,,,,,,,,,,,,,,,,,231.96595780004282,231.97576250007842,231.97576250007842,231.97576250007842,234.95288480003364,f,234.95295230008196,,,234.95296580006834,None,,,2.7997414999408647,None,,,,,,,,,,00033,001,2026-01-22_11h03.27.713,MST_task,2024.2.0,59.71628791089772,2026-01-22 11h03.40.191759 +0530,
,Objects\188a.jpg,31,0,32,,,,,,,f,None,,,2.5831043999642134,0.1606464000651613,,,,32,0,31,234.96963170007803,,,,,,,,,,,,,,,,,,,,,,,234.95305270003155,234.96963170007803,235.4547035000287,,,,,,,,,,,,,,,,,,,,,,,235.4766880000243,235.48794150003232,235.48794150003232,235.48794150003232,238.46503770002164,f,238.4650959999999,,,238.46510930010118,None,,,2.5831043999642134,0.1606464000651613,,,,,,,,,,00033,001,2026-01-22_11h03.27.713,MST_task,2024.2.0,59.71628791089772,2026-01-22 11h03.40.191759 +0530,
,Objects\055a.jpg,32,0,33,,,,,,,f,None,,,2.6477820000145584,0.2548865999560803,,,,33,0,32,238.4819210000569,,,,,,,,,,,,,,,,,,,,,,,238.46520480001345,238.4819210000569,238.96721960010473,,,,,,,,,,,,,,,,,,,,,,,238.9898696000455,239.00035620003473,239.00035620003473,239.00035620003473,241.9776727000717,f,241.97773680009414,,,241.97775220009498,None,,,2.6477820000145584,0.2548865999560803,,,,,,,,,,00033,001,2026-01-22_11h03.27.713,MST_task,2024.2.0,59.71628791089772,2026-01-22 11h03.40.191759 +0530,
,Objects\116a.jpg,33,0,34,,,,,,,None,f,0.3084373000310734,None,,,,,,34,0,33,241.99423470010515,,,,,,,,,,,,,,,,,,,,,,,241.9778295001015,241.99423470010515,242.47966480010655,,,,,,,,,,,,,,,,,,,,,,,242.50435140007176,242.51270870002918,242.51270870002918,242.51270870002918,245.48969050007872,None,245.48977070010733,245.50662690005265,245.50662690005265,245.8251378000714,f,0.3084373000310734,None,,,,,,,,,,,,00033,001,2026-01-22_11h03.27.713,MST_task,2024.2.0,59.71628791089772,2026-01-22 11h03.40.191759 +0530,
,Objects\005a.jpg,34,0,35,,,,,,,None,f,0.3176796999759972,None,,,,,,35,0,34,245.84114030003548,,,,,,,,,,,,,,,,,,,,,,,245.8252917000791,245.84114030003548,246.32626550004352,,,,,,,,,,,,,,,,,,,,,,,246.34751620003954,246.35957120009698,246.35957120009698,246.35957120009698,249.3366803000681,None,249.33674520009663,249.35399900004268,249.35399900004268,249.6887202000944,f,0.3176796999759972,None,,,,,,,,,,,,00033,001,2026-01-22_11h03.27.713,MST_task,2024.2.0,59.71628791089772,2026-01-22 11h03.40.191759 +0530,
,Scenes\138a.jpg,35,0,36,,,,,,,j,None,,,2.625277000013739,0.15211089991498739,,,,36,0,35,249.70444460003637,,,,,,,,,,,,,,,,,,,,,,,249.68884650000837,249.70444460003637,250.1896482000593,,,,,,,,,,,,,,,,,,,,,,,250.21223590010777,250.222505700076,250.222505700076,250.222505700076,253.20012829999905,j,253.2001957000466,,,253.2002115000505,None,,,2.625277000013739,0.15211089991498739,,,,,,,,,,00033,001,2026-01-22_11h03.27.713,MST_task,2024.2.0,59.71628791089772,2026-01-22 11h03.40.191759 +0530,
,Scenes\162a.jpg,36,0,37,,,,,,,j,None,,,2.577246299944818,0.11113289999775589,,,,37,0,36,253.21684670005925,,,,,,,,,,,,,,,,,,,,,,,253.20032080006786,253.21684670005925,253.70197640010156,,,,,,,,,,,,,,,,,,,,,,,253.71614640008193,253.7352824000409,253.7352824000409,253.7352824000409,256.7124426000519,j,256.7125025000423,,,256.71251690003555,None,,,2.577246299944818,0.11113289999775589,,,,,,,,,,00033,001,2026-01-22_11h03.27.713,MST_task,2024.2.0,59.71628791089772,2026-01-22 11h03.40.191759 +0530,
,Scenes\010a.jpg,37,0,38,,,,,,,j,None,,,2.639524500002153,0.1364813999971375,,,,38,0,37,256.7291715000756,,,,,,,,,,,,,,,,,,,,,,,256.71261420007795,256.7291715000756,257.2142515000887,,,,,,,,,,,,,,,,,,,,,,,257.2416970001068,257.2643272000132,257.2643272000132,257.2643272000132,260.22477770003024,j,260.22484260005876,,,260.22485640004743,None,,,2.639524500002153,0.1364813999971375,,,,,,,,,,00033,001,2026-01-22_11h03.27.713,MST_task,2024.2.0,59.71628791089772,2026-01-22 11h03.40.191759 +0530,
,Scenes\004a.jpg,38,0,39,,,,,,,f,None,,,2.2228650000179186,0.3444049999816343,,,,39,0,38,260.2415976000484,,,,,,,,,,,,,,,,,,,,,,,260.22495050006546,260.2415976000484,260.7264202000806,,,,,,,,,,,,,,,,,,,,,,,260.75281460001133,260.7764977000188,260.7764977000188,260.7764977000188,263.7371478000423,f,263.7372180999955,,,263.7372321001021,None,,,2.2228650000179186,0.3444049999816343,,,,,,,,,,00033,001,2026-01-22_11h03.27.713,MST_task,2024.2.0,59.71628791089772,2026-01-22 11h03.40.191759 +0530,
,Scenes\129a.jpg,39,0,40,,,,,,,None,j,0.7909825999522582,None,,,,,,40,0,39,263.7537542000646,,,,,,,,,,,,,,,,,,,,,,,263.7373249999946,263.7537542000646,264.2392202001065,,,,,,,,,,,,,,,,,,,,,,,264.2589214000618,264.2721907000523,264.2721907000523,264.2721907000523,267.24934580002446,None,267.2495623000432,267.2659278000938,267.2659278000938,268.06939600000624,j,0.7909825999522582,None,,,,,,,,,,,,00033,001,2026-01-22_11h03.27.713,MST_task,2024.2.0,59.71628791089772,2026-01-22 11h03.40.191759 +0530,
,Scenes\137a.jpg,40,0,41,,,,,,,j,None,,,2.2899551999289542,0.128580900025554,,,,41,0,40,268.08557980007026,,,,,,,,,,,,,,,,,,,,,,,268.0694926000433,268.08557980007026,268.5705619000364,,,,,,,,,,,,,,,,,,,,,,,268.5952470001066,268.6213983000489,268.6213983000489,268.6213983000489,271.5811663001077,j,271.5813945000991,,,271.5814096000977,None,,,2.2899551999289542,0.128580900025554,,,,,,,,,,00033,001,2026-01-22_11h03.27.713,MST_task,2024.2.0,59.71628791089772,2026-01-22 11h03.40.191759 +0530,
,Scenes\065a.jpg,41,0,42,,,,,,,j,None,,,2.5610337000107393,0.14474210003390908,,,,42,0,41,271.59776950010564,,,,,,,,,,,,,,,,,,,,,,,271.5815087000374,271.59776950010564,272.08362520008814,,,,,,,,,,,,,,,,,,,,,,,272.1083168000914,272.13394510000944,272.13394510000944,272.13394510000944,275.0933583000442,j,275.0934150000103,,,275.0934280999936,None,,,2.5610337000107393,0.14474210003390908,,,,,,,,,,00033,001,2026-01-22_11h03.27.713,MST_task,2024.2.0,59.71628791089772,2026-01-22 11h03.40.191759 +0530,
,Objects\010a.jpg,42,0,43,,,,,,,f,None,,,2.7710216999985278,0.1750086999963969,,,,43,0,42,275.1101853,,,,,,,,,,,,,,,,,,,,,,,275.09352300001774,275.1101853,275.5951635000529,,,,,,,,,,,,,,,,,,,,,,,275.6179008000763,275.6292739000637,275.6292739000637,275.6292739000637,278.60566450003535,f,278.60571910010185,,,278.6057322000852,None,,,2.7710216999985278,0.1750086999963969,,,,,,,,,,00033,001,2026-01-22_11h03.27.713,MST_task,2024.2.0,59.71628791089772,2026-01-22 11h03.40.191759 +0530,
,Objects\059a.jpg,43,0,44,,,,,,,None,j,0.5133459999924526,None,,,,,,44,0,43,278.6224902000977,,,,,,,,,,,,,,,,,,,,,,,278.60579900001176,278.6224902000977,279.1075994001003,,,,,,,,,,,,,,,,,,,,,,,279.1316402000375,279.14094360009767,279.14094360009767,279.14094360009767,282.117950300104,None,282.1180035000434,282.13477790006436,282.13477790006436,282.65382830007,j,0.5133459999924526,None,,,,,,,,,,,,00033,001,2026-01-22_11h03.27.713,MST_task,2024.2.0,59.71628791089772,2026-01-22 11h03.40.191759 +0530,
,Objects\115a.jpg,44,0,45,,,,,,,None,f,0.20936380000784993,None,,,,,,45,0,44,282.66999030008446,,,,,,,,,,,,,,,,,,,,,,,282.653961300035,282.66999030008446,283.1549794001039,,,,,,,,,,,,,,,,,,,,,,,283.1774765000446,283.1884514000267,283.1884514000267,283.1884514000267,286.165906200069,None,286.16596060001757,286.1821671000216,286.1821671000216,286.4004592000274,f,0.20936380000784993,None,,,,,,,,,,,,00033,001,2026-01-22_11h03.27.713,MST_task,2024.2.0,59.71628791089772,2026-01-22 11h03.40.191759 +0530,
,Objects\085a.jpg,45,0,46,,,,,,,f,None,,,1.976542199961841,0.2404820000519976,,,,46,0,45,286.4163458000403,,,,,,,,,,,,,,,,,,,,,,,286.4007105000783,286.4163458000403,286.9017958000768,,,,,,,,,,,,,,,,,,,,,,,286.9250343000749,286.9348199000815,286.9348199000815,286.9348199000815,289.9119249000214,f,289.9119821001077,,,289.9119953000918,None,,,1.976542199961841,0.2404820000519976,,,,,,,,,,00033,001,2026-01-22_11h03.27.713,MST_task,2024.2.0,59.71628791089772,2026-01-22 11h03.40.191759 +0530,
,Objects\107a.jpg,46,0,47,,,,,,,None,f,0.910224899998866,None,,,,,,47,0,46,289.92871850007214,,,,,,,,,,,,,,,,,,,,,,,289.91210000007413,289.92871850007214,290.4137207000749,,,,,,,,,,,,,,,,,,,,,,,290.43671390006784,290.4472089000046,290.4472089000046,290.4472089000046,293.4243586000521,None,293.42467400000896,293.44106800004374,293.44106800004374,294.36169440008234,f,0.910224899998866,None,,,,,,,,,,,,00033,001,2026-01-22_11h03.27.713,MST_task,2024.2.0,59.71628791089772,2026-01-22 11h03.40.191759 +0530,
,Objects\178a.jpg,47,0,48,,,,,,,j,None,,,2.9204300000565127,None,,,,48,0,47,294.37757140002213,,,,,,,,,,,,,,,,,,,,,,,294.36182580003515,294.37757140002213,294.8629030000884,,,,,,,,,,,,,,,,,,,,,,,294.88651159999426,294.8959959000349,294.8959959000349,294.8959959000349,297.87328990001697,j,297.87335570005234,,,297.87336990004405,None,,,2.9204300000565127,None,,,,,,,,,,00033,001,2026-01-22_11h03.27.713,MST_task,2024.2.0,59.71628791089772,2026-01-22 11h03.40.191759 +0530,
,Objects\032a.jpg,48,0,49,,,,,,,j,None,,,2.431271499954164,0.1852237000130117,,,,49,0,48,297.8899643000914,,,,,,,,,,,,,,,,,,,,,,,297.8734394001076,297.8899643000914,298.3753322000848,,,,,,,,,,,,,,,,,,,,,,,298.3955646000104,298.40841130004264,298.40841130004264,298.40841130004264,301.38558100000955,j,301.3860355000943,,,301.386049700086,None,,,2.431271499954164,0.1852237000130117,,,,,,,,,,00033,001,2026-01-22_11h03.27.713,MST_task,2024.2.0,59.71628791089772,2026-01-22 11h03.40.191759 +0530,
,Scenes\096a.jpg,49,0,50,,,,,,,j,None,,,2.285916799912229,0.17509250005241483,,,,50,0,49,301.4021616000682,,,,,,,,,,,,,,,,,,,,,,,301.3861493000295,301.4021616000682,301.8874872000888,,,,,,,,,,,,,,,,,,,,,,,301.9167393000098,301.9381093000993,301.9381093000993,301.9381093000993,304.89804960007314,j,304.8981077000499,,,304.89812040003017,None,,,2.285916799912229,0.17509250005241483,,,,,,,,,,00033,001,2026-01-22_11h03.27.713,MST_task,2024.2.0,59.71628791089772,2026-01-22 11h03.40.191759 +0530,
,Scenes\002a.jpg,50,0,51,,,,,,,j,None,,,1.309047499904409,0.15201910003088415,,,,51,0,50,304.9145890000509,,,,,,,,,,,,,,,,,,,,,,,304.89820809999947,304.9145890000509,305.39967440010514,,,,,,,,,,,,,,,,,,,,,,,305.4277212000452,305.45025980006903,305.45025980006903,305.45025980006903,308.4102052000817,j,308.4102812000783,,,308.41029400005937,None,,,1.309047499904409,0.15201910003088415,,,,,,,,,,00033,001,2026-01-22_11h03.27.713,MST_task,2024.2.0,59.71628791089772,2026-01-22 11h03.40.191759 +0530,
,Scenes\035a.jpg,51,0,52,,,,,,,None,f,1.2193019000114873,None,,,,,,52,0,51,308.4267554000253,,,,,,,,,,,,,,,,,,,,,,,308.410387000069,308.4267554000253,308.91225130006205,,,,,,,,,,,,,,,,,,,,,,,308.9404273000546,308.962810200057,308.962810200057,308.962810200057,311.922795600025,None,311.92286320007406,311.93985560000874,311.93985560000874,313.1610372000141,f,1.2193019000114873,None,,,,,,,,,,,,00033,001,2026-01-22_11h03.27.713,MST_task,2024.2.0,59.71628791089772,2026-01-22 11h03.40.191759 +0530,
,Scenes\079a.jpg,52,0,53,,,,,,,None,j,0.6381735999602824,None,,,,,,53,0,52,313.17695600003935,,,,,,,,,,,,,,,,,,,,,,,313.1611269999994,313.17695600003935,313.66193260008004,,,,,,,,,,,,,,,,,,,,,,,313.6843733000569,313.6952636000933,313.6952636000933,313.6952636000933,316.67250830004923,None,316.67258640006185,316.68913549999706,316.68913549999706,317.34202030010056,j,0.6381735999602824,None,,,,,,,,,,,,00033,001,2026-01-22_11h03.27.713,MST_task,2024.2.0,59.71628791089772,2026-01-22 11h03.40.191759 +0530,
,Scenes\105a.jpg,53,0,54,,,,,,,j,None,,,2.562671300023794,0.15925739996600896,,,,54,0,53,317.3581494000973,,,,,,,,,,,,,,,,,,,,,,,317.34214530000463,317.3581494000973,317.84324070008006,,,,,,,,,,,,,,,,,,,,,,,317.870055800071,317.8934309000615,317.8934309000615,317.8934309000615,320.85377290006727,j,320.85383969999384,,,320.8538541001035,None,,,2.562671300023794,0.15925739996600896,,,,,,,,,,00033,001,2026-01-22_11h03.27.713,MST_task,2024.2.0,59.71628791089772,2026-01-22 11h03.40.191759 +0530,
,Scenes\043a.jpg,54,0,55,,,,,,,None,j,0.8724883999675512,None,,,,,,55,0,54,320.87044840003364,,,,,,,,,,,,,,,,,,,,,,,320.8539487000089,320.87044840003364,321.3554072000552,,,,,,,,,,,,,,,,,,,,,,,321.38206600002013,321.4061061000684,321.4061061000684,321.4061061000684,324.36604430002626,None,324.3661125000799,324.3827183000976,324.3827183000976,325.26975259999745,j,0.8724883999675512,None,,,,,,,,,,,,00033,001,2026-01-22_11h03.27.713,MST_task,2024.2.0,59.71628791089772,2026-01-22 11h03.40.191759 +0530,
,Scenes\115a.jpg,55,0,56,,,,,,,None,j,0.41767360002268106,None,,,,,,56,0,55,325.28579150000587,,,,,,,,,,,,,,,,,,,,,,,325.26988250005525,325.28579150000587,325.7709996000631,,,,,,,,,,,,,,,,,,,,,,,325.78702849999536,325.80458600004204,325.80458600004204,325.80458600004204,328.78149490000214,None,328.7816907000961,328.79817710001953,328.79817710001953,329.2169455999974,j,0.41767360002268106,None,,,,,,,,,,,,00033,001,2026-01-22_11h03.27.713,MST_task,2024.2.0,59.71628791089772,2026-01-22 11h03.40.191759 +0530,
,Objects\119a.jpg,56,0,57,,,,,,,f,None,,,2.0799569999799132,0.16743670008145273,,,,57,0,56,329.23295730003156,,,,,,,,,,,,,,,,,,,,,,,329.21703450009227,329.23295730003156,329.7181580000324,,,,,,,,,,,,,,,,,,,,,,,329.7406437000027,329.7523105000146,329.7523105000146,329.7523105000146,332.7286851000972,f,332.7287454000907,,,332.7287589000771,None,,,2.0799569999799132,0.16743670008145273,,,,,,,,,,00033,001,2026-01-22_11h03.27.713,MST_task,2024.2.0,59.71628791089772,2026-01-22 11h03.40.191759 +0530,
,Objects\169a.jpg,57,0,58,,,,,,,None,f,0.1825496000237763,None,,,,,,58,0,57,332.7454195000464,,,,,,,,,,,,,,,,,,,,,,,332.72885960002895,332.7454195000464,333.23058430000674,,,,,,,,,,,,,,,,,,,,,,,333.251899600029,333.26370100001805,333.26370100001805,333.26370100001805,336.2409713000525,None,336.24141530005727,336.2575496000936,336.2575496000936,336.44241490005516,f,0.1825496000237763,None,,,,,,,,,,,,00033,001,2026-01-22_11h03.27.713,MST_task,2024.2.0,59.71628791089772,2026-01-22 11h03.40.191759 +0530,
,Objects\014a.jpg,58,0,59,,,,,,,f,None,,,2.350363500067033,0.1839707000181079,,,,59,0,58,336.458383899997,,,,,,,,,,,,,,,,,,,,,,,336.4425072000595,336.458383899997,336.943896700046,,,,,,,,,,,,,,,,,,,,,,,336.966084600077,336.97670080000535,336.97670080000535,336.97670080000535,339.95390290010255,f,339.9539781000931,,,339.9539928000886,None,,,2.350363500067033,0.1839707000181079,,,,,,,,,,00033,001,2026-01-22_11h03.27.713,MST_task,2024.2.0,59.71628791089772,2026-01-22 11h03.40.191759 +0530,
,Objects\027a.jpg,59,0,60,,,,,,,j,None,,,2.5580506999976933,0.1682198999915272,,,,60,0,59,339.9706688000588,,,,,,,,,,,,,,,,,,,,,,,339.9540919000283,339.9706688000588,340.45563890004996,,,,,,,,,,,,,,,,,,,,,,,340.4784360000631,340.4891142999986,340.4891142999986,340.4891142999986,343.4663839000277,j,343.46658590005245,,,343.46660060004797,None,,,2.5580506999976933,0.1682198999915272,,,,,,,,,,00033,001,2026-01-22_11h03.27.713,MST_task,2024.2.0,59.71628791089772,2026-01-22 11h03.40.191759 +0530,
,Objects\070a.jpg,60,0,61,,,,,,,f,None,,,2.8304959000088274,None,,,,61,0,60,343.4829823001055,,,,,,,,,,,,,,,,,,,,,,,343.4666855999967,343.4829823001055,343.96819000004325,,,,,,,,,,,,,,,,,,,,,,,343.9909819000168,344.0012900000438,344.0012900000438,344.0012900000438,346.9784341000486,f,346.9785042000003,,,346.9785172000993,None,,,2.8304959000088274,None,,,,,,,,,,00033,001,2026-01-22_11h03.27.713,MST_task,2024.2.0,59.71628791089772,2026-01-22 11h03.40.191759 +0530,
,Objects\109a.jpg,61,0,62,,,,,,,f,None,,,2.909644700004719,None,,,,62,0,61,346.9953892000485,,,,,,,,,,,,,,,,,,,,,,,346.978587300051,346.9953892000485,347.4801925000502,,,,,,,,,,,,,,,,,,,,,,,347.50125370000023,347.5137078000698,347.5137078000698,347.5137078000698,350.4910183000611,f,350.49107540003024,,,350.4910887000151,None,,,2.909644700004719,None,,,,,,,,,,00033,001,2026-01-22_11h03.27.713,MST_task,2024.2.0,59.71628791089772,2026-01-22 11h03.40.191759 +0530,
,Objects\143a.jpg,62,0,63,,,,,,,j,None,,,2.8536679999670014,None,,,,63,0,62,350.50757620006334,,,,,,,,,,,,,,,,,,,,,,,350.49119620001875,350.50757620006334,350.99277160002384,,,,,,,,,,,,,,,,,,,,,,,351.01654110010713,351.0261179000372,351.0261179000372,351.0261179000372,354.0033815000206,j,354.00343710009474,,,354.0034504000796,None,,,2.8536679999670014,None,,,,,,,,,,00033,001,2026-01-22_11h03.27.713,MST_task,2024.2.0,59.71628791089772,2026-01-22 11h03.40.191759 +0530,
,Scenes\063a.jpg,63,0,64,,,,,,,j,None,,,2.381785499979742,0.1831677999580279,,,,64,0,63,354.01976110006217,,,,,,,,,,,,,,,,,,,,,,,354.0035215000389,354.01976110006217,354.5049751000479,,,,,,,,,,,,,,,,,,,,,,,354.53012000001036,354.5548477000557,354.5548477000557,354.5548477000557,357.51546890009195,j,357.51552740007173,,,357.515539700049,None,,,2.381785499979742,0.1831677999580279,,,,,,,,,,00033,001,2026-01-22_11h03.27.713,MST_task,2024.2.0,59.71628791089772,2026-01-22 11h03.40.191759 +0530,
,Scenes\091a.jpg,64,0,65,,,,,,,j,None,,,2.845065200002864,None,,,,65,0,64,357.53205300006084,,,,,,,,,,,,,,,,,,,,,,,357.5156664000824,357.53205300006084,358.0172659000382,,,,,,,,,,,,,,,,,,,,,,,358.0302325000521,358.0506108000409,358.0506108000409,358.0506108000409,361.02781010000035,j,361.02786390006077,,,361.0278765000403,None,,,2.845065200002864,None,,,,,,,,,,00033,001,2026-01-22_11h03.27.713,MST_task,2024.2.0,59.71628791089772,2026-01-22 11h03.40.191759 +0530,
,Scenes\045a.jpg,65,0,66,,,,,,,j,None,,,2.3708311000373214,0.1125202999683097,,,,66,0,65,361.04435020009987,,,,,,,,,,,,,,,,,,,,,,,361.02798160002567,361.04435020009987,361.5296281001065,,,,,,,,,,,,,,,,,,,,,,,361.5581904000137,361.58087180007715,361.58087180007715,361.58087180007715,364.53996200009715,j,364.5400332000572,,,364.5400467000436,None,,,2.3708311000373214,0.1125202999683097,,,,,,,,,,00033,001,2026-01-22_11h03.27.713,MST_task,2024.2.0,59.71628791089772,2026-01-22 11h03.40.191759 +0530,
,Scenes\169a.jpg,66,0,67,,,,,,,j,None,,,1.9640905000269413,0.15154480002820492,,,,67,0,66,364.5568774000276,,,,,,,,,,,,,,,,,,,,,,,364.54012730007526,364.5568774000276,365.0418115000939,,,,,,,,,,,,,,,,,,,,,,,365.06818230007775,365.0919348000316,365.0919348000316,365.0919348000316,368.0523646000074,j,368.05242250009906,,,368.05243540008087,None,,,1.9640905000269413,0.15154480002820492,,,,,,,,,,00033,001,2026-01-22_11h03.27.713,MST_task,2024.2.0,59.71628791089772,2026-01-22 11h03.40.191759 +0530,
,Scenes\156a.jpg,67,0,68,,,,,,,j,None,,,2.067663799971342,0.13599510001949966,,,,68,0,67,368.06901000009384,,,,,,,,,,,,,,,,,,,,,,,368.0525047000265,368.06901000009384,368.55415780004114,,,,,,,,,,,,,,,,,,,,,,,368.5800745000597,368.60423010005616,368.60423010005616,368.60423010005616,371.5646545001073,j,371.56471180007793,,,371.564724600059,None,,,2.067663799971342,0.13599510001949966,,,,,,,,,,00033,001,2026-01-22_11h03.27.713,MST_task,2024.2.0,59.71628791089772,2026-01-22 11h03.40.191759 +0530,
,Scenes\052a.jpg,68,0,69,,,,,,,None,j,0.18589550000615418,None,,,,,,69,0,68,371.58125450008083,,,,,,,,,,,,,,,,,,,,,,,371.56481680006254,371.58125450008083,372.06698830006644,,,,,,,,,,,,,,,,,,,,,,,372.0849575001048,372.09993270004634,372.09993270004634,372.09993270004634,375.07707830006257,None,375.0771333000157,375.0935559000354,375.0935559000354,375.2950266000116,j,0.18589550000615418,None,,,,,,,,,,,,00033,001,2026-01-22_11h03.27.713,MST_task,2024.2.0,59.71628791089772,2026-01-22 11h03.40.191759 +0530,
,Scenes\118a.jpg,69,0,70,,,,,,,j,None,,,2.5223706000251696,0.18410039995796978,,,,70,0,69,375.31113230006304,,,,,,,,,,,,,,,,,,,,,,,375.2951116000768,375.31113230006304,375.7959666000679,,,,,,,,,,,,,,,,,,,,,,,375.81732570007443,375.82943250006065,375.82943250006065,375.82943250006065,378.80657250003424,j,378.80663140001707,,,378.8068983000703,None,,,2.5223706000251696,0.18410039995796978,,,,,,,,,,00033,001,2026-01-22_11h03.27.713,MST_task,2024.2.0,59.71628791089772,2026-01-22 11h03.40.191759 +0530,
,Objects\127a.jpg,70,0,71,,,,,,,f,None,,,2.657379300100729,0.18278479995205998,,,,71,0,70,378.82339870010037,,,,,,,,,,,,,,,,,,,,,,,378.80701770004816,378.82339870010037,379.30838560010307,,,,,,,,,,,,,,,,,,,,,,,379.33060870005284,379.3427553999936,379.3427553999936,379.3427553999936,382.3188870000886,f,382.3189446000615,,,382.3189581000479,None,,,2.657379300100729,0.18278479995205998,,,,,,,,,,00033,001,2026-01-22_11h03.27.713,MST_task,2024.2.0,59.71628791089772,2026-01-22 11h03.40.191759 +0530,
,Objects\128a.jpg,71,0,72,,,,,,,f,None,,,1.7448910999810323,0.15292739996220917,,,,72,0,71,382.3357024000725,,,,,,,,,,,,,,,,,,,,,,,382.31904080009554,382.3357024000725,382.8207412000047,,,,,,,,,,,,,,,,,,,,,,,382.8461300000781,382.8541374000488,382.8541374000488,382.8541374000488,385.831384500023,f,385.83158410002943,,,385.83160350006074,None,,,1.7448910999810323,0.15292739996220917,,,,,,,,,,00033,001,2026-01-22_11h03.27.713,MST_task,2024.2.0,59.71628791089772,2026-01-22 11h03.40.191759 +0530,
,Objects\118a.jpg,72,0,73,,,,,,,f,None,,,2.6326606000075117,0.16092519997619092,,,,73,0,72,385.84789289999753,,,,,,,,,,,,,,,,,,,,,,,385.8316799000604,385.84789289999753,386.3337735000532,,,,,,,,,,,,,,,,,,,,,,,386.3571039000526,386.3667635000311,386.3667635000311,386.3667635000311,389.34371160005685,f,389.3437689000275,,,389.3437821000116,None,,,2.6326606000075117,0.16092519997619092,,,,,,,,,,00033,001,2026-01-22_11h03.27.713,MST_task,2024.2.0,59.71628791089772,2026-01-22 11h03.40.191759 +0530,
,Objects\031a.jpg,73,0,74,,,,,,,j,None,,,2.8896354999160394,None,,,,74,0,73,389.3601690999931,,,,,,,,,,,,,,,,,,,,,,,389.3438512000721,389.3601690999931,389.8453848999925,,,,,,,,,,,,,,,,,,,,,,,389.8667490000371,389.8786212000996,389.8786212000996,389.8786212000996,392.8558069000719,j,392.8558776000282,,,392.8558908000123,None,,,2.8896354999160394,None,,,,,,,,,,00033,001,2026-01-22_11h03.27.713,MST_task,2024.2.0,59.71628791089772,2026-01-22 11h03.40.191759 +0530,
,Objects\104a.jpg,74,0,75,,,,,,,f,None,,,1.7285344999982044,0.15206989995203912,,,,75,0,74,392.8729726000456,,,,,,,,,,,,,,,,,,,,,,,392.85598950006533,392.8729726000456,393.3576667000307,,,,,,,,,,,,,,,,,,,,,,,393.37867690005805,393.3910442000488,393.3910442000488,393.3910442000488,396.36823000002187,f,396.36830040009227,,,396.36831410008017,None,,,1.7285344999982044,0.15206989995203912,,,,,,,,,,00033,001,2026-01-22_11h03.27.713,MST_task,2024.2.0,59.71628791089772,2026-01-22 11h03.40.191759 +0530,
,Objects\148a.jpg,75,0,76,,,,,,,f,None,,,2.7437101000687107,None,,,,76,0,75,396.38477430003695,,,,,,,,,,,,,,,,,,,,,,,396.3684317000443,396.38477430003695,396.86999120004475,,,,,,,,,,,,,,,,,,,,,,,396.8919652000768,396.9032217001077,396.9032217001077,396.9032217001077,399.8804643000476,f,399.8805347000016,,,399.88054780010134,None,,,2.7437101000687107,None,,,,,,,,,,00033,001,2026-01-22_11h03.27.713,MST_task,2024.2.0,59.71628791089772,2026-01-22 11h03.40.191759 +0530,
,Objects\088a.jpg,76,0,77,,,,,,,f,None,,,2.623880899976939,0.30370410007890314,,,,77,0,76,399.8972011000151,,,,,,,,,,,,,,,,,,,,,,,399.88061680004466,399.8972011000151,400.38216450007167,,,,,,,,,,,,,,,,,,,,,,,400.4043370001018,400.415639200015,400.415639200015,400.415639200015,403.3930749000283,f,403.3931317999959,,,403.39314460009336,None,,,2.623880899976939,0.30370410007890314,,,,,,,,,,00033,001,2026-01-22_11h03.27.713,MST_task,2024.2.0,59.71628791089772,2026-01-22 11h03.40.191759 +0530,
,Scenes\186a.jpg,77,0,78,,,,,,,None,f,0.5982140999985859,None,,,,,,78,0,77,403.40938050008845,,,,,,,,,,,,,,,,,,,,,,,403.39323750010226,403.40938050008845,403.8947721000295,,,,,,,,,,,,,,,,,,,,,,,403.9174585000146,403.928525299998,403.928525299998,403.928525299998,406.9050671000732,None,406.90511819999665,406.9217923000688,406.9217923000688,407.5244222000474,f,0.5982140999985859,None,,,,,,,,,,,,00033,001,2026-01-22_11h03.27.713,MST_task,2024.2.0,59.71628791089772,2026-01-22 11h03.40.191759 +0530,
,Scenes\161a.jpg,78,0,79,,,,,,,j,None,,,1.969673000043258,0.1362748999381438,,,,79,0,78,407.5406819001073,,,,,,,,,,,,,,,,,,,,,,,407.52451630006544,407.5406819001073,408.0258920000633,,,,,,,,,,,,,,,,,,,,,,,408.05512930010445,408.0776368000079,408.0776368000079,408.0776368000079,411.0361001000274,j,411.03616570006125,,,411.0361793000484,None,,,1.969673000043258,0.1362748999381438,,,,,,,,,,00033,001,2026-01-22_11h03.27.713,MST_task,2024.2.0,59.71628791089772,2026-01-22 11h03.40.191759 +0530,
,Scenes\003a.jpg,79,0,80,,,,,,,f,None,,,2.914036100031808,None,,,,80,0,79,411.05294260010123,,,,,,,,,,,,,,,,,,,,,,,411.03627360006794,411.05294260010123,411.5378897000337,,,,,,,,,,,,,,,,,,,,,,,411.5646995001007,411.5889211000176,411.5889211000176,411.5889211000176,414.548957800027,f,414.5490309000015,,,414.549045199994,None,,,2.914036100031808,None,,,,,,,,,,00033,001,2026-01-22_11h03.27.713,MST_task,2024.2.0,59.71628791089772,2026-01-22 11h03.40.191759 +0530,
,Scenes\123a.jpg,80,0,81,,,,,,,j,None,,,2.8191121000563726,None,,,,81,0,80,414.56524240004364,,,,,,,,,,,,,,,,,,,,,,,414.549141000025,414.56524240004364,415.05037030007225,,,,,,,,,,,,,,,,,,,,,,,415.0712307000067,415.0843197000213,415.0843197000213,415.0843197000213,418.06093999999575,j,418.0610493000131,,,418.06106500001624,None,,,2.8191121000563726,None,,,,,,,,,,00033,001,2026-01-22_11h03.27.713,MST_task,2024.2.0,59.71628791089772,2026-01-22 11h03.40.191759 +0530,
,Scenes\182a.jpg,81,0,82,,,,,,,j,None,,,2.738663100055419,None,,,,82,0,81,418.0774787000846,,,,,,,,,,,,,,,,,,,,,,,418.06117340002675,418.0774787000846,418.56339070003014,,,,,,,,,,,,,,,,,,,,,,,418.5881401000079,418.61328060005326,418.61328060005326,418.61328060005326,421.57309030008037,j,421.57315300009213,,,421.57317210000474,None,,,2.738663100055419,None,,,,,,,,,,00033,001,2026-01-22_11h03.27.713,MST_task,2024.2.0,59.71628791089772,2026-01-22 11h03.40.191759 +0530,
,Scenes\089a.jpg,82,0,83,,,,,,,f,None,,,2.4271486999932677,0.21605389995966107,,,,83,0,82,421.58984700008295,,,,,,,,,,,,,,,,,,,,,,,421.5735187000828,421.58984700008295,422.07478730008006,,,,,,,,,,,,,,,,,,,,,,,422.10219110001344,422.12488580006175,422.12488580006175,422.12488580006175,425.0853823000798,f,425.08570560009684,,,425.0857204000931,None,,,2.4271486999932677,0.21605389995966107,,,,,,,,,,00033,001,2026-01-22_11h03.27.713,MST_task,2024.2.0,59.71628791089772,2026-01-22 11h03.40.191759 +0530,
,Scenes\145a.jpg,83,0,84,,,,,,,j,None,,,2.497785900020972,0.2645871000131592,,,,84,0,83,425.10213520005345,,,,,,,,,,,,,,,,,,,,,,,425.08579250006005,425.10213520005345,425.5871067000553,,,,,,,,,,,,,,,,,,,,,,,425.61399760004133,425.63718120008707,425.63718120008707,425.63718120008707,428.59770510008093,j,428.5979359000921,,,428.59795010008384,None,,,2.497785900020972,0.2645871000131592,,,,,,,,,,00033,001,2026-01-22_11h03.27.713,MST_task,2024.2.0,59.71628791089772,2026-01-22 11h03.40.191759 +0530,
,Objects\073a.jpg,84,0,85,,,,,,,f,None,,,2.4269949999870732,0.16755560005549341,,,,85,0,84,428.6143121001078,,,,,,,,,,,,,,,,,,,,,,,428.59803850005846,428.6143121001078,429.0998128000647,,,,,,,,,,,,,,,,,,,,,,,429.1246143000899,429.13362970005255,429.13362970005255,429.13362970005255,432.10991560004186,f,432.1099747000262,,,432.1099887000164,None,,,2.4269949999870732,0.16755560005549341,,,,,,,,,,00033,001,2026-01-22_11h03.27.713,MST_task,2024.2.0,59.71628791089772,2026-01-22 11h03.40.191759 +0530,
,Objects\146a.jpg,85,0,86,,,,,,,f,None,,,2.0191875000018626,0.24626779998652637,,,,86,0,85,432.1267274999991,,,,,,,,,,,,,,,,,,,,,,,432.1101028000703,432.1267274999991,432.6117362000514,,,,,,,,,,,,,,,,,,,,,,,432.63480790005997,432.64551970001776,432.64551970001776,432.64551970001776,435.6223167000571,f,435.62239320005756,,,435.6224068000447,None,,,2.0191875000018626,0.24626779998652637,,,,,,,,,,00033,001,2026-01-22_11h03.27.713,MST_task,2024.2.0,59.71628791089772,2026-01-22 11h03.40.191759 +0530,
,Objects\191a.jpg,86,0,87,,,,,,,j,None,,,2.5707043999573216,0.19240629998967052,,,,87,0,86,435.63904150004964,,,,,,,,,,,,,,,,,,,,,,,435.6224766999949,435.63904150004964,436.1243304000236,,,,,,,,,,,,,,,,,,,,,,,436.14671170001384,436.1573625000892,436.1573625000892,436.1573625000892,439.13452800002415,j,439.1345995001029,,,439.1346135000931,None,,,2.5707043999573216,0.19240629998967052,,,,,,,,,,00033,001,2026-01-22_11h03.27.713,MST_task,2024.2.0,59.71628791089772,2026-01-22 11h03.40.191759 +0530,
,Objects\192a.jpg,87,0,88,,,,,,,j,None,,,2.706033100024797,0.1832046000054106,,,,88,0,87,439.15132430009544,,,,,,,,,,,,,,,,,,,,,,,439.1349886000389,439.15132430009544,439.63640610000584,,,,,,,,,,,,,,,,,,,,,,,439.6595001000678,439.6697734000627,439.6697734000627,439.6697734000627,442.6468041000189,j,442.64685860008467,,,442.6468710000627,None,,,2.706033100024797,0.1832046000054106,,,,,,,,,,00033,001,2026-01-22_11h03.27.713,MST_task,2024.2.0,59.71628791089772,2026-01-22 11h03.40.191759 +0530,
,Objects\103a.jpg,88,0,89,,,,,,,f,None,,,2.857890999992378,None,,,,89,0,88,442.66362670005765,,,,,,,,,,,,,,,,,,,,,,,442.6469397000037,442.66362670005765,443.1486039001029,,,,,,,,,,,,,,,,,,,,,,,443.17141870001797,443.18207410001196,443.18207410001196,443.18207410001196,446.1592114000814,f,446.1594474000158,,,446.1594636000227,None,,,2.857890999992378,None,,,,,,,,,,00033,001,2026-01-22_11h03.27.713,MST_task,2024.2.0,59.71628791089772,2026-01-22 11h03.40.191759 +0530,
,Objects\044a.jpg,89,0,90,,,,,,,None,f,0.04742890002671629,None,,,,,,90,0,89,446.1758001000853,,,,,,,,,,,,,,,,,,,,,,,446.1595552000217,446.1758001000853,446.66163290000986,,,,,,,,,,,,,,,,,,,,,,,446.68495320004877,446.6942559001036,446.6942559001036,446.6942559001036,449.6715751000447,None,449.6716271000914,449.6883986000903,449.6883986000903,449.73899420001544,f,0.04742890002671629,None,,,,,,,,,,,,00033,001,2026-01-22_11h03.27.713,MST_task,2024.2.0,59.71628791089772,2026-01-22 11h03.40.191759 +0530,
,Objects\060a.jpg,90,0,91,,,,,,,f,None,,,2.749786700005643,0.1527063000248745,,,,91,0,90,449.75531310006045,,,,,,,,,,,,,,,,,,,,,,,449.7390834999969,449.75531310006045,450.2402939000167,,,,,,,,,,,,,,,,,,,,,,,450.2620135000907,450.27373410004657,450.27373410004657,450.27373410004657,453.2509203000227,f,453.2509762000991,,,453.25098870007787,None,,,2.749786700005643,0.1527063000248745,,,,,,,,,,00033,001,2026-01-22_11h03.27.713,MST_task,2024.2.0,59.71628791089772,2026-01-22 11h03.40.191759 +0530,
,Scenes\119a.jpg,91,0,92,,,,,,,j,None,,,2.8367786000017077,None,,,,92,0,91,453.26747010007966,,,,,,,,,,,,,,,,,,,,,,,453.2510579000227,453.26747010007966,453.75268210005015,,,,,,,,,,,,,,,,,,,,,,,453.77784840005916,453.80263799999375,453.80263799999375,453.80263799999375,456.7632708000019,j,456.76332950009964,,,456.7633431000868,None,,,2.8367786000017077,None,,,,,,,,,,00033,001,2026-01-22_11h03.27.713,MST_task,2024.2.0,59.71628791089772,2026-01-22 11h03.40.191759 +0530,
,Scenes\153a.jpg,92,0,93,,,,,,,None,f,0.16336600005161017,None,,,,,,93,0,92,456.7798743000021,,,,,,,,,,,,,,,,,,,,,,,456.7634439000394,456.7798743000021,457.2649872000329,,,,,,,,,,,,,,,,,,,,,,,457.2850246001035,457.29865470004734,457.29865470004734,457.29865470004734,460.2753037000075,None,460.2753744000802,460.292051800061,460.292051800061,460.4600899000652,f,0.16336600005161017,None,,,,,,,,,,,,00033,001,2026-01-22_11h03.27.713,MST_task,2024.2.0,59.71628791089772,2026-01-22 11h03.40.191759 +0530,
,Scenes\171a.jpg,93,0,94,,,,,,,f,None,,,2.8760804999619722,None,,,,94,0,93,460.47604110010434,,,,,,,,,,,,,,,,,,,,,,,460.4602750000777,460.47604110010434,460.9613714000443,,,,,,,,,,,,,,,,,,,,,,,460.9910605000332,461.0120562000666,461.0120562000666,461.0120562000666,463.9715073000407,f,463.97156299999915,,,463.9715763001004,None,,,2.8760804999619722,None,,,,,,,,,,00033,001,2026-01-22_11h03.27.713,MST_task,2024.2.0,59.71628791089772,2026-01-22 11h03.40.191759 +0530,
,Scenes\170a.jpg,94,0,95,,,,,,,j,None,,,2.619524999987334,0.19992699997965246,,,,95,0,94,463.9884755000239,,,,,,,,,,,,,,,,,,,,,,,463.9716669000918,463.9884755000239,464.4740373000968,,,,,,,,,,,,,,,,,,,,,,,464.5032569000032,464.5238603000762,464.5238603000762,464.5238603000762,467.4840782000683,j,467.48414050007705,,,467.4841646000277,None,,,2.619524999987334,0.19992699997965246,,,,,,,,,,00033,001,2026-01-22_11h03.27.713,MST_task,2024.2.0,59.71628791089772,2026-01-22 11h03.40.191759 +0530,
,Scenes\020a.jpg,95,0,96,,,,,,,None,f,0.1621293000644073,None,,,,,,96,0,95,467.5004889999982,,,,,,,,,,,,,,,,,,,,,,,467.48423520009965,467.5004889999982,467.9857021000935,,,,,,,,,,,,,,,,,,,,,,,468.0170509000309,468.0364930999931,468.0364930999931,468.0364930999931,470.99617930001114,None,470.9965144000016,471.01299960003234,471.01299960003234,471.180762300035,f,0.1621293000644073,None,,,,,,,,,,,,00033,001,2026-01-22_11h03.27.713,MST_task,2024.2.0,59.71628791089772,2026-01-22 11h03.40.191759 +0530,
,Scenes\058a.jpg,96,0,97,,,,,,,f,None,,,2.707206099992618,0.1759267000015825,,,,97,0,96,471.1967575000599,,,,,,,,,,,,,,,,,,,,,,,471.1809061000822,471.1967575000599,471.68196060007904,,,,,,,,,,,,,,,,,,,,,,,471.70802720007487,471.7321787000401,471.7321787000401,471.7321787000401,474.6928890000563,f,474.6929581000004,,,474.69297450000886,None,,,2.707206099992618,0.1759267000015825,,,,,,,,,,00033,001,2026-01-22_11h03.27.713,MST_task,2024.2.0,59.71628791089772,2026-01-22 11h03.40.191759 +0530,
,Scenes\191a.jpg,97,0,98,,,,,,,j,None,,,2.3390147000318393,0.2153595999116078,,,,98,0,97,474.7093445000937,,,,,,,,,,,,,,,,,,,,,,,474.69307880010456,474.7093445000937,475.1941539000254,,,,,,,,,,,,,,,,,,,,,,,475.2161444000667,475.22850830003154,475.22850830003154,475.22850830003154,478.20475590007845,j,478.2049736001063,,,478.2049889001064,None,,,2.3390147000318393,0.2153595999116078,,,,,,,,,,00033,001,2026-01-22_11h03.27.713,MST_task,2024.2.0,59.71628791089772,2026-01-22 11h03.40.191759 +0530,
,Objects\006a.jpg,98,0,99,,,,,,,f,None,,,1.9394710999913514,0.2472204000223428,,,,99,0,98,478.22136590001173,,,,,,,,,,,,,,,,,,,,,,,478.2050613000756,478.22136590001173,478.70675140002277,,,,,,,,,,,,,,,,,,,,,,,478.7292109000264,478.7414463000605,478.7414463000605,478.7414463000605,481.71756260003895,f,481.71762490004767,,,481.71763840003405,None,,,1.9394710999913514,0.2472204000223428,,,,,,,,,,00033,001,2026-01-22_11h03.27.713,MST_task,2024.2.0,59.71628791089772,2026-01-22 11h03.40.191759 +0530,
,Objects\163a.jpg,99,0,100,,,,,,,f,None,,,2.236304600024596,0.2627929999725893,,,,100,0,99,481.7336604000302,,,,,,,,,,,,,,,,,,,,,,,481.7177079000976,481.7336604000302,482.21904019999783,,,,,,,,,,,,,,,,,,,,,,,482.24118950008415,482.2522491000127,482.2522491000127,482.2522491000127,485.22936620004475,f,485.22943530010525,,,485.2294481000863,None,,,2.236304600024596,0.2627929999725893,,,,,,,,,,00033,001,2026-01-22_11h03.27.713,MST_task,2024.2.0,59.71628791089772,2026-01-22 11h03.40.191759 +0530,
,Objects\067a.jpg,100,0,101,,,,,,,f,None,,,2.907573699951172,None,,,,101,0,100,485.24608020007145,,,,,,,,,,,,,,,,,,,,,,,485.22966170008294,485.24608020007145,485.73109530005604,,,,,,,,,,,,,,,,,,,,,,,485.7566873000469,485.76433000003453,485.76433000003453,485.76433000003453,488.7416701000184,f,488.74172690010164,,,488.741752400063,None,,,2.907573699951172,None,,,,,,,,,,00033,001,2026-01-22_11h03.27.713,MST_task,2024.2.0,59.71628791089772,2026-01-22 11h03.40.191759 +0530,
,Objects\151a.jpg,101,0,102,,,,,,,f,None,,,2.29842969996389,0.2397305000340566,,,,102,0,101,488.75839010009076,,,,,,,,,,,,,,,,,,,,,,,488.74182340002153,488.75839010009076,489.2434845000971,,,,,,,,,,,,,,,,,,,,,,,489.2682945000706,489.27687200007495,489.27687200007495,489.27687200007495,492.25419180002064,f,492.25424939999357,,,492.25454650004394,None,,,2.29842969996389,0.2397305000340566,,,,,,,,,,00033,001,2026-01-22_11h03.27.713,MST_task,2024.2.0,59.71628791089772,2026-01-22 11h03.40.191759 +0530,
,Objects\064a.jpg,102,0,103,,,,,,,j,None,,,2.1781091999728233,0.1838469000067562,,,,103,0,102,492.2706837001024,,,,,,,,,,,,,,,,,,,,,,,492.2546322999988,492.2706837001024,492.7559556000633,,,,,,,,,,,,,,,,,,,,,,,492.7783691000659,492.78900810005143,492.78900810005143,492.78900810005143,495.766779400059,j,495.76683680003043,,,495.76684990001377,None,,,2.1781091999728233,0.1838469000067562,,,,,,,,,,00033,001,2026-01-22_11h03.27.713,MST_task,2024.2.0,59.71628791089772,2026-01-22 11h03.40.191759 +0530,
,Objects\065a.jpg,103,0,104,,,,,,,f,None,,,1.873655500006862,0.20788720005657524,,,,104,0,103,495.78298230003566,,,,,,,,,,,,,,,,,,,,,,,495.76711510005407,495.78298230003566,496.26805720000993,,,,,,,,,,,,,,,,,,,,,,,496.28959870000836,496.30143410002347,496.30143410002347,496.30143410002347,499.27858350006863,f,499.2786640000995,,,499.27867790008895,None,,,1.873655500006862,0.20788720005657524,,,,,,,,,,00033,001,2026-01-22_11h03.27.713,MST_task,2024.2.0,59.71628791089772,2026-01-22 11h03.40.191759 +0530,
,Objects\159a.jpg,104,0,105,,,,,,,f,None,,,1.4750892999581993,0.31060760002583265,,,,105,0,104,499.29527720005717,,,,,,,,,,,,,,,,,,,,,,,499.27877050009556,499.29527720005717,499.7805062000407,,,,,,,,,,,,,,,,,,,,,,,499.80301160004456,499.81384240009356,499.81384240009356,499.81384240009356,502.790843600058,f,502.7911895000143,,,502.79121470008977,None,,,1.4750892999581993,0.31060760002583265,,,,,,,,,,00033,001,2026-01-22_11h03.27.713,MST_task,2024.2.0,59.71628791089772,2026-01-22 11h03.40.191759 +0530,
,Scenes\122a.jpg,105,0,106,,,,,,,f,None,,,2.1199624999426305,0.2961702999891713,,,,106,0,105,502.807484799996,,,,,,,,,,,,,,,,,,,,,,,502.7913038000697,502.807484799996,503.2925331000006,,,,,,,,,,,,,,,,,,,,,,,503.32033700007014,503.3439730000682,503.3439730000682,503.3439730000682,506.3030529000098,f,506.30312210007105,,,506.3031357000582,None,,,2.1199624999426305,0.2961702999891713,,,,,,,,,,00033,001,2026-01-22_11h03.27.713,MST_task,2024.2.0,59.71628791089772,2026-01-22 11h03.40.191759 +0530,
,Scenes\130a.jpg,106,0,107,,,,,,,f,None,,,2.6633101000916213,0.1999388999538496,,,,107,0,106,506.3198931000661,,,,,,,,,,,,,,,,,,,,,,,506.3036118000746,506.3198931000661,506.80484830006026,,,,,,,,,,,,,,,,,,,,,,,506.8337896000594,506.8557060000021,506.8557060000021,506.8557060000021,509.81545770005323,f,509.8155152000254,,,509.81552880001254,None,,,2.6633101000916213,0.1999388999538496,,,,,,,,,,00033,001,2026-01-22_11h03.27.713,MST_task,2024.2.0,59.71628791089772,2026-01-22 11h03.40.191759 +0530,
,Scenes\172a.jpg,107,0,108,,,,,,,j,None,,,1.8002673999872059,0.2795649999752641,,,,108,0,107,509.8320564000169,,,,,,,,,,,,,,,,,,,,,,,509.815805500024,509.8320564000169,510.3174398000119,,,,,,,,,,,,,,,,,,,,,,,510.3418416000204,510.36746780003887,510.36746780003887,510.36746780003887,513.3276352999965,j,513.327692400082,,,513.32770480006,None,,,1.8002673999872059,0.2795649999752641,,,,,,,,,,00033,001,2026-01-22_11h03.27.713,MST_task,2024.2.0,59.71628791089772,2026-01-22 11h03.40.191759 +0530,
,Scenes\001a.jpg,108,0,109,,,,,,,f,None,,,1.7904280999209732,0.1840685000643134,,,,109,0,108,513.3447192000458,,,,,,,,,,,,,,,,,,,,,,,513.3277810000582,513.3447192000458,513.8294444000348,,,,,,,,,,,,,,,,,,,,,,,513.8601245000027,513.8813412000891,513.8813412000891,513.8813412000891,516.8400502000004,f,516.8401075000875,,,516.8401202000678,None,,,1.7904280999209732,0.1840685000643134,,,,,,,,,,00033,001,2026-01-22_11h03.27.713,MST_task,2024.2.0,59.71628791089772,2026-01-22 11h03.40.191759 +0530,
,Scenes\152a.jpg,109,0,110,,,,,,,j,None,,,1.9449466000078246,0.20048390002921224,,,,110,0,109,516.8566545000067,,,,,,,,,,,,,,,,,,,,,,,516.840222000028,516.8566545000067,517.3418446000433,,,,,,,,,,,,,,,,,,,,,,,517.363541000057,517.3752621000167,517.3752621000167,517.3752621000167,520.3533221000107,j,520.3533882000484,,,520.3534034000477,None,,,1.9449466000078246,0.20048390002921224,,,,,,,,,,00033,001,2026-01-22_11h03.27.713,MST_task,2024.2.0,59.71628791089772,2026-01-22 11h03.40.191759 +0530,
,Scenes\081a.jpg,110,0,111,,,,,,,j,None,,,1.8792767999693751,0.27203840005677193,,,,111,0,110,520.3689722000854,,,,,,,,,,,,,,,,,,,,,,,520.3535095000407,520.3689722000854,520.8541691000573,,,,,,,,,,,,,,,,,,,,,,,520.8802445000038,520.9042416000739,520.9042416000739,520.9042416000739,523.8647669000784,j,523.8648257000605,,,523.8648407000583,None,,,1.8792767999693751,0.27203840005677193,,,,,,,,,,00033,001,2026-01-22_11h03.27.713,MST_task,2024.2.0,59.71628791089772,2026-01-22 11h03.40.191759 +0530,
,Scenes\128a.jpg,111,0,112,,,,,,,j,None,,,2.3427142000291497,0.26471789996139705,,,,112,0,111,523.8813779000193,,,,,,,,,,,,,,,,,,,,,,,523.8649364000885,523.8813779000193,524.3664298000513,,,,,,,,,,,,,,,,,,,,,,,524.3928856001003,524.4164242000552,524.4164242000552,524.4164242000552,527.3769926000386,j,527.3770516000222,,,527.3770646000048,None,,,2.3427142000291497,0.26471789996139705,,,,,,,,,,00033,001,2026-01-22_11h03.27.713,MST_task,2024.2.0,59.71628791089772,2026-01-22 11h03.40.191759 +0530,
,Objects\123a.jpg,112,0,113,,,,,,,j,None,,,2.063641899963841,0.2553563000401482,,,,113,0,112,527.3935739001026,,,,,,,,,,,,,,,,,,,,,,,527.3771626000525,527.3935739001026,527.8786396000069,,,,,,,,,,,,,,,,,,,,,,,527.905629200046,527.9127101000631,527.9127101000631,527.9127101000631,530.8891458000289,j,530.8892217000248,,,530.8892344000051,None,,,2.063641899963841,0.2553563000401482,,,,,,,,,,00033,001,2026-01-22_11h03.27.713,MST_task,2024.2.0,59.71628791089772,2026-01-22 11h03.40.191759 +0530,
,Objects\068a.jpg,113,0,114,,,,,,,j,None,,,2.44670619990211,0.2480243000900373,,,,114,0,113,530.9059675000608,,,,,,,,,,,,,,,,,,,,,,,530.8893198000733,530.9059675000608,531.3911494000349,,,,,,,,,,,,,,,,,,,,,,,531.4138132000808,531.4244245000882,531.4244245000882,531.4244245000882,534.4015580000123,j,534.4016304000979,,,534.4016434000805,None,,,2.44670619990211,0.2480243000900373,,,,,,,,,,00033,001,2026-01-22_11h03.27.713,MST_task,2024.2.0,59.71628791089772,2026-01-22 11h03.40.191759 +0530,
,Objects\186a.jpg,114,0,115,,,,,,,f,None,,,1.6707816000562161,0.27361749997362494,,,,115,0,114,534.4181554000825,,,,,,,,,,,,,,,,,,,,,,,534.4017127000261,534.4181554000825,534.9035015000263,,,,,,,,,,,,,,,,,,,,,,,534.9254558000248,534.9365958000999,534.9365958000999,534.9365958000999,537.9138387000421,f,537.9139074000996,,,537.9139204000821,None,,,1.6707816000562161,0.27361749997362494,,,,,,,,,,00033,001,2026-01-22_11h03.27.713,MST_task,2024.2.0,59.71628791089772,2026-01-22 11h03.40.191759 +0530,
,Objects\112a.jpg,115,0,116,,,,,,,f,None,,,1.6300522000528872,0.2727398000424728,,,,116,0,115,537.9305752000073,,,,,,,,,,,,,,,,,,,,,,,537.9139944000635,537.9305752000073,538.4155261000851,,,,,,,,,,,,,,,,,,,,,,,538.4378236000193,538.4490252000978,538.4490252000978,538.4490252000978,541.4262057000306,f,541.4262618999928,,,541.4262746000895,None,,,1.6300522000528872,0.2727398000424728,,,,,,,,,,00033,001,2026-01-22_11h03.27.713,MST_task,2024.2.0,59.71628791089772,2026-01-22 11h03.40.191759 +0530,
,Objects\080a.jpg,116,0,117,,,,,,,j,None,,,2.1183413999387994,0.2159502999857068,,,,117,0,116,541.4428907000693,,,,,,,,,,,,,,,,,,,,,,,541.4263585000299,541.4428907000693,541.9279622000176,,,,,,,,,,,,,,,,,,,,,,,541.9502398000332,541.9611901000608,541.9611901000608,541.9611901000608,544.9386055000359,j,544.9386970000342,,,544.9387168000685,None,,,2.1183413999387994,0.2159502999857068,,,,,,,,,,00033,001,2026-01-22_11h03.27.713,MST_task,2024.2.0,59.71628791089772,2026-01-22 11h03.40.191759 +0530,
,Objects\045a.jpg,117,0,118,,,,,,,j,None,,,2.814736400032416,None,,,,118,0,117,544.9550486000953,,,,,,,,,,,,,,,,,,,,,,,544.9387900000438,544.9550486000953,545.4409088999964,,,,,,,,,,,,,,,,,,,,,,,545.4646147000603,545.4734948000405,545.4734948000405,545.4734948000405,548.4506411000621,j,548.4507267000154,,,548.4507414000109,None,,,2.814736400032416,None,,,,,,,,,,00033,001,2026-01-22_11h03.27.713,MST_task,2024.2.0,59.71628791089772,2026-01-22 11h03.40.191759 +0530,
,Objects\058a.jpg,118,0,119,,,,,,,f,None,,,1.6616674000397325,0.22410240001045167,,,,119,0,118,548.4674705000361,,,,,,,,,,,,,,,,,,,,,,,548.4508374000434,548.4674705000361,548.9526371000102,,,,,,,,,,,,,,,,,,,,,,,548.9764180000639,548.985905700014,548.985905700014,548.985905700014,551.9632186000235,f,551.9633058001054,,,551.9633272000356,None,,,1.6616674000397325,0.22410240001045167,,,,,,,,,,00033,001,2026-01-22_11h03.27.713,MST_task,2024.2.0,59.71628791089772,2026-01-22 11h03.40.191759 +0530,
,Scenes\046a.jpg,119,0,120,,,,,,,j,None,,,1.1009000000776723,0.23141200002282858,,,,120,0,119,551.9801422000164,,,,,,,,,,,,,,,,,,,,,,,551.9634076000657,551.9801422000164,552.4648639000952,,,,,,,,,,,,,,,,,,,,,,,552.498515900108,552.5156984000932,552.5156984000932,552.5156984000932,555.4755134000443,j,555.4756085000699,,,555.4756216000533,None,,,1.1009000000776723,0.23141200002282858,,,,,,,,,,00033,001,2026-01-22_11h03.27.713,MST_task,2024.2.0,59.71628791089772,2026-01-22 11h03.40.191759 +0530,
,Scenes\016a.jpg,120,0,121,,,,,,,j,None,,,1.9396543999901041,0.24784169998019934,,,,121,0,120,555.4919453000184,,,,,,,,,,,,,,,,,,,,,,,555.4757148000645,555.4919453000184,555.9771405000938,,,,,,,,,,,,,,,,,,,,,,,556.0014922000701,556.0113826000597,556.0113826000597,556.0113826000597,558.9878266000887,j,558.9878960000351,,,558.9879117000382,None,,,1.9396543999901041,0.24784169998019934,,,,,,,,,,00033,001,2026-01-22_11h03.27.713,MST_task,2024.2.0,59.71628791089772,2026-01-22 11h03.40.191759 +0530,
,Scenes\146a.jpg,121,0,122,,,,,,,j,None,,,2.1632508999900892,0.23962789995130152,,,,122,0,121,559.0042478000978,,,,,,,,,,,,,,,,,,,,,,,558.9880006000167,559.0042478000978,559.4894375000149,,,,,,,,,,,,,,,,,,,,,,,559.516987400013,559.5404007000616,559.5404007000616,559.5404007000616,562.5000001000008,j,562.5000576000893,,,562.5001058001071,None,,,2.1632508999900892,0.23962789995130152,,,,,,,,,,00033,001,2026-01-22_11h03.27.713,MST_task,2024.2.0,59.71628791089772,2026-01-22 11h03.40.191759 +0530,
,Scenes\141a.jpg,122,0,123,,,,,,,j,None,,,2.2442708000307903,0.20787429995834827,,,,123,0,122,562.5165556001011,,,,,,,,,,,,,,,,,,,,,,,562.5002060000552,562.5165556001011,563.0017420999939,,,,,,,,,,,,,,,,,,,,,,,563.0228421000065,563.035101500107,563.035101500107,563.035101500107,566.0122847000603,j,566.0123405000195,,,566.0123553000158,None,,,2.2442708000307903,0.20787429995834827,,,,,,,,,,00033,001,2026-01-22_11h03.27.713,MST_task,2024.2.0,59.71628791089772,2026-01-22 11h03.40.191759 +0530,
,Scenes\037a.jpg,123,0,124,,,,,,,j,None,,,1.8756266999989748,0.22279290005099028,,,,124,0,123,566.0290156000992,,,,,,,,,,,,,,,,,,,,,,,566.0124512000475,566.0290156000992,566.5140721000498,,,,,,,,,,,,,,,,,,,,,,,566.5426049000816,566.5649623000063,566.5649623000063,566.5649623000063,569.5244346000254,j,569.5244939000113,,,569.5245072999969,None,,,1.8756266999989748,0.22279290005099028,,,,,,,,,,00033,001,2026-01-22_11h03.27.713,MST_task,2024.2.0,59.71628791089772,2026-01-22 11h03.40.191759 +0530,
,Scenes\106a.jpg,124,0,125,,,,,,,j,None,,,0.8993358999723569,0.21516120003070682,,,,125,0,124,569.5412667000201,,,,,,,,,,,,,,,,,,,,,,,569.5245776000666,569.5412667000201,570.0262480000965,,,,,,,,,,,,,,,,,,,,,,,570.0514744000975,570.0764357000589,570.0764357000589,570.0764357000589,573.0369140000548,j,573.0369755000575,,,573.0370004000142,None,,,0.8993358999723569,0.21516120003070682,,,,,,,,,,00033,001,2026-01-22_11h03.27.713,MST_task,2024.2.0,59.71628791089772,2026-01-22 11h03.40.191759 +0530,
,Scenes\047a.jpg,125,0,126,,,,,,,j,None,,,2.019208300043829,0.2548233999405056,,,,126,0,125,573.0537303000456,,,,,,,,,,,,,,,,,,,,,,,573.0370936000254,573.0537303000456,573.5386896000709,,,,,,,,,,,,,,,,,,,,,,,573.5635689001065,573.5895340000279,573.5895340000279,573.5895340000279,576.549302300089,j,576.5493576000445,,,576.5493709000293,None,,,2.019208300043829,0.2548233999405056,,,,,,,,,,00033,001,2026-01-22_11h03.27.713,MST_task,2024.2.0,59.71628791089772,2026-01-22 11h03.40.191759 +0530,
,Objects\105a.jpg,126,0,127,,,,,,,f,None,,,1.7945315999677405,0.25487019994761795,,,,127,0,126,576.5659363000887,,,,,,,,,,,,,,,,,,,,,,,576.5494679000694,576.5659363000887,577.051111400011,,,,,,,,,,,,,,,,,,,,,,,577.0740499000531,577.0858380000573,577.0858380000573,577.0858380000573,580.0615143000614,f,580.0615705000237,,,580.0615834000055,None,,,1.7945315999677405,0.25487019994761795,,,,,,,,,,00033,001,2026-01-22_11h03.27.713,MST_task,2024.2.0,59.71628791089772,2026-01-22 11h03.40.191759 +0530,
,Objects\154a.jpg,127,0,128,,,,,,,f,None,,,2.218542799935676,0.26470320008229464,,,,128,0,127,580.0783238000004,,,,,,,,,,,,,,,,,,,,,,,580.0616803000448,580.0783238000004,580.5634809000185,,,,,,,,,,,,,,,,,,,,,,,580.5841540000401,580.5967568000779,580.5967568000779,580.5967568000779,583.5737439000513,f,583.5740789000411,,,583.5740928000305,None,,,2.218542799935676,0.26470320008229464,,,,,,,,,,00033,001,2026-01-22_11h03.27.713,MST_task,2024.2.0,59.71628791089772,2026-01-22 11h03.40.191759 +0530,
,Objects\048a.jpg,128,0,129,,,,,,,j,None,,,1.9702293999725953,0.20971309999004006,,,,129,0,128,583.5903435000218,,,,,,,,,,,,,,,,,,,,,,,583.5741920000874,583.5903435000218,584.0756708000554,,,,,,,,,,,,,,,,,,,,,,,584.0997635000385,584.1088036000729,584.1088036000729,584.1088036000729,587.08594670007,j,587.0860159000149,,,587.0860293000005,None,,,1.9702293999725953,0.20971309999004006,,,,,,,,,,00033,001,2026-01-22_11h03.27.713,MST_task,2024.2.0,59.71628791089772,2026-01-22 11h03.40.191759 +0530,
,Objects\106a.jpg,129,0,130,,,,,,,f,None,,,1.7137426000554115,0.29660779994446784,,,,130,0,129,587.1027499000775,,,,,,,,,,,,,,,,,,,,,,,587.0863793001045,587.1027499000775,587.5877320000436,,,,,,,,,,,,,,,,,,,,,,,587.6098101000534,587.6211971000303,587.6211971000303,587.6211971000303,590.5986436000094,f,590.5987166000996,,,590.598730100086,None,,,1.7137426000554115,0.29660779994446784,,,,,,,,,,00033,001,2026-01-22_11h03.27.713,MST_task,2024.2.0,59.71628791089772,2026-01-22 11h03.40.191759 +0530,
,Objects\081a.jpg,130,0,131,,,,,,,f,None,,,2.377965799998492,0.31966410006862134,,,,131,0,130,590.6149350000778,,,,,,,,,,,,,,,,,,,,,,,590.5988235000987,590.6149350000778,591.1003107000142,,,,,,,,,,,,,,,,,,,,,,,591.1215216000564,591.1335476000095,591.1335476000095,591.1335476000095,594.1105387000134,f,594.1107204,,,594.1107365000062,None,,,2.377965799998492,0.31966410006862134,,,,,,,,,,00033,001,2026-01-22_11h03.27.713,MST_task,2024.2.0,59.71628791089772,2026-01-22 11h03.40.191759 +0530,
,Objects\117a.jpg,131,0,132,,,,,,,j,None,,,2.449682099977508,0.23944639996625483,,,,132,0,131,594.1273570000194,,,,,,,,,,,,,,,,,,,,,,,594.1108086000895,594.1273570000194,594.6124543000478,,,,,,,,,,,,,,,,,,,,,,,594.6346790000098,594.6458020000719,594.6458020000719,594.6458020000719,597.6228134999983,j,597.6228793000337,,,597.6228925000178,None,,,2.449682099977508,0.23944639996625483,,,,,,,,,,00033,001,2026-01-22_11h03.27.713,MST_task,2024.2.0,59.71628791089772,2026-01-22 11h03.40.191759 +0530,
,Objects\022a.jpg,132,0,133,,,,,,,f,None,,,1.537171799922362,0.2884812999982387,,,,133,0,132,597.6396798000205,,,,,,,,,,,,,,,,,,,,,,,597.6229614000767,597.6396798000205,598.1246291000862,,,,,,,,,,,,,,,,,,,,,,,598.1476114999969,598.1580981001025,598.1580981001025,598.1580981001025,601.1354645000538,f,601.1355211000191,,,601.1356573000085,None,,,1.537171799922362,0.2884812999982387,,,,,,,,,,00033,001,2026-01-22_11h03.27.713,MST_task,2024.2.0,59.71628791089772,2026-01-22 11h03.40.191759 +0530,
,Scenes\029a.jpg,133,0,134,,,,,,,j,None,,,2.3924872999778017,0.23228180001024157,,,,134,0,133,601.1518404000672,,,,,,,,,,,,,,,,,,,,,,,601.1357584000798,601.1518404000672,601.6370395000558,,,,,,,,,,,,,,,,,,,,,,,601.662395899999,601.6871213000268,601.6871213000268,601.6871213000268,604.6476890000049,j,604.6477480001049,,,604.6477609000867,None,,,2.3924872999778017,0.23228180001024157,,,,,,,,,,00033,001,2026-01-22_11h03.27.713,MST_task,2024.2.0,59.71628791089772,2026-01-22 11h03.40.191759 +0530,
,Scenes\125a.jpg,134,0,135,,,,,,,j,None,,,1.2576607000082731,0.2787639000453055,,,,135,0,134,604.6641058000969,,,,,,,,,,,,,,,,,,,,,,,604.6478521000827,604.6641058000969,605.1493255000096,,,,,,,,,,,,,,,,,,,,,,,605.1683561000973,605.182698699995,605.182698699995,605.182698699995,608.1602728000144,j,608.1603359000292,,,608.1603547000559,None,,,1.2576607000082731,0.2787639000453055,,,,,,,,,,00033,001,2026-01-22_11h03.27.713,MST_task,2024.2.0,59.71628791089772,2026-01-22 11h03.40.191759 +0530,
,Scenes\088a.jpg,135,0,136,,,,,,,j,None,,,2.095026900060475,0.29598799999803305,,,,136,0,135,608.1766827000538,,,,,,,,,,,,,,,,,,,,,,,608.1604489000747,608.1766827000538,608.6616264000768,,,,,,,,,,,,,,,,,,,,,,,608.6902936000843,608.7128957000095,608.7128957000095,608.7128957000095,611.6721272000577,j,611.6721930000931,,,611.6722060000757,None,,,2.095026900060475,0.29598799999803305,,,,,,,,,,00033,001,2026-01-22_11h03.27.713,MST_task,2024.2.0,59.71628791089772,2026-01-22 11h03.40.191759 +0530,
,Scenes\151a.jpg,136,0,137,,,,,,,j,None,,,2.1283223000355065,0.2880948999663815,,,,137,0,136,611.6889937000815,,,,,,,,,,,,,,,,,,,,,,,611.6722993000876,611.6889937000815,612.1738180000102,,,,,,,,,,,,,,,,,,,,,,,612.1973023000173,612.2068008000497,612.2068008000497,612.2068008000497,615.1846196000697,j,615.1846834000899,,,615.184699100093,None,,,2.1283223000355065,0.2880948999663815,,,,,,,,,,00033,001,2026-01-22_11h03.27.713,MST_task,2024.2.0,59.71628791089772,2026-01-22 11h03.40.191759 +0530,
,Scenes\127a.jpg,137,0,138,,,,,,,j,None,,,1.7185419000452384,0.2634060999844223,,,,138,0,137,615.201029399992,,,,,,,,,,,,,,,,,,,,,,,615.1847679000348,615.201029399992,615.6863650000887,,,,,,,,,,,,,,,,,,,,,,,615.7118251000065,615.7374820000259,615.7374820000259,615.7374820000259,618.6968523000833,j,618.6969070000341,,,618.6969202000182,None,,,1.7185419000452384,0.2634060999844223,,,,,,,,,,00033,001,2026-01-22_11h03.27.713,MST_task,2024.2.0,59.71628791089772,2026-01-22 11h03.40.191759 +0530,
,Scenes\007a.jpg,138,0,139,,,,,,,f,None,,,2.799908300046809,None,,,,139,0,138,618.7134920000099,,,,,,,,,,,,,,,,,,,,,,,618.697185200057,618.7134920000099,619.1985290000448,,,,,,,,,,,,,,,,,,,,,,,619.2210382000776,619.2319275001064,619.2319275001064,619.2319275001064,622.2089027001057,f,622.2089677000185,,,622.2089810000034,None,,,2.799908300046809,None,,,,,,,,,,00033,001,2026-01-22_11h03.27.713,MST_task,2024.2.0,59.71628791089772,2026-01-22 11h03.40.191759 +0530,
,Scenes\033a.jpg,139,0,140,,,,,,,j,None,,,1.6304865999845788,0.27229250001255423,,,,140,0,139,622.2257410000311,,,,,,,,,,,,,,,,,,,,,,,622.2093152001034,622.2257410000311,622.7108439001022,,,,,,,,,,,,,,,,,,,,,,,622.7326676000375,622.744847599999,622.744847599999,622.744847599999,625.7212761000264,j,625.7213407000527,,,625.7215062000323,None,,,1.6304865999845788,0.27229250001255423,,,,,,,,,,00033,001,2026-01-22_11h03.27.713,MST_task,2024.2.0,59.71628791089772,2026-01-22 11h03.40.191759 +0530,
,Objects\144a.jpg,140,0,141,,,,,,,f,None,,,2.4538873999845237,0.2958117000525817,,,,141,0,140,625.7380474000238,,,,,,,,,,,,,,,,,,,,,,,625.7215926999925,625.7380474000238,626.2230210000416,,,,,,,,,,,,,,,,,,,,,,,626.2474734000862,626.2575262000319,626.2575262000319,626.2575262000319,629.234421000001,f,629.2344848000212,,,629.2344991000136,None,,,2.4538873999845237,0.2958117000525817,,,,,,,,,,00033,001,2026-01-22_11h03.27.713,MST_task,2024.2.0,59.71628791089772,2026-01-22 11h03.40.191759 +0530,
,Objects\190a.jpg,141,0,142,,,,,,,f,None,,,2.3512138000223786,0.31317500001750886,,,,142,0,141,629.2501786000794,,,,,,,,,,,,,,,,,,,,,,,629.2346284000669,629.2501786000794,629.7356207000557,,,,,,,,,,,,,,,,,,,,,,,629.7569772000425,629.7686726000393,629.7686726000393,629.7686726000393,632.7459254000569,f,632.7461478000041,,,632.7461624999996,None,,,2.3512138000223786,0.31317500001750886,,,,,,,,,,00033,001,2026-01-22_11h03.27.713,MST_task,2024.2.0,59.71628791089772,2026-01-22 11h03.40.191759 +0530,
,Objects\183a.jpg,142,0,143,,,,,,,f,None,,,1.8786266999086365,0.23945320001803339,,,,143,0,142,632.7625293000601,,,,,,,,,,,,,,,,,,,,,,,632.7462336000754,632.7625293000601,633.2480652000522,,,,,,,,,,,,,,,,,,,,,,,633.2699707000284,633.2809717000928,633.2809717000928,633.2809717000928,636.25813750003,f,636.2582070000935,,,636.2582210000837,None,,,1.8786266999086365,0.23945320001803339,,,,,,,,,,00033,001,2026-01-22_11h03.27.713,MST_task,2024.2.0,59.71628791089772,2026-01-22 11h03.40.191759 +0530,
,Objects\009a.jpg,143,0,144,,,,,,,f,None,,,1.9340823999373242,0.21557740005664527,,,,144,0,143,636.2749482000945,,,,,,,,,,,,,,,,,,,,,,,636.2584810000844,636.2749482000945,636.7599482000805,,,,,,,,,,,,,,,,,,,,,,,636.7822618000209,636.7933820000617,636.7933820000617,636.7933820000617,639.770736000035,f,639.7707924999995,,,639.7708050000947,None,,,1.9340823999373242,0.21557740005664527,,,,,,,,,,00033,001,2026-01-22_11h03.27.713,MST_task,2024.2.0,59.71628791089772,2026-01-22 11h03.40.191759 +0530,
,Objects\137a.jpg,144,0,145,,,,,,,f,None,,,1.6541851999936625,0.19929699995554984,,,,145,0,144,639.7871160000795,,,,,,,,,,,,,,,,,,,,,,,639.7708747000434,639.7871160000795,640.2723504001042,,,,,,,,,,,,,,,,,,,,,,,640.2940687000519,640.3055695000803,640.3055695000803,640.3055695000803,643.2827961000148,f,643.2828546999954,,,643.2828675000928,None,,,1.6541851999936625,0.19929699995554984,,,,,,,,,,00033,001,2026-01-22_11h03.27.713,MST_task,2024.2.0,59.71628791089772,2026-01-22 11h03.40.191759 +0530,
,Objects\049a.jpg,145,0,146,,,,,,,f,None,,,2.549179100082256,0.23161669995170087,,,,146,0,145,643.2995536000235,,,,,,,,,,,,,,,,,,,,,,,643.2829383000499,643.2995536000235,643.7850205000723,,,,,,,,,,,,,,,,,,,,,,,643.8060632999986,643.8181259999983,643.8181259999983,643.8181259999983,646.7951242000563,f,646.7951809000224,,,646.7951942000072,None,,,2.549179100082256,0.23161669995170087,,,,,,,,,,00033,001,2026-01-22_11h03.27.713,MST_task,2024.2.0,59.71628791089772,2026-01-22 11h03.40.191759 +0530,
,Objects\083a.jpg,146,0,147,,,,,,,f,None,,,2.5725595999974757,0.15274829999543726,,,,147,0,146,646.811739900033,,,,,,,,,,,,,,,,,,,,,,,646.7952660000883,646.811739900033,647.2969795000972,,,,,,,,,,,,,,,,,,,,,,,647.3179659000598,647.3303774000378,647.3303774000378,647.3303774000378,650.3074614000507,f,650.3075148999924,,,650.3075277000898,None,,,2.5725595999974757,0.15274829999543726,,,,,,,,,,00033,001,2026-01-22_11h03.27.713,MST_task,2024.2.0,59.71628791089772,2026-01-22 11h03.40.191759 +0530,
,Scenes\120a.jpg,147,0,148,,,,,,,j,None,,,2.1885163999395445,0.12695740000344813,,,,148,0,147,650.3240166000323,,,,,,,,,,,,,,,,,,,,,,,650.3076236000052,650.3240166000323,650.8092765000183,,,,,,,,,,,,,,,,,,,,,,,650.8391273000743,650.8595212000655,650.8595212000655,650.8595212000655,653.8197638000129,j,653.8198196000885,,,653.8198333000764,None,,,2.1885163999395445,0.12695740000344813,,,,,,,,,,00033,001,2026-01-22_11h03.27.713,MST_task,2024.2.0,59.71628791089772,2026-01-22 11h03.40.191759 +0530,
,Scenes\189a.jpg,148,0,149,,,,,,,j,None,,,1.8666661999886855,0.16121670010033995,,,,149,0,148,653.836463100044,,,,,,,,,,,,,,,,,,,,,,,653.8199939000187,653.836463100044,654.3215134000638,,,,,,,,,,,,,,,,,,,,,,,654.3474818000104,654.3726126000984,654.3726126000984,654.3726126000984,657.3319316999987,j,657.3320010000607,,,657.3320147000486,None,,,1.8666661999886855,0.16121670010033995,,,,,,,,,,00033,001,2026-01-22_11h03.27.713,MST_task,2024.2.0,59.71628791089772,2026-01-22 11h03.40.191759 +0530,
,Scenes\144a.jpg,149,0,150,,,,,,,j,None,,,1.0598076999885961,0.1357661000220105,,,,150,0,149,657.3487441000761,,,,,,,,,,,,,,,,,,,,,,,657.3320896000369,657.3487441000761,657.8336911000079,,,,,,,,,,,,,,,,,,,,,,,657.8609017000999,657.8837989000604,657.8837989000604,657.8837989000604,660.844473300036,j,660.8445427000988,,,660.8445806000382,None,,,1.0598076999885961,0.1357661000220105,,,,,,,,,,00033,001,2026-01-22_11h03.27.713,MST_task,2024.2.0,59.71628791089772,2026-01-22 11h03.40.191759 +0530,
,Scenes\015a.jpg,150,0,151,,,,,,,j,None,,,1.4028547999914736,0.41489500005263835,,,,151,0,150,660.8610830000835,,,,,,,,,,,,,,,,,,,,,,,660.8446776000783,660.8610830000835,661.3463918000925,,,,,,,,,,,,,,,,,,,,,,,661.3768160000909,661.3972736001015,661.3972736001015,661.3972736001015,664.3565186000196,j,664.3565785000101,,,664.356591100106,None,,,1.4028547999914736,0.41489500005263835,,,,,,,,,,00033,001,2026-01-22_11h03.27.713,MST_task,2024.2.0,59.71628791089772,2026-01-22 11h03.40.191759 +0530,
,Scenes\051a.jpg,151,0,152,,,,,,,j,None,,,2.274957299930975,0.30366289999801666,,,,152,0,151,664.3734748000279,,,,,,,,,,,,,,,,,,,,,,,664.3567190000322,664.3734748000279,664.8582912000129,,,,,,,,,,,,,,,,,,,,,,,664.8806060000788,664.8923318000743,664.8923318000743,664.8923318000743,667.8691002000123,j,667.8691538000712,,,667.8691668000538,None,,,2.274957299930975,0.30366289999801666,,,,,,,,,,00033,001,2026-01-22_11h03.27.713,MST_task,2024.2.0,59.71628791089772,2026-01-22 11h03.40.191759 +0530,
,Scenes\143a.jpg,152,0,153,,,,,,,j,None,,,2.7931916000088677,None,,,,153,0,152,667.8855158000952,,,,,,,,,,,,,,,,,,,,,,,667.8692989000119,667.8855158000952,668.3709746000823,,,,,,,,,,,,,,,,,,,,,,,668.3969892000314,668.4216785000172,668.4216785000172,668.4216785000172,671.3810954000801,j,671.3811602999922,,,671.3811729000881,None,,,2.7931916000088677,None,,,,,,,,,,00033,001,2026-01-22_11h03.27.713,MST_task,2024.2.0,59.71628791089772,2026-01-22 11h03.40.191759 +0530,
,Scenes\085a.jpg,153,0,154,,,,,,,j,None,,,2.1874347999691963,0.1925524000544101,,,,154,0,153,671.3980345000746,,,,,,,,,,,,,,,,,,,,,,,671.3812795000849,671.3980345000746,671.8836132000433,,,,,,,,,,,,,,,,,,,,,,,671.9018307999941,671.9164041000186,671.9164041000186,671.9164041000186,674.8934946000809,j,674.8935700000729,,,674.8935837000608,None,,,2.1874347999691963,0.1925524000544101,,,,,,,,,,00033,001,2026-01-22_11h03.27.713,MST_task,2024.2.0,59.71628791089772,2026-01-22 11h03.40.191759 +0530,
,Objects\130a.jpg,154,0,155,,,,,,,f,None,,,1.7471832999726757,0.43156400008592755,,,,155,0,154,674.9104872000171,,,,,,,,,,,,,,,,,,,,,,,674.8936794000911,674.9104872000171,675.39518890006,,,,,,,,,,,,,,,,,,,,,,,675.4221450000769,675.4289412000217,675.4289412000217,675.4289412000217,678.4057127000997,f,678.4057686000597,,,678.4057911999989,None,,,1.7471832999726757,0.43156400008592755,,,,,,,,,,00033,001,2026-01-22_11h03.27.713,MST_task,2024.2.0,59.71628791089772,2026-01-22 11h03.40.191759 +0530,
,Objects\026a.jpg,155,0,156,,,,,,,f,None,,,2.434014099999331,0.3282255999511108,,,,156,0,155,678.4220329000382,,,,,,,,,,,,,,,,,,,,,,,678.4058625000762,678.4220329000382,678.9074946000474,,,,,,,,,,,,,,,,,,,,,,,678.9309405999957,678.9409798000706,678.9409798000706,678.9409798000706,681.9182341000997,f,681.918567600078,,,681.918582500075,None,,,2.434014099999331,0.3282255999511108,,,,,,,,,,00033,001,2026-01-22_11h03.27.713,MST_task,2024.2.0,59.71628791089772,2026-01-22 11h03.40.191759 +0530,
,Objects\132a.jpg,156,0,157,,,,,,,f,None,,,2.026390100014396,0.3275113001000136,,,,157,0,156,681.93471400009,,,,,,,,,,,,,,,,,,,,,,,681.9186780001037,681.93471400009,682.4201079000486,,,,,,,,,,,,,,,,,,,,,,,682.4428136000643,682.453198100091,682.453198100091,682.453198100091,685.430433700094,f,685.4306477000937,,,685.4306606000755,None,,,2.026390100014396,0.3275113001000136,,,,,,,,,,00033,001,2026-01-22_11h03.27.713,MST_task,2024.2.0,59.71628791089772,2026-01-22 11h03.40.191759 +0530,
,Objects\076a.jpg,157,0,158,,,,,,,j,None,,,2.4025170999811962,0.2958050000015646,,,,158,0,157,685.4470047000796,,,,,,,,,,,,,,,,,,,,,,,685.4307593000121,685.4470047000796,685.9325045000296,,,,,,,,,,,,,,,,,,,,,,,685.9554099000525,685.9655149000464,685.9655149000464,685.9655149000464,688.9426334000891,j,688.9427010000218,,,688.9427137000021,None,,,2.4025170999811962,0.2958050000015646,,,,,,,,,,00033,001,2026-01-22_11h03.27.713,MST_task,2024.2.0,59.71628791089772,2026-01-22 11h03.40.191759 +0530,
,Objects\046a.jpg,158,0,159,,,,,,,f,None,,,2.0574754999252036,0.31272290006745607,,,,159,0,158,688.9594187000766,,,,,,,,,,,,,,,,,,,,,,,688.9429695000872,688.9594187000766,689.444412700017,,,,,,,,,,,,,,,,,,,,,,,689.4677406999981,689.4779310000595,689.4779310000595,689.4779310000595,692.4550243000267,f,692.4550788000925,,,692.4550915000727,None,,,2.0574754999252036,0.31272290006745607,,,,,,,,,,00033,001,2026-01-22_11h03.27.713,MST_task,2024.2.0,59.71628791089772,2026-01-22 11h03.40.191759 +0530,
,Objects\051a.jpg,159,0,160,,,,,,,f,None,,,2.177453000098467,0.24000469991005957,,,,160,0,159,692.4716040000785,,,,,,,,,,,,,,,,,,,,,,,692.4551625000313,692.4716040000785,692.9568065000931,,,,,,,,,,,,,,,,,,,,,,,692.9786055000732,692.9900447000982,692.9900447000982,692.9900447000982,695.9674499999965,f,695.9676761000883,,,695.96769030008,None,,,2.177453000098467,0.24000469991005957,,,,,,,,,,00033,001,2026-01-22_11h03.27.713,MST_task,2024.2.0,59.71628791089772,2026-01-22 11h03.40.191759 +0530,
,Objects\157a.jpg,160,0,161,,,,,,,f,None,,,1.6010034999344498,0.31240980001166463,,,,161,0,160,695.9838956000749,,,,,,,,,,,,,,,,,,,,,,,695.9677636000561,695.9838956000749,696.4691067000385,,,,,,,,,,,,,,,,,,,,,,,696.4939204000402,696.5026099000825,696.5026099000825,696.5026099000825,699.4795139000053,f,699.4795728001045,,,699.4795863000909,None,,,1.6010034999344498,0.31240980001166463,,,,,,,,,,00033,001,2026-01-22_11h03.27.713,MST_task,2024.2.0,59.71628791089772,2026-01-22 11h03.40.191759 +0530,
,Scenes\179a.jpg,161,0,162,,,,,,,j,None,,,1.6328917000209913,0.31199560000095516,,,,162,0,161,699.4963253000751,,,,,,,,,,,,,,,,,,,,,,,699.4798175001051,699.4963253000751,699.9814139000373,,,,,,,,,,,,,,,,,,,,,,,700.0036776000634,700.0149818999926,700.0149818999926,700.0149818999926,702.991786400089,j,702.9918578000506,,,702.9918705000309,None,,,1.6328917000209913,0.31199560000095516,,,,,,,,,,00033,001,2026-01-22_11h03.27.713,MST_task,2024.2.0,59.71628791089772,2026-01-22 11h03.40.191759 +0530,
,Scenes\092a.jpg,162,0,163,,,,,,,j,None,,,2.0701455998932943,0.3044208000646904,,,,163,0,162,703.0086277000373,,,,,,,,,,,,,,,,,,,,,,,702.991939800093,703.0086277000373,703.4935878000688,,,,,,,,,,,,,,,,,,,,,,,703.5179098000517,703.5447147000814,703.5447147000814,703.5447147000814,706.5041934000328,j,706.5042644999921,,,706.5042782000965,None,,,2.0701455998932943,0.3044208000646904,,,,,,,,,,00033,001,2026-01-22_11h03.27.713,MST_task,2024.2.0,59.71628791089772,2026-01-22 11h03.40.191759 +0530,
,Scenes\100a.jpg,163,0,164,,,,,,,f,None,,,2.07818650000263,0.368596600019373,,,,164,0,163,706.5209187000291,,,,,,,,,,,,,,,,,,,,,,,706.5043489000527,706.5209187000291,707.0060183000751,,,,,,,,,,,,,,,,,,,,,,,707.0302953000646,707.0569340999937,707.0569340999937,707.0569340999937,710.0163872000994,f,710.016458200058,,,710.0164721000474,None,,,2.07818650000263,0.368596600019373,,,,,,,,,,00033,001,2026-01-22_11h03.27.713,MST_task,2024.2.0,59.71628791089772,2026-01-22 11h03.40.191759 +0530,
,Scenes\014a.jpg,164,0,165,,,,,,,j,None,,,2.310475700069219,0.3116622999077663,,,,165,0,164,710.033485300024,,,,,,,,,,,,,,,,,,,,,,,710.0165726999985,710.033485300024,710.518351900042,,,,,,,,,,,,,,,,,,,,,,,710.5442362000467,710.5527643000241,710.5527643000241,710.5527643000241,713.5287672000704,j,713.5290862000547,,,713.5291025000624,None,,,2.310475700069219,0.3116622999077663,,,,,,,,,,00033,001,2026-01-22_11h03.27.713,MST_task,2024.2.0,59.71628791089772,2026-01-22 11h03.40.191759 +0530,
,Scenes\021a.jpg,165,0,166,,,,,,,j,None,,,2.8383054001023993,None,,,,166,0,165,713.5455181000289,,,,,,,,,,,,,,,,,,,,,,,713.5291744000278,713.5455181000289,714.0304814000847,,,,,,,,,,,,,,,,,,,,,,,714.0542410000926,714.0811840000097,714.0811840000097,714.0811840000097,717.0409863000968,j,717.0410651999991,,,717.0410797999939,None,,,2.8383054001023993,None,,,,,,,,,,00033,001,2026-01-22_11h03.27.713,MST_task,2024.2.0,59.71628791089772,2026-01-22 11h03.40.191759 +0530,
,Scenes\102a.jpg,166,0,167,,,,,,,f,None,,,2.9030603000428528,None,,,,167,0,166,717.0578287000535,,,,,,,,,,,,,,,,,,,,,,,717.0411496000597,717.0578287000535,717.5427937000059,,,,,,,,,,,,,,,,,,,,,,,717.5610011999961,717.5762486000312,717.5762486000312,717.5762486000312,720.553281200002,f,720.553340200102,,,720.5533535000868,None,,,2.9030603000428528,None,,,,,,,,,,00033,001,2026-01-22_11h03.27.713,MST_task,2024.2.0,59.71628791089772,2026-01-22 11h03.40.191759 +0530,
,Scenes\009a.jpg,167,0,168,,,,,,,j,None,,,2.9254998000105843,None,,,,168,0,167,720.5702798001003,,,,,,,,,,,,,,,,,,,,,,,720.5534449000843,720.5702798001003,721.0552243000129,,,,,,,,,,,,,,,,,,,,,,,721.0859099000227,721.106119700009,721.106119700009,721.106119700009,724.0658717000624,j,724.0659280000255,,,724.0659409000073,None,,,2.9254998000105843,None,,,,,,,,,,00033,001,2026-01-22_11h03.27.713,MST_task,2024.2.0,59.71628791089772,2026-01-22 11h03.40.191759 +0530,
,Objects\047a.jpg,168,0,169,,,,,,,f,None,,,1.6217067000688985,0.41570440004579723,,,,169,0,168,724.0824666999979,,,,,,,,,,,,,,,,,,,,,,,724.0660108000739,724.0824666999979,724.5679705000948,,,,,,,,,,,,,,,,,,,,,,,724.5924825000111,724.6021611000178,724.6021611000178,724.6021611000178,727.5779942000518,f,727.5780654000118,,,727.5780784999952,None,,,1.6217067000688985,0.41570440004579723,,,,,,,,,,00033,001,2026-01-22_11h03.27.713,MST_task,2024.2.0,59.71628791089772,2026-01-22 11h03.40.191759 +0530,
,Objects\094a.jpg,169,0,170,,,,,,,None,f,0.027996900025755167,None,,,,,,170,0,169,727.5946012000786,,,,,,,,,,,,,,,,,,,,,,,727.5781940000597,727.5946012000786,728.0798810000997,,,,,,,,,,,,,,,,,,,,,,,728.1022052000044,728.113013299997,728.113013299997,728.113013299997,731.0903407000005,None,731.090404800023,731.1070078000193,731.1070078000193,731.1409099000739,f,0.027996900025755167,None,,,,,,,,,,,,00033,001,2026-01-22_11h03.27.713,MST_task,2024.2.0,59.71628791089772,2026-01-22 11h03.40.191759 +0530,
,Objects\158a.jpg,170,0,171,,,,,,,f,None,,,1.5398132000118494,0.3915190000552684,,,,171,0,170,731.1570766000077,,,,,,,,,,,,,,,,,,,,,,,731.1410543000093,731.1570766000077,731.6423164000735,,,,,,,,,,,,,,,,,,,,,,,731.6641053000931,731.6755139000015,731.6755139000015,731.6755139000015,734.6526469000382,f,734.6527300000889,,,734.6527450000867,None,,,1.5398132000118494,0.3915190000552684,,,,,,,,,,00033,001,2026-01-22_11h03.27.713,MST_task,2024.2.0,59.71628791089772,2026-01-22 11h03.40.191759 +0530,
,Objects\173a.jpg,171,0,172,,,,,,,f,None,,,1.6751727999653667,0.36795800004620105,,,,172,0,171,734.6696868001018,,,,,,,,,,,,,,,,,,,,,,,734.6531083000591,734.6696868001018,735.1544482000172,,,,,,,,,,,,,,,,,,,,,,,735.1776723000221,735.1879352000542,735.1879352000542,735.1879352000542,738.1649897000752,f,738.165058500017,,,738.1650723000057,None,,,1.6751727999653667,0.36795800004620105,,,,,,,,,,00033,001,2026-01-22_11h03.27.713,MST_task,2024.2.0,59.71628791089772,2026-01-22 11h03.40.191759 +0530,
,Objects\134a.jpg,172,0,173,,,,,,,f,None,,,1.6433642000192776,0.34372429992072284,,,,173,0,172,738.181791900075,,,,,,,,,,,,,,,,,,,,,,,738.1654486000771,738.181791900075,738.6667859000154,,,,,,,,,,,,,,,,,,,,,,,738.6909624000546,738.7003494000528,738.7003494000528,738.7003494000528,741.6773935999954,f,741.6776040000841,,,741.6776178000728,None,,,1.6433642000192776,0.34372429992072284,,,,,,,,,,00033,001,2026-01-22_11h03.27.713,MST_task,2024.2.0,59.71628791089772,2026-01-22 11h03.40.191759 +0530,
,Objects\172a.jpg,173,0,174,,,,,,,j,None,,,1.8745125000132248,0.3046328999334946,,,,174,0,173,741.693987900042,,,,,,,,,,,,,,,,,,,,,,,741.677709700074,741.693987900042,742.1795688000275,,,,,,,,,,,,,,,,,,,,,,,742.2026011000853,742.2123967000516,742.2123967000516,742.2123967000516,745.1895505000139,j,745.1896095999982,,,745.1896234001033,None,,,1.8745125000132248,0.3046328999334946,,,,,,,,,,00033,001,2026-01-22_11h03.27.713,MST_task,2024.2.0,59.71628791089772,2026-01-22 11h03.40.191759 +0530,
,Objects\015a.jpg,174,0,175,,,,,,,f,None,,,1.4185025000479072,0.41621269995812327,,,,175,0,174,745.2063832000131,,,,,,,,,,,,,,,,,,,,,,,745.1897764001042,745.2063832000131,745.6913290000521,,,,,,,,,,,,,,,,,,,,,,,745.7136968000559,745.7248267000541,745.7248267000541,745.7248267000541,748.7020063000964,f,748.7020712000085,,,748.7020925000543,None,,,1.4185025000479072,0.41621269995812327,,,,,,,,,,00033,001,2026-01-22_11h03.27.713,MST_task,2024.2.0,59.71628791089772,2026-01-22 11h03.40.191759 +0530,
,Scenes\174a.jpg,175,0,176,,,,,,,f,None,,,1.7613786000292748,0.4393013999797404,,,,176,0,175,748.7185642000986,,,,,,,,,,,,,,,,,,,,,,,748.7021814000327,748.7185642000986,749.2038922000211,,,,,,,,,,,,,,,,,,,,,,,749.2323103999952,749.2547262000153,749.2547262000153,749.2547262000153,752.2144379999954,f,752.2145003000041,,,752.2145140999928,None,,,1.7613786000292748,0.4393013999797404,,,,,,,,,,00033,001,2026-01-22_11h03.27.713,MST_task,2024.2.0,59.71628791089772,2026-01-22 11h03.40.191759 +0530,
,Scenes\026a.jpg,176,0,177,,,,,,,j,None,,,1.5040146000683308,0.32866150001063943,,,,177,0,176,752.2308817000594,,,,,,,,,,,,,,,,,,,,,,,752.2145887000952,752.2308817000594,752.716061300016,,,,,,,,,,,,,,,,,,,,,,,752.7465311000124,752.766921200091,752.766921200091,752.766921200091,755.7264209000859,j,755.7264878000133,,,755.7265012999997,None,,,1.5040146000683308,0.32866150001063943,,,,,,,,,,00033,001,2026-01-22_11h03.27.713,MST_task,2024.2.0,59.71628791089772,2026-01-22 11h03.40.191759 +0530,
,Scenes\083a.jpg,177,0,178,,,,,,,j,None,,,1.2504247000906616,0.4006051999749616,,,,178,0,177,755.743394200108,,,,,,,,,,,,,,,,,,,,,,,755.7265698000556,755.743394200108,756.2282494000392,,,,,,,,,,,,,,,,,,,,,,,756.2516405000351,756.2612523999996,756.2612523999996,756.2612523999996,759.2387664000271,j,759.2388376001036,,,759.23885110009,None,,,1.2504247000906616,0.4006051999749616,,,,,,,,,,00033,001,2026-01-22_11h03.27.713,MST_task,2024.2.0,59.71628791089772,2026-01-22 11h03.40.191759 +0530,
,Scenes\090a.jpg,178,0,179,,,,,,,j,None,,,1.672349900007248,0.36774179991334677,,,,179,0,178,759.2555893000681,,,,,,,,,,,,,,,,,,,,,,,759.2391105000861,759.2555893000681,759.7405838000122,,,,,,,,,,,,,,,,,,,,,,,759.7675014000852,759.7907563000917,759.7907563000917,759.7907563000917,762.7514746000525,j,762.7515507000498,,,762.7515645000385,None,,,1.672349900007248,0.36774179991334677,,,,,,,,,,00033,001,2026-01-22_11h03.27.713,MST_task,2024.2.0,59.71628791089772,2026-01-22 11h03.40.191759 +0530,
,Scenes\025a.jpg,179,0,180,,,,,,,j,None,,,1.8559936999808997,0.30393829999957234,,,,180,0,179,762.7677521000151,,,,,,,,,,,,,,,,,,,,,,,762.7516570000444,762.7677521000151,763.2531299000839,,,,,,,,,,,,,,,,,,,,,,,763.2839615000412,763.3030433000531,763.3030433000531,763.3030433000531,766.2633274000837,j,766.2633962000255,,,766.2634094000096,None,,,1.8559936999808997,0.30393829999957234,,,,,,,,,,00033,001,2026-01-22_11h03.27.713,MST_task,2024.2.0,59.71628791089772,2026-01-22 11h03.40.191759 +0530,
,Scenes\097a.jpg,180,0,181,,,,,,,f,None,,,2.1517139999195933,0.36794100003317,,,,181,0,180,766.2801704000449,,,,,,,,,,,,,,,,,,,,,,,766.2636272000382,766.2801704000449,766.7653421000578,,,,,,,,,,,,,,,,,,,,,,,766.7884734000545,766.7995015000924,766.7995015000924,766.7995015000924,769.7757816000376,f,769.7758509000996,,,769.7758703000145,None,,,2.1517139999195933,0.36794100003317,,,,,,,,,,00033,001,2026-01-22_11h03.27.713,MST_task,2024.2.0,59.71628791089772,2026-01-22 11h03.40.191759 +0530,
,Scenes\140a.jpg,181,0,182,,,,,,,j,None,,,1.3283409000141546,0.3200474000768736,,,,182,0,181,769.7924795000581,,,,,,,,,,,,,,,,,,,,,,,769.7759686000645,769.7924795000581,770.2774435000028,,,,,,,,,,,,,,,,,,,,,,,770.2995312000858,770.312407999998,770.312407999998,770.312407999998,773.2880013000686,j,773.2880606000545,,,773.2880746000446,None,,,1.3283409000141546,0.3200474000768736,,,,,,,,,,00033,001,2026-01-22_11h03.27.713,MST_task,2024.2.0,59.71628791089772,2026-01-22 11h03.40.191759 +0530,
,Objects\002a.jpg,182,0,183,,,,,,,f,None,,,1.9837308999849483,0.29588470002636313,,,,183,0,182,773.304783700034,,,,,,,,,,,,,,,,,,,,,,,773.2884684000164,773.304783700034,773.7897644001059,,,,,,,,,,,,,,,,,,,,,,,773.8159312000498,773.8239250000333,773.8239250000333,773.8239250000333,776.800438700011,f,776.8005005000159,,,776.8005142000038,None,,,1.9837308999849483,0.29588470002636313,,,,,,,,,,00033,001,2026-01-22_11h03.27.713,MST_task,2024.2.0,59.71628791089772,2026-01-22 11h03.40.191759 +0530,
,Objects\018a.jpg,183,0,184,,,,,,,f,None,,,2.3917290000244975,0.3281552999978885,,,,184,0,183,776.8170754000312,,,,,,,,,,,,,,,,,,,,,,,776.8006160000805,776.8170754000312,777.3021243000403,,,,,,,,,,,,,,,,,,,,,,,777.3261676999973,777.3355269000167,777.3355269000167,777.3355269000167,780.3127295000013,f,780.312786100083,,,780.3127989000641,None,,,2.3917290000244975,0.3281552999978885,,,,,,,,,,00033,001,2026-01-22_11h03.27.713,MST_task,2024.2.0,59.71628791089772,2026-01-22 11h03.40.191759 +0530,
,Objects\082a.jpg,184,0,185,,,,,,,f,None,,,2.2962513000238687,0.4152580000227317,,,,185,0,184,780.3292411000002,,,,,,,,,,,,,,,,,,,,,,,780.312916600029,780.3292411000002,780.8146386001026,,,,,,,,,,,,,,,,,,,,,,,780.8375689000823,780.847705500084,780.847705500084,780.847705500084,783.8248502000934,f,783.8249055000488,,,783.8249185000313,None,,,2.2962513000238687,0.4152580000227317,,,,,,,,,,00033,001,2026-01-22_11h03.27.713,MST_task,2024.2.0,59.71628791089772,2026-01-22 11h03.40.191759 +0530,
