thisN,thisTrialN,thisRepN,key_resp_3.keys,key_resp_3.rt,key_resp_3.duration,trials.thisRepN,trials.thisTrialN,trials.thisN,thisRow.t,notes,intro_page.started,text.started,key_resp.started,intro_page.stopped,key_resp.keys,key_resp.rt,key_resp.duration,instructions.started,text_2.started,key_resp_2.started,instructions.stopped,key_resp_2.keys,key_resp_2.rt,key_resp_2.duration,demo1.started,image_1.started,image_2.started,text_7.started,key_resp_6.started,text_9.started,demo1.stopped,key_resp_6.keys,key_resp_6.rt,key_resp_6.duration,demo2.started,image_5.started,image_6.started,text_11.started,text_12.started,key_resp_8.started,demo2.stopped,key_resp_8.keys,key_resp_8.rt,key_resp_8.duration,demo_conclusion.started,text_13.started,key_resp_9.started,demo_conclusion.stopped,key_resp_9.keys,key_resp_9.rt,key_resp_9.duration,start_test.started,text_6.started,key_resp_5.started,start_test.stopped,key_resp_5.keys,key_resp_5.rt,key_resp_5.duration,ISI.started,text_4.started,ISI.stopped,routine_1.started,image.started,text_3.started,key_resp_3.started,routine_1.stopped,image_path,position_of_stimuli,trials.key_resp_3.keys,trials.key_resp_3.rt,trials.key_resp_3.duration,text_4.stopped,End_page.started,text_5.started,key_resp_4.started,End_page.stopped,key_resp_4.keys,key_resp_4.rt,key_resp_4.duration,participant,session,date,expName,psychopyVersion,frameRate,expStart,
,,,,,,,,,,,0.016898300033062696,0.03316590003669262,0.03316590003669262,2.3614634999539703,space,2.3130206000059843,None,,,,,,,,,,,,,,,,,,,,,,,,,,,,,,,,,,,,,,,,,,,,,,,,,,,,,,,,,,,,,,,00038,001,2026-01-23_17h00.07.805,MST_test,2024.2.0,59.777793990201864,2026-01-23 17h00.21.188335 +0530,
,,,,,,,,,,,,,,,,,,2.361496999976225,2.376200799946673,2.376200799946673,11.659743699943647,space,9.274312799912877,None,,,,,,,,,,,,,,,,,,,,,,,,,,,,,,,,,,,,,,,,,,,,,,,,,,,,,,,,00038,001,2026-01-23_17h00.07.805,MST_test,2024.2.0,59.777793990201864,2026-01-23 17h00.21.188335 +0530,
,,,,,,,,,,,,,,,,,,,,,,,,,11.659775199950673,11.675757099990733,11.675757099990733,11.675757099990733,11.675757099990733,11.675757099990733,17.29585210001096,space,5.6067212000489235,None,,,,,,,,,,,,,,,,,,,,,,,,,,,,,,,,,,,,,,,,,,,,,,00038,001,2026-01-23_17h00.07.805,MST_test,2024.2.0,59.777793990201864,2026-01-23 17h00.21.188335 +0530,
,,,,,,,,,,,,,,,,,,,,,,,,,,,,,,,,,,,17.29588029999286,17.311810599989258,17.311810599989258,17.311810599989258,17.311810599989258,17.311810599989258,21.677696399972774,space,4.354115499998443,None,,,,,,,,,,,,,,,,,,,,,,,,,,,,,,,,,,,,00038,001,2026-01-23_17h00.07.805,MST_test,2024.2.0,59.777793990201864,2026-01-23 17h00.21.188335 +0530,
,,,,,,,,,,,,,,,,,,,,,,,,,,,,,,,,,,,,,,,,,,,,,21.67772719997447,21.693840299965814,21.693840299965814,83.97928179998416,space,62.269511300022714,None,,,,,,,,,,,,,,,,,,,,,,,,,,,,,00038,001,2026-01-23_17h00.07.805,MST_test,2024.2.0,59.777793990201864,2026-01-23 17h00.21.188335 +0530,
,,,,,,,,,,,,,,,,,,,,,,,,,,,,,,,,,,,,,,,,,,,,,,,,,,,,83.9793169000186,83.99566829996184,83.99566829996184,97.99495309998747,space,13.983586800051853,None,,,,,,,,,,,,,,,,,,,,,,00038,001,2026-01-23_17h00.07.805,MST_test,2024.2.0,59.777793990201864,2026-01-23 17h00.21.188335 +0530,
0,0,1,n,2.918790000025183,None,1,0,0,98.01133630005643,,,,,,,,,,,,,,,,,,,,,,,,,,,,,,,,,,,,,,,,,,,,,,,,,,97.997675599996,98.01133630005643,98.49660339998081,98.51578290003818,98.53118859999813,98.53118859999813,98.53118859999813,101.45738409995101,Foils\105a.jpg,none,n,2.918790000025183,None,,,,,,,,,00038,001,2026-01-23_17h00.07.805,MST_test,2024.2.0,59.777793990201864,2026-01-23 17h00.21.188335 +0530,
1,0,2,o,8.320800599991344,None,2,0,1,101.47353770001791,,,,,,,,,,,,,,,,,,,,,,,,,,,,,,,,,,,,,,,,,,,,,,,,,,101.45748660003301,101.47353770001791,101.95854150003288,101.97673350002151,101.99322339997161,101.99322339997161,101.99322339997161,110.32183939998504,Scenes\128a.jpg,mid,o,8.320800599991344,None,,,,,,,,,00038,001,2026-01-23_17h00.07.805,MST_test,2024.2.0,59.777793990201864,2026-01-23 17h00.21.188335 +0530,
2,0,3,s,2.7686870999168605,None,3,0,2,110.33780980005395,,,,,,,,,,,,,,,,,,,,,,,,,,,,,,,,,,,,,,,,,,,,,,,,,,110.32193400000688,110.33780980005395,110.8235722000245,110.84126320003998,110.85736809996888,110.85736809996888,110.85736809996888,113.63333750003949,Foils\scenes2.jpg,none,s,2.7686870999168605,None,,,,,,,,,00038,001,2026-01-23_17h00.07.805,MST_test,2024.2.0,59.777793990201864,2026-01-23 17h00.21.188335 +0530,
3,0,4,s,4.528586500091478,None,4,0,3,113.64955730002839,,,,,,,,,,,,,,,,,,,,,,,,,,,,,,,,,,,,,,,,,,,,,,,,,,113.63343399995938,113.64955730002839,114.13561869994737,114.15272120002192,114.16919080005027,114.16919080005027,114.16919080005027,118.70103650004603,Objects\180a.jpg,post,s,4.528586500091478,None,,,,,,,,,00038,001,2026-01-23_17h00.07.805,MST_test,2024.2.0,59.777793990201864,2026-01-23 17h00.21.188335 +0530,
4,0,5,o,2.213355500018224,None,5,0,4,118.71742949995678,,,,,,,,,,,,,,,,,,,,,,,,,,,,,,,,,,,,,,,,,,,,,,,,,,118.70113299996592,118.71742949995678,119.2022196999751,119.2185407000361,119.23625479999464,119.23625479999464,119.23625479999464,121.46154030004982,Objects\169a.jpg,post,o,2.213355500018224,None,,,,,,,,,00038,001,2026-01-23_17h00.07.805,MST_test,2024.2.0,59.777793990201864,2026-01-23 17h00.21.188335 +0530,
5,0,6,o,1.2690549000399187,None,6,0,5,121.4770859000273,,,,,,,,,,,,,,,,,,,,,,,,,,,,,,,,,,,,,,,,,,,,,,,,,,121.46164520003367,121.4770859000273,121.96258289995603,121.99644799996167,122.01329849998001,122.01329849998001,122.01329849998001,123.28385979996528,Scenes\046b.jpg,post,o,1.2690549000399187,None,,,,,,,,,00038,001,2026-01-23_17h00.07.805,MST_test,2024.2.0,59.777793990201864,2026-01-23 17h00.21.188335 +0530,
6,0,7,s,3.384229899966158,None,7,0,6,123.29999560001306,,,,,,,,,,,,,,,,,,,,,,,,,,,,,,,,,,,,,,,,,,,,,,,,,,123.2839586000191,123.29999560001306,123.78538040001877,123.80670700001065,123.81855480000377,123.81855480000377,123.81855480000377,127.21397919999436,Foils\065a.jpg,none,s,3.384229899966158,None,,,,,,,,,00038,001,2026-01-23_17h00.07.805,MST_test,2024.2.0,59.777793990201864,2026-01-23 17h00.21.188335 +0530,
7,0,8,s,3.325048799975775,None,8,0,7,127.23010319995228,,,,,,,,,,,,,,,,,,,,,,,,,,,,,,,,,,,,,,,,,,,,,,,,,,127.21408259996679,127.23010319995228,127.71508110000286,127.73716909997165,127.74882039998192,127.74882039998192,127.74882039998192,131.07746139995288,Objects\068b.jpg,mid,s,3.325048799975775,None,,,,,,,,,00038,001,2026-01-23_17h00.07.805,MST_test,2024.2.0,59.777793990201864,2026-01-23 17h00.21.188335 +0530,
8,0,9,s,12.091873100027442,None,9,0,8,131.09361890004948,,,,,,,,,,,,,,,,,,,,,,,,,,,,,,,,,,,,,,,,,,,,,,,,,,131.07755729998462,131.09361890004948,131.57860819995403,131.60545619996265,131.63002409995534,131.63002409995534,131.63002409995534,143.73850189999212,Scenes\040b.jpg,pre,s,12.091873100027442,None,,,,,,,,,00038,001,2026-01-23_17h00.07.805,MST_test,2024.2.0,59.777793990201864,2026-01-23 17h00.21.188335 +0530,
9,0,10,s,3.0814741000067443,None,10,0,9,143.7545183999464,,,,,,,,,,,,,,,,,,,,,,,,,,,,,,,,,,,,,,,,,,,,,,,,,,143.73860040004365,143.7545183999464,144.24013299995568,144.26018820004538,144.2730666999705,144.2730666999705,144.2730666999705,147.3676562999608,Scenes\158a.jpg,pre,s,3.0814741000067443,None,,,,,,,,,00038,001,2026-01-23_17h00.07.805,MST_test,2024.2.0,59.777793990201864,2026-01-23 17h00.21.188335 +0530,
10,0,11,n,3.8757301999721676,None,11,0,10,147.38402839994524,,,,,,,,,,,,,,,,,,,,,,,,,,,,,,,,,,,,,,,,,,,,,,,,,,147.36775560001843,147.38402839994524,147.86897770001087,147.8934797999682,147.90245099994354,147.90245099994354,147.90245099994354,151.78319500002544,Objects\017b.jpg,post,n,3.8757301999721676,None,,,,,,,,,00038,001,2026-01-23_17h00.07.805,MST_test,2024.2.0,59.777793990201864,2026-01-23 17h00.21.188335 +0530,
11,0,12,s,4.218349299975671,None,12,0,11,151.79970460000914,,,,,,,,,,,,,,,,,,,,,,,,,,,,,,,,,,,,,,,,,,,,,,,,,,151.78328810003586,151.79970460000914,152.28478009998798,152.30430009996053,152.31936600001063,152.31936600001063,152.31936600001063,156.5501721999608,Scenes\060a.jpg,post,s,4.218349299975671,None,,,,,,,,,00038,001,2026-01-23_17h00.07.805,MST_test,2024.2.0,59.777793990201864,2026-01-23 17h00.21.188335 +0530,
12,0,13,o,1.796067800023593,None,13,0,12,156.56622749997769,,,,,,,,,,,,,,,,,,,,,,,,,,,,,,,,,,,,,,,,,,,,,,,,,,156.55026940000243,156.56622749997769,157.05123540002387,157.06889899994712,157.0856114999624,157.0856114999624,157.0856114999624,158.8921969999792,Scenes\008a.jpg,pre,o,1.796067800023593,None,,,,,,,,,00038,001,2026-01-23_17h00.07.805,MST_test,2024.2.0,59.777793990201864,2026-01-23 17h00.21.188335 +0530,
13,0,14,o,1.3151325000217184,None,14,0,13,158.90758290002123,,,,,,,,,,,,,,,,,,,,,,,,,,,,,,,,,,,,,,,,,,,,,,,,,,158.89230209996458,158.90758290002123,159.39342980005313,159.41037179995328,159.43038389994763,159.43038389994763,159.43038389994763,160.74794769997243,Objects\188a.jpg,pre,o,1.3151325000217184,None,,,,,,,,,00038,001,2026-01-23_17h00.07.805,MST_test,2024.2.0,59.777793990201864,2026-01-23 17h00.21.188335 +0530,
14,0,15,s,2.783304600045085,None,15,0,14,160.7641904000193,,,,,,,,,,,,,,,,,,,,,,,,,,,,,,,,,,,,,,,,,,,,,,,,,,160.7480451000156,160.7641904000193,161.24926529999357,161.2649975999957,161.2835536999628,161.2835536999628,161.2835536999628,164.07618440000806,Scenes\116a.jpg,pre,s,2.783304600045085,None,,,,,,,,,00038,001,2026-01-23_17h00.07.805,MST_test,2024.2.0,59.777793990201864,2026-01-23 17h00.21.188335 +0530,
15,0,16,o,1.1840425999835134,None,16,0,15,164.0923904000083,,,,,,,,,,,,,,,,,,,,,,,,,,,,,,,,,,,,,,,,,,,,,,,,,,164.076279800036,164.0923904000083,164.57761020003818,164.59456979995593,164.61095590004697,164.61095590004697,164.61095590004697,165.7990433999803,Objects\149a.jpg,mid,o,1.1840425999835134,None,,,,,,,,,00038,001,2026-01-23_17h00.07.805,MST_test,2024.2.0,59.777793990201864,2026-01-23 17h00.21.188335 +0530,
16,0,17,o,1.580427399952896,None,17,0,16,165.81521509995218,,,,,,,,,,,,,,,,,,,,,,,,,,,,,,,,,,,,,,,,,,,,,,,,,,165.79913749999832,165.81521509995218,166.3005476000253,166.31636439997237,166.33381560002454,166.33381560002454,166.33381560002454,167.9239596000407,Objects\019a.jpg,post,o,1.580427399952896,None,,,,,,,,,00038,001,2026-01-23_17h00.07.805,MST_test,2024.2.0,59.777793990201864,2026-01-23 17h00.21.188335 +0530,
17,0,18,s,1.5597044000169262,None,18,0,17,167.9403588999994,,,,,,,,,,,,,,,,,,,,,,,,,,,,,,,,,,,,,,,,,,,,,,,,,,167.92405409994535,167.9403588999994,168.42447359999642,168.44292429997586,168.45880779996514,168.45880779996514,168.45880779996514,170.03053510002792,Foils\scenes14.jpg,none,s,1.5597044000169262,None,,,,,,,,,00038,001,2026-01-23_17h00.07.805,MST_test,2024.2.0,59.777793990201864,2026-01-23 17h00.21.188335 +0530,
18,0,19,s,3.8030967001104727,None,19,0,18,170.0475106999511,,,,,,,,,,,,,,,,,,,,,,,,,,,,,,,,,,,,,,,,,,,,,,,,,,170.0306386000011,170.0475106999511,170.53184179996606,170.5554183999775,170.58314340002835,170.58314340002835,170.58314340002835,174.39579169999342,Scenes\178b.jpg,post,s,3.8030967001104727,None,,,,,,,,,00038,001,2026-01-23_17h00.07.805,MST_test,2024.2.0,59.777793990201864,2026-01-23 17h00.21.188335 +0530,
19,0,20,s,3.215884100063704,None,20,0,19,174.41202930000145,,,,,,,,,,,,,,,,,,,,,,,,,,,,,,,,,,,,,,,,,,,,,,,,,,174.3959096999606,174.41202930000145,174.89725170005113,174.92046559997834,174.93058669997845,174.93058669997845,174.93058669997845,178.1590484000044,Objects\158b.jpg,post,s,3.215884100063704,None,,,,,,,,,00038,001,2026-01-23_17h00.07.805,MST_test,2024.2.0,59.777793990201864,2026-01-23 17h00.21.188335 +0530,
20,0,21,n,1.9070789999095723,None,21,0,20,178.17516330000944,,,,,,,,,,,,,,,,,,,,,,,,,,,,,,,,,,,,,,,,,,,,,,,,,,178.1591428000247,178.17516330000944,178.66027150000446,178.67930730001535,178.69473800004926,178.69473800004926,178.69473800004926,180.6177193999756,Foils\scenes5.jpg,none,n,1.9070789999095723,None,,,,,,,,,00038,001,2026-01-23_17h00.07.805,MST_test,2024.2.0,59.777793990201864,2026-01-23 17h00.21.188335 +0530,
21,0,22,n,10.281505199964158,None,22,0,21,180.63377660000697,,,,,,,,,,,,,,,,,,,,,,,,,,,,,,,,,,,,,,,,,,,,,,,,,,180.61781980004162,180.63377660000697,181.11874810000882,181.13556930003688,181.15220989997033,181.15220989997033,181.15220989997033,191.43870379996952,Foils\scenes3.jpg,none,n,10.281505199964158,None,,,,,,,,,00038,001,2026-01-23_17h00.07.805,MST_test,2024.2.0,59.777793990201864,2026-01-23 17h00.21.188335 +0530,
22,0,23,n,2.820691000088118,None,23,0,22,191.45487749995664,,,,,,,,,,,,,,,,,,,,,,,,,,,,,,,,,,,,,,,,,,,,,,,,,,191.43880000000354,191.45487749995664,191.94011880003382,191.9562071999535,191.97340619994793,191.97340619994793,191.97340619994793,194.80058839998674,Foils\scenes7.jpg,none,n,2.820691000088118,None,,,,,,,,,00038,001,2026-01-23_17h00.07.805,MST_test,2024.2.0,59.777793990201864,2026-01-23 17h00.21.188335 +0530,
23,0,24,n,6.681838999968022,None,24,0,23,194.81666180002503,,,,,,,,,,,,,,,,,,,,,,,,,,,,,,,,,,,,,,,,,,,,,,,,,,194.80068740004208,194.81666180002503,195.3018740999978,195.33536300004926,195.352699900046,195.352699900046,195.352699900046,202.04269290005323,Foils\scenes28.jpg,none,n,6.681838999968022,None,,,,,,,,,00038,001,2026-01-23_17h00.07.805,MST_test,2024.2.0,59.777793990201864,2026-01-23 17h00.21.188335 +0530,
24,0,25,s,3.8868786999955773,None,25,0,24,202.05869660002645,,,,,,,,,,,,,,,,,,,,,,,,,,,,,,,,,,,,,,,,,,,,,,,,,,202.04279259999748,202.05869660002645,202.543894500006,202.56264779996127,202.57878129999153,202.57878129999153,202.57878129999153,206.47487629996613,Scenes\125a.jpg,pre,s,3.8868786999955773,None,,,,,,,,,00038,001,2026-01-23_17h00.07.805,MST_test,2024.2.0,59.777793990201864,2026-01-23 17h00.21.188335 +0530,
25,0,26,o,1.5525314999977127,None,26,0,25,206.4909908999689,,,,,,,,,,,,,,,,,,,,,,,,,,,,,,,,,,,,,,,,,,,,,,,,,,206.47497019998264,206.4909908999689,206.97594679996837,206.99353360000532,207.01030960003845,207.01030960003845,207.01030960003845,208.56569990003482,Objects\088a.jpg,pre,o,1.5525314999977127,None,,,,,,,,,00038,001,2026-01-23_17h00.07.805,MST_test,2024.2.0,59.777793990201864,2026-01-23 17h00.21.188335 +0530,
26,0,27,s,3.237999700009823,None,27,0,26,208.58153209998272,,,,,,,,,,,,,,,,,,,,,,,,,,,,,,,,,,,,,,,,,,,,,,,,,,208.56582290004008,208.58153209998272,209.06692609994207,209.08982690004632,209.0999686999712,209.0999686999712,209.0999686999712,212.34523390000686,Objects\069b.jpg,pre,s,3.237999700009823,None,,,,,,,,,00038,001,2026-01-23_17h00.07.805,MST_test,2024.2.0,59.777793990201864,2026-01-23 17h00.21.188335 +0530,
27,0,28,n,1.526130500016734,None,28,0,27,212.36156079999637,,,,,,,,,,,,,,,,,,,,,,,,,,,,,,,,,,,,,,,,,,,,,,,,,,212.34533889999148,212.36156079999637,212.84652939997613,212.92223080003168,212.9477021000348,212.9477021000348,212.9477021000348,214.48600150004495,Foils\scenes15.jpg,none,n,1.526130500016734,None,,,,,,,,,00038,001,2026-01-23_17h00.07.805,MST_test,2024.2.0,59.777793990201864,2026-01-23 17h00.21.188335 +0530,
28,0,29,o,4.475736499996856,None,29,0,28,214.50238089996856,,,,,,,,,,,,,,,,,,,,,,,,,,,,,,,,,,,,,,,,,,,,,,,,,,214.48609719995875,214.50238089996856,214.98743229999673,215.02708519995213,215.0384837000165,215.0384837000165,215.0384837000165,219.52067390002776,Scenes\094b.jpg,mid,o,4.475736499996856,None,,,,,,,,,00038,001,2026-01-23_17h00.07.805,MST_test,2024.2.0,59.777793990201864,2026-01-23 17h00.21.188335 +0530,
29,0,30,s,1.9362206000369042,None,30,0,29,219.5365517999744,,,,,,,,,,,,,,,,,,,,,,,,,,,,,,,,,,,,,,,,,,,,,,,,,,219.52110500005074,219.5365517999744,220.02177450002637,220.05773680005223,220.07346189999953,220.07346189999953,220.07346189999953,222.01278899994213,Scenes\167b.jpg,pre,s,1.9362206000369042,None,,,,,,,,,00038,001,2026-01-23_17h00.07.805,MST_test,2024.2.0,59.777793990201864,2026-01-23 17h00.21.188335 +0530,
30,0,31,s,1.766098799998872,None,31,0,30,222.0287274000002,,,,,,,,,,,,,,,,,,,,,,,,,,,,,,,,,,,,,,,,,,,,,,,,,,222.01288409996778,222.0287274000002,222.51373709994368,222.54177669994533,222.5637696000049,222.5637696000049,222.5637696000049,224.3380853999406,Scenes\028a.jpg,post,s,1.766098799998872,None,,,,,,,,,00038,001,2026-01-23_17h00.07.805,MST_test,2024.2.0,59.777793990201864,2026-01-23 17h00.21.188335 +0530,
31,0,32,o,1.7057428000262007,None,32,0,31,224.35355250001885,,,,,,,,,,,,,,,,,,,,,,,,,,,,,,,,,,,,,,,,,,,,,,,,,,224.33818880002946,224.35355250001885,224.8384979000548,224.85546859994065,224.87283180002123,224.87283180002123,224.87283180002123,226.59534410003107,Objects\111a.jpg,post,o,1.7057428000262007,None,,,,,,,,,00038,001,2026-01-23_17h00.07.805,MST_test,2024.2.0,59.777793990201864,2026-01-23 17h00.21.188335 +0530,
32,0,33,s,4.95231620001141,None,33,0,32,226.61133740004152,,,,,,,,,,,,,,,,,,,,,,,,,,,,,,,,,,,,,,,,,,,,,,,,,,226.59544269996695,226.61133740004152,227.09664080000948,227.1190210999921,227.1297577000223,227.1297577000223,227.1297577000223,232.09809410001617,Objects\115b.jpg,mid,s,4.95231620001141,None,,,,,,,,,00038,001,2026-01-23_17h00.07.805,MST_test,2024.2.0,59.777793990201864,2026-01-23 17h00.21.188335 +0530,
33,0,34,o,1.4261874000076205,None,34,0,33,232.1139277999755,,,,,,,,,,,,,,,,,,,,,,,,,,,,,,,,,,,,,,,,,,,,,,,,,,232.09819709998555,232.1139277999755,232.599175499985,232.64062359998934,232.649081200012,232.649081200012,232.649081200012,234.08818159997463,Scenes\011b.jpg,pre,o,1.4261874000076205,None,,,,,,,,,00038,001,2026-01-23_17h00.07.805,MST_test,2024.2.0,59.777793990201864,2026-01-23 17h00.21.188335 +0530,
34,0,35,s,1.746991500025615,None,35,0,34,234.10436029999983,,,,,,,,,,,,,,,,,,,,,,,,,,,,,,,,,,,,,,,,,,,,,,,,,,234.08828040002845,234.10436029999983,234.58934579999186,234.6274812000338,234.63939340005163,234.63939340005163,234.63939340005163,236.39635079994332,Scenes\146b.jpg,post,s,1.746991500025615,None,,,,,,,,,00038,001,2026-01-23_17h00.07.805,MST_test,2024.2.0,59.777793990201864,2026-01-23 17h00.21.188335 +0530,
35,0,36,n,2.213573499931954,None,36,0,35,236.41232090000995,,,,,,,,,,,,,,,,,,,,,,,,,,,,,,,,,,,,,,,,,,,,,,,,,,236.39644419995602,236.41232090000995,236.89752720005345,236.91576320002787,236.93193880002946,236.93193880002946,236.93193880002946,239.15598979999777,Foils\scenes30.jpg,none,n,2.213573499931954,None,,,,,,,,,00038,001,2026-01-23_17h00.07.805,MST_test,2024.2.0,59.777793990201864,2026-01-23 17h00.21.188335 +0530,
36,0,37,n,1.6867211000062525,None,37,0,36,239.17209560004994,,,,,,,,,,,,,,,,,,,,,,,,,,,,,,,,,,,,,,,,,,,,,,,,,,239.15609860001132,239.17209560004994,239.65707930002827,239.68046920001507,239.69164910004474,239.69164910004474,239.69164910004474,241.38026779994834,Foils\081a.jpg,none,n,1.6867211000062525,None,,,,,,,,,00038,001,2026-01-23_17h00.07.805,MST_test,2024.2.0,59.777793990201864,2026-01-23 17h00.21.188335 +0530,
37,0,38,o,3.765674800029956,None,38,0,37,241.3966625999892,,,,,,,,,,,,,,,,,,,,,,,,,,,,,,,,,,,,,,,,,,,,,,,,,,241.38036109996028,241.3966625999892,241.88168460002635,241.91729360003956,241.932782900054,241.932782900054,241.932782900054,245.71214840002358,Scenes\032a.jpg,post,o,3.765674800029956,None,,,,,,,,,00038,001,2026-01-23_17h00.07.805,MST_test,2024.2.0,59.777793990201864,2026-01-23 17h00.21.188335 +0530,
38,0,39,o,1.2266243000049144,None,39,0,38,245.7285221000202,,,,,,,,,,,,,,,,,,,,,,,,,,,,,,,,,,,,,,,,,,,,,,,,,,245.71224080002867,245.7285221000202,246.213509800029,246.23726950003766,246.2470653000055,246.2470653000055,246.2470653000055,247.4852579999715,Objects\120b.jpg,pre,o,1.2266243000049144,None,,,,,,,,,00038,001,2026-01-23_17h00.07.805,MST_test,2024.2.0,59.777793990201864,2026-01-23 17h00.21.188335 +0530,
39,0,40,o,1.020782999927178,None,40,0,39,247.50114389997907,,,,,,,,,,,,,,,,,,,,,,,,,,,,,,,,,,,,,,,,,,,,,,,,,,247.48535360000096,247.50114389997907,247.98635979997925,248.0142901999643,248.03765359998215,248.03765359998215,248.03765359998215,249.07401920005213,Scenes\058a.jpg,pre,o,1.020782999927178,None,,,,,,,,,00038,001,2026-01-23_17h00.07.805,MST_test,2024.2.0,59.777793990201864,2026-01-23 17h00.21.188335 +0530,
40,0,41,s,1.1852406999096274,None,41,0,40,249.09017850004602,,,,,,,,,,,,,,,,,,,,,,,,,,,,,,,,,,,,,,,,,,,,,,,,,,249.07411299995147,249.09017850004602,249.57515309995506,249.5987477999879,249.60896450001746,249.60896450001746,249.60896450001746,250.79669360001571,Objects\147b.jpg,post,s,1.1852406999096274,None,,,,,,,,,00038,001,2026-01-23_17h00.07.805,MST_test,2024.2.0,59.777793990201864,2026-01-23 17h00.21.188335 +0530,
41,0,42,o,3.500763999996707,None,42,0,41,250.81275339995045,,,,,,,,,,,,,,,,,,,,,,,,,,,,,,,,,,,,,,,,,,,,,,,,,,250.79678750003222,250.81275339995045,251.2979380999459,251.34605459996965,251.36547049996443,251.36547049996443,251.36547049996443,254.87800699996296,Scenes\015b.jpg,mid,o,3.500763999996707,None,,,,,,,,,00038,001,2026-01-23_17h00.07.805,MST_test,2024.2.0,59.777793990201864,2026-01-23 17h00.21.188335 +0530,
42,0,43,s,1.6864122999832034,None,43,0,42,254.8938895999454,,,,,,,,,,,,,,,,,,,,,,,,,,,,,,,,,,,,,,,,,,,,,,,,,,254.87810380000155,254.8938895999454,255.37878389994148,255.3952962999465,255.41214749997016,255.41214749997016,255.41214749997016,257.10231009998824,Objects\037a.jpg,mid,s,1.6864122999832034,None,,,,,,,,,00038,001,2026-01-23_17h00.07.805,MST_test,2024.2.0,59.777793990201864,2026-01-23 17h00.21.188335 +0530,
43,0,44,o,1.1254348000511527,None,44,0,43,257.1181678000139,,,,,,,,,,,,,,,,,,,,,,,,,,,,,,,,,,,,,,,,,,,,,,,,,,257.10240450000856,257.1181678000139,257.60327850002795,257.61829030001536,257.6367205999559,257.6367205999559,257.6367205999559,258.7744841000531,Objects\026a.jpg,pre,o,1.1254348000511527,None,,,,,,,,,00038,001,2026-01-23_17h00.07.805,MST_test,2024.2.0,59.777793990201864,2026-01-23 17h00.21.188335 +0530,
44,0,45,s,1.4753182000713423,None,45,0,44,258.79072779999115,,,,,,,,,,,,,,,,,,,,,,,,,,,,,,,,,,,,,,,,,,,,,,,,,,258.7746071999427,258.79072779999115,259.27610250003636,259.3128242000239,259.3267100000521,259.3267100000521,259.3267100000521,260.81537229998503,Scenes\067b.jpg,mid,s,1.4753182000713423,None,,,,,,,,,00038,001,2026-01-23_17h00.07.805,MST_test,2024.2.0,59.777793990201864,2026-01-23 17h00.21.188335 +0530,
45,0,46,s,2.500736700021662,None,46,0,45,260.8311765999533,,,,,,,,,,,,,,,,,,,,,,,,,,,,,,,,,,,,,,,,,,,,,,,,,,260.81547110003885,260.8311765999533,261.31638049997855,261.33974500000477,261.3497402999783,261.3497402999783,261.3497402999783,263.85930450004525,Objects\010b.jpg,post,s,2.500736700021662,None,,,,,,,,,00038,001,2026-01-23_17h00.07.805,MST_test,2024.2.0,59.777793990201864,2026-01-23 17h00.21.188335 +0530,
46,0,47,o,2.4170400999719277,None,47,0,46,263.87523530004546,,,,,,,,,,,,,,,,,,,,,,,,,,,,,,,,,,,,,,,,,,,,,,,,,,263.8594005999621,263.87523530004546,264.360361799947,264.37538560002577,264.3935947000282,264.3935947000282,264.3935947000282,266.8198113000253,Objects\066a.jpg,mid,o,2.4170400999719277,None,,,,,,,,,00038,001,2026-01-23_17h00.07.805,MST_test,2024.2.0,59.777793990201864,2026-01-23 17h00.21.188335 +0530,
47,0,48,o,2.880104699986987,None,48,0,47,266.8355222999817,,,,,,,,,,,,,,,,,,,,,,,,,,,,,,,,,,,,,,,,,,,,,,,,,,266.81991109997034,266.8355222999817,267.32094310002867,267.3443437999813,267.35397809999995,267.35397809999995,267.35397809999995,270.24819469999056,Objects\173b.jpg,post,o,2.880104699986987,None,,,,,,,,,00038,001,2026-01-23_17h00.07.805,MST_test,2024.2.0,59.777793990201864,2026-01-23 17h00.21.188335 +0530,
48,0,49,s,1.4579228999791667,None,49,0,48,270.2641967999516,,,,,,,,,,,,,,,,,,,,,,,,,,,,,,,,,,,,,,,,,,,,,,,,,,270.24829330004286,270.2641967999516,270.7494055000134,270.7826333999401,270.8000212999759,270.8000212999759,270.8000212999759,272.27177450002637,Scenes\110b.jpg,mid,s,1.4579228999791667,None,,,,,,,,,00038,001,2026-01-23_17h00.07.805,MST_test,2024.2.0,59.777793990201864,2026-01-23 17h00.21.188335 +0530,
49,0,50,n,2.386787199997343,None,50,0,49,272.28807540005073,,,,,,,,,,,,,,,,,,,,,,,,,,,,,,,,,,,,,,,,,,,,,,,,,,272.27187469997443,272.28807540005073,272.7730475999415,272.79349770001136,272.80739289999474,272.80739289999474,272.80739289999474,275.1991673000157,Foils\scenes20.jpg,none,n,2.386787199997343,None,,,,,,,,,00038,001,2026-01-23_17h00.07.805,MST_test,2024.2.0,59.777793990201864,2026-01-23 17h00.21.188335 +0530,
50,0,51,n,1.035535900038667,None,51,0,50,275.21537220000755,,,,,,,,,,,,,,,,,,,,,,,,,,,,,,,,,,,,,,,,,,,,,,,,,,275.19926050002687,275.21537220000755,275.7002686000196,275.72278049995657,275.734662199975,275.734662199975,275.734662199975,276.7725613999646,Foils\017a.jpg,none,n,1.035535900038667,None,,,,,,,,,00038,001,2026-01-23_17h00.07.805,MST_test,2024.2.0,59.777793990201864,2026-01-23 17h00.21.188335 +0530,
51,0,52,n,2.3995477000717074,None,52,0,51,276.7882084000157,,,,,,,,,,,,,,,,,,,,,,,,,,,,,,,,,,,,,,,,,,,,,,,,,,276.77265759999864,276.7882084000157,277.2724771000212,277.28924479999114,277.3067054999992,277.3067054999992,277.3067054999992,279.71458819997497,Foils\scenes8.jpg,none,n,2.3995477000717074,None,277.3067054999992,,,,,,,,00038,001,2026-01-23_17h00.07.805,MST_test,2024.2.0,59.777793990201864,2026-01-23 17h00.21.188335 +0530,
52,0,53,o,1.824546999996528,None,53,0,52,279.7308386999648,,,,,,,,,,,,,,,,,,,,,,,,,,,,,,,,,,,,,,,,,,,,,,,,,,279.71468159998767,279.7308386999648,280.2158795000287,280.24430350004695,280.26650919998065,280.26650919998065,280.26650919998065,282.1065076000523,Scenes\005a.jpg,post,o,1.824546999996528,None,,,,,,,,,00038,001,2026-01-23_17h00.07.805,MST_test,2024.2.0,59.777793990201864,2026-01-23 17h00.21.188335 +0530,
53,0,54,n,1.1387441999977455,None,54,0,53,282.12250779999886,,,,,,,,,,,,,,,,,,,,,,,,,,,,,,,,,,,,,,,,,,,,,,,,,,282.1065998999402,282.12250779999886,282.6076101999497,282.73131439997815,282.75901279994287,282.75901279994287,282.75901279994287,283.9124404999893,Foils\scenes25.jpg,none,n,1.1387441999977455,None,,,,,,,,,00038,001,2026-01-23_17h00.07.805,MST_test,2024.2.0,59.777793990201864,2026-01-23 17h00.21.188335 +0530,
54,0,55,s,1.3128093000268564,None,55,0,54,283.928752399981,,,,,,,,,,,,,,,,,,,,,,,,,,,,,,,,,,,,,,,,,,,,,,,,,,283.91255350003485,283.928752399981,284.4138555000536,284.4426833000034,284.46509069995955,284.46509069995955,284.46509069995955,285.78595639998093,Objects\133b.jpg,pre,s,1.3128093000268564,None,,,,,,,,,00038,001,2026-01-23_17h00.07.805,MST_test,2024.2.0,59.777793990201864,2026-01-23 17h00.21.188335 +0530,
55,0,56,s,5.6175778999459,None,56,0,55,285.80205559998285,,,,,,,,,,,,,,,,,,,,,,,,,,,,,,,,,,,,,,,,,,,,,,,,,,285.7860520000104,285.80205559998285,286.28720110002905,286.3029593999963,286.32050000003073,286.32050000003073,286.32050000003073,291.94166979996953,Objects\181a.jpg,mid,s,5.6175778999459,None,,,,,,,,,00038,001,2026-01-23_17h00.07.805,MST_test,2024.2.0,59.777793990201864,2026-01-23 17h00.21.188335 +0530,
56,0,57,s,1.2637123999884352,None,57,0,56,291.9573334000306,,,,,,,,,,,,,,,,,,,,,,,,,,,,,,,,,,,,,,,,,,,,,,,,,,291.94176780001726,291.9573334000306,292.4425767000066,292.4658405999653,292.4754316000035,292.4754316000035,292.4754316000035,293.74713389994577,Objects\076b.jpg,mid,s,1.2637123999884352,None,,,,,,,,,00038,001,2026-01-23_17h00.07.805,MST_test,2024.2.0,59.777793990201864,2026-01-23 17h00.21.188335 +0530,
57,0,58,o,1.2791870000073686,None,58,0,57,293.76326839998364,,,,,,,,,,,,,,,,,,,,,,,,,,,,,,,,,,,,,,,,,,,,,,,,,,293.74723229999654,293.76326839998364,294.24836420000065,294.27995909994934,294.29906630003825,294.29906630003825,294.29906630003825,295.5869883999694,Scenes\006b.jpg,post,o,1.2791870000073686,None,,,,,,,,,00038,001,2026-01-23_17h00.07.805,MST_test,2024.2.0,59.777793990201864,2026-01-23 17h00.21.188335 +0530,
58,0,59,s,1.4483497000765055,None,59,0,58,295.6029210999841,,,,,,,,,,,,,,,,,,,,,,,,,,,,,,,,,,,,,,,,,,,,,,,,,,295.58708480000496,295.6029210999841,296.0883200999815,296.11221699998714,296.121734400047,296.121734400047,296.121734400047,297.5772125000367,Objects\150b.jpg,pre,s,1.4483497000765055,None,,,,,,,,,00038,001,2026-01-23_17h00.07.805,MST_test,2024.2.0,59.777793990201864,2026-01-23 17h00.21.188335 +0530,
59,0,60,s,3.5675404999637976,None,60,0,59,297.59334729996044,,,,,,,,,,,,,,,,,,,,,,,,,,,,,,,,,,,,,,,,,,,,,,,,,,297.57731269998476,297.59334729996044,298.078322699992,298.1182371999603,298.1462511999998,298.1462511999998,298.1462511999998,301.7249568999978,Foils\scenes23.jpg,none,s,3.5675404999637976,None,,,,,,,,,00038,001,2026-01-23_17h00.07.805,MST_test,2024.2.0,59.777793990201864,2026-01-23 17h00.21.188335 +0530,
60,0,61,s,2.1828212999971583,None,61,0,60,301.74111179995816,,,,,,,,,,,,,,,,,,,,,,,,,,,,,,,,,,,,,,,,,,,,,,,,,,301.7250544000417,301.74111179995816,302.22669459995814,302.2513712999644,302.2595294000348,302.2595294000348,302.2595294000348,304.45124079997186,Objects\148b.jpg,post,s,2.1828212999971583,None,,,,,,,,,00038,001,2026-01-23_17h00.07.805,MST_test,2024.2.0,59.777793990201864,2026-01-23 17h00.21.188335 +0530,
61,0,62,o,1.214913500007242,None,62,0,61,304.46729870000854,,,,,,,,,,,,,,,,,,,,,,,,,,,,,,,,,,,,,,,,,,,,,,,,,,304.4513640999794,304.46729870000854,304.95250080002006,304.9758203000529,304.9866498999763,304.9866498999763,304.9866498999763,306.20746790000703,Scenes\139a.jpg,mid,o,1.214913500007242,None,,,,,,,,,00038,001,2026-01-23_17h00.07.805,MST_test,2024.2.0,59.777793990201864,2026-01-23 17h00.21.188335 +0530,
62,0,63,s,2.051964999991469,None,63,0,62,306.2234505000524,,,,,,,,,,,,,,,,,,,,,,,,,,,,,,,,,,,,,,,,,,,,,,,,,,306.2077225999674,306.2234505000524,306.7086567999795,306.73251050000545,306.74200710002333,306.74200710002333,306.74200710002333,308.7998089999892,Objects\132b.jpg,post,s,2.051964999991469,None,,,,,,,,,00038,001,2026-01-23_17h00.07.805,MST_test,2024.2.0,59.777793990201864,2026-01-23 17h00.21.188335 +0530,
63,0,64,n,1.5076704999664798,None,64,0,63,308.81597530003637,,,,,,,,,,,,,,,,,,,,,,,,,,,,,,,,,,,,,,,,,,,,,,,,,,308.7999026000034,308.81597530003637,309.30094019998796,309.32125779998023,309.3344242000021,309.3344242000021,309.3344242000021,310.85700099996757,Foils\113a.jpg,none,n,1.5076704999664798,None,,,,,,,,,00038,001,2026-01-23_17h00.07.805,MST_test,2024.2.0,59.777793990201864,2026-01-23 17h00.21.188335 +0530,
64,0,65,s,1.1225597999291494,None,65,0,64,310.87306719995104,,,,,,,,,,,,,,,,,,,,,,,,,,,,,,,,,,,,,,,,,,,,,,,,,,310.8570947999833,310.87306719995104,311.3585159999784,311.38115010003094,311.39150140003767,311.39150140003767,311.39150140003767,312.52978500002064,Objects\084b.jpg,post,s,1.1225597999291494,None,,,,,,,,,00038,001,2026-01-23_17h00.07.805,MST_test,2024.2.0,59.777793990201864,2026-01-23 17h00.21.188335 +0530,
65,0,66,s,2.3760299999266863,None,66,0,65,312.5457059999462,,,,,,,,,,,,,,,,,,,,,,,,,,,,,,,,,,,,,,,,,,,,,,,,,,312.52987840003334,312.5457059999462,313.03068349999376,313.0681502999505,313.0817842000397,313.0817842000397,313.0817842000397,315.47307239996735,Scenes\083b.jpg,mid,s,2.3760299999266863,None,,,,,,,,,00038,001,2026-01-23_17h00.07.805,MST_test,2024.2.0,59.777793990201864,2026-01-23 17h00.21.188335 +0530,
66,0,67,o,1.2174787999829277,None,67,0,66,315.48936030000914,,,,,,,,,,,,,,,,,,,,,,,,,,,,,,,,,,,,,,,,,,,,,,,,,,315.47316970000975,315.48936030000914,315.9743131999858,316.0048000999959,316.02471679996233,316.02471679996233,316.02471679996233,317.2460649999557,Scenes\086a.jpg,pre,o,1.2174787999829277,None,,,,,,,,,00038,001,2026-01-23_17h00.07.805,MST_test,2024.2.0,59.777793990201864,2026-01-23 17h00.21.188335 +0530,
67,0,68,o,1.693128699902445,None,68,0,67,317.2623342999723,,,,,,,,,,,,,,,,,,,,,,,,,,,,,,,,,,,,,,,,,,,,,,,,,,317.2461591999745,317.2623342999723,317.7472248999402,317.772366899997,317.78055000002496,317.78055000002496,317.78055000002496,319.4871747000143,Objects\152b.jpg,pre,o,1.693128699902445,None,,,,,,,,,00038,001,2026-01-23_17h00.07.805,MST_test,2024.2.0,59.777793990201864,2026-01-23 17h00.21.188335 +0530,
68,0,69,s,1.1480291000334546,None,69,0,68,319.50339750002604,,,,,,,,,,,,,,,,,,,,,,,,,,,,,,,,,,,,,,,,,,,,,,,,,,319.48726800002623,319.50339750002604,319.98841049999464,320.0119378999807,320.02184519998264,320.02184519998264,320.02184519998264,321.17638469999656,Foils\082a.jpg,none,s,1.1480291000334546,None,,,,,,,,,00038,001,2026-01-23_17h00.07.805,MST_test,2024.2.0,59.777793990201864,2026-01-23 17h00.21.188335 +0530,
69,0,70,n,1.2573001000564545,None,70,0,69,321.1926596999401,,,,,,,,,,,,,,,,,,,,,,,,,,,,,,,,,,,,,,,,,,,,,,,,,,321.17648799996823,321.1926596999401,321.6776144000469,321.71116039995104,321.72870670002885,321.72870670002885,321.72870670002885,322.99939290003385,Scenes\038a.jpg,mid,n,1.2573001000564545,None,,,,,,,,,00038,001,2026-01-23_17h00.07.805,MST_test,2024.2.0,59.777793990201864,2026-01-23 17h00.21.188335 +0530,
70,0,71,s,1.436162200057879,None,71,0,70,323.01559429999907,,,,,,,,,,,,,,,,,,,,,,,,,,,,,,,,,,,,,,,,,,,,,,,,,,322.9995014000451,323.01559429999907,323.5015246999683,323.52358639996964,323.5342805000255,323.5342805000255,323.5342805000255,324.9732787000248,Objects\097b.jpg,mid,s,1.436162200057879,None,,,,,,,,,00038,001,2026-01-23_17h00.07.805,MST_test,2024.2.0,59.777793990201864,2026-01-23 17h00.21.188335 +0530,
71,0,72,s,1.6782385999104008,None,72,0,71,324.98916730005294,,,,,,,,,,,,,,,,,,,,,,,,,,,,,,,,,,,,,,,,,,,,,,,,,,324.9733785999706,324.98916730005294,325.4745809000451,325.4987369000446,325.5077588999411,325.5077588999411,325.5077588999411,327.1975979000563,Objects\062b.jpg,post,s,1.6782385999104008,None,,,,,,,,,00038,001,2026-01-23_17h00.07.805,MST_test,2024.2.0,59.777793990201864,2026-01-23 17h00.21.188335 +0530,
72,0,73,n,1.556144499918446,None,73,0,72,327.2136235999642,,,,,,,,,,,,,,,,,,,,,,,,,,,,,,,,,,,,,,,,,,,,,,,,,,327.19770579994656,327.2136235999642,327.6988236999605,327.74313069996424,327.76642150001135,327.76642150001135,327.76642150001135,329.3384498000378,Scenes\170b.jpg,pre,n,1.556144499918446,None,,,,,,,,,00038,001,2026-01-23_17h00.07.805,MST_test,2024.2.0,59.777793990201864,2026-01-23 17h00.21.188335 +0530,
73,0,74,o,1.3852822999469936,None,74,0,73,329.3545672999462,,,,,,,,,,,,,,,,,,,,,,,,,,,,,,,,,,,,,,,,,,,,,,,,,,329.3386229999596,329.3545672999462,329.8395911999978,329.8559281999478,329.8728930000216,329.8728930000216,329.8728930000216,331.2620405999478,Objects\108a.jpg,pre,o,1.3852822999469936,None,,,,,,,,,00038,001,2026-01-23_17h00.07.805,MST_test,2024.2.0,59.777793990201864,2026-01-23 17h00.21.188335 +0530,
74,0,75,s,1.8207020000554621,None,75,0,74,331.2779455999844,,,,,,,,,,,,,,,,,,,,,,,,,,,,,,,,,,,,,,,,,,,,,,,,,,331.26214090001304,331.2779455999844,331.763295999961,331.7840375000378,331.79706320003606,331.79706320003606,331.79706320003606,333.62037440005224,Foils\scenes29.jpg,none,s,1.8207020000554621,None,,,,,,,,,00038,001,2026-01-23_17h00.07.805,MST_test,2024.2.0,59.777793990201864,2026-01-23 17h00.21.188335 +0530,
75,0,76,o,3.853759599965997,None,76,0,75,333.6362709000241,,,,,,,,,,,,,,,,,,,,,,,,,,,,,,,,,,,,,,,,,,,,,,,,,,333.62046699994244,333.6362709000241,334.12148980004713,334.1502534999745,334.1724837999791,334.1724837999791,334.1724837999791,338.03556230000686,Scenes\021a.jpg,pre,o,3.853759599965997,None,,,,,,,,,00038,001,2026-01-23_17h00.07.805,MST_test,2024.2.0,59.777793990201864,2026-01-23 17h00.21.188335 +0530,
76,0,77,s,1.960249700001441,None,77,0,76,338.0517435000511,,,,,,,,,,,,,,,,,,,,,,,,,,,,,,,,,,,,,,,,,,,,,,,,,,338.0356600000523,338.0517435000511,338.53696099994704,338.5611674999818,338.57013490004465,338.57013490004465,338.57013490004465,340.54435570002533,Objects\184b.jpg,pre,s,1.960249700001441,None,,,,,,,,,00038,001,2026-01-23_17h00.07.805,MST_test,2024.2.0,59.777793990201864,2026-01-23 17h00.21.188335 +0530,
77,0,78,n,1.2278092000633478,None,78,0,77,340.5603458000114,,,,,,,,,,,,,,,,,,,,,,,,,,,,,,,,,,,,,,,,,,,,,,,,,,340.54446380003355,340.5603458000114,341.04555539996363,341.0666811000556,341.0787929999642,341.0787929999642,341.0787929999642,342.3177798000397,Foils\073a.jpg,none,n,1.2278092000633478,None,,,,,,,,,00038,001,2026-01-23_17h00.07.805,MST_test,2024.2.0,59.777793990201864,2026-01-23 17h00.21.188335 +0530,
78,0,79,s,1.318049699999392,None,79,0,78,342.33455679996405,,,,,,,,,,,,,,,,,,,,,,,,,,,,,,,,,,,,,,,,,,,,,,,,,,342.3178760999581,342.33455679996405,342.8183747000294,342.8347002000082,342.8519124999875,342.8519124999875,342.8519124999875,344.17360630002804,Objects\070a.jpg,post,s,1.318049699999392,None,,,,,,,,,00038,001,2026-01-23_17h00.07.805,MST_test,2024.2.0,59.777793990201864,2026-01-23 17h00.21.188335 +0530,
79,0,80,o,1.3578548999503255,None,80,0,79,344.19002089998685,,,,,,,,,,,,,,,,,,,,,,,,,,,,,,,,,,,,,,,,,,,,,,,,,,344.1737003000453,344.19002089998685,344.6760458999779,344.6914889999898,344.7082985000452,344.7082985000452,344.7082985000452,346.0802225000225,Objects\121a.jpg,mid,o,1.3578548999503255,None,,,,,,,,,00038,001,2026-01-23_17h00.07.805,MST_test,2024.2.0,59.777793990201864,2026-01-23 17h00.21.188335 +0530,
80,0,81,o,1.0999773000366986,None,81,0,80,346.09657900000457,,,,,,,,,,,,,,,,,,,,,,,,,,,,,,,,,,,,,,,,,,,,,,,,,,346.0803180000512,346.09657900000457,346.58286419999786,346.59696809994057,346.6148457999807,346.6148457999807,346.6148457999807,347.71944020001683,Objects\153a.jpg,mid,o,1.0999773000366986,None,,,,,,,,,00038,001,2026-01-23_17h00.07.805,MST_test,2024.2.0,59.777793990201864,2026-01-23 17h00.21.188335 +0530,
81,0,82,o,1.3955037000123411,None,82,0,81,347.7356006000191,,,,,,,,,,,,,,,,,,,,,,,,,,,,,,,,,,,,,,,,,,,,,,,,,,347.71953170001507,347.7356006000191,348.2205535999965,348.23528400005307,348.25404579995666,348.25404579995666,348.25404579995666,349.65967069996987,Objects\052a.jpg,mid,o,1.3955037000123411,None,,,,,,,,,00038,001,2026-01-23_17h00.07.805,MST_test,2024.2.0,59.777793990201864,2026-01-23 17h00.21.188335 +0530,
82,0,83,o,1.2472286999691278,None,83,0,82,349.67577490000986,,,,,,,,,,,,,,,,,,,,,,,,,,,,,,,,,,,,,,,,,,,,,,,,,,349.6597671000054,349.67577490000986,350.1610622999724,350.19014199997764,350.2107664999785,350.2107664999785,350.2107664999785,351.46600200003013,Scenes\019a.jpg,post,o,1.2472286999691278,None,,,,,,,,,00038,001,2026-01-23_17h00.07.805,MST_test,2024.2.0,59.777793990201864,2026-01-23 17h00.21.188335 +0530,
83,0,84,s,1.3130139999557287,None,84,0,83,351.4820519000059,,,,,,,,,,,,,,,,,,,,,,,,,,,,,,,,,,,,,,,,,,,,,,,,,,351.4661140999524,351.4820519000059,351.96714159997646,351.9971366999671,352.017218300025,352.017218300025,352.017218300025,353.3389670000179,Scenes\166b.jpg,post,s,1.3130139999557287,None,,,,,,,,,00038,001,2026-01-23_17h00.07.805,MST_test,2024.2.0,59.777793990201864,2026-01-23 17h00.21.188335 +0530,
84,0,85,s,1.263664299971424,None,85,0,84,353.3552914999891,,,,,,,,,,,,,,,,,,,,,,,,,,,,,,,,,,,,,,,,,,,,,,,,,,353.339061900042,353.3552914999891,353.8402551000472,353.8736530999886,353.8903302999679,353.8903302999679,353.8903302999679,355.16196569998283,Scenes\107b.jpg,pre,s,1.263664299971424,None,,,,,,,,,00038,001,2026-01-23_17h00.07.805,MST_test,2024.2.0,59.777793990201864,2026-01-23 17h00.21.188335 +0530,
85,0,86,n,2.736709599965252,None,86,0,85,355.17854560003616,,,,,,,,,,,,,,,,,,,,,,,,,,,,,,,,,,,,,,,,,,,,,,,,,,355.16206160001457,355.17854560003616,355.663304900052,355.6938295,355.71338149998337,355.71338149998337,355.71338149998337,358.45684460003395,Scenes\190a.jpg,post,n,2.736709599965252,None,,,,,,,,,00038,001,2026-01-23_17h00.07.805,MST_test,2024.2.0,59.777793990201864,2026-01-23 17h00.21.188335 +0530,
86,0,87,s,1.882221599924378,None,87,0,86,358.473823599983,,,,,,,,,,,,,,,,,,,,,,,,,,,,,,,,,,,,,,,,,,,,,,,,,,358.4569444999797,358.473823599983,358.9581669999752,358.9967236999655,359.0083643000107,359.0083643000107,359.0083643000107,360.89916669996455,Scenes\010b.jpg,post,s,1.882221599924378,None,,,,,,,,,00038,001,2026-01-23_17h00.07.805,MST_test,2024.2.0,59.777793990201864,2026-01-23 17h00.21.188335 +0530,
87,0,88,o,1.2079801999498159,None,88,0,87,360.9150867999997,,,,,,,,,,,,,,,,,,,,,,,,,,,,,,,,,,,,,,,,,,,,,,,,,,360.89926009997725,360.9150867999997,361.4000578999985,361.4228890000377,361.4335117000155,361.4335117000155,361.4335117000155,362.6551006999798,Scenes\152a.jpg,mid,o,1.2079801999498159,None,,,,,,,,,00038,001,2026-01-23_17h00.07.805,MST_test,2024.2.0,59.777793990201864,2026-01-23 17h00.21.188335 +0530,
88,0,89,s,1.667948600021191,None,89,0,88,362.6713489999529,,,,,,,,,,,,,,,,,,,,,,,,,,,,,,,,,,,,,,,,,,,,,,,,,,362.6551955000032,362.6713489999529,363.1561942000408,363.19234429998323,363.2065264999401,363.2065264999401,363.2065264999401,364.8800954000326,Scenes\106b.jpg,pre,s,1.667948600021191,None,,,,,,,,,00038,001,2026-01-23_17h00.07.805,MST_test,2024.2.0,59.777793990201864,2026-01-23 17h00.21.188335 +0530,
89,0,90,o,2.0030676999595016,None,90,0,89,364.89557089994196,,,,,,,,,,,,,,,,,,,,,,,,,,,,,,,,,,,,,,,,,,,,,,,,,,364.8801896000514,364.89557089994196,365.380786200054,365.41234130004887,365.4307328000432,365.4307328000432,365.4307328000432,367.43838109995704,Scenes\084a.jpg,mid,o,2.0030676999595016,None,,,,,,,,,00038,001,2026-01-23_17h00.07.805,MST_test,2024.2.0,59.777793990201864,2026-01-23 17h00.21.188335 +0530,
90,0,91,o,1.205013299942948,None,91,0,90,367.45465109997895,,,,,,,,,,,,,,,,,,,,,,,,,,,,,,,,,,,,,,,,,,,,,,,,,,367.43848170002457,367.45465109997895,367.93976400000975,367.95677910000086,367.97309650003444,367.97309650003444,367.97309650003444,369.1943707000464,Objects\126a.jpg,pre,o,1.205013299942948,None,,,,,,,,,00038,001,2026-01-23_17h00.07.805,MST_test,2024.2.0,59.777793990201864,2026-01-23 17h00.21.188335 +0530,
91,0,92,o,2.2890086999395862,None,92,0,91,369.2107930999482,,,,,,,,,,,,,,,,,,,,,,,,,,,,,,,,,,,,,,,,,,,,,,,,,,369.1944992999779,369.2107930999482,369.69581349997316,369.71184939995874,369.7292435000418,369.7292435000418,369.7292435000418,372.0210865000263,Objects\099a.jpg,mid,o,2.2890086999395862,None,,,,,,,,,00038,001,2026-01-23_17h00.07.805,MST_test,2024.2.0,59.777793990201864,2026-01-23 17h00.21.188335 +0530,
92,0,93,o,1.0461019999347627,None,93,0,92,372.0375587999588,,,,,,,,,,,,,,,,,,,,,,,,,,,,,,,,,,,,,,,,,,,,,,,,,,372.0211802000413,372.0375587999588,372.52237859996967,372.54606920003425,372.5558054000139,372.5558054000139,372.5558054000139,373.6101093000034,Objects\100b.jpg,pre,o,1.0461019999347627,None,,,,,,,,,00038,001,2026-01-23_17h00.07.805,MST_test,2024.2.0,59.777793990201864,2026-01-23 17h00.21.188335 +0530,
93,0,94,s,1.2568663000129163,None,94,0,93,373.6262637999607,,,,,,,,,,,,,,,,,,,,,,,,,,,,,,,,,,,,,,,,,,,,,,,,,,373.6102014000062,373.6262637999607,374.11129539995454,374.13255340000615,374.1447116000345,374.1447116000345,374.1447116000345,375.41625530004967,Foils\058a.jpg,none,s,1.2568663000129163,None,,,,,,,,,00038,001,2026-01-23_17h00.07.805,MST_test,2024.2.0,59.777793990201864,2026-01-23 17h00.21.188335 +0530,
94,0,95,o,1.1547077000141144,None,95,0,94,375.43247100000735,,,,,,,,,,,,,,,,,,,,,,,,,,,,,,,,,,,,,,,,,,,,,,,,,,375.41634849994443,375.43247100000735,375.9176828999771,375.93163020000793,375.95113529998343,375.95113529998343,375.95113529998343,377.1223556000041,Objects\007a.jpg,pre,o,1.1547077000141144,None,,,,,,,,,00038,001,2026-01-23_17h00.07.805,MST_test,2024.2.0,59.777793990201864,2026-01-23 17h00.21.188335 +0530,
95,0,96,o,1.3850136999972165,None,96,0,95,377.138563000015,,,,,,,,,,,,,,,,,,,,,,,,,,,,,,,,,,,,,,,,,,,,,,,,,,377.12244960002135,377.138563000015,377.62352380005177,377.6371683999896,377.65701470000204,377.65701470000204,377.65701470000204,379.045688000042,Objects\044a.jpg,mid,o,1.3850136999972165,None,,,,,,,,,00038,001,2026-01-23_17h00.07.805,MST_test,2024.2.0,59.777793990201864,2026-01-23 17h00.21.188335 +0530,
96,0,97,s,2.8771618000464514,None,97,0,96,379.06210059998557,,,,,,,,,,,,,,,,,,,,,,,,,,,,,,,,,,,,,,,,,,,,,,,,,,379.0457846999634,379.06210059998557,379.54698740004096,379.570271100034,379.58058169996366,379.58058169996366,379.58058169996366,382.4754987000488,Objects\067b.jpg,mid,s,2.8771618000464514,None,,,,,,,,,00038,001,2026-01-23_17h00.07.805,MST_test,2024.2.0,59.777793990201864,2026-01-23 17h00.21.188335 +0530,
97,0,98,s,2.481084299972281,None,98,0,97,382.49103519995697,,,,,,,,,,,,,,,,,,,,,,,,,,,,,,,,,,,,,,,,,,,,,,,,,,382.4755960999755,382.49103519995697,382.9757089000195,382.98939520004205,383.0090886000544,383.0090886000544,383.0090886000544,385.501868500025,Objects\185a.jpg,post,s,2.481084299972281,None,,,,,,,,,00038,001,2026-01-23_17h00.07.805,MST_test,2024.2.0,59.777793990201864,2026-01-23 17h00.21.188335 +0530,
98,0,99,n,1.3495381000684574,None,99,0,98,385.51792989997193,,,,,,,,,,,,,,,,,,,,,,,,,,,,,,,,,,,,,,,,,,,,,,,,,,385.5019599000225,385.51792989997193,386.0033966000192,386.0263295000186,386.0364246000536,386.0364246000536,386.0364246000536,387.3916398000438,Foils\049a.jpg,none,n,1.3495381000684574,None,,,,,,,,,00038,001,2026-01-23_17h00.07.805,MST_test,2024.2.0,59.777793990201864,2026-01-23 17h00.21.188335 +0530,
99,0,100,s,3.0274824000662193,None,100,0,99,387.4078630999429,,,,,,,,,,,,,,,,,,,,,,,,,,,,,,,,,,,,,,,,,,,,,,,,,,387.3917341999477,387.4078630999429,387.8928443000186,387.9121846000198,387.9264706999529,387.9264706999529,387.9264706999529,390.95466889999807,Objects\134b.jpg,post,s,3.0274824000662193,None,,,,,,,,,00038,001,2026-01-23_17h00.07.805,MST_test,2024.2.0,59.777793990201864,2026-01-23 17h00.21.188335 +0530,
100,0,101,n,1.5691188999917358,None,101,0,100,390.970518099959,,,,,,,,,,,,,,,,,,,,,,,,,,,,,,,,,,,,,,,,,,,,,,,,,,390.9547661000397,390.970518099959,391.4559518999886,391.47219560004305,391.48893979995046,391.48893979995046,391.48893979995046,393.0616067999508,Objects\086b.jpg,mid,n,1.5691188999917358,None,,,,,,,,,00038,001,2026-01-23_17h00.07.805,MST_test,2024.2.0,59.777793990201864,2026-01-23 17h00.21.188335 +0530,
101,0,102,n,1.446298399940133,None,102,0,101,393.07774320000317,,,,,,,,,,,,,,,,,,,,,,,,,,,,,,,,,,,,,,,,,,,,,,,,,,393.0617010999704,393.07774320000317,393.56282590003684,393.5785816999851,393.59604810003657,393.59604810003657,393.59604810003657,395.052165400004,Objects\137b.jpg,mid,n,1.446298399940133,None,,,,,,,,,00038,001,2026-01-23_17h00.07.805,MST_test,2024.2.0,59.777793990201864,2026-01-23 17h00.21.188335 +0530,
102,0,103,o,1.3575923000462353,None,103,0,102,395.0681912000291,,,,,,,,,,,,,,,,,,,,,,,,,,,,,,,,,,,,,,,,,,,,,,,,,,395.0522619000403,395.0681912000291,395.5534012999851,395.58291560004,395.6042814999819,395.6042814999819,395.6042814999819,396.9756934000179,Scenes\002a.jpg,post,o,1.3575923000462353,None,,,,,,,,,00038,001,2026-01-23_17h00.07.805,MST_test,2024.2.0,59.777793990201864,2026-01-23 17h00.21.188335 +0530,
103,0,104,o,1.2981569999828935,None,104,0,103,396.99171600001864,,,,,,,,,,,,,,,,,,,,,,,,,,,,,,,,,,,,,,,,,,,,,,,,,,396.9757869000314,396.99171600001864,397.47681819996797,397.51052490004804,397.52802950004116,397.52802950004116,397.52802950004116,398.83226920000743,Scenes\059a.jpg,mid,o,1.2981569999828935,None,,,,,,,,,00038,001,2026-01-23_17h00.07.805,MST_test,2024.2.0,59.777793990201864,2026-01-23 17h00.21.188335 +0530,
104,0,105,s,1.0087947000283748,None,105,0,104,398.84869290003553,,,,,,,,,,,,,,,,,,,,,,,,,,,,,,,,,,,,,,,,,,,,,,,,,,398.8323719999753,398.84869290003553,399.3333317999495,399.3761800000211,399.4010821999982,399.4010821999982,399.4010821999982,400.42095479997806,Scenes\142b.jpg,pre,s,1.0087947000283748,None,,,,,,,,,00038,001,2026-01-23_17h00.07.805,MST_test,2024.2.0,59.777793990201864,2026-01-23 17h00.21.188335 +0530,
105,0,106,s,4.974580399924889,None,106,0,105,400.43700210005045,,,,,,,,,,,,,,,,,,,,,,,,,,,,,,,,,,,,,,,,,,,,,,,,,,400.421050200006,400.43700210005045,400.9222160000354,400.94687900005374,400.95551240001805,400.95551240001805,400.95551240001805,405.9401599999983,Scenes\173a.jpg,post,s,4.974580399924889,None,,,,,,,,,00038,001,2026-01-23_17h00.07.805,MST_test,2024.2.0,59.777793990201864,2026-01-23 17h00.21.188335 +0530,
106,0,107,s,1.2930645000888035,None,107,0,106,405.9564513999503,,,,,,,,,,,,,,,,,,,,,,,,,,,,,,,,,,,,,,,,,,,,,,,,,,405.94026329996996,405.9564513999503,406.4414042000426,406.47511560004205,406.49249920004513,406.49249920004513,406.49249920004513,407.79665389994625,Scenes\157b.jpg,post,s,1.2930645000888035,None,,,,,,,,,00038,001,2026-01-23_17h00.07.805,MST_test,2024.2.0,59.777793990201864,2026-01-23 17h00.21.188335 +0530,
107,0,108,o,1.4374440999235958,None,108,0,107,407.8128339999821,,,,,,,,,,,,,,,,,,,,,,,,,,,,,,,,,,,,,,,,,,,,,,,,,,407.79675139999017,407.8128339999821,408.29820079996716,408.31377869995777,408.33207360003144,408.33207360003144,408.33207360003144,409.77051760000177,Objects\013a.jpg,post,o,1.4374440999235958,None,,,,,,,,,00038,001,2026-01-23_17h00.07.805,MST_test,2024.2.0,59.777793990201864,2026-01-23 17h00.21.188335 +0530,
108,0,109,s,1.5227579000638798,None,109,0,108,409.7866509000305,,,,,,,,,,,,,,,,,,,,,,,,,,,,,,,,,,,,,,,,,,,,,,,,,,409.7706153000472,409.7866509000305,410.2716289999662,410.29471449996345,410.3051532000536,410.3051532000536,410.3051532000536,411.82846350001637,Objects\031b.jpg,mid,s,1.5227579000638798,None,,,,,,,,,00038,001,2026-01-23_17h00.07.805,MST_test,2024.2.0,59.777793990201864,2026-01-23 17h00.21.188335 +0530,
109,0,110,s,2.8554451001109555,None,110,0,109,411.8437597999582,,,,,,,,,,,,,,,,,,,,,,,,,,,,,,,,,,,,,,,,,,,,,,,,,,411.8285637999652,411.8437597999582,412.3287529000081,412.34512730001006,412.3622096000472,412.3622096000472,412.3622096000472,415.2226508000167,Objects\038a.jpg,pre,s,2.8554451001109555,None,,,,,,,,,00038,001,2026-01-23_17h00.07.805,MST_test,2024.2.0,59.777793990201864,2026-01-23 17h00.21.188335 +0530,
110,0,111,s,1.0846017999574542,None,111,0,110,415.23894529999234,,,,,,,,,,,,,,,,,,,,,,,,,,,,,,,,,,,,,,,,,,,,,,,,,,415.2227458000416,415.23894529999234,415.72393109998666,415.7463730999734,415.7574964000378,415.7574964000378,415.7574964000378,416.84518039994873,Objects\136b.jpg,pre,s,1.0846017999574542,None,,,,,,,,,00038,001,2026-01-23_17h00.07.805,MST_test,2024.2.0,59.777793990201864,2026-01-23 17h00.21.188335 +0530,
111,0,112,s,2.23035249998793,None,112,0,111,416.8612856999971,,,,,,,,,,,,,,,,,,,,,,,,,,,,,,,,,,,,,,,,,,,,,,,,,,416.84527449996676,416.8612856999971,417.3462538999738,417.3611248000525,417.379769399995,417.379769399995,417.379769399995,419.6215889999876,Objects\087a.jpg,post,s,2.23035249998793,None,,,,,,,,,00038,001,2026-01-23_17h00.07.805,MST_test,2024.2.0,59.777793990201864,2026-01-23 17h00.21.188335 +0530,
112,0,113,o,1.3638895000331104,None,113,0,112,419.63773620000575,,,,,,,,,,,,,,,,,,,,,,,,,,,,,,,,,,,,,,,,,,,,,,,,,,419.6216802999843,419.63773620000575,420.12266380002256,420.15142010001,420.1737932000542,420.1737932000542,420.1737932000542,421.54447289998643,Scenes\007a.jpg,post,o,1.3638895000331104,None,,,,,,,,,00038,001,2026-01-23_17h00.07.805,MST_test,2024.2.0,59.777793990201864,2026-01-23 17h00.21.188335 +0530,
113,0,114,s,1.251115099992603,None,114,0,113,421.56173429999035,,,,,,,,,,,,,,,,,,,,,,,,,,,,,,,,,,,,,,,,,,,,,,,,,,421.5445685000159,421.56173429999035,422.0461044999538,422.06806920003146,422.07911239995155,422.07911239995155,422.07911239995155,423.334365000017,Objects\131b.jpg,pre,s,1.251115099992603,None,,,,,,,,,00038,001,2026-01-23_17h00.07.805,MST_test,2024.2.0,59.777793990201864,2026-01-23 17h00.21.188335 +0530,
114,0,115,n,1.0287868999876082,None,115,0,114,423.35137169994414,,,,,,,,,,,,,,,,,,,,,,,,,,,,,,,,,,,,,,,,,,,,,,,,,,423.33446649997495,423.35137169994414,423.8354901999701,423.85650590003934,423.86870740004815,423.86870740004815,423.86870740004815,424.9065307000419,Foils\098a.jpg,none,n,1.0287868999876082,None,,,,,,,,,00038,001,2026-01-23_17h00.07.805,MST_test,2024.2.0,59.777793990201864,2026-01-23 17h00.21.188335 +0530,
115,0,116,o,2.1915818999987096,None,116,0,115,424.9225779999979,,,,,,,,,,,,,,,,,,,,,,,,,,,,,,,,,,,,,,,,,,,,,,,,,,424.90663510002196,424.9225779999979,425.40756890003104,425.4377517000539,425.4585320999613,425.4585320999613,425.4585320999613,427.66599460004363,Scenes\035a.jpg,mid,o,2.1915818999987096,None,,,,,,,,,00038,001,2026-01-23_17h00.07.805,MST_test,2024.2.0,59.777793990201864,2026-01-23 17h00.21.188335 +0530,
116,0,117,o,1.1055632000789046,None,117,0,116,427.68234790000133,,,,,,,,,,,,,,,,,,,,,,,,,,,,,,,,,,,,,,,,,,,,,,,,,,427.66609149996657,427.68234790000133,428.1673466999782,428.1821685000323,428.2006600999739,428.2006600999739,428.2006600999739,429.32175660005305,Objects\020a.jpg,pre,o,1.1055632000789046,None,,,,,,,,,00038,001,2026-01-23_17h00.07.805,MST_test,2024.2.0,59.777793990201864,2026-01-23 17h00.21.188335 +0530,
117,0,118,s,1.1921019000001252,None,118,0,117,429.33802449994255,,,,,,,,,,,,,,,,,,,,,,,,,,,,,,,,,,,,,,,,,,,,,,,,,,429.32185199996457,429.33802449994255,429.82301060005557,429.86551080003846,429.87424290005583,429.87424290005583,429.87424290005583,431.07805110001937,Scenes\192b.jpg,mid,s,1.1921019000001252,None,,,,,,,,,00038,001,2026-01-23_17h00.07.805,MST_test,2024.2.0,59.777793990201864,2026-01-23 17h00.21.188335 +0530,
118,0,119,o,2.083753200015053,None,119,0,118,431.09406160004437,,,,,,,,,,,,,,,,,,,,,,,,,,,,,,,,,,,,,,,,,,,,,,,,,,431.0781455000397,431.09406160004437,431.57927570003085,431.6021975999465,431.6136633999413,431.6136633999413,431.6136633999413,433.70415410003625,Scenes\129a.jpg,pre,o,2.083753200015053,None,,,,,,,,,00038,001,2026-01-23_17h00.07.805,MST_test,2024.2.0,59.777793990201864,2026-01-23 17h00.21.188335 +0530,
119,0,120,s,1.1143107999814674,None,120,0,119,433.72006369999144,,,,,,,,,,,,,,,,,,,,,,,,,,,,,,,,,,,,,,,,,,,,,,,,,,433.7042443000246,433.72006369999144,434.2054459999781,434.23871139995754,434.25588640000205,434.25588640000205,434.25588640000205,435.376456100028,Scenes\123b.jpg,pre,s,1.1143107999814674,None,,,,,,,,,00038,001,2026-01-23_17h00.07.805,MST_test,2024.2.0,59.777793990201864,2026-01-23 17h00.21.188335 +0530,
120,0,121,s,1.6588183999992907,None,121,0,120,435.39243779995013,,,,,,,,,,,,,,,,,,,,,,,,,,,,,,,,,,,,,,,,,,,,,,,,,,435.3765466000186,435.39243779995013,435.87763989996165,435.901685000048,435.911654699943,435.911654699943,435.911654699943,437.58397929999046,Objects\109b.jpg,post,s,1.6588183999992907,None,,,,,,,,,00038,001,2026-01-23_17h00.07.805,MST_test,2024.2.0,59.777793990201864,2026-01-23 17h00.21.188335 +0530,
121,0,122,s,1.4417105000466108,None,122,0,121,437.60045449994504,,,,,,,,,,,,,,,,,,,,,,,,,,,,,,,,,,,,,,,,,,,,,,,,,,437.58407199999783,437.60045449994504,438.0854155999841,438.1163403999526,438.1367319000419,438.1367319000419,438.1367319000419,439.59097270003986,Scenes\153b.jpg,mid,s,1.4417105000466108,None,,,,,,,,,00038,001,2026-01-23_17h00.07.805,MST_test,2024.2.0,59.777793990201864,2026-01-23 17h00.21.188335 +0530,
122,0,123,s,1.3261616999516264,None,123,0,122,439.60749189998023,,,,,,,,,,,,,,,,,,,,,,,,,,,,,,,,,,,,,,,,,,,,,,,,,,439.59106530004647,439.60749189998023,440.09252399997786,440.118568600039,440.1251855000155,440.1251855000155,440.1251855000155,441.46486219996586,Scenes\092a.jpg,mid,s,1.3261616999516264,None,,,,,,,,,00038,001,2026-01-23_17h00.07.805,MST_test,2024.2.0,59.777793990201864,2026-01-23 17h00.21.188335 +0530,
123,0,124,o,0.9451257000910118,None,124,0,123,441.4814332999522,,,,,,,,,,,,,,,,,,,,,,,,,,,,,,,,,,,,,,,,,,,,,,,,,,441.46495980001055,441.4814332999522,441.9659899000544,442.00055670004804,442.01656739995815,442.01656739995815,442.01656739995815,442.9699011000339,Scenes\130a.jpg,post,o,0.9451257000910118,None,,,,,,,,,00038,001,2026-01-23_17h00.07.805,MST_test,2024.2.0,59.777793990201864,2026-01-23 17h00.21.188335 +0530,
124,0,125,o,1.0878865999402478,None,125,0,124,442.9857061000075,,,,,,,,,,,,,,,,,,,,,,,,,,,,,,,,,,,,,,,,,,,,,,,,,,442.9699919000268,442.9857061000075,443.4709504999919,443.50775909994263,443.52198670001235,443.52198670001235,443.52198670001235,444.6260280000279,Scenes\020a.jpg,pre,o,1.0878865999402478,None,,,,,,,,,00038,001,2026-01-23_17h00.07.805,MST_test,2024.2.0,59.777793990201864,2026-01-23 17h00.21.188335 +0530,
125,0,126,s,2.752569800009951,None,126,0,125,444.6426659999415,,,,,,,,,,,,,,,,,,,,,,,,,,,,,,,,,,,,,,,,,,,,,,,,,,444.62612070003524,444.6426659999415,445.1266169999726,445.1670190000441,445.1776818999788,445.1776818999788,445.1776818999788,447.9371862000553,Scenes\090b.jpg,mid,s,2.752569800009951,None,,,,,,,,,00038,001,2026-01-23_17h00.07.805,MST_test,2024.2.0,59.777793990201864,2026-01-23 17h00.21.188335 +0530,
126,0,127,s,1.6503936999943107,None,127,0,126,447.9531987999799,,,,,,,,,,,,,,,,,,,,,,,,,,,,,,,,,,,,,,,,,,,,,,,,,,447.93727939995006,447.9531987999799,448.43818389996886,448.4761359000113,448.48838640004396,448.48838640004396,448.48838640004396,450.1453723999439,Scenes\072b.jpg,mid,s,1.6503936999943107,None,,,,,,,,,00038,001,2026-01-23_17h00.07.805,MST_test,2024.2.0,59.777793990201864,2026-01-23 17h00.21.188335 +0530,
127,0,128,n,1.961781399906613,None,128,0,127,450.16094650002196,,,,,,,,,,,,,,,,,,,,,,,,,,,,,,,,,,,,,,,,,,,,,,,,,,450.1454632000532,450.16094650002196,450.6459122999804,450.6692831000546,450.68018210004084,450.68018210004084,450.68018210004084,452.65388230001554,Foils\106a.jpg,none,n,1.961781399906613,None,,,,,,,,,00038,001,2026-01-23_17h00.07.805,MST_test,2024.2.0,59.777793990201864,2026-01-23 17h00.21.188335 +0530,
128,0,129,o,1.2928924999432638,None,129,0,128,452.67070519994013,,,,,,,,,,,,,,,,,,,,,,,,,,,,,,,,,,,,,,,,,,,,,,,,,,452.65400520002004,452.67070519994013,453.15498260001186,453.1763279000297,453.22143989999313,453.22143989999313,453.22143989999313,454.5264758999692,Foils\066a.jpg,none,o,1.2928924999432638,None,,,,,,,,,00038,001,2026-01-23_17h00.07.805,MST_test,2024.2.0,59.777793990201864,2026-01-23 17h00.21.188335 +0530,
129,0,130,s,1.9876756999874488,None,130,0,129,454.5429483000189,,,,,,,,,,,,,,,,,,,,,,,,,,,,,,,,,,,,,,,,,,,,,,,,,,454.5265736000147,454.5429483000189,455.02795859996695,455.05196710000746,455.06243050005287,455.06243050005287,455.06243050005287,457.0520262999926,Scenes\137a.jpg,post,s,1.9876756999874488,None,,,,,,,,,00038,001,2026-01-23_17h00.07.805,MST_test,2024.2.0,59.777793990201864,2026-01-23 17h00.21.188335 +0530,
130,0,131,o,1.1826283000409603,None,131,0,130,457.0684678000398,,,,,,,,,,,,,,,,,,,,,,,,,,,,,,,,,,,,,,,,,,,,,,,,,,457.05213399999775,457.0684678000398,457.5537024999503,457.57670530001633,457.58789069997147,457.58789069997147,457.58789069997147,458.7753568999469,Scenes\163a.jpg,mid,o,1.1826283000409603,None,,,,,,,,,00038,001,2026-01-23_17h00.07.805,MST_test,2024.2.0,59.777793990201864,2026-01-23 17h00.21.188335 +0530,
131,0,132,s,14.955844900105149,None,132,0,131,458.79115930001717,,,,,,,,,,,,,,,,,,,,,,,,,,,,,,,,,,,,,,,,,,,,,,,,,,458.7754521999741,458.79115930001717,459.27613869996276,459.3009824999608,459.3104887000518,459.3104887000518,459.3104887000518,474.27968919998966,Objects\065b.jpg,pre,s,14.955844900105149,None,,,,,,,,,00038,001,2026-01-23_17h00.07.805,MST_test,2024.2.0,59.777793990201864,2026-01-23 17h00.21.188335 +0530,
132,0,133,s,1.4431482999352738,None,133,0,132,474.29536109999754,,,,,,,,,,,,,,,,,,,,,,,,,,,,,,,,,,,,,,,,,,,,,,,,,,474.27984289999586,474.29536109999754,474.7805392999435,474.81804459996056,474.83145779999904,474.83145779999904,474.83145779999904,476.28615139995236,Foils\scenes27.jpg,none,s,1.4431482999352738,None,,,,,,,,,00038,001,2026-01-23_17h00.07.805,MST_test,2024.2.0,59.777793990201864,2026-01-23 17h00.21.188335 +0530,
133,0,134,s,1.1399709000252187,None,134,0,133,476.3025570999598,,,,,,,,,,,,,,,,,,,,,,,,,,,,,,,,,,,,,,,,,,,,,,,,,,476.2862441999605,476.3025570999598,476.78758789994754,476.8162719999673,476.8375239999732,476.8375239999732,476.8375239999732,477.9923474000534,Scenes\112b.jpg,pre,s,1.1399709000252187,None,,,,,,,,,00038,001,2026-01-23_17h00.07.805,MST_test,2024.2.0,59.777793990201864,2026-01-23 17h00.21.188335 +0530,
134,0,135,s,1.6815486000850797,None,135,0,134,478.0083351000212,,,,,,,,,,,,,,,,,,,,,,,,,,,,,,,,,,,,,,,,,,,,,,,,,,477.9924433999695,478.0083351000212,478.4948585999664,478.5158221999882,478.528402499971,478.528402499971,478.528402499971,480.2166478999425,Scenes\039a.jpg,post,s,1.6815486000850797,None,,,,,,,,,00038,001,2026-01-23_17h00.07.805,MST_test,2024.2.0,59.777793990201864,2026-01-23 17h00.21.188335 +0530,
135,0,136,n,1.0183823000406846,None,136,0,135,480.2327847999986,,,,,,,,,,,,,,,,,,,,,,,,,,,,,,,,,,,,,,,,,,,,,,,,,,480.21674109995365,480.2327847999986,480.71812790003605,480.73972820001654,480.7512342999689,480.7512342999689,480.7512342999689,481.7720449999906,Foils\009a.jpg,none,n,1.0183823000406846,None,,,,,,,,,00038,001,2026-01-23_17h00.07.805,MST_test,2024.2.0,59.777793990201864,2026-01-23 17h00.21.188335 +0530,
136,0,137,s,1.2299417000031099,None,137,0,136,481.78823890001513,,,,,,,,,,,,,,,,,,,,,,,,,,,,,,,,,,,,,,,,,,,,,,,,,,481.77214060002007,481.78823890001513,482.27358279994223,482.31155730003957,482.3242958999472,482.3242958999472,482.3242958999472,483.5618714999873,Scenes\134b.jpg,pre,s,1.2299417000031099,None,,,,,,,,,00038,001,2026-01-23_17h00.07.805,MST_test,2024.2.0,59.777793990201864,2026-01-23 17h00.21.188335 +0530,
137,0,138,s,1.4418400999857113,None,138,0,137,483.57796210004017,,,,,,,,,,,,,,,,,,,,,,,,,,,,,,,,,,,,,,,,,,,,,,,,,,483.56196530000307,483.57796210004017,484.06293659994844,484.08684600004926,484.0964036999503,484.0964036999503,484.0964036999503,485.5519564000424,Objects\002b.jpg,mid,s,1.4418400999857113,None,,,,,,,,,00038,001,2026-01-23_17h00.07.805,MST_test,2024.2.0,59.777793990201864,2026-01-23 17h00.21.188335 +0530,
138,0,139,s,1.3613467999966815,None,139,0,138,485.5682891999604,,,,,,,,,,,,,,,,,,,,,,,,,,,,,,,,,,,,,,,,,,,,,,,,,,485.55205399997067,485.5682891999604,486.05353110004216,486.081280900049,486.10459799994715,486.10459799994715,486.10459799994715,487.4755886000348,Scenes\027a.jpg,mid,s,1.3613467999966815,None,,,,,,,,,00038,001,2026-01-23_17h00.07.805,MST_test,2024.2.0,59.777793990201864,2026-01-23 17h00.21.188335 +0530,
139,0,140,s,1.4459048999706283,None,140,0,139,487.4915535999462,,,,,,,,,,,,,,,,,,,,,,,,,,,,,,,,,,,,,,,,,,,,,,,,,,487.4756810000399,487.4915535999462,487.97675000003073,488.0126829999499,488.0279620999936,488.0279620999936,488.0279620999936,489.48252910003066,Scenes\109b.jpg,mid,s,1.4459048999706283,None,,,,,,,,,00038,001,2026-01-23_17h00.07.805,MST_test,2024.2.0,59.777793990201864,2026-01-23 17h00.21.188335 +0530,
140,0,141,s,2.5195800999645144,None,141,0,140,489.49881719995756,,,,,,,,,,,,,,,,,,,,,,,,,,,,,,,,,,,,,,,,,,,,,,,,,,489.48261940001976,489.49881719995756,489.98364500002936,489.99831709999125,490.0179352000123,490.0179352000123,490.0179352000123,492.5435126000084,Objects\168a.jpg,pre,s,2.5195800999645144,None,,,,,,,,,00038,001,2026-01-23_17h00.07.805,MST_test,2024.2.0,59.777793990201864,2026-01-23 17h00.21.188335 +0530,
141,0,142,o,1.211387399933301,None,142,0,141,492.5594267999986,,,,,,,,,,,,,,,,,,,,,,,,,,,,,,,,,,,,,,,,,,,,,,,,,,492.5436057000188,492.5594267999986,493.0444292000029,493.0727792000398,493.0959465999622,493.0959465999622,493.0959465999622,494.3160963000264,Scenes\065a.jpg,pre,o,1.211387399933301,None,,,,,,,,,00038,001,2026-01-23_17h00.07.805,MST_test,2024.2.0,59.777793990201864,2026-01-23 17h00.21.188335 +0530,
142,0,143,s,0.9335314999334514,None,143,0,142,494.3322995000053,,,,,,,,,,,,,,,,,,,,,,,,,,,,,,,,,,,,,,,,,,,,,,,,,,494.31619060004596,494.3322995000053,494.8172572000185,494.8505256000208,494.86832210002467,494.86832210002467,494.86832210002467,495.80487490003,Scenes\141b.jpg,post,s,0.9335314999334514,None,,,,,,,,,00038,001,2026-01-23_17h00.07.805,MST_test,2024.2.0,59.777793990201864,2026-01-23 17h00.21.188335 +0530,
143,0,144,n,0.8937525999499485,None,144,0,143,495.8207136000274,,,,,,,,,,,,,,,,,,,,,,,,,,,,,,,,,,,,,,,,,,,,,,,,,,495.8050710000098,495.8207136000274,496.305933100055,496.33005939994473,496.3401344999438,496.3401344999438,496.3401344999438,497.24294210004155,Foils\042a.jpg,none,n,0.8937525999499485,None,,,,,,,,,00038,001,2026-01-23_17h00.07.805,MST_test,2024.2.0,59.777793990201864,2026-01-23 17h00.21.188335 +0530,
144,0,145,s,1.4883522000163794,None,145,0,144,497.2591973999515,,,,,,,,,,,,,,,,,,,,,,,,,,,,,,,,,,,,,,,,,,,,,,,,,,497.2430371999508,497.2591973999515,497.74417930003256,497.75839109998196,497.7777068000287,497.7777068000287,497.7777068000287,499.2666716000531,Objects\127a.jpg,mid,s,1.4883522000163794,None,,,,,,,,,00038,001,2026-01-23_17h00.07.805,MST_test,2024.2.0,59.777793990201864,2026-01-23 17h00.21.188335 +0530,
145,0,146,s,1.6648439000127837,None,146,0,145,499.28307080001105,,,,,,,,,,,,,,,,,,,,,,,,,,,,,,,,,,,,,,,,,,,,,,,,,,499.2667693999829,499.28307080001105,499.76796039997134,499.78280559997074,499.8015623999527,499.8015623999527,499.8015623999527,501.4744455999462,Objects\179a.jpg,pre,s,1.6648439000127837,None,,,,,,,,,00038,001,2026-01-23_17h00.07.805,MST_test,2024.2.0,59.777793990201864,2026-01-23 17h00.21.188335 +0530,
146,0,147,s,1.3690112000331283,None,147,0,146,501.49056700000074,,,,,,,,,,,,,,,,,,,,,,,,,,,,,,,,,,,,,,,,,,,,,,,,,,501.474541899981,501.49056700000074,501.97578310000245,501.99898749997374,502.00901489995886,502.00901489995886,502.00901489995886,503.38132599997334,Objects\059b.jpg,mid,s,1.3690112000331283,None,,,,,,,,,00038,001,2026-01-23_17h00.07.805,MST_test,2024.2.0,59.777793990201864,2026-01-23 17h00.21.188335 +0530,
147,0,148,s,1.1420655000256374,None,148,0,147,503.3973645999795,,,,,,,,,,,,,,,,,,,,,,,,,,,,,,,,,,,,,,,,,,,,,,,,,,503.3814265000401,503.3973645999795,503.8823150000535,503.9050157000311,503.91581339994445,503.91581339994445,503.91581339994445,505.0704101000447,Foils\050a.jpg,none,s,1.1420655000256374,None,,,,,,,,,00038,001,2026-01-23_17h00.07.805,MST_test,2024.2.0,59.777793990201864,2026-01-23 17h00.21.188335 +0530,
148,0,149,n,1.0126638000365347,None,149,0,148,505.0866276000161,,,,,,,,,,,,,,,,,,,,,,,,,,,,,,,,,,,,,,,,,,,,,,,,,,505.07050599996,505.0866276000161,505.5716436000075,505.5928881999571,505.60540030000266,505.60540030000266,505.60540030000266,506.6259963000193,Objects\035b.jpg,post,n,1.0126638000365347,None,,,,,,,,,00038,001,2026-01-23_17h00.07.805,MST_test,2024.2.0,59.777793990201864,2026-01-23 17h00.21.188335 +0530,
149,0,150,n,1.0727540999650955,None,150,0,149,506.6420614999952,,,,,,,,,,,,,,,,,,,,,,,,,,,,,,,,,,,,,,,,,,,,,,,,,,506.6261012000032,506.6420614999952,507.12733509996906,507.1443813999649,507.16128570004366,507.16128570004366,507.16128570004366,508.2483030000003,Foils\scenes17.jpg,none,n,1.0727540999650955,None,,,,,,,,,00038,001,2026-01-23_17h00.07.805,MST_test,2024.2.0,59.777793990201864,2026-01-23 17h00.21.188335 +0530,
,,,,,,,,,,,,,,,,,,,,,,,,,,,,,,,,,,,,,,,,,,,,,,,,,,,,,,,,,,,,,,,,,,,,,,,,,508.2483677000273,508.2642901999643,508.2642901999643,509.9043430000311,space,1.6339264999842271,None,00038,001,2026-01-23_17h00.07.805,MST_test,2024.2.0,59.777793990201864,2026-01-23 17h00.21.188335 +0530,
