Sl_no,image_path,thisN,thisTrialN,thisRepN,key_resp_5.keys,key_resp_5.rt,key_resp_5.duration,key_resp_7.keys,key_resp_9.keys,key_resp_9.rt,key_resp_9.duration,key_resp_8.keys,key_resp_8.rt,key_resp_8.duration,practice.thisRepN,practice.thisTrialN,practice.thisN,trials.thisRepN,trials.thisTrialN,trials.thisN,thisRow.t,notes,welcome_page.started,text.started,key_resp.started,welcome_page.stopped,key_resp.keys,key_resp.rt,key_resp.duration,instructions.started,ins.started,key_resp_2.started,instructions.stopped,key_resp_2.keys,key_resp_2.rt,key_resp_2.duration,objects_only_instruction.started,text_3.started,key_resp_3.started,objects_only_instruction.stopped,key_resp_3.keys,key_resp_3.rt,key_resp_3.duration,ISI.started,text_4.started,ISI.stopped,practice_block.started,image.started,text_5.started,key_resp_5.started,practice_block.stopped,practice.key_resp_5.keys,practice.key_resp_5.rt,practice.key_resp_5.duration,indoor_outdoor.started,indoor_outdoor.stopped,practice.key_resp_7.keys,practice_to_main.started,text_2.started,key_resp_4.started,practice_to_main.stopped,key_resp_4.keys,key_resp_4.rt,key_resp_4.duration,objects.started,image_2.started,text_9.started,key_resp_9.started,objects.stopped,trials.key_resp_9.keys,trials.key_resp_9.rt,trials.key_resp_9.duration,encoding_task.started,encoding_task.stopped,trials.key_resp_8.keys,text_8.started,key_resp_8.started,trials.key_resp_8.rt,trials.key_resp_8.duration,end_experiment.started,text_6.started,key_resp_6.started,end_experiment.stopped,key_resp_6.keys,key_resp_6.rt,key_resp_6.duration,list_of_stimuli,encoding_task_accuracy,participant,session,date,expName,psychopyVersion,frameRate,expStart,
,,,,,,,,,,,,,,,,,,,,,,,0.013501100009307265,0.029971899930387735,0.029971899930387735,3.3070573000004515,space,3.217694300110452,None,,,,,,,,,,,,,,,,,,,,,,,,,,,,,,,,,,,,,,,,,,,,,,,,,,,,,,,,,,,,00038,001,2026-01-23_16h36.46.044,MST_task,2024.2.0,59.81236857759541,2026-01-23 16h36.58.811417 +0530,
,,,,,,,,,,,,,,,,,,,,,,,,,,,,,,3.307098399964161,3.325438499916345,3.325438499916345,21.322307499940507,space,17.986032599932514,None,,,,,,,,,,,,,,,,,,,,,,,,,,,,,,,,,,,,,,,,,,,,,,,,,,,,,00038,001,2026-01-23_16h36.46.044,MST_task,2024.2.0,59.81236857759541,2026-01-23 16h36.58.811417 +0530,
,,,,,,,,,,,,,,,,,,,,,,,,,,,,,,,,,,,,,21.32234159996733,21.338875200017355,21.338875200017355,43.818154599983245,space,22.469108099932782,None,,,,,,,,,,,,,,,,,,,,,,,,,,,,,,,,,,,,,,,,,,,,,,00038,001,2026-01-23_16h36.46.044,MST_task,2024.2.0,59.81236857759541,2026-01-23 16h36.58.811417 +0530,
9,practice_images/180a.jpg,0,0,1,f,1.1496649000328034,0.10397120006382465,None,,,,,,,1,0,0,,,,43.85123449994717,,,,,,,,,,,,,,,,,,,,,,,43.83931609999854,43.85123449994717,44.320030299946666,44.3366344999522,44.35388959990814,44.35388959990814,44.35388959990814,47.32992689998355,f,1.1496649000328034,0.10397120006382465,47.33127119997516,47.33131749997847,None,,,,,,,,,,,,,,,,,,,,,,,,,,,,,,,,00038,001,2026-01-23_16h36.46.044,MST_task,2024.2.0,59.81236857759541,2026-01-23 16h36.58.811417 +0530,
7,practice_images/166a.jpg,1,1,1,f,0.9267823999980465,0.10413700004573911,None,,,,,,,1,1,1,,,,47.34670280001592,,,,,,,,,,,,,,,,,,,,,,,47.33138859993778,47.34670280001592,47.83166619995609,47.84018509997986,47.86517849995289,47.86517849995289,47.86517849995289,50.84232579998206,f,0.9267823999980465,0.10413700004573911,50.84237829991616,50.842391600017436,None,,,,,,,,,,,,,,,,,,,,,,,,,,,,,,,,00038,001,2026-01-23_16h36.46.044,MST_task,2024.2.0,59.81236857759541,2026-01-23 16h36.58.811417 +0530,
1,practice_images/013a.jpg,2,2,1,j,1.0889228000305593,0.11971120000816882,None,,,,,,,1,2,2,,,,50.85892699996475,,,,,,,,,,,,,,,,,,,,,,,50.842473699944094,50.85892699996475,51.34413489990402,51.352893400005996,51.36011809995398,51.36011809995398,51.36011809995398,54.35475329996552,j,1.0889228000305593,0.11971120000816882,54.35481309995521,54.35482599993702,None,,,,,,,,,,,,,,,,,,,,,,,,,,,,,,,,00038,001,2026-01-23_16h36.46.044,MST_task,2024.2.0,59.81236857759541,2026-01-23 16h36.58.811417 +0530,
3,practice_images/037a.jpg,3,3,1,f,1.2319946999195963,0.11145230010151863,None,,,,,,,1,3,3,,,,54.371181599912234,,,,,,,,,,,,,,,,,,,,,,,54.35489379998762,54.371181599912234,54.85658969997894,54.86461569997482,54.872671799967065,54.872671799967065,54.872671799967065,57.86693799996283,f,1.2319946999195963,0.11145230010151863,57.86700349999592,57.867028199951164,None,,,,,,,,,,,,,,,,,,,,,,,,,,,,,,,,00038,001,2026-01-23_16h36.46.044,MST_task,2024.2.0,59.81236857759541,2026-01-23 16h36.58.811417 +0530,
8,practice_images/178a.jpg,4,4,1,j,1.0391594000393525,0.12015630002133548,None,,,,,,,1,4,4,,,,57.883505299920216,,,,,,,,,,,,,,,,,,,,,,,57.86710489995312,57.883505299920216,58.36871519999113,58.3775217999937,58.38469539990183,58.38469539990183,58.38469539990183,61.37946979992557,j,1.0391594000393525,0.12015630002133548,61.37953679997008,61.379568799980916,None,,,,,,,,,,,,,,,,,,,,,,,,,,,,,,,,00038,001,2026-01-23_16h36.46.044,MST_task,2024.2.0,59.81236857759541,2026-01-23 16h36.58.811417 +0530,
4,practice_images/002b.jpg,5,5,1,f,2.2936830000253394,0.1363446000032127,None,,,,,,,1,5,5,,,,61.39596439991146,,,,,,,,,,,,,,,,,,,,,,,61.37964119995013,61.39596439991146,61.881122999941,61.890046599903144,61.91439349995926,61.91439349995926,61.91439349995926,64.89170219993684,f,2.2936830000253394,0.1363446000032127,64.89179009990767,64.89180459990166,None,,,,,,,,,,,,,,,,,,,,,,,,,,,,,,,,00038,001,2026-01-23_16h36.46.044,MST_task,2024.2.0,59.81236857759541,2026-01-23 16h36.58.811417 +0530,
10,practice_images/182a.jpg,6,6,1,f,0.7264143000356853,0.11197069997433573,None,,,,,,,1,6,6,,,,64.90875719999894,,,,,,,,,,,,,,,,,,,,,,,64.89187589997891,64.90875719999894,65.39330170000903,65.40169600001536,65.40934799995739,65.40934799995739,65.40934799995739,68.40383450000081,f,0.7264143000356853,0.11197069997433573,68.40388879994862,68.40390119992662,None,,,,,,,,,,,,,,,,,,,,,,,,,,,,,,,,00038,001,2026-01-23_16h36.46.044,MST_task,2024.2.0,59.81236857759541,2026-01-23 16h36.58.811417 +0530,
5,practice_images/139a.jpg,7,7,1,j,0.9663398000411689,0.11973489995580167,None,,,,,,,1,7,7,,,,68.42043219995685,,,,,,,,,,,,,,,,,,,,,,,68.4039837999735,68.42043219995685,68.90558669995517,68.91395229997579,68.92148449993692,68.92148449993692,68.92148449993692,71.91612379997969,j,0.9663398000411689,0.11973489995580167,71.91618830000516,71.91620159999002,None,,,,,,,,,,,,,,,,,,,,,,,,,,,,,,,,00038,001,2026-01-23_16h36.46.044,MST_task,2024.2.0,59.81236857759541,2026-01-23 16h36.58.811417 +0530,
2,practice_images/031a.jpg,8,8,1,f,0.8281273999018595,0.11308270005974919,None,,,,,,,1,8,8,,,,71.93268819991499,,,,,,,,,,,,,,,,,,,,,,,71.91626909992192,71.93268819991499,72.4179055999266,72.42665329994634,72.4512914000079,72.4512914000079,72.4512914000079,75.42867829999886,f,0.8281273999018595,0.11308270005974919,75.42879949999042,75.42881790001411,None,,,,,,,,,,,,,,,,,,,,,,,,,,,,,,,,00038,001,2026-01-23_16h36.46.044,MST_task,2024.2.0,59.81236857759541,2026-01-23 16h36.58.811417 +0530,
6,practice_images/158a.jpg,9,9,1,j,0.702045000041835,0.14382909995038062,None,,,,,,,1,9,9,,,,75.44513070001267,,,,,,,,,,,,,,,,,,,,,,,75.4289358999813,75.44513070001267,75.93008019996341,75.93853009992745,75.94616900000256,75.94616900000256,75.94616900000256,78.94112360000145,j,0.702045000041835,0.14382909995038062,78.94117939996067,78.94119319994934,None,,,,,,,,,,,,,,,,,,,,,,,,,,,,,,,,00038,001,2026-01-23_16h36.46.044,MST_task,2024.2.0,59.81236857759541,2026-01-23 16h36.58.811417 +0530,
,,,,,,,,,,,,,,,,,,,,,,,,,,,,,,,,,,,,,,,,,,,,,,,,,,,,,,,,,,78.94125129992608,78.9575090999715,78.9575090999715,86.93594939995091,space,7.962039200006984,None,,,,,,,,,,,,,,,,,,,,,,,,,00038,001,2026-01-23_16h36.46.044,MST_task,2024.2.0,59.81236857759541,2026-01-23 16h36.58.811417 +0530,
,Scenes\173a.jpg,0,0,1,,,,,j,0.8168301000259817,0.12716439994983375,None,,,,,,1,0,0,86.95193959993776,,,,,,,,,,,,,,,,,,,,,,,86.93690919992514,86.95193959993776,87.43716789991595,,,,,,,,,,,,,,,,,,,87.46775469998829,87.48746889992617,87.48746889992617,87.48746889992617,90.44787919998635,j,0.8168301000259817,0.12716439994983375,90.44922680000309,90.44924729992636,None,,,,,,,,,,,,,,00038,001,2026-01-23_16h36.46.044,MST_task,2024.2.0,59.81236857759541,2026-01-23 16h36.58.811417 +0530,
,Scenes\171a.jpg,1,0,2,,,,,f,0.7830939000705257,0.1128784999018535,None,,,,,,2,0,1,90.46441799995955,,,,,,,,,,,,,,,,,,,,,,,90.44931840000208,90.46441799995955,90.94961869996041,,,,,,,,,,,,,,,,,,,90.97980259999167,91.00077089993283,91.00077089993283,91.00077089993283,93.9600546999136,f,0.7830939000705257,0.1128784999018535,93.96011210000142,93.96012439997867,None,,,,,,,,,,,,,,00038,001,2026-01-23_16h36.46.044,MST_task,2024.2.0,59.81236857759541,2026-01-23 16h36.58.811417 +0530,
,Scenes\105a.jpg,2,0,3,,,,,j,0.7367612000089139,0.13549689995124936,None,,,,,,3,0,2,93.97683349996805,,,,,,,,,,,,,,,,,,,,,,,93.96021519997157,93.97683349996805,94.46180399996229,,,,,,,,,,,,,,,,,,,94.48899929993786,94.51191999996081,94.51191999996081,94.51191999996081,97.4723876999924,j,0.7367612000089139,0.13549689995124936,97.47244779998437,97.47246129997075,None,,,,,,,,,,,,,,00038,001,2026-01-23_16h36.46.044,MST_task,2024.2.0,59.81236857759541,2026-01-23 16h36.58.811417 +0530,
,Scenes\192a.jpg,3,0,4,,,,,j,0.70488870004192,0.12766400002874434,None,,,,,,4,0,3,97.48903820000123,,,,,,,,,,,,,,,,,,,,,,,97.47257400001399,97.48903820000123,97.97425099997781,,,,,,,,,,,,,,,,,,,97.9952406999655,98.00786000001244,98.00786000001244,98.00786000001244,100.98465929995291,j,0.70488870004192,0.12766400002874434,100.98471479990985,100.98472760000732,None,,,,,,,,,,,,,,00038,001,2026-01-23_16h36.46.044,MST_task,2024.2.0,59.81236857759541,2026-01-23 16h36.58.811417 +0530,
,Scenes\087a.jpg,4,0,5,,,,,j,0.7515709999715909,0.1282164000440389,None,,,,,,5,0,4,101.00143860001117,,,,,,,,,,,,,,,,,,,,,,,100.98480149998795,101.00143860001117,101.48673359991517,,,,,,,,,,,,,,,,,,,101.50785449997056,101.52081589994486,101.52081589994486,101.52081589994486,104.4967878999887,j,0.7515709999715909,0.1282164000440389,104.49685449991375,104.49686879990622,None,,,,,,,,,,,,,,00038,001,2026-01-23_16h36.46.044,MST_task,2024.2.0,59.81236857759541,2026-01-23 16h36.58.811417 +0530,
,Scenes\115a.jpg,5,0,6,,,,,j,1.3353289000224322,0.1430974000832066,None,,,,,,6,0,5,104.51416919997428,,,,,,,,,,,,,,,,,,,,,,,104.49694709992036,104.51416919997428,104.99824290000834,,,,,,,,,,,,,,,,,,,105.02397669991478,105.04906119999941,105.04906119999941,105.04906119999941,108.0091276000021,j,1.3353289000224322,0.1430974000832066,108.00919139990583,108.00920430000406,None,,,,,,,,,,,,,,00038,001,2026-01-23_16h36.46.044,MST_task,2024.2.0,59.81236857759541,2026-01-23 16h36.58.811417 +0530,
,Scenes\125a.jpg,6,0,7,,,,,j,0.6876769000664353,0.14392900001257658,None,,,,,,7,0,6,108.0254469999345,,,,,,,,,,,,,,,,,,,,,,,108.00927289994434,108.0254469999345,108.51065139996354,,,,,,,,,,,,,,,,,,,108.52893429994583,108.54388359992299,108.54388359992299,108.54388359992299,111.52103529998567,j,0.6876769000664353,0.14392900001257658,111.52109049994033,111.52110309991986,None,,,,,,,,,,,,,,00038,001,2026-01-23_16h36.46.044,MST_task,2024.2.0,59.81236857759541,2026-01-23 16h36.58.811417 +0530,
,Objects\017a.jpg,7,0,8,,,,,f,0.6448405000846833,0.12002839997876436,None,,,,,,8,0,7,111.53799209999852,,,,,,,,,,,,,,,,,,,,,,,111.52125399990473,111.53799209999852,112.02295969997067,,,,,,,,,,,,,,,,,,,112.05115279997699,112.10747609997634,112.10747609997634,112.10747609997634,115.03349979990162,f,0.6448405000846833,0.12002839997876436,115.03356689994689,115.03359309991356,None,,,,,,,,,,,,,,00038,001,2026-01-23_16h36.46.044,MST_task,2024.2.0,59.81236857759541,2026-01-23 16h36.58.811417 +0530,
,Objects\187a.jpg,8,0,9,,,,,f,0.7116388001013547,0.11217999993823469,None,,,,,,9,0,8,115.05065889994148,,,,,,,,,,,,,,,,,,,,,,,115.03369389998261,115.05065889994148,115.53525339998305,,,,,,,,,,,,,,,,,,,115.55767299991567,115.568481199909,115.568481199909,115.568481199909,118.54578960000072,f,0.7116388001013547,0.11217999993823469,118.5458462999668,118.54585859994404,None,,,,,,,,,,,,,,00038,001,2026-01-23_16h36.46.044,MST_task,2024.2.0,59.81236857759541,2026-01-23 16h36.58.811417 +0530,
,Objects\018a.jpg,9,0,10,,,,,j,1.031012799940072,0.11963970004580915,None,,,,,,10,0,9,118.56247909995727,,,,,,,,,,,,,,,,,,,,,,,118.54595219995826,118.56247909995727,119.04742650000844,,,,,,,,,,,,,,,,,,,119.07038709998596,119.08090039994568,119.08090039994568,119.08090039994568,122.05807509995066,j,1.031012799940072,0.11963970004580915,122.05814490001649,122.05815820000134,None,,,,,,,,,,,,,,00038,001,2026-01-23_16h36.46.044,MST_task,2024.2.0,59.81236857759541,2026-01-23 16h36.58.811417 +0530,
,Objects\137a.jpg,10,0,11,,,,,f,1.7184755000052974,0.12040489993523806,None,,,,,,11,0,10,122.0747560999589,,,,,,,,,,,,,,,,,,,,,,,122.05826680001337,122.0747560999589,122.55987939995248,,,,,,,,,,,,,,,,,,,122.58008410001639,122.5931081000017,122.5931081000017,122.5931081000017,125.57024059991818,f,1.7184755000052974,0.12040489993523806,125.57029709999915,125.57030969997868,None,,,,,,,,,,,,,,00038,001,2026-01-23_16h36.46.044,MST_task,2024.2.0,59.81236857759541,2026-01-23 16h36.58.811417 +0530,
,Objects\071a.jpg,11,0,12,,,,,j,1.502231299993582,0.12882450001779944,None,,,,,,12,0,11,125.58920329995453,,,,,,,,,,,,,,,,,,,,,,,125.57037759991363,125.58920329995453,126.07207260001451,,,,,,,,,,,,,,,,,,,126.09319229994435,126.10550279996824,126.10550279996824,126.10550279996824,129.0827799999388,j,1.502231299993582,0.12882450001779944,129.08299929997884,129.0830130999675,None,,,,,,,,,,,,,,00038,001,2026-01-23_16h36.46.044,MST_task,2024.2.0,59.81236857759541,2026-01-23 16h36.58.811417 +0530,
,Objects\098a.jpg,12,0,13,,,,,f,1.2377908000489697,0.11300899996422231,None,,,,,,13,0,12,129.09925019997172,,,,,,,,,,,,,,,,,,,,,,,129.0831038999604,129.09925019997172,129.58443549997173,,,,,,,,,,,,,,,,,,,129.60520519991405,129.6176818999229,129.6176818999229,129.6176818999229,132.594883200014,f,1.2377908000489697,0.11300899996422231,132.5949413999915,132.59495479997713,None,,,,,,,,,,,,,,00038,001,2026-01-23_16h36.46.044,MST_task,2024.2.0,59.81236857759541,2026-01-23 16h36.58.811417 +0530,
,Objects\007a.jpg,13,0,14,,,,,f,0.8380838999291882,0.11138420004863292,None,,,,,,14,0,13,132.6116563999094,,,,,,,,,,,,,,,,,,,,,,,132.5950477999868,132.6116563999094,133.09663239994552,,,,,,,,,,,,,,,,,,,133.1176157000009,133.13010499998927,133.13010499998927,133.13010499998927,136.10729439998977,f,0.8380838999291882,0.11138420004863292,136.10738389997277,136.10739949997514,None,,,,,,,,,,,,,,00038,001,2026-01-23_16h36.46.044,MST_task,2024.2.0,59.81236857759541,2026-01-23 16h36.58.811417 +0530,
,Scenes\046a.jpg,14,0,15,,,,,j,0.6526319000404328,0.14337239996530116,None,,,,,,15,0,14,136.12412069994025,,,,,,,,,,,,,,,,,,,,,,,136.10747159994207,136.12412069994025,136.60909379995428,,,,,,,,,,,,,,,,,,,136.64092399994843,136.66065360000357,136.66065360000357,136.66065360000357,139.61942819994874,j,0.6526319000404328,0.14337239996530116,139.61950729996897,139.61952670000028,None,,,,,,,,,,,,,,00038,001,2026-01-23_16h36.46.044,MST_task,2024.2.0,59.81236857759541,2026-01-23 16h36.58.811417 +0530,
,Scenes\030a.jpg,15,0,16,,,,,j,0.6439547999761999,0.1366651999996975,None,,,,,,16,0,15,139.6362696000142,,,,,,,,,,,,,,,,,,,,,,,139.61990509997122,139.6362696000142,140.12126849999186,,,,,,,,,,,,,,,,,,,140.14759209996555,140.17166399990674,140.17166399990674,140.17166399990674,143.13215389999095,j,0.6439547999761999,0.1366651999996975,143.13221619999968,143.1322344999062,None,,,,,,,,,,,,,,00038,001,2026-01-23_16h36.46.044,MST_task,2024.2.0,59.81236857759541,2026-01-23 16h36.58.811417 +0530,
,Scenes\089a.jpg,16,0,17,,,,,j,1.212195900036022,0.12795090000145137,None,,,,,,17,0,16,143.148439600016,,,,,,,,,,,,,,,,,,,,,,,143.13230449997354,143.148439600016,143.63364539993927,,,,,,,,,,,,,,,,,,,143.6606159999501,143.68365619995166,143.68365619995166,143.68365619995166,146.6440513000125,j,1.212195900036022,0.12795090000145137,146.64410599996336,146.64411809993908,None,,,,,,,,,,,,,,00038,001,2026-01-23_16h36.46.044,MST_task,2024.2.0,59.81236857759541,2026-01-23 16h36.58.811417 +0530,
,Scenes\110a.jpg,17,0,18,,,,,j,0.6269522999646142,0.15197360003367066,None,,,,,,18,0,17,146.66086920001544,,,,,,,,,,,,,,,,,,,,,,,146.64418679999653,146.66086920001544,147.1458954999689,,,,,,,,,,,,,,,,,,,147.17118039994966,147.1969224999193,147.1969224999193,147.1969224999193,150.1565893999068,j,0.6269522999646142,0.15197360003367066,150.15664830000605,150.1566615999909,None,,,,,,,,,,,,,,00038,001,2026-01-23_16h36.46.044,MST_task,2024.2.0,59.81236857759541,2026-01-23 16h36.58.811417 +0530,
,Scenes\132a.jpg,18,0,19,,,,,j,1.30841080006212,0.12002269993536174,None,,,,,,19,0,18,150.17303479998372,,,,,,,,,,,,,,,,,,,,,,,150.15675769990776,150.17303479998372,150.658432599972,,,,,,,,,,,,,,,,,,,150.67920089990366,150.69175779994112,150.69175779994112,150.69175779994112,153.66872519999743,j,1.30841080006212,0.12002269993536174,153.66877839993685,153.6687903999118,None,,,,,,,,,,,,,,00038,001,2026-01-23_16h36.46.044,MST_task,2024.2.0,59.81236857759541,2026-01-23 16h36.58.811417 +0530,
,Scenes\119a.jpg,19,0,20,,,,,j,0.626184199936688,0.14405030000489205,None,,,,,,20,0,19,153.68534849991556,,,,,,,,,,,,,,,,,,,,,,,153.66888889996335,153.68534849991556,154.17067999998108,,,,,,,,,,,,,,,,,,,154.19572329998482,154.22153300000355,154.22153300000355,154.22153300000355,157.18091220001224,j,0.626184199936688,0.14405030000489205,157.18098279996775,157.1809955999488,None,,,,,,,,,,,,,,00038,001,2026-01-23_16h36.46.044,MST_task,2024.2.0,59.81236857759541,2026-01-23 16h36.58.811417 +0530,
,Scenes\020a.jpg,20,0,21,,,,,f,1.7783798000309616,0.1209840999217704,None,,,,,,21,0,20,157.19774929992855,,,,,,,,,,,,,,,,,,,,,,,157.18108609993942,157.19774929992855,157.68272509996314,,,,,,,,,,,,,,,,,,,157.71273649996147,157.73389239993412,157.73389239993412,157.73389239993412,160.69338959991,f,1.7783798000309616,0.1209840999217704,160.6934576999629,160.69347049994394,None,,,,,,,,,,,,,,00038,001,2026-01-23_16h36.46.044,MST_task,2024.2.0,59.81236857759541,2026-01-23 16h36.58.811417 +0530,
,Objects\147a.jpg,21,0,22,,,,,f,0.8424109000479802,0.10437409998849034,None,,,,,,22,0,21,160.71009419998154,,,,,,,,,,,,,,,,,,,,,,,160.69356039993,160.71009419998154,161.19522379990667,,,,,,,,,,,,,,,,,,,161.2175494999392,161.2295138000045,161.2295138000045,161.2295138000045,164.20566859992687,f,0.8424109000479802,0.10437409998849034,164.20612039999105,164.20613429998048,None,,,,,,,,,,,,,,00038,001,2026-01-23_16h36.46.044,MST_task,2024.2.0,59.81236857759541,2026-01-23 16h36.58.811417 +0530,
,Objects\177a.jpg,22,0,23,,,,,j,1.0347657999955118,0.13743890007026494,None,,,,,,23,0,22,164.22225659992546,,,,,,,,,,,,,,,,,,,,,,,164.20620649994817,164.22225659992546,164.7074327999726,,,,,,,,,,,,,,,,,,,164.73038199997973,164.7406855999725,164.7406855999725,164.7406855999725,167.7178333000047,j,1.0347657999955118,0.13743890007026494,167.71790529997088,167.71791849995498,None,,,,,,,,,,,,,,00038,001,2026-01-23_16h36.46.044,MST_task,2024.2.0,59.81236857759541,2026-01-23 16h36.58.811417 +0530,
,Objects\028a.jpg,23,0,24,,,,,f,1.1387081999564543,0.12038069998379797,None,,,,,,24,0,23,167.73478239995893,,,,,,,,,,,,,,,,,,,,,,,167.71801189996768,167.73478239995893,168.21961039991584,,,,,,,,,,,,,,,,,,,168.24519839999266,168.2531597999623,168.2531597999623,168.2531597999623,171.23018369998317,f,1.1387081999564543,0.12038069998379797,171.23025199992117,171.23026519990526,None,,,,,,,,,,,,,,00038,001,2026-01-23_16h36.46.044,MST_task,2024.2.0,59.81236857759541,2026-01-23 16h36.58.811417 +0530,
,Objects\149a.jpg,24,0,25,,,,,f,1.3063907999312505,0.120016900007613,None,,,,,,25,0,24,171.2469681999646,,,,,,,,,,,,,,,,,,,,,,,171.23035789991263,171.2469681999646,171.73208019998856,,,,,,,,,,,,,,,,,,,171.7562921999488,171.7653928999789,171.7653928999789,171.7653928999789,174.74253719998524,f,1.3063907999312505,0.120016900007613,174.7425920999376,174.74260509992018,None,,,,,,,,,,,,,,00038,001,2026-01-23_16h36.46.044,MST_task,2024.2.0,59.81236857759541,2026-01-23 16h36.58.811417 +0530,
,Objects\024a.jpg,25,0,26,,,,,f,0.6746964999474585,0.1117954000364989,None,,,,,,26,0,25,174.75915669999085,,,,,,,,,,,,,,,,,,,,,,,174.74274469993543,174.75915669999085,175.2443571999902,,,,,,,,,,,,,,,,,,,175.26658289995976,175.27757749997545,175.27757749997545,175.27757749997545,178.25473139993846,f,0.6746964999474585,0.1117954000364989,178.25478740001563,178.25480029999744,None,,,,,,,,,,,,,,00038,001,2026-01-23_16h36.46.044,MST_task,2024.2.0,59.81236857759541,2026-01-23 16h36.58.811417 +0530,
,Objects\056a.jpg,26,0,27,,,,,f,2.0425073999213055,0.13550540001597255,None,,,,,,27,0,26,178.27156049991027,,,,,,,,,,,,,,,,,,,,,,,178.2550404999638,178.27156049991027,178.75681940000504,,,,,,,,,,,,,,,,,,,178.77720859996043,178.79000689997338,178.79000689997338,178.79000689997338,181.7671556000132,f,2.0425073999213055,0.13550540001597255,181.76737459993456,181.7673881999217,None,,,,,,,,,,,,,,00038,001,2026-01-23_16h36.46.044,MST_task,2024.2.0,59.81236857759541,2026-01-23 16h36.58.811417 +0530,
,Objects\131a.jpg,27,0,28,,,,,f,0.809562100097537,0.13670149992685765,None,,,,,,28,0,27,181.78373829997145,,,,,,,,,,,,,,,,,,,,,,,181.76746209990233,181.78373829997145,182.26934379991144,,,,,,,,,,,,,,,,,,,182.29190780001227,182.30231840000488,182.30231840000488,182.30231840000488,185.27935229998548,f,0.809562100097537,0.13670149992685765,185.27942019992042,185.27943280001637,None,,,,,,,,,,,,,,00038,001,2026-01-23_16h36.46.044,MST_task,2024.2.0,59.81236857759541,2026-01-23 16h36.58.811417 +0530,
,Scenes\190a.jpg,28,0,29,,,,,j,1.4078653000760823,0.14362570003140718,None,,,,,,29,0,28,185.29615569999442,,,,,,,,,,,,,,,,,,,,,,,185.2798291000072,185.29615569999442,185.7811200999422,,,,,,,,,,,,,,,,,,,185.80861249996815,185.83222460001707,185.83222460001707,185.83222460001707,188.79163699992932,j,1.4078653000760823,0.14362570003140718,188.7917467999505,188.79176319995895,None,,,,,,,,,,,,,,00038,001,2026-01-23_16h36.46.044,MST_task,2024.2.0,59.81236857759541,2026-01-23 16h36.58.811417 +0530,
,Scenes\117a.jpg,29,0,30,,,,,j,0.5365996999898925,0.15335809998214245,None,,,,,,30,0,29,188.80870389996562,,,,,,,,,,,,,,,,,,,,,,,188.79183659993578,188.80870389996562,189.29341939999722,,,,,,,,,,,,,,,,,,,189.31427679990884,189.32746609998867,189.32746609998867,189.32746609998867,192.30406210001092,j,0.5365996999898925,0.15335809998214245,192.30412019998766,192.3041337999748,None,,,,,,,,,,,,,,00038,001,2026-01-23_16h36.46.044,MST_task,2024.2.0,59.81236857759541,2026-01-23 16h36.58.811417 +0530,
,Scenes\079a.jpg,30,0,31,,,,,j,0.8016137999948114,0.15066630009096116,None,,,,,,31,0,30,192.32075819990132,,,,,,,,,,,,,,,,,,,,,,,192.30422659998294,192.32075819990132,192.80572459998075,,,,,,,,,,,,,,,,,,,192.817383699934,192.8393001999939,192.8393001999939,192.8393001999939,195.81664099998306,j,0.8016137999948114,0.15066630009096116,195.81670369999483,195.81672479992267,None,,,,,,,,,,,,,,00038,001,2026-01-23_16h36.46.044,MST_task,2024.2.0,59.81236857759541,2026-01-23 16h36.58.811417 +0530,
,Scenes\163a.jpg,31,0,32,,,,,j,0.5525846000527963,0.1592277999734506,None,,,,,,32,0,31,195.83294599992223,,,,,,,,,,,,,,,,,,,,,,,195.81681669992395,195.83294599992223,196.31835929991212,,,,,,,,,,,,,,,,,,,196.33896829991136,196.35161539993715,196.35161539993715,196.35161539993715,199.32865469995886,j,0.5525846000527963,0.1592277999734506,199.32871999999043,199.32873239996843,None,,,,,,,,,,,,,,00038,001,2026-01-23_16h36.46.044,MST_task,2024.2.0,59.81236857759541,2026-01-23 16h36.58.811417 +0530,
,Scenes\009a.jpg,32,0,33,,,,,j,1.2460962999612093,0.17623590002767742,None,,,,,,33,0,32,199.34525349992327,,,,,,,,,,,,,,,,,,,,,,,199.32882449997123,199.34525349992327,199.83062679995783,,,,,,,,,,,,,,,,,,,199.85960879991762,199.8816347999964,199.8816347999964,199.8816347999964,202.84084199997596,j,1.2460962999612093,0.17623590002767742,202.84090389998164,202.84091659996193,None,,,,,,,,,,,,,,00038,001,2026-01-23_16h36.46.044,MST_task,2024.2.0,59.81236857759541,2026-01-23 16h36.58.811417 +0530,
,Scenes\159a.jpg,33,0,34,,,,,j,0.6547345999861136,0.16143350000493228,None,,,,,,34,0,33,202.85765559994616,,,,,,,,,,,,,,,,,,,,,,,202.8409872999182,202.85765559994616,203.34273829997983,,,,,,,,,,,,,,,,,,,203.36876499990467,203.39293059997726,203.39293059997726,203.39293059997726,206.35413459991105,j,0.6547345999861136,0.16143350000493228,206.35418929997832,206.35420179995708,None,,,,,,,,,,,,,,00038,001,2026-01-23_16h36.46.044,MST_task,2024.2.0,59.81236857759541,2026-01-23 16h36.58.811417 +0530,
,Scenes\011a.jpg,34,0,35,,,,,j,0.7656833999790251,0.1683889999985695,None,,,,,,35,0,34,206.3702675999375,,,,,,,,,,,,,,,,,,,,,,,206.35431099997368,206.3702675999375,206.85548809997272,,,,,,,,,,,,,,,,,,,206.88534449995495,206.90625809994526,206.90625809994526,206.90625809994526,209.86554399994202,j,0.7656833999790251,0.1683889999985695,209.86559880001005,209.86561199999414,None,,,,,,,,,,,,,,00038,001,2026-01-23_16h36.46.044,MST_task,2024.2.0,59.81236857759541,2026-01-23 16h36.58.811417 +0530,
,Objects\084a.jpg,35,0,36,,,,,f,1.1267881999956444,0.11232549999840558,None,,,,,,36,0,35,209.88259079994168,,,,,,,,,,,,,,,,,,,,,,,209.86573159997351,209.88259079994168,210.3673240999924,,,,,,,,,,,,,,,,,,,210.3917943999404,210.40160859993193,210.40160859993193,210.40160859993193,213.37790389999282,f,1.1267881999956444,0.11232549999840558,213.37796259997413,213.37800139992032,None,,,,,,,,,,,,,,00038,001,2026-01-23_16h36.46.044,MST_task,2024.2.0,59.81236857759541,2026-01-23 16h36.58.811417 +0530,
,Objects\072a.jpg,36,0,37,,,,,f,0.7272274999413639,0.1274080000584945,None,,,,,,37,0,36,213.39443829993252,,,,,,,,,,,,,,,,,,,,,,,213.37809569993988,213.39443829993252,213.87963270000182,,,,,,,,,,,,,,,,,,,213.9024559999816,213.91295389994048,213.91295389994048,213.91295389994048,216.8900065999478,f,0.7272274999413639,0.1274080000584945,216.89007269998547,216.89034249994438,None,,,,,,,,,,,,,,00038,001,2026-01-23_16h36.46.044,MST_task,2024.2.0,59.81236857759541,2026-01-23 16h36.58.811417 +0530,
,Objects\104a.jpg,37,0,38,,,,,f,0.8146166999358684,0.12772880005650222,None,,,,,,38,0,37,216.906843499979,,,,,,,,,,,,,,,,,,,,,,,216.89057599997614,216.906843499979,217.39190339995548,,,,,,,,,,,,,,,,,,,217.41284859995358,217.4252981999889,217.4252981999889,217.4252981999889,220.4024500999367,f,0.8146166999358684,0.12772880005650222,220.40250789991114,220.40252040000632,None,,,,,,,,,,,,,,00038,001,2026-01-23_16h36.46.044,MST_task,2024.2.0,59.81236857759541,2026-01-23 16h36.58.811417 +0530,
,Objects\067a.jpg,38,0,39,,,,,f,1.0792788000544533,0.11957540002185851,None,,,,,,39,0,38,220.41902919998392,,,,,,,,,,,,,,,,,,,,,,,220.4026158999186,220.41902919998392,220.90416769997682,,,,,,,,,,,,,,,,,,,220.9258717999328,220.93765390000772,220.93765390000772,220.93765390000772,223.91472829994746,f,1.0792788000544533,0.11957540002185851,223.91505979991052,223.91507499990985,None,,,,,,,,,,,,,,00038,001,2026-01-23_16h36.46.044,MST_task,2024.2.0,59.81236857759541,2026-01-23 16h36.58.811417 +0530,
,Objects\001a.jpg,39,0,40,,,,,f,1.0154086999827996,0.1111233999254182,None,,,,,,40,0,39,223.93133729998954,,,,,,,,,,,,,,,,,,,,,,,223.91515369992703,223.93133729998954,224.41653679998126,,,,,,,,,,,,,,,,,,,224.43700769997668,224.44977519998793,224.44977519998793,224.44977519998793,227.4270991999656,f,1.0154086999827996,0.1111233999254182,227.42715599993244,227.42716839991044,None,,,,,,,,,,,,,,00038,001,2026-01-23_16h36.46.044,MST_task,2024.2.0,59.81236857759541,2026-01-23 16h36.58.811417 +0530,
,Objects\119a.jpg,40,0,41,,,,,f,1.1336240000091493,0.11983380001038313,None,,,,,,41,0,40,227.44391609996092,,,,,,,,,,,,,,,,,,,,,,,227.42723729996942,227.44391609996092,227.92871939996257,,,,,,,,,,,,,,,,,,,227.95144129998516,227.96223259996623,227.96223259996623,227.96223259996623,230.94082599994726,f,1.1336240000091493,0.11983380001038313,230.94091070001014,230.94092520000413,None,,,,,,,,,,,,,,00038,001,2026-01-23_16h36.46.044,MST_task,2024.2.0,59.81236857759541,2026-01-23 16h36.58.811417 +0530,
,Objects\188a.jpg,41,0,42,,,,,f,0.702403400093317,0.12047799990978092,None,,,,,,42,0,41,230.95620179991238,,,,,,,,,,,,,,,,,,,,,,,230.94102999998722,230.95620179991238,231.44133149995469,,,,,,,,,,,,,,,,,,,231.46471430000383,231.4743604999967,231.4743604999967,231.4743604999967,234.45216089999303,f,0.702403400093317,0.12047799990978092,234.45222119998652,234.45223409996834,None,,,,,,,,,,,,,,00038,001,2026-01-23_16h36.46.044,MST_task,2024.2.0,59.81236857759541,2026-01-23 16h36.58.811417 +0530,
,Scenes\146a.jpg,42,0,43,,,,,j,0.5874468999681994,0.15233770001213998,None,,,,,,43,0,42,234.46836790000089,,,,,,,,,,,,,,,,,,,,,,,234.45233130000997,234.46836790000089,234.95330389996525,,,,,,,,,,,,,,,,,,,234.98040269990452,235.00447849999182,235.00447849999182,235.00447849999182,237.96380039991345,j,0.5874468999681994,0.15233770001213998,237.9638548999792,237.9638690999709,None,,,,,,,,,,,,,,00038,001,2026-01-23_16h36.46.044,MST_task,2024.2.0,59.81236857759541,2026-01-23 16h36.58.811417 +0530,
,Scenes\177a.jpg,43,0,44,,,,,j,0.5411773000378162,0.159626999986358,None,,,,,,44,0,43,237.9807986000087,,,,,,,,,,,,,,,,,,,,,,,237.96396079997066,237.9807986000087,238.4656749999849,,,,,,,,,,,,,,,,,,,238.4885353000136,238.49865879991557,238.49865879991557,238.49865879991557,241.4761822000146,j,0.5411773000378162,0.159626999986358,241.4762356999563,241.47626069991384,None,,,,,,,,,,,,,,00038,001,2026-01-23_16h36.46.044,MST_task,2024.2.0,59.81236857759541,2026-01-23 16h36.58.811417 +0530,
,Scenes\026a.jpg,44,0,45,,,,,j,0.587431599968113,0.18377300002612174,None,,,,,,45,0,44,241.4929465999594,,,,,,,,,,,,,,,,,,,,,,,241.47633279999718,241.4929465999594,241.97793359996285,,,,,,,,,,,,,,,,,,,242.0176675999537,242.02854039997328,242.02854039997328,242.02854039997328,244.98867069999687,j,0.587431599968113,0.18377300002612174,244.98873450001702,244.98874830000568,None,,,,,,,,,,,,,,00038,001,2026-01-23_16h36.46.044,MST_task,2024.2.0,59.81236857759541,2026-01-23 16h36.58.811417 +0530,
,Scenes\038a.jpg,45,0,46,,,,,j,0.6037998999236152,0.16656260006129742,None,,,,,,46,0,45,245.00528259994462,,,,,,,,,,,,,,,,,,,,,,,244.9888268999057,245.00528259994462,245.49051969998982,,,,,,,,,,,,,,,,,,,245.51675860001706,245.54131479992066,245.54131479992066,245.54131479992066,248.50073669990525,j,0.6037998999236152,0.16656260006129742,248.50079229997937,248.50080519996118,None,,,,,,,,,,,,,,00038,001,2026-01-23_16h36.46.044,MST_task,2024.2.0,59.81236857759541,2026-01-23 16h36.58.811417 +0530,
,Scenes\095a.jpg,46,0,47,,,,,j,0.6108228000812232,0.1524716999847442,None,,,,,,47,0,46,248.51755519991275,,,,,,,,,,,,,,,,,,,,,,,248.5010485999519,248.51755519991275,249.0026800999185,,,,,,,,,,,,,,,,,,,249.0260327999713,249.05260870000347,249.05260870000347,249.05260870000347,252.01313979993574,j,0.6108228000812232,0.1524716999847442,252.01323319994844,252.01325019996148,None,,,,,,,,,,,,,,00038,001,2026-01-23_16h36.46.044,MST_task,2024.2.0,59.81236857759541,2026-01-23 16h36.58.811417 +0530,
,Scenes\066a.jpg,47,0,48,,,,,j,0.635210599983111,0.1276318000163883,None,,,,,,48,0,47,252.02972140000202,,,,,,,,,,,,,,,,,,,,,,,252.01336179999635,252.02972140000202,252.51512679993175,,,,,,,,,,,,,,,,,,,252.5407613000134,252.54928069992457,252.54928069992457,252.54928069992457,255.5253160999855,j,0.635210599983111,0.1276318000163883,255.52538789995015,255.52540139993653,None,,,,,,,,,,,,,,00038,001,2026-01-23_16h36.46.044,MST_task,2024.2.0,59.81236857759541,2026-01-23 16h36.58.811417 +0530,
,Scenes\040a.jpg,48,0,49,,,,,j,0.5293940000701696,0.1364064000081271,None,,,,,,49,0,48,255.54215829994064,,,,,,,,,,,,,,,,,,,,,,,255.52576449990738,255.54215829994064,256.027238199953,,,,,,,,,,,,,,,,,,,256.051163099939,256.0783455999335,256.0783455999335,256.0783455999335,259.0376220999751,j,0.5293940000701696,0.1364064000081271,259.03767819993664,259.0376917999238,None,,,,,,,,,,,,,,00038,001,2026-01-23_16h36.46.044,MST_task,2024.2.0,59.81236857759541,2026-01-23 16h36.58.811417 +0530,
,Objects\185a.jpg,49,0,50,,,,,f,0.9070077000651509,0.12810069997794926,None,,,,,,50,0,49,259.05453109997325,,,,,,,,,,,,,,,,,,,,,,,259.0380686999997,259.05453109997325,259.5394147000043,,,,,,,,,,,,,,,,,,,259.5622919999296,259.57277470000554,259.57277470000554,259.57277470000554,262.54994910000823,f,0.9070077000651509,0.12810069997794926,262.550019999966,262.55003289994784,None,,,,,,,,,,,,,,00038,001,2026-01-23_16h36.46.044,MST_task,2024.2.0,59.81236857759541,2026-01-23 16h36.58.811417 +0530,
,Objects\078a.jpg,50,0,51,,,,,f,1.9864165000617504,0.12904349993914366,None,,,,,,51,0,50,262.56674139993265,,,,,,,,,,,,,,,,,,,,,,,262.55050299991854,262.56674139993265,263.05171869997866,,,,,,,,,,,,,,,,,,,263.07242609991226,263.08517819992267,263.08517819992267,263.08517819992267,266.06352779990993,f,1.9864165000617504,0.12904349993914366,266.0635880999034,266.06360200000927,None,,,,,,,,,,,,,,00038,001,2026-01-23_16h36.46.044,MST_task,2024.2.0,59.81236857759541,2026-01-23 16h36.58.811417 +0530,
,Objects\054a.jpg,51,0,52,,,,,f,0.8262154000112787,0.12818170001264662,None,,,,,,52,0,51,266.07970979996026,,,,,,,,,,,,,,,,,,,,,,,266.0636748999823,266.07970979996026,266.5642517999513,,,,,,,,,,,,,,,,,,,266.58564189996105,266.59736629994586,266.59736629994586,266.59736629994586,269.5745304999873,f,0.8262154000112787,0.12818170001264662,269.57462709990796,269.5746452999301,None,,,,,,,,,,,,,,00038,001,2026-01-23_16h36.46.044,MST_task,2024.2.0,59.81236857759541,2026-01-23 16h36.58.811417 +0530,
,Objects\127a.jpg,52,0,53,,,,,f,1.4824434000765905,0.13575299992226064,None,,,,,,53,0,52,269.5913430999499,,,,,,,,,,,,,,,,,,,,,,,269.5747537999414,269.5913430999499,270.07630630000494,,,,,,,,,,,,,,,,,,,270.09994400001597,270.1100667999126,270.1100667999126,270.1100667999126,273.0869348999113,f,1.4824434000765905,0.13575299992226064,273.0870160999475,273.0870292999316,None,,,,,,,,,,,,,,00038,001,2026-01-23_16h36.46.044,MST_task,2024.2.0,59.81236857759541,2026-01-23 16h36.58.811417 +0530,
,Objects\159a.jpg,53,0,54,,,,,f,0.6664346000179648,0.14342119998764247,None,,,,,,54,0,53,273.10352949996013,,,,,,,,,,,,,,,,,,,,,,,273.0871029999107,273.10352949996013,273.5887254999252,,,,,,,,,,,,,,,,,,,273.60930939996615,273.6220082999207,273.6220082999207,273.6220082999207,276.5991006999975,f,0.6664346000179648,0.14342119998764247,276.59918909997214,276.5992028999608,None,,,,,,,,,,,,,,00038,001,2026-01-23_16h36.46.044,MST_task,2024.2.0,59.81236857759541,2026-01-23 16h36.58.811417 +0530,
,Objects\046a.jpg,54,0,55,,,,,f,1.5141273000044748,0.12765989999752492,None,,,,,,55,0,54,276.6159493000014,,,,,,,,,,,,,,,,,,,,,,,276.5995607000077,276.6159493000014,277.10095409990754,,,,,,,,,,,,,,,,,,,277.1213642999064,277.13439209992066,277.13439209992066,277.13439209992066,280.1115399999544,f,1.5141273000044748,0.12765989999752492,280.11177139997017,280.1117849999573,None,,,,,,,,,,,,,,00038,001,2026-01-23_16h36.46.044,MST_task,2024.2.0,59.81236857759541,2026-01-23 16h36.58.811417 +0530,
,Objects\126a.jpg,55,0,56,,,,,f,2.113117799977772,0.18399749998934567,None,,,,,,56,0,55,280.12813620001543,,,,,,,,,,,,,,,,,,,,,,,280.111853600014,280.12813620001543,280.61333829991054,,,,,,,,,,,,,,,,,,,280.6359489999013,280.6469999999972,280.6469999999972,280.6469999999972,283.62385699991137,f,2.113117799977772,0.18399749998934567,283.6241078999592,283.62417269998696,None,,,,,,,,,,,,,,00038,001,2026-01-23_16h36.46.044,MST_task,2024.2.0,59.81236857759541,2026-01-23 16h36.58.811417 +0530,
,Scenes\130a.jpg,56,0,57,,,,,j,0.575269200024195,0.17609159997664392,None,,,,,,57,0,56,283.64056610001717,,,,,,,,,,,,,,,,,,,,,,,283.6244305999717,283.64056610001717,284.12551549996715,,,,,,,,,,,,,,,,,,,284.15225819998886,284.1764764999971,284.1764764999971,284.1764764999971,287.13602239999454,j,0.575269200024195,0.17609159997664392,287.1360772999469,287.1360897999257,None,,,,,,,,,,,,,,00038,001,2026-01-23_16h36.46.044,MST_task,2024.2.0,59.81236857759541,2026-01-23 16h36.58.811417 +0530,
,Scenes\154a.jpg,57,0,58,,,,,j,0.7115332001121715,0.1510914999525994,None,,,,,,58,0,57,287.15285279997624,,,,,,,,,,,,,,,,,,,,,,,287.13615789997857,287.15285279997624,287.63826939999126,,,,,,,,,,,,,,,,,,,287.66266729997005,287.68880719994195,287.68880719994195,287.68880719994195,290.6483813999221,j,0.7115332001121715,0.1510914999525994,290.6484413999133,290.6484552999027,None,,,,,,,,,,,,,,00038,001,2026-01-23_16h36.46.044,MST_task,2024.2.0,59.81236857759541,2026-01-23 16h36.58.811417 +0530,
,Scenes\031a.jpg,58,0,59,,,,,j,1.199869400006719,0.1671986998990178,None,,,,,,59,0,58,290.665153299924,,,,,,,,,,,,,,,,,,,,,,,290.648551799939,290.665153299924,291.15021230001,,,,,,,,,,,,,,,,,,,291.1761056999676,291.20102519996,291.20102519996,291.20102519996,294.16154909995385,j,1.199869400006719,0.1671986998990178,294.1616216999246,294.1616350999102,None,,,,,,,,,,,,,,00038,001,2026-01-23_16h36.46.044,MST_task,2024.2.0,59.81236857759541,2026-01-23 16h36.58.811417 +0530,
,Scenes\092a.jpg,59,0,60,,,,,j,0.791864899918437,0.15929400001186877,None,,,,,,60,0,59,294.17735209991224,,,,,,,,,,,,,,,,,,,,,,,294.16173589997925,294.17735209991224,294.66253789991606,,,,,,,,,,,,,,,,,,,294.68667039996944,294.7126297999639,294.7126297999639,294.7126297999639,297.67310299992096,j,0.791864899918437,0.15929400001186877,297.673157799989,297.67317109997384,None,,,,,,,,,,,,,,00038,001,2026-01-23_16h36.46.044,MST_task,2024.2.0,59.81236857759541,2026-01-23 16h36.58.811417 +0530,
,Scenes\001a.jpg,60,0,61,,,,,f,1.0304311000509188,0.1442069000331685,None,,,,,,61,0,60,297.68992069992237,,,,,,,,,,,,,,,,,,,,,,,297.6732692999067,297.68992069992237,298.1757561999839,,,,,,,,,,,,,,,,,,,298.2088709999807,298.22534219990484,298.22534219990484,298.22534219990484,301.18538609996904,f,1.0304311000509188,0.1442069000331685,301.18543949991,301.1854656999931,None,,,,,,,,,,,,,,00038,001,2026-01-23_16h36.46.044,MST_task,2024.2.0,59.81236857759541,2026-01-23 16h36.58.811417 +0530,
,Scenes\114a.jpg,61,0,62,,,,,f,1.4778367000399157,0.1442069000331685,None,,,,,,62,0,61,301.2022183999652,,,,,,,,,,,,,,,,,,,,,,,301.1857974999584,301.2022183999652,301.68717980000656,,,,,,,,,,,,,,,,,,,301.71394509996753,301.73818669992033,301.73818669992033,301.73818669992033,304.69790479994845,f,1.4778367000399157,0.1442069000331685,304.6979617999168,304.6979740000097,None,,,,,,,,,,,,,,00038,001,2026-01-23_16h36.46.044,MST_task,2024.2.0,59.81236857759541,2026-01-23 16h36.58.811417 +0530,
,Scenes\058a.jpg,62,0,63,,,,,f,0.6800493999617174,0.15901099995244294,None,,,,,,63,0,62,304.71442809992004,,,,,,,,,,,,,,,,,,,,,,,304.69806389999576,304.71442809992004,305.19960279995576,,,,,,,,,,,,,,,,,,,305.2144913999364,305.23285669996403,305.23285669996403,305.23285669996403,308.2099346999312,f,0.6800493999617174,0.15901099995244294,308.2101550999796,308.21016839996446,None,,,,,,,,,,,,,,00038,001,2026-01-23_16h36.46.044,MST_task,2024.2.0,59.81236857759541,2026-01-23 16h36.58.811417 +0530,
,Objects\010a.jpg,63,0,64,,,,,f,0.9974461999954656,0.136069200001657,None,,,,,,64,0,63,308.22652249992825,,,,,,,,,,,,,,,,,,,,,,,308.21026700001676,308.22652249992825,308.7117478,,,,,,,,,,,,,,,,,,,308.7334280000068,308.7460957999574,308.7460957999574,308.7460957999574,311.72234330000356,f,0.9974461999954656,0.136069200001657,311.72240069997497,311.72241389995907,None,,,,,,,,,,,,,,00038,001,2026-01-23_16h36.46.044,MST_task,2024.2.0,59.81236857759541,2026-01-23 16h36.58.811417 +0530,
,Objects\077a.jpg,64,0,65,,,,,j,1.0709170000627637,0.14296829991508275,None,,,,,,65,0,64,311.7388259000145,,,,,,,,,,,,,,,,,,,,,,,311.72248579992447,311.7388259000145,312.2240343999583,,,,,,,,,,,,,,,,,,,312.2460255000042,312.25745429995004,312.25745429995004,312.25745429995004,315.2344114999287,j,1.0709170000627637,0.14296829991508275,315.2344659999944,315.2344784999732,None,,,,,,,,,,,,,,00038,001,2026-01-23_16h36.46.044,MST_task,2024.2.0,59.81236857759541,2026-01-23 16h36.58.811417 +0530,
,Objects\016a.jpg,65,0,66,,,,,f,0.910399500047788,0.12819870002567768,None,,,,,,66,0,65,315.2512410999043,,,,,,,,,,,,,,,,,,,,,,,315.23475979990326,315.2512410999043,315.73638519993983,,,,,,,,,,,,,,,,,,,315.7597456999356,315.76998619991355,315.76998619991355,315.76998619991355,318.7468137999531,f,0.910399500047788,0.12819870002567768,318.74704699998256,318.74706149997655,None,,,,,,,,,,,,,,00038,001,2026-01-23_16h36.46.044,MST_task,2024.2.0,59.81236857759541,2026-01-23 16h36.58.811417 +0530,
,Objects\153a.jpg,66,0,67,,,,,f,0.6859045999590307,0.1519362999824807,None,,,,,,67,0,66,318.7634128999198,,,,,,,,,,,,,,,,,,,,,,,318.7471629999345,318.7634128999198,319.2486199999694,,,,,,,,,,,,,,,,,,,319.2711978999432,319.2820106999716,319.2820106999716,319.2820106999716,322.25932459998876,f,0.6859045999590307,0.1519362999824807,322.2593947999412,322.2594077999238,None,,,,,,,,,,,,,,00038,001,2026-01-23_16h36.46.044,MST_task,2024.2.0,59.81236857759541,2026-01-23 16h36.58.811417 +0530,
,Objects\047a.jpg,67,0,68,,,,,f,0.5895725000882521,0.13719079992733896,None,,,,,,68,0,67,322.2758407999063,,,,,,,,,,,,,,,,,,,,,,,322.2594783999957,322.2758407999063,322.7608516999753,,,,,,,,,,,,,,,,,,,322.78297820000444,322.7942799999146,322.7942799999146,322.7942799999146,325.77136939996853,f,0.5895725000882521,0.13719079992733896,325.77142859995365,325.77144229994155,None,,,,,,,,,,,,,,00038,001,2026-01-23_16h36.46.044,MST_task,2024.2.0,59.81236857759541,2026-01-23 16h36.58.811417 +0530,
,Objects\061a.jpg,68,0,69,,,,,j,1.293972700019367,0.16680010000709444,None,,,,,,69,0,68,325.7881571999751,,,,,,,,,,,,,,,,,,,,,,,325.7715431000106,325.7881571999751,326.2737454000162,,,,,,,,,,,,,,,,,,,326.2950910999207,326.3065714999102,326.3065714999102,326.3065714999102,329.28372790000867,j,1.293972700019367,0.16680010000709444,329.28418039996177,329.28419469995424,None,,,,,,,,,,,,,,00038,001,2026-01-23_16h36.46.044,MST_task,2024.2.0,59.81236857759541,2026-01-23 16h36.58.811417 +0530,
,Objects\168a.jpg,69,0,70,,,,,f,2.7488007000647485,0.1359647000208497,None,,,,,,70,0,69,329.30031259998213,,,,,,,,,,,,,,,,,,,,,,,329.28428859997075,329.30031259998213,329.78553019999526,,,,,,,,,,,,,,,,,,,329.80553779995535,329.81875559990294,329.81875559990294,329.81875559990294,332.79609889991116,f,2.7488007000647485,0.1359647000208497,332.7961530999746,332.7961655999534,None,,,,,,,,,,,,,,00038,001,2026-01-23_16h36.46.044,MST_task,2024.2.0,59.81236857759541,2026-01-23 16h36.58.811417 +0530,
,Scenes\178a.jpg,70,0,71,,,,,j,0.7888596999691799,0.1443048999644816,None,,,,,,71,0,70,332.8127368999412,,,,,,,,,,,,,,,,,,,,,,,332.79626059997827,332.8127368999412,333.2977186999051,,,,,,,,,,,,,,,,,,,333.31900859996676,333.3311787999701,333.3311787999701,333.3311787999701,336.30888259992935,j,0.7888596999691799,0.1443048999644816,336.30893719999585,336.30894989997614,None,,,,,,,,,,,,,,00038,001,2026-01-23_16h36.46.044,MST_task,2024.2.0,59.81236857759541,2026-01-23 16h36.58.811417 +0530,
,Scenes\012a.jpg,71,0,72,,,,,j,0.6358687999891117,0.18355300009716302,None,,,,,,72,0,71,336.32547449995764,,,,,,,,,,,,,,,,,,,,,,,336.30903319991194,336.32547449995764,336.81030070001725,,,,,,,,,,,,,,,,,,,336.83599709998816,336.86036759999115,336.86036759999115,336.86036759999115,339.8205289999023,j,0.6358687999891117,0.18355300009716302,339.8205885000061,339.8206014999887,None,,,,,,,,,,,,,,00038,001,2026-01-23_16h36.46.044,MST_task,2024.2.0,59.81236857759541,2026-01-23 16h36.58.811417 +0530,
,Scenes\080a.jpg,72,0,73,,,,,j,0.6043657000409439,0.16847679996863008,None,,,,,,73,0,72,339.8373389999615,,,,,,,,,,,,,,,,,,,,,,,339.8207275000168,339.8373389999615,340.32230629993137,,,,,,,,,,,,,,,,,,,340.34412579995114,340.35564809991047,340.35564809991047,340.35564809991047,343.33299879997503,j,0.6043657000409439,0.16847679996863008,343.33305489993654,343.3330679999199,None,,,,,,,,,,,,,,00038,001,2026-01-23_16h36.46.044,MST_task,2024.2.0,59.81236857759541,2026-01-23 16h36.58.811417 +0530,
,Scenes\128a.jpg,73,0,74,,,,,j,0.5558949999976903,0.15144160005729645,None,,,,,,74,0,73,343.3496261999244,,,,,,,,,,,,,,,,,,,,,,,343.33316409995314,343.3496261999244,343.83521679998375,,,,,,,,,,,,,,,,,,,343.8618095999118,343.8846977999201,343.8846977999201,343.8846977999201,346.8452236999292,j,0.5558949999976903,0.15144160005729645,346.8455517999828,346.8455649999669,None,,,,,,,,,,,,,,00038,001,2026-01-23_16h36.46.044,MST_task,2024.2.0,59.81236857759541,2026-01-23 16h36.58.811417 +0530,
,Scenes\174a.jpg,74,0,75,,,,,j,0.5316572999581695,0.12764069996774197,None,,,,,,75,0,74,346.86181799997576,,,,,,,,,,,,,,,,,,,,,,,346.8456627000123,346.86181799997576,347.3471369999461,,,,,,,,,,,,,,,,,,,347.37171089998446,347.3971037999727,347.3971037999727,347.3971037999727,350.3574038000079,j,0.5316572999581695,0.12764069996774197,350.35746929992456,350.3574839999201,None,,,,,,,,,,,,,,00038,001,2026-01-23_16h36.46.044,MST_task,2024.2.0,59.81236857759541,2026-01-23 16h36.58.811417 +0530,
,Scenes\140a.jpg,75,0,76,,,,,j,0.5305432999739423,0.16812260006554425,None,,,,,,76,0,75,350.37423969991505,,,,,,,,,,,,,,,,,,,,,,,350.35782999999356,350.37423969991505,350.85920259996783,,,,,,,,,,,,,,,,,,,350.88124029990286,350.8934106999077,350.8934106999077,350.8934106999077,353.86970609996933,j,0.5305432999739423,0.16812260006554425,353.8697842999827,353.86980049998965,None,,,,,,,,,,,,,,00038,001,2026-01-23_16h36.46.044,MST_task,2024.2.0,59.81236857759541,2026-01-23 16h36.58.811417 +0530,
,Scenes\170a.jpg,76,0,77,,,,,j,0.7460155000444502,0.18520800000987947,None,,,,,,77,0,76,353.8866125999484,,,,,,,,,,,,,,,,,,,,,,,353.8700512999203,353.8866125999484,354.371612799936,,,,,,,,,,,,,,,,,,,354.3992792000063,354.4215771999443,354.4215771999443,354.4215771999443,357.3821154999314,j,0.7460155000444502,0.18520800000987947,357.38220799993724,357.3822256999556,None,,,,,,,,,,,,,,00038,001,2026-01-23_16h36.46.044,MST_task,2024.2.0,59.81236857759541,2026-01-23 16h36.58.811417 +0530,
,Objects\035a.jpg,77,0,78,,,,,j,0.6502637999365106,0.15942220005672425,None,,,,,,78,0,77,357.39882180001587,,,,,,,,,,,,,,,,,,,,,,,357.38235209998675,357.39882180001587,357.8840378000168,,,,,,,,,,,,,,,,,,,357.9084131999407,357.91803229996003,357.91803229996003,357.91803229996003,360.894300499931,j,0.6502637999365106,0.15942220005672425,360.8943539999891,360.8943660999648,None,,,,,,,,,,,,,,00038,001,2026-01-23_16h36.46.044,MST_task,2024.2.0,59.81236857759541,2026-01-23 16h36.58.811417 +0530,
,Objects\057a.jpg,78,0,79,,,,,f,0.9458029000088573,0.1613022000528872,None,,,,,,79,0,78,360.9111373999622,,,,,,,,,,,,,,,,,,,,,,,360.89469879993703,360.9111373999622,361.3962380000157,,,,,,,,,,,,,,,,,,,361.4189996999921,361.42958230001386,361.42958230001386,361.42958230001386,364.4069402999012,f,0.9458029000088573,0.1613022000528872,364.4070051999297,364.40701829991303,None,,,,,,,,,,,,,,00038,001,2026-01-23_16h36.46.044,MST_task,2024.2.0,59.81236857759541,2026-01-23 16h36.58.811417 +0530,
,Objects\165a.jpg,79,0,80,,,,,f,1.025941799976863,0.13677590002771467,None,,,,,,80,0,79,364.42331569991075,,,,,,,,,,,,,,,,,,,,,,,364.4070882999804,364.42331569991075,364.9085841999622,,,,,,,,,,,,,,,,,,,364.93337959994096,364.9420198999578,364.9420198999578,364.9420198999578,367.9190097999526,f,1.025941799976863,0.13677590002771467,367.9190768999979,367.91909019998275,None,,,,,,,,,,,,,,00038,001,2026-01-23_16h36.46.044,MST_task,2024.2.0,59.81236857759541,2026-01-23 16h36.58.811417 +0530,
,Objects\099a.jpg,80,0,81,,,,,j,2.233121299999766,0.1605301999952644,None,,,,,,81,0,80,367.9358733999543,,,,,,,,,,,,,,,,,,,,,,,367.91947540000547,367.9358733999543,368.4207033999264,,,,,,,,,,,,,,,,,,,368.44269199995324,368.45417479996104,368.45417479996104,368.45417479996104,371.4314779000124,j,2.233121299999766,0.1605301999952644,371.43154139991384,371.4315542000113,None,,,,,,,,,,,,,,00038,001,2026-01-23_16h36.46.044,MST_task,2024.2.0,59.81236857759541,2026-01-23 16h36.58.811417 +0530,
,Objects\030a.jpg,81,0,82,,,,,f,1.2340918000554666,0.14478969993069768,None,,,,,,82,0,81,371.44793189992197,,,,,,,,,,,,,,,,,,,,,,,371.43162469996605,371.44793189992197,371.93330669996794,,,,,,,,,,,,,,,,,,,371.95782639994286,371.9663546999218,371.9663546999218,371.9663546999218,374.94351959996857,f,1.2340918000554666,0.14478969993069768,374.9435742999194,374.9435875999043,None,,,,,,,,,,,,,,00038,001,2026-01-23_16h36.46.044,MST_task,2024.2.0,59.81236857759541,2026-01-23 16h36.58.811417 +0530,
,Objects\117a.jpg,82,0,83,,,,,None,,,j,1.1921109999530017,None,,,,83,0,82,374.96034280001186,,,,,,,,,,,,,,,,,,,,,,,374.94396959990263,374.96034280001186,375.445310399984,,,,,,,,,,,,,,,,,,,375.4659694000147,375.4787716999417,375.4787716999417,375.4787716999417,378.45592089998536,None,,,378.45597090001684,379.6777337999083,j,378.47264129994437,378.47264129994437,1.1921109999530017,None,,,,,,,,,,00038,001,2026-01-23_16h36.46.044,MST_task,2024.2.0,59.81236857759541,2026-01-23 16h36.58.811417 +0530,
,Objects\108a.jpg,83,0,84,,,,,f,1.2435649000108242,0.12856410001404583,None,,,,,,84,0,83,379.69462359999306,,,,,,,,,,,,,,,,,,,,,,,379.67782659991644,379.69462359999306,380.17899529996794,,,,,,,,,,,,,,,,,,,380.19988119998015,380.21253369993065,380.21253369993065,380.21253369993065,383.1891620999668,f,1.2435649000108242,0.12856410001404583,383.18921699991915,383.1892305999063,None,,,,,,,,,,,,,,00038,001,2026-01-23_16h36.46.044,MST_task,2024.2.0,59.81236857759541,2026-01-23 16h36.58.811417 +0530,
,Scenes\039a.jpg,84,0,85,,,,,j,2.0281812000321224,0.13538420002441853,None,,,,,,85,0,84,383.2057558000088,,,,,,,,,,,,,,,,,,,,,,,383.1893404999282,383.2057558000088,383.6909956999589,,,,,,,,,,,,,,,,,,,383.7122268999228,383.72459469991736,383.72459469991736,383.72459469991736,386.70256160001736,j,2.0281812000321224,0.13538420002441853,386.7026155999629,386.70263219997287,None,,,,,,,,,,,,,,00038,001,2026-01-23_16h36.46.044,MST_task,2024.2.0,59.81236857759541,2026-01-23 16h36.58.811417 +0530,
,Scenes\179a.jpg,85,0,86,,,,,j,0.6742594999959692,0.12891980004496872,None,,,,,,86,0,85,386.71847640001215,,,,,,,,,,,,,,,,,,,,,,,386.7027264999924,386.71847640001215,387.2032923999941,,,,,,,,,,,,,,,,,,,387.2252069999231,387.23735899990425,387.23735899990425,387.23735899990425,390.21406999998726,j,0.6742594999959692,0.12891980004496872,390.214121399913,390.21413390000816,None,,,,,,,,,,,,,,00038,001,2026-01-23_16h36.46.044,MST_task,2024.2.0,59.81236857759541,2026-01-23 16h36.58.811417 +0530,
,Scenes\131a.jpg,86,0,87,,,,,j,0.5622734000207856,0.14396090002264827,None,,,,,,87,0,86,390.2306094999658,,,,,,,,,,,,,,,,,,,,,,,390.21420479996596,390.2306094999658,390.7154395999387,,,,,,,,,,,,,,,,,,,390.7385506000137,390.7655206999043,390.7655206999043,390.7655206999043,393.7260470999172,j,0.5622734000207856,0.14396090002264827,393.7263751999708,393.7263896999648,None,,,,,,,,,,,,,,00038,001,2026-01-23_16h36.46.044,MST_task,2024.2.0,59.81236857759541,2026-01-23 16h36.58.811417 +0530,
,Scenes\152a.jpg,87,0,88,,,,,j,0.5793419000692666,0.15094139997381717,None,,,,,,88,0,87,393.7426472000079,,,,,,,,,,,,,,,,,,,,,,,393.7264609999256,393.7426472000079,394.2290676999837,,,,,,,,,,,,,,,,,,,394.24900770001113,394.26120989990886,394.26120989990886,394.26120989990886,397.2382457999047,j,0.5793419000692666,0.15094139997381717,397.23838180000894,397.23839760001283,None,,,,,,,,,,,,,,00038,001,2026-01-23_16h36.46.044,MST_task,2024.2.0,59.81236857759541,2026-01-23 16h36.58.811417 +0530,
,Scenes\100a.jpg,88,0,89,,,,,j,1.219249000074342,0.12743899994529784,None,,,,,,89,0,88,397.255204499932,,,,,,,,,,,,,,,,,,,,,,,397.238503200002,397.255204499932,397.7400436999742,,,,,,,,,,,,,,,,,,,397.7634248000104,397.7730728999013,397.7730728999013,397.7730728999013,400.7505595999537,j,1.219249000074342,0.12743899994529784,400.7507290999638,400.7507484999951,None,,,,,,,,,,,,,,00038,001,2026-01-23_16h36.46.044,MST_task,2024.2.0,59.81236857759541,2026-01-23 16h36.58.811417 +0530,
,Scenes\022a.jpg,89,0,90,,,,,j,0.8491093999473378,0.16115489997901022,None,,,,,,90,0,89,400.76737699995283,,,,,,,,,,,,,,,,,,,,,,,400.7508627999341,400.76737699995283,401.2523397000041,,,,,,,,,,,,,,,,,,,401.2695725999074,401.28621609997936,401.28621609997936,401.28621609997936,404.26286889996845,j,0.8491093999473378,0.16115489997901022,404.26293409999926,404.2629471999826,None,,,,,,,,,,,,,,00038,001,2026-01-23_16h36.46.044,MST_task,2024.2.0,59.81236857759541,2026-01-23 16h36.58.811417 +0530,
,Scenes\021a.jpg,90,0,91,,,,,j,1.768681799992919,0.1362442000536248,None,,,,,,91,0,90,404.27966509992257,,,,,,,,,,,,,,,,,,,,,,,404.2630446999101,404.27966509992257,404.7646705999505,,,,,,,,,,,,,,,,,,,404.78903390001506,404.81473109999206,404.81473109999206,404.81473109999206,407.7752668999601,j,1.768681799992919,0.1362442000536248,407.7753237999277,407.7753370999126,None,,,,,,,,,,,,,,00038,001,2026-01-23_16h36.46.044,MST_task,2024.2.0,59.81236857759541,2026-01-23 16h36.58.811417 +0530,
,Objects\132a.jpg,91,0,92,,,,,f,0.7360751999076456,0.1609728999901563,None,,,,,,92,0,91,407.791853099945,,,,,,,,,,,,,,,,,,,,,,,407.77540679997765,407.791853099945,408.2770547999535,,,,,,,,,,,,,,,,,,,408.2999116999563,408.3115825999994,408.3115825999994,408.3115825999994,411.2877416999545,f,0.7360751999076456,0.1609728999901563,411.28779869992286,411.28781289991457,None,,,,,,,,,,,,,,00038,001,2026-01-23_16h36.46.044,MST_task,2024.2.0,59.81236857759541,2026-01-23 16h36.58.811417 +0530,
,Objects\123a.jpg,92,0,93,,,,,f,0.6255219000158831,0.13561760005541146,None,,,,,,93,0,92,411.30432429991197,,,,,,,,,,,,,,,,,,,,,,,411.28791129996534,411.30432429991197,411.7893791999668,,,,,,,,,,,,,,,,,,,411.8101582999807,411.822732099914,411.822732099914,411.822732099914,414.79988199996296,f,0.6255219000158831,0.13561760005541146,414.7999406999443,414.7999542999314,None,,,,,,,,,,,,,,00038,001,2026-01-23_16h36.46.044,MST_task,2024.2.0,59.81236857759541,2026-01-23 16h36.58.811417 +0530,
,Objects\091a.jpg,93,0,94,,,,,f,0.9526755000697449,0.15196349995676428,None,,,,,,94,0,93,414.8164595999988,,,,,,,,,,,,,,,,,,,,,,,414.8000260000117,414.8164595999988,415.30283930001315,,,,,,,,,,,,,,,,,,,415.32694039994385,415.3348210999975,415.3348210999975,415.3348210999975,418.31204599991906,f,0.9526755000697449,0.15196349995676428,418.31210400001146,418.31211719999555,None,,,,,,,,,,,,,,00038,001,2026-01-23_16h36.46.044,MST_task,2024.2.0,59.81236857759541,2026-01-23 16h36.58.811417 +0530,
,Objects\002a.jpg,94,0,95,,,,,f,1.0800346999894828,0.1453658000100404,None,,,,,,95,0,94,418.3288770999061,,,,,,,,,,,,,,,,,,,,,,,418.3122129999101,418.3288770999061,418.8140160999028,,,,,,,,,,,,,,,,,,,418.83841440000106,418.847552799969,418.847552799969,418.847552799969,421.8244418000104,f,1.0800346999894828,0.1453658000100404,421.82450839993544,421.8245210999157,None,,,,,,,,,,,,,,00038,001,2026-01-23_16h36.46.044,MST_task,2024.2.0,59.81236857759541,2026-01-23 16h36.58.811417 +0530,
,Objects\174a.jpg,95,0,96,,,,,f,0.616190200089477,0.13556760002393275,None,,,,,,96,0,95,421.8414990999736,,,,,,,,,,,,,,,,,,,,,,,421.82462039997336,421.8414990999736,422.32627799990587,,,,,,,,,,,,,,,,,,,422.3480135999853,422.3596066000173,422.3596066000173,422.3596066000173,425.3366686999798,f,0.616190200089477,0.13556760002393275,425.3367384999292,425.3367510999087,None,,,,,,,,,,,,,,00038,001,2026-01-23_16h36.46.044,MST_task,2024.2.0,59.81236857759541,2026-01-23 16h36.58.811417 +0530,
,Objects\191a.jpg,96,0,97,,,,,j,2.7522443999769166,0.1519974999828264,None,,,,,,97,0,96,425.35345359996427,,,,,,,,,,,,,,,,,,,,,,,425.3368499999633,425.35345359996427,425.83844419999514,,,,,,,,,,,,,,,,,,,425.8596439999528,425.8719078999711,425.8719078999711,425.8719078999711,428.8490462999325,j,2.7522443999769166,0.1519974999828264,428.8490988999838,428.8491114999633,None,,,,,,,,,,,,,,00038,001,2026-01-23_16h36.46.044,MST_task,2024.2.0,59.81236857759541,2026-01-23 16h36.58.811417 +0530,
,Objects\065a.jpg,97,0,98,,,,,f,1.1512922999681905,0.11307860002852976,None,,,,,,98,0,97,428.86575839994475,,,,,,,,,,,,,,,,,,,,,,,428.84919839992654,428.86575839994475,429.3509174999781,,,,,,,,,,,,,,,,,,,429.3742353999987,429.3840747999493,429.3840747999493,429.3840747999493,432.36127310001757,f,1.1512922999681905,0.11307860002852976,432.36133859993424,432.36135129991453,None,,,,,,,,,,,,,,00038,001,2026-01-23_16h36.46.044,MST_task,2024.2.0,59.81236857759541,2026-01-23 16h36.58.811417 +0530,
,Scenes\060a.jpg,98,0,99,,,,,j,0.5576396000105888,0.1524511999450624,None,,,,,,99,0,98,432.3780702999793,,,,,,,,,,,,,,,,,,,,,,,432.3614478999516,432.3780702999793,432.8630935999099,,,,,,,,,,,,,,,,,,,432.90760169993155,432.9299544999376,432.9299544999376,432.9299544999376,435.87392719998024,j,0.5576396000105888,0.1524511999450624,435.87399809993804,435.87401509995107,None,,,,,,,,,,,,,,00038,001,2026-01-23_16h36.46.044,MST_task,2024.2.0,59.81236857759541,2026-01-23 16h36.58.811417 +0530,
,Scenes\180a.jpg,99,0,100,,,,,j,0.5437312999274582,0.12001070007681847,None,,,,,,100,0,99,435.8902388999704,,,,,,,,,,,,,,,,,,,,,,,435.87410309992265,435.8902388999704,436.3758377999766,,,,,,,,,,,,,,,,,,,436.3989294999046,436.4082964999834,436.4082964999834,436.4082964999834,439.3859841999365,j,0.5437312999274582,0.12001070007681847,439.38603529997636,439.38604819995817,None,,,,,,,,,,,,,,00038,001,2026-01-23_16h36.46.044,MST_task,2024.2.0,59.81236857759541,2026-01-23 16h36.58.811417 +0530,
,Scenes\149a.jpg,100,0,101,,,,,j,1.1658078000182286,0.15219210006762296,None,,,,,,101,0,100,439.4025426999433,,,,,,,,,,,,,,,,,,,,,,,439.3861167000141,439.4025426999433,439.88802419998683,,,,,,,,,,,,,,,,,,,439.914202200016,439.93794589990284,439.93794589990284,439.93794589990284,442.8983279999811,j,1.1658078000182286,0.15219210006762296,442.898380599916,442.8983944999054,None,,,,,,,,,,,,,,00038,001,2026-01-23_16h36.46.044,MST_task,2024.2.0,59.81236857759541,2026-01-23 16h36.58.811417 +0530,
,Scenes\015a.jpg,101,0,102,,,,,j,0.6058520999504253,0.19094500003848225,None,,,,,,102,0,101,442.91511429997627,,,,,,,,,,,,,,,,,,,,,,,442.89847169991117,442.91511429997627,443.4001088999212,,,,,,,,,,,,,,,,,,,443.4299976999173,443.4510998999467,443.4510998999467,443.4510998999467,446.4109191999305,j,0.6058520999504253,0.19094500003848225,446.41100889991503,446.4110247999197,None,,,,,,,,,,,,,,00038,001,2026-01-23_16h36.46.044,MST_task,2024.2.0,59.81236857759541,2026-01-23 16h36.58.811417 +0530,
,Scenes\136a.jpg,102,0,103,,,,,j,0.7507075000321493,0.1272521000355482,None,,,,,,103,0,102,446.4273138999706,,,,,,,,,,,,,,,,,,,,,,,446.4111259999918,446.4273138999706,446.91251309996005,,,,,,,,,,,,,,,,,,,446.9338281999808,446.9455144999083,446.9455144999083,446.9455144999083,449.92288879991975,j,0.7507075000321493,0.1272521000355482,449.9229421999771,449.92295429995283,None,,,,,,,,,,,,,,00038,001,2026-01-23_16h36.46.044,MST_task,2024.2.0,59.81236857759541,2026-01-23 16h36.58.811417 +0530,
,Scenes\176a.jpg,103,0,104,,,,,j,0.5488040000200272,0.10434099996928126,None,,,,,,104,0,103,449.9397275999654,,,,,,,,,,,,,,,,,,,,,,,449.9230464999564,449.9397275999654,450.42483699996956,,,,,,,,,,,,,,,,,,,450.4489793999819,450.47476549993735,450.47476549993735,450.47476549993735,453.4356588999508,j,0.5488040000200272,0.10434099996928126,453.43574979994446,453.4357651999453,None,,,,,,,,,,,,,,00038,001,2026-01-23_16h36.46.044,MST_task,2024.2.0,59.81236857759541,2026-01-23 16h36.58.811417 +0530,
,Scenes\112a.jpg,104,0,105,,,,,j,0.6602013000519946,0.1358614000491798,None,,,,,,105,0,104,453.4519236999331,,,,,,,,,,,,,,,,,,,,,,,453.4358384999214,453.4519236999331,453.9371047000168,,,,,,,,,,,,,,,,,,,453.96055419999175,453.9882758000167,453.9882758000167,453.9882758000167,456.947553499951,j,0.6602013000519946,0.1358614000491798,456.9476083999034,456.9476272999309,None,,,,,,,,,,,,,,00038,001,2026-01-23_16h36.46.044,MST_task,2024.2.0,59.81236857759541,2026-01-23 16h36.58.811417 +0530,
,Objects\169a.jpg,105,0,106,,,,,j,1.661105600069277,0.11238249996677041,None,,,,,,106,0,105,456.96414299996104,,,,,,,,,,,,,,,,,,,,,,,456.9479931999231,456.96414299996104,457.44917879998684,,,,,,,,,,,,,,,,,,,457.4715992999263,457.48336770001333,457.48336770001333,457.48336770001333,460.45978159992956,j,1.661105600069277,0.11238249996677041,460.45984659995884,460.45985979994293,None,,,,,,,,,,,,,,00038,001,2026-01-23_16h36.46.044,MST_task,2024.2.0,59.81236857759541,2026-01-23 16h36.58.811417 +0530,
,Objects\151a.jpg,106,0,107,,,,,f,1.773447500076145,0.1590786000015214,None,,,,,,107,0,106,460.4764499999583,,,,,,,,,,,,,,,,,,,,,,,460.4599340999266,460.4764499999583,460.9616372999735,,,,,,,,,,,,,,,,,,,460.98299589997623,460.99495929991826,460.99495929991826,460.99495929991826,463.97204519994557,f,1.773447500076145,0.1590786000015214,463.9721045999322,463.972117099911,None,,,,,,,,,,,,,,00038,001,2026-01-23_16h36.46.044,MST_task,2024.2.0,59.81236857759541,2026-01-23 16h36.58.811417 +0530,
,Objects\172a.jpg,107,0,108,,,,,j,0.8694157000863925,0.16696760000195354,None,,,,,,108,0,107,463.9886343999533,,,,,,,,,,,,,,,,,,,,,,,463.972186399973,463.9886343999533,464.4739004999865,,,,,,,,,,,,,,,,,,,464.493950999924,464.50706540001556,464.50706540001556,464.50706540001556,467.4844742999412,j,0.8694157000863925,0.16696760000195354,467.4845287000062,467.4845408999827,None,,,,,,,,,,,,,,00038,001,2026-01-23_16h36.46.044,MST_task,2024.2.0,59.81236857759541,2026-01-23 16h36.58.811417 +0530,
,Objects\059a.jpg,108,0,109,,,,,f,1.0370535000693053,0.14324519992806017,None,,,,,,109,0,108,467.5009271999588,,,,,,,,,,,,,,,,,,,,,,,467.4847568999976,467.5009271999588,467.9861475999933,,,,,,,,,,,,,,,,,,,468.0106742999051,468.01956919999793,468.01956919999793,468.01956919999793,470.99654739990365,f,1.0370535000693053,0.14324519992806017,470.99660299997777,470.9966231000144,None,,,,,,,,,,,,,,00038,001,2026-01-23_16h36.46.044,MST_task,2024.2.0,59.81236857759541,2026-01-23 16h36.58.811417 +0530,
,Objects\157a.jpg,109,0,110,,,,,f,0.6761789000593126,0.1434416000265628,None,,,,,,110,0,109,471.01335609995294,,,,,,,,,,,,,,,,,,,,,,,470.99671949993353,471.01335609995294,471.49877089995425,,,,,,,,,,,,,,,,,,,471.51963250001427,471.5318033999065,471.5318033999065,471.5318033999065,474.5090631999774,f,0.6761789000593126,0.1434416000265628,474.5091216999572,474.509134599939,None,,,,,,,,,,,,,,00038,001,2026-01-23_16h36.46.044,MST_task,2024.2.0,59.81236857759541,2026-01-23 16h36.58.811417 +0530,
,Objects\089a.jpg,110,0,111,,,,,f,0.731860899948515,0.1357356000225991,None,,,,,,111,0,110,474.5255326000042,,,,,,,,,,,,,,,,,,,,,,,474.5092315999791,474.5255326000042,475.01080579997506,,,,,,,,,,,,,,,,,,,475.03159449994564,475.0440884999698,475.0440884999698,475.0440884999698,478.0211304000113,f,0.731860899948515,0.1357356000225991,478.0211852999637,478.02119759994093,None,,,,,,,,,,,,,,00038,001,2026-01-23_16h36.46.044,MST_task,2024.2.0,59.81236857759541,2026-01-23 16h36.58.811417 +0530,
,Objects\038a.jpg,111,0,112,,,,,f,0.9395342000061646,0.12842169997747988,None,,,,,,112,0,111,478.03796300000977,,,,,,,,,,,,,,,,,,,,,,,478.02130159991793,478.03796300000977,478.52295719995163,,,,,,,,,,,,,,,,,,,478.54655610001646,478.5563898999244,478.5563898999244,478.5563898999244,481.5336951999925,f,0.9395342000061646,0.12842169997747988,481.5337581000058,481.53377249999903,None,,,,,,,,,,,,,,00038,001,2026-01-23_16h36.46.044,MST_task,2024.2.0,59.81236857759541,2026-01-23 16h36.58.811417 +0530,
,Scenes\007a.jpg,112,0,113,,,,,f,0.897711000056006,0.13641959999222308,None,,,,,,113,0,112,481.5501498999074,,,,,,,,,,,,,,,,,,,,,,,481.53387389995623,481.5501498999074,482.03548829990905,,,,,,,,,,,,,,,,,,,482.0612017000094,482.0861835000105,482.0861835000105,482.0861835000105,485.04573909996543,f,0.897711000056006,0.13641959999222308,485.0457978999475,485.0458107999293,None,,,,,,,,,,,,,,00038,001,2026-01-23_16h36.46.044,MST_task,2024.2.0,59.81236857759541,2026-01-23 16h36.58.811417 +0530,
,Scenes\122a.jpg,113,0,114,,,,,f,0.7055904000299051,0.13530470000114292,None,,,,,,114,0,113,485.0625037999125,,,,,,,,,,,,,,,,,,,,,,,485.0458823000081,485.0625037999125,485.54785490001086,,,,,,,,,,,,,,,,,,,485.57330219994765,485.5987972000148,485.5987972000148,485.5987972000148,488.558167799958,f,0.7055904000299051,0.13530470000114292,488.5582325999858,488.55824479996227,None,,,,,,,,,,,,,,00038,001,2026-01-23_16h36.46.044,MST_task,2024.2.0,59.81236857759541,2026-01-23 16h36.58.811417 +0530,
,Scenes\104a.jpg,114,0,115,,,,,j,0.6885174999479204,0.12819580000359565,None,,,,,,115,0,114,488.5747187999077,,,,,,,,,,,,,,,,,,,,,,,488.55838459997904,488.5747187999077,489.0600583999185,,,,,,,,,,,,,,,,,,,489.08739469991997,489.11097559996415,489.11097559996415,489.11097559996415,492.0704365000129,j,0.6885174999479204,0.12819580000359565,492.07049139996525,492.0705039999448,None,,,,,,,,,,,,,,00038,001,2026-01-23_16h36.46.044,MST_task,2024.2.0,59.81236857759541,2026-01-23 16h36.58.811417 +0530,
,Scenes\139a.jpg,115,0,116,,,,,j,0.609541599988006,0.16846570000052452,None,,,,,,116,0,115,492.0873335999204,,,,,,,,,,,,,,,,,,,,,,,492.0705916999141,492.0873335999204,492.5721155999927,,,,,,,,,,,,,,,,,,,492.59400679997634,492.60635859996546,492.60635859996546,492.60635859996546,495.58274370001163,j,0.609541599988006,0.16846570000052452,495.5828293999657,495.58284579997417,None,,,,,,,,,,,,,,00038,001,2026-01-23_16h36.46.044,MST_task,2024.2.0,59.81236857759541,2026-01-23 16h36.58.811417 +0530,
,Scenes\068a.jpg,116,0,117,,,,,j,0.8408545000711456,0.16919729998335242,None,,,,,,117,0,116,495.59945380000863,,,,,,,,,,,,,,,,,,,,,,,495.5832309999969,495.59945380000863,496.0845319000073,,,,,,,,,,,,,,,,,,,496.1113801000174,496.13449769990984,496.13449769990984,496.13449769990984,499.09519999998156,j,0.8408545000711456,0.16919729998335242,499.09526259999257,499.09527509997133,None,,,,,,,,,,,,,,00038,001,2026-01-23_16h36.46.044,MST_task,2024.2.0,59.81236857759541,2026-01-23 16h36.58.811417 +0530,
,Scenes\183a.jpg,117,0,118,,,,,j,0.7769644999643788,0.15283680008724332,None,,,,,,118,0,117,499.1116236000089,,,,,,,,,,,,,,,,,,,,,,,499.0953688999871,499.1116236000089,499.59682759991847,,,,,,,,,,,,,,,,,,,499.62122510001063,499.64691779995337,499.64691779995337,499.64691779995337,502.6073367999634,j,0.7769644999643788,0.15283680008724332,502.60739069990814,502.6074070999166,None,,,,,,,,,,,,,,00038,001,2026-01-23_16h36.46.044,MST_task,2024.2.0,59.81236857759541,2026-01-23 16h36.58.811417 +0530,
,Scenes\158a.jpg,118,0,119,,,,,j,0.7376208000350744,0.15085929993074387,None,,,,,,119,0,118,502.6239195999224,,,,,,,,,,,,,,,,,,,,,,,502.6074993999209,502.6239195999224,503.109139499953,,,,,,,,,,,,,,,,,,,503.1347582999151,503.1592486000154,503.1592486000154,503.1592486000154,506.1196789999958,j,0.7376208000350744,0.15085929993074387,506.1197451999178,506.1197583999019,None,,,,,,,,,,,,,,00038,001,2026-01-23_16h36.46.044,MST_task,2024.2.0,59.81236857759541,2026-01-23 16h36.58.811417 +0530,
,Objects\013a.jpg,119,0,120,,,,,f,0.7518545999191701,0.16028389998245984,None,,,,,,120,0,119,506.13634989992715,,,,,,,,,,,,,,,,,,,,,,,506.12010840000585,506.13634989992715,506.62131509999745,,,,,,,,,,,,,,,,,,,506.6440876999404,506.6555143999867,506.6555143999867,506.6555143999867,509.6319192999508,f,0.7518545999191701,0.16028389998245984,509.6319872000022,509.63199999998324,None,,,,,,,,,,,,,,00038,001,2026-01-23_16h36.46.044,MST_task,2024.2.0,59.81236857759541,2026-01-23 16h36.58.811417 +0530,
,Objects\050a.jpg,120,0,121,,,,,f,0.7131906999275088,0.14328319998458028,None,,,,,,121,0,120,509.64865539991297,,,,,,,,,,,,,,,,,,,,,,,509.63221780001186,509.64865539991297,510.1336378999986,,,,,,,,,,,,,,,,,,,510.15698339999653,510.1670890999958,510.1670890999958,510.1670890999958,513.1442335000029,f,0.7131906999275088,0.14328319998458028,513.1442861999385,513.1442973999074,None,,,,,,,,,,,,,,00038,001,2026-01-23_16h36.46.044,MST_task,2024.2.0,59.81236857759541,2026-01-23 16h36.58.811417 +0530,
,Objects\036a.jpg,121,0,122,,,,,f,0.7759063999401405,0.12067199999000877,None,,,,,,122,0,121,513.1608173999703,,,,,,,,,,,,,,,,,,,,,,,513.1443664999679,513.1608173999703,513.6460424999241,,,,,,,,,,,,,,,,,,,513.6684967000037,513.6794396999758,513.6794396999758,513.6794396999758,516.6570318000158,f,0.7759063999401405,0.12067199999000877,516.6570961999241,516.6574356999481,None,,,,,,,,,,,,,,00038,001,2026-01-23_16h36.46.044,MST_task,2024.2.0,59.81236857759541,2026-01-23 16h36.58.811417 +0530,
,Objects\121a.jpg,122,0,123,,,,,f,0.943814400001429,0.16063599998597056,None,,,,,,123,0,122,516.6734312999761,,,,,,,,,,,,,,,,,,,,,,,516.6575439999579,516.6734312999761,517.1583272999851,,,,,,,,,,,,,,,,,,,517.1808191000018,517.1919831999112,517.1919831999112,517.1919831999112,520.1687141999137,f,0.943814400001429,0.16063599998597056,520.1687698999885,520.1687825999688,None,,,,,,,,,,,,,,00038,001,2026-01-23_16h36.46.044,MST_task,2024.2.0,59.81236857759541,2026-01-23 16h36.58.811417 +0530,
,Objects\130a.jpg,123,0,124,,,,,f,1.3355287000304088,0.1371479999506846,None,,,,,,124,0,123,520.1856338999933,,,,,,,,,,,,,,,,,,,,,,,520.169004599913,520.1856338999933,520.6705673999386,,,,,,,,,,,,,,,,,,,520.6924470999511,520.703990799957,520.703990799957,520.703990799957,523.6811395999976,f,1.3355287000304088,0.1371479999506846,523.6814582999796,523.6814748999896,None,,,,,,,,,,,,,,00038,001,2026-01-23_16h36.46.044,MST_task,2024.2.0,59.81236857759541,2026-01-23 16h36.58.811417 +0530,
,Objects\161a.jpg,124,0,125,,,,,f,1.503023000084795,0.1526184999383986,None,,,,,,125,0,124,523.6977204999421,,,,,,,,,,,,,,,,,,,,,,,523.6815466999542,523.6977204999421,524.1829344999278,,,,,,,,,,,,,,,,,,,524.2039418999339,524.2162602000171,524.2162602000171,524.2162602000171,527.193385999999,f,1.503023000084795,0.1526184999383986,527.193444399978,527.1934583999682,None,,,,,,,,,,,,,,00038,001,2026-01-23_16h36.46.044,MST_task,2024.2.0,59.81236857759541,2026-01-23 16h36.58.811417 +0530,
,Objects\152a.jpg,125,0,126,,,,,f,0.7594286000821739,0.16901299997698516,None,,,,,,126,0,125,527.2101471999194,,,,,,,,,,,,,,,,,,,,,,,527.1935316999443,527.2101471999194,527.6951136999996,,,,,,,,,,,,,,,,,,,527.7158539999509,527.7285676999018,527.7285676999018,527.7285676999018,530.7057192999637,f,0.7594286000821739,0.16901299997698516,530.7060490999138,530.7060633999063,None,,,,,,,,,,,,,,00038,001,2026-01-23_16h36.46.044,MST_task,2024.2.0,59.81236857759541,2026-01-23 16h36.58.811417 +0530,
,Scenes\028a.jpg,126,0,127,,,,,j,0.5914581000106409,0.14385310001671314,None,,,,,,127,0,126,530.7224687999114,,,,,,,,,,,,,,,,,,,,,,,530.7061577999266,530.7224687999114,531.2075354999397,,,,,,,,,,,,,,,,,,,531.2306431999896,531.2405761999544,531.2405761999544,531.2405761999544,534.2182550999569,j,0.5914581000106409,0.14385310001671314,534.2185954999877,534.2186122999992,None,,,,,,,,,,,,,,00038,001,2026-01-23_16h36.46.044,MST_task,2024.2.0,59.81236857759541,2026-01-23 16h36.58.811417 +0530,
,Scenes\098a.jpg,127,0,128,,,,,f,1.8466939999489114,0.14399880007840693,None,,,,,,128,0,127,534.2350089999381,,,,,,,,,,,,,,,,,,,,,,,534.2187238999177,534.2350089999381,534.7199988999637,,,,,,,,,,,,,,,,,,,534.7434249999933,534.7527634999715,534.7527634999715,534.7527634999715,537.7303201999748,f,1.8466939999489114,0.14399880007840693,537.7303887999151,537.7304021000164,None,,,,,,,,,,,,,,00038,001,2026-01-23_16h36.46.044,MST_task,2024.2.0,59.81236857759541,2026-01-23 16h36.58.811417 +0530,
,Scenes\126a.jpg,128,0,129,,,,,j,0.7746181000256911,0.1429636999964714,None,,,,,,129,0,128,537.7473145999247,,,,,,,,,,,,,,,,,,,,,,,537.7304714999627,537.7473145999247,538.2321490999311,,,,,,,,,,,,,,,,,,,538.2546340000117,538.2657525999239,538.2657525999239,538.2657525999239,541.2426711999578,j,0.7746181000256911,0.1429636999964714,541.2427342999727,541.2427484999644,None,,,,,,,,,,,,,,00038,001,2026-01-23_16h36.46.044,MST_task,2024.2.0,59.81236857759541,2026-01-23 16h36.58.811417 +0530,
,Scenes\109a.jpg,129,0,130,,,,,j,0.9801783000584692,0.16091169998981059,None,,,,,,130,0,129,541.2598688999424,,,,,,,,,,,,,,,,,,,,,,,541.2428924000124,541.2598688999424,541.7444422999397,,,,,,,,,,,,,,,,,,,541.7686078000115,541.7951365999179,541.7951365999179,541.7951365999179,544.7548030999023,j,0.9801783000584692,0.16091169998981059,544.7548582999734,544.7548707999522,None,,,,,,,,,,,,,,00038,001,2026-01-23_16h36.46.044,MST_task,2024.2.0,59.81236857759541,2026-01-23 16h36.58.811417 +0530,
,Scenes\162a.jpg,130,0,131,,,,,j,0.5026311000110582,0.15964440000243485,None,,,,,,131,0,130,544.7716445999686,,,,,,,,,,,,,,,,,,,,,,,544.7551392000169,544.7716445999686,545.2566331999842,,,,,,,,,,,,,,,,,,,545.2780151999323,545.2899535999168,545.2899535999168,545.2899535999168,548.2672531999415,j,0.5026311000110582,0.15964440000243485,548.2673240000149,548.2673382000066,None,,,,,,,,,,,,,,00038,001,2026-01-23_16h36.46.044,MST_task,2024.2.0,59.81236857759541,2026-01-23 16h36.58.811417 +0530,
,Scenes\155a.jpg,131,0,132,,,,,j,0.5084713000105694,0.16136739996727556,None,,,,,,132,0,131,548.2839300999185,,,,,,,,,,,,,,,,,,,,,,,548.2674648999237,548.2839300999185,548.7690197000047,,,,,,,,,,,,,,,,,,,548.7937296999153,548.8191259999294,548.8191259999294,548.8191259999294,551.7796433999902,j,0.5084713000105694,0.16136739996727556,551.7796965999296,551.7798435000004,None,,,,,,,,,,,,,,00038,001,2026-01-23_16h36.46.044,MST_task,2024.2.0,59.81236857759541,2026-01-23 16h36.58.811417 +0530,
,Scenes\129a.jpg,132,0,133,,,,,j,1.4533730000257492,0.1517572000157088,None,,,,,,133,0,132,551.796112400014,,,,,,,,,,,,,,,,,,,,,,,551.7799621999729,551.796112400014,552.281318699941,,,,,,,,,,,,,,,,,,,552.3011356999632,552.3146740999073,552.3146740999073,552.3146740999073,555.291708100005,j,1.4533730000257492,0.1517572000157088,555.2917632999597,555.2917757999385,None,,,,,,,,,,,,,,00038,001,2026-01-23_16h36.46.044,MST_task,2024.2.0,59.81236857759541,2026-01-23 16h36.58.811417 +0530,
,Objects\062a.jpg,133,0,134,,,,,f,0.7480904998956248,0.13608240010216832,None,,,,,,134,0,133,555.3085144999204,,,,,,,,,,,,,,,,,,,,,,,555.2918827999383,555.3085144999204,555.7934916999657,,,,,,,,,,,,,,,,,,,555.8155617999146,555.8276213000063,555.8276213000063,555.8276213000063,558.8040096999612,f,0.7480904998956248,0.13608240010216832,558.804064399912,558.8040769000072,None,,,,,,,,,,,,,,00038,001,2026-01-23_16h36.46.044,MST_task,2024.2.0,59.81236857759541,2026-01-23 16h36.58.811417 +0530,
,Objects\129a.jpg,134,0,135,,,,,f,1.6044775999616832,0.1692076000617817,None,,,,,,135,0,134,558.8214450000087,,,,,,,,,,,,,,,,,,,,,,,558.8044628999196,558.8214450000087,559.3058153999737,,,,,,,,,,,,,,,,,,,559.3285831999965,559.339282699977,559.339282699977,559.339282699977,562.3164184999187,f,1.6044775999616832,0.1692076000617817,562.3164882999845,562.3165018999716,None,,,,,,,,,,,,,,00038,001,2026-01-23_16h36.46.044,MST_task,2024.2.0,59.81236857759541,2026-01-23 16h36.58.811417 +0530,
,Objects\183a.jpg,135,0,136,,,,,f,1.0037041999166831,0.16081260005012155,None,,,,,,136,0,135,562.3330133999698,,,,,,,,,,,,,,,,,,,,,,,562.3165943999775,562.3330133999698,562.8191982000135,,,,,,,,,,,,,,,,,,,562.840892600012,562.8517289999872,562.8517289999872,562.8517289999872,565.8287369000027,f,1.0037041999166831,0.16081260005012155,565.8288076999597,565.8288206999423,None,,,,,,,,,,,,,,00038,001,2026-01-23_16h36.46.044,MST_task,2024.2.0,59.81236857759541,2026-01-23 16h36.58.811417 +0530,
,Objects\066a.jpg,136,0,137,,,,,j,1.8279020000481978,0.1759885000064969,None,,,,,,137,0,136,565.8453124999069,,,,,,,,,,,,,,,,,,,,,,,565.828937000013,565.8453124999069,566.3305032999488,,,,,,,,,,,,,,,,,,,566.3528787000105,566.3640599999344,566.3640599999344,566.3640599999344,569.3409022999695,j,1.8279020000481978,0.1759885000064969,569.3409555999096,569.3409684000071,None,,,,,,,,,,,,,,00038,001,2026-01-23_16h36.46.044,MST_task,2024.2.0,59.81236857759541,2026-01-23 16h36.58.811417 +0530,
,Objects\192a.jpg,137,0,138,,,,,j,2.0366567000746727,0.15876239992212504,None,,,,,,138,0,137,569.3577361999778,,,,,,,,,,,,,,,,,,,,,,,569.3410390999634,569.3577361999778,569.8429654999636,,,,,,,,,,,,,,,,,,,569.8654200999299,569.8762097000144,569.8762097000144,569.8762097000144,572.8532171999104,j,2.0366567000746727,0.15876239992212504,572.8532734999899,572.8533104999224,None,,,,,,,,,,,,,,00038,001,2026-01-23_16h36.46.044,MST_task,2024.2.0,59.81236857759541,2026-01-23 16h36.58.811417 +0530,
,Objects\081a.jpg,138,0,139,,,,,j,0.6669571000384167,0.15257019991986454,None,,,,,,139,0,138,572.8700292999856,,,,,,,,,,,,,,,,,,,,,,,572.8533816999989,572.8700292999856,573.3550225999206,,,,,,,,,,,,,,,,,,,573.3745732000098,573.3885869999649,573.3885869999649,573.3885869999649,576.3656067999545,j,0.6669571000384167,0.15257019991986454,576.3656783999177,576.3657093999209,None,,,,,,,,,,,,,,00038,001,2026-01-23_16h36.46.044,MST_task,2024.2.0,59.81236857759541,2026-01-23 16h36.58.811417 +0530,
,Objects\150a.jpg,139,0,140,,,,,f,1.3874421000946313,0.1831891000038013,None,,,,,,140,0,139,576.3822006999981,,,,,,,,,,,,,,,,,,,,,,,576.3657877999358,576.3822006999981,576.8674415999558,,,,,,,,,,,,,,,,,,,576.8923379000043,576.9007936000125,576.9007936000125,576.9007936000125,579.8777996000135,f,1.3874421000946313,0.1831891000038013,579.8778559999773,579.8778689999599,None,,,,,,,,,,,,,,00038,001,2026-01-23_16h36.46.044,MST_task,2024.2.0,59.81236857759541,2026-01-23 16h36.58.811417 +0530,
,Scenes\141a.jpg,140,0,141,,,,,j,0.666700700065121,0.12819189997389913,None,,,,,,141,0,140,579.8946263999678,,,,,,,,,,,,,,,,,,,,,,,579.8779382999055,579.8946263999678,580.3795936999377,,,,,,,,,,,,,,,,,,,580.4009809999261,580.4130579999182,580.4130579999182,580.4130579999182,583.390343499952,j,0.666700700065121,0.12819189997389913,583.3906452999217,583.3906630999409,None,,,,,,,,,,,,,,00038,001,2026-01-23_16h36.46.044,MST_task,2024.2.0,59.81236857759541,2026-01-23 16h36.58.811417 +0530,
,Scenes\061a.jpg,141,0,142,,,,,j,0.5291657999623567,0.14437830005772412,None,,,,,,142,0,141,583.406963699963,,,,,,,,,,,,,,,,,,,,,,,583.3907587999711,583.406963699963,583.8921801999677,,,,,,,,,,,,,,,,,,,583.9164937000023,583.9262972999131,583.9262972999131,583.9262972999131,586.9025351000018,j,0.5291657999623567,0.14437830005772412,586.9030206999741,586.9030872000149,None,,,,,,,,,,,,,,00038,001,2026-01-23_16h36.46.044,MST_task,2024.2.0,59.81236857759541,2026-01-23 16h36.58.811417 +0530,
,Scenes\182a.jpg,142,0,143,,,,,j,0.6668370999395847,0.14376020000781864,None,,,,,,143,0,142,586.9196187999332,,,,,,,,,,,,,,,,,,,,,,,586.9034395999042,586.9196187999332,587.4044801999116,,,,,,,,,,,,,,,,,,,587.4256089999108,587.4378029999789,587.4378029999789,587.4378029999789,590.4151099999435,j,0.6668370999395847,0.14376020000781864,590.4151790000033,590.4151920999866,None,,,,,,,,,,,,,,00038,001,2026-01-23_16h36.46.044,MST_task,2024.2.0,59.81236857759541,2026-01-23 16h36.58.811417 +0530,
,Scenes\094a.jpg,143,0,144,,,,,f,2.6732106999261305,0.15929820004384965,None,,,,,,144,0,143,590.4314146999968,,,,,,,,,,,,,,,,,,,,,,,590.4152596999193,590.4314146999968,590.9175201999024,,,,,,,,,,,,,,,,,,,590.9458767999895,590.9668152999366,590.9668152999366,590.9668152999366,593.9271546999225,f,2.6732106999261305,0.15929820004384965,593.9272072999738,593.9272197999526,None,,,,,,,,,,,,,,00038,001,2026-01-23_16h36.46.044,MST_task,2024.2.0,59.81236857759541,2026-01-23 16h36.58.811417 +0530,
,Scenes\111a.jpg,144,0,145,,,,,j,0.5534488999983296,0.15236029995139688,None,,,,,,145,0,144,593.9438158000121,,,,,,,,,,,,,,,,,,,,,,,593.9275537999347,593.9438158000121,594.4287857000018,,,,,,,,,,,,,,,,,,,594.4489774999674,594.4624514000025,594.4624514000025,594.4624514000025,597.4394113000017,j,0.5534488999983296,0.15236029995139688,597.4394690999761,597.4394817999564,None,,,,,,,,,,,,,,00038,001,2026-01-23_16h36.46.044,MST_task,2024.2.0,59.81236857759541,2026-01-23 16h36.58.811417 +0530,
,Scenes\093a.jpg,145,0,146,,,,,f,2.8808999999891967,None,None,,,,,,146,0,145,597.4561212999979,,,,,,,,,,,,,,,,,,,,,,,597.4398360999767,597.4561212999979,597.9412416999694,,,,,,,,,,,,,,,,,,,597.965371600003,597.9913288999815,597.9913288999815,597.9913288999815,600.9524319999618,f,2.8808999999891967,None,600.9524994000094,600.952512799995,None,,,,,,,,,,,,,,00038,001,2026-01-23_16h36.46.044,MST_task,2024.2.0,59.81236857759541,2026-01-23 16h36.58.811417 +0530,
,Scenes\142a.jpg,146,0,147,,,,,j,0.6649202000116929,0.1360764999408275,None,,,,,,147,0,146,600.9683136999374,,,,,,,,,,,,,,,,,,,,,,,600.9526120999362,600.9683136999374,601.4535045999801,,,,,,,,,,,,,,,,,,,601.4701379999751,601.4868497999851,601.4868497999851,601.4868497999851,604.4640120000113,j,0.6649202000116929,0.1360764999408275,604.4640690999804,604.464082499966,None,,,,,,,,,,,,,,00038,001,2026-01-23_16h36.46.044,MST_task,2024.2.0,59.81236857759541,2026-01-23 16h36.58.811417 +0530,
,Objects\070a.jpg,147,0,148,,,,,f,0.9283129000104964,0.15160300000570714,None,,,,,,148,0,147,604.4806021999102,,,,,,,,,,,,,,,,,,,,,,,604.4641796000069,604.4806021999102,604.9658165000146,,,,,,,,,,,,,,,,,,,604.99270599999,605.0159008000046,605.0159008000046,605.0159008000046,607.9762214999646,f,0.9283129000104964,0.15160300000570714,607.9762905999087,607.9763033000054,None,,,,,,,,,,,,,,00038,001,2026-01-23_16h36.46.044,MST_task,2024.2.0,59.81236857759541,2026-01-23 16h36.58.811417 +0530,
,Objects\004a.jpg,148,0,149,,,,,f,1.064362599980086,0.1354833000805229,None,,,,,,149,0,148,607.9931867999258,,,,,,,,,,,,,,,,,,,,,,,607.9766510999762,607.9931867999258,608.4779800999677,,,,,,,,,,,,,,,,,,,608.5003577999305,608.5115783999208,608.5115783999208,608.5115783999208,611.4886142999167,f,1.064362599980086,0.1354833000805229,611.4886913999217,611.488721499918,None,,,,,,,,,,,,,,00038,001,2026-01-23_16h36.46.044,MST_task,2024.2.0,59.81236857759541,2026-01-23 16h36.58.811417 +0530,
,Objects\178a.jpg,149,0,150,,,,,f,2.4402734000468627,0.15297309996094555,None,,,,,,150,0,149,611.5051879999228,,,,,,,,,,,,,,,,,,,,,,,611.4887978999177,611.5051879999228,611.9905204999959,,,,,,,,,,,,,,,,,,,612.012994699995,612.0236417999258,612.0236417999258,612.0236417999258,615.0015423999866,f,2.4402734000468627,0.15297309996094555,615.001603199984,615.0016158999642,None,,,,,,,,,,,,,,00038,001,2026-01-23_16h36.46.044,MST_task,2024.2.0,59.81236857759541,2026-01-23 16h36.58.811417 +0530,
,Objects\181a.jpg,150,0,151,,,,,j,0.5434813000028953,0.1667479999596253,None,,,,,,151,0,150,615.0177649999969,,,,,,,,,,,,,,,,,,,,,,,615.0016886999365,615.0177649999969,615.5036738999188,,,,,,,,,,,,,,,,,,,615.523546100012,615.5371427999344,615.5371427999344,615.5371427999344,618.5131895999657,j,0.5434813000028953,0.1667479999596253,618.5134054999799,618.51341949997,None,,,,,,,,,,,,,,00038,001,2026-01-23_16h36.46.044,MST_task,2024.2.0,59.81236857759541,2026-01-23 16h36.58.811417 +0530,
,Objects\146a.jpg,151,0,152,,,,,f,0.7270337999798357,0.15249410003889352,None,,,,,,152,0,151,618.5297904999461,,,,,,,,,,,,,,,,,,,,,,,618.5134881999111,618.5297904999461,619.0149929999607,,,,,,,,,,,,,,,,,,,619.0354087000014,619.0482278999407,619.0482278999407,619.0482278999407,622.0265424000099,f,0.7270337999798357,0.15249410003889352,622.0270567999687,622.0271153999493,None,,,,,,,,,,,,,,00038,001,2026-01-23_16h36.46.044,MST_task,2024.2.0,59.81236857759541,2026-01-23 16h36.58.811417 +0530,
,Objects\163a.jpg,152,0,153,,,,,f,2.7188401999883354,0.2005673999665305,None,,,,,,153,0,152,622.0428828999866,,,,,,,,,,,,,,,,,,,,,,,622.027184800012,622.0428828999866,622.5283435999881,,,,,,,,,,,,,,,,,,,622.5492536999518,622.560764899943,622.560764899943,622.560764899943,625.5378417000175,f,2.7188401999883354,0.2005673999665305,625.5379071999341,625.5379210999236,None,,,,,,,,,,,,,,00038,001,2026-01-23_16h36.46.044,MST_task,2024.2.0,59.81236857759541,2026-01-23 16h36.58.811417 +0530,
,Objects\100a.jpg,153,0,154,,,,,f,1.4866562000242993,0.215983200003393,None,,,,,,154,0,153,625.5545150999678,,,,,,,,,,,,,,,,,,,,,,,625.5382376000052,625.5545150999678,626.0394831999438,,,,,,,,,,,,,,,,,,,626.0621630999958,626.0729502999457,626.0729502999457,626.0729502999457,629.0500848999945,f,1.4866562000242993,0.215983200003393,629.0501532999333,629.0501656999113,None,,,,,,,,,,,,,,00038,001,2026-01-23_16h36.46.044,MST_task,2024.2.0,59.81236857759541,2026-01-23 16h36.58.811417 +0530,
,Scenes\019a.jpg,154,0,155,,,,,j,1.0379736999748275,0.23958809999749064,None,,,,,,155,0,154,629.0670025999425,,,,,,,,,,,,,,,,,,,,,,,629.0502359999809,629.0670025999425,629.551922799903,,,,,,,,,,,,,,,,,,,629.57733130001,629.6019844999537,629.6019844999537,629.6019844999537,632.5624249000102,j,1.0379736999748275,0.23958809999749064,632.5624943999574,632.5625071999384,None,,,,,,,,,,,,,,00038,001,2026-01-23_16h36.46.044,MST_task,2024.2.0,59.81236857759541,2026-01-23 16h36.58.811417 +0530,
,Scenes\108a.jpg,155,0,156,,,,,j,0.7973395000444725,0.1765647999709472,None,,,,,,156,0,155,632.5789779999759,,,,,,,,,,,,,,,,,,,,,,,632.5625766000012,632.5789779999759,633.0642223999603,,,,,,,,,,,,,,,,,,,633.0913950999966,633.1151420999086,633.1151420999086,633.1151420999086,636.0745995999314,j,0.7973395000444725,0.1765647999709472,636.0746678999858,636.0746809999691,None,,,,,,,,,,,,,,00038,001,2026-01-23_16h36.46.044,MST_task,2024.2.0,59.81236857759541,2026-01-23 16h36.58.811417 +0530,
,Scenes\191a.jpg,156,0,157,,,,,j,0.9729360999772325,0.17670700000599027,None,,,,,,157,0,156,636.0913981999038,,,,,,,,,,,,,,,,,,,,,,,636.074752699933,636.0913981999038,636.576370799914,,,,,,,,,,,,,,,,,,,636.595644999994,636.6105784999672,636.6105784999672,636.6105784999672,639.5868736999109,j,0.9729360999772325,0.17670700000599027,639.5869277999736,639.5869414999615,None,,,,,,,,,,,,,,00038,001,2026-01-23_16h36.46.044,MST_task,2024.2.0,59.81236857759541,2026-01-23 16h36.58.811417 +0530,
,Scenes\153a.jpg,157,0,158,,,,,j,0.5567686000140384,0.1515030999435112,None,,,,,,158,0,157,639.603752899915,,,,,,,,,,,,,,,,,,,,,,,639.587389399996,639.603752899915,640.0886605000123,,,,,,,,,,,,,,,,,,,640.108458600007,640.123098299955,640.123098299955,640.123098299955,643.0992866000161,j,0.5567686000140384,0.1515030999435112,643.0993546999525,643.0993675999343,None,,,,,,,,,,,,,,00038,001,2026-01-23_16h36.46.044,MST_task,2024.2.0,59.81236857759541,2026-01-23 16h36.58.811417 +0530,
,Scenes\127a.jpg,158,0,159,,,,,j,0.8044591000070795,0.14443830004893243,None,,,,,,159,0,158,643.116008699988,,,,,,,,,,,,,,,,,,,,,,,643.0994642999722,643.116008699988,643.6009724999312,,,,,,,,,,,,,,,,,,,643.6242719999282,643.6352768999059,643.6352768999059,643.6352768999059,646.6114629999502,j,0.8044591000070795,0.14443830004893243,646.6115277999779,646.6115400999552,None,,,,,,,,,,,,,,00038,001,2026-01-23_16h36.46.044,MST_task,2024.2.0,59.81236857759541,2026-01-23 16h36.58.811417 +0530,
,Scenes\014a.jpg,159,0,160,,,,,f,1.3241877000546083,0.12784720002673566,None,,,,,,160,0,159,646.6282902999083,,,,,,,,,,,,,,,,,,,,,,,646.6116368999938,646.6282902999083,647.1132700999733,,,,,,,,,,,,,,,,,,,647.1385792999063,647.1476085999748,647.1476085999748,647.1476085999748,650.1238988999976,f,1.3241877000546083,0.12784720002673566,650.1239555999637,650.1239683999447,None,,,,,,,,,,,,,,00038,001,2026-01-23_16h36.46.044,MST_task,2024.2.0,59.81236857759541,2026-01-23 16h36.58.811417 +0530,
,Scenes\167a.jpg,160,0,161,,,,,f,0.9469566000625491,0.12061709992121905,None,,,,,,161,0,160,650.1407359999139,,,,,,,,,,,,,,,,,,,,,,,650.1243017999223,650.1407359999139,650.6255863999249,,,,,,,,,,,,,,,,,,,650.6522003000136,650.676876799902,650.676876799902,650.676876799902,653.6361565999687,f,0.9469566000625491,0.12061709992121905,653.6362161999568,653.6362283999333,None,,,,,,,,,,,,,,00038,001,2026-01-23_16h36.46.044,MST_task,2024.2.0,59.81236857759541,2026-01-23 16h36.58.811417 +0530,
,Objects\158a.jpg,161,0,162,,,,,f,0.9312884999671951,0.13619980006478727,None,,,,,,162,0,161,653.652900999994,,,,,,,,,,,,,,,,,,,,,,,653.6363257999765,653.652900999994,654.1380328999367,,,,,,,,,,,,,,,,,,,654.1637709999923,654.1722421000013,654.1722421000013,654.1722421000013,657.1484877999173,f,0.9312884999671951,0.13619980006478727,657.1485440999968,657.1485569999786,None,,,,,,,,,,,,,,00038,001,2026-01-23_16h36.46.044,MST_task,2024.2.0,59.81236857759541,2026-01-23 16h36.58.811417 +0530,
,Objects\040a.jpg,162,0,163,,,,,f,0.5565158999525011,0.13545850000809878,None,,,,,,163,0,162,657.1650766999228,,,,,,,,,,,,,,,,,,,,,,,657.1486771999625,657.1650766999228,657.650292599923,,,,,,,,,,,,,,,,,,,657.6711791999405,657.6835188999539,657.6835188999539,657.6835188999539,660.6616182000143,f,0.5565158999525011,0.13545850000809878,660.6616877999622,660.661700299941,None,,,,,,,,,,,,,,00038,001,2026-01-23_16h36.46.044,MST_task,2024.2.0,59.81236857759541,2026-01-23 16h36.58.811417 +0530,
,Objects\144a.jpg,163,0,164,,,,,f,1.9864570000208914,0.17610099993180484,None,,,,,,164,0,163,660.6776540999999,,,,,,,,,,,,,,,,,,,,,,,660.6617718999041,660.6776540999999,661.162799899932,,,,,,,,,,,,,,,,,,,661.1840062999399,661.1969468999887,661.1969468999887,661.1969468999887,664.1730750999413,f,1.9864570000208914,0.17610099993180484,664.1731313999044,664.173143699998,None,,,,,,,,,,,,,,00038,001,2026-01-23_16h36.46.044,MST_task,2024.2.0,59.81236857759541,2026-01-23 16h36.58.811417 +0530,
,Objects\086a.jpg,164,0,165,,,,,f,0.9569470999995247,0.15096700005233288,None,,,,,,165,0,164,664.1897473999998,,,,,,,,,,,,,,,,,,,,,,,664.1732428999385,664.1897473999998,664.6748821999645,,,,,,,,,,,,,,,,,,,664.6989286999451,664.7082366999239,664.7082366999239,664.7082366999239,667.685427499935,f,0.9569470999995247,0.15096700005233288,667.6854820000008,667.6854940999765,None,,,,,,,,,,,,,,00038,001,2026-01-23_16h36.46.044,MST_task,2024.2.0,59.81236857759541,2026-01-23 16h36.58.811417 +0530,
,Objects\128a.jpg,165,0,166,,,,,f,2.1071639000438154,0.19903210003394634,None,,,,,,166,0,165,667.7022977999877,,,,,,,,,,,,,,,,,,,,,,,667.6855885999976,667.7022977999877,668.1883807999548,,,,,,,,,,,,,,,,,,,668.2109107999131,668.2213199000107,668.2213199000107,668.2213199000107,671.19778269995,f,2.1071639000438154,0.19903210003394634,671.1978500999976,671.1978690999094,None,,,,,,,,,,,,,,00038,001,2026-01-23_16h36.46.044,MST_task,2024.2.0,59.81236857759541,2026-01-23 16h36.58.811417 +0530,
,Objects\162a.jpg,166,0,167,,,,,f,0.9147953999927267,0.18402869999408722,None,,,,,,167,0,166,671.2142770999344,,,,,,,,,,,,,,,,,,,,,,,671.197963799932,671.2142770999344,671.699458399904,,,,,,,,,,,,,,,,,,,671.720455499948,671.7327442999231,671.7327442999231,671.7327442999231,674.7109253999079,f,0.9147953999927267,0.18402869999408722,674.7109776999569,674.7109898999333,None,,,,,,,,,,,,,,00038,001,2026-01-23_16h36.46.044,MST_task,2024.2.0,59.81236857759541,2026-01-23 16h36.58.811417 +0530,
,Objects\179a.jpg,167,0,168,,,,,f,0.8027422999730334,0.19179730000905693,None,,,,,,168,0,167,674.7265766999917,,,,,,,,,,,,,,,,,,,,,,,674.711060600006,674.7265766999917,675.2118890999118,,,,,,,,,,,,,,,,,,,675.2325338999508,675.245146799949,675.245146799949,675.245146799949,678.2222696999088,f,0.8027422999730334,0.19179730000905693,678.222335999948,678.2223489999305,None,,,,,,,,,,,,,,00038,001,2026-01-23_16h36.46.044,MST_task,2024.2.0,59.81236857759541,2026-01-23 16h36.58.811417 +0530,
,Scenes\032a.jpg,168,0,169,,,,,j,0.6323005999438465,0.15234949998557568,None,,,,,,169,0,168,678.2389837999362,,,,,,,,,,,,,,,,,,,,,,,678.2224427999463,678.2389837999362,678.7239686999237,,,,,,,,,,,,,,,,,,,678.7556538999779,678.7751009999774,678.7751009999774,678.7751009999774,681.7345806999365,j,0.6323005999438465,0.15234949998557568,681.7346627999796,681.7346781999804,None,,,,,,,,,,,,,,00038,001,2026-01-23_16h36.46.044,MST_task,2024.2.0,59.81236857759541,2026-01-23 16h36.58.811417 +0530,
,Scenes\164a.jpg,169,0,170,,,,,j,0.4885671000229195,0.15282059996388853,None,,,,,,170,0,169,681.7512874999084,,,,,,,,,,,,,,,,,,,,,,,681.7350277999649,681.7512874999084,682.2362631999422,,,,,,,,,,,,,,,,,,,682.2631499000126,682.2871911999537,682.2871911999537,682.2871911999537,685.247065500007,j,0.4885671000229195,0.15282059996388853,685.24712179997,685.2471343999496,None,,,,,,,,,,,,,,00038,001,2026-01-23_16h36.46.044,MST_task,2024.2.0,59.81236857759541,2026-01-23 16h36.58.811417 +0530,
,Scenes\188a.jpg,170,0,171,,,,,j,0.55212260002736,0.16815469996072352,None,,,,,,171,0,170,685.2634750999277,,,,,,,,,,,,,,,,,,,,,,,685.2472296999767,685.2634750999277,685.7506598999025,,,,,,,,,,,,,,,,,,,685.7721958999755,685.7995107999304,685.7995107999304,685.7995107999304,688.7590519000078,j,0.55212260002736,0.16815469996072352,688.7591287000105,688.7591455999063,None,,,,,,,,,,,,,,00038,001,2026-01-23_16h36.46.044,MST_task,2024.2.0,59.81236857759541,2026-01-23 16h36.58.811417 +0530,
,Scenes\027a.jpg,171,0,172,,,,,f,1.0491991000017151,0.12794999999459833,None,,,,,,172,0,171,688.7758811999811,,,,,,,,,,,,,,,,,,,,,,,688.759218799998,688.7758811999811,689.2608540999936,,,,,,,,,,,,,,,,,,,689.2826900999062,689.294854799984,689.294854799984,689.294854799984,692.2716577999527,f,1.0491991000017151,0.12794999999459833,692.2717144999187,692.2717298999196,None,,,,,,,,,,,,,,00038,001,2026-01-23_16h36.46.044,MST_task,2024.2.0,59.81236857759541,2026-01-23 16h36.58.811417 +0530,
,Scenes\189a.jpg,172,0,173,,,,,j,0.5834046000381932,0.15281899995170534,None,,,,,,173,0,172,692.2882353999885,,,,,,,,,,,,,,,,,,,,,,,692.2718226999277,692.2882353999885,692.7734829999972,,,,,,,,,,,,,,,,,,,692.7984089999227,692.8243715999415,692.8243715999415,692.8243715999415,695.7839351999573,j,0.5834046000381932,0.15281899995170534,695.7839893999044,695.7840013999958,None,,,,,,,,,,,,,,00038,001,2026-01-23_16h36.46.044,MST_task,2024.2.0,59.81236857759541,2026-01-23 16h36.58.811417 +0530,
,Scenes\113a.jpg,173,0,174,,,,,j,0.7445763000287116,0.1762989000417292,None,,,,,,174,0,173,695.800533499918,,,,,,,,,,,,,,,,,,,,,,,695.784072099952,695.800533499918,696.2857528999448,,,,,,,,,,,,,,,,,,,696.3123002999928,696.3193835999118,696.3193835999118,696.3193835999118,699.2960634999909,j,0.7445763000287116,0.1762989000417292,699.2961444999091,699.2961563999997,None,,,,,,,,,,,,,,00038,001,2026-01-23_16h36.46.044,MST_task,2024.2.0,59.81236857759541,2026-01-23 16h36.58.811417 +0530,
,Scenes\065a.jpg,174,0,175,,,,,j,0.8891195999458432,0.1679275999777019,None,,,,,,175,0,174,699.3129217999522,,,,,,,,,,,,,,,,,,,,,,,699.2962525999174,699.3129217999522,699.7980902999407,,,,,,,,,,,,,,,,,,,699.8205529999686,699.8316826999653,699.8316826999653,699.8316826999653,702.8083853999851,j,0.8891195999458432,0.1679275999777019,702.8084401999367,702.8084527999163,None,,,,,,,,,,,,,,00038,001,2026-01-23_16h36.46.044,MST_task,2024.2.0,59.81236857759541,2026-01-23 16h36.58.811417 +0530,
,Objects\180a.jpg,175,0,176,,,,,f,1.2317742001032457,0.14444289996754378,None,,,,,,176,0,175,702.8251027999213,,,,,,,,,,,,,,,,,,,,,,,702.8085453999229,702.8251027999213,703.3100543000037,,,,,,,,,,,,,,,,,,,703.332792299916,703.3438751999056,703.3438751999056,703.3438751999056,706.3207064999733,f,1.2317742001032457,0.14444289996754378,706.3207600999158,706.3207732000155,None,,,,,,,,,,,,,,00038,001,2026-01-23_16h36.46.044,MST_task,2024.2.0,59.81236857759541,2026-01-23 16h36.58.811417 +0530,
,Objects\022a.jpg,176,0,177,,,,,None,,,f,0.0381325000198558,None,,,,177,0,176,706.3376787999878,,,,,,,,,,,,,,,,,,,,,,,706.3208447999787,706.3376787999878,706.8223400999559,,,,,,,,,,,,,,,,,,,706.8448192999931,706.8558143000118,706.8558143000118,706.8558143000118,709.8328738999553,None,,,709.8329390999861,709.9003001999808,f,709.8497550999746,709.8497550999746,0.0381325000198558,None,,,,,,,,,,00038,001,2026-01-23_16h36.46.044,MST_task,2024.2.0,59.81236857759541,2026-01-23 16h36.58.811417 +0530,
,Objects\135a.jpg,177,0,178,,,,,f,0.9086443999549374,0.08874659996945411,None,,,,,,178,0,177,709.9165805999655,,,,,,,,,,,,,,,,,,,,,,,709.9003899999661,709.9165805999655,710.4015282999026,,,,,,,,,,,,,,,,,,,710.4227377999341,710.4350207999814,710.4350207999814,710.4350207999814,713.412476599915,f,0.9086443999549374,0.08874659996945411,713.4125451999716,713.4125583999557,None,,,,,,,,,,,,,,00038,001,2026-01-23_16h36.46.044,MST_task,2024.2.0,59.81236857759541,2026-01-23 16h36.58.811417 +0530,
,Objects\068a.jpg,178,0,179,,,,,j,1.11613480001688,0.12116149999201298,None,,,,,,179,0,178,713.4289605999365,,,,,,,,,,,,,,,,,,,,,,,713.4126483999426,713.4289605999365,713.9139649999561,,,,,,,,,,,,,,,,,,,713.9360305999871,713.9472834999906,713.9472834999906,713.9472834999906,716.9243588999379,j,1.11613480001688,0.12116149999201298,716.9244227999588,716.9244369999506,None,,,,,,,,,,,,,,00038,001,2026-01-23_16h36.46.044,MST_task,2024.2.0,59.81236857759541,2026-01-23 16h36.58.811417 +0530,
,Objects\141a.jpg,179,0,180,,,,,f,0.8362283000024036,0.14387569995597005,None,,,,,,180,0,179,716.9411628999515,,,,,,,,,,,,,,,,,,,,,,,716.9245069000171,716.9411628999515,717.4262862999458,,,,,,,,,,,,,,,,,,,717.4490263999905,717.4596673999913,717.4596673999913,717.4596673999913,720.4369376999093,f,0.8362283000024036,0.14387569995597005,720.4369919999735,720.4370049999561,None,,,,,,,,,,,,,,00038,001,2026-01-23_16h36.46.044,MST_task,2024.2.0,59.81236857759541,2026-01-23 16h36.58.811417 +0530,
,Objects\080a.jpg,180,0,181,,,,,f,0.9159126000013202,0.13701019994914532,None,,,,,,181,0,180,720.4544108000118,,,,,,,,,,,,,,,,,,,,,,,720.4370950999437,720.4544108000118,720.9385647999588,,,,,,,,,,,,,,,,,,,720.959302400006,720.9717977999244,720.9717977999244,720.9717977999244,723.9489279999398,f,0.9159126000013202,0.13701019994914532,723.948992999969,723.9490056999493,None,,,,,,,,,,,,,,00038,001,2026-01-23_16h36.46.044,MST_task,2024.2.0,59.81236857759541,2026-01-23 16h36.58.811417 +0530,
,Objects\184a.jpg,181,0,182,,,,,f,1.1641837999923155,0.1749765999848023,None,,,,,,182,0,181,723.9657630999573,,,,,,,,,,,,,,,,,,,,,,,723.9490751000121,723.9657630999573,724.4507369999774,,,,,,,,,,,,,,,,,,,724.4720658999868,724.4842945999699,724.4842945999699,724.4842945999699,727.4612953999313,f,1.1641837999923155,0.1749765999848023,727.4613483999856,727.4613604999613,None,,,,,,,,,,,,,,00038,001,2026-01-23_16h36.46.044,MST_task,2024.2.0,59.81236857759541,2026-01-23 16h36.58.811417 +0530,
,Scenes\157a.jpg,182,0,183,,,,,j,0.6444818999152631,0.1425969999982044,None,,,,,,183,0,182,727.4780688999454,,,,,,,,,,,,,,,,,,,,,,,727.4614554999862,727.4780688999454,727.963030599989,,,,,,,,,,,,,,,,,,,727.9857205000008,727.9965912000043,727.9965912000043,727.9965912000043,730.9736505999463,j,0.6444818999152631,0.1425969999982044,730.9740068999818,730.974021699978,None,,,,,,,,,,,,,,00038,001,2026-01-23_16h36.46.044,MST_task,2024.2.0,59.81236857759541,2026-01-23 16h36.58.811417 +0530,
,Scenes\042a.jpg,183,0,184,,,,,j,1.041525400010869,0.15157049999106675,None,,,,,,184,0,183,730.9902457999997,,,,,,,,,,,,,,,,,,,,,,,730.9741169000044,730.9902457999997,731.4754755999893,,,,,,,,,,,,,,,,,,,731.5009868999477,731.5265634999378,731.5265634999378,731.5265634999378,734.4859746999573,j,1.041525400010869,0.15157049999106675,734.4860571000027,734.4860699999845,None,,,,,,,,,,,,,,00038,001,2026-01-23_16h36.46.044,MST_task,2024.2.0,59.81236857759541,2026-01-23 16h36.58.811417 +0530,
,Scenes\003a.jpg,184,0,185,,,,,j,0.7295334000373259,0.20022510003764182,None,,,,,,185,0,184,734.5034647999564,,,,,,,,,,,,,,,,,,,,,,,734.4861420999514,734.5034647999564,734.9881383999018,,,,,,,,,,,,,,,,,,,735.0162343999837,735.0381482999073,735.0381482999073,735.0381482999073,737.9987015000079,j,0.7295334000373259,0.20022510003764182,737.9987568999641,737.9987696999451,None,,,,,,,,,,,,,,00038,001,2026-01-23_16h36.46.044,MST_task,2024.2.0,59.81236857759541,2026-01-23 16h36.58.811417 +0530,
,Scenes\059a.jpg,185,0,186,,,,,j,0.7207763999467716,0.16104819998145103,None,,,,,,186,0,185,738.0159201999195,,,,,,,,,,,,,,,,,,,,,,,737.998866399983,738.0159201999195,738.5012270999141,,,,,,,,,,,,,,,,,,,738.5274434000021,738.5506256999215,738.5506256999215,738.5506256999215,741.5104390999768,j,0.7207763999467716,0.16104819998145103,741.5104928999208,741.510505400016,None,,,,,,,,,,,,,,00038,001,2026-01-23_16h36.46.044,MST_task,2024.2.0,59.81236857759541,2026-01-23 16h36.58.811417 +0530,
,Scenes\145a.jpg,186,0,187,,,,,j,1.5214444000739604,0.15315339993685484,None,,,,,,187,0,186,741.5272708999692,,,,,,,,,,,,,,,,,,,,,,,741.5105987999123,741.5272708999692,742.0122315000044,,,,,,,,,,,,,,,,,,,742.0396424999926,742.0623164999997,742.0623164999997,742.0623164999997,745.0227494999999,j,1.5214444000739604,0.15315339993685484,745.0228320999304,745.0228459999198,None,,,,,,,,,,,,,,00038,001,2026-01-23_16h36.46.044,MST_task,2024.2.0,59.81236857759541,2026-01-23 16h36.58.811417 +0530,
