Sl_no,image_path,thisN,thisTrialN,thisRepN,key_resp_5.keys,key_resp_7.keys,key_resp_7.rt,key_resp_7.duration,key_resp_9.keys,key_resp_8.keys,key_resp_8.rt,key_resp_8.duration,key_resp_9.rt,key_resp_9.duration,practice.thisRepN,practice.thisTrialN,practice.thisN,trials.thisRepN,trials.thisTrialN,trials.thisN,thisRow.t,notes,welcome_page.started,text.started,key_resp.started,welcome_page.stopped,key_resp.keys,key_resp.rt,key_resp.duration,instructions.started,ins.started,key_resp_2.started,instructions.stopped,key_resp_2.keys,key_resp_2.rt,key_resp_2.duration,objects_only_instruction.started,text_3.started,key_resp_3.started,objects_only_instruction.stopped,key_resp_3.keys,key_resp_3.rt,key_resp_3.duration,ISI.started,text_4.started,text_4.stopped,ISI.stopped,practice_block.started,image.started,text_5.started,key_resp_5.started,practice_block.stopped,practice.key_resp_5.keys,indoor_outdoor.started,text_7.started,key_resp_7.started,indoor_outdoor.stopped,practice.key_resp_7.keys,practice.key_resp_7.rt,practice.key_resp_7.duration,image.stopped,text_5.stopped,key_resp_5.stopped,practice_to_main.started,text_2.started,key_resp_4.started,practice_to_main.stopped,key_resp_4.keys,key_resp_4.rt,key_resp_4.duration,objects.started,image_2.started,text_9.started,key_resp_9.started,image_2.stopped,text_9.stopped,key_resp_9.stopped,objects.stopped,trials.key_resp_9.keys,encoding_task.started,text_8.started,key_resp_8.started,encoding_task.stopped,trials.key_resp_8.keys,trials.key_resp_8.rt,trials.key_resp_8.duration,trials.key_resp_9.rt,trials.key_resp_9.duration,end_experiment.started,text_6.started,key_resp_6.started,end_experiment.stopped,key_resp_6.keys,key_resp_6.rt,key_resp_6.duration,list_of_stimuli,encoding_task_accuracy,participant,session,date,expName,psychopyVersion,frameRate,expStart,
,,,,,,,,,,,,,,,,,,,,,,,0.0012789999600499868,0.003494100004900247,0.003494100004900247,15.515794299950358,space,15.500609300041106,None,,,,,,,,,,,,,,,,,,,,,,,,,,,,,,,,,,,,,,,,,,,,,,,,,,,,,,,,,,,,,,,,,,,,,00035,001,2026-01-22_20h53.05.508,MST_task,2024.2.0,59.83001098090005,2026-01-22 20h53.14.213464 +0530,
,,,,,,,,,,,,,,,,,,,,,,,,,,,,,,15.515931300004013,15.530685899953824,15.530685899953824,64.57680899999104,space,49.02976230002241,None,,,,,,,,,,,,,,,,,,,,,,,,,,,,,,,,,,,,,,,,,,,,,,,,,,,,,,,,,,,,,,00035,001,2026-01-22_20h53.05.508,MST_task,2024.2.0,59.83001098090005,2026-01-22 20h53.14.213464 +0530,
,,,,,,,,,,,,,,,,,,,,,,,,,,,,,,,,,,,,,64.57695189997321,64.60147719999077,64.60147719999077,115.3601861000061,space,50.74237010005163,None,,,,,,,,,,,,,,,,,,,,,,,,,,,,,,,,,,,,,,,,,,,,,,,,,,,,,,,00035,001,2026-01-22_20h53.05.508,MST_task,2024.2.0,59.83001098090005,2026-01-22 20h53.14.213464 +0530,
10,practice_images/182a.jpg,0,0,1,None,f,2.5717341999989003,None,,,,,,,1,0,0,,,,115.37569239997538,,,,,,,,,,,,,,,,,,,,,,,115.3715824999963,115.37569239997538,115.90216149995103,115.8599728999543,115.86993819999043,115.90216149995103,115.90216149995103,115.90216149995103,118.87611349998042,None,118.88179139996646,118.89255180000328,118.89255180000328,121.47665510000661,f,2.5717341999989003,None,,,,,,,,,,,,,,,,,,,,,,,,,,,,,,,,,,,,,,00035,001,2026-01-22_20h53.05.508,MST_task,2024.2.0,59.83001098090005,2026-01-22 20h53.14.213464 +0530,
9,practice_images/180a.jpg,1,1,1,None,f,1.3672785999951884,None,,,,,,,1,1,1,,,,121.4928479999653,,,,,,,,,,,,,,,,,,,,,,,121.47699489997467,121.4928479999653,121.99304689996643,121.97652309999103,121.98262979998253,121.99304689996643,121.99304689996643,121.99304689996643,124.97668490000069,None,124.97684639994986,124.99274339998374,124.99274339998374,126.37660859996686,f,1.3672785999951884,None,124.99274339998374,124.99274339998374,124.99274339998374,,,,,,,,,,,,,,,,,,,,,,,,,,,,,,,,,,,00035,001,2026-01-22_20h53.05.508,MST_task,2024.2.0,59.83001098090005,2026-01-22 20h53.14.213464 +0530,
1,practice_images/013a.jpg,2,2,1,None,j,0.6669281999929808,None,,,,,,,1,2,2,,,,126.39285199996084,,,,,,,,,,,,,,,,,,,,,,,126.37693049997324,126.39285199996084,,126.87710309994873,126.88266219996149,126.89308149996214,126.89308149996214,126.89308149996214,129.87670039996738,None,129.8768627999816,129.89270519994898,129.89270519994898,130.5766272000037,j,0.6669281999929808,None,129.89270519994898,129.89270519994898,129.89270519994898,,,,,,,,,,,,,,,,,,,,,,,,,,,,,,,,,,,00035,001,2026-01-22_20h53.05.508,MST_task,2024.2.0,59.83001098090005,2026-01-22 20h53.14.213464 +0530,
8,practice_images/178a.jpg,3,3,1,None,j,0.5552118000341579,None,,,,,,,1,3,3,,,,130.5925300999661,,,,,,,,,,,,,,,,,,,,,,,130.57694489997812,130.5925300999661,131.09293509996496,131.0764949999866,131.08240189997014,131.09293509996496,131.09293509996496,131.09293509996496,134.07641469995724,None,134.07657979999203,134.0928578999592,134.0928578999592,134.65971290000016,j,0.5552118000341579,None,134.0928578999592,134.0928578999592,134.0928578999592,,,,,,,,,,,,,,,,,,,,,,,,,,,,,,,,,,,00035,001,2026-01-22_20h53.05.508,MST_task,2024.2.0,59.83001098090005,2026-01-22 20h53.14.213464 +0530,
3,practice_images/037a.jpg,4,4,1,None,f,0.43231130001368,None,,,,,,,1,4,4,,,,134.67595839995192,,,,,,,,,,,,,,,,,,,,,,,134.66005389997736,134.67595839995192,135.17628039995907,135.15991829999257,135.16536429995904,135.17628039995907,135.17628039995907,135.17628039995907,138.1598507000017,None,138.16001019999385,138.17597359995125,138.17597359995125,138.60978090000572,f,0.43231130001368,None,138.17597359995125,138.17597359995125,138.17597359995125,,,,,,,,,,,,,,,,,,,,,,,,,,,,,,,,,,,00035,001,2026-01-22_20h53.05.508,MST_task,2024.2.0,59.83001098090005,2026-01-22 20h53.14.213464 +0530,
7,practice_images/166a.jpg,5,5,1,None,f,0.35334639996290207,None,,,,,,,1,5,5,,,,138.62575919996016,,,,,,,,,,,,,,,,,,,,,,,138.6101803999627,138.62575919996016,139.12630770000396,139.1099791000015,139.1147277999553,139.12630770000396,139.12630770000396,139.12630770000396,142.1101112999604,None,142.1102838999941,142.12613649998093,142.12613649998093,142.49308929999825,f,0.35334639996290207,None,142.12613649998093,142.12613649998093,142.12613649998093,,,,,,,,,,,,,,,,,,,,,,,,,,,,,,,,,,,00035,001,2026-01-22_20h53.05.508,MST_task,2024.2.0,59.83001098090005,2026-01-22 20h53.14.213464 +0530,
4,practice_images/002b.jpg,6,6,1,None,f,0.3587899000267498,None,,,,,,,1,6,6,,,,142.509218399995,,,,,,,,,,,,,,,,,,,,,,,142.49341339996317,142.509218399995,143.00964369997382,142.9932461999706,142.99941389996093,143.00964369997382,143.00964369997382,143.00964369997382,145.9933167999843,None,145.99350499996217,146.009476599982,146.009476599982,146.3766278999974,f,0.3587899000267498,None,,,,,,,,,,,,,,,,,,,,,,,,,,,,,,,,,,,,,,00035,001,2026-01-22_20h53.05.508,MST_task,2024.2.0,59.83001098090005,2026-01-22 20h53.14.213464 +0530,
6,practice_images/158a.jpg,7,7,1,None,j,1.1318205000134185,None,,,,,,,1,7,7,,,,146.39287439995678,,,,,,,,,,,,,,,,,,,,,,,146.37696859997232,146.39287439995678,146.89276689995313,146.8765233999584,146.88194669998484,146.89276689995313,146.89276689995313,146.89276689995313,149.87641139997868,None,149.87657609995222,149.89244500000495,149.89244500000495,151.02630379999755,j,1.1318205000134185,None,149.89244500000495,149.89244500000495,149.89244500000495,,,,,,,,,,,,,,,,,,,,,,,,,,,,,,,,,,,00035,001,2026-01-22_20h53.05.508,MST_task,2024.2.0,59.83001098090005,2026-01-22 20h53.14.213464 +0530,
2,practice_images/031a.jpg,8,8,1,None,f,0.44953240000177175,None,,,,,,,1,8,8,,,,151.0428398999502,,,,,,,,,,,,,,,,,,,,,,,151.0266236999887,151.0428398999502,151.5430667999899,151.52631519996794,151.53188189998036,151.5430667999899,151.5430667999899,151.5430667999899,154.52658089995384,None,154.52674979995936,154.54285739996703,154.54285739996703,154.9936603999813,f,0.44953240000177175,None,154.54285739996703,154.54285739996703,154.54285739996703,,,,,,,,,,,,,,,,,,,,,,,,,,,,,,,,,,,00035,001,2026-01-22_20h53.05.508,MST_task,2024.2.0,59.83001098090005,2026-01-22 20h53.14.213464 +0530,
5,practice_images/139a.jpg,9,9,1,None,j,0.570719100011047,None,,,,,,,1,9,9,,,,155.00922999996692,,,,,,,,,,,,,,,,,,,,,,,154.99402589997044,155.00922999996692,155.50948649999918,155.49307119997684,155.49855379998917,155.50948649999918,155.50948649999918,155.50948649999918,158.4933320999844,None,158.49350629997207,158.5095412999508,158.5095412999508,159.09338969999226,j,0.570719100011047,None,158.5095412999508,158.5095412999508,158.5095412999508,,,,,,,,,,,,,,,,,,,,,,,,,,,,,,,,,,,00035,001,2026-01-22_20h53.05.508,MST_task,2024.2.0,59.83001098090005,2026-01-22 20h53.14.213464 +0530,
,,,,,,,,,,,,,,,,,,,,,,,,,,,,,,,,,,,,,,,,,,,,,,,,,,,,,,,,,,,,,,,,159.09364409995032,159.10936269996455,159.10936269996455,175.5263923999737,space,16.402275100001134,None,,,,,,,,,,,,,,,,,,,,,,,,,,,,00035,001,2026-01-22_20h53.05.508,MST_task,2024.2.0,59.83001098090005,2026-01-22 20h53.14.213464 +0530,
,Objects\174a.jpg,0,0,1,,,,,None,f,0.8296533999964595,None,,,,,,1,0,0,175.54256400000304,,,,,,,,,,,,,,,,,,,,,,,175.5296616999549,175.54256400000304,176.0428372999886,176.02653410000494,,,,,,,,,,,,,,,,,,,,,,,,176.03840239997953,176.0428372999886,176.0428372999886,176.0428372999886,179.0425539999851,179.0425539999851,179.0425539999851,179.02730249997694,None,179.0326064999681,179.0425539999851,179.0425539999851,179.8766367000062,f,0.8296533999964595,None,,,,,,,,,,,,00035,001,2026-01-22_20h53.05.508,MST_task,2024.2.0,59.83001098090005,2026-01-22 20h53.14.213464 +0530,
,Objects\063a.jpg,1,0,2,,,,,None,f,0.42337819997919723,None,,,,,,2,0,1,179.8928600999643,,,,,,,,,,,,,,,,,,,,,,,179.87716279999586,179.8928600999643,180.39311089995317,180.3765189999831,,,,,,,,,,,,,,,,,,,,,,,,180.38606329995673,180.39311089995317,180.39311089995317,180.39311089995317,183.3928595999605,183.3928595999605,183.3928595999605,183.3769872999983,None,183.37716249999357,183.3928595999605,183.3928595999605,183.82641280000098,f,0.42337819997919723,None,,,,,,,,,,,,00035,001,2026-01-22_20h53.05.508,MST_task,2024.2.0,59.83001098090005,2026-01-22 20h53.14.213464 +0530,
,Objects\084a.jpg,2,0,3,,,,,None,f,0.5753968000062741,None,,,,,,3,0,2,183.84285369998543,,,,,,,,,,,,,,,,,,,,,,,183.82691069995053,183.84285369998543,184.34309199999552,184.32651169999735,,,,,,,,,,,,,,,,,,,,,,,,184.33561889996054,184.34309199999552,184.34309199999552,184.34309199999552,187.34442169999238,187.34442169999238,187.34442169999238,187.3270967999706,None,187.32727569999406,187.34442169999238,187.34442169999238,187.92663099995116,f,0.5753968000062741,None,,,,,,,,,,,,00035,001,2026-01-22_20h53.05.508,MST_task,2024.2.0,59.83001098090005,2026-01-22 20h53.14.213464 +0530,
,Objects\025a.jpg,3,0,4,,,,,None,j,0.29310319997603074,None,,,,,,4,0,3,187.94275899999775,,,,,,,,,,,,,,,,,,,,,,,187.92709059995832,187.94275899999775,188.44308749999618,188.42639709997457,,,,,,,,,,,,,,,,,,,,,,,,188.43300369998906,188.44308749999618,188.44308749999618,188.44308749999618,191.44288469996536,191.44288469996536,191.44288469996536,191.42733189999126,None,191.42751949996455,191.44288469996536,191.44288469996536,191.7434179999982,j,0.29310319997603074,None,,,,,,,,,,,,00035,001,2026-01-22_20h53.05.508,MST_task,2024.2.0,59.83001098090005,2026-01-22 20h53.14.213464 +0530,
,Objects\055a.jpg,4,0,5,,,,,None,f,0.34072209999430925,None,,,,,,5,0,4,191.7595487999497,,,,,,,,,,,,,,,,,,,,,,,191.74388739996357,191.7595487999497,192.25977349997265,192.2433716999949,,,,,,,,,,,,,,,,,,,,,,,,192.25219369999832,192.25977349997265,192.25977349997265,192.25977349997265,195.25908779999008,195.25908779999008,195.25908779999008,195.24373499996727,None,195.24393269995926,195.25908779999008,195.25908779999008,195.6100564999506,f,0.34072209999430925,None,,,,,,,,,,,,00035,001,2026-01-22_20h53.05.508,MST_task,2024.2.0,59.83001098090005,2026-01-22 20h53.14.213464 +0530,
,Objects\003a.jpg,5,0,6,,,,,None,j,0.2494464999763295,None,,,,,,6,0,5,195.62612269999227,,,,,,,,,,,,,,,,,,,,,,,195.61039819999132,195.62612269999227,196.1262281999807,196.10994689998915,,,,,,,,,,,,,,,,,,,,,,,,196.11648359999526,196.1262281999807,196.1262281999807,196.1262281999807,199.12614859995665,199.12614859995665,199.12614859995665,199.11082599998917,None,199.11101729999064,199.12614859995665,199.12614859995665,199.3761885999702,j,0.2494464999763295,None,,,,,,,,,,,,00035,001,2026-01-22_20h53.05.508,MST_task,2024.2.0,59.83001098090005,2026-01-22 20h53.14.213464 +0530,
,Objects\007a.jpg,6,0,7,,,,,None,f,0.29883119999431074,None,,,,,,7,0,6,199.39244119997602,,,,,,,,,,,,,,,,,,,,,,,199.37652970000636,199.39244119997602,,199.87806039996212,,,,,,,,,,,,,,,,,,,,,,,,199.895700699999,199.89845259999856,199.89845259999856,199.89845259999856,,,,202.8765072999522,None,202.87672859994927,202.89286909997463,202.89286909997463,203.19306269998197,f,0.29883119999431074,None,,,,,,,,,,,,00035,001,2026-01-22_20h53.05.508,MST_task,2024.2.0,59.83001098090005,2026-01-22 20h53.14.213464 +0530,
,Scenes\166a.jpg,7,0,8,,,,,None,j,0.28226960002211854,None,,,,,,8,0,7,203.2095255999593,,,,,,,,,,,,,,,,,,,,,,,203.19340019999072,203.2095255999593,203.7097330999677,203.69326599995838,,,,,,,,,,,,,,,,,,,,,,,,203.70651599997655,203.7097330999677,203.7097330999677,203.7097330999677,206.7094060999807,206.7094060999807,206.7094060999807,206.69404259999283,None,206.69422499998473,206.7094060999807,206.7094060999807,206.9930822000024,j,0.28226960002211854,None,,,,,,,,,,,,00035,001,2026-01-22_20h53.05.508,MST_task,2024.2.0,59.83001098090005,2026-01-22 20h53.14.213464 +0530,
,Scenes\073a.jpg,8,0,9,,,,,None,j,0.3228221000172198,None,,,,,,9,0,8,207.0093319999869,,,,,,,,,,,,,,,,,,,,,,,206.99341509997612,207.0093319999869,207.50948329997482,207.49293529998977,,,,,,,,,,,,,,,,,,,,,,,,207.50656419998268,207.50948329997482,207.50948329997482,207.50948329997482,210.5094085999881,210.5094085999881,210.5094085999881,210.49403649999294,None,210.49422150000464,210.5094085999881,210.5094085999881,210.8434948999784,j,0.3228221000172198,None,,,,,,,,,,,,00035,001,2026-01-22_20h53.05.508,MST_task,2024.2.0,59.83001098090005,2026-01-22 20h53.14.213464 +0530,
,Scenes\008a.jpg,9,0,10,,,,,None,f,0.5344703000155278,None,,,,,,10,0,9,210.85931089997757,,,,,,,,,,,,,,,,,,,,,,,210.8439636999974,210.85931089997757,211.3643802999868,211.3430412999587,,,,,,,,,,,,,,,,,,,,,,,,211.36137949995464,211.3643802999868,211.3643802999868,211.3643802999868,,,,214.3599700999912,None,214.36017489997903,214.37703239999246,214.37703239999246,214.92670630000066,f,0.5344703000155278,None,,,,,,,,,,,,00035,001,2026-01-22_20h53.05.508,MST_task,2024.2.0,59.83001098090005,2026-01-22 20h53.14.213464 +0530,
,Scenes\080a.jpg,10,0,11,,,,,None,j,0.405465199961327,None,,,,,,11,0,10,214.94288859999506,,,,,,,,,,,,,,,,,,,,,,,214.92708150000544,214.94288859999506,215.4430850999779,215.42651279998245,,,,,,,,,,,,,,,,,,,,,,,,215.43990629998734,215.4430850999779,215.4430850999779,215.4430850999779,,,,218.42715439997846,None,218.427367199969,218.44273019995308,218.44273019995308,218.86008839996066,j,0.405465199961327,None,,,,,,,,,,,,00035,001,2026-01-22_20h53.05.508,MST_task,2024.2.0,59.83001098090005,2026-01-22 20h53.14.213464 +0530,
,Scenes\159a.jpg,11,0,12,,,,,None,j,0.3349269999889657,None,,,,,,12,0,11,218.87603250000393,,,,,,,,,,,,,,,,,,,,,,,218.8605919999536,218.87603250000393,219.38246860000072,219.35977669997374,,,,,,,,,,,,,,,,,,,,,,,,219.37987989996327,219.38246860000072,219.38246860000072,219.38246860000072,,,,222.37652239995077,None,222.37670169997727,222.3929092999897,222.3929092999897,222.74343390000286,j,0.3349269999889657,None,,,,,,,,,,,,00035,001,2026-01-22_20h53.05.508,MST_task,2024.2.0,59.83001098090005,2026-01-22 20h53.14.213464 +0530,
,Scenes\136a.jpg,12,0,13,,,,,None,f,0.3002138999872841,None,,,,,,13,0,12,222.75924569997005,,,,,,,,,,,,,,,,,,,,,,,222.74393299996154,222.75924569997005,223.26009900000645,223.24329159996705,,,,,,,,,,,,,,,,,,,,,,,,223.25440589996288,223.26009900000645,223.26009900000645,223.26009900000645,226.25937499996508,226.25937499996508,226.25937499996508,226.24369759997353,None,226.24387789994944,226.25937499996508,226.25937499996508,226.5766993999714,f,0.3002138999872841,None,,,,,,,,,,,,00035,001,2026-01-22_20h53.05.508,MST_task,2024.2.0,59.83001098090005,2026-01-22 20h53.14.213464 +0530,
,Scenes\167a.jpg,13,0,14,,,,,None,f,0.3786761999945156,None,,,,,,14,0,13,226.59286029997747,,,,,,,,,,,,,,,,,,,,,,,226.57720090000657,226.59286029997747,227.0962285999558,227.07653550000396,,,,,,,,,,,,,,,,,,,,,,,,227.09326090000104,227.0962285999558,227.0962285999558,227.0962285999558,,,,230.09325769997668,None,230.09345059999032,230.10949959995924,230.10949959995924,230.4931858999771,f,0.3786761999945156,None,,,,,,,,,,,,00035,001,2026-01-22_20h53.05.508,MST_task,2024.2.0,59.83001098090005,2026-01-22 20h53.14.213464 +0530,
,Objects\144a.jpg,14,0,15,,,,,None,f,0.4786346000037156,None,,,,,,15,0,14,230.50954149995232,,,,,,,,,,,,,,,,,,,,,,,230.4936391999945,230.50954149995232,231.0092737999512,230.99326029996155,,,,,,,,,,,,,,,,,,,,,,,,231.00640299997758,231.0092737999512,231.0092737999512,231.0092737999512,234.0095438999706,234.0095438999706,234.0095438999706,233.99408689996926,None,233.99426899995888,234.0095438999706,234.0095438999706,234.49339249997865,f,0.4786346000037156,None,,,,,,,,,,,,00035,001,2026-01-22_20h53.05.508,MST_task,2024.2.0,59.83001098090005,2026-01-22 20h53.14.213464 +0530,
,Objects\026a.jpg,15,0,16,,,,,None,f,0.42262140003731474,None,,,,,,16,0,15,234.5095412999508,,,,,,,,,,,,,,,,,,,,,,,234.49385959998472,234.5095412999508,235.009805699985,234.993280900002,,,,,,,,,,,,,,,,,,,,,,,,235.00174139998853,235.009805699985,235.009805699985,235.009805699985,238.00953539996408,238.00953539996408,238.00953539996408,237.9941589999944,None,237.99433859996498,238.00953539996408,238.00953539996408,238.44340809999267,f,0.42262140003731474,None,,,,,,,,,,,,00035,001,2026-01-22_20h53.05.508,MST_task,2024.2.0,59.83001098090005,2026-01-22 20h53.14.213464 +0530,
,Objects\009a.jpg,16,0,17,,,,,None,f,0.6000375999719836,None,,,,,,17,0,16,238.45953900000313,,,,,,,,,,,,,,,,,,,,,,,238.4438635999686,238.45953900000313,238.95981499995105,238.9432633999968,,,,,,,,,,,,,,,,,,,,,,,,238.95317369996337,238.95981499995105,238.95981499995105,238.95981499995105,241.95953819999704,241.95953819999704,241.95953819999704,241.9440454999567,None,241.94422389997635,241.95953819999704,241.95953819999704,242.56005649996223,f,0.6000375999719836,None,,,,,,,,,,,,00035,001,2026-01-22_20h53.05.508,MST_task,2024.2.0,59.83001098090005,2026-01-22 20h53.14.213464 +0530,
,Objects\010a.jpg,17,0,18,,,,,None,f,0.33893570001237094,None,,,,,,18,0,17,242.57612819998758,,,,,,,,,,,,,,,,,,,,,,,242.5604699999676,242.57612819998758,243.10878670000238,243.06000009999843,,,,,,,,,,,,,,,,,,,,,,,,243.10574209998595,243.10878670000238,243.10878670000238,243.10878670000238,,,,246.07665329996962,None,246.07684459997108,246.0928711000015,246.0928711000015,246.44332059996668,f,0.33893570001237094,None,,,,,,,,,,,,00035,001,2026-01-22_20h53.05.508,MST_task,2024.2.0,59.83001098090005,2026-01-22 20h53.14.213464 +0530,
,Objects\073a.jpg,18,0,19,,,,,None,f,0.3270273000234738,None,,,,,,19,0,18,246.46030839998275,,,,,,,,,,,,,,,,,,,,,,,246.44365909998305,246.46030839998275,,246.95978659996763,,,,,,,,,,,,,,,,,,,,,,,,246.9809663000051,246.98399330000393,246.98399330000393,246.98399330000393,,,,249.95994999998948,None,249.9601379999658,249.97622349997982,249.97622349997982,250.30953799997224,f,0.3270273000234738,None,,,,,,,,,,,,00035,001,2026-01-22_20h53.05.508,MST_task,2024.2.0,59.83001098090005,2026-01-22 20h53.14.213464 +0530,
,Objects\030a.jpg,19,0,20,,,,,None,f,0.38201719999779016,None,,,,,,20,0,19,250.32619549997617,,,,,,,,,,,,,,,,,,,,,,,250.30968899995787,250.32619549997617,250.82645920000505,250.80984919995535,,,,,,,,,,,,,,,,,,,,,,,,250.8175616999506,250.82645920000505,250.82645920000505,250.82645920000505,,,,253.80990659998497,None,253.810092300002,253.82620670000324,253.82620670000324,254.2094368999824,f,0.38201719999779016,None,,,,,,,,,,,,00035,001,2026-01-22_20h53.05.508,MST_task,2024.2.0,59.83001098090005,2026-01-22 20h53.14.213464 +0530,
,Objects\167a.jpg,20,0,21,,,,,None,f,0.4580362999695353,None,,,,,,21,0,20,254.2262165999855,,,,,,,,,,,,,,,,,,,,,,,254.20974049996585,254.2262165999855,,254.7097729999805,,,,,,,,,,,,,,,,,,,,,,,,254.71929709997494,254.7264299999806,254.7264299999806,254.7264299999806,,,,257.70970789995044,None,257.70988999999827,257.7262028999976,257.7262028999976,258.1933458999847,f,0.4580362999695353,None,,,,,,,,,,,,00035,001,2026-01-22_20h53.05.508,MST_task,2024.2.0,59.83001098090005,2026-01-22 20h53.14.213464 +0530,
,Scenes\062a.jpg,21,0,22,,,,,None,j,0.39432969997869805,None,,,,,,22,0,21,258.20953019999433,,,,,,,,,,,,,,,,,,,,,,,258.19371089997003,258.20953019999433,258.7136118999915,258.6930425000028,,,,,,,,,,,,,,,,,,,,,,,,258.7110362999956,258.7136118999915,258.7136118999915,258.7136118999915,,,,261.7109943999676,None,261.71119020000333,261.7258736999938,261.7258736999938,262.12671909999335,j,0.39432969997869805,None,,,,,,,,,,,,00035,001,2026-01-22_20h53.05.508,MST_task,2024.2.0,59.83001098090005,2026-01-22 20h53.14.213464 +0530,
,Scenes\035a.jpg,22,0,23,,,,,None,j,0.3406416000216268,None,,,,,,23,0,22,262.14285529998597,,,,,,,,,,,,,,,,,,,,,,,262.1272387999925,262.14285529998597,262.6443175000022,262.6266144999536,,,,,,,,,,,,,,,,,,,,,,,,262.64182719995733,262.6443175000022,262.6443175000022,262.6443175000022,,,,265.6431493999553,None,265.64333319995785,265.65954530000454,265.65954530000454,266.0101546999649,j,0.3406416000216268,None,,,,,,,,,,,,00035,001,2026-01-22_20h53.05.508,MST_task,2024.2.0,59.83001098090005,2026-01-22 20h53.14.213464 +0530,
,Scenes\059a.jpg,23,0,24,,,,,None,j,0.38507410004967824,None,,,,,,24,0,23,266.0260045999894,,,,,,,,,,,,,,,,,,,,,,,266.0105249999906,266.0260045999894,266.53209799999604,266.5098921000026,,,,,,,,,,,,,,,,,,,,,,,,266.52917459997116,266.53209799999604,266.53209799999604,266.53209799999604,,,,269.52643679996254,None,269.52664349996485,269.5426404000027,269.5426404000027,269.943111200002,j,0.38507410004967824,None,,,,,,,,,,,,00035,001,2026-01-22_20h53.05.508,MST_task,2024.2.0,59.83001098090005,2026-01-22 20h53.14.213464 +0530,
,Scenes\112a.jpg,24,0,25,,,,,None,j,0.3872797000221908,None,,,,,,25,0,24,269.9593421999598,,,,,,,,,,,,,,,,,,,,,,,269.94358329998795,269.9593421999598,270.46432489994913,270.44319909997284,,,,,,,,,,,,,,,,,,,,,,,,270.46152129996335,270.46432489994913,270.46432489994913,270.46432489994913,,,,273.4599221999524,None,273.46010500000557,273.47619749995647,273.47619749995647,273.87672609998845,j,0.3872797000221908,None,,,,,,,,,,,,00035,001,2026-01-22_20h53.05.508,MST_task,2024.2.0,59.83001098090005,2026-01-22 20h53.14.213464 +0530,
,Scenes\022a.jpg,25,0,26,,,,,None,j,0.4319433000055142,None,,,,,,26,0,25,273.8928070999682,,,,,,,,,,,,,,,,,,,,,,,273.8770655999542,273.8928070999682,274.3934584999806,274.3762926000054,,,,,,,,,,,,,,,,,,,,,,,,274.38699079997605,274.3934584999806,274.3934584999806,274.3934584999806,277.3922254999634,277.3922254999634,277.3922254999634,277.3775338999694,None,277.37773559999187,277.3922254999634,277.3922254999634,277.8264096999774,j,0.4319433000055142,None,,,,,,,,,,,,00035,001,2026-01-22_20h53.05.508,MST_task,2024.2.0,59.83001098090005,2026-01-22 20h53.14.213464 +0530,
,Scenes\147a.jpg,26,0,27,,,,,None,j,0.6648594999569468,None,,,,,,27,0,26,277.8428037999547,,,,,,,,,,,,,,,,,,,,,,,277.8269412999507,277.8428037999547,,278.3269285999704,,,,,,,,,,,,,,,,,,,,,,,,278.3403272999567,278.3430078999954,278.3430078999954,278.3430078999954,281.34283009998035,281.34283009998035,281.34283009998035,281.32741440000245,None,281.32760540000163,281.34283009998035,281.34283009998035,282.0097127999761,j,0.6648594999569468,None,,,,,,,,,,,,00035,001,2026-01-22_20h53.05.508,MST_task,2024.2.0,59.83001098090005,2026-01-22 20h53.14.213464 +0530,
,Scenes\111a.jpg,27,0,28,,,,,None,f,0.3686823999742046,None,,,,,,28,0,27,282.02605389995733,,,,,,,,,,,,,,,,,,,,,,,282.01017199998023,282.02605389995733,282.5264692999772,282.5099546999554,,,,,,,,,,,,,,,,,,,,,,,,282.5212553999736,282.5264692999772,282.5264692999772,282.5264692999772,285.52682799997274,285.52682799997274,285.52682799997274,285.5107833999791,None,285.51097299996763,285.52682799997274,285.52682799997274,285.9097683999571,f,0.3686823999742046,None,,,,,,,,,,,,00035,001,2026-01-22_20h53.05.508,MST_task,2024.2.0,59.83001098090005,2026-01-22 20h53.14.213464 +0530,
,Objects\107a.jpg,28,0,29,,,,,None,f,0.38942679995670915,None,,,,,,29,0,28,285.9259636999923,,,,,,,,,,,,,,,,,,,,,,,285.91012449999107,285.9259636999923,286.42679269996006,286.40962160000345,,,,,,,,,,,,,,,,,,,,,,,,286.4188256000052,286.42679269996006,286.42679269996006,286.42679269996006,289.42622119997395,289.42622119997395,289.42622119997395,289.41078949999064,None,289.4109885999933,289.42622119997395,289.42622119997395,289.82674019999104,f,0.38942679995670915,None,,,,,,,,,,,,00035,001,2026-01-22_20h53.05.508,MST_task,2024.2.0,59.83001098090005,2026-01-22 20h53.14.213464 +0530,
,Objects\066a.jpg,29,0,30,,,,,None,j,1.408941200003028,None,,,,,,30,0,29,289.8436293999548,,,,,,,,,,,,,,,,,,,,,,,289.8272832999937,289.8436293999548,290.34307639999315,290.32659709994914,,,,,,,,,,,,,,,,,,,,,,,,290.33255369996186,290.34307639999315,290.34307639999315,290.34307639999315,293.34254519996466,293.34254519996466,293.34254519996466,293.3272315999493,None,293.3274201999884,293.34254519996466,293.34254519996466,294.76006119995145,j,1.408941200003028,None,,,,,,,,,,,,00035,001,2026-01-22_20h53.05.508,MST_task,2024.2.0,59.83001098090005,2026-01-22 20h53.14.213464 +0530,
,Objects\016a.jpg,30,0,31,,,,,None,f,1.107338499976322,None,,,,,,31,0,30,294.7762078999658,,,,,,,,,,,,,,,,,,,,,,,294.7604134999565,294.7762078999658,295.28348839998944,295.2595405000029,,,,,,,,,,,,,,,,,,,,,,,,295.2812514999532,295.28348839998944,295.28348839998944,295.28348839998944,,,,298.2763966000057,None,298.27659899997525,298.2927904999815,298.2927904999815,299.4100509999553,f,1.107338499976322,None,,,,,,,,,,,,00035,001,2026-01-22_20h53.05.508,MST_task,2024.2.0,59.83001098090005,2026-01-22 20h53.14.213464 +0530,
,Objects\126a.jpg,31,0,32,,,,,None,j,0.5692866999888793,None,,,,,,32,0,31,299.4262073999853,,,,,,,,,,,,,,,,,,,,,,,299.4105165999499,299.4262073999853,299.9264750999864,299.9099394999794,,,,,,,,,,,,,,,,,,,,,,,,299.91918490000535,299.9264750999864,299.9264750999864,299.9264750999864,302.92622979998123,302.92622979998123,302.92622979998123,302.9107546999585,None,302.91093509999337,302.92622979998123,302.92622979998123,303.50999209994916,j,0.5692866999888793,None,,,,,,,,,,,,00035,001,2026-01-22_20h53.05.508,MST_task,2024.2.0,59.83001098090005,2026-01-22 20h53.14.213464 +0530,
,Objects\078a.jpg,32,0,33,,,,,None,j,0.3578972000395879,None,,,,,,33,0,32,303.526257599995,,,,,,,,,,,,,,,,,,,,,,,303.51032739999937,303.526257599995,304.0264459999744,304.0099479999626,,,,,,,,,,,,,,,,,,,,,,,,304.0192838999792,304.0264459999744,304.0264459999744,304.0264459999744,307.02621609997004,307.02621609997004,307.02621609997004,307.0107067999779,None,307.01088449999224,307.02621609997004,307.02621609997004,307.3932311999961,j,0.3578972000395879,None,,,,,,,,,,,,00035,001,2026-01-22_20h53.05.508,MST_task,2024.2.0,59.83001098090005,2026-01-22 20h53.14.213464 +0530,
,Objects\062a.jpg,33,0,34,,,,,None,f,0.34653069998603314,None,,,,,,34,0,33,307.40952459996333,,,,,,,,,,,,,,,,,,,,,,,307.393569799955,307.40952459996333,307.90973449999,307.8931689999881,,,,,,,,,,,,,,,,,,,,,,,,307.8998107999796,307.90973449999,307.90973449999,307.90973449999,310.9091834999854,310.9091834999854,310.9091834999854,310.8934571999707,None,310.8936549999635,310.9091834999854,310.9091834999854,311.2599091999582,f,0.34653069998603314,None,,,,,,,,,,,,00035,001,2026-01-22_20h53.05.508,MST_task,2024.2.0,59.83001098090005,2026-01-22 20h53.14.213464 +0530,
,Objects\051a.jpg,34,0,35,,,,,None,j,0.703644199995324,None,,,,,,35,0,34,311.2760741999955,,,,,,,,,,,,,,,,,,,,,,,311.26027129997965,311.2760741999955,311.7765085999854,311.76000249997014,,,,,,,,,,,,,,,,,,,,,,,,311.7688906999538,311.7765085999854,311.7765085999854,311.7765085999854,314.77591929998016,314.77591929998016,314.77591929998016,314.76079619996017,None,314.7609803999658,314.77591929998016,314.77591929998016,315.49339299998246,j,0.703644199995324,None,,,,,,,,,,,,00035,001,2026-01-22_20h53.05.508,MST_task,2024.2.0,59.83001098090005,2026-01-22 20h53.14.213464 +0530,
,Scenes\125a.jpg,35,0,36,,,,,None,j,0.3415372999734245,None,,,,,,36,0,35,315.509230799973,,,,,,,,,,,,,,,,,,,,,,,315.4937586999731,315.509230799973,316.01355709997006,315.9932052999502,,,,,,,,,,,,,,,,,,,,,,,,316.01094549999107,316.01355709997006,316.01355709997006,316.01355709997006,,,,319.0099049999844,None,319.01010620000307,319.0259426999837,319.0259426999837,319.37680939998245,j,0.3415372999734245,None,,,,,,,,,,,,00035,001,2026-01-22_20h53.05.508,MST_task,2024.2.0,59.83001098090005,2026-01-22 20h53.14.213464 +0530,
,Scenes\183a.jpg,36,0,37,,,,,None,f,0.3221229999908246,None,,,,,,37,0,36,319.3928236999782,,,,,,,,,,,,,,,,,,,,,,,319.377334699966,319.3928236999782,319.894790499995,319.87660989997676,,,,,,,,,,,,,,,,,,,,,,,,319.8924996999558,319.894790499995,319.894790499995,319.894790499995,,,,322.89322299999185,None,322.8934181999648,322.9094095999608,322.9094095999608,323.2433524999651,f,0.3221229999908246,None,,,,,,,,,,,,00035,001,2026-01-22_20h53.05.508,MST_task,2024.2.0,59.83001098090005,2026-01-22 20h53.14.213464 +0530,
,Scenes\015a.jpg,37,0,38,,,,,None,j,0.3272277000360191,None,,,,,,38,0,37,323.25958049995825,,,,,,,,,,,,,,,,,,,,,,,323.24384419998387,323.25958049995825,323.76482129999204,323.74321169999894,,,,,,,,,,,,,,,,,,,,,,,,323.7620371999801,323.76482129999204,323.76482129999204,323.76482129999204,,,,326.7599316999549,None,326.7601164999651,326.77625199995236,326.77625199995236,327.1100655999617,j,0.3272277000360191,None,,,,,,,,,,,,00035,001,2026-01-22_20h53.05.508,MST_task,2024.2.0,59.83001098090005,2026-01-22 20h53.14.213464 +0530,
,Scenes\046a.jpg,38,0,39,,,,,None,j,0.4934275999548845,None,,,,,,39,0,38,327.12620629998855,,,,,,,,,,,,,,,,,,,,,,,327.1105231999536,327.12620629998855,327.63205689995084,327.6099418999511,,,,,,,,,,,,,,,,,,,,,,,,327.6296558000031,327.63205689995084,327.63205689995084,327.63205689995084,,,,330.62644789996557,None,330.6266609999584,330.6427208999521,330.6427208999521,331.1434192999732,j,0.4934275999548845,None,,,,,,,,,,,,00035,001,2026-01-22_20h53.05.508,MST_task,2024.2.0,59.83001098090005,2026-01-22 20h53.14.213464 +0530,
,Scenes\016a.jpg,39,0,40,,,,,None,j,0.3245147000416182,None,,,,,,40,0,39,331.1594630999607,,,,,,,,,,,,,,,,,,,,,,,331.1439073999645,331.1594630999607,331.6598229999654,331.6428768999758,,,,,,,,,,,,,,,,,,,,,,,,331.6505324000027,331.6598229999654,331.6598229999654,331.6598229999654,334.65959159994964,334.65959159994964,334.65959159994964,334.64404069999,None,334.6442745999666,334.65959159994964,334.65959159994964,334.99309989996254,j,0.3245147000416182,None,,,,,,,,,,,,00035,001,2026-01-22_20h53.05.508,MST_task,2024.2.0,59.83001098090005,2026-01-22 20h53.14.213464 +0530,
,Scenes\103a.jpg,40,0,41,,,,,None,j,0.32143720000749454,None,,,,,,41,0,40,335.00935819995357,,,,,,,,,,,,,,,,,,,,,,,334.9935573999537,335.00935819995357,335.51078489999054,335.4930068999529,,,,,,,,,,,,,,,,,,,,,,,,335.50801649998175,335.51078489999054,335.51078489999054,335.51078489999054,,,,338.50995849998435,None,338.51014399999985,338.5262195999967,338.5262195999967,338.85969409998506,j,0.32143720000749454,None,,,,,,,,,,,,00035,001,2026-01-22_20h53.05.508,MST_task,2024.2.0,59.83001098090005,2026-01-22 20h53.14.213464 +0530,
,Scenes\076a.jpg,41,0,42,,,,,None,j,0.3346171999583021,None,,,,,,42,0,41,338.8760113999597,,,,,,,,,,,,,,,,,,,,,,,338.86016469995957,338.8760113999597,339.4252443999867,339.359943599964,,,,,,,,,,,,,,,,,,,,,,,,339.422276599973,339.4252443999867,339.4252443999867,339.4252443999867,,,,342.37653229996795,None,342.3767150999629,342.3928888999508,342.3928888999508,342.74312060000375,j,0.3346171999583021,None,,,,,,,,,,,,00035,001,2026-01-22_20h53.05.508,MST_task,2024.2.0,59.83001098090005,2026-01-22 20h53.14.213464 +0530,
,Objects\131a.jpg,42,0,43,,,,,None,f,0.2838412999990396,None,,,,,,43,0,42,342.7593365999637,,,,,,,,,,,,,,,,,,,,,,,342.74360569997225,342.7593365999637,343.2598931999528,343.2432688999688,,,,,,,,,,,,,,,,,,,,,,,,343.25344559998484,343.2598931999528,343.2598931999528,343.2598931999528,346.25955459999386,346.25955459999386,346.25955459999386,346.244057599979,None,346.2442347999895,346.25955459999386,346.25955459999386,346.55981069995323,f,0.2838412999990396,None,,,,,,,,,,,,00035,001,2026-01-22_20h53.05.508,MST_task,2024.2.0,59.83001098090005,2026-01-22 20h53.14.213464 +0530,
,Objects\176a.jpg,43,0,44,,,,,None,j,0.5719279000186361,None,,,,,,44,0,43,346.57616269995924,,,,,,,,,,,,,,,,,,,,,,,346.5601689000032,346.57616269995924,347.07626489998074,347.05998249998083,,,,,,,,,,,,,,,,,,,,,,,,347.0691963999998,347.07626489998074,347.07626489998074,347.07626489998074,350.0761325999629,350.0761325999629,350.0761325999629,350.0603535999544,None,350.0605370999547,350.0761325999629,350.0761325999629,350.6599724999978,j,0.5719279000186361,None,,,,,,,,,,,,00035,001,2026-01-22_20h53.05.508,MST_task,2024.2.0,59.83001098090005,2026-01-22 20h53.14.213464 +0530,
,Objects\033a.jpg,44,0,45,,,,,None,f,0.32728080003289506,None,,,,,,45,0,44,350.6761532999808,,,,,,,,,,,,,,,,,,,,,,,350.66043679998256,350.6761532999808,351.17635759996483,351.1596449999488,,,,,,,,,,,,,,,,,,,,,,,,351.1686889999546,351.17635759996483,351.17635759996483,351.17635759996483,354.1761356999632,354.1761356999632,354.1761356999632,354.16073509998387,None,354.1609186999849,354.1761356999632,354.1761356999632,354.510134799988,f,0.32728080003289506,None,,,,,,,,,,,,00035,001,2026-01-22_20h53.05.508,MST_task,2024.2.0,59.83001098090005,2026-01-22 20h53.14.213464 +0530,
,Objects\047a.jpg,45,0,46,,,,,None,f,0.47797330003231764,None,,,,,,46,0,45,354.52615269995295,,,,,,,,,,,,,,,,,,,,,,,354.51049849996343,354.52615269995295,355.02638090000255,355.00998619996244,,,,,,,,,,,,,,,,,,,,,,,,355.0167653999524,355.02638090000255,355.02638090000255,355.02638090000255,358.0261568999849,358.0261568999849,358.0261568999849,358.01074579998385,None,358.0109456999926,358.0261568999849,358.0261568999849,358.5101148999529,f,0.47797330003231764,None,,,,,,,,,,,,00035,001,2026-01-22_20h53.05.508,MST_task,2024.2.0,59.83001098090005,2026-01-22 20h53.14.213464 +0530,
,Objects\036a.jpg,46,0,47,,,,,None,f,0.317635000043083,None,,,,,,47,0,46,358.52616769995075,,,,,,,,,,,,,,,,,,,,,,,358.5106028000009,358.52616769995075,359.02628439996624,359.00999809999485,,,,,,,,,,,,,,,,,,,,,,,,359.016564199992,359.02628439996624,359.02628439996624,359.02628439996624,362.026190399949,362.026190399949,362.026190399949,362.0107924999902,None,362.0109717999585,362.026190399949,362.026190399949,362.3599420999526,f,0.317635000043083,None,,,,,,,,,,,,00035,001,2026-01-22_20h53.05.508,MST_task,2024.2.0,59.83001098090005,2026-01-22 20h53.14.213464 +0530,
,Objects\129a.jpg,47,0,48,,,,,None,f,0.26759230002062395,None,,,,,,48,0,47,362.37597160000587,,,,,,,,,,,,,,,,,,,,,,,362.3602783999522,362.37597160000587,362.8763711999636,362.8597635999904,,,,,,,,,,,,,,,,,,,,,,,,362.86883110000053,362.8763711999636,362.8763711999636,362.8763711999636,365.87615019996883,365.87615019996883,365.87615019996883,365.86072019999847,None,365.8609048999497,365.87615019996883,365.87615019996883,366.161392399983,f,0.26759230002062395,None,,,,,,,,,,,,00035,001,2026-01-22_20h53.05.508,MST_task,2024.2.0,59.83001098090005,2026-01-22 20h53.14.213464 +0530,
,Objects\111a.jpg,48,0,49,,,,,None,f,0.2994665000005625,None,,,,,,49,0,48,366.17613709997386,,,,,,,,,,,,,,,,,,,,,,,366.1618498999742,366.17613709997386,366.676386099949,366.65980969998054,,,,,,,,,,,,,,,,,,,,,,,,366.66905349999433,366.676386099949,366.676386099949,366.676386099949,369.6761623999919,369.6761623999919,369.6761623999919,369.66079100000206,None,369.6609744000016,369.6761623999919,369.6761623999919,369.97675249999156,f,0.2994665000005625,None,,,,,,,,,,,,00035,001,2026-01-22_20h53.05.508,MST_task,2024.2.0,59.83001098090005,2026-01-22 20h53.14.213464 +0530,
,Scenes\094a.jpg,49,0,50,,,,,None,j,0.4822046000044793,None,,,,,,50,0,49,369.9925704000052,,,,,,,,,,,,,,,,,,,,,,,369.9772335999878,369.9925704000052,370.51028659997974,370.47656320000533,,,,,,,,,,,,,,,,,,,,,,,,370.50753109995276,370.51028659997974,370.51028659997974,370.51028659997974,,,,373.49315809999825,None,373.4933406999917,373.50957949995063,373.50957949995063,373.99309339997126,j,0.4822046000044793,None,,,,,,,,,,,,00035,001,2026-01-22_20h53.05.508,MST_task,2024.2.0,59.83001098090005,2026-01-22 20h53.14.213464 +0530,
,Scenes\083a.jpg,50,0,51,,,,,None,j,0.5059471999993548,None,,,,,,51,0,50,374.0093929999857,,,,,,,,,,,,,,,,,,,,,,,373.99348129995633,374.0093929999857,374.524212099961,374.4932661000057,,,,,,,,,,,,,,,,,,,,,,,,374.521898099978,374.524212099961,374.524212099961,374.524212099961,,,,377.5098455999978,None,377.510047299962,377.5261685999576,377.5261685999576,378.0433955999906,j,0.5059471999993548,None,,,,,,,,,,,,00035,001,2026-01-22_20h53.05.508,MST_task,2024.2.0,59.83001098090005,2026-01-22 20h53.14.213464 +0530,
,Scenes\153a.jpg,51,0,52,,,,,None,j,0.38414259999990463,None,,,,,,52,0,51,378.0595731000067,,,,,,,,,,,,,,,,,,,,,,,378.04385219997494,378.0595731000067,378.5599039999652,378.5433355999994,,,,,,,,,,,,,,,,,,,,,,,,378.5569018999813,378.5599039999652,378.5599039999652,378.5599039999652,381.5595832999679,381.5595832999679,381.5595832999679,381.5442299999995,None,381.5444284999976,381.5595832999679,381.5595832999679,381.96009419998154,j,0.38414259999990463,None,,,,,,,,,,,,00035,001,2026-01-22_20h53.05.508,MST_task,2024.2.0,59.83001098090005,2026-01-22 20h53.14.213464 +0530,
,Scenes\140a.jpg,52,0,53,,,,,None,j,0.6832979999599047,None,,,,,,53,0,52,381.9761471999809,,,,,,,,,,,,,,,,,,,,,,,381.9606127999723,381.9761471999809,382.47660840000026,382.45973189995857,,,,,,,,,,,,,,,,,,,,,,,,382.47030889999587,382.47660840000026,382.47660840000026,382.47660840000026,385.4761740999529,385.4761740999529,385.4761740999529,385.4607999,None,385.46097679995,385.4761740999529,385.4761740999529,386.16021199995885,j,0.6832979999599047,None,,,,,,,,,,,,00035,001,2026-01-22_20h53.05.508,MST_task,2024.2.0,59.83001098090005,2026-01-22 20h53.14.213464 +0530,
,Scenes\132a.jpg,53,0,54,,,,,None,j,0.3875706000253558,None,,,,,,54,0,53,386.1761201999616,,,,,,,,,,,,,,,,,,,,,,,386.16067309997743,386.1761201999616,386.67776399996364,386.6600074999733,,,,,,,,,,,,,,,,,,,,,,,,386.6749219999765,386.67776399996364,386.67776399996364,386.67776399996364,,,,389.67666830000235,None,389.67685529997107,389.6928553999751,389.6928553999751,390.09349989995826,j,0.3875706000253558,None,,,,,,,,,,,,00035,001,2026-01-22_20h53.05.508,MST_task,2024.2.0,59.83001098090005,2026-01-22 20h53.14.213464 +0530,
,Scenes\030a.jpg,54,0,55,,,,,None,j,0.35809140000492334,None,,,,,,55,0,54,390.10936760000186,,,,,,,,,,,,,,,,,,,,,,,390.0938697999809,390.10936760000186,390.6099772999878,390.59327039995696,,,,,,,,,,,,,,,,,,,,,,,,390.6073499000049,390.6099772999878,390.6099772999878,390.6099772999878,393.6095826999517,393.6095826999517,393.6095826999517,393.59409369999776,None,393.5942845999962,393.6095826999517,393.6095826999517,393.97667569998885,j,0.35809140000492334,None,,,,,,,,,,,,00035,001,2026-01-22_20h53.05.508,MST_task,2024.2.0,59.83001098090005,2026-01-22 20h53.14.213464 +0530,
,Scenes\179a.jpg,55,0,56,,,,,None,j,0.2982233000220731,None,,,,,,56,0,55,393.9928063999978,,,,,,,,,,,,,,,,,,,,,,,393.97701899998356,393.9928063999978,394.5030104999896,394.4761549999821,,,,,,,,,,,,,,,,,,,,,,,,394.5003034999827,394.5030104999896,394.5030104999896,394.5030104999896,,,,397.49415519996546,None,397.49436199996853,397.50957120000385,397.50957120000385,397.8101248999592,j,0.2982233000220731,None,,,,,,,,,,,,00035,001,2026-01-22_20h53.05.508,MST_task,2024.2.0,59.83001098090005,2026-01-22 20h53.14.213464 +0530,
,Objects\125a.jpg,56,0,57,,,,,None,j,0.34698010003194213,None,,,,,,57,0,56,397.82600359997014,,,,,,,,,,,,,,,,,,,,,,,397.81049730000086,397.82600359997014,398.3267491000006,398.30988749995595,,,,,,,,,,,,,,,,,,,,,,,,398.31939619994955,398.3267491000006,398.3267491000006,398.3267491000006,401.3257540999912,401.3257540999912,401.3257540999912,401.31113869999535,None,401.3113224999979,401.3257540999912,401.3257540999912,401.67631509999046,j,0.34698010003194213,None,,,,,,,,,,,,00035,001,2026-01-22_20h53.05.508,MST_task,2024.2.0,59.83001098090005,2026-01-22 20h53.14.213464 +0530,
,Objects\186a.jpg,57,0,58,,,,,None,f,0.28619249997427687,None,,,,,,58,0,57,401.6928928999696,,,,,,,,,,,,,,,,,,,,,,,401.6767708999687,401.6928928999696,402.1941278000013,402.17655729997205,,,,,,,,,,,,,,,,,,,,,,,,402.1855602999567,402.1941278000013,402.1941278000013,402.1941278000013,,,,405.1932677999721,None,405.1934534999891,405.2092195999576,405.2092195999576,405.5100956999813,f,0.28619249997427687,None,,,,,,,,,,,,00035,001,2026-01-22_20h53.05.508,MST_task,2024.2.0,59.83001098090005,2026-01-22 20h53.14.213464 +0530,
,Objects\057a.jpg,58,0,59,,,,,None,f,0.3333408000180498,None,,,,,,59,0,58,405.52586160000646,,,,,,,,,,,,,,,,,,,,,,,405.51044230000116,405.52586160000646,406.0264257999952,406.00961720000487,,,,,,,,,,,,,,,,,,,,,,,,406.0175488999812,406.0264257999952,406.0264257999952,406.0264257999952,409.0261540999636,409.0261540999636,409.0261540999636,409.0105228999746,None,409.0107052999665,409.0261540999636,409.0261540999636,409.36019059998216,f,0.3333408000180498,None,,,,,,,,,,,,00035,001,2026-01-22_20h53.05.508,MST_task,2024.2.0,59.83001098090005,2026-01-22 20h53.14.213464 +0530,
,Objects\122a.jpg,59,0,60,,,,,None,f,0.38796730001922697,None,,,,,,60,0,59,409.3761978999828,,,,,,,,,,,,,,,,,,,,,,,409.3605624999618,409.3761978999828,409.8762164999498,409.86004369996954,,,,,,,,,,,,,,,,,,,,,,,,409.8693175999797,409.8762164999498,409.8762164999498,409.8762164999498,412.8761838999926,412.8761838999926,412.8761838999926,412.8608145999606,None,412.86099630000535,412.8761838999926,412.8761838999926,413.2766658999608,f,0.38796730001922697,None,,,,,,,,,,,,00035,001,2026-01-22_20h53.05.508,MST_task,2024.2.0,59.83001098090005,2026-01-22 20h53.14.213464 +0530,
,Objects\022a.jpg,60,0,61,,,,,None,f,0.3347335999715142,None,,,,,,61,0,60,413.2925607999787,,,,,,,,,,,,,,,,,,,,,,,413.2770014999551,413.2925607999787,413.79281799995806,413.7765462999814,,,,,,,,,,,,,,,,,,,,,,,,413.78561249998165,413.79281799995806,413.79281799995806,413.79281799995806,416.79263300000457,416.79263300000457,416.79263300000457,416.7771592999925,None,416.7773501999909,416.79263300000457,416.79263300000457,417.1434269999736,f,0.3347335999715142,None,,,,,,,,,,,,00035,001,2026-01-22_20h53.05.508,MST_task,2024.2.0,59.83001098090005,2026-01-22 20h53.14.213464 +0530,
,Objects\113a.jpg,61,0,62,,,,,None,f,0.3244800000102259,None,,,,,,62,0,61,417.1595795999747,,,,,,,,,,,,,,,,,,,,,,,417.143769599963,417.1595795999747,417.6598047000007,417.6433597999858,,,,,,,,,,,,,,,,,,,,,,,,417.6523873999831,417.6598047000007,417.6598047000007,417.6598047000007,420.65957089996664,420.65957089996664,420.65957089996664,420.64407189999474,None,420.64426329999696,420.65957089996664,420.65957089996664,420.9933773999801,f,0.3244800000102259,None,,,,,,,,,,,,00035,001,2026-01-22_20h53.05.508,MST_task,2024.2.0,59.83001098090005,2026-01-22 20h53.14.213464 +0530,
,Objects\164a.jpg,62,0,63,,,,,None,f,0.3064604999963194,None,,,,,,63,0,62,421.0095627999981,,,,,,,,,,,,,,,,,,,,,,,420.99374770000577,421.0095627999981,421.50984929996775,421.49332549999235,,,,,,,,,,,,,,,,,,,,,,,,421.50235059997067,421.50984929996775,421.50984929996775,421.50984929996775,424.50955669995164,424.50955669995164,424.50955669995164,424.4940546999569,None,424.49423029995523,424.50955669995164,424.50955669995164,424.82666329998756,f,0.3064604999963194,None,,,,,,,,,,,,00035,001,2026-01-22_20h53.05.508,MST_task,2024.2.0,59.83001098090005,2026-01-22 20h53.14.213464 +0530,
,Scenes\088a.jpg,63,0,64,,,,,None,j,0.6400385000160895,None,,,,,,64,0,63,424.8429470999981,,,,,,,,,,,,,,,,,,,,,,,424.8271710999543,424.8429470999981,425.34979469998507,425.3265492999926,,,,,,,,,,,,,,,,,,,,,,,,425.3470693999552,425.34979469998507,425.34979469998507,425.34979469998507,,,,428.3433321999619,None,428.3435243999702,428.3595615999657,428.3595615999657,429.0097516999813,j,0.6400385000160895,None,,,,,,,,,,,,00035,001,2026-01-22_20h53.05.508,MST_task,2024.2.0,59.83001098090005,2026-01-22 20h53.14.213464 +0530,
,Scenes\157a.jpg,64,0,65,,,,,None,j,0.4165567000163719,None,,,,,,65,0,64,429.0257844000007,,,,,,,,,,,,,,,,,,,,,,,429.01020169997355,429.0257844000007,429.5281516999821,429.50993989995914,,,,,,,,,,,,,,,,,,,,,,,,429.52552399999695,429.5281516999821,429.5281516999821,429.5281516999821,,,,432.527002799965,None,432.5271920999512,432.54289699997753,432.54289699997753,432.9765712999506,j,0.4165567000163719,None,,,,,,,,,,,,00035,001,2026-01-22_20h53.05.508,MST_task,2024.2.0,59.83001098090005,2026-01-22 20h53.14.213464 +0530,
,Scenes\052a.jpg,65,0,66,,,,,None,f,0.39439349999884143,None,,,,,,66,0,65,432.99293089995626,,,,,,,,,,,,,,,,,,,,,,,432.9770796999801,432.99293089995626,433.4956367999548,433.4763260000036,,,,,,,,,,,,,,,,,,,,,,,,433.4930381999584,433.4956367999548,433.4956367999548,433.4956367999548,,,,436.4933221999672,None,436.4935093999957,436.5096581999678,436.5096581999678,436.91012529999716,f,0.39439349999884143,None,,,,,,,,,,,,00035,001,2026-01-22_20h53.05.508,MST_task,2024.2.0,59.83001098090005,2026-01-22 20h53.14.213464 +0530,
,Scenes\031a.jpg,66,0,67,,,,,None,j,0.3888711999752559,None,,,,,,67,0,66,436.926171900006,,,,,,,,,,,,,,,,,,,,,,,436.91046549996827,436.926171900006,437.43601319997106,437.40992089995416,,,,,,,,,,,,,,,,,,,,,,,,437.4329329999746,437.43601319997106,437.43601319997106,437.43601319997106,,,,440.4265623999527,None,440.4267439999967,440.4425697999541,440.4425697999541,440.84309679997386,j,0.3888711999752559,None,,,,,,,,,,,,00035,001,2026-01-22_20h53.05.508,MST_task,2024.2.0,59.83001098090005,2026-01-22 20h53.14.213464 +0530,
,Scenes\098a.jpg,67,0,68,,,,,None,j,0.32824390003224835,None,,,,,,68,0,67,440.85955229995307,,,,,,,,,,,,,,,,,,,,,,,440.84354909998365,440.85955229995307,441.3636545999907,441.34295349998865,,,,,,,,,,,,,,,,,,,,,,,,441.35991689999355,441.3636545999907,441.3636545999907,441.3636545999907,,,,444.3601907999837,None,444.3603811999783,444.37588939996203,444.37588939996203,444.7105706000002,j,0.32824390003224835,None,,,,,,,,,,,,00035,001,2026-01-22_20h53.05.508,MST_task,2024.2.0,59.83001098090005,2026-01-22 20h53.14.213464 +0530,
,Scenes\127a.jpg,68,0,69,,,,,None,j,0.40547800000058487,None,,,,,,69,0,68,444.72615569998743,,,,,,,,,,,,,,,,,,,,,,,444.7109055999899,444.72615569998743,445.2394293999532,445.20995239994954,,,,,,,,,,,,,,,,,,,,,,,,445.23677349998616,445.2394293999532,445.2394293999532,445.2394293999532,,,,448.22624799999176,None,448.22643169999355,448.2425636999542,448.2425636999542,448.6597514000023,j,0.40547800000058487,None,,,,,,,,,,,,00035,001,2026-01-22_20h53.05.508,MST_task,2024.2.0,59.83001098090005,2026-01-22 20h53.14.213464 +0530,
,Scenes\168a.jpg,69,0,70,,,,,None,j,0.3118547000340186,None,,,,,,70,0,69,448.6760759999743,,,,,,,,,,,,,,,,,,,,,,,448.6601978999679,448.6760759999743,449.17680079996353,449.1597694999655,,,,,,,,,,,,,,,,,,,,,,,,449.17204249999486,449.17680079996353,449.17680079996353,449.17680079996353,452.17615209997166,452.17615209997166,452.17615209997166,452.1607965999865,None,452.1609810999944,452.17615209997166,452.17615209997166,452.49346289999085,j,0.3118547000340186,None,,,,,,,,,,,,00035,001,2026-01-22_20h53.05.508,MST_task,2024.2.0,59.83001098090005,2026-01-22 20h53.14.213464 +0530,
,Objects\116a.jpg,70,0,71,,,,,None,f,0.510502599994652,None,,,,,,71,0,70,452.50958389998414,,,,,,,,,,,,,,,,,,,,,,,452.4937953999615,452.50958389998414,453.0100876999786,452.99331669998355,,,,,,,,,,,,,,,,,,,,,,,,453.00241689995164,453.0100876999786,453.0100876999786,453.0100876999786,456.00955379998777,456.00955379998777,456.00955379998777,455.99405139999,None,455.9942277999944,456.00955379998777,456.00955379998777,456.5267154999892,f,0.510502599994652,None,,,,,,,,,,,,00035,001,2026-01-22_20h53.05.508,MST_task,2024.2.0,59.83001098090005,2026-01-22 20h53.14.213464 +0530,
,Objects\156a.jpg,71,0,72,,,,,None,f,0.3892485999967903,None,,,,,,72,0,71,456.543642399949,,,,,,,,,,,,,,,,,,,,,,,456.5272280999925,456.543642399949,457.0431409999728,457.02641069999663,,,,,,,,,,,,,,,,,,,,,,,,457.0348108999897,457.0431409999728,457.0431409999728,457.0431409999728,460.0427224999876,460.0427224999876,460.0427224999876,460.02721109997947,None,460.027394899982,460.0427224999876,460.0427224999876,460.4433341999538,f,0.3892485999967903,None,,,,,,,,,,,,00035,001,2026-01-22_20h53.05.508,MST_task,2024.2.0,59.83001098090005,2026-01-22 20h53.14.213464 +0530,
,Objects\185a.jpg,72,0,73,,,,,None,f,0.47997049998957664,None,,,,,,73,0,72,460.4593754999805,,,,,,,,,,,,,,,,,,,,,,,460.44366759998957,460.4593754999805,460.9597817999893,460.9433355999645,,,,,,,,,,,,,,,,,,,,,,,,460.9525246999692,460.9597817999893,460.9597817999893,460.9597817999893,463.95957750000525,463.95957750000525,463.95957750000525,463.9440646999865,None,463.9442412999924,463.95957750000525,463.95957750000525,464.44317859999137,f,0.47997049998957664,None,,,,,,,,,,,,00035,001,2026-01-22_20h53.05.508,MST_task,2024.2.0,59.83001098090005,2026-01-22 20h53.14.213464 +0530,
,Objects\142a.jpg,73,0,74,,,,,None,f,0.34409229998709634,None,,,,,,74,0,73,464.45938469999237,,,,,,,,,,,,,,,,,,,,,,,464.4436313000042,464.45938469999237,464.95979249995435,464.94330899999477,,,,,,,,,,,,,,,,,,,,,,,,464.9498181999661,464.95979249995435,464.95979249995435,464.95979249995435,467.95960419997573,467.95960419997573,467.95960419997573,467.9441349999979,None,467.94430849998025,467.95960419997573,467.95960419997573,468.3100293999887,f,0.34409229998709634,None,,,,,,,,,,,,00035,001,2026-01-22_20h53.05.508,MST_task,2024.2.0,59.83001098090005,2026-01-22 20h53.14.213464 +0530,
,Objects\028a.jpg,74,0,75,,,,,None,f,1.0298327000346035,None,,,,,,75,0,74,468.32616579998285,,,,,,,,,,,,,,,,,,,,,,,468.31051829998614,468.32616579998285,468.82635749998735,468.8096177999978,,,,,,,,,,,,,,,,,,,,,,,,468.8191452999599,468.82635749998735,468.82635749998735,468.82635749998735,471.8261677999981,471.8261677999981,471.8261677999981,471.81080569996266,None,471.81097829999635,471.8261677999981,471.8261677999981,472.8597557999892,f,1.0298327000346035,None,,,,,,,,,,,,00035,001,2026-01-22_20h53.05.508,MST_task,2024.2.0,59.83001098090005,2026-01-22 20h53.14.213464 +0530,
,Objects\077a.jpg,75,0,76,,,,,None,j,1.03978749999078,None,,,,,,76,0,75,472.87615739996545,,,,,,,,,,,,,,,,,,,,,,,472.8602008000016,472.87615739996545,473.37637939996785,473.3596168999793,,,,,,,,,,,,,,,,,,,,,,,,473.3690843999502,473.37637939996785,473.37637939996785,473.37637939996785,476.3761950999615,476.3761950999615,476.3761950999615,476.36074609996285,None,476.3609218999627,476.3761950999615,476.3761950999615,477.42637409997405,j,1.03978749999078,None,,,,,,,,,,,,00035,001,2026-01-22_20h53.05.508,MST_task,2024.2.0,59.83001098090005,2026-01-22 20h53.14.213464 +0530,
,Objects\095a.jpg,76,0,77,,,,,None,f,0.36143040005117655,None,,,,,,77,0,76,477.4429228999652,,,,,,,,,,,,,,,,,,,,,,,477.42682559997775,477.4429228999652,477.94315899995854,477.9265661999816,,,,,,,,,,,,,,,,,,,,,,,,477.9357238999801,477.94315899995854,477.94315899995854,477.94315899995854,480.9425616999506,480.9425616999506,480.9425616999506,480.92751639999915,None,480.9277042999747,480.9425616999506,480.9425616999506,481.31014259997755,f,0.36143040005117655,None,,,,,,,,,,,,00035,001,2026-01-22_20h53.05.508,MST_task,2024.2.0,59.83001098090005,2026-01-22 20h53.14.213464 +0530,
,Scenes\040a.jpg,77,0,78,,,,,j,None,,,2.7469660000060685,0.21653229999355972,,,,78,0,77,481.3261751999962,,,,,,,,,,,,,,,,,,,,,,,481.3106330999872,481.3261751999962,481.8288048999966,481.8097807999584,,,,,,,,,,,,,,,,,,,,,,,,481.8262633999693,481.8288048999966,481.8288048999966,481.8288048999966,,,,484.8265611999668,j,484.8267581999535,,,484.82682369998656,None,,,2.7469660000060685,0.21653229999355972,,,,,,,,,,00035,001,2026-01-22_20h53.05.508,MST_task,2024.2.0,59.83001098090005,2026-01-22 20h53.14.213464 +0530,
,Scenes\011a.jpg,78,0,79,,,,,j,None,,,1.7615172000369057,0.09687060001306236,,,,79,0,78,484.84294729999965,,,,,,,,,,,,,,,,,,,,,,,484.82718749996275,484.84294729999965,485.34984879998956,485.32659319997765,,,,,,,,,,,,,,,,,,,,,,,,485.34704779996537,485.34984879998956,485.34984879998956,485.34984879998956,,,,488.3429851999972,j,488.3431999000022,,,488.34326989995316,None,,,1.7615172000369057,0.09687060001306236,,,,,,,,,,00035,001,2026-01-22_20h53.05.508,MST_task,2024.2.0,59.83001098090005,2026-01-22 20h53.14.213464 +0530,
,Scenes\105a.jpg,79,0,80,,,,,j,None,,,1.9278786999639124,0.11977760004810989,,,,80,0,79,488.35957359999884,,,,,,,,,,,,,,,,,,,,,,,488.34365910000633,488.35957359999884,488.86390100000426,488.8433230999508,,,,,,,,,,,,,,,,,,,,,,,,488.8611333000008,488.86390100000426,488.86390100000426,488.86390100000426,,,,491.8599778999924,j,491.86018879996845,,,491.8602514999802,None,,,1.9278786999639124,0.11977760004810989,,,,,,,,,,00035,001,2026-01-22_20h53.05.508,MST_task,2024.2.0,59.83001098090005,2026-01-22 20h53.14.213464 +0530,
,Scenes\170a.jpg,80,0,81,,,,,j,None,,,1.6470265000243671,0.11977089999709278,,,,81,0,80,491.8761732999701,,,,,,,,,,,,,,,,,,,,,,,491.8606347999885,491.8761732999701,492.38496779999696,492.3600019000005,,,,,,,,,,,,,,,,,,,,,,,,492.3820126999635,492.38496779999696,492.38496779999696,492.38496779999696,,,,495.37639160000253,j,495.37659830000484,,,495.3766650999896,None,,,1.6470265000243671,0.11977089999709278,,,,,,,,,,00035,001,2026-01-22_20h53.05.508,MST_task,2024.2.0,59.83001098090005,2026-01-22 20h53.14.213464 +0530,
,Scenes\190a.jpg,81,0,82,,,,,j,None,,,0.7532066999701783,0.1448705000220798,,,,82,0,81,495.3928859999869,,,,,,,,,,,,,,,,,,,,,,,495.37696019996656,495.3928859999869,495.8942377999774,495.87627409998095,,,,,,,,,,,,,,,,,,,,,,,,495.89161940000486,495.8942377999774,495.8942377999774,495.8942377999774,,,,498.89348249998875,j,498.8936987000052,,,498.89376710000215,None,,,0.7532066999701783,0.1448705000220798,,,,,,,,,,00035,001,2026-01-22_20h53.05.508,MST_task,2024.2.0,59.83001098090005,2026-01-22 20h53.14.213464 +0530,
,Scenes\009a.jpg,82,0,83,,,,,j,None,,,2.178027399990242,0.18372580001596361,,,,83,0,82,498.9093375999946,,,,,,,,,,,,,,,,,,,,,,,498.89408790000016,498.9093375999946,499.4141636999557,499.39296529995045,,,,,,,,,,,,,,,,,,,,,,,,499.4114559000009,499.4141636999557,499.4141636999557,499.4141636999557,,,,502.40961619996233,j,502.40981280000415,,,502.40987579996,None,,,2.178027399990242,0.18372580001596361,,,,,,,,,,00035,001,2026-01-22_20h53.05.508,MST_task,2024.2.0,59.83001098090005,2026-01-22 20h53.14.213464 +0530,
,Scenes\134a.jpg,83,0,84,,,,,j,None,,,1.2427483000210486,0.14392359997145832,,,,84,0,83,502.4259785999893,,,,,,,,,,,,,,,,,,,,,,,502.410165099951,502.4259785999893,502.94951619999483,502.90980859997217,,,,,,,,,,,,,,,,,,,,,,,,502.9465145999566,502.94951619999483,502.94951619999483,502.94951619999483,,,,505.9265688000014,j,505.92676760000177,,,505.92683279997436,None,,,1.2427483000210486,0.14392359997145832,,,,,,,,,,00035,001,2026-01-22_20h53.05.508,MST_task,2024.2.0,59.83001098090005,2026-01-22 20h53.14.213464 +0530,
,Objects\169a.jpg,84,0,85,,,,,j,None,,,1.3500212000217289,0.11005999997723848,,,,85,0,84,505.9429021999822,,,,,,,,,,,,,,,,,,,,,,,505.9271960000042,505.9429021999822,506.4433456999832,506.4265708999592,,,,,,,,,,,,,,,,,,,,,,,,506.4359882999561,506.4433456999832,506.4433456999832,506.4433456999832,509.44278019998455,509.44278019998455,509.44278019998455,509.42752289999044,j,509.4277345999726,,,509.4277971999836,None,,,1.3500212000217289,0.11005999997723848,,,,,,,,,,00035,001,2026-01-22_20h53.05.508,MST_task,2024.2.0,59.83001098090005,2026-01-22 20h53.14.213464 +0530,
,Objects\138a.jpg,85,0,86,,,,,j,None,,,0.9361320000025444,0.10484599997289479,,,,86,0,85,509.44278019998455,,,,,,,,,,,,,,,,,,,,,,,509.4281229999615,509.44278019998455,509.94315740000457,509.92652290000115,,,,,,,,,,,,,,,,,,,,,,,,509.93545749998884,509.94315740000457,509.94315740000457,509.94315740000457,512.9429278000025,512.9429278000025,512.9429278000025,512.9271161999786,j,512.9273364999681,,,512.9274159999914,None,,,0.9361320000025444,0.10484599997289479,,,,,,,,,,00035,001,2026-01-22_20h53.05.508,MST_task,2024.2.0,59.83001098090005,2026-01-22 20h53.14.213464 +0530,
,Objects\070a.jpg,86,0,87,,,,,f,None,,,0.6522890999913216,0.12080199999036267,,,,87,0,86,512.9429278000025,,,,,,,,,,,,,,,,,,,,,,,512.9278242999571,512.9429278000025,513.4430249999859,513.4265949999681,,,,,,,,,,,,,,,,,,,,,,,,513.4358557999949,513.4430249999859,513.4430249999859,513.4430249999859,516.4426105999737,516.4426105999737,516.4426105999737,516.4275112999603,f,516.427726999973,,,516.4277925999486,None,,,0.6522890999913216,0.12080199999036267,,,,,,,,,,00035,001,2026-01-22_20h53.05.508,MST_task,2024.2.0,59.83001098090005,2026-01-22 20h53.14.213464 +0530,
,Objects\149a.jpg,87,0,88,,,,,f,None,,,0.7609437999781221,0.14348879997851327,,,,88,0,87,516.4426105999737,,,,,,,,,,,,,,,,,,,,,,,516.428104599996,516.4426105999737,516.9430226999684,516.9266095999628,,,,,,,,,,,,,,,,,,,,,,,,516.9358783999924,516.9430226999684,516.9430226999684,516.9430226999684,519.9425762000028,519.9425762000028,519.9425762000028,519.9271111999988,f,519.927306299971,,,519.9273645000067,None,,,0.7609437999781221,0.14348879997851327,,,,,,,,,,00035,001,2026-01-22_20h53.05.508,MST_task,2024.2.0,59.83001098090005,2026-01-22 20h53.14.213464 +0530,
,Objects\151a.jpg,88,0,89,,,,,f,None,,,1.1721863999846391,0.16839649999747053,,,,89,0,88,519.9425762000028,,,,,,,,,,,,,,,,,,,,,,,519.9277473999537,519.9425762000028,520.4431486999965,520.4265451999963,,,,,,,,,,,,,,,,,,,,,,,,520.4351247999584,520.4431486999965,520.4431486999965,520.4431486999965,523.4428897000034,523.4428897000034,523.4428897000034,523.4273925999878,f,523.42758399999,,,523.4276425999706,None,,,1.1721863999846391,0.16839649999747053,,,,,,,,,,00035,001,2026-01-22_20h53.05.508,MST_task,2024.2.0,59.83001098090005,2026-01-22 20h53.14.213464 +0530,
,Objects\072a.jpg,89,0,90,,,,,f,None,,,1.2088307000230998,0.14353990001836792,,,,90,0,89,523.4428897000034,,,,,,,,,,,,,,,,,,,,,,,523.4279646999785,523.4428897000034,523.9430938999867,523.9266100999666,,,,,,,,,,,,,,,,,,,,,,,,523.9329014999676,523.9430938999867,523.9430938999867,523.9430938999867,526.9427746000001,526.9427746000001,526.9427746000001,526.927010799991,f,526.9272220999701,,,526.9272779999883,None,,,1.2088307000230998,0.14353990001836792,,,,,,,,,,00035,001,2026-01-22_20h53.05.508,MST_task,2024.2.0,59.83001098090005,2026-01-22 20h53.14.213464 +0530,
,Objects\029a.jpg,90,0,91,,,,,f,None,,,2.381052799988538,0.09564409998711199,,,,91,0,90,526.9427746000001,,,,,,,,,,,,,,,,,,,,,,,526.9275830999832,526.9427746000001,527.4507664999692,527.4266130999895,,,,,,,,,,,,,,,,,,,,,,,,527.448234499956,527.4507664999692,527.4507664999692,527.4507664999692,,,,530.4429532999638,f,530.4431533999741,,,530.4432171999943,None,,,2.381052799988538,0.09564409998711199,,,,,,,,,,00035,001,2026-01-22_20h53.05.508,MST_task,2024.2.0,59.83001098090005,2026-01-22 20h53.14.213464 +0530,
,Scenes\072a.jpg,91,0,92,,,,,j,None,,,1.2203148999833502,0.12790610000956804,,,,92,0,91,530.4592419999535,,,,,,,,,,,,,,,,,,,,,,,530.4435850000009,530.4592419999535,530.963299199997,530.943148499995,,,,,,,,,,,,,,,,,,,,,,,,530.9606994999922,530.963299199997,530.963299199997,530.963299199997,,,,533.9435289999819,j,533.9437382000033,,,533.943810799974,None,,,1.2203148999833502,0.12790610000956804,,,,,,,,,,00035,001,2026-01-22_20h53.05.508,MST_task,2024.2.0,59.83001098090005,2026-01-22 20h53.14.213464 +0530,
,Scenes\019a.jpg,92,0,93,,,,,f,None,,,1.713436099991668,0.1759705999866128,,,,93,0,92,533.9592651999556,,,,,,,,,,,,,,,,,,,,,,,533.9442101999884,533.9592651999556,534.4622329999693,534.4430372999632,,,,,,,,,,,,,,,,,,,,,,,,534.4596097999602,534.4622329999693,534.4622329999693,534.4622329999693,,,,537.459684100002,f,537.4598794999765,,,537.4599446000066,None,,,1.713436099991668,0.1759705999866128,,,,,,,,,,00035,001,2026-01-22_20h53.05.508,MST_task,2024.2.0,59.83001098090005,2026-01-22 20h53.14.213464 +0530,
,Scenes\174a.jpg,93,0,94,,,,,j,None,,,1.1223132000304759,0.15179809997789562,,,,94,0,93,537.4761723999982,,,,,,,,,,,,,,,,,,,,,,,537.4602428999497,537.4761723999982,537.9816167999525,537.9600485999836,,,,,,,,,,,,,,,,,,,,,,,,537.9787548999884,537.9816167999525,537.9816167999525,537.9816167999525,,,,540.9765600999817,j,540.9767632999574,,,540.9768276999821,None,,,1.1223132000304759,0.15179809997789562,,,,,,,,,,00035,001,2026-01-22_20h53.05.508,MST_task,2024.2.0,59.83001098090005,2026-01-22 20h53.14.213464 +0530,
,Scenes\055a.jpg,94,0,95,,,,,j,None,,,0.8107991000288166,0.16832190001150593,,,,95,0,94,540.9929170999676,,,,,,,,,,,,,,,,,,,,,,,540.9771141999518,540.9929170999676,541.4930017999723,541.4757928999607,,,,,,,,,,,,,,,,,,,,,,,,541.4854067999986,541.4930017999723,541.4930017999723,541.4930017999723,544.4929371000035,544.4929371000035,544.4929371000035,544.4774255999946,j,544.4776391999912,,,544.4777033999562,None,,,0.8107991000288166,0.16832190001150593,,,,,,,,,,00035,001,2026-01-22_20h53.05.508,MST_task,2024.2.0,59.83001098090005,2026-01-22 20h53.14.213464 +0530,
,Scenes\180a.jpg,95,0,96,,,,,j,None,,,0.8618850000202656,0.15175719995750114,,,,96,0,95,544.4929371000035,,,,,,,,,,,,,,,,,,,,,,,544.47802889999,544.4929371000035,544.9945247999858,544.9775999999838,,,,,,,,,,,,,,,,,,,,,,,,544.99194789998,544.9945247999858,544.9945247999858,544.9945247999858,,,,547.9932931999792,j,547.9934926999849,,,547.9935546999914,None,,,0.8618850000202656,0.15175719995750114,,,,,,,,,,00035,001,2026-01-22_20h53.05.508,MST_task,2024.2.0,59.83001098090005,2026-01-22 20h53.14.213464 +0530,
,Scenes\185a.jpg,96,0,97,,,,,j,None,,,1.0260467999614775,0.15943860000697896,,,,97,0,96,548.0093341000029,,,,,,,,,,,,,,,,,,,,,,,547.9938501999713,548.0093341000029,548.509945400001,548.4932892999495,,,,,,,,,,,,,,,,,,,,,,,,548.507332899957,548.509945400001,548.509945400001,548.509945400001,551.5095707,551.5095707,551.5095707,551.4941534999525,j,551.4943521999521,,,551.4944101999863,None,,,1.0260467999614775,0.15943860000697896,,,,,,,,,,00035,001,2026-01-22_20h53.05.508,MST_task,2024.2.0,59.83001098090005,2026-01-22 20h53.14.213464 +0530,
,Scenes\032a.jpg,97,0,98,,,,,j,None,,,1.19199339998886,0.17615759995533153,,,,98,0,97,551.5095707,,,,,,,,,,,,,,,,,,,,,,,551.4947298999759,551.5095707,552.0159518999862,551.993316499982,,,,,,,,,,,,,,,,,,,,,,,,552.0129268000019,552.0159518999862,552.0159518999862,552.0159518999862,,,,555.0099684000015,j,555.0101460999576,,,555.0101994999568,None,,,1.19199339998886,0.17615759995533153,,,,,,,,,,00035,001,2026-01-22_20h53.05.508,MST_task,2024.2.0,59.83001098090005,2026-01-22 20h53.14.213464 +0530,
,Objects\118a.jpg,98,0,99,,,,,f,None,,,1.096149300050456,0.18437589996028692,,,,99,0,98,555.0261786999763,,,,,,,,,,,,,,,,,,,,,,,555.0104537999723,555.0261786999763,555.5276640999946,555.5100335999741,,,,,,,,,,,,,,,,,,,,,,,,555.5202051999513,555.5276640999946,555.5276640999946,555.5276640999946,,,,558.5265971999615,f,558.5268099999521,,,558.5268814999727,None,,,1.096149300050456,0.18437589996028692,,,,,,,,,,00035,001,2026-01-22_20h53.05.508,MST_task,2024.2.0,59.83001098090005,2026-01-22 20h53.14.213464 +0530,
,Objects\173a.jpg,99,0,100,,,,,f,None,,,0.9114101000013761,0.15952819999074563,,,,100,0,99,558.542938300001,,,,,,,,,,,,,,,,,,,,,,,558.5272213999997,558.542938300001,559.0565306999488,559.0264598999638,,,,,,,,,,,,,,,,,,,,,,,,559.0543670000043,559.0565306999488,559.0565306999488,559.0565306999488,,,,562.0431797999772,f,562.0433805999928,,,562.0434423999977,None,,,0.9114101000013761,0.15952819999074563,,,,,,,,,,00035,001,2026-01-22_20h53.05.508,MST_task,2024.2.0,59.83001098090005,2026-01-22 20h53.14.213464 +0530,
,Objects\039a.jpg,100,0,101,,,,,j,None,,,1.8717960999929346,0.16813659999752417,,,,101,0,100,562.0592891999986,,,,,,,,,,,,,,,,,,,,,,,562.0438260999508,562.0592891999986,562.5597691999865,562.5433722999878,,,,,,,,,,,,,,,,,,,,,,,,562.5515400999575,562.5597691999865,562.5597691999865,562.5597691999865,565.5595998999779,565.5595998999779,565.5595998999779,565.5441022999585,j,565.5442963999812,,,565.5443516999949,None,,,1.8717960999929346,0.16813659999752417,,,,,,,,,,00035,001,2026-01-22_20h53.05.508,MST_task,2024.2.0,59.83001098090005,2026-01-22 20h53.14.213464 +0530,
,Objects\137a.jpg,101,0,102,,,,,f,None,,,2.435720300010871,0.3045373000204563,,,,102,0,101,565.5595998999779,,,,,,,,,,,,,,,,,,,,,,,565.5447327999864,565.5595998999779,566.0598349999636,566.0433394999709,,,,,,,,,,,,,,,,,,,,,,,,566.049905199965,566.0598349999636,566.0598349999636,566.0598349999636,569.0595797999995,569.0595797999995,569.0595797999995,569.0438081999891,f,569.0440109999618,,,569.0440745999804,None,,,2.435720300010871,0.3045373000204563,,,,,,,,,,00035,001,2026-01-22_20h53.05.508,MST_task,2024.2.0,59.83001098090005,2026-01-22 20h53.14.213464 +0530,
,Objects\115a.jpg,102,0,103,,,,,None,f,1.4563354999991134,None,,,,,,103,0,102,569.0595797999995,,,,,,,,,,,,,,,,,,,,,,,569.0443799999775,569.0595797999995,569.5596517999656,569.5431689999532,,,,,,,,,,,,,,,,,,,,,,,,569.5512746999739,569.5596517999656,569.5596517999656,569.5596517999656,572.5595679999678,572.5595679999678,572.5595679999678,572.544044099981,None,572.5442174999625,572.5595679999678,572.5595679999678,574.0265747999656,f,1.4563354999991134,None,,,,,,,,,,,,00035,001,2026-01-22_20h53.05.508,MST_task,2024.2.0,59.83001098090005,2026-01-22 20h53.14.213464 +0530,
,Objects\109a.jpg,103,0,104,,,,,f,None,,,1.008746900013648,0.10402319999411702,,,,104,0,103,574.0429078000016,,,,,,,,,,,,,,,,,,,,,,,574.0270345999743,574.0429078000016,574.5431446000002,574.5264571000007,,,,,,,,,,,,,,,,,,,,,,,,574.5350725000026,574.5431446000002,574.5431446000002,574.5431446000002,577.5428908999893,577.5428908999893,577.5428908999893,577.5274399999762,f,577.527640299988,,,577.5276989999693,None,,,1.008746900013648,0.10402319999411702,,,,,,,,,,00035,001,2026-01-22_20h53.05.508,MST_task,2024.2.0,59.83001098090005,2026-01-22 20h53.14.213464 +0530,
,Objects\143a.jpg,104,0,105,,,,,f,None,,,2.9325049000326544,None,,,,105,0,104,577.5428908999893,,,,,,,,,,,,,,,,,,,,,,,577.5280676999828,577.5428908999893,578.0431983000017,578.0266027000034,,,,,,,,,,,,,,,,,,,,,,,,578.0353018000023,578.0431983000017,578.0431983000017,578.0431983000017,581.0429300999967,581.0429300999967,581.0429300999967,581.0274448999553,f,581.0276537999744,,,581.0277166999876,None,,,2.9325049000326544,None,,,,,,,,,,00035,001,2026-01-22_20h53.05.508,MST_task,2024.2.0,59.83001098090005,2026-01-22 20h53.14.213464 +0530,
,Scenes\171a.jpg,105,0,106,,,,,f,None,,,2.0584162999875844,0.11222980002639815,,,,106,0,105,581.0429300999967,,,,,,,,,,,,,,,,,,,,,,,581.0280366999796,581.0429300999967,581.5494632999762,581.526657099952,,,,,,,,,,,,,,,,,,,,,,,,581.5466185999685,581.5494632999762,581.5494632999762,581.5494632999762,,,,584.5433159999666,f,584.5435138999601,,,584.5435742999543,None,,,2.0584162999875844,0.11222980002639815,,,,,,,,,,00035,001,2026-01-22_20h53.05.508,MST_task,2024.2.0,59.83001098090005,2026-01-22 20h53.14.213464 +0530,
,Scenes\151a.jpg,106,0,107,,,,,j,None,,,1.0773399000172503,0.15210050001041964,,,,107,0,106,584.5595976999612,,,,,,,,,,,,,,,,,,,,,,,584.5439410999534,584.5595976999612,585.0660757999867,585.0438694999903,,,,,,,,,,,,,,,,,,,,,,,,585.0624309999985,585.0660757999867,585.0660757999867,585.0660757999867,,,,588.0600150999962,j,588.060233599972,,,588.0603042999865,None,,,1.0773399000172503,0.15210050001041964,,,,,,,,,,00035,001,2026-01-22_20h53.05.508,MST_task,2024.2.0,59.83001098090005,2026-01-22 20h53.14.213464 +0530,
,Scenes\044a.jpg,107,0,108,,,,,j,None,,,2.262484700011555,0.14479769999161363,,,,108,0,107,588.0762033999781,,,,,,,,,,,,,,,,,,,,,,,588.060621099954,588.0762033999781,588.576777499984,588.5600176999578,,,,,,,,,,,,,,,,,,,,,,,,588.5694073999766,588.576777499984,588.576777499984,588.576777499984,,,,591.5607812999515,j,591.5609930999926,,,591.5610554000014,None,,,2.262484700011555,0.14479769999161363,,,,,,,,,,00035,001,2026-01-22_20h53.05.508,MST_task,2024.2.0,59.83001098090005,2026-01-22 20h53.14.213464 +0530,
,Scenes\188a.jpg,108,0,109,,,,,j,None,,,1.1073969000135548,0.1530347000225447,,,,109,0,108,591.5761803999776,,,,,,,,,,,,,,,,,,,,,,,591.5613525999943,591.5761803999776,592.0765314999735,592.060025099956,,,,,,,,,,,,,,,,,,,,,,,,592.0735545000061,592.0765314999735,592.0765314999735,592.0765314999735,595.0757261999534,595.0757261999534,595.0757261999534,595.0605691999663,j,595.0607745999587,,,595.0608321999898,None,,,1.1073969000135548,0.1530347000225447,,,,,,,,,,00035,001,2026-01-22_20h53.05.508,MST_task,2024.2.0,59.83001098090005,2026-01-22 20h53.14.213464 +0530,
,Scenes\143a.jpg,109,0,110,,,,,j,None,,,1.068658400035929,0.1517117999610491,,,,110,0,109,595.0757261999534,,,,,,,,,,,,,,,,,,,,,,,595.061131399998,595.0757261999534,595.5792652999517,595.5599853000022,,,,,,,,,,,,,,,,,,,,,,,,595.5765516999527,595.5792652999517,595.5792652999517,595.5792652999517,,,,598.5765963000013,j,598.5767973999609,,,598.5768597999704,None,,,1.068658400035929,0.1517117999610491,,,,,,,,,,00035,001,2026-01-22_20h53.05.508,MST_task,2024.2.0,59.83001098090005,2026-01-22 20h53.14.213464 +0530,
,Scenes\079a.jpg,110,0,111,,,,,j,None,,,2.9756871000281535,None,,,,111,0,110,598.5929326000041,,,,,,,,,,,,,,,,,,,,,,,598.5772310000029,598.5929326000041,599.0960720999865,599.0764359000023,,,,,,,,,,,,,,,,,,,,,,,,599.0932570999721,599.0960720999865,599.0960720999865,599.0960720999865,,,,602.0946192999836,j,602.0948137999512,,,602.0948787999805,None,,,2.9756871000281535,None,,,,,,,,,,00035,001,2026-01-22_20h53.05.508,MST_task,2024.2.0,59.83001098090005,2026-01-22 20h53.14.213464 +0530,
,Scenes\177a.jpg,111,0,112,,,,,j,None,,,1.831352600012906,0.15176009997958317,,,,112,0,111,602.1094336999813,,,,,,,,,,,,,,,,,,,,,,,602.0952485000016,602.1094336999813,602.6165168999578,602.5933692999533,,,,,,,,,,,,,,,,,,,,,,,,602.6136830999749,602.6165168999578,602.6165168999578,602.6165168999578,,,,605.609985499992,j,605.6101811999688,,,605.6102445999859,None,,,1.831352600012906,0.15176009997958317,,,,,,,,,,00035,001,2026-01-22_20h53.05.508,MST_task,2024.2.0,59.83001098090005,2026-01-22 20h53.14.213464 +0530,
,Objects\114a.jpg,112,0,113,,,,,f,None,,,1.425126000016462,0.24029240000527352,,,,113,0,112,605.626178699953,,,,,,,,,,,,,,,,,,,,,,,605.6105361999944,605.626178699953,606.1267341999919,606.1100281999679,,,,,,,,,,,,,,,,,,,,,,,,606.1191722999793,606.1267341999919,606.1267341999919,606.1267341999919,,,,609.1105321999639,f,609.1107379999594,,,609.1108022999833,None,,,1.425126000016462,0.24029240000527352,,,,,,,,,,00035,001,2026-01-22_20h53.05.508,MST_task,2024.2.0,59.83001098090005,2026-01-22 20h53.14.213464 +0530,
,Objects\123a.jpg,113,0,114,,,,,None,j,1.5896655000397004,None,,,,,,114,0,113,609.1261936999508,,,,,,,,,,,,,,,,,,,,,,,609.1110956000048,609.1261936999508,609.6264395999606,609.6099764999817,,,,,,,,,,,,,,,,,,,,,,,,609.6183814999531,609.6264395999606,609.6264395999606,609.6264395999606,612.6262010000064,612.6262010000064,612.6262010000064,612.6108642999898,None,612.6110658999532,612.6262010000064,612.6262010000064,614.2269543999573,j,1.5896655000397004,None,,,,,,,,,,,,00035,001,2026-01-22_20h53.05.508,MST_task,2024.2.0,59.83001098090005,2026-01-22 20h53.14.213464 +0530,
,Objects\141a.jpg,114,0,115,,,,,j,None,,,0.9603884999523871,0.14444630005164072,,,,115,0,114,614.2429120999877,,,,,,,,,,,,,,,,,,,,,,,614.2273310999735,614.2429120999877,614.7427554999595,614.7264829999767,,,,,,,,,,,,,,,,,,,,,,,,614.734043399978,614.7427554999595,614.7427554999595,614.7427554999595,617.7425727999653,617.7425727999653,617.7425727999653,617.7274238999817,j,617.7277307999902,,,617.727793900005,None,,,0.9603884999523871,0.14444630005164072,,,,,,,,,,00035,001,2026-01-22_20h53.05.508,MST_task,2024.2.0,59.83001098090005,2026-01-22 20h53.14.213464 +0530,
,Objects\121a.jpg,115,0,116,,,,,j,None,,,2.9087075000279583,None,,,,116,0,115,617.7425727999653,,,,,,,,,,,,,,,,,,,,,,,617.7281216999982,617.7425727999653,618.2431538999663,618.2265721999574,,,,,,,,,,,,,,,,,,,,,,,,618.2349315999891,618.2431538999663,618.2431538999663,618.2431538999663,621.2427792999661,621.2427792999661,621.2427792999661,621.2273094999837,j,621.2275023999973,,,621.2275589999626,None,,,2.9087075000279583,None,,,,,,,,,,00035,001,2026-01-22_20h53.05.508,MST_task,2024.2.0,59.83001098090005,2026-01-22 20h53.14.213464 +0530,
,Objects\166a.jpg,116,0,117,,,,,f,None,,,2.8478417999576777,0.09600150003097951,,,,117,0,116,621.2427792999661,,,,,,,,,,,,,,,,,,,,,,,621.2278503999696,621.2427792999661,621.7520405999967,621.7267324999557,,,,,,,,,,,,,,,,,,,,,,,,621.7496883999556,621.7520405999967,621.7520405999967,621.7520405999967,,,,624.7434647000046,f,624.7436829999788,,,624.7437528999872,None,,,2.8478417999576777,0.09600150003097951,,,,,,,,,,00035,001,2026-01-22_20h53.05.508,MST_task,2024.2.0,59.83001098090005,2026-01-22 20h53.14.213464 +0530,
,Objects\182a.jpg,117,0,118,,,,,f,None,,,2.851345599978231,None,,,,118,0,117,624.7596994999913,,,,,,,,,,,,,,,,,,,,,,,624.7441499999841,624.7596994999913,625.2598098999588,625.2430259999819,,,,,,,,,,,,,,,,,,,,,,,,625.2521337999497,625.2598098999588,625.2598098999588,625.2598098999588,628.2595815999666,628.2595815999666,628.2595815999666,628.2442078999593,f,628.2444007999729,,,628.2444581000018,None,,,2.851345599978231,None,,,,,,,,,,00035,001,2026-01-22_20h53.05.508,MST_task,2024.2.0,59.83001098090005,2026-01-22 20h53.14.213464 +0530,
,Objects\160a.jpg,118,0,119,,,,,j,None,,,1.2716564000002109,0.1683482999796979,,,,119,0,118,628.2595815999666,,,,,,,,,,,,,,,,,,,,,,,628.2447680999758,628.2595815999666,628.7596727999626,628.7433039000025,,,,,,,,,,,,,,,,,,,,,,,,628.7530475999811,628.7596727999626,628.7596727999626,628.7596727999626,631.7596148999874,631.7596148999874,631.7596148999874,631.744142999989,j,631.7443405999802,,,631.7443976999493,None,,,1.2716564000002109,0.1683482999796979,,,,,,,,,,00035,001,2026-01-22_20h53.05.508,MST_task,2024.2.0,59.83001098090005,2026-01-22 20h53.14.213464 +0530,
,Scenes\187a.jpg,119,0,120,,,,,j,None,,,1.322645200008992,0.16823650000151247,,,,120,0,119,631.7596148999874,,,,,,,,,,,,,,,,,,,,,,,631.7446866999962,631.7596148999874,632.2612527000019,632.2433489999967,,,,,,,,,,,,,,,,,,,,,,,,632.2587106999708,632.2612527000019,632.2612527000019,632.2612527000019,,,,635.2597939999541,j,635.2600035999785,,,635.2600714999717,None,,,1.322645200008992,0.16823650000151247,,,,,,,,,,00035,001,2026-01-22_20h53.05.508,MST_task,2024.2.0,59.83001098090005,2026-01-22 20h53.14.213464 +0530,
,Scenes\161a.jpg,120,0,121,,,,,j,None,,,1.7646121999714524,0.10462450003251433,,,,121,0,120,635.2761731999926,,,,,,,,,,,,,,,,,,,,,,,635.2603881999967,635.2761731999926,635.7788298999658,635.7596396000008,,,,,,,,,,,,,,,,,,,,,,,,635.7761471999693,635.7788298999658,635.7788298999658,635.7788298999658,,,,638.7766230999841,j,638.7768271999666,,,638.7768884999678,None,,,1.7646121999714524,0.10462450003251433,,,,,,,,,,00035,001,2026-01-22_20h53.05.508,MST_task,2024.2.0,59.83001098090005,2026-01-22 20h53.14.213464 +0530,
,Scenes\106a.jpg,121,0,122,,,,,j,None,,,1.5118910999735817,0.1442669000243768,,,,122,0,121,638.7926029999508,,,,,,,,,,,,,,,,,,,,,,,638.7772604000056,638.7926029999508,639.2954645999707,639.2766278999625,,,,,,,,,,,,,,,,,,,,,,,,639.2929044999764,639.2954645999707,639.2954645999707,639.2954645999707,,,,642.2933318999712,j,642.2935406999895,,,642.2936079999781,None,,,1.5118910999735817,0.1442669000243768,,,,,,,,,,00035,001,2026-01-22_20h53.05.508,MST_task,2024.2.0,59.83001098090005,2026-01-22 20h53.14.213464 +0530,
,Scenes\119a.jpg,122,0,123,,,,,j,None,,,1.2199641999904998,0.1841405999730341,,,,123,0,122,642.3096028,,,,,,,,,,,,,,,,,,,,,,,642.2940028999583,642.3096028,642.8119815999526,642.7930977999931,,,,,,,,,,,,,,,,,,,,,,,,642.809282000002,642.8119815999526,642.8119815999526,642.8119815999526,,,,645.8099788999534,j,645.8101808999781,,,645.8102456000051,None,,,1.2199641999904998,0.1841405999730341,,,,,,,,,,00035,001,2026-01-22_20h53.05.508,MST_task,2024.2.0,59.83001098090005,2026-01-22 20h53.14.213464 +0530,
,Scenes\162a.jpg,123,0,124,,,,,j,None,,,1.1134022999904118,0.19165170000633225,,,,124,0,123,645.8257753999787,,,,,,,,,,,,,,,,,,,,,,,645.8106887000031,645.8257753999787,646.3264957999927,646.3098694999935,,,,,,,,,,,,,,,,,,,,,,,,646.3227828999516,646.3264957999927,646.3264957999927,646.3264957999927,649.3261780999601,649.3261780999601,649.3261780999601,649.3107779999846,j,649.3109746999689,,,649.3110325000016,None,,,1.1134022999904118,0.19165170000633225,,,,,,,,,,00035,001,2026-01-22_20h53.05.508,MST_task,2024.2.0,59.83001098090005,2026-01-22 20h53.14.213464 +0530,
,Scenes\003a.jpg,124,0,125,,,,,j,None,,,1.9281861999770626,0.1681331000290811,,,,125,0,124,649.3261780999601,,,,,,,,,,,,,,,,,,,,,,,649.311412799987,649.3261780999601,649.831144900003,649.8106784999836,,,,,,,,,,,,,,,,,,,,,,,,649.8285847999505,649.831144900003,649.831144900003,649.831144900003,,,,652.8263864999753,j,652.8265545999748,,,652.8265818999498,None,,,1.9281861999770626,0.1681331000290811,,,,,,,,,,00035,001,2026-01-22_20h53.05.508,MST_task,2024.2.0,59.83001098090005,2026-01-22 20h53.14.213464 +0530,
,Scenes\020a.jpg,125,0,126,,,,,j,None,,,2.0343365000444464,0.16850269999122247,,,,126,0,125,652.842860099976,,,,,,,,,,,,,,,,,,,,,,,652.8267965999548,652.842860099976,653.349229399988,653.3264144999557,,,,,,,,,,,,,,,,,,,,,,,,653.3464731999557,653.349229399988,653.349229399988,653.349229399988,,,,656.3431794999633,j,656.3433707999648,,,656.343418799981,None,,,2.0343365000444464,0.16850269999122247,,,,,,,,,,00035,001,2026-01-22_20h53.05.508,MST_task,2024.2.0,59.83001098090005,2026-01-22 20h53.14.213464 +0530,
,Objects\091a.jpg,126,0,127,,,,,j,None,,,2.2511605999898165,0.1845694999792613,,,,127,0,126,656.3591663999832,,,,,,,,,,,,,,,,,,,,,,,656.3437068999629,656.3591663999832,656.8600334999501,656.8435810999945,,,,,,,,,,,,,,,,,,,,,,,,656.8513885999564,656.8600334999501,656.8600334999501,656.8600334999501,659.8594492999837,659.8594492999837,659.8594492999837,659.8441174000036,j,659.8443138999864,,,659.8443717999617,None,,,2.2511605999898165,0.1845694999792613,,,,,,,,,,00035,001,2026-01-22_20h53.05.508,MST_task,2024.2.0,59.83001098090005,2026-01-22 20h53.14.213464 +0530,
,Objects\100a.jpg,127,0,128,,,,,f,None,,,2.351601199945435,0.16795760003151372,,,,128,0,127,659.8594492999837,,,,,,,,,,,,,,,,,,,,,,,659.8447565999813,659.8594492999837,660.3598169999896,660.3433743999922,,,,,,,,,,,,,,,,,,,,,,,,660.3496353999944,660.3598169999896,660.3598169999896,660.3598169999896,663.3595377999591,663.3595377999591,663.3595377999591,663.3442017000052,f,663.3444082999486,,,663.344466599985,None,,,2.351601199945435,0.16795760003151372,,,,,,,,,,00035,001,2026-01-22_20h53.05.508,MST_task,2024.2.0,59.83001098090005,2026-01-22 20h53.14.213464 +0530,
,Objects\045a.jpg,128,0,129,,,,,f,None,,,1.2996641999925487,0.08867760002613068,,,,129,0,128,663.3595377999591,,,,,,,,,,,,,,,,,,,,,,,663.3447688999586,663.3595377999591,663.8596453999635,663.8430216999841,,,,,,,,,,,,,,,,,,,,,,,,663.8527941999491,663.8596453999635,663.8596453999635,663.8596453999635,666.8593616999569,666.8593616999569,666.8593616999569,666.8440959999571,f,666.8442972999765,,,666.8443530999939,None,,,1.2996641999925487,0.08867760002613068,,,,,,,,,,00035,001,2026-01-22_20h53.05.508,MST_task,2024.2.0,59.83001098090005,2026-01-22 20h53.14.213464 +0530,
,Objects\165a.jpg,129,0,130,,,,,f,None,,,1.7353472000104375,0.13642130000516772,,,,130,0,129,666.8593616999569,,,,,,,,,,,,,,,,,,,,,,,666.8447356999968,666.8593616999569,667.3598012999864,667.3432016999577,,,,,,,,,,,,,,,,,,,,,,,,667.3521682999562,667.3598012999864,667.3598012999864,667.3598012999864,670.3592927999562,670.3592927999562,670.3592927999562,670.3441339999554,f,670.3443420999683,,,670.3444046999793,None,,,1.7353472000104375,0.13642130000516772,,,,,,,,,,00035,001,2026-01-22_20h53.05.508,MST_task,2024.2.0,59.83001098090005,2026-01-22 20h53.14.213464 +0530,
,Objects\171a.jpg,130,0,131,,,,,f,None,,,1.9356401999830268,0.05609399999957532,,,,131,0,130,670.3592927999562,,,,,,,,,,,,,,,,,,,,,,,670.3448164999718,670.3592927999562,670.8717520999489,670.8433121999842,,,,,,,,,,,,,,,,,,,,,,,,670.868880199967,670.8717520999489,670.8717520999489,670.8717520999489,,,,673.8600156999892,f,673.8602072999929,,,673.8602704999503,None,,,1.9356401999830268,0.05609399999957532,,,,,,,,,,00035,001,2026-01-22_20h53.05.508,MST_task,2024.2.0,59.83001098090005,2026-01-22 20h53.14.213464 +0530,
,Objects\162a.jpg,131,0,132,,,,,f,None,,,2.799025799962692,0.11986690002959222,,,,132,0,131,673.8761072999914,,,,,,,,,,,,,,,,,,,,,,,673.8606323999702,673.8761072999914,674.3764532000059,674.3600317999953,,,,,,,,,,,,,,,,,,,,,,,,674.3662186999572,674.3764532000059,674.3764532000059,674.3764532000059,677.376165899972,677.376165899972,677.376165899972,677.3609185999958,f,677.361137299973,,,677.3612000999856,None,,,2.799025799962692,0.11986690002959222,,,,,,,,,,00035,001,2026-01-22_20h53.05.508,MST_task,2024.2.0,59.83001098090005,2026-01-22 20h53.14.213464 +0530,
,Objects\082a.jpg,132,0,133,,,,,j,None,,,1.6173017999972217,0.16058520000660792,,,,133,0,132,677.376165899972,,,,,,,,,,,,,,,,,,,,,,,677.3615307,677.376165899972,677.8938587000011,677.8601224999875,,,,,,,,,,,,,,,,,,,,,,,,677.8909952999675,677.8938587000011,677.8938587000011,677.8938587000011,,,,680.8765651999856,j,680.876767699956,,,680.8768289999571,None,,,1.6173017999972217,0.16058520000660792,,,,,,,,,,00035,001,2026-01-22_20h53.05.508,MST_task,2024.2.0,59.83001098090005,2026-01-22 20h53.14.213464 +0530,
,Scenes\058a.jpg,133,0,134,,,,,f,None,,,1.4483210999751464,0.1517562000080943,,,,134,0,133,680.8929139999673,,,,,,,,,,,,,,,,,,,,,,,680.8771943000029,680.8929139999673,681.3989170999848,681.3766291000065,,,,,,,,,,,,,,,,,,,,,,,,681.3963258999866,681.3989170999848,681.3989170999848,681.3989170999848,,,,684.3933514999808,f,684.3935844999505,,,684.3936542999581,None,,,1.4483210999751464,0.1517562000080943,,,,,,,,,,00035,001,2026-01-22_20h53.05.508,MST_task,2024.2.0,59.83001098090005,2026-01-22 20h53.14.213464 +0530,
,Scenes\189a.jpg,134,0,135,,,,,j,None,,,1.5204282999620773,0.13470260001486167,,,,135,0,134,684.4093979999889,,,,,,,,,,,,,,,,,,,,,,,684.3940503000049,684.4093979999889,684.9122643999872,684.8933275999734,,,,,,,,,,,,,,,,,,,,,,,,684.9100240999833,684.9122643999872,684.9122643999872,684.9122643999872,,,,687.9100505999522,j,687.9102540999884,,,687.9103183999541,None,,,1.5204282999620773,0.13470260001486167,,,,,,,,,,00035,001,2026-01-22_20h53.05.508,MST_task,2024.2.0,59.83001098090005,2026-01-22 20h53.14.213464 +0530,
,Scenes\027a.jpg,135,0,136,,,,,f,None,,,1.1357389999902807,0.1276503000408411,,,,136,0,135,687.9261524999747,,,,,,,,,,,,,,,,,,,,,,,687.9105703999521,687.9261524999747,688.4318428999977,688.4100325999898,,,,,,,,,,,,,,,,,,,,,,,,688.4291516999947,688.4318428999977,688.4318428999977,688.4318428999977,,,,691.426521699992,f,691.4267256999738,,,691.4267906000023,None,,,1.1357389999902807,0.1276503000408411,,,,,,,,,,00035,001,2026-01-22_20h53.05.508,MST_task,2024.2.0,59.83001098090005,2026-01-22 20h53.14.213464 +0530,
,Scenes\005a.jpg,136,0,137,,,,,j,None,,,1.1108332999865524,0.14393920003203675,,,,137,0,136,691.4429279000033,,,,,,,,,,,,,,,,,,,,,,,691.4270916999667,691.4429279000033,691.9450229000067,691.9266459000064,,,,,,,,,,,,,,,,,,,,,,,,691.9421284999698,691.9450229000067,691.9450229000067,691.9450229000067,,,,694.943351999973,j,694.9435622000019,,,694.9436263999669,None,,,1.1108332999865524,0.14393920003203675,,,,,,,,,,00035,001,2026-01-22_20h53.05.508,MST_task,2024.2.0,59.83001098090005,2026-01-22 20h53.14.213464 +0530,
,Scenes\118a.jpg,137,0,138,,,,,j,None,,,1.7076450000167824,0.12017339997692034,,,,138,0,137,694.9595834999927,,,,,,,,,,,,,,,,,,,,,,,694.9439351999899,694.9595834999927,695.4601682999637,695.4433558000019,,,,,,,,,,,,,,,,,,,,,,,,695.4560588999884,695.4601682999637,695.4601682999637,695.4601682999637,698.4595938999555,698.4595938999555,698.4595938999555,698.4441322999774,j,698.4443270000047,,,698.4443833999685,None,,,1.7076450000167824,0.12017339997692034,,,,,,,,,,00035,001,2026-01-22_20h53.05.508,MST_task,2024.2.0,59.83001098090005,2026-01-22 20h53.14.213464 +0530,
,Scenes\001a.jpg,138,0,139,,,,,f,None,,,2.4750932999886572,0.12037810002220795,,,,139,0,138,698.4595938999555,,,,,,,,,,,,,,,,,,,,,,,698.444774899981,698.4595938999555,698.9640315999859,698.9433169999975,,,,,,,,,,,,,,,,,,,,,,,,698.9612692999654,698.9640315999859,698.9640315999859,698.9640315999859,,,,701.9600370999542,f,701.9602484999923,,,701.9603191999486,None,,,2.4750932999886572,0.12037810002220795,,,,,,,,,,00035,001,2026-01-22_20h53.05.508,MST_task,2024.2.0,59.83001098090005,2026-01-22 20h53.14.213464 +0530,
,Scenes\054a.jpg,139,0,140,,,,,None,j,1.2266288000391796,None,,,,,,140,0,139,701.976198099961,,,,,,,,,,,,,,,,,,,,,,,701.9607168999501,701.976198099961,702.4826959999627,702.4600647999905,,,,,,,,,,,,,,,,,,,,,,,,702.4798734999495,702.4826959999627,702.4826959999627,702.4826959999627,,,,705.4756950999727,None,705.4757671999978,705.4923202999635,705.4923202999635,706.725844200002,j,1.2266288000391796,None,,,,,,,,,,,,00035,001,2026-01-22_20h53.05.508,MST_task,2024.2.0,59.83001098090005,2026-01-22 20h53.14.213464 +0530,
,Objects\075a.jpg,140,0,141,,,,,None,f,0.22064830001909286,None,,,,,,141,0,140,706.7422771999845,,,,,,,,,,,,,,,,,,,,,,,706.7261953999987,706.7422771999845,707.242939299962,707.2256010999554,,,,,,,,,,,,,,,,,,,,,,,,707.2334820999531,707.242939299962,707.242939299962,707.242939299962,710.2423326999997,710.2423326999997,710.2423326999997,710.2259843999636,None,710.2260512999492,710.2423326999997,710.2423326999997,710.4756678999984,f,0.22064830001909286,None,,,,,,,,,,,,00035,001,2026-01-22_20h53.05.508,MST_task,2024.2.0,59.83001098090005,2026-01-22 20h53.14.213464 +0530,
,Objects\006a.jpg,141,0,142,,,,,f,None,,,2.2691300999722444,0.12023350002709776,,,,142,0,141,710.492262499989,,,,,,,,,,,,,,,,,,,,,,,710.4759241999709,710.492262499989,711.0099791999673,710.9758142000064,,,,,,,,,,,,,,,,,,,,,,,,711.0070002999855,711.0099791999673,711.0099791999673,711.0099791999673,,,,713.9763199999579,f,713.9765674999799,,,713.9766372999875,None,,,2.2691300999722444,0.12023350002709776,,,,,,,,,,00035,001,2026-01-22_20h53.05.508,MST_task,2024.2.0,59.83001098090005,2026-01-22 20h53.14.213464 +0530,
,Objects\133a.jpg,142,0,143,,,,,j,None,,,2.098051199980546,0.12022589996922761,,,,143,0,142,713.9925358999753,,,,,,,,,,,,,,,,,,,,,,,713.9769509999896,713.9925358999753,714.492951799999,714.4760814000037,,,,,,,,,,,,,,,,,,,,,,,,714.4856619999628,714.492951799999,714.492951799999,714.492951799999,717.49265619996,717.49265619996,717.49265619996,717.4768018999603,j,717.4769361999934,,,717.476964499976,None,,,2.098051199980546,0.12022589996922761,,,,,,,,,,00035,001,2026-01-22_20h53.05.508,MST_task,2024.2.0,59.83001098090005,2026-01-22 20h53.14.213464 +0530,
,Objects\034a.jpg,143,0,144,,,,,f,None,,,1.4063066999660805,0.07220589998178184,,,,144,0,143,717.49265619996,,,,,,,,,,,,,,,,,,,,,,,717.4771061000065,717.49265619996,717.992770199955,717.9762811999535,,,,,,,,,,,,,,,,,,,,,,,,717.9829294999945,717.992770199955,717.992770199955,717.992770199955,720.9925623000017,720.9925623000017,720.9925623000017,720.9768997000065,f,720.9770273999893,,,720.9770620999625,None,,,1.4063066999660805,0.07220589998178184,,,,,,,,,,00035,001,2026-01-22_20h53.05.508,MST_task,2024.2.0,59.83001098090005,2026-01-22 20h53.14.213464 +0530,
,Objects\119a.jpg,144,0,145,,,,,None,j,0.24236829997971654,None,,,,,,145,0,144,720.9925623000017,,,,,,,,,,,,,,,,,,,,,,,720.9772945999866,720.9925623000017,721.4928513999912,721.4763014999917,,,,,,,,,,,,,,,,,,,,,,,,721.4854306000052,721.4928513999912,721.4928513999912,721.4928513999912,724.4926269999705,724.4926269999705,724.4926269999705,724.4770917999558,None,724.4772713999846,724.4926269999705,724.4926269999705,724.7430471999687,j,0.24236829997971654,None,,,,,,,,,,,,00035,001,2026-01-22_20h53.05.508,MST_task,2024.2.0,59.83001098090005,2026-01-22 20h53.14.213464 +0530,
,Objects\056a.jpg,145,0,146,,,,,None,f,0.8037515999749303,None,,,,,,146,0,145,724.7592652000021,,,,,,,,,,,,,,,,,,,,,,,724.7434925999842,724.7592652000021,725.2596044999664,725.2430038999883,,,,,,,,,,,,,,,,,,,,,,,,725.2515437999973,725.2596044999664,725.2596044999664,725.2596044999664,728.2593062999658,728.2593062999658,728.2593062999658,728.2438014999498,None,728.2438756999909,728.2593062999658,728.2593062999658,729.0761995999492,f,0.8037515999749303,None,,,,,,,,,,,,00035,001,2026-01-22_20h53.05.508,MST_task,2024.2.0,59.83001098090005,2026-01-22 20h53.14.213464 +0530,
,Objects\104a.jpg,146,0,147,,,,,j,None,,,2.5903622999903746,0.11188760004006326,,,,147,0,146,729.0924674999551,,,,,,,,,,,,,,,,,,,,,,,729.0765373999602,729.0924674999551,729.5929526999826,729.5763379999553,,,,,,,,,,,,,,,,,,,,,,,,729.5839435999515,729.5929526999826,729.5929526999826,729.5929526999826,732.5925925999763,732.5925925999763,732.5925925999763,732.5772014999529,j,732.5774039999815,,,732.5774614999536,None,,,2.5903622999903746,0.11188760004006326,,,,,,,,,,00035,001,2026-01-22_20h53.05.508,MST_task,2024.2.0,59.83001098090005,2026-01-22 20h53.14.213464 +0530,
,Scenes\013a.jpg,147,0,148,,,,,j,None,,,1.3731250999844633,0.12823530001332983,,,,148,0,147,732.5925925999763,,,,,,,,,,,,,,,,,,,,,,,732.577835300006,732.5925925999763,733.1059783999808,733.0762676000013,,,,,,,,,,,,,,,,,,,,,,,,733.1030627999571,733.1059783999808,733.1059783999808,733.1059783999808,,,,736.0926076999749,j,736.0927245999919,,,736.0927756999736,None,,,1.3731250999844633,0.12823530001332983,,,,,,,,,,00035,001,2026-01-22_20h53.05.508,MST_task,2024.2.0,59.83001098090005,2026-01-22 20h53.14.213464 +0530,
,Scenes\110a.jpg,148,0,149,,,,,j,None,,,2.3718863999820314,0.13621369999600574,,,,149,0,148,736.1090013999492,,,,,,,,,,,,,,,,,,,,,,,736.0930736999726,736.1090013999492,736.6114505999722,736.5923970000003,,,,,,,,,,,,,,,,,,,,,,,,736.608878900006,736.6114505999722,736.6114505999722,736.6114505999722,,,,739.5932234999491,j,739.5934367000009,,,739.5935022999765,None,,,2.3718863999820314,0.13621369999600574,,,,,,,,,,00035,001,2026-01-22_20h53.05.508,MST_task,2024.2.0,59.83001098090005,2026-01-22 20h53.14.213464 +0530,
,Scenes\115a.jpg,149,0,150,,,,,j,None,,,0.9634512000484392,0.151618099946063,,,,150,0,149,739.6096606999636,,,,,,,,,,,,,,,,,,,,,,,739.5938722999999,739.6096606999636,740.1243594999542,740.093210299965,,,,,,,,,,,,,,,,,,,,,,,,740.1184646000038,740.1243594999542,740.1243594999542,740.1243594999542,,,,743.1098111000028,j,743.110031499993,,,743.1100949999527,None,,,0.9634512000484392,0.151618099946063,,,,,,,,,,00035,001,2026-01-22_20h53.05.508,MST_task,2024.2.0,59.83001098090005,2026-01-22 20h53.14.213464 +0530,
,Scenes\169a.jpg,150,0,151,,,,,j,None,,,0.849127099965699,0.14441420004004613,,,,151,0,150,743.1257869999972,,,,,,,,,,,,,,,,,,,,,,,743.1103935999563,743.1257869999972,743.6304215999553,743.6099016999942,,,,,,,,,,,,,,,,,,,,,,,,743.627682899998,743.6304215999553,743.6304215999553,743.6304215999553,,,,746.6266022999771,j,746.6268153999699,,,746.6268841999699,None,,,0.849127099965699,0.14441420004004613,,,,,,,,,,00035,001,2026-01-22_20h53.05.508,MST_task,2024.2.0,59.83001098090005,2026-01-22 20h53.14.213464 +0530,
,Scenes\139a.jpg,151,0,152,,,,,j,None,,,0.6307430000160821,0.11207759997341782,,,,152,0,151,746.6428528999677,,,,,,,,,,,,,,,,,,,,,,,746.6271944000036,746.6428528999677,747.1447241999558,747.1263191999751,,,,,,,,,,,,,,,,,,,,,,,,747.1385490999673,747.1447241999558,747.1447241999558,747.1447241999558,,,,750.1432471000007,j,750.143445499998,,,750.1435083999531,None,,,0.6307430000160821,0.11207759997341782,,,,,,,,,,00035,001,2026-01-22_20h53.05.508,MST_task,2024.2.0,59.83001098090005,2026-01-22 20h53.14.213464 +0530,
,Scenes\114a.jpg,152,0,153,,,,,j,None,,,1.594308200001251,0.12016329995822161,,,,153,0,152,750.159428199986,,,,,,,,,,,,,,,,,,,,,,,750.1438767999643,750.159428199986,750.6688720999518,750.6431298999814,,,,,,,,,,,,,,,,,,,,,,,,750.6660907999612,750.6688720999518,750.6688720999518,750.6688720999518,,,,753.6600044999504,j,753.6602019999991,,,753.6602873999509,None,,,1.594308200001251,0.12016329995822161,,,,,,,,,,00035,001,2026-01-22_20h53.05.508,MST_task,2024.2.0,59.83001098090005,2026-01-22 20h53.14.213464 +0530,
,Scenes\173a.jpg,153,0,154,,,,,j,None,,,0.9020673999912106,0.12086659995839,,,,154,0,153,753.6762094000005,,,,,,,,,,,,,,,,,,,,,,,753.660654999956,753.6762094000005,754.1770341999945,754.1600567999994,,,,,,,,,,,,,,,,,,,,,,,,754.1743780999677,754.1770341999945,754.1770341999945,754.1770341999945,757.1761731999577,757.1761731999577,757.1761731999577,757.1608069000067,j,757.1609989999561,,,757.1610581999994,None,,,0.9020673999912106,0.12086659995839,,,,,,,,,,00035,001,2026-01-22_20h53.05.508,MST_task,2024.2.0,59.83001098090005,2026-01-22 20h53.14.213464 +0530,
,Objects\139a.jpg,154,0,155,,,,,j,None,,,2.341403200000059,0.14415740000549704,,,,155,0,154,757.1761731999577,,,,,,,,,,,,,,,,,,,,,,,757.1613528999733,757.1761731999577,757.682370399998,757.6599510999513,,,,,,,,,,,,,,,,,,,,,,,,757.6798103000037,757.682370399998,757.682370399998,757.682370399998,,,,760.6765864999616,j,760.6767926999601,,,760.6768555999734,None,,,2.341403200000059,0.14415740000549704,,,,,,,,,,00035,001,2026-01-22_20h53.05.508,MST_task,2024.2.0,59.83001098090005,2026-01-22 20h53.14.213464 +0530,
,Objects\128a.jpg,155,0,156,,,,,f,None,,,1.9338973999838345,0.1362247000215575,,,,156,0,155,760.6929948999896,,,,,,,,,,,,,,,,,,,,,,,760.6771473999834,760.6929948999896,761.1931769999792,761.1765996000031,,,,,,,,,,,,,,,,,,,,,,,,761.1854282999993,761.1931769999792,761.1931769999792,761.1931769999792,764.1929619999719,764.1929619999719,764.1929619999719,764.1772678999696,f,764.177458799968,,,764.1775156999938,None,,,1.9338973999838345,0.1362247000215575,,,,,,,,,,00035,001,2026-01-22_20h53.05.508,MST_task,2024.2.0,59.83001098090005,2026-01-22 20h53.14.213464 +0530,
,Objects\187a.jpg,156,0,157,,,,,f,None,,,0.7779970000265166,0.1122536999755539,,,,157,0,156,764.1929619999719,,,,,,,,,,,,,,,,,,,,,,,764.1778079999494,764.1929619999719,764.7011278999853,764.6766035999754,,,,,,,,,,,,,,,,,,,,,,,,764.6986674999935,764.7011278999853,764.7011278999853,764.7011278999853,,,,767.6933226999827,f,767.6935212999815,,,767.6935864999541,None,,,0.7779970000265166,0.1122536999755539,,,,,,,,,,00035,001,2026-01-22_20h53.05.508,MST_task,2024.2.0,59.83001098090005,2026-01-22 20h53.14.213464 +0530,
,Objects\181a.jpg,157,0,158,,,,,j,None,,,0.8058752000215463,0.11165699997218326,,,,158,0,157,767.7095942999586,,,,,,,,,,,,,,,,,,,,,,,767.693954599963,767.7095942999586,768.2098390999599,768.1930114999996,,,,,,,,,,,,,,,,,,,,,,,,768.1969340999494,768.2098390999599,768.2098390999599,768.2098390999599,771.2096132999868,771.2096132999868,771.2096132999868,771.1941069999593,j,771.1943017999874,,,771.1943579999497,None,,,0.8058752000215463,0.11165699997218326,,,,,,,,,,00035,001,2026-01-22_20h53.05.508,MST_task,2024.2.0,59.83001098090005,2026-01-22 20h53.14.213464 +0530,
,Objects\180a.jpg,158,0,159,,,,,f,None,,,1.0655166000360623,0.1281689999741502,,,,159,0,158,771.2096132999868,,,,,,,,,,,,,,,,,,,,,,,771.1946498999605,771.2096132999868,771.7099204999977,771.6933434999664,,,,,,,,,,,,,,,,,,,,,,,,771.7020112999598,771.7099204999977,771.7099204999977,771.7099204999977,774.7096203999827,774.7096203999827,774.7096203999827,774.694023399963,f,774.6941359000048,,,774.6941679999582,None,,,1.0655166000360623,0.1281689999741502,,,,,,,,,,00035,001,2026-01-22_20h53.05.508,MST_task,2024.2.0,59.83001098090005,2026-01-22 20h53.14.213464 +0530,
,Objects\053a.jpg,159,0,160,,,,,f,None,,,0.9664967000135221,0.08004249999066815,,,,160,0,159,774.7096203999827,,,,,,,,,,,,,,,,,,,,,,,774.6943332999945,774.7096203999827,775.2168163000024,775.1930687999702,,,,,,,,,,,,,,,,,,,,,,,,775.2143127999734,775.2168163000024,775.2168163000024,775.2168163000024,,,,778.2110283999937,f,778.2112591000041,,,778.2113227999653,None,,,0.9664967000135221,0.08004249999066815,,,,,,,,,,00035,001,2026-01-22_20h53.05.508,MST_task,2024.2.0,59.83001098090005,2026-01-22 20h53.14.213464 +0530,
,Objects\004a.jpg,160,0,161,,,,,f,None,,,1.408844199962914,0.12058320001233369,,,,161,0,160,778.2259391999687,,,,,,,,,,,,,,,,,,,,,,,778.211701399996,778.2259391999687,778.7265032999567,778.7100121999974,,,,,,,,,,,,,,,,,,,,,,,,778.718718499993,778.7265032999567,778.7265032999567,778.7265032999567,781.7262060999637,781.7262060999637,781.7262060999637,781.7108331999625,f,781.7110305999522,,,781.7110882999841,None,,,1.408844199962914,0.12058320001233369,,,,,,,,,,00035,001,2026-01-22_20h53.05.508,MST_task,2024.2.0,59.83001098090005,2026-01-22 20h53.14.213464 +0530,
,Scenes\034a.jpg,161,0,162,,,,,j,None,,,1.2353109000250697,0.1441880000056699,,,,162,0,161,781.7262060999637,,,,,,,,,,,,,,,,,,,,,,,781.7113809000002,781.7262060999637,782.236471799959,782.210056299984,,,,,,,,,,,,,,,,,,,,,,,,782.2337595999707,782.236471799959,782.236471799959,782.236471799959,,,,785.2265964999679,j,785.2267938999576,,,785.2268566999701,None,,,1.2353109000250697,0.1441880000056699,,,,,,,,,,00035,001,2026-01-22_20h53.05.508,MST_task,2024.2.0,59.83001098090005,2026-01-22 20h53.14.213464 +0530,
,Scenes\002a.jpg,162,0,163,,,,,j,None,,,1.2005661000148393,0.10416019998956472,,,,163,0,162,785.2428735999856,,,,,,,,,,,,,,,,,,,,,,,785.2272254999843,785.2428735999856,785.7512038999703,785.7263077999814,,,,,,,,,,,,,,,,,,,,,,,,785.7481296999613,785.7512038999703,785.7512038999703,785.7512038999703,,,,788.7433818999561,j,788.7435845999862,,,788.7436485999497,None,,,1.2005661000148393,0.10416019998956472,,,,,,,,,,00035,001,2026-01-22_20h53.05.508,MST_task,2024.2.0,59.83001098090005,2026-01-22 20h53.14.213464 +0530,
,Scenes\077a.jpg,163,0,164,,,,,j,None,,,1.599401699961163,0.12080370000330731,,,,164,0,163,788.7598445999902,,,,,,,,,,,,,,,,,,,,,,,788.7440117999795,788.7598445999902,789.2637071000063,789.2430531999562,,,,,,,,,,,,,,,,,,,,,,,,789.2608825999778,789.2637071000063,789.2637071000063,789.2637071000063,,,,792.2597606999916,j,792.2599853999563,,,792.2600536999526,None,,,1.599401699961163,0.12080370000330731,,,,,,,,,,00035,001,2026-01-22_20h53.05.508,MST_task,2024.2.0,59.83001098090005,2026-01-22 20h53.14.213464 +0530,
,Scenes\036a.jpg,164,0,165,,,,,j,None,,,1.2447160999872722,0.1276013000169769,,,,165,0,164,792.2762093999772,,,,,,,,,,,,,,,,,,,,,,,792.2603726999951,792.2762093999772,792.7870139000006,792.7600206999923,,,,,,,,,,,,,,,,,,,,,,,,792.7841037999606,792.7870139000006,792.7870139000006,792.7870139000006,,,,795.7607445999747,j,795.760949199961,,,795.7610141999903,None,,,1.2447160999872722,0.1276013000169769,,,,,,,,,,00035,001,2026-01-22_20h53.05.508,MST_task,2024.2.0,59.83001098090005,2026-01-22 20h53.14.213464 +0530,
,Scenes\029a.jpg,165,0,166,,,,,j,None,,,0.6651163999922574,0.13609310000902042,,,,166,0,165,795.7762371999561,,,,,,,,,,,,,,,,,,,,,,,795.76131729997,795.7762371999561,796.2780198999681,796.2601216000039,,,,,,,,,,,,,,,,,,,,,,,,796.2754463999881,796.2780198999681,796.2780198999681,796.2780198999681,,,,799.2762547999737,j,799.2764598999638,,,799.2765216999687,None,,,0.6651163999922574,0.13609310000902042,,,,,,,,,,00035,001,2026-01-22_20h53.05.508,MST_task,2024.2.0,59.83001098090005,2026-01-22 20h53.14.213464 +0530,
,Scenes\181a.jpg,166,0,167,,,,,f,None,,,2.517308000009507,0.1276672999956645,,,,167,0,166,799.2928152999957,,,,,,,,,,,,,,,,,,,,,,,799.2768914999906,799.2928152999957,799.8024220999796,799.7766800999525,,,,,,,,,,,,,,,,,,,,,,,,799.7995980999549,799.8024220999796,799.8024220999796,799.8024220999796,,,,802.7933546999702,f,802.7935533999698,,,802.7936169999884,None,,,2.517308000009507,0.1276672999956645,,,,,,,,,,00035,001,2026-01-22_20h53.05.508,MST_task,2024.2.0,59.83001098090005,2026-01-22 20h53.14.213464 +0530,
