Sl_no,image_path,thisN,thisTrialN,thisRepN,key_resp_5.keys,key_resp_5.rt,key_resp_5.duration,key_resp_7.keys,key_resp_9.keys,key_resp_9.rt,key_resp_9.duration,key_resp_8.keys,key_resp_8.rt,key_resp_8.duration,practice.thisRepN,practice.thisTrialN,practice.thisN,trials.thisRepN,trials.thisTrialN,trials.thisN,thisRow.t,notes,welcome_page.started,text.started,key_resp.started,welcome_page.stopped,key_resp.keys,key_resp.rt,key_resp.duration,instructions.started,ins.started,key_resp_2.started,instructions.stopped,key_resp_2.keys,key_resp_2.rt,key_resp_2.duration,objects_only_instruction.started,text_3.started,key_resp_3.started,objects_only_instruction.stopped,key_resp_3.keys,key_resp_3.rt,key_resp_3.duration,ISI.started,text_4.started,ISI.stopped,practice_block.started,image.started,text_5.started,key_resp_5.started,practice_block.stopped,practice.key_resp_5.keys,practice.key_resp_5.rt,practice.key_resp_5.duration,indoor_outdoor.started,indoor_outdoor.stopped,practice.key_resp_7.keys,text_4.stopped,practice_to_main.started,text_2.started,key_resp_4.started,practice_to_main.stopped,key_resp_4.keys,key_resp_4.rt,key_resp_4.duration,objects.started,image_2.started,text_9.started,key_resp_9.started,objects.stopped,trials.key_resp_9.keys,trials.key_resp_9.rt,trials.key_resp_9.duration,encoding_task.started,encoding_task.stopped,trials.key_resp_8.keys,text_8.started,key_resp_8.started,trials.key_resp_8.rt,trials.key_resp_8.duration,end_experiment.started,text_6.started,key_resp_6.started,end_experiment.stopped,key_resp_6.keys,key_resp_6.rt,key_resp_6.duration,list_of_stimuli,encoding_task_accuracy,participant,session,date,expName,psychopyVersion,frameRate,expStart,
,,,,,,,,,,,,,,,,,,,,,,,0.0014124999870546162,0.004946400003973395,0.004946400003973395,536.255849499983,space,536.1855391999998,None,,,,,,,,,,,,,,,,,,,,,,,,,,,,,,,,,,,,,,,,,,,,,,,,,,,,,,,,,,,,,00031,001,2026-01-21_14h49.42.484,MST_task,2024.2.0,60.02959459185393,2026-01-21 14h50.04.258897 +0530,
,,,,,,,,,,,,,,,,,,,,,,,,,,,,,,536.2560089000035,536.2752799000009,536.2752799000009,579.091193500004,space,42.802848899998935,None,,,,,,,,,,,,,,,,,,,,,,,,,,,,,,,,,,,,,,,,,,,,,,,,,,,,,,00031,001,2026-01-21_14h49.42.484,MST_task,2024.2.0,60.02959459185393,2026-01-21 14h50.04.258897 +0530,
,,,,,,,,,,,,,,,,,,,,,,,,,,,,,,,,,,,,,579.0913293999911,579.1142350999871,579.1142350999871,617.9241521999938,space,38.804121599998325,None,,,,,,,,,,,,,,,,,,,,,,,,,,,,,,,,,,,,,,,,,,,,,,,00031,001,2026-01-21_14h49.42.484,MST_task,2024.2.0,60.02959459185393,2026-01-21 14h50.04.258897 +0530,
6,practice_images/158a.jpg,0,0,1,j,1.33733179999399,0.14417559999856167,None,,,,,,,1,0,0,,,,617.9585494999774,,,,,,,,,,,,,,,,,,,,,,,617.9561287999968,617.9585494999774,618.4407366999949,618.4843485000019,618.5172924999788,618.5172924999788,618.5172924999788,621.4249171999982,j,1.33733179999399,0.14417559999856167,621.4319309999992,621.4319843999983,None,,,,,,,,,,,,,,,,,,,,,,,,,,,,,,,,,00031,001,2026-01-21_14h49.42.484,MST_task,2024.2.0,60.02959459185393,2026-01-21 14h50.04.258897 +0530,
5,practice_images/139a.jpg,1,1,1,j,1.7217085000011139,0.06436570000369102,None,,,,,,,1,1,1,,,,621.4404865999823,,,,,,,,,,,,,,,,,,,,,,,621.432163599995,621.4404865999823,621.9239444999839,621.9528792999918,621.9562831999792,621.9562831999792,621.9562831999792,624.9408459999831,j,1.7217085000011139,0.06436570000369102,624.941033799987,624.9411045000015,None,621.9562831999792,,,,,,,,,,,,,,,,,,,,,,,,,,,,,,,,00031,001,2026-01-21_14h49.42.484,MST_task,2024.2.0,60.02959459185393,2026-01-21 14h50.04.258897 +0530,
7,practice_images/166a.jpg,2,2,1,f,1.107407500006957,0.06389799999305978,None,,,,,,,1,2,2,,,,624.9568756999797,,,,,,,,,,,,,,,,,,,,,,,624.9413803999778,624.9568756999797,625.4410480999795,625.4728860000032,625.4752364000014,625.4752364000014,625.4752364000014,628.4574415999814,f,1.107407500006957,0.06389799999305978,628.4576301999914,628.4577003000013,None,625.4752364000014,,,,,,,,,,,,,,,,,,,,,,,,,,,,,,,,00031,001,2026-01-21_14h49.42.484,MST_task,2024.2.0,60.02959459185393,2026-01-21 14h50.04.258897 +0530,
8,practice_images/178a.jpg,3,3,1,j,1.1324131000146735,0.05688069999450818,None,,,,,,,1,3,3,,,,628.4738760000037,,,,,,,,,,,,,,,,,,,,,,,628.4579926999868,628.4738760000037,628.957874499989,628.9899997999892,628.9935283999948,628.9935283999948,628.9935283999948,631.9739493999805,j,1.1324131000146735,0.05688069999450818,631.9741395000019,631.9742108999926,None,628.9935283999948,,,,,,,,,,,,,,,,,,,,,,,,,,,,,,,,00031,001,2026-01-21_14h49.42.484,MST_task,2024.2.0,60.02959459185393,2026-01-21 14h50.04.258897 +0530,
4,practice_images/002b.jpg,4,4,1,j,1.8641431000141893,0.056294399983016774,None,,,,,,,1,4,4,,,,631.9904611999809,,,,,,,,,,,,,,,,,,,,,,,631.9744851999858,631.9904611999809,632.4740102999785,632.5065422999905,632.5098957000009,632.5098957000009,632.5098957000009,635.4908576000016,j,1.8641431000141893,0.056294399983016774,635.4910848999862,635.4911632000003,None,632.5098957000009,,,,,,,,,,,,,,,,,,,,,,,,,,,,,,,,00031,001,2026-01-21_14h49.42.484,MST_task,2024.2.0,60.02959459185393,2026-01-21 14h50.04.258897 +0530,
10,practice_images/182a.jpg,5,5,1,f,1.8802905000047758,0.08055810001678765,None,,,,,,,1,5,5,,,,635.5069727999798,,,,,,,,,,,,,,,,,,,,,,,635.4914641999931,635.5069727999798,635.9912595999776,636.0187224999827,636.0219271999958,636.0219271999958,636.0219271999958,639.0075429999852,f,1.8802905000047758,0.08055810001678765,639.0077477000013,639.0078199999989,None,636.0219271999958,,,,,,,,,,,,,,,,,,,,,,,,,,,,,,,,00031,001,2026-01-21_14h49.42.484,MST_task,2024.2.0,60.02959459185393,2026-01-21 14h50.04.258897 +0530,
3,practice_images/037a.jpg,6,6,1,f,2.412551199988229,0.08796239999355748,None,,,,,,,1,6,6,,,,639.023872699996,,,,,,,,,,,,,,,,,,,,,,,639.0081057999923,639.023872699996,639.5074811999802,639.5351292999985,639.5378520999802,639.5378520999802,639.5378520999802,642.5238548999769,f,2.412551199988229,0.08796239999355748,642.524042199977,642.5241127999907,None,639.5378520999802,,,,,,,,,,,,,,,,,,,,,,,,,,,,,,,,00031,001,2026-01-21_14h49.42.484,MST_task,2024.2.0,60.02959459185393,2026-01-21 14h50.04.258897 +0530,
1,practice_images/013a.jpg,7,7,1,j,0.6552099999971688,0.10414830001536757,None,,,,,,,1,7,7,,,,642.5405384999758,,,,,,,,,,,,,,,,,,,,,,,642.5243907999829,642.5405384999758,643.0238659000024,643.0523937999969,643.0547332999995,643.0547332999995,643.0547332999995,646.0408485999797,j,0.6552099999971688,0.10414830001536757,646.0410376999935,646.0411089999834,None,643.0547332999995,,,,,,,,,,,,,,,,,,,,,,,,,,,,,,,,00031,001,2026-01-21_14h49.42.484,MST_task,2024.2.0,60.02959459185393,2026-01-21 14h50.04.258897 +0530,
9,practice_images/180a.jpg,8,8,1,f,1.2405152000137605,0.1199672999791801,None,,,,,,,1,8,8,,,,646.0570658999786,,,,,,,,,,,,,,,,,,,,,,,646.0413841999834,646.0570658999786,646.5414927999955,646.5706235999824,646.5740764999937,646.5740764999937,646.5740764999937,649.557245199976,f,1.2405152000137605,0.1199672999791801,649.5574341999891,649.5575013999769,None,,,,,,,,,,,,,,,,,,,,,,,,,,,,,,,,,00031,001,2026-01-21_14h49.42.484,MST_task,2024.2.0,60.02959459185393,2026-01-21 14h50.04.258897 +0530,
2,practice_images/031a.jpg,9,9,1,f,1.3263572000141721,0.09588209999492392,None,,,,,,,1,9,9,,,,649.5737993999792,,,,,,,,,,,,,,,,,,,,,,,649.5577791999967,649.5737993999792,650.0573082999908,650.0844109999889,650.0878376000037,650.0878376000037,650.0878376000037,653.0741858999827,f,1.3263572000141721,0.09588209999492392,653.0743917999789,653.0744629999972,None,650.0878376000037,,,,,,,,,,,,,,,,,,,,,,,,,,,,,,,,00031,001,2026-01-21_14h49.42.484,MST_task,2024.2.0,60.02959459185393,2026-01-21 14h50.04.258897 +0530,
,,,,,,,,,,,,,,,,,,,,,,,,,,,,,,,,,,,,,,,,,,,,,,,,,,,,,,,,,,,653.074657899997,653.0905919999932,653.0905919999932,669.4576869999873,space,16.355611599981785,None,,,,,,,,,,,,,,,,,,,,,,,,,00031,001,2026-01-21_14h49.42.484,MST_task,2024.2.0,60.02959459185393,2026-01-21 14h50.04.258897 +0530,
,Objects\066a.jpg,0,0,1,,,,,j,1.4418651000014506,0.1035690999997314,None,,,,,,1,0,0,669.4738419999776,,,,,,,,,,,,,,,,,,,,,,,669.4610214999993,669.4738419999776,669.9574481000018,,,,,,,,,,,,669.9967405999778,,,,,,,,669.9933151000005,669.9967405999778,669.9967405999778,669.9967405999778,672.9741921999957,j,1.4418651000014506,0.1035690999997314,672.9811816999863,672.9812334000017,None,,,,,,,,,,,,,,00031,001,2026-01-21_14h49.42.484,MST_task,2024.2.0,60.02959459185393,2026-01-21 14h50.04.258897 +0530,
,Objects\115a.jpg,1,0,2,,,,,f,1.0110943999898154,0.09686960000544786,None,,,,,,2,0,1,672.9906920999929,,,,,,,,,,,,,,,,,,,,,,,672.9814125999983,672.9906920999929,673.4742085999751,,,,,,,,,,,,673.4987736999756,,,,,,,,673.4964857999876,673.4987736999756,673.4987736999756,673.4987736999756,676.4908670999866,f,1.0110943999898154,0.09686960000544786,676.4910715000005,676.4911362999992,None,,,,,,,,,,,,,,00031,001,2026-01-21_14h49.42.484,MST_task,2024.2.0,60.02959459185393,2026-01-21 14h50.04.258897 +0530,
,Objects\174a.jpg,2,0,3,,,,,f,1.223483199981274,0.1280364000122063,None,,,,,,3,0,2,676.5068292999931,,,,,,,,,,,,,,,,,,,,,,,676.4914877999981,676.5068292999931,676.9914768000017,,,,,,,,,,,,,,,,,,,,677.0280750999809,677.0311193999951,677.0311193999951,677.0311193999951,680.0077399000002,f,1.223483199981274,0.1280364000122063,680.0079451999918,680.0080122999789,None,,,,,,,,,,,,,,00031,001,2026-01-21_14h49.42.484,MST_task,2024.2.0,60.02959459185393,2026-01-21 14h50.04.258897 +0530,
,Objects\101a.jpg,3,0,4,,,,,None,,,j,2.92943849999574,None,,,,4,0,3,680.0238093999797,,,,,,,,,,,,,,,,,,,,,,,680.0084545999998,680.0238093999797,680.5075451000012,,,,,,,,,,,,680.5433488999843,,,,,,,,680.5406986000016,680.5433488999843,680.5433488999843,680.5433488999843,683.524050499982,None,,,683.5242331999762,686.4743339999986,j,683.5412363999931,683.5412363999931,2.92943849999574,None,,,,,,,,,,00031,001,2026-01-21_14h49.42.484,MST_task,2024.2.0,60.02959459185393,2026-01-21 14h50.04.258897 +0530,
,Objects\173a.jpg,4,0,5,,,,,f,1.7304642000235617,0.12888249999377877,None,,,,,,5,0,4,686.4911819999979,,,,,,,,,,,,,,,,,,,,,,,686.4746726999874,686.4911819999979,686.974126199988,,,,,,,,,,,,687.0114111999865,,,,,,,,687.0090424999944,687.0114111999865,687.0114111999865,687.0114111999865,689.9910784999956,f,1.7304642000235617,0.12888249999377877,689.9912764999899,689.9913434999762,None,,,,,,,,,,,,,,00031,001,2026-01-21_14h49.42.484,MST_task,2024.2.0,60.02959459185393,2026-01-21 14h50.04.258897 +0530,
,Objects\062a.jpg,5,0,6,,,,,j,2.828787500009639,0.08889459999045357,None,,,,,,6,0,5,690.007111599989,,,,,,,,,,,,,,,,,,,,,,,689.9917057999992,690.007111599989,690.4908431999793,,,,,,,,,,,,690.5130495999765,,,,,,,,690.5108669000037,690.5130495999765,690.5130495999765,690.5130495999765,693.5076999999874,j,2.828787500009639,0.08889459999045357,693.5079013999784,693.5079695000022,None,,,,,,,,,,,,,,00031,001,2026-01-21_14h49.42.484,MST_task,2024.2.0,60.02959459185393,2026-01-21 14h50.04.258897 +0530,
,Objects\165a.jpg,6,0,7,,,,,f,0.8661755000066478,0.0961556000111159,None,,,,,,7,0,6,693.5238131999795,,,,,,,,,,,,,,,,,,,,,,,693.5082575999841,693.5238131999795,694.0073103999894,,,,,,,,,,,,694.0523494999798,,,,,,,,694.0499680999783,694.0523494999798,694.0523494999798,694.0523494999798,697.0241126999899,f,0.8661755000066478,0.0961556000111159,697.0243312999955,697.0243976999773,None,,,,,,,,,,,,,,00031,001,2026-01-21_14h49.42.484,MST_task,2024.2.0,60.02959459185393,2026-01-21 14h50.04.258897 +0530,
,Scenes\037a.jpg,7,0,8,,,,,j,1.6905488999909721,0.175447699992219,None,,,,,,8,0,7,697.040202299977,,,,,,,,,,,,,,,,,,,,,,,697.0247659999877,697.040202299977,697.5245503999759,,,,,,,,,,,,697.6439945999882,,,,,,,,697.6413869999815,697.6439945999882,697.6439945999882,697.6439945999882,700.5411877000006,j,1.6905488999909721,0.175447699992219,700.5414003999904,700.5414719999826,None,,,,,,,,,,,,,,00031,001,2026-01-21_14h49.42.484,MST_task,2024.2.0,60.02959459185393,2026-01-21 14h50.04.258897 +0530,
,Scenes\024a.jpg,8,0,9,,,,,j,1.1058750999800395,0.1041593000118155,None,,,,,,9,0,8,700.5574070999864,,,,,,,,,,,,,,,,,,,,,,,700.5417694999778,700.5574070999864,701.0408363000024,,,,,,,,,,,,701.0840567999985,,,,,,,,701.0813492999878,701.0840567999985,701.0840567999985,701.0840567999985,704.0571318999864,j,1.1058750999800395,0.1041593000118155,704.0573340999836,704.0574009999982,None,,,,,,,,,,,,,,00031,001,2026-01-21_14h49.42.484,MST_task,2024.2.0,60.02959459185393,2026-01-21 14h50.04.258897 +0530,
,Scenes\112a.jpg,9,0,10,,,,,j,2.220133700000588,0.09554740000749007,None,,,,,,10,0,9,704.0738137000008,,,,,,,,,,,,,,,,,,,,,,,704.0576729000022,704.0738137000008,704.5575478999817,,,,,,,,,,,,704.586495800002,,,,,,,,704.5837432999979,704.586495800002,704.586495800002,704.586495800002,707.5743986000016,j,2.220133700000588,0.09554740000749007,707.5745992999873,707.5746678999858,None,,,,,,,,,,,,,,00031,001,2026-01-21_14h49.42.484,MST_task,2024.2.0,60.02959459185393,2026-01-21 14h50.04.258897 +0530,
,Scenes\109a.jpg,10,0,11,,,,,j,1.4591205000178888,0.11264619999565184,None,,,,,,11,0,10,707.5902535999776,,,,,,,,,,,,,,,,,,,,,,,707.5749567000021,707.5902535999776,708.0739515000023,,,,,,,,,,,,708.1309907999821,,,,,,,,708.1281997999758,708.1309907999821,708.1309907999821,708.1309907999821,711.0916268999863,j,1.4591205000178888,0.11264619999565184,711.0918266999943,711.0918959999981,None,,,,,,,,,,,,,,00031,001,2026-01-21_14h49.42.484,MST_task,2024.2.0,60.02959459185393,2026-01-21 14h50.04.258897 +0530,
,Scenes\100a.jpg,11,0,12,,,,,f,1.2298508000094444,0.11992850000387989,None,,,,,,12,0,11,711.1071040999959,,,,,,,,,,,,,,,,,,,,,,,711.092189499992,711.1071040999959,711.5908751999959,,,,,,,,,,,,711.6487003999937,,,,,,,,711.645789000002,711.6487003999937,711.6487003999937,711.6487003999937,714.60753139999,f,1.2298508000094444,0.11992850000387989,714.6077342999924,714.607801599981,None,,,,,,,,,,,,,,00031,001,2026-01-21_14h49.42.484,MST_task,2024.2.0,60.02959459185393,2026-01-21 14h50.04.258897 +0530,
,Scenes\085a.jpg,12,0,13,,,,,None,,,j,0.4093652000010479,None,,,,13,0,12,714.6237568999932,,,,,,,,,,,,,,,,,,,,,,,714.6081647999818,714.6237568999932,715.1075685999822,,,,,,,,,,,,715.1543602999882,,,,,,,,715.1515094999922,715.1543602999882,715.1543602999882,715.1543602999882,718.1241752999777,None,,,718.124359199981,718.5577242999861,j,718.1404908999975,718.1404908999975,0.4093652000010479,None,,,,,,,,,,00031,001,2026-01-21_14h49.42.484,MST_task,2024.2.0,60.02959459185393,2026-01-21 14h50.04.258897 +0530,
,Scenes\041a.jpg,13,0,14,,,,,j,1.0912486000161152,0.09630649999598972,None,,,,,,14,0,13,718.5739089999988,,,,,,,,,,,,,,,,,,,,,,,718.5582359999826,718.5739089999988,719.0575994999963,,,,,,,,,,,,719.1068223000038,,,,,,,,719.1040294999839,719.1068223000038,719.1068223000038,719.1068223000038,722.0740565999877,j,1.0912486000161152,0.09630649999598972,722.074257899978,722.0743236999842,None,,,,,,,,,,,,,,00031,001,2026-01-21_14h49.42.484,MST_task,2024.2.0,60.02959459185393,2026-01-21 14h50.04.258897 +0530,
,Objects\042a.jpg,14,0,15,,,,,f,2.206478000007337,0.09614910001982935,None,,,,,,15,0,14,722.0903432999912,,,,,,,,,,,,,,,,,,,,,,,722.0746111999906,722.0903432999912,722.5739101999789,,,,,,,,,,,,722.6073646000004,,,,,,,,722.6046353999991,722.6073646000004,722.6073646000004,722.6073646000004,725.5908007999824,f,2.206478000007337,0.09614910001982935,725.5909992999805,725.5910638999776,None,,,,,,,,,,,,,,00031,001,2026-01-21_14h49.42.484,MST_task,2024.2.0,60.02959459185393,2026-01-21 14h50.04.258897 +0530,
,Objects\050a.jpg,15,0,16,,,,,f,1.9616645999776665,0.1441908999986481,None,,,,,,16,0,15,725.607143399975,,,,,,,,,,,,,,,,,,,,,,,725.5913518999878,725.607143399975,726.0909057999961,,,,,,,,,,,,726.124859899981,,,,,,,,726.1219979999878,726.124859899981,726.124859899981,726.124859899981,729.1073202999833,f,1.9616645999776665,0.1441908999986481,729.1075209999981,729.107585699996,None,,,,,,,,,,,,,,00031,001,2026-01-21_14h49.42.484,MST_task,2024.2.0,60.02959459185393,2026-01-21 14h50.04.258897 +0530,
,Objects\142a.jpg,16,0,17,,,,,f,0.8644696999981534,0.1206225999922026,None,,,,,,17,0,16,729.124587600003,,,,,,,,,,,,,,,,,,,,,,,729.1078773999761,729.124587600003,729.6075439999986,,,,,,,,,,,,729.6616350999975,,,,,,,,729.6587944999919,729.6616350999975,729.6616350999975,729.6616350999975,732.623840699991,f,0.8644696999981534,0.1206225999922026,732.6240402999974,732.6241051999968,None,,,,,,,,,,,,,,00031,001,2026-01-21_14h49.42.484,MST_task,2024.2.0,60.02959459185393,2026-01-21 14h50.04.258897 +0530,
,Objects\150a.jpg,17,0,18,,,,,f,2.7863290999957826,0.09688480000477284,None,,,,,,18,0,17,732.6401974999753,,,,,,,,,,,,,,,,,,,,,,,732.6244912999973,732.6401974999753,733.124270499975,,,,,,,,,,,,733.1555026999849,,,,,,,,733.1528514999954,733.1555026999849,733.1555026999849,733.1555026999849,736.1406813999929,f,2.7863290999957826,0.09688480000477284,736.140879899991,736.1409466999758,None,,,,,,,,,,,,,,00031,001,2026-01-21_14h49.42.484,MST_task,2024.2.0,60.02959459185393,2026-01-21 14h50.04.258897 +0530,
,Objects\054a.jpg,18,0,19,,,,,f,1.513579699996626,0.16812600000412203,None,,,,,,19,0,18,736.1573047999991,,,,,,,,,,,,,,,,,,,,,,,736.141235099989,736.1573047999991,736.640771699982,,,,,,,,,,,,736.6763480999798,,,,,,,,736.6736949999759,736.6763480999798,736.6763480999798,736.6763480999798,739.657469400001,f,1.513579699996626,0.16812600000412203,739.6576678999991,739.6577353999892,None,,,,,,,,,,,,,,00031,001,2026-01-21_14h49.42.484,MST_task,2024.2.0,60.02959459185393,2026-01-21 14h50.04.258897 +0530,
,Objects\011a.jpg,19,0,20,,,,,f,1.96485419999226,0.11317540000891313,None,,,,,,20,0,19,739.673851599975,,,,,,,,,,,,,,,,,,,,,,,739.6581257999933,739.673851599975,740.1575371999934,,,,,,,,,,,,740.192871599982,,,,,,,,740.1902281999937,740.192871599982,740.192871599982,740.192871599982,743.1741945999966,f,1.96485419999226,0.11317540000891313,743.1743955999846,743.1744609999878,None,,,,,,,,,,,,,,00031,001,2026-01-21_14h49.42.484,MST_task,2024.2.0,60.02959459185393,2026-01-21 14h50.04.258897 +0530,
,Objects\070a.jpg,20,0,21,,,,,f,0.6195482000184711,0.12041929998667911,None,,,,,,21,0,20,743.1904770999972,,,,,,,,,,,,,,,,,,,,,,,743.1747541999794,743.1904770999972,743.674219699984,,,,,,,,,,,,743.7067489000037,,,,,,,,743.7041409999947,743.7067489000037,743.7067489000037,743.7067489000037,746.6907890999864,f,0.6195482000184711,0.12041929998667911,746.6910019999777,746.6910693999962,None,,,,,,,,,,,,,,00031,001,2026-01-21_14h49.42.484,MST_task,2024.2.0,60.02959459185393,2026-01-21 14h50.04.258897 +0530,
,Scenes\079a.jpg,21,0,22,,,,,j,0.6983469999977387,0.09684829998877831,None,,,,,,22,0,21,746.7074827000033,,,,,,,,,,,,,,,,,,,,,,,746.6913600999978,746.7074827000033,747.1908834999776,,,,,,,,,,,,747.2274680999981,,,,,,,,747.2247807999956,747.2274680999981,747.2274680999981,747.2274680999981,750.207488199987,j,0.6983469999977387,0.09684829998877831,750.2076861999813,750.2077532999974,None,,,,,,,,,,,,,,00031,001,2026-01-21_14h49.42.484,MST_task,2024.2.0,60.02959459185393,2026-01-21 14h50.04.258897 +0530,
,Scenes\158a.jpg,22,0,23,,,,,j,2.423417399986647,0.10480040000402369,None,,,,,,23,0,22,750.2243290999904,,,,,,,,,,,,,,,,,,,,,,,750.2081100999785,750.2243290999904,750.7074845999887,,,,,,,,,,,,750.7585034999938,,,,,,,,750.7555679999932,750.7585034999938,750.7585034999938,750.7585034999938,753.7241977999802,j,2.423417399986647,0.10480040000402369,753.7244114999776,753.7244768999808,None,,,,,,,,,,,,,,00031,001,2026-01-21_14h49.42.484,MST_task,2024.2.0,60.02959459185393,2026-01-21 14h50.04.258897 +0530,
,Scenes\036a.jpg,23,0,24,,,,,j,1.978033699997468,0.1199291999801062,None,,,,,,24,0,23,753.7407897999801,,,,,,,,,,,,,,,,,,,,,,,753.7247758999874,753.7407897999801,754.2239153999835,,,,,,,,,,,,754.2520640000002,,,,,,,,754.249173499993,754.2520640000002,754.2520640000002,754.2520640000002,757.2408668999851,j,1.978033699997468,0.1199291999801062,757.2410761999781,757.2411442000011,None,,,,,,,,,,,,,,00031,001,2026-01-21_14h49.42.484,MST_task,2024.2.0,60.02959459185393,2026-01-21 14h50.04.258897 +0530,
,Scenes\113a.jpg,24,0,25,,,,,j,1.101522200013278,0.11226789999636821,None,,,,,,25,0,24,757.2578790999833,,,,,,,,,,,,,,,,,,,,,,,757.241438899975,757.2578790999833,757.7409084999817,,,,,,,,,,,,757.7763600999897,,,,,,,,757.7735382999817,757.7763600999897,757.7763600999897,757.7763600999897,760.7415062999935,j,1.101522200013278,0.11226789999636821,760.7417155999865,760.7417860999994,None,,,,,,,,,,,,,,00031,001,2026-01-21_14h49.42.484,MST_task,2024.2.0,60.02959459185393,2026-01-21 14h50.04.258897 +0530,
,Scenes\171a.jpg,25,0,26,,,,,f,1.1425021000031848,0.09557460001087748,None,,,,,,26,0,25,760.7569369999983,,,,,,,,,,,,,,,,,,,,,,,760.7421678999963,760.7569369999983,761.2406205000007,,,,,,,,,,,,761.2879651999974,,,,,,,,761.2847773999965,761.2879651999974,761.2879651999974,761.2879651999974,764.2575415000028,f,1.1425021000031848,0.09557460001087748,764.257743299997,764.2578108999878,None,,,,,,,,,,,,,,00031,001,2026-01-21_14h49.42.484,MST_task,2024.2.0,60.02959459185393,2026-01-21 14h50.04.258897 +0530,
,Scenes\129a.jpg,26,0,27,,,,,j,1.7075889000261668,0.12071589997503906,None,,,,,,27,0,26,764.273764499987,,,,,,,,,,,,,,,,,,,,,,,764.2581769999815,764.273764499987,764.7574136999901,,,,,,,,,,,,764.8022646000027,,,,,,,,764.7991739999852,764.8022646000027,764.8022646000027,764.8022646000027,767.7583460999886,j,1.7075889000261668,0.12071589997503906,767.758554,767.758620699984,None,,,,,,,,,,,,,,00031,001,2026-01-21_14h49.42.484,MST_task,2024.2.0,60.02959459185393,2026-01-21 14h50.04.258897 +0530,
,Scenes\169a.jpg,27,0,28,,,,,j,1.3616807999787852,0.11235120001947507,None,,,,,,28,0,27,767.7737655999954,,,,,,,,,,,,,,,,,,,,,,,767.7589144999802,767.7737655999954,768.2580829999933,,,,,,,,,,,,768.3000936000026,,,,,,,,768.2971739999775,768.3000936000026,768.3000936000026,768.3000936000026,771.2738015999785,j,1.3616807999787852,0.11235120001947507,771.2740017999895,771.2740682000003,None,,,,,,,,,,,,,,00031,001,2026-01-21_14h49.42.484,MST_task,2024.2.0,60.02959459185393,2026-01-21 14h50.04.258897 +0530,
,Objects\107a.jpg,28,0,29,,,,,None,,,j,3.550715899997158,None,,,,29,0,28,771.2902033999853,,,,,,,,,,,,,,,,,,,,,,,771.2743558999791,771.2902033999853,771.7737672999792,,,,,,,,,,,,771.8035797999764,,,,,,,,771.7998113999784,771.8035797999764,771.8035797999764,771.8035797999764,774.7907114999834,None,,,774.7908944999799,778.3740906000021,j,774.8071598999959,774.8071598999959,3.550715899997158,None,,,,,,,,,,00031,001,2026-01-21_14h49.42.484,MST_task,2024.2.0,60.02959459185393,2026-01-21 14h50.04.258897 +0530,
,Objects\053a.jpg,29,0,30,,,,,f,1.2015526999894064,0.10474720000638627,None,,,,,,30,0,29,778.3901467999967,,,,,,,,,,,,,,,,,,,,,,,778.3744960999757,778.3901467999967,778.8741434999974,,,,,,,,,,,,778.9004388999892,,,,,,,,778.8976415999932,778.9004388999892,778.9004388999892,778.9004388999892,781.8909123999765,f,1.2015526999894064,0.10474720000638627,781.8911138999974,781.8911814999883,None,,,,,,,,,,,,,,00031,001,2026-01-21_14h49.42.484,MST_task,2024.2.0,60.02959459185393,2026-01-21 14h50.04.258897 +0530,
,Objects\079a.jpg,30,0,31,,,,,f,0.9211288000224158,0.15947329998016357,None,,,,,,31,0,30,781.9078903999762,,,,,,,,,,,,,,,,,,,,,,,781.891550499975,781.9078903999762,782.3909169999824,,,,,,,,,,,,782.4293526999827,,,,,,,,782.4265789999918,782.4293526999827,782.4293526999827,782.4293526999827,785.4076376000012,f,0.9211288000224158,0.15947329998016357,785.4078520000039,785.40792279999,None,,,,,,,,,,,,,,00031,001,2026-01-21_14h49.42.484,MST_task,2024.2.0,60.02959459185393,2026-01-21 14h50.04.258897 +0530,
,Objects\075a.jpg,31,0,32,,,,,f,2.167268699995475,0.07195990000036545,None,,,,,,32,0,31,785.4235166999861,,,,,,,,,,,,,,,,,,,,,,,785.4083030999755,785.4235166999861,785.9076849999838,,,,,,,,,,,,785.9348242999986,,,,,,,,785.9318203000003,785.9348242999986,785.9348242999986,785.9348242999986,788.9241352999816,f,2.167268699995475,0.07195990000036545,788.9243325999996,788.9243994999852,None,,,,,,,,,,,,,,00031,001,2026-01-21_14h49.42.484,MST_task,2024.2.0,60.02959459185393,2026-01-21 14h50.04.258897 +0530,
,Objects\138a.jpg,32,0,33,,,,,j,1.8869916999829002,0.11187819999759085,None,,,,,,33,0,32,788.9402198999887,,,,,,,,,,,,,,,,,,,,,,,788.924765099975,788.9402198999887,789.4241535999754,,,,,,,,,,,,789.4634874000039,,,,,,,,789.4602656999778,789.4634874000039,789.4634874000039,789.4634874000039,792.4408757999772,j,1.8869916999829002,0.11187819999759085,792.441093499976,792.4411631999828,None,,,,,,,,,,,,,,00031,001,2026-01-21_14h49.42.484,MST_task,2024.2.0,60.02959459185393,2026-01-21 14h50.04.258897 +0530,
,Objects\039a.jpg,33,0,34,,,,,j,1.2528146999829914,0.09564060001866892,None,,,,,,34,0,33,792.4573299999756,,,,,,,,,,,,,,,,,,,,,,,792.4415306999872,792.4573299999756,792.9408078999841,,,,,,,,,,,,792.97756509998,,,,,,,,792.9747736999998,792.97756509998,792.97756509998,792.97756509998,795.9579155999818,j,1.2528146999829914,0.09564060001866892,795.9581117999915,795.9581771999947,None,,,,,,,,,,,,,,00031,001,2026-01-21_14h49.42.484,MST_task,2024.2.0,60.02959459185393,2026-01-21 14h50.04.258897 +0530,
,Objects\143a.jpg,34,0,35,,,,,f,1.6491528000042308,0.09679519999190234,None,,,,,,35,0,34,795.9737629999872,,,,,,,,,,,,,,,,,,,,,,,795.9586110999808,795.9737629999872,796.4573501999839,,,,,,,,,,,,796.5086922999762,,,,,,,,796.5063894999912,796.5086922999762,796.5086922999762,796.5086922999762,799.4741685999907,f,1.6491528000042308,0.09679519999190234,799.4743688000017,799.4744365999941,None,,,,,,,,,,,,,,00031,001,2026-01-21_14h49.42.484,MST_task,2024.2.0,60.02959459185393,2026-01-21 14h50.04.258897 +0530,
,Scenes\192a.jpg,35,0,36,,,,,j,1.8420933000161313,0.08749899998656474,None,,,,,,36,0,35,799.490147399978,,,,,,,,,,,,,,,,,,,,,,,799.4747276999988,799.490147399978,799.9742338999931,,,,,,,,,,,,800.0363832000003,,,,,,,,800.0335054000025,800.0363832000003,800.0363832000003,800.0363832000003,802.990776199993,j,1.8420933000161313,0.08749899998656474,802.9909924999811,802.9910597999988,None,,,,,,,,,,,,,,00031,001,2026-01-21_14h49.42.484,MST_task,2024.2.0,60.02959459185393,2026-01-21 14h50.04.258897 +0530,
,Scenes\088a.jpg,36,0,37,,,,,j,0.8498014000069816,0.09618990001035854,None,,,,,,37,0,36,803.0068734999804,,,,,,,,,,,,,,,,,,,,,,,802.9913598999847,803.0068734999804,803.4911464999896,,,,,,,,,,,,803.5401957999857,,,,,,,,803.5370122999884,803.5401957999857,803.5401957999857,803.5401957999857,806.5076464999875,j,0.8498014000069816,0.09618990001035854,806.5078518999799,806.5079169999808,None,,,,,,,,,,,,,,00031,001,2026-01-21_14h49.42.484,MST_task,2024.2.0,60.02959459185393,2026-01-21 14h50.04.258897 +0530,
,Scenes\006a.jpg,37,0,38,,,,,None,,,f,1.3979026000015438,None,,,,38,0,37,806.5237631999771,,,,,,,,,,,,,,,,,,,,,,,806.5082959999854,806.5237631999771,807.0073321999807,,,,,,,,,,,,807.0520404999843,,,,,,,,807.0490010999783,807.0520404999843,807.0520404999843,807.0520404999843,810.0241873999767,None,,,810.0243724999891,811.4414431999903,f,810.0405333999952,810.0405333999952,1.3979026000015438,None,,,,,,,,,,00031,001,2026-01-21_14h49.42.484,MST_task,2024.2.0,60.02959459185393,2026-01-21 14h50.04.258897 +0530,
,Scenes\027a.jpg,38,0,39,,,,,f,1.469706200005021,0.09565219999058172,None,,,,,,39,0,38,811.4571812999784,,,,,,,,,,,,,,,,,,,,,,,811.4418004999752,811.4571812999784,811.9405986999918,,,,,,,,,,,,811.9927327999903,,,,,,,,811.9898614999838,811.9927327999903,811.9927327999903,811.9927327999903,814.9578470999841,f,1.469706200005021,0.09565219999058172,814.9580601999769,814.9581289999769,None,,,,,,,,,,,,,,00031,001,2026-01-21_14h49.42.484,MST_task,2024.2.0,60.02959459185393,2026-01-21 14h50.04.258897 +0530,
,Scenes\175a.jpg,39,0,40,,,,,j,0.7879560999863315,0.11297800001921132,None,,,,,,40,0,39,814.9738262000028,,,,,,,,,,,,,,,,,,,,,,,814.9584164999833,814.9738262000028,815.457287199999,,,,,,,,,,,,815.5057886999857,,,,,,,,815.5031174999895,815.5057886999857,815.5057886999857,815.5057886999857,818.474135299999,j,0.7879560999863315,0.11297800001921132,818.4743422000029,818.4744082999823,None,,,,,,,,,,,,,,00031,001,2026-01-21_14h49.42.484,MST_task,2024.2.0,60.02959459185393,2026-01-21 14h50.04.258897 +0530,
,Scenes\143a.jpg,40,0,41,,,,,j,1.0842146999784745,0.10476050002034754,None,,,,,,41,0,40,818.4901862999832,,,,,,,,,,,,,,,,,,,,,,,818.4746969999978,818.4901862999832,818.9742512999801,,,,,,,,,,,,819.0016154999903,,,,,,,,818.998947199987,819.0016154999903,819.0016154999903,819.0016154999903,821.9907659000019,j,1.0842146999784745,0.10476050002034754,821.9909753999964,821.9910431999888,None,,,,,,,,,,,,,,00031,001,2026-01-21_14h49.42.484,MST_task,2024.2.0,60.02959459185393,2026-01-21 14h50.04.258897 +0530,
,Scenes\010a.jpg,41,0,42,,,,,j,1.3969538999954239,0.0955713999865111,None,,,,,,42,0,41,822.0071401000023,,,,,,,,,,,,,,,,,,,,,,,821.9913654999982,822.0071401000023,822.4906913999876,,,,,,,,,,,,822.5375227999757,,,,,,,,822.5348989999911,822.5375227999757,822.5375227999757,822.5375227999757,825.5072338999889,j,1.3969538999954239,0.0955713999865111,825.50743279999,825.5075018999923,None,,,,,,,,,,,,,,00031,001,2026-01-21_14h49.42.484,MST_task,2024.2.0,60.02959459185393,2026-01-21 14h50.04.258897 +0530,
,Objects\028a.jpg,42,0,43,,,,,f,1.0812435999978334,0.11214049998670816,None,,,,,,43,0,42,825.5238342999946,,,,,,,,,,,,,,,,,,,,,,,825.5078637999832,825.5238342999946,826.007497899991,,,,,,,,,,,,826.0527815999812,,,,,,,,826.0484485999914,826.0527815999812,826.0527815999812,826.0527815999812,829.0243003999931,f,1.0812435999978334,0.11214049998670816,829.0245130999829,829.0245856999827,None,,,,,,,,,,,,,,00031,001,2026-01-21_14h49.42.484,MST_task,2024.2.0,60.02959459185393,2026-01-21 14h50.04.258897 +0530,
,Objects\069a.jpg,43,0,44,,,,,j,2.3373330000031274,0.11148610000964254,None,,,,,,44,0,43,829.0410551999812,,,,,,,,,,,,,,,,,,,,,,,829.0249800999882,829.0410551999812,829.5239131999842,,,,,,,,,,,,829.5490860999853,,,,,,,,829.5463545999955,829.5490860999853,829.5490860999853,829.5490860999853,832.5416234000004,j,2.3373330000031274,0.11148610000964254,832.5418222000008,832.5418881999794,None,,,,,,,,,,,,,,00031,001,2026-01-21_14h49.42.484,MST_task,2024.2.0,60.02959459185393,2026-01-21 14h50.04.258897 +0530,
,Objects\034a.jpg,44,0,45,,,,,f,2.0049476999847684,0.1449301000102423,None,,,,,,45,0,44,832.5570970999834,,,,,,,,,,,,,,,,,,,,,,,832.5422471999773,832.5570970999834,833.0409473999753,,,,,,,,,,,,833.0727963999962,,,,,,,,833.0687294999952,833.0727963999962,833.0727963999962,833.0727963999962,836.0572947000037,f,2.0049476999847684,0.1449301000102423,836.0574930000002,836.0575607999926,None,,,,,,,,,,,,,,00031,001,2026-01-21_14h49.42.484,MST_task,2024.2.0,60.02959459185393,2026-01-21 14h50.04.258897 +0530,
,Objects\111a.jpg,45,0,46,,,,,f,1.1371069000160787,0.12877699997625314,None,,,,,,46,0,45,836.0738298999786,,,,,,,,,,,,,,,,,,,,,,,836.0579253999749,836.0738298999786,836.5573830999783,,,,,,,,,,,,836.5966764999903,,,,,,,,836.5936118999962,836.5966764999903,836.5966764999903,836.5966764999903,839.5742111,f,1.1371069000160787,0.12877699997625314,839.574409199995,839.5744753999752,None,,,,,,,,,,,,,,00031,001,2026-01-21_14h49.42.484,MST_task,2024.2.0,60.02959459185393,2026-01-21 14h50.04.258897 +0530,
,Objects\168a.jpg,46,0,47,,,,,None,,,f,0.2509371000051033,None,,,,47,0,46,839.590497600002,,,,,,,,,,,,,,,,,,,,,,,839.5748385999759,839.590497600002,840.0742581999802,,,,,,,,,,,,840.109486100002,,,,,,,,840.1064576999925,840.109486100002,840.109486100002,840.109486100002,843.0908683000016,None,,,843.0910500999889,843.3742502999958,f,843.1068041999824,843.1068041999824,0.2509371000051033,None,,,,,,,,,,00031,001,2026-01-21_14h49.42.484,MST_task,2024.2.0,60.02959459185393,2026-01-21 14h50.04.258897 +0530,
,Objects\067a.jpg,47,0,48,,,,,f,1.9383209999941755,0.13625449998653494,None,,,,,,48,0,47,843.3907244000002,,,,,,,,,,,,,,,,,,,,,,,843.3747001999873,843.3907244000002,843.8741258999798,,,,,,,,,,,,843.8994701999763,,,,,,,,843.8966520999966,843.8994701999763,843.8994701999763,843.8994701999763,846.890590199997,f,1.9383209999941755,0.13625449998653494,846.8907880999905,846.8908544000005,None,,,,,,,,,,,,,,00031,001,2026-01-21_14h49.42.484,MST_task,2024.2.0,60.02959459185393,2026-01-21 14h50.04.258897 +0530,
,Objects\110a.jpg,48,0,49,,,,,None,,,f,2.470567899988964,None,,,,49,0,48,846.9071223999781,,,,,,,,,,,,,,,,,,,,,,,846.8911462999822,846.9071223999781,847.3905611999799,,,,,,,,,,,,847.4283560999902,,,,,,,,847.4253812999814,847.4283560999902,847.4283560999902,847.4283560999902,850.4074763999961,None,,,850.4076634999947,852.9075970999838,f,850.4238457999891,850.4238457999891,2.470567899988964,None,,,,,,,,,,00031,001,2026-01-21_14h49.42.484,MST_task,2024.2.0,60.02959459185393,2026-01-21 14h50.04.258897 +0530,
,Scenes\174a.jpg,49,0,50,,,,,j,0.9554941999958828,0.11139609999372624,None,,,,,,50,0,49,852.9238473000005,,,,,,,,,,,,,,,,,,,,,,,852.9079885999963,852.9238473000005,853.4074973999814,,,,,,,,,,,,853.4513920999889,,,,,,,,853.4486390999809,853.4513920999889,853.4513920999889,853.4513920999889,856.4239636999846,j,0.9554941999958828,0.11139609999372624,856.4241793999972,856.4242474999919,None,,,,,,,,,,,,,,00031,001,2026-01-21_14h49.42.484,MST_task,2024.2.0,60.02959459185393,2026-01-21 14h50.04.258897 +0530,
,Scenes\054a.jpg,50,0,51,,,,,j,0.6706210999982432,0.11180049998802133,None,,,,,,51,0,50,856.4404924999981,,,,,,,,,,,,,,,,,,,,,,,856.4245405999827,856.4404924999981,856.9242406999983,,,,,,,,,,,,856.9678051999945,,,,,,,,856.9653144999756,856.9678051999945,856.9678051999945,856.9678051999945,859.9244187999866,j,0.6706210999982432,0.11180049998802133,859.9246169999824,859.9246821999841,None,,,,,,,,,,,,,,00031,001,2026-01-21_14h49.42.484,MST_task,2024.2.0,60.02959459185393,2026-01-21 14h50.04.258897 +0530,
,Scenes\014a.jpg,51,0,52,,,,,None,,,f,2.7409104000253137,None,,,,52,0,51,859.9405130999803,,,,,,,,,,,,,,,,,,,,,,,859.9250567999843,859.9405130999803,860.4232852999994,,,,,,,,,,,,860.4532476000022,,,,,,,,860.4504082999774,860.4532476000022,860.4532476000022,860.4532476000022,863.4407252999954,None,,,863.440907799988,866.207597200002,f,863.457513100002,863.457513100002,2.7409104000253137,None,,,,,,,,,,00031,001,2026-01-21_14h49.42.484,MST_task,2024.2.0,60.02959459185393,2026-01-21 14h50.04.258897 +0530,
,Scenes\111a.jpg,52,0,53,,,,,None,,,j,1.1298825000121724,None,,,,53,0,52,866.2238386999816,,,,,,,,,,,,,,,,,,,,,,,866.2079387999838,866.2238386999816,866.7076468000014,,,,,,,,,,,,866.7536784999829,,,,,,,,866.7508078999817,866.7536784999829,866.7536784999829,866.7536784999829,869.7249988999974,None,,,869.7251814999909,870.8740397999936,j,869.7405200999929,869.7405200999929,1.1298825000121724,None,,,,,,,,,,00031,001,2026-01-21_14h49.42.484,MST_task,2024.2.0,60.02959459185393,2026-01-21 14h50.04.258897 +0530,
,Scenes\167a.jpg,53,0,54,,,,,f,2.8199420000019018,0.10366379999322817,None,,,,,,54,0,53,870.8904575999768,,,,,,,,,,,,,,,,,,,,,,,870.8743770000001,870.8904575999768,871.3742270999937,,,,,,,,,,,,871.4344922000018,,,,,,,,871.4316892999923,871.4344922000018,871.4344922000018,871.4344922000018,874.3906347999873,f,2.8199420000019018,0.10366379999322817,874.3908341999922,874.3909019999846,None,,,,,,,,,,,,,,00031,001,2026-01-21_14h49.42.484,MST_task,2024.2.0,60.02959459185393,2026-01-21 14h50.04.258897 +0530,
,Scenes\086a.jpg,54,0,55,,,,,j,1.963357000000542,0.10459909998462535,None,,,,,,55,0,54,874.4069378999993,,,,,,,,,,,,,,,,,,,,,,,874.3912592999986,874.4069378999993,874.890862500004,,,,,,,,,,,,874.938407699985,,,,,,,,874.9352952999761,874.938407699985,874.938407699985,874.938407699985,877.9074371999886,j,1.963357000000542,0.10459909998462535,877.9076444999955,877.9077105000033,None,,,,,,,,,,,,,,00031,001,2026-01-21_14h49.42.484,MST_task,2024.2.0,60.02959459185393,2026-01-21 14h50.04.258897 +0530,
,Scenes\184a.jpg,55,0,56,,,,,j,1.300741699989885,0.0965489000082016,None,,,,,,56,0,55,877.9237818999973,,,,,,,,,,,,,,,,,,,,,,,877.9080017999804,877.9237818999973,878.4075692999759,,,,,,,,,,,,878.4573022999975,,,,,,,,878.4542353999859,878.4573022999975,878.4573022999975,878.4573022999975,881.424148399994,j,1.300741699989885,0.0965489000082016,881.4243503999896,881.4244183999836,None,,,,,,,,,,,,,,00031,001,2026-01-21_14h49.42.484,MST_task,2024.2.0,60.02959459185393,2026-01-21 14h50.04.258897 +0530,
,Objects\081a.jpg,56,0,57,,,,,j,1.566084000020055,0.11984509998001158,None,,,,,,57,0,56,881.4401062999968,,,,,,,,,,,,,,,,,,,,,,,881.4247068999975,881.4401062999968,881.9242531999771,,,,,,,,,,,,881.9920156000007,,,,,,,,881.987696199998,881.9920156000007,881.9920156000007,881.9920156000007,884.940589899983,j,1.566084000020055,0.11984509998001158,884.9407968999876,884.9408615999855,None,,,,,,,,,,,,,,00031,001,2026-01-21_14h49.42.484,MST_task,2024.2.0,60.02959459185393,2026-01-21 14h50.04.258897 +0530,
,Objects\049a.jpg,57,0,58,,,,,f,2.1503471999894828,0.10445030001574196,None,,,,,,58,0,57,884.9571866999904,,,,,,,,,,,,,,,,,,,,,,,884.941150300001,884.9571866999904,885.4407248999923,,,,,,,,,,,,885.4793758000014,,,,,,,,885.4763629999943,885.4793758000014,885.4793758000014,885.4793758000014,888.4576152999944,f,2.1503471999894828,0.10445030001574196,888.4578156999778,888.4578805999772,None,,,,,,,,,,,,,,00031,001,2026-01-21_14h49.42.484,MST_task,2024.2.0,60.02959459185393,2026-01-21 14h50.04.258897 +0530,
,Objects\007a.jpg,58,0,59,,,,,f,1.071284299978288,0.16007800001534633,None,,,,,,59,0,58,888.4738248999929,,,,,,,,,,,,,,,,,,,,,,,888.4581719999842,888.4738248999929,888.957303299976,,,,,,,,,,,,888.9905577999889,,,,,,,,888.9881101999781,888.9905577999889,888.9905577999889,888.9905577999889,891.9741485999839,f,1.071284299978288,0.16007800001534633,891.9743492999987,891.9744169999904,None,,,,,,,,,,,,,,00031,001,2026-01-21_14h49.42.484,MST_task,2024.2.0,60.02959459185393,2026-01-21 14h50.04.258897 +0530,
,Objects\151a.jpg,59,0,60,,,,,f,0.9005686999880709,0.11235780001152307,None,,,,,,60,0,59,891.9905157999892,,,,,,,,,,,,,,,,,,,,,,,891.9747004999954,891.9905157999892,892.4741709999798,,,,,,,,,,,,892.497163699998,,,,,,,,892.4949921999942,892.497163699998,892.497163699998,892.497163699998,895.4908953999984,f,0.9005686999880709,0.11235780001152307,895.4910986000032,895.4911644999811,None,,,,,,,,,,,,,,00031,001,2026-01-21_14h49.42.484,MST_task,2024.2.0,60.02959459185393,2026-01-21 14h50.04.258897 +0530,
,Objects\020a.jpg,60,0,61,,,,,j,1.2184945000044536,0.11988509999355301,None,,,,,,61,0,60,895.507182100002,,,,,,,,,,,,,,,,,,,,,,,895.4914503000036,895.507182100002,895.9914497999998,,,,,,,,,,,,896.0278811999888,,,,,,,,896.025129799993,896.0278811999888,896.0278811999888,896.0278811999888,899.0079047000036,j,1.2184945000044536,0.11988509999355301,899.0081196999818,899.0081855999888,None,,,,,,,,,,,,,,00031,001,2026-01-21_14h49.42.484,MST_task,2024.2.0,60.02959459185393,2026-01-21 14h50.04.258897 +0530,
,Objects\092a.jpg,61,0,62,,,,,None,,,j,1.9778600000136066,None,,,,62,0,61,899.0237720999867,,,,,,,,,,,,,,,,,,,,,,,899.0085543000023,899.0237720999867,899.5075727999792,,,,,,,,,,,,899.5320629999915,,,,,,,,899.5298161999963,899.5320629999915,899.5320629999915,899.5320629999915,902.5241592999955,None,,,902.5243413999851,904.5243023999792,j,902.5405157999776,902.5405157999776,1.9778600000136066,None,,,,,,,,,,00031,001,2026-01-21_14h49.42.484,MST_task,2024.2.0,60.02959459185393,2026-01-21 14h50.04.258897 +0530,
,Objects\155a.jpg,62,0,63,,,,,f,1.7200468000082765,0.09670860000187531,None,,,,,,63,0,62,904.5405111,,,,,,,,,,,,,,,,,,,,,,,904.524812299991,904.5405111,905.0242174000014,,,,,,,,,,,,905.0538042999979,,,,,,,,905.0516354999854,905.0538042999979,905.0538042999979,905.0538042999979,908.0408269999898,f,1.7200468000082765,0.09670860000187531,908.0410187999951,908.0410853999783,None,,,,,,,,,,,,,,00031,001,2026-01-21_14h49.42.484,MST_task,2024.2.0,60.02959459185393,2026-01-21 14h50.04.258897 +0530,
,Scenes\025a.jpg,63,0,64,,,,,j,0.8700678999884985,0.09581680002156645,None,,,,,,64,0,63,908.0579639999778,,,,,,,,,,,,,,,,,,,,,,,908.0414428999939,908.0579639999778,908.5574240999995,,,,,,,,,,,,,,,,,,,,908.6128581999801,908.6162438000028,908.6162438000028,908.6162438000028,911.5575661999756,j,0.8700678999884985,0.09581680002156645,911.5577632999921,911.557831699989,None,,,,,,,,,,,,,,00031,001,2026-01-21_14h49.42.484,MST_task,2024.2.0,60.02959459185393,2026-01-21 14h50.04.258897 +0530,
,Scenes\028a.jpg,64,0,65,,,,,j,0.7582727999833878,0.09620530001120642,None,,,,,,65,0,64,911.5738281999948,,,,,,,,,,,,,,,,,,,,,,,911.558116500004,911.5738281999948,912.0572666999942,,,,,,,,,,,,912.1120904999843,,,,,,,,912.1092639999988,912.1120904999843,912.1120904999843,912.1120904999843,915.0742365999904,j,0.7582727999833878,0.09620530001120642,915.0744358999946,915.0745023999771,None,,,,,,,,,,,,,,00031,001,2026-01-21_14h49.42.484,MST_task,2024.2.0,60.02959459185393,2026-01-21 14h50.04.258897 +0530,
,Scenes\020a.jpg,65,0,66,,,,,None,,,j,3.3436603999871295,None,,,,66,0,65,915.0905216999818,,,,,,,,,,,,,,,,,,,,,,,915.0748627999856,915.0905216999818,915.5742424999771,,,,,,,,,,,,915.6361322999874,,,,,,,,915.6332801999815,915.6361322999874,915.6361322999874,915.6361322999874,918.590701499983,None,,,918.5908837000025,921.9574181999778,j,918.6067305000033,918.6067305000033,3.3436603999871295,None,,,,,,,,,,00031,001,2026-01-21_14h49.42.484,MST_task,2024.2.0,60.02959459185393,2026-01-21 14h50.04.258897 +0530,
,Scenes\058a.jpg,66,0,67,,,,,f,0.7872132000047714,0.12061769998399541,None,,,,,,67,0,66,921.9733812999912,,,,,,,,,,,,,,,,,,,,,,,921.9578655999794,921.9733812999912,922.4575742000015,,,,,,,,,,,,922.5064639999764,,,,,,,,922.5034710999753,922.5064639999764,922.5064639999764,922.5064639999764,925.4582423999964,f,0.7872132000047714,0.12061769998399541,925.4584345999756,925.4585013999895,None,,,,,,,,,,,,,,00031,001,2026-01-21_14h49.42.484,MST_task,2024.2.0,60.02959459185393,2026-01-21 14h50.04.258897 +0530,
,Scenes\032a.jpg,67,0,68,,,,,j,0.7508712999988347,0.11145540000870824,None,,,,,,68,0,67,925.4736398999812,,,,,,,,,,,,,,,,,,,,,,,925.4588637999841,925.4736398999812,925.9572600999963,,,,,,,,,,,,925.9995138999948,,,,,,,,925.9967829999805,925.9995138999948,925.9995138999948,925.9995138999948,928.9742311000009,j,0.7508712999988347,0.11145540000870824,928.9744228999771,928.9744901999948,None,,,,,,,,,,,,,,00031,001,2026-01-21_14h49.42.484,MST_task,2024.2.0,60.02959459185393,2026-01-21 14h50.04.258897 +0530,
,Scenes\162a.jpg,68,0,69,,,,,j,1.1025024999980815,0.10408590000588447,None,,,,,,69,0,68,928.9904549999919,,,,,,,,,,,,,,,,,,,,,,,928.9747761999897,928.9904549999919,929.474233099987,,,,,,,,,,,,929.5036035999947,,,,,,,,929.500783800002,929.5036035999947,929.5036035999947,929.5036035999947,932.4749836999981,j,1.1025024999980815,0.10408590000588447,932.4751796999772,932.475246099988,None,,,,,,,,,,,,,,00031,001,2026-01-21_14h49.42.484,MST_task,2024.2.0,60.02959459185393,2026-01-21 14h50.04.258897 +0530,
,Scenes\168a.jpg,69,0,70,,,,,j,2.0339984000020195,0.09637369998381473,None,,,,,,70,0,69,932.4904096999962,,,,,,,,,,,,,,,,,,,,,,,932.4756033000012,932.4904096999962,932.9743439999875,,,,,,,,,,,,933.0197343999753,,,,,,,,933.0165751999884,933.0197343999753,933.0197343999753,933.0197343999753,935.9905328000023,j,2.0339984000020195,0.09637369998381473,935.9907008000009,935.9907288999821,None,,,,,,,,,,,,,,00031,001,2026-01-21_14h49.42.484,MST_task,2024.2.0,60.02959459185393,2026-01-21 14h50.04.258897 +0530,
,Objects\086a.jpg,70,0,71,,,,,j,2.9309778999886476,None,None,,,,,,71,0,70,936.0068814999831,,,,,,,,,,,,,,,,,,,,,,,935.9908590999839,936.0068814999831,936.4906993999903,,,,,,,,,,,,936.539340599993,,,,,,,,936.5345764999802,936.539340599993,936.539340599993,936.539340599993,939.5072611999931,j,2.9309778999886476,None,939.5074577999767,939.5075238999852,None,,,,,,,,,,,,,,00031,001,2026-01-21_14h49.42.484,MST_task,2024.2.0,60.02959459185393,2026-01-21 14h50.04.258897 +0530,
,Objects\164a.jpg,71,0,72,,,,,f,1.1676923999912106,0.10391920001711696,None,,,,,,72,0,71,939.523652999982,,,,,,,,,,,,,,,,,,,,,,,939.5078848999983,939.523652999982,940.0077535999881,,,,,,,,,,,,,,,,,,,,940.043331599998,940.0461774999858,940.0461774999858,940.0461774999858,943.0243919999921,f,1.1676923999912106,0.10391920001711696,943.0245873999957,943.0246542999812,None,,,,,,,,,,,,,,00031,001,2026-01-21_14h49.42.484,MST_task,2024.2.0,60.02959459185393,2026-01-21 14h50.04.258897 +0530,
,Objects\131a.jpg,72,0,73,,,,,None,,,j,0.7772135999985039,None,,,,73,0,72,943.0405150000006,,,,,,,,,,,,,,,,,,,,,,,943.0250136999821,943.0405150000006,943.524147499993,,,,,,,,,,,,943.6091084999789,,,,,,,,943.606238599983,943.6091084999789,943.6091084999789,943.6091084999789,946.5408966999967,None,,,946.5410776999779,947.3410319999966,j,946.5571294999972,946.5571294999972,0.7772135999985039,None,,,,,,,,,,00031,001,2026-01-21_14h49.42.484,MST_task,2024.2.0,60.02959459185393,2026-01-21 14h50.04.258897 +0530,
,Objects\104a.jpg,73,0,74,,,,,None,,,j,0.7807835999992676,None,,,,74,0,73,947.3571175999823,,,,,,,,,,,,,,,,,,,,,,,947.3413612000004,947.3571175999823,947.8414769999799,,,,,,,,,,,,,,,,,,,,947.8752953999792,947.8781780999852,947.8781780999852,947.8781780999852,950.8575729999866,None,,,950.857777999976,951.6572698999953,j,950.8735232999898,950.8735232999898,0.7807835999992676,None,,,,,,,,,,00031,001,2026-01-21_14h49.42.484,MST_task,2024.2.0,60.02959459185393,2026-01-21 14h50.04.258897 +0530,
,Objects\123a.jpg,74,0,75,,,,,j,1.9469829000008758,0.12021709998953156,None,,,,,,75,0,74,951.6735237999819,,,,,,,,,,,,,,,,,,,,,,,951.6577116999833,951.6735237999819,952.1571960999863,,,,,,,,,,,,952.1873277999985,,,,,,,,952.1851822999888,952.1873277999985,952.1873277999985,952.1873277999985,955.1742340999772,j,1.9469829000008758,0.12021709998953156,955.1744394999987,955.1745059999812,None,,,,,,,,,,,,,,00031,001,2026-01-21_14h49.42.484,MST_task,2024.2.0,60.02959459185393,2026-01-21 14h50.04.258897 +0530,
,Objects\008a.jpg,75,0,76,,,,,f,1.2232322999916505,0.09560070000588894,None,,,,,,76,0,75,955.1905077999982,,,,,,,,,,,,,,,,,,,,,,,955.1747991000011,955.1905077999982,955.6748541999841,,,,,,,,,,,,,,,,,,,,955.7084681999986,955.7110791000014,955.7110791000014,955.7110791000014,958.6916308999935,f,1.2232322999916505,0.09560070000588894,958.6918321999838,958.6918990999984,None,,,,,,,,,,,,,,00031,001,2026-01-21_14h49.42.484,MST_task,2024.2.0,60.02959459185393,2026-01-21 14h50.04.258897 +0530,
,Objects\129a.jpg,76,0,77,,,,,f,1.8392683999845758,0.08008810001774691,None,,,,,,77,0,76,958.7071135999868,,,,,,,,,,,,,,,,,,,,,,,958.6922582999978,958.7071135999868,959.1914821999962,,,,,,,,,,,,959.2225074000016,,,,,,,,959.2202143000031,959.2225074000016,959.2225074000016,959.2225074000016,962.2072540999798,f,1.8392683999845758,0.08008810001774691,962.2074605999805,962.2075273999944,None,,,,,,,,,,,,,,00031,001,2026-01-21_14h49.42.484,MST_task,2024.2.0,60.02959459185393,2026-01-21 14h50.04.258897 +0530,
,Scenes\097a.jpg,77,0,78,,,,,None,,,f,1.9695435999892652,None,,,,78,0,77,962.2235619999992,,,,,,,,,,,,,,,,,,,,,,,962.2079102999996,962.2235619999992,962.7073133999947,,,,,,,,,,,,962.7439487999945,,,,,,,,962.741014899977,962.7439487999945,962.7439487999945,962.7439487999945,965.7241353999998,None,,,965.7243171999871,967.7240241999971,f,965.7401519999839,965.7401519999839,1.9695435999892652,None,,,,,,,,,,00031,001,2026-01-21_14h49.42.484,MST_task,2024.2.0,60.02959459185393,2026-01-21 14h50.04.258897 +0530,
,Scenes\141a.jpg,78,0,79,,,,,j,1.025588999997126,0.12889190000714734,None,,,,,,79,0,78,967.7401789999858,,,,,,,,,,,,,,,,,,,,,,,967.7244819999905,967.7401789999858,968.2242652999994,,,,,,,,,,,,968.2680581999884,,,,,,,,968.2654464999796,968.2680581999884,968.2680581999884,968.2680581999884,971.2249687000003,j,1.025588999997126,0.12889190000714734,971.2251734999882,971.2252447999781,None,,,,,,,,,,,,,,00031,001,2026-01-21_14h49.42.484,MST_task,2024.2.0,60.02959459185393,2026-01-21 14h50.04.258897 +0530,
,Scenes\075a.jpg,79,0,80,,,,,j,1.3498820000095293,0.09652650001225993,None,,,,,,80,0,79,971.2405196999898,,,,,,,,,,,,,,,,,,,,,,,971.2256139999954,971.2405196999898,971.7247114999918,,,,,,,,,,,,971.7680208999955,,,,,,,,971.7654339000001,971.7680208999955,971.7680208999955,971.7680208999955,974.7409122999816,j,1.3498820000095293,0.09652650001225993,974.7411090999958,974.7411763999844,None,,,,,,,,,,,,,,00031,001,2026-01-21_14h49.42.484,MST_task,2024.2.0,60.02959459185393,2026-01-21 14h50.04.258897 +0530,
,Scenes\165a.jpg,80,0,81,,,,,None,,,j,3.9793347000086214,None,,,,81,0,80,974.7569414000027,,,,,,,,,,,,,,,,,,,,,,,974.7415344999754,974.7569414000027,975.2408606999961,,,,,,,,,,,,975.2879318999767,,,,,,,,975.2851512999914,975.2879318999767,975.2879318999767,975.2879318999767,978.2575230999792,None,,,978.2577036999865,982.257638799987,j,978.2744443999836,978.2744443999836,3.9793347000086214,None,,,,,,,,,,00031,001,2026-01-21_14h49.42.484,MST_task,2024.2.0,60.02959459185393,2026-01-21 14h50.04.258897 +0530,
,Scenes\087a.jpg,81,0,82,,,,,j,1.269474300002912,0.12007450000965036,None,,,,,,82,0,81,982.2735383999825,,,,,,,,,,,,,,,,,,,,,,,982.2579793999903,982.2735383999825,982.7572688999935,,,,,,,,,,,,982.7928000999964,,,,,,,,982.7897349999985,982.7928000999964,982.7928000999964,982.7928000999964,985.7742818999977,j,1.269474300002912,0.12007450000965036,985.7744912999915,985.7745579999755,None,,,,,,,,,,,,,,00031,001,2026-01-21_14h49.42.484,MST_task,2024.2.0,60.02959459185393,2026-01-21 14h50.04.258897 +0530,
,Scenes\018a.jpg,82,0,83,,,,,f,2.3331729999918025,0.10362120001809672,None,,,,,,83,0,82,985.7905426999787,,,,,,,,,,,,,,,,,,,,,,,985.7748504999909,985.7905426999787,986.2742853999953,,,,,,,,,,,,986.3130038999952,,,,,,,,986.3101811999804,986.3130038999952,986.3130038999952,986.3130038999952,989.2909098999808,f,2.3331729999918025,0.10362120001809672,989.291106299992,989.2911724000005,None,,,,,,,,,,,,,,00031,001,2026-01-21_14h49.42.484,MST_task,2024.2.0,60.02959459185393,2026-01-21 14h50.04.258897 +0530,
,Scenes\013a.jpg,83,0,84,,,,,j,0.7365150999976322,0.09672339999815449,None,,,,,,84,0,83,989.3071323999902,,,,,,,,,,,,,,,,,,,,,,,989.2914603999816,989.3071323999902,989.7913029999763,,,,,,,,,,,,989.8532868999755,,,,,,,,989.8503966999997,989.8532868999755,989.8532868999755,989.8532868999755,992.8076699999801,j,0.7365150999976322,0.09672339999815449,992.807872299978,992.8079402000003,None,,,,,,,,,,,,,,00031,001,2026-01-21_14h49.42.484,MST_task,2024.2.0,60.02959459185393,2026-01-21 14h50.04.258897 +0530,
,Objects\181a.jpg,84,0,85,,,,,j,0.9704058000061195,0.10442129999864846,None,,,,,,85,0,84,992.8237761999771,,,,,,,,,,,,,,,,,,,,,,,992.8083059999917,992.8237761999771,993.3075801999948,,,,,,,,,,,,993.3392083999934,,,,,,,,993.3360136999981,993.3392083999934,993.3392083999934,993.3392083999934,996.3241598999884,j,0.9704058000061195,0.10442129999864846,996.3243602000002,996.3244244999951,None,,,,,,,,,,,,,,00031,001,2026-01-21_14h49.42.484,MST_task,2024.2.0,60.02959459185393,2026-01-21 14h50.04.258897 +0530,
,Objects\099a.jpg,85,0,86,,,,,j,1.0212828999792691,0.1208492000005208,None,,,,,,86,0,85,996.3406395999773,,,,,,,,,,,,,,,,,,,,,,,996.3247087999771,996.3406395999773,996.8242139999929,,,,,,,,,,,,996.847859499976,,,,,,,,996.8453287000011,996.847859499976,996.847859499976,996.847859499976,999.8409627999936,j,1.0212828999792691,0.1208492000005208,999.8411906999827,999.8412591999804,None,,,,,,,,,,,,,,00031,001,2026-01-21_14h49.42.484,MST_task,2024.2.0,60.02959459185393,2026-01-21 14h50.04.258897 +0530,
,Objects\117a.jpg,86,0,87,,,,,None,,,j,4.000503799994476,None,,,,87,0,86,999.8570119999931,,,,,,,,,,,,,,,,,,,,,,,999.8415574999817,999.8570119999931,1000.340593699977,,,,,,,,,,,,1000.3766041999916,,,,,,,,1000.3736285999767,1000.3766041999916,1000.3766041999916,1000.3766041999916,1003.3414606000006,None,,,1003.3416383999866,1007.3741863000032,j,1003.3571668999793,1003.3571668999793,4.000503799994476,None,,,,,,,,,,00031,001,2026-01-21_14h49.42.484,MST_task,2024.2.0,60.02959459185393,2026-01-21 14h50.04.258897 +0530,
,Objects\140a.jpg,87,0,88,,,,,f,1.6239653000084218,0.12093699999968521,None,,,,,,88,0,87,1007.3903031999944,,,,,,,,,,,,,,,,,,,,,,,1007.3744945999933,1007.3903031999944,1007.8744367999898,,,,,,,,,,,,,,,,,,,,1007.9069087999815,1007.9095910000033,1007.9095910000033,1007.9095910000033,1010.8906932999962,f,1.6239653000084218,0.12093699999968521,1010.8908930000034,1010.8909723999968,None,,,,,,,,,,,,,,00031,001,2026-01-21_14h49.42.484,MST_task,2024.2.0,60.02959459185393,2026-01-21 14h50.04.258897 +0530,
,Objects\060a.jpg,88,0,89,,,,,f,1.3775882000045385,0.12778949999483302,None,,,,,,89,0,88,1010.907002699998,,,,,,,,,,,,,,,,,,,,,,,1010.8912626999954,1010.907002699998,1011.3909236999752,,,,,,,,,,,,1011.4686839999922,,,,,,,,1011.4659485000011,1011.4686839999922,1011.4686839999922,1011.4686839999922,1014.4075174999889,f,1.3775882000045385,0.12778949999483302,1014.4077124999894,1014.4077782999957,None,,,,,,,,,,,,,,00031,001,2026-01-21_14h49.42.484,MST_task,2024.2.0,60.02959459185393,2026-01-21 14h50.04.258897 +0530,
,Objects\085a.jpg,89,0,90,,,,,None,,,f,0.2579548000067007,None,,,,90,0,89,1014.4241159999801,,,,,,,,,,,,,,,,,,,,,,,1014.4080646999937,1014.4241159999801,1014.9072517000022,,,,,,,,,,,,1014.9589094999828,,,,,,,,1014.9558166999777,1014.9589094999828,1014.9589094999828,1014.9589094999828,1017.9083230999822,None,,,1017.9085112999892,1018.191262599983,f,1017.9237917999853,1017.9237917999853,0.2579548000067007,None,,,,,,,,,,00031,001,2026-01-21_14h49.42.484,MST_task,2024.2.0,60.02959459185393,2026-01-21 14h50.04.258897 +0530,
,Objects\016a.jpg,90,0,91,,,,,None,,,f,0.010867899982258677,None,,,,91,0,90,1018.207562399999,,,,,,,,,,,,,,,,,,,,,,,1018.1917381999956,1018.207562399999,1018.6909228999866,,,,,,,,,,,,1018.7299401999917,,,,,,,,1018.7274820999883,1018.7299401999917,1018.7299401999917,1018.7299401999917,1021.7075664000004,None,,,1021.7077425000025,1021.741060499975,f,1021.7234367999772,1021.7234367999772,0.010867899982258677,None,,,,,,,,,,00031,001,2026-01-21_14h49.42.484,MST_task,2024.2.0,60.02959459185393,2026-01-21 14h50.04.258897 +0530,
,Scenes\002a.jpg,91,0,92,,,,,j,1.527819900016766,0.1201594999874942,None,,,,,,92,0,91,1021.7568442999909,,,,,,,,,,,,,,,,,,,,,,,1021.7415081999789,1021.7568442999909,1022.2409250999917,,,,,,,,,,,,1022.2937979999988,,,,,,,,1022.2911208999867,1022.2937979999988,1022.2937979999988,1022.2937979999988,1025.2575763999776,j,1.527819900016766,0.1201594999874942,1025.2577709000034,1025.2578388999973,None,,,,,,,,,,,,,,00031,001,2026-01-21_14h49.42.484,MST_task,2024.2.0,60.02959459185393,2026-01-21 14h50.04.258897 +0530,
,Scenes\120a.jpg,92,0,93,,,,,j,0.743101799977012,0.08883140000398271,None,,,,,,93,0,92,1025.274487799994,,,,,,,,,,,,,,,,,,,,,,,1025.2581998999813,1025.274487799994,1025.7576162999903,,,,,,,,,,,,1025.798561100004,,,,,,,,1025.795555699995,1025.798561100004,1025.798561100004,1025.798561100004,1028.7742603999795,j,0.743101799977012,0.08883140000398271,1028.7744602999883,1028.7745265999984,None,,,,,,,,,,,,,,00031,001,2026-01-21_14h49.42.484,MST_task,2024.2.0,60.02959459185393,2026-01-21 14h50.04.258897 +0530,
,Scenes\144a.jpg,93,0,94,,,,,j,2.493818899994949,0.09547999998903833,None,,,,,,94,0,93,1028.790468799998,,,,,,,,,,,,,,,,,,,,,,,1028.7748884999892,1028.790468799998,1029.2743235999951,,,,,,,,,,,,1029.3204722999944,,,,,,,,1029.31734769998,1029.3204722999944,1029.3204722999944,1029.3204722999944,1032.2906555999944,j,2.493818899994949,0.09547999998903833,1032.2908688999887,1032.2909417999908,None,,,,,,,,,,,,,,00031,001,2026-01-21_14h49.42.484,MST_task,2024.2.0,60.02959459185393,2026-01-21 14h50.04.258897 +0530,
,Scenes\044a.jpg,94,0,95,,,,,j,2.193443500000285,0.11204550002003089,None,,,,,,95,0,94,1032.3069897999812,,,,,,,,,,,,,,,,,,,,,,,1032.2913962999883,1032.3069897999812,1032.7908549999993,,,,,,,,,,,,1032.820291799988,,,,,,,,1032.8175903999945,1032.820291799988,1032.820291799988,1032.820291799988,1035.8074701000005,j,2.193443500000285,0.11204550002003089,1035.8076703999832,1035.807736799994,None,,,,,,,,,,,,,,00031,001,2026-01-21_14h49.42.484,MST_task,2024.2.0,60.02959459185393,2026-01-21 14h50.04.258897 +0530,
,Scenes\182a.jpg,95,0,96,,,,,None,,,j,0.23377310001524165,None,,,,96,0,95,1035.8240222999884,,,,,,,,,,,,,,,,,,,,,,,1035.8080309999932,1035.8240222999884,1036.3076014999824,,,,,,,,,,,,1036.3523940999876,,,,,,,,1036.3497119999956,1036.3523940999876,1036.3523940999876,1036.3523940999876,1039.3245324000018,None,,,1039.3247128999792,1039.5750003999856,j,1039.3401744999865,1039.3401744999865,0.23377310001524165,None,,,,,,,,,,00031,001,2026-01-21_14h49.42.484,MST_task,2024.2.0,60.02959459185393,2026-01-21 14h50.04.258897 +0530,
,Scenes\067a.jpg,96,0,97,,,,,None,,,f,2.1628779000020586,None,,,,97,0,96,1039.5905025999818,,,,,,,,,,,,,,,,,,,,,,,1039.5753329999861,1039.5905025999818,1040.073926299985,,,,,,,,,,,,1040.1232428999792,,,,,,,,1040.1202028999978,1040.1232428999792,1040.1232428999792,1040.1232428999792,1043.0908015999885,None,,,1043.0909811999882,1045.2743804999918,f,1043.1069762999832,1043.1069762999832,2.1628779000020586,None,,,,,,,,,,00031,001,2026-01-21_14h49.42.484,MST_task,2024.2.0,60.02959459185393,2026-01-21 14h50.04.258897 +0530,
,Scenes\180a.jpg,97,0,98,,,,,j,0.6881833999941591,0.1284917000157293,None,,,,,,98,0,97,1045.2907117999857,,,,,,,,,,,,,,,,,,,,,,,1045.2748421999859,1045.2907117999857,1045.7740933999885,,,,,,,,,,,,1045.8213988999778,,,,,,,,1045.8190774999966,1045.8213988999778,1045.8213988999778,1045.8213988999778,1048.7907634000003,j,0.6881833999941591,0.1284917000157293,1048.7909714999842,1048.791041599994,None,,,,,,,,,,,,,,00031,001,2026-01-21_14h49.42.484,MST_task,2024.2.0,60.02959459185393,2026-01-21 14h50.04.258897 +0530,
,Objects\113a.jpg,98,0,99,,,,,f,1.9616408000001684,0.10449590001371689,None,,,,,,99,0,98,1048.8070571999997,,,,,,,,,,,,,,,,,,,,,,,1048.791335899994,1048.8070571999997,1049.290951199975,,,,,,,,,,,,1049.3239659999963,,,,,,,,1049.3212639999983,1049.3239659999963,1049.3239659999963,1049.3239659999963,1052.3075142999878,f,1.9616408000001684,0.10449590001371689,1052.3077314999828,1052.3078019999957,None,,,,,,,,,,,,,,00031,001,2026-01-21_14h49.42.484,MST_task,2024.2.0,60.02959459185393,2026-01-21 14h50.04.258897 +0530,
,Objects\004a.jpg,99,0,100,,,,,None,,,f,1.8049531000142451,None,,,,100,0,99,1052.3238684999815,,,,,,,,,,,,,,,,,,,,,,,1052.3081040999969,1052.3238684999815,1052.8073466999922,,,,,,,,,,,,1052.8396990999754,,,,,,,,1052.8372802999802,1052.8396990999754,1052.8396990999754,1052.8396990999754,1055.8246704999765,None,,,1055.8248553999874,1057.6576316999854,f,1055.8413157000032,1055.8413157000032,1.8049531000142451,None,,,,,,,,,,00031,001,2026-01-21_14h49.42.484,MST_task,2024.2.0,60.02959459185393,2026-01-21 14h50.04.258897 +0530,
,Objects\124a.jpg,100,0,101,,,,,f,2.2643082999857143,0.10373959998833016,None,,,,,,101,0,100,1057.6738655999943,,,,,,,,,,,,,,,,,,,,,,,1057.6579649999912,1057.6738655999943,1058.1575330999913,,,,,,,,,,,,1058.189944599988,,,,,,,,1058.1875845000031,1058.189944599988,1058.189944599988,1058.189944599988,1061.1742441999959,f,2.2643082999857143,0.10373959998833016,1061.174449299986,1061.1745167999761,None,,,,,,,,,,,,,,00031,001,2026-01-21_14h49.42.484,MST_task,2024.2.0,60.02959459185393,2026-01-21 14h50.04.258897 +0530,
,Objects\135a.jpg,101,0,102,,,,,j,2.9370756999996956,None,None,,,,,,102,0,101,1061.1905435999797,,,,,,,,,,,,,,,,,,,,,,,1061.1748809999845,1061.1905435999797,1061.674079999997,,,,,,,,,,,,1061.7091710999957,,,,,,,,1061.7062781999994,1061.7091710999957,1061.7091710999957,1061.7091710999957,1064.690936400002,j,2.9370756999996956,None,1064.6911401999823,1064.6912073999993,None,,,,,,,,,,,,,,00031,001,2026-01-21_14h49.42.484,MST_task,2024.2.0,60.02959459185393,2026-01-21 14h50.04.258897 +0530,
,Objects\154a.jpg,102,0,103,,,,,None,,,f,0.39838839997537434,None,,,,103,0,102,1064.7071299999952,,,,,,,,,,,,,,,,,,,,,,,1064.6915709000023,1064.7071299999952,1065.1906305000011,,,,,,,,,,,,1065.2119528999901,,,,,,,,1065.2094462999958,1065.2119528999901,1065.2119528999901,1065.2119528999901,1068.2075435000006,None,,,1068.2077231000003,1068.6240458999819,f,1068.223839399987,1068.223839399987,0.39838839997537434,None,,,,,,,,,,00031,001,2026-01-21_14h49.42.484,MST_task,2024.2.0,60.02959459185393,2026-01-21 14h50.04.258897 +0530,
,Objects\055a.jpg,103,0,104,,,,,f,1.4775377000041772,0.14485420001437888,None,,,,,,104,0,103,1068.6404805999773,,,,,,,,,,,,,,,,,,,,,,,1068.624493899988,1068.6404805999773,1069.1241248000006,,,,,,,,,,,,1069.1600916000025,,,,,,,,1069.157226499985,1069.1600916000025,1069.1600916000025,1069.1600916000025,1072.1409049999784,f,1.4775377000041772,0.14485420001437888,1072.1410997999774,1072.141170399991,None,,,,,,,,,,,,,,00031,001,2026-01-21_14h49.42.484,MST_task,2024.2.0,60.02959459185393,2026-01-21 14h50.04.258897 +0530,
,Objects\146a.jpg,104,0,105,,,,,f,1.367209299991373,0.14356140000745654,None,,,,,,105,0,104,1072.1571705999959,,,,,,,,,,,,,,,,,,,,,,,1072.1414571999921,1072.1571705999959,1072.6409278999781,,,,,,,,,,,,1072.6630416999978,,,,,,,,1072.660327599995,1072.6630416999978,1072.6630416999978,1072.6630416999978,1075.6575121999776,f,1.367209299991373,0.14356140000745654,1075.6577148999786,1075.657780199981,None,,,,,,,,,,,,,,00031,001,2026-01-21_14h49.42.484,MST_task,2024.2.0,60.02959459185393,2026-01-21 14h50.04.258897 +0530,
,Scenes\046a.jpg,105,0,106,,,,,j,1.5484600000199862,0.0959994999866467,None,,,,,,106,0,105,1075.674618799996,,,,,,,,,,,,,,,,,,,,,,,1075.658062499977,1075.674618799996,1076.1573884999962,,,,,,,,,,,,1076.1934747999767,,,,,,,,1076.1906648000004,1076.1934747999767,1076.1934747999767,1076.1934747999767,1079.1742595999967,j,1.5484600000199862,0.0959994999866467,1079.1744572999887,1079.1745225999912,None,,,,,,,,,,,,,,00031,001,2026-01-21_14h49.42.484,MST_task,2024.2.0,60.02959459185393,2026-01-21 14h50.04.258897 +0530,
,Scenes\003a.jpg,106,0,107,,,,,f,1.8137213000154588,0.11246969999046996,None,,,,,,107,0,106,1079.1905387000006,,,,,,,,,,,,,,,,,,,,,,,1079.1748847999843,1079.1905387000006,1079.6741723000014,,,,,,,,,,,,1079.7278480999812,,,,,,,,1079.7246544999944,1079.7278480999812,1079.7278480999812,1079.7278480999812,1082.690946799994,f,1.8137213000154588,0.11246969999046996,1082.6911430000036,1082.691207900003,None,,,,,,,,,,,,,,00031,001,2026-01-21_14h49.42.484,MST_task,2024.2.0,60.02959459185393,2026-01-21 14h50.04.258897 +0530,
,Scenes\145a.jpg,107,0,108,,,,,j,0.9626773000054527,0.13619069999549538,None,,,,,,108,0,107,1082.7071999999753,,,,,,,,,,,,,,,,,,,,,,,1082.6915707000007,1082.7071999999753,1083.190930599987,,,,,,,,,,,,1083.242933899979,,,,,,,,1083.2399219999788,1083.242933899979,1083.242933899979,1083.242933899979,1086.2074033999816,j,0.9626773000054527,0.13619069999549538,1086.2075323000026,1086.2075711999787,None,,,,,,,,,,,,,,00031,001,2026-01-21_14h49.42.484,MST_task,2024.2.0,60.02959459185393,2026-01-21 14h50.04.258897 +0530,
,Scenes\137a.jpg,108,0,109,,,,,j,0.6394220999791287,0.08060340001247823,None,,,,,,109,0,108,1086.224266699981,,,,,,,,,,,,,,,,,,,,,,,1086.20786949998,1086.224266699981,1086.7076103999862,,,,,,,,,,,,1086.7505799999926,,,,,,,,1086.7478009999904,1086.7505799999926,1086.7505799999926,1086.7505799999926,1089.7239593999984,j,0.6394220999791287,0.08060340001247823,1089.7241600999841,1089.7242248999828,None,,,,,,,,,,,,,,00031,001,2026-01-21_14h49.42.484,MST_task,2024.2.0,60.02959459185393,2026-01-21 14h50.04.258897 +0530,
,Scenes\127a.jpg,109,0,110,,,,,j,1.7158754999982193,0.12007299999822862,None,,,,,,110,0,109,1089.7402690000017,,,,,,,,,,,,,,,,,,,,,,,1089.724587499979,1089.7402690000017,1090.2242360999808,,,,,,,,,,,,1090.2738650999963,,,,,,,,1090.2710146000027,1090.2738650999963,1090.2738650999963,1090.2738650999963,1093.2407946999883,j,1.7158754999982193,0.12007299999822862,1093.2409903999942,1093.2410562000005,None,,,,,,,,,,,,,,00031,001,2026-01-21_14h49.42.484,MST_task,2024.2.0,60.02959459185393,2026-01-21 14h50.04.258897 +0530,
,Scenes\173a.jpg,110,0,111,,,,,j,0.8254600000218488,0.11154979999992065,None,,,,,,111,0,110,1093.257068499981,,,,,,,,,,,,,,,,,,,,,,,1093.241434399999,1093.257068499981,1093.740923699981,,,,,,,,,,,,1093.8047296000004,,,,,,,,1093.8018000999873,1093.8047296000004,1093.8047296000004,1093.8047296000004,1096.75758949999,j,0.8254600000218488,0.11154979999992065,1096.7577923999925,1096.7578601999849,None,,,,,,,,,,,,,,00031,001,2026-01-21_14h49.42.484,MST_task,2024.2.0,60.02959459185393,2026-01-21 14h50.04.258897 +0530,
,Scenes\179a.jpg,111,0,112,,,,,j,2.1300939999928232,0.09564819998922758,None,,,,,,112,0,111,1096.7735342999804,,,,,,,,,,,,,,,,,,,,,,,1096.7581447999983,1096.7735342999804,1097.2572026999842,,,,,,,,,,,,1097.3241439999838,,,,,,,,1097.3211602999945,1097.3241439999838,1097.3241439999838,1097.3241439999838,1100.2739374999946,j,2.1300939999928232,0.09564819998922758,1100.274138399982,1100.2742047999927,None,,,,,,,,,,,,,,00031,001,2026-01-21_14h49.42.484,MST_task,2024.2.0,60.02959459185393,2026-01-21 14h50.04.258897 +0530,
,Objects\001a.jpg,112,0,113,,,,,f,1.9749552000139374,0.10406019998481497,None,,,,,,113,0,112,1100.2905335999967,,,,,,,,,,,,,,,,,,,,,,,1100.2744990999927,1100.2905335999967,1100.7742615999887,,,,,,,,,,,,1100.8070206999837,,,,,,,,1100.8023488000035,1100.8070206999837,1100.8070206999837,1100.8070206999837,1103.7905580999795,f,1.9749552000139374,0.10406019998481497,1103.7907536999846,1103.790818999987,None,,,,,,,,,,,,,,00031,001,2026-01-21_14h49.42.484,MST_task,2024.2.0,60.02959459185393,2026-01-21 14h50.04.258897 +0530,
,Objects\071a.jpg,113,0,114,,,,,j,1.348107900004834,0.12817640000139363,None,,,,,,114,0,113,1103.806943899981,,,,,,,,,,,,,,,,,,,,,,,1103.7911013999837,1103.806943899981,1104.2907023000007,,,,,,,,,,,,1104.3221043999947,,,,,,,,1104.319299099996,1104.3221043999947,1104.3221043999947,1104.3221043999947,1107.2916855999792,j,1.348107900004834,0.12817640000139363,1107.2918816999882,1107.2919458999822,None,,,,,,,,,,,,,,00031,001,2026-01-21_14h49.42.484,MST_task,2024.2.0,60.02959459185393,2026-01-21 14h50.04.258897 +0530,
,Objects\024a.jpg,114,0,115,,,,,f,1.1181880999938585,0.112469300016528,None,,,,,,115,0,114,1107.3071373999992,,,,,,,,,,,,,,,,,,,,,,,1107.2923067999945,1107.3071373999992,1107.790937199985,,,,,,,,,,,,1107.8233869999822,,,,,,,,1107.8209831999848,1107.8233869999822,1107.8233869999822,1107.8233869999822,1110.8075186999922,f,1.1181880999938585,0.112469300016528,1110.8077162999834,1110.807781999989,None,,,,,,,,,,,,,,00031,001,2026-01-21_14h49.42.484,MST_task,2024.2.0,60.02959459185393,2026-01-21 14h50.04.258897 +0530,
,Objects\014a.jpg,115,0,116,,,,,f,2.111274400027469,0.11997529998188838,None,,,,,,116,0,115,1110.8238882999867,,,,,,,,,,,,,,,,,,,,,,,1110.8082131999836,1110.8238882999867,1111.3075948999904,,,,,,,,,,,,1111.3425967999792,,,,,,,,1111.3394408999884,1111.3425967999792,1111.3425967999792,1111.3425967999792,1114.324264099996,f,2.111274400027469,0.11997529998188838,1114.3244608999812,1114.3245270999905,None,,,,,,,,,,,,,,00031,001,2026-01-21_14h49.42.484,MST_task,2024.2.0,60.02959459185393,2026-01-21 14h50.04.258897 +0530,
,Objects\136a.jpg,116,0,117,,,,,f,1.7145011000102386,0.12010179998469539,None,,,,,,117,0,116,1114.3405400999764,,,,,,,,,,,,,,,,,,,,,,,1114.3248850999807,1114.3405400999764,1114.8240625999752,,,,,,,,,,,,1114.859082799987,,,,,,,,1114.8563605999807,1114.859082799987,1114.859082799987,1114.859082799987,1117.8415993999806,f,1.7145011000102386,0.12010179998469539,1117.841795299988,1117.8418623000034,None,,,,,,,,,,,,,,00031,001,2026-01-21_14h49.42.484,MST_task,2024.2.0,60.02959459185393,2026-01-21 14h50.04.258897 +0530,
,Objects\035a.jpg,117,0,118,,,,,f,1.2727856999845244,0.13530090000131167,None,,,,,,118,0,117,1117.8571436999773,,,,,,,,,,,,,,,,,,,,,,,1117.842224299995,1117.8571436999773,1118.3409344999818,,,,,,,,,,,,1118.3738000000012,,,,,,,,1118.3710233999882,1118.3738000000012,1118.3738000000012,1118.3738000000012,1121.3574748999963,f,1.2727856999845244,0.13530090000131167,1121.357669799996,1121.3577343999932,None,,,,,,,,,,,,,,00031,001,2026-01-21_14h49.42.484,MST_task,2024.2.0,60.02959459185393,2026-01-21 14h50.04.258897 +0530,
,Objects\127a.jpg,118,0,119,,,,,f,1.4108487000048626,0.12029729998903349,None,,,,,,119,0,118,1121.373563000001,,,,,,,,,,,,,,,,,,,,,,,1121.3580193999805,1121.373563000001,1121.8575294999755,,,,,,,,,,,,1121.8912260999787,,,,,,,,1121.8883594999788,1121.8912260999787,1121.8912260999787,1121.8912260999787,1124.8742738,f,1.4108487000048626,0.12029729998903349,1124.8744711999898,1124.874537900003,None,,,,,,,,,,,,,,00031,001,2026-01-21_14h49.42.484,MST_task,2024.2.0,60.02959459185393,2026-01-21 14h50.04.258897 +0530,
,Scenes\004a.jpg,119,0,120,,,,,j,0.727342400001362,0.11179830000037327,None,,,,,,120,0,119,1124.89050389998,,,,,,,,,,,,,,,,,,,,,,,1124.8748218999826,1124.89050389998,1125.3741114999866,,,,,,,,,,,,1125.4072643999825,,,,,,,,1125.4042797999864,1125.4072643999825,1125.4072643999825,1125.4072643999825,1128.3909526999923,j,0.727342400001362,0.11179830000037327,1128.3911552999925,1128.391223499988,None,,,,,,,,,,,,,,00031,001,2026-01-21_14h49.42.484,MST_task,2024.2.0,60.02959459185393,2026-01-21 14h50.04.258897 +0530,
,Scenes\022a.jpg,120,0,121,,,,,None,,,j,0.6338760000071488,None,,,,121,0,120,1128.4073459999927,,,,,,,,,,,,,,,,,,,,,,,1128.3915953999967,1128.4073459999927,1128.8909308000002,,,,,,,,,,,,1128.927818199998,,,,,,,,1128.9250891999982,1128.927818199998,1128.927818199998,1128.927818199998,1131.907532399986,None,,,1131.9077125999902,1132.5748897999874,j,1131.923900099995,1131.923900099995,0.6338760000071488,None,,,,,,,,,,00031,001,2026-01-21_14h49.42.484,MST_task,2024.2.0,60.02959459185393,2026-01-21 14h50.04.258897 +0530,
,Scenes\146a.jpg,121,0,122,,,,,j,0.6936632000142708,0.11251360000460409,None,,,,,,122,0,121,1132.5905362999765,,,,,,,,,,,,,,,,,,,,,,,1132.575346800004,1132.5905362999765,1133.074133999995,,,,,,,,,,,,1133.1120026999852,,,,,,,,1133.1090278999764,1133.1120026999852,1133.1120026999852,1133.1120026999852,1136.0908022999938,j,0.6936632000142708,0.11251360000460409,1136.0909941999998,1136.0910614999884,None,,,,,,,,,,,,,,00031,001,2026-01-21_14h49.42.484,MST_task,2024.2.0,60.02959459185393,2026-01-21 14h50.04.258897 +0530,
,Scenes\126a.jpg,122,0,123,,,,,None,,,j,0.9750140999967698,None,,,,123,0,122,1136.1071486999863,,,,,,,,,,,,,,,,,,,,,,,1136.0914533000032,1136.1071486999863,1136.5907545999798,,,,,,,,,,,,1136.6368039999797,,,,,,,,1136.6339119999902,1136.6368039999797,1136.6368039999797,1136.6368039999797,1139.591680499987,None,,,1139.5918591999798,1140.5910518000019,j,1139.6071498999954,1139.6071498999954,0.9750140999967698,None,,,,,,,,,,00031,001,2026-01-21_14h49.42.484,MST_task,2024.2.0,60.02959459185393,2026-01-21 14h50.04.258897 +0530,
,Scenes\008a.jpg,123,0,124,,,,,f,2.2286974000162445,0.15193200000794604,None,,,,,,124,0,123,1140.607138899999,,,,,,,,,,,,,,,,,,,,,,,1140.5915583999886,1140.607138899999,1141.090935699991,,,,,,,,,,,,1141.1370205999992,,,,,,,,1141.1340954999905,1141.1370205999992,1141.1370205999992,1141.1370205999992,1144.1075308999862,f,2.2286974000162445,0.15193200000794604,1144.1077262999897,1144.1077931999753,None,,,,,,,,,,,,,,00031,001,2026-01-21_14h49.42.484,MST_task,2024.2.0,60.02959459185393,2026-01-21 14h50.04.258897 +0530,
,Scenes\062a.jpg,124,0,125,,,,,j,1.0846261999977287,0.07286559999920428,None,,,,,,125,0,124,1144.1238822999876,,,,,,,,,,,,,,,,,,,,,,,1144.108080999984,1144.1238822999876,1144.6075419999834,,,,,,,,,,,,1144.6408961999987,,,,,,,,1144.6379781999858,1144.6408961999987,1144.6408961999987,1144.6408961999987,1147.6241098000028,j,1.0846261999977287,0.07286559999920428,1147.6243162000028,1147.6243829999876,None,,,,,,,,,,,,,,00031,001,2026-01-21_14h49.42.484,MST_task,2024.2.0,60.02959459185393,2026-01-21 14h50.04.258897 +0530,
,Scenes\187a.jpg,125,0,126,,,,,j,1.1986815999844112,0.12022470001829788,None,,,,,,126,0,125,1147.6402511999768,,,,,,,,,,,,,,,,,,,,,,,1147.6247785000014,1147.6402511999768,1148.1242714999826,,,,,,,,,,,,1148.1675342999806,,,,,,,,1148.1649044999795,1148.1675342999806,1148.1675342999806,1148.1675342999806,1151.1409641999926,j,1.1986815999844112,0.12022470001829788,1151.1411716000002,1151.1412393999926,None,,,,,,,,,,,,,,00031,001,2026-01-21_14h49.42.484,MST_task,2024.2.0,60.02959459185393,2026-01-21 14h50.04.258897 +0530,
,Objects\048a.jpg,126,0,127,,,,,j,0.7642618000099901,0.07197639998048544,None,,,,,,127,0,126,1151.1571044999873,,,,,,,,,,,,,,,,,,,,,,,1151.1415314999758,1151.1571044999873,1151.6409499000001,,,,,,,,,,,,1151.6818942999816,,,,,,,,1151.6782003999979,1151.6818942999816,1151.6818942999816,1151.6818942999816,1154.6575320999837,j,0.7642618000099901,0.07197639998048544,1154.6577467999887,1154.6578140999773,None,,,,,,,,,,,,,,00031,001,2026-01-21_14h49.42.484,MST_task,2024.2.0,60.02959459185393,2026-01-21 14h50.04.258897 +0530,
,Objects\043a.jpg,127,0,128,,,,,None,,,f,2.7750137000111863,None,,,,128,0,127,1154.6739051999757,,,,,,,,,,,,,,,,,,,,,,,1154.6581187999982,1154.6739051999757,1155.1575458000007,,,,,,,,,,,,1155.1903143999807,,,,,,,,1155.1875275999773,1155.1903143999807,1155.1903143999807,1155.1903143999807,1158.17427649998,None,,,1158.1744635999785,1160.9743858999864,f,1158.190546799975,1158.190546799975,2.7750137000111863,None,,,,,,,,,,00031,001,2026-01-21_14h49.42.484,MST_task,2024.2.0,60.02959459185393,2026-01-21 14h50.04.258897 +0530,
,Objects\185a.jpg,128,0,129,,,,,f,1.3727991000050679,0.1282002000079956,None,,,,,,129,0,128,1160.9903628999891,,,,,,,,,,,,,,,,,,,,,,,1160.9747205000021,1160.9903628999891,1161.4742940999859,,,,,,,,,,,,1161.5133594999788,,,,,,,,1161.5066364999802,1161.5133594999788,1161.5133594999788,1161.5133594999788,1164.4909281999862,f,1.3727991000050679,0.1282002000079956,1164.491134299984,1164.4912016000017,None,,,,,,,,,,,,,,00031,001,2026-01-21_14h49.42.484,MST_task,2024.2.0,60.02959459185393,2026-01-21 14h50.04.258897 +0530,
,Objects\002a.jpg,129,0,130,,,,,None,,,j,0.9908155000011902,None,,,,130,0,129,1164.5071412999823,,,,,,,,,,,,,,,,,,,,,,,1164.4915751999943,1164.5071412999823,1164.9913077999954,,,,,,,,,,,,1165.0149249999959,,,,,,,,1165.0121290999814,1165.0149249999959,1165.0149249999959,1165.0149249999959,1168.0071315999958,None,,,1168.0073107999924,1169.0243996999925,j,1168.0237489999854,1168.0237489999854,0.9908155000011902,None,,,,,,,,,,00031,001,2026-01-21_14h49.42.484,MST_task,2024.2.0,60.02959459185393,2026-01-21 14h50.04.258897 +0530,
,Objects\106a.jpg,130,0,131,,,,,f,2.0037406000192277,0.09593509999103844,None,,,,,,131,0,130,1169.0402923999936,,,,,,,,,,,,,,,,,,,,,,,1169.024842999992,1169.0402923999936,1169.5242751999758,,,,,,,,,,,,1169.5543369999796,,,,,,,,1169.5512006999925,1169.5543369999796,1169.5543369999796,1169.5543369999796,1172.5409210999787,f,2.0037406000192277,0.09593509999103844,1172.5411143999954,1172.5411814999825,None,,,,,,,,,,,,,,00031,001,2026-01-21_14h49.42.484,MST_task,2024.2.0,60.02959459185393,2026-01-21 14h50.04.258897 +0530,
,Objects\175a.jpg,131,0,132,,,,,f,0.8534793000144418,0.15221719999681227,None,,,,,,132,0,131,1172.557130000001,,,,,,,,,,,,,,,,,,,,,,,1172.5415351999982,1172.557130000001,1173.0406397999905,,,,,,,,,,,,1173.071994500002,,,,,,,,1173.069123399997,1173.071994500002,1173.071994500002,1173.071994500002,1176.0575252999843,f,0.8534793000144418,0.15221719999681227,1176.0577256999968,1176.0577913000016,None,,,,,,,,,,,,,,00031,001,2026-01-21_14h49.42.484,MST_task,2024.2.0,60.02959459185393,2026-01-21 14h50.04.258897 +0530,
,Objects\166a.jpg,132,0,133,,,,,f,0.6775161999976262,0.09684819998801686,None,,,,,,133,0,132,1176.074651599978,,,,,,,,,,,,,,,,,,,,,,,1176.0580773999973,1176.074651599978,1176.5739302999864,,,,,,,,,,,,,,,,,,,,1176.6449665999971,1176.647995599982,1176.647995599982,1176.647995599982,1179.5582654000027,f,0.6775161999976262,0.09684819998801686,1179.5584696999867,1179.558535899996,None,,,,,,,,,,,,,,00031,001,2026-01-21_14h49.42.484,MST_task,2024.2.0,60.02959459185393,2026-01-21 14h50.04.258897 +0530,
,Scenes\015a.jpg,133,0,134,,,,,j,1.469972399994731,0.13635570000042208,None,,,,,,134,0,133,1179.5738774999918,,,,,,,,,,,,,,,,,,,,,,,1179.55889689998,1179.5738774999918,1180.0574985999847,,,,,,,,,,,,1180.1036919999751,,,,,,,,1180.100931199995,1180.1036919999751,1180.1036919999751,1180.1036919999751,1183.07429769999,j,1.469972399994731,0.13635570000042208,1183.0744941000012,1183.074578300002,None,,,,,,,,,,,,,,00031,001,2026-01-21_14h49.42.484,MST_task,2024.2.0,60.02959459185393,2026-01-21 14h50.04.258897 +0530,
,Scenes\039a.jpg,134,0,135,,,,,j,2.452077099995222,0.11168780000298284,None,,,,,,135,0,134,1183.0904807999905,,,,,,,,,,,,,,,,,,,,,,,1183.0749423999805,1183.0904807999905,1183.5741415999946,,,,,,,,,,,,1183.6338126999908,,,,,,,,1183.6306196999794,1183.6338126999908,1183.6338126999908,1183.6338126999908,1186.5748620999802,j,2.452077099995222,0.11168780000298284,1186.5750621999905,1186.575129999983,None,,,,,,,,,,,,,,00031,001,2026-01-21_14h49.42.484,MST_task,2024.2.0,60.02959459185393,2026-01-21 14h50.04.258897 +0530,
,Scenes\155a.jpg,135,0,136,,,,,j,1.6179711000004318,0.11305119999451563,None,,,,,,136,0,135,1186.5905065999832,,,,,,,,,,,,,,,,,,,,,,,1186.5754968999827,1186.5905065999832,1187.0742957000039,,,,,,,,,,,,1187.131573199993,,,,,,,,1187.1287552999856,1187.131573199993,1187.131573199993,1187.131573199993,1190.0907666999847,j,1.6179711000004318,0.11305119999451563,1190.0909632999974,1190.0910291999753,None,,,,,,,,,,,,,,00031,001,2026-01-21_14h49.42.484,MST_task,2024.2.0,60.02959459185393,2026-01-21 14h50.04.258897 +0530,
,Scenes\045a.jpg,136,0,137,,,,,None,,,f,1.6142415000067558,None,,,,137,0,136,1190.10694529998,,,,,,,,,,,,,,,,,,,,,,,1190.0914001999772,1190.10694529998,1190.5907352999784,,,,,,,,,,,,1190.6419219999807,,,,,,,,1190.6390116999974,1190.6419219999807,1190.6419219999807,1190.6419219999807,1193.5912892999768,None,,,1193.5914676999964,1195.224393099983,f,1193.6072257999913,1193.6072257999913,1.6142415000067558,None,,,,,,,,,,00031,001,2026-01-21_14h49.42.484,MST_task,2024.2.0,60.02959459185393,2026-01-21 14h50.04.258897 +0530,
,Scenes\108a.jpg,137,0,138,,,,,j,1.0407525000046007,0.13661680000950582,None,,,,,,138,0,137,1195.240487299976,,,,,,,,,,,,,,,,,,,,,,,1195.2247270999942,1195.240487299976,1195.7242779999797,,,,,,,,,,,,1195.7726846000005,,,,,,,,1195.769371399976,1195.7726846000005,1195.7726846000005,1195.7726846000005,1198.7406546999991,j,1.0407525000046007,0.13661680000950582,1198.7408633999876,1198.7409320999868,None,,,,,,,,,,,,,,00031,001,2026-01-21_14h49.42.484,MST_task,2024.2.0,60.02959459185393,2026-01-21 14h50.04.258897 +0530,
,Scenes\089a.jpg,138,0,139,,,,,None,,,j,0.41295880000689067,None,,,,139,0,138,1198.7571357999987,,,,,,,,,,,,,,,,,,,,,,,1198.7412195999932,1198.7571357999987,1199.2407673999842,,,,,,,,,,,,1199.27785459999,,,,,,,,1199.27467839999,1199.27785459999,1199.27785459999,1199.27785459999,1202.2413251999824,None,,,1202.2415151000023,1202.6743975999998,j,1202.2571649999882,1202.2571649999882,0.41295880000689067,None,,,,,,,,,,00031,001,2026-01-21_14h49.42.484,MST_task,2024.2.0,60.02959459185393,2026-01-21 14h50.04.258897 +0530,
,Scenes\153a.jpg,139,0,140,,,,,j,1.0308392999868374,0.14439699999638833,None,,,,,,140,0,139,1202.6905431999767,,,,,,,,,,,,,,,,,,,,,,,1202.6747324999887,1202.6905431999767,1203.1746421999997,,,,,,,,,,,,1203.2148964999942,,,,,,,,1203.2122028000013,1203.2148964999942,1203.2148964999942,1203.2148964999942,1206.1909432999964,j,1.0308392999868374,0.14439699999638833,1206.191144099983,1206.1912116000021,None,,,,,,,,,,,,,,00031,001,2026-01-21_14h49.42.484,MST_task,2024.2.0,60.02959459185393,2026-01-21 14h50.04.258897 +0530,
,Objects\029a.jpg,140,0,141,,,,,f,1.2867953999957535,0.07267270001466386,None,,,,,,141,0,140,1206.2071599999908,,,,,,,,,,,,,,,,,,,,,,,1206.1915768999897,1206.2071599999908,1206.6909497999877,,,,,,,,,,,,1206.726830300002,,,,,,,,1206.7235786999809,1206.726830300002,1206.726830300002,1206.726830300002,1209.7075373999833,f,1.2867953999957535,0.07267270001466386,1209.707729799993,1209.7077964999771,None,,,,,,,,,,,,,,00031,001,2026-01-21_14h49.42.484,MST_task,2024.2.0,60.02959459185393,2026-01-21 14h50.04.258897 +0530,
,Objects\038a.jpg,141,0,142,,,,,f,1.8164539000135846,0.09557169998879544,None,,,,,,142,0,141,1209.7238138999965,,,,,,,,,,,,,,,,,,,,,,,1209.7081560999795,1209.7238138999965,1210.2074188999832,,,,,,,,,,,,1210.2296658999985,,,,,,,,1210.22694589998,1210.2296658999985,1210.2296658999985,1210.2296658999985,1213.2242599999881,f,1.8164539000135846,0.09557169998879544,1213.2244557999948,1213.2245232999849,None,,,,,,,,,,,,,,00031,001,2026-01-21_14h49.42.484,MST_task,2024.2.0,60.02959459185393,2026-01-21 14h50.04.258897 +0530,
,Objects\112a.jpg,142,0,143,,,,,f,2.40952409998863,0.09547820000443608,None,,,,,,143,0,142,1213.2404587999918,,,,,,,,,,,,,,,,,,,,,,,1213.2248872999917,1213.2404587999918,1213.723914000002,,,,,,,,,,,,1213.7728092999896,,,,,,,,1213.7701022999827,1213.7728092999896,1213.7728092999896,1213.7728092999896,1216.7409036000026,f,2.40952409998863,0.09547820000443608,1216.7410979999986,1216.7411660999933,None,,,,,,,,,,,,,,00031,001,2026-01-21_14h49.42.484,MST_task,2024.2.0,60.02959459185393,2026-01-21 14h50.04.258897 +0530,
,Objects\023a.jpg,143,0,144,,,,,f,1.4892546999908518,0.09614179999334738,None,,,,,,144,0,143,1216.7570424999867,,,,,,,,,,,,,,,,,,,,,,,1216.741451799986,1216.7570424999867,1217.2409488999983,,,,,,,,,,,,1217.2763848000031,,,,,,,,1217.2740913000016,1217.2763848000031,1217.2763848000031,1217.2763848000031,1220.2574284999864,f,1.4892546999908518,0.09614179999334738,1220.2576265999814,1220.2576927999908,None,,,,,,,,,,,,,,00031,001,2026-01-21_14h49.42.484,MST_task,2024.2.0,60.02959459185393,2026-01-21 14h50.04.258897 +0530,
,Objects\080a.jpg,144,0,145,,,,,None,,,f,1.079515799996443,None,,,,145,0,144,1220.2738298999902,,,,,,,,,,,,,,,,,,,,,,,1220.257974999986,1220.2738298999902,1220.7577202999964,,,,,,,,,,,,1220.7929674999905,,,,,,,,1220.7901975999994,1220.7929674999905,1220.7929674999905,1220.7929674999905,1223.7741937999963,None,,,1223.774369699997,1224.8740618999873,f,1223.7905901999911,1223.7905901999911,1.079515799996443,None,,,,,,,,,,00031,001,2026-01-21_14h49.42.484,MST_task,2024.2.0,60.02959459185393,2026-01-21 14h50.04.258897 +0530,
,Objects\152a.jpg,145,0,146,,,,,None,,,f,0.13424479999230243,None,,,,146,0,145,1224.8903947999934,,,,,,,,,,,,,,,,,,,,,,,1224.8744000000006,1224.8903947999934,1225.373998199997,,,,,,,,,,,,1225.4017250000034,,,,,,,,1225.399418599991,1225.4017250000034,1225.4017250000034,1225.4017250000034,1228.3915991999966,None,,,1228.3917798000039,1228.5581790999859,f,1228.407220699999,1228.407220699999,0.13424479999230243,None,,,,,,,,,,00031,001,2026-01-21_14h49.42.484,MST_task,2024.2.0,60.02959459185393,2026-01-21 14h50.04.258897 +0530,
,Objects\190a.jpg,146,0,147,,,,,j,2.1823626999976113,0.10365929998806678,None,,,,,,147,0,146,1228.5739919999905,,,,,,,,,,,,,,,,,,,,,,,1228.5586230999907,1228.5739919999905,1229.0576168999833,,,,,,,,,,,,1229.0877479999908,,,,,,,,1229.0850113999913,1229.0877479999908,1229.0877479999908,1229.0877479999908,1232.0740044999984,j,2.1823626999976113,0.10365929998806678,1232.0742016999866,1232.0742685000005,None,,,,,,,,,,,,,,00031,001,2026-01-21_14h49.42.484,MST_task,2024.2.0,60.02959459185393,2026-01-21 14h50.04.258897 +0530,
,Scenes\091a.jpg,147,0,148,,,,,None,,,j,0.3831650000065565,None,,,,148,0,147,1232.0903687999817,,,,,,,,,,,,,,,,,,,,,,,1232.074554299994,1232.0903687999817,1232.5742283999862,,,,,,,,,,,,1232.6078314999759,,,,,,,,1232.6051575999882,1232.6078314999759,1232.6078314999759,1232.6078314999759,1235.5909504999872,None,,,1235.5911400999757,1235.992013399984,j,1235.6072181999916,1235.6072181999916,0.3831650000065565,None,,,,,,,,,,00031,001,2026-01-21_14h49.42.484,MST_task,2024.2.0,60.02959459185393,2026-01-21 14h50.04.258897 +0530,
,Scenes\133a.jpg,148,0,149,,,,,j,2.4153766999952495,0.12845129999914207,None,,,,,,149,0,148,1236.0068999999785,,,,,,,,,,,,,,,,,,,,,,,1235.9924675999791,1236.0068999999785,1236.490803099994,,,,,,,,,,,,1236.5424770999816,,,,,,,,1236.5396707999753,1236.5424770999816,1236.5424770999816,1236.5424770999816,1239.5076278999913,j,2.4153766999952495,0.12845129999914207,1239.507819999999,1239.5078891000012,None,,,,,,,,,,,,,,00031,001,2026-01-21_14h49.42.484,MST_task,2024.2.0,60.02959459185393,2026-01-21 14h50.04.258897 +0530,
,Scenes\139a.jpg,149,0,150,,,,,j,0.768690199998673,0.1682128999964334,None,,,,,,150,0,149,1239.524674699991,,,,,,,,,,,,,,,,,,,,,,,1239.508257599984,1239.524674699991,1240.0074362999876,,,,,,,,,,,,1240.0453821999836,,,,,,,,1240.0426036999852,1240.0453821999836,1240.0453821999836,1240.0453821999836,1243.0242781999987,j,0.768690199998673,0.1682128999964334,1243.024471599987,1243.024537899997,None,,,,,,,,,,,,,,00031,001,2026-01-21_14h49.42.484,MST_task,2024.2.0,60.02959459185393,2026-01-21 14h50.04.258897 +0530,
,Scenes\101a.jpg,150,0,151,,,,,j,1.783978899999056,0.09559310000622645,None,,,,,,151,0,150,1243.0404951999953,,,,,,,,,,,,,,,,,,,,,,,1243.0248987999803,1243.0404951999953,1243.5247926999873,,,,,,,,,,,,1243.5661285999813,,,,,,,,1243.5634195999883,1243.5661285999813,1243.5661285999813,1243.5661285999813,1246.540900699998,j,1.783978899999056,0.09559310000622645,1246.541090099985,1246.541155599989,None,,,,,,,,,,,,,,00031,001,2026-01-21_14h49.42.484,MST_task,2024.2.0,60.02959459185393,2026-01-21 14h50.04.258897 +0530,
,Scenes\178a.jpg,151,0,152,,,,,j,2.671469499997329,0.09650129999499768,None,,,,,,152,0,151,1246.557502599986,,,,,,,,,,,,,,,,,,,,,,,1246.541308099986,1246.557502599986,1247.0406363999937,,,,,,,,,,,,1247.0863283999788,,,,,,,,1247.0834208999877,1247.0863283999788,1247.0863283999788,1247.0863283999788,1250.0576212999877,j,2.671469499997329,0.09650129999499768,1250.0578188999789,1250.0578856999928,None,,,,,,,,,,,,,,00031,001,2026-01-21_14h49.42.484,MST_task,2024.2.0,60.02959459185393,2026-01-21 14h50.04.258897 +0530,
,Scenes\181a.jpg,152,0,153,,,,,f,1.1209216999995988,0.14478900001267903,None,,,,,,153,0,152,1250.0739178999793,,,,,,,,,,,,,,,,,,,,,,,1250.0581704999786,1250.0739178999793,1250.5573201999941,,,,,,,,,,,,1250.6045979999762,,,,,,,,1250.6017740999814,1250.6045979999762,1250.6045979999762,1250.6045979999762,1253.574954599986,f,1.1209216999995988,0.14478900001267903,1253.575127899996,1253.5751583999954,None,,,,,,,,,,,,,,00031,001,2026-01-21_14h49.42.484,MST_task,2024.2.0,60.02959459185393,2026-01-21 14h50.04.258897 +0530,
,Scenes\185a.jpg,153,0,154,,,,,j,2.48911880000378,0.09613510000053793,None,,,,,,154,0,153,1253.5904912999831,,,,,,,,,,,,,,,,,,,,,,,1253.5752949999878,1253.5904912999831,1254.074284399976,,,,,,,,,,,,1254.1170501000015,,,,,,,,1254.1141056999913,1254.1170501000015,1254.1170501000015,1254.1170501000015,1257.0908729999792,j,2.48911880000378,0.09613510000053793,1257.0910788000037,1257.091145399987,None,,,,,,,,,,,,,,00031,001,2026-01-21_14h49.42.484,MST_task,2024.2.0,60.02959459185393,2026-01-21 14h50.04.258897 +0530,
,Objects\156a.jpg,154,0,155,,,,,j,1.8536638999939896,0.11218820000067353,None,,,,,,155,0,154,1257.1073081999784,,,,,,,,,,,,,,,,,,,,,,,1257.0914362999902,1257.1073081999784,1257.5908796000003,,,,,,,,,,,,1257.6324084999796,,,,,,,,1257.6292067999893,1257.6324084999796,1257.6324084999796,1257.6324084999796,1260.6076045999944,j,1.8536638999939896,0.11218820000067353,1260.6078025999886,1260.6078681999934,None,,,,,,,,,,,,,,00031,001,2026-01-21_14h49.42.484,MST_task,2024.2.0,60.02959459185393,2026-01-21 14h50.04.258897 +0530,
,Objects\091a.jpg,155,0,156,,,,,j,1.4693544000037946,0.11888059999910183,None,,,,,,156,0,155,1260.6239092999895,,,,,,,,,,,,,,,,,,,,,,,1260.608154799993,1260.6239092999895,1261.1076343999885,,,,,,,,,,,,1261.1374370999984,,,,,,,,1261.1346741000016,1261.1374370999984,1261.1374370999984,1261.1374370999984,1264.1243482999853,j,1.4693544000037946,0.11888059999910183,1264.1245397999883,1264.1246052999923,None,,,,,,,,,,,,,,00031,001,2026-01-21_14h49.42.484,MST_task,2024.2.0,60.02959459185393,2026-01-21 14h50.04.258897 +0530,
,Objects\188a.jpg,156,0,157,,,,,f,1.0153566999942996,0.16816640002070926,None,,,,,,157,0,156,1264.1405866999994,,,,,,,,,,,,,,,,,,,,,,,1264.124970999983,1264.1405866999994,1264.6239986,,,,,,,,,,,,1264.6621477000008,,,,,,,,1264.6593865999894,1264.6621477000008,1264.6621477000008,1264.6621477000008,1267.6408771999995,f,1.0153566999942996,0.16816640002070926,1267.6410790999944,1267.6411453999754,None,,,,,,,,,,,,,,00031,001,2026-01-21_14h49.42.484,MST_task,2024.2.0,60.02959459185393,2026-01-21 14h50.04.258897 +0530,
,Objects\184a.jpg,157,0,158,,,,,None,,,j,1.3921942000160925,None,,,,158,0,157,1267.657223999995,,,,,,,,,,,,,,,,,,,,,,,1267.641570399981,1267.657223999995,1268.1409246999829,,,,,,,,,,,,1268.18022129999,,,,,,,,1268.1772429999837,1268.18022129999,1268.18022129999,1268.18022129999,1271.1576150999754,None,,,1271.1577936999965,1272.5744126999925,j,1271.1738858000026,1271.1738858000026,1.3921942000160925,None,,,,,,,,,,00031,001,2026-01-21_14h49.42.484,MST_task,2024.2.0,60.02959459185393,2026-01-21 14h50.04.258897 +0530,
,Objects\186a.jpg,158,0,159,,,,,f,1.3569792000052985,0.11153860000194982,None,,,,,,159,0,158,1272.5904927999945,,,,,,,,,,,,,,,,,,,,,,,1272.5748568999988,1272.5904927999945,1273.0740570999915,,,,,,,,,,,,1273.113091999985,,,,,,,,1273.1101129000017,1273.113091999985,1273.113091999985,1273.113091999985,1276.0906938999833,f,1.3569792000052985,0.11153860000194982,1276.0908872,1276.0909552999947,None,,,,,,,,,,,,,,00031,001,2026-01-21_14h49.42.484,MST_task,2024.2.0,60.02959459185393,2026-01-21 14h50.04.258897 +0530,
,Objects\041a.jpg,159,0,160,,,,,j,1.052810799999861,0.16085970000131056,None,,,,,,160,0,159,1276.1072268999997,,,,,,,,,,,,,,,,,,,,,,,1276.0912404999835,1276.1072268999997,1276.5911527999851,,,,,,,,,,,,,,,,,,,,1276.6136836999794,1276.6166170999932,1276.6166170999932,1276.6166170999932,1279.6079523999942,j,1.052810799999861,0.16085970000131056,1279.6081554999982,1279.6082227999868,None,,,,,,,,,,,,,,00031,001,2026-01-21_14h49.42.484,MST_task,2024.2.0,60.02959459185393,2026-01-21 14h50.04.258897 +0530,
,Objects\103a.jpg,160,0,161,,,,,f,0.8579086999816354,0.12082250000094064,None,,,,,,161,0,160,1279.6238979999907,,,,,,,,,,,,,,,,,,,,,,,1279.6085873999982,1279.6238979999907,1280.1076357999991,,,,,,,,,,,,1280.1395563999831,,,,,,,,1280.1366267999983,1280.1395563999831,1280.1395563999831,1280.1395563999831,1283.1243472999777,f,0.8579086999816354,0.12082250000094064,1283.1245384999784,1283.1246034999785,None,,,,,,,,,,,,,,00031,001,2026-01-21_14h49.42.484,MST_task,2024.2.0,60.02959459185393,2026-01-21 14h50.04.258897 +0530,
,Scenes\016a.jpg,161,0,162,,,,,None,,,j,0.17243710000184365,None,,,,162,0,161,1283.140497299988,,,,,,,,,,,,,,,,,,,,,,,1283.1249679999892,1283.140497299988,1283.624012699991,,,,,,,,,,,,1283.6637566999998,,,,,,,,1283.6608024000016,1283.6637566999998,1283.6637566999998,1283.6637566999998,1286.6407870999828,None,,,1286.6409774999775,1286.8408350999816,j,1286.6570949000015,1286.6570949000015,0.17243710000184365,None,,,,,,,,,,00031,001,2026-01-21_14h49.42.484,MST_task,2024.2.0,60.02959459185393,2026-01-21 14h50.04.258897 +0530,
,Scenes\150a.jpg,162,0,163,,,,,j,1.5508834999927785,0.12015030000475235,None,,,,,,163,0,162,1286.8572050999792,,,,,,,,,,,,,,,,,,,,,,,1286.8413863999886,1286.8572050999792,1287.340987899981,,,,,,,,,,,,1287.3905968999898,,,,,,,,1287.3878840999969,1287.3905968999898,1287.3905968999898,1287.3905968999898,1290.3574083999847,j,1.5508834999927785,0.12015030000475235,1290.357600999996,1290.3576692999923,None,,,,,,,,,,,,,,00031,001,2026-01-21_14h49.42.484,MST_task,2024.2.0,60.02959459185393,2026-01-21 14h50.04.258897 +0530,
,Scenes\034a.jpg,163,0,164,,,,,None,,,j,0.7947799999965355,None,,,,164,0,163,1290.373898299993,,,,,,,,,,,,,,,,,,,,,,,1290.3580293999985,1290.373898299993,1290.857394599996,,,,,,,,,,,,1290.913554699975,,,,,,,,1290.9105094999832,1290.913554699975,1290.913554699975,1290.913554699975,1293.8741365000024,None,,,1293.8743133999815,1294.6910799999896,j,1293.8905583999876,1293.8905583999876,0.7947799999965355,None,,,,,,,,,,00031,001,2026-01-21_14h49.42.484,MST_task,2024.2.0,60.02959459185393,2026-01-21 14h50.04.258897 +0530,
,Scenes\147a.jpg,164,0,165,,,,,j,2.1931002999772318,0.11205180000979453,None,,,,,,165,0,164,1294.707222500001,,,,,,,,,,,,,,,,,,,,,,,1294.6915252000035,1294.707222500001,1295.1906244999846,,,,,,,,,,,,1295.2365143999923,,,,,,,,1295.2333755999862,1295.2365143999923,1295.2365143999923,1295.2365143999923,1298.2076237,j,2.1931002999772318,0.11205180000979453,1298.207816899987,1298.2078849999816,None,,,,,,,,,,,,,,00031,001,2026-01-21_14h49.42.484,MST_task,2024.2.0,60.02959459185393,2026-01-21 14h50.04.258897 +0530,
,Scenes\115a.jpg,165,0,166,,,,,j,1.3901561000093352,0.12073490000329912,None,,,,,,166,0,165,1298.2242304999963,,,,,,,,,,,,,,,,,,,,,,,1298.2082486999861,1298.2242304999963,1298.707530899992,,,,,,,,,,,,1298.751378099987,,,,,,,,1298.7487354999757,1298.751378099987,1298.751378099987,1298.751378099987,1301.7242208999814,j,1.3901561000093352,0.12073490000329912,1301.7244259,1301.7244918999786,None,,,,,,,,,,,,,,00031,001,2026-01-21_14h49.42.484,MST_task,2024.2.0,60.02959459185393,2026-01-21 14h50.04.258897 +0530,
,Scenes\103a.jpg,166,0,167,,,,,j,1.609324099990772,0.12848250000388362,None,,,,,,167,0,166,1301.7405744999996,,,,,,,,,,,,,,,,,,,,,,,1301.7247871999862,1301.7405744999996,1302.2246256999788,,,,,,,,,,,,1302.268101499998,,,,,,,,1302.265693399997,1302.268101499998,1302.268101499998,1302.268101499998,1305.24172369999,j,1.609324099990772,0.12848250000388362,1305.241925099981,1305.2419915999926,None,,,,,,,,,,,,,,00031,001,2026-01-21_14h49.42.484,MST_task,2024.2.0,60.02959459185393,2026-01-21 14h50.04.258897 +0530,
,Scenes\017a.jpg,167,0,168,,,,,f,0.8809701999998651,0.10356550000142306,None,,,,,,168,0,167,1305.2572262999893,,,,,,,,,,,,,,,,,,,,,,,1305.242348699976,1305.2572262999893,1305.740959799994,,,,,,,,,,,,1305.7891166999761,,,,,,,,1305.7862753999943,1305.7891166999761,1305.7891166999761,1305.7891166999761,1308.7573049999774,f,0.8809701999998651,0.10356550000142306,1308.7575029,1308.7575696999847,None,,,,,,,,,,,,,,00031,001,2026-01-21_14h49.42.484,MST_task,2024.2.0,60.02959459185393,2026-01-21 14h50.04.258897 +0530,
,Objects\116a.jpg,168,0,169,,,,,f,2.1027562999806833,0.11998360001598485,None,,,,,,169,0,168,1308.7741115999816,,,,,,,,,,,,,,,,,,,,,,,1308.7579328999855,1308.7741115999816,1309.2576601999754,,,,,,,,,,,,1309.2953118000005,,,,,,,,1309.2913616999867,1309.2953118000005,1309.2953118000005,1309.2953118000005,1312.2742362999998,f,2.1027562999806833,0.11998360001598485,1312.2744320999773,1312.2744985999889,None,,,,,,,,,,,,,,00031,001,2026-01-21_14h49.42.484,MST_task,2024.2.0,60.02959459185393,2026-01-21 14h50.04.258897 +0530,
,Objects\172a.jpg,169,0,170,,,,,j,1.288144399994053,0.12795609998283908,None,,,,,,170,0,169,1312.290640799998,,,,,,,,,,,,,,,,,,,,,,,1312.2748560999753,1312.290640799998,1312.774321099976,,,,,,,,,,,,1312.7975300999824,,,,,,,,1312.7945599999803,1312.7975300999824,1312.7975300999824,1312.7975300999824,1315.7913316999911,j,1.288144399994053,0.12795609998283908,1315.7914931999985,1315.7915220999857,None,,,,,,,,,,,,,,00031,001,2026-01-21_14h49.42.484,MST_task,2024.2.0,60.02959459185393,2026-01-21 14h50.04.258897 +0530,
,Objects\068a.jpg,170,0,171,,,,,j,2.8987341999891214,None,None,,,,,,171,0,170,1315.8072358999925,,,,,,,,,,,,,,,,,,,,,,,1315.7916804999986,1315.8072358999925,1316.2906454999757,,,,,,,,,,,,1316.3231386999832,,,,,,,,1316.3202482999768,1316.3231386999832,1316.3231386999832,1316.3231386999832,1319.3076096999866,j,2.8987341999891214,None,1319.3078077999817,1319.3078750999994,None,,,,,,,,,,,,,,00031,001,2026-01-21_14h49.42.484,MST_task,2024.2.0,60.02959459185393,2026-01-21 14h50.04.258897 +0530,
,Objects\161a.jpg,171,0,172,,,,,j,2.5289791999966837,0.12010800000280142,None,,,,,,172,0,171,1319.3235115999996,,,,,,,,,,,,,,,,,,,,,,,1319.308161699999,1319.3235115999996,1319.8076254999905,,,,,,,,,,,,1319.844423499977,,,,,,,,1319.8414223,1319.844423499977,1319.844423499977,1319.844423499977,1322.8082492999965,j,2.5289791999966837,0.12010800000280142,1322.8084441999963,1322.8085111999826,None,,,,,,,,,,,,,,00031,001,2026-01-21_14h49.42.484,MST_task,2024.2.0,60.02959459185393,2026-01-21 14h50.04.258897 +0530,
,Objects\163a.jpg,172,0,173,,,,,j,1.2032759999856353,0.12027139999554493,None,,,,,,173,0,172,1322.823999299988,,,,,,,,,,,,,,,,,,,,,,,1322.808798299986,1322.823999299988,1323.3074398000026,,,,,,,,,,,,1323.338072499988,,,,,,,,1323.3358218999929,1323.338072499988,1323.338072499988,1323.338072499988,1326.3241301999951,j,1.2032759999856353,0.12027139999554493,1326.324320899992,1326.3243893999897,None,,,,,,,,,,,,,,00031,001,2026-01-21_14h49.42.484,MST_task,2024.2.0,60.02959459185393,2026-01-21 14h50.04.258897 +0530,
,Objects\047a.jpg,173,0,174,,,,,f,1.0219839000201318,0.09611949999816716,None,,,,,,174,0,173,1326.3402602999995,,,,,,,,,,,,,,,,,,,,,,,1326.3246744999778,1326.3402602999995,1326.824240099988,,,,,,,,,,,,1326.8555278999847,,,,,,,,1326.853289999999,1326.8555278999847,1326.8555278999847,1326.8555278999847,1329.8407987999963,f,1.0219839000201318,0.09611949999816716,1329.8409968999913,1329.8410663999966,None,,,,,,,,,,,,,,00031,001,2026-01-21_14h49.42.484,MST_task,2024.2.0,60.02959459185393,2026-01-21 14h50.04.258897 +0530,
,Objects\132a.jpg,174,0,175,,,,,j,1.6199863000074401,0.09600819999468513,None,,,,,,175,0,174,1329.8572715999908,,,,,,,,,,,,,,,,,,,,,,,1329.841431799985,1329.8572715999908,1330.3407808999764,,,,,,,,,,,,1330.3775529999984,,,,,,,,1330.3744426999765,1330.3775529999984,1330.3775529999984,1330.3775529999984,1333.357214299991,j,1.6199863000074401,0.09600819999468513,1333.3573979999928,1333.3574640000006,None,,,,,,,,,,,,,,00031,001,2026-01-21_14h49.42.484,MST_task,2024.2.0,60.02959459185393,2026-01-21 14h50.04.258897 +0530,
,Scenes\149a.jpg,175,0,176,,,,,None,,,j,1.27584710001247,None,,,,176,0,175,1333.3736920999945,,,,,,,,,,,,,,,,,,,,,,,1333.3577210999792,1333.3736920999945,1333.8573200999817,,,,,,,,,,,,1333.8857795999793,,,,,,,,1333.8825505999848,1333.8857795999793,1333.8857795999793,1333.8857795999793,1336.8577371999854,None,,,1336.8579161999805,1338.1577370000014,j,1336.873804599978,1336.873804599978,1.27584710001247,None,,,,,,,,,,00031,001,2026-01-21_14h49.42.484,MST_task,2024.2.0,60.02959459185393,2026-01-21 14h50.04.258897 +0530,
,Scenes\019a.jpg,176,0,177,,,,,None,,,f,2.05937350000022,None,,,,177,0,176,1338.1738344999903,,,,,,,,,,,,,,,,,,,,,,,1338.1580681999912,1338.1738344999903,1338.6576514999906,,,,,,,,,,,,1338.7043982000032,,,,,,,,1338.7014787999797,1338.7043982000032,1338.7043982000032,1338.7043982000032,1341.6744247000024,None,,,1341.6746044000029,1343.7577707000019,f,1341.69057419998,1341.69057419998,2.05937350000022,None,,,,,,,,,,00031,001,2026-01-21_14h49.42.484,MST_task,2024.2.0,60.02959459185393,2026-01-21 14h50.04.258897 +0530,
,Scenes\042a.jpg,177,0,178,,,,,j,1.0189307999971788,0.09589140000753105,None,,,,,,178,0,177,1343.773556500004,,,,,,,,,,,,,,,,,,,,,,,1343.7581018999917,1343.773556500004,1344.2574718999967,,,,,,,,,,,,1344.3066676000017,,,,,,,,1344.3036643999803,1344.3066676000017,1344.3066676000017,1344.3066676000017,1347.2742892999959,j,1.0189307999971788,0.09589140000753105,1347.2744879999955,1347.2745564999932,None,,,,,,,,,,,,,,00031,001,2026-01-21_14h49.42.484,MST_task,2024.2.0,60.02959459185393,2026-01-21 14h50.04.258897 +0530,
,Scenes\159a.jpg,178,0,179,,,,,j,1.0694571000058204,0.1206833999895025,None,,,,,,179,0,178,1347.290917699982,,,,,,,,,,,,,,,,,,,,,,,1347.2748432999942,1347.290917699982,1347.7740567,,,,,,,,,,,,1347.8239314999955,,,,,,,,1347.8211361999856,1347.8239314999955,1347.8239314999955,1347.8239314999955,1350.790882100002,j,1.0694571000058204,0.1206833999895025,1350.791087199992,1350.7911544999806,None,,,,,,,,,,,,,,00031,001,2026-01-21_14h49.42.484,MST_task,2024.2.0,60.02959459185393,2026-01-21 14h50.04.258897 +0530,
