thisN,thisTrialN,thisRepN,key_resp_3.keys,key_resp_3.rt,key_resp_3.duration,trials.thisRepN,trials.thisTrialN,trials.thisN,thisRow.t,notes,intro_page.started,text.started,key_resp.started,intro_page.stopped,key_resp.keys,key_resp.rt,key_resp.duration,instructions.started,text_2.started,key_resp_2.started,instructions.stopped,key_resp_2.keys,key_resp_2.rt,key_resp_2.duration,demo1.started,image_1.started,image_2.started,text_7.started,key_resp_6.started,text_9.started,demo1.stopped,key_resp_6.keys,key_resp_6.rt,key_resp_6.duration,demo2.started,image_5.started,image_6.started,text_11.started,text_12.started,key_resp_8.started,demo2.stopped,key_resp_8.keys,key_resp_8.rt,key_resp_8.duration,demo_conclusion.started,text_13.started,key_resp_9.started,demo_conclusion.stopped,key_resp_9.keys,key_resp_9.rt,key_resp_9.duration,start_test.started,text_6.started,key_resp_5.started,start_test.stopped,key_resp_5.keys,key_resp_5.rt,key_resp_5.duration,ISI.started,text_4.started,text_4.stopped,ISI.stopped,routine_1.started,image.started,text_3.started,key_resp_3.started,routine_1.stopped,image_path,position_of_stimuli,trials.key_resp_3.keys,trials.key_resp_3.rt,trials.key_resp_3.duration,End_page.started,text_5.started,key_resp_4.started,End_page.stopped,key_resp_4.keys,key_resp_4.rt,key_resp_4.duration,participant,session,date,expName,psychopyVersion,frameRate,expStart,
,,,,,,,,,,,0.001227600034326315,0.0031843000324442983,0.0031843000324442983,3.6568532999954186,space,3.644414099981077,None,,,,,,,,,,,,,,,,,,,,,,,,,,,,,,,,,,,,,,,,,,,,,,,,,,,,,,,,,,,,,,,00034,001,2026-01-22_17h48.05.945,MST_test,2024.2.0,59.931809577147284,2026-01-22 17h48.12.444023 +0530,
,,,,,,,,,,,,,,,,,,3.6569358999840915,3.6676208000280894,3.6676208000280894,13.983333299984224,space,10.308428199961782,None,,,,,,,,,,,,,,,,,,,,,,,,,,,,,,,,,,,,,,,,,,,,,,,,,,,,,,,,00034,001,2026-01-22_17h48.05.945,MST_test,2024.2.0,59.931809577147284,2026-01-22 17h48.12.444023 +0530,
,,,,,,,,,,,,,,,,,,,,,,,,,13.983440999989398,14.022669000027236,14.022669000027236,14.022669000027236,14.022669000027236,14.022669000027236,17.666958799993154,space,3.6333444000338204,None,,,,,,,,,,,,,,,,,,,,,,,,,,,,,,,,,,,,,,,,,,,,,,00034,001,2026-01-22_17h48.05.945,MST_test,2024.2.0,59.931809577147284,2026-01-22 17h48.12.444023 +0530,
,,,,,,,,,,,,,,,,,,,,,,,,,,,,,,,,,,,17.667053500015754,17.68329860002268,17.68329860002268,17.68329860002268,17.68329860002268,17.68329860002268,20.816854500037152,space,3.1319689999800175,None,,,,,,,,,,,,,,,,,,,,,,,,,,,,,,,,,,,,00034,001,2026-01-22_17h48.05.945,MST_test,2024.2.0,59.931809577147284,2026-01-22 17h48.12.444023 +0530,
,,,,,,,,,,,,,,,,,,,,,,,,,,,,,,,,,,,,,,,,,,,,,20.816953300032765,20.833757499989588,20.833757499989588,48.54984079999849,space,27.70990630000597,None,,,,,,,,,,,,,,,,,,,,,,,,,,,,,00034,001,2026-01-22_17h48.05.945,MST_test,2024.2.0,59.931809577147284,2026-01-22 17h48.12.444023 +0530,
,,,,,,,,,,,,,,,,,,,,,,,,,,,,,,,,,,,,,,,,,,,,,,,,,,,,48.549942400015425,48.56601110001793,48.56601110001793,116.9334266000078,space,68.36186120001366,None,,,,,,,,,,,,,,,,,,,,,,00034,001,2026-01-22_17h48.05.945,MST_test,2024.2.0,59.931809577147284,2026-01-22 17h48.12.444023 +0530,
0,0,1,o,2.8014964999747463,None,1,0,0,116.94945890002418,,,,,,,,,,,,,,,,,,,,,,,,,,,,,,,,,,,,,,,,,,,,,,,,,,116.94213600002695,116.94945890002418,117.45415070001036,117.43320020003011,117.45156070002122,117.45415070001036,117.45415070001036,117.45415070001036,120.2668206000235,Scenes\065a.jpg,post,o,2.8014964999747463,None,,,,,,,,00034,001,2026-01-22_17h48.05.945,MST_test,2024.2.0,59.931809577147284,2026-01-22 17h48.12.444023 +0530,
1,0,2,s,2.3343850999954157,None,2,0,1,120.28279070003191,,,,,,,,,,,,,,,,,,,,,,,,,,,,,,,,,,,,,,,,,,,,,,,,,,120.26718349999283,120.28279070003191,120.83289750001859,120.76662780001061,120.82991919998312,120.83289750001859,120.83289750001859,120.83289750001859,123.18357560003642,Scenes\039b.jpg,pre,s,2.3343850999954157,None,,,,,,,,00034,001,2026-01-22_17h48.05.945,MST_test,2024.2.0,59.931809577147284,2026-01-22 17h48.12.444023 +0530,
2,0,3,o,4.460048600041773,None,3,0,2,123.19954100000905,,,,,,,,,,,,,,,,,,,,,,,,,,,,,,,,,,,,,,,,,,,,,,,,,,123.18396350002149,123.19954100000905,123.69993160001468,123.68302850000327,123.69563339999877,123.69993160001468,123.69993160001468,123.69993160001468,128.16670679999515,Scenes\140a.jpg,pre,o,4.460048600041773,None,,,,,,,,00034,001,2026-01-22_17h48.05.945,MST_test,2024.2.0,59.931809577147284,2026-01-22 17h48.12.444023 +0530,
3,0,4,n,2.415028900024481,None,4,0,3,128.18286400003126,,,,,,,,,,,,,,,,,,,,,,,,,,,,,,,,,,,,,,,,,,,,,,,,,,128.16706609999528,128.18286400003126,128.70437190000666,128.6665054000332,128.70188499998767,128.70437190000666,128.70437190000666,128.70437190000666,131.13356190000195,Foils\026a.jpg,none,n,2.415028900024481,None,,,,,,,,00034,001,2026-01-22_17h48.05.945,MST_test,2024.2.0,59.931809577147284,2026-01-22 17h48.12.444023 +0530,
4,0,5,o,3.3172411000123248,None,5,0,4,131.14937579998514,,,,,,,,,,,,,,,,,,,,,,,,,,,,,,,,,,,,,,,,,,,,,,,,,,131.1339503999916,131.14937579998514,131.6580337000196,131.63328529999126,131.65607000002638,131.6580337000196,131.6580337000196,131.6580337000196,134.98352880001767,Objects\030b.jpg,mid,o,3.3172411000123248,None,,,,,,,,00034,001,2026-01-22_17h48.05.945,MST_test,2024.2.0,59.931809577147284,2026-01-22 17h48.12.444023 +0530,
5,0,6,s,1.9043035000213422,None,6,0,5,134.99934909999138,,,,,,,,,,,,,,,,,,,,,,,,,,,,,,,,,,,,,,,,,,,,,,,,,,134.98390200000722,134.99934909999138,135.52769389998866,135.48323160002474,135.52532329998212,135.52769389998866,135.52769389998866,135.52769389998866,137.43349150003633,Scenes\178b.jpg,post,s,1.9043035000213422,None,,,,,,,,00034,001,2026-01-22_17h48.05.945,MST_test,2024.2.0,59.931809577147284,2026-01-22 17h48.12.444023 +0530,
6,0,7,s,2.451838899985887,None,7,0,6,137.44921630003955,,,,,,,,,,,,,,,,,,,,,,,,,,,,,,,,,,,,,,,,,,,,,,,,,,137.43384120002156,137.44921630003955,137.97931860003155,137.93332419998478,137.9767906999914,137.97931860003155,137.97931860003155,137.97931860003155,140.4331480000401,Scenes\146b.jpg,mid,s,2.451838899985887,None,,,,,,,,00034,001,2026-01-22_17h48.05.945,MST_test,2024.2.0,59.931809577147284,2026-01-22 17h48.12.444023 +0530,
7,0,8,o,2.23552980000386,None,8,0,7,140.44950320001226,,,,,,,,,,,,,,,,,,,,,,,,,,,,,,,,,,,,,,,,,,,,,,,,,,140.43350039998768,140.44950320001226,140.956213700003,140.93329060001997,140.95281280000927,140.956213700003,140.956213700003,140.956213700003,143.20021119999,Scenes\045a.jpg,pre,o,2.23552980000386,None,,,,,,,,00034,001,2026-01-22_17h48.05.945,MST_test,2024.2.0,59.931809577147284,2026-01-22 17h48.12.444023 +0530,
8,0,9,n,1.7436834000400268,None,9,0,8,143.21610550000332,,,,,,,,,,,,,,,,,,,,,,,,,,,,,,,,,,,,,,,,,,,,,,,,,,143.20059399999445,143.21610550000332,143.7361752000288,143.69989899999928,143.7329934000154,143.7361752000288,143.7361752000288,143.7361752000288,145.48323930002516,Foils\scenes2.jpg,none,n,1.7436834000400268,None,,,,,,,,00034,001,2026-01-22_17h48.05.945,MST_test,2024.2.0,59.931809577147284,2026-01-22 17h48.12.444023 +0530,
9,0,10,n,2.3792347999988124,None,10,0,9,145.49942629999714,,,,,,,,,,,,,,,,,,,,,,,,,,,,,,,,,,,,,,,,,,,,,,,,,,145.48359479999635,145.49942629999714,146.0279695999925,145.98324860003777,146.025489200023,146.0279695999925,146.0279695999925,146.0279695999925,148.41675540001597,Scenes\043b.jpg,pre,n,2.3792347999988124,None,,,,,,,,00034,001,2026-01-22_17h48.05.945,MST_test,2024.2.0,59.931809577147284,2026-01-22 17h48.12.444023 +0530,
10,0,11,o,2.574816300009843,None,11,0,10,148.4328546000179,,,,,,,,,,,,,,,,,,,,,,,,,,,,,,,,,,,,,,,,,,,,,,,,,,148.41710840002634,148.4328546000179,148.96849040000234,148.9162524000276,148.9656144999899,148.96849040000234,148.96849040000234,148.96849040000234,151.55016129999422,Objects\122b.jpg,post,o,2.574816300009843,None,,,,,,,,00034,001,2026-01-22_17h48.05.945,MST_test,2024.2.0,59.931809577147284,2026-01-22 17h48.12.444023 +0530,
11,0,12,n,1.3894358999677934,None,12,0,11,151.56620589998784,,,,,,,,,,,,,,,,,,,,,,,,,,,,,,,,,,,,,,,,,,,,,,,,,,151.5505148000084,151.56620589998784,152.06640559999505,152.04992820002371,152.059463099984,152.06640559999505,152.06640559999505,152.06640559999505,153.46687070000917,Foils\017a.jpg,none,n,1.3894358999677934,None,,,,,,,,00034,001,2026-01-22_17h48.05.945,MST_test,2024.2.0,59.931809577147284,2026-01-22 17h48.12.444023 +0530,
12,0,13,o,2.25188789999811,None,13,0,12,153.48370939999586,,,,,,,,,,,,,,,,,,,,,,,,,,,,,,,,,,,,,,,,,,,,,,,,,,153.4672489000368,153.48370939999586,153.98748110001907,153.96668960002717,153.9850112000131,153.98748110001907,153.98748110001907,153.98748110001907,156.2499603999895,Scenes\109a.jpg,pre,o,2.25188789999811,None,,,,,,,,00034,001,2026-01-22_17h48.05.945,MST_test,2024.2.0,59.931809577147284,2026-01-22 17h48.12.444023 +0530,
13,0,14,o,2.0325155000318773,None,14,0,13,156.26586779998615,,,,,,,,,,,,,,,,,,,,,,,,,,,,,,,,,,,,,,,,,,,,,,,,,,156.25031060003676,156.26586779998615,156.76673939998727,156.74951890000375,156.76075960003072,156.76673939998727,156.76673939998727,156.76673939998727,158.80037070001708,Scenes\098a.jpg,post,o,2.0325155000318773,None,,,,,,,,00034,001,2026-01-22_17h48.05.945,MST_test,2024.2.0,59.931809577147284,2026-01-22 17h48.12.444023 +0530,
14,0,15,o,1.231713299988769,None,15,0,14,158.8159697999945,,,,,,,,,,,,,,,,,,,,,,,,,,,,,,,,,,,,,,,,,,,,,,,,,,158.8007386000245,158.8159697999945,159.3197477000067,159.299474200001,159.31680660002166,159.3197477000067,159.3197477000067,159.3197477000067,160.5670567000052,Scenes\122a.jpg,pre,o,1.231713299988769,None,,,,,,,,00034,001,2026-01-22_17h48.05.945,MST_test,2024.2.0,59.931809577147284,2026-01-22 17h48.12.444023 +0530,
15,0,16,s,2.260796600021422,None,16,0,15,160.58247660001507,,,,,,,,,,,,,,,,,,,,,,,,,,,,,,,,,,,,,,,,,,,,,,,,,,160.56744519999484,160.58247660001507,161.08291729999473,161.06625949998852,161.07662330003222,161.08291729999473,161.08291729999473,161.08291729999473,163.35006870003417,Foils\scenes13.jpg,none,s,2.260796600021422,None,,,,,,,,00034,001,2026-01-22_17h48.05.945,MST_test,2024.2.0,59.931809577147284,2026-01-22 17h48.12.444023 +0530,
16,0,17,n,2.5062967000412755,None,17,0,16,163.36620660003973,,,,,,,,,,,,,,,,,,,,,,,,,,,,,,,,,,,,,,,,,,,,,,,,,,163.35044619999826,163.36620660003973,163.88560969999526,163.8499337999965,163.8831517000217,163.88560969999526,163.88560969999526,163.88560969999526,166.40024380001705,Foils\058a.jpg,none,n,2.5062967000412755,None,,,,,,,,00034,001,2026-01-22_17h48.05.945,MST_test,2024.2.0,59.931809577147284,2026-01-22 17h48.12.444023 +0530,
17,0,18,o,1.3382237000041641,None,18,0,17,166.41621220001252,,,,,,,,,,,,,,,,,,,,,,,,,,,,,,,,,,,,,,,,,,,,,,,,,,166.40073340001982,166.41621220001252,166.9329657999915,166.9001331999898,166.93088400003035,166.9329657999915,166.9329657999915,166.9329657999915,168.2831307000015,Objects\134b.jpg,pre,o,1.3382237000041641,None,,,,,,,,00034,001,2026-01-22_17h48.05.945,MST_test,2024.2.0,59.931809577147284,2026-01-22 17h48.12.444023 +0530,
18,0,19,o,0.9994924000347964,None,19,0,18,168.29920190002304,,,,,,,,,,,,,,,,,,,,,,,,,,,,,,,,,,,,,,,,,,,,,,,,,,168.28348510002252,168.29920190002304,168.7997161000385,168.78342809999594,168.791163899994,168.7997161000385,168.7997161000385,168.7997161000385,169.80035680002766,Objects\075a.jpg,mid,o,0.9994924000347964,None,,,,,,,,00034,001,2026-01-22_17h48.05.945,MST_test,2024.2.0,59.931809577147284,2026-01-22 17h48.12.444023 +0530,
19,0,20,s,2.329774899990298,None,20,0,19,169.816188900033,,,,,,,,,,,,,,,,,,,,,,,,,,,,,,,,,,,,,,,,,,,,,,,,,,169.8007271999959,169.816188900033,,170.30128850002075,170.32284889998846,170.32561130000977,170.32561130000977,170.32561130000977,172.66677000001073,Scenes\077b.jpg,pre,s,2.329774899990298,None,,,,,,,,00034,001,2026-01-22_17h48.05.945,MST_test,2024.2.0,59.931809577147284,2026-01-22 17h48.12.444023 +0530,
20,0,21,s,2.3045284999534488,None,21,0,20,172.68270910001593,,,,,,,,,,,,,,,,,,,,,,,,,,,,,,,,,,,,,,,,,,,,,,,,,,172.66715290001594,172.68270910001593,173.18334170000162,173.16630109999096,173.17282750003505,173.18334170000162,173.18334170000162,173.18334170000162,175.4999664000352,Foils\065a.jpg,none,s,2.3045284999534488,None,,,,,,,,00034,001,2026-01-22_17h48.05.945,MST_test,2024.2.0,59.931809577147284,2026-01-22 17h48.12.444023 +0530,
21,0,22,o,2.9253244000137784,None,22,0,21,175.51619890000438,,,,,,,,,,,,,,,,,,,,,,,,,,,,,,,,,,,,,,,,,,,,,,,,,,175.50034550001146,175.51619890000438,176.05043980001938,175.99991220002994,176.04794540000148,176.05043980001938,176.05043980001938,176.05043980001938,178.9835039000027,Scenes\002b.jpg,pre,o,2.9253244000137784,None,,,,,,,,00034,001,2026-01-22_17h48.05.945,MST_test,2024.2.0,59.931809577147284,2026-01-22 17h48.12.444023 +0530,
22,0,23,s,1.964820699999109,None,23,0,22,178.99944470002083,,,,,,,,,,,,,,,,,,,,,,,,,,,,,,,,,,,,,,,,,,,,,,,,,,178.9838891000254,178.99944470002083,179.50702800002182,179.48329400003422,179.50435499998275,179.50702800002182,179.50702800002182,179.50702800002182,181.48366420000093,Scenes\125a.jpg,mid,s,1.964820699999109,None,,,,,,,,00034,001,2026-01-22_17h48.05.945,MST_test,2024.2.0,59.931809577147284,2026-01-22 17h48.12.444023 +0530,
23,0,24,n,1.8367255000048317,None,24,0,23,181.4994890000089,,,,,,,,,,,,,,,,,,,,,,,,,,,,,,,,,,,,,,,,,,,,,,,,,,181.4841912999982,181.4994890000089,182.0187468000222,181.9833581999992,182.0161908000009,182.0187468000222,182.0187468000222,182.0187468000222,183.8668452000129,Foils\002a.jpg,none,n,1.8367255000048317,None,,,,,,,,00034,001,2026-01-22_17h48.05.945,MST_test,2024.2.0,59.931809577147284,2026-01-22 17h48.12.444023 +0530,
24,0,25,o,1.664670899976045,None,25,0,24,183.88286110002082,,,,,,,,,,,,,,,,,,,,,,,,,,,,,,,,,,,,,,,,,,,,,,,,,,183.86719900002936,183.88286110002082,184.42270480003208,184.36658139998326,184.4201260000118,184.42270480003208,184.42270480003208,184.42270480003208,186.1000851999852,Scenes\018b.jpg,post,o,1.664670899976045,None,,,,,,,,00034,001,2026-01-22_17h48.05.945,MST_test,2024.2.0,59.931809577147284,2026-01-22 17h48.12.444023 +0530,
25,0,26,o,1.9519299999810755,None,26,0,25,186.1159306000336,,,,,,,,,,,,,,,,,,,,,,,,,,,,,,,,,,,,,,,,,,,,,,,,,,186.100436000037,186.1159306000336,186.63153419998707,186.59969609999098,186.6290858000284,186.63153419998707,186.63153419998707,186.63153419998707,188.60015519999433,Objects\130b.jpg,pre,o,1.9519299999810755,None,,,,,,,,00034,001,2026-01-22_17h48.05.945,MST_test,2024.2.0,59.931809577147284,2026-01-22 17h48.12.444023 +0530,
26,0,27,o,1.0187234999611974,None,27,0,26,188.61611579998862,,,,,,,,,,,,,,,,,,,,,,,,,,,,,,,,,,,,,,,,,,,,,,,,,,188.60052829998313,188.61611579998862,189.11646170000313,189.10008100001141,189.11423860001378,189.11646170000313,189.11646170000313,189.11646170000313,190.14980030001607,Scenes\180a.jpg,mid,o,1.0187234999611974,None,,,,,,,,00034,001,2026-01-22_17h48.05.945,MST_test,2024.2.0,59.931809577147284,2026-01-22 17h48.12.444023 +0530,
27,0,28,o,1.599525999976322,None,28,0,27,190.16597750002984,,,,,,,,,,,,,,,,,,,,,,,,,,,,,,,,,,,,,,,,,,,,,,,,,,190.1501500000013,190.16597750002984,190.6803197999834,190.64963579998584,190.67770960001508,190.6803197999834,190.6803197999834,190.6803197999834,192.28318999998737,Objects\157b.jpg,mid,o,1.599525999976322,None,,,,,,,,00034,001,2026-01-22_17h48.05.945,MST_test,2024.2.0,59.931809577147284,2026-01-22 17h48.12.444023 +0530,
28,0,29,s,2.0104491999954917,None,29,0,28,192.2995113999932,,,,,,,,,,,,,,,,,,,,,,,,,,,,,,,,,,,,,,,,,,,,,,,,,,192.28354420000687,192.2995113999932,192.8370622000075,192.78325040003983,192.83434360002866,192.8370622000075,192.8370622000075,192.8370622000075,194.84989950002637,Scenes\088b.jpg,post,s,2.0104491999954917,None,,,,,,,,00034,001,2026-01-22_17h48.05.945,MST_test,2024.2.0,59.931809577147284,2026-01-22 17h48.12.444023 +0530,
29,0,30,s,1.5373193999985233,None,30,0,29,194.8661831000354,,,,,,,,,,,,,,,,,,,,,,,,,,,,,,,,,,,,,,,,,,,,,,,,,,194.85026660002768,194.8661831000354,195.38190400000894,195.34992150001926,195.379140700039,195.38190400000894,195.38190400000894,195.38190400000894,196.93435540003702,Objects\050b.jpg,pre,s,1.5373193999985233,None,,,,,,,,00034,001,2026-01-22_17h48.05.945,MST_test,2024.2.0,59.931809577147284,2026-01-22 17h48.12.444023 +0530,
30,0,31,o,1.414426299976185,None,31,0,30,196.94918599998346,,,,,,,,,,,,,,,,,,,,,,,,,,,,,,,,,,,,,,,,,,,,,,,,,,196.93470570002683,196.94918599998346,197.44943049998255,197.43322020000778,197.44118050002726,197.44943049998255,197.44943049998255,197.44943049998255,198.86668949999148,Objects\028a.jpg,mid,o,1.414426299976185,None,,,,,,,,00034,001,2026-01-22_17h48.05.945,MST_test,2024.2.0,59.931809577147284,2026-01-22 17h48.12.444023 +0530,
31,0,32,o,1.104687399987597,None,32,0,31,198.88283519999823,,,,,,,,,,,,,,,,,,,,,,,,,,,,,,,,,,,,,,,,,,,,,,,,,,198.86707560002105,198.88283519999823,199.38282759999856,199.36657750001177,199.37510440003825,199.38282759999856,199.38282759999856,199.38282759999856,200.50021600001492,Objects\097a.jpg,post,o,1.104687399987597,None,,,,,,,,00034,001,2026-01-22_17h48.05.945,MST_test,2024.2.0,59.931809577147284,2026-01-22 17h48.12.444023 +0530,
32,0,33,o,1.1091586999827996,None,33,0,32,200.51592470001196,,,,,,,,,,,,,,,,,,,,,,,,,,,,,,,,,,,,,,,,,,,,,,,,,,200.5005647999933,200.51592470001196,201.03470910002943,200.99997599999188,201.0322068000096,201.03470910002943,201.03470910002943,201.03470910002943,202.15016010002,Objects\062b.jpg,pre,o,1.1091586999827996,None,,,,,,,,00034,001,2026-01-22_17h48.05.945,MST_test,2024.2.0,59.931809577147284,2026-01-22 17h48.12.444023 +0530,
33,0,34,o,0.7830971999792382,None,34,0,33,202.1661776000401,,,,,,,,,,,,,,,,,,,,,,,,,,,,,,,,,,,,,,,,,,,,,,,,,,202.15050819999306,202.1661776000401,202.6803711000248,202.64965320000192,202.6781160000246,202.6803711000248,202.6803711000248,202.6803711000248,203.46652300003916,Objects\099b.jpg,post,o,0.7830971999792382,None,,,,,,,,00034,001,2026-01-22_17h48.05.945,MST_test,2024.2.0,59.931809577147284,2026-01-22 17h48.12.444023 +0530,
34,0,35,o,0.9520644000149332,None,35,0,34,203.48273789999075,,,,,,,,,,,,,,,,,,,,,,,,,,,,,,,,,,,,,,,,,,,,,,,,,,203.46687730000122,203.48273789999075,203.98302410001634,203.96638220001478,203.98055790003855,203.98302410001634,203.98302410001634,203.98302410001634,204.95019300002605,Scenes\185a.jpg,pre,o,0.9520644000149332,None,,,,,,,,00034,001,2026-01-22_17h48.05.945,MST_test,2024.2.0,59.931809577147284,2026-01-22 17h48.12.444023 +0530,
35,0,36,s,1.8612959000165574,None,36,0,35,204.966181900003,,,,,,,,,,,,,,,,,,,,,,,,,,,,,,,,,,,,,,,,,,,,,,,,,,204.950546499982,204.966181900003,205.4665296000312,205.44976839999435,205.45731269998942,205.4665296000312,205.4665296000312,205.4665296000312,207.33347660000436,Foils\scenes7.jpg,none,s,1.8612959000165574,None,,,,,,,,00034,001,2026-01-22_17h48.05.945,MST_test,2024.2.0,59.931809577147284,2026-01-22 17h48.12.444023 +0530,
36,0,37,s,2.053950600035023,None,37,0,36,207.34950620000018,,,,,,,,,,,,,,,,,,,,,,,,,,,,,,,,,,,,,,,,,,,,,,,,,,207.33385410002666,207.34950620000018,207.84987879998516,207.83317440003157,207.8423847000231,207.84987879998516,207.84987879998516,207.84987879998516,209.91732780000893,Objects\114a.jpg,pre,s,2.053950600035023,None,,,,,,,,00034,001,2026-01-22_17h48.05.945,MST_test,2024.2.0,59.931809577147284,2026-01-22 17h48.12.444023 +0530,
37,0,38,o,1.2909546000300907,None,38,0,37,209.93285660003312,,,,,,,,,,,,,,,,,,,,,,,,,,,,,,,,,,,,,,,,,,,,,,,,,,209.91773680003826,209.93285660003312,210.43690550001338,210.41657589998795,210.43456329999026,210.43690550001338,210.43690550001338,210.43690550001338,211.7332682000124,Scenes\012a.jpg,post,o,1.2909546000300907,None,,,,,,,,00034,001,2026-01-22_17h48.05.945,MST_test,2024.2.0,59.931809577147284,2026-01-22 17h48.12.444023 +0530,
38,0,39,o,1.1815714000258595,None,39,0,38,211.74930419999873,,,,,,,,,,,,,,,,,,,,,,,,,,,,,,,,,,,,,,,,,,,,,,,,,,211.73362220003037,211.74930419999873,212.24971529998584,212.23298450000584,212.24165849998826,212.24971529998584,212.24971529998584,212.24971529998584,213.43309230002342,Objects\169a.jpg,pre,o,1.1815714000258595,None,,,,,,,,00034,001,2026-01-22_17h48.05.945,MST_test,2024.2.0,59.931809577147284,2026-01-22 17h48.12.444023 +0530,
39,0,40,n,2.262638100015465,None,40,0,39,213.44952090003062,,,,,,,,,,,,,,,,,,,,,,,,,,,,,,,,,,,,,,,,,,,,,,,,,,213.43344430002617,213.44952090003062,213.96887330000754,213.93318709998857,213.9660163000226,213.96887330000754,213.96887330000754,213.96887330000754,216.23329649999505,Foils\scenes22.jpg,none,n,2.262638100015465,None,,,,,,,,00034,001,2026-01-22_17h48.05.945,MST_test,2024.2.0,59.931809577147284,2026-01-22 17h48.12.444023 +0530,
40,0,41,o,2.088322399999015,None,41,0,40,216.24917690001894,,,,,,,,,,,,,,,,,,,,,,,,,,,,,,,,,,,,,,,,,,,,,,,,,,216.23367950000102,216.24917690001894,216.7672102000215,216.7332119999919,216.76325930003077,216.7672102000215,216.7672102000215,216.7672102000215,218.8669055000064,Objects\051b.jpg,pre,o,2.088322399999015,None,,,,,,,,00034,001,2026-01-22_17h48.05.945,MST_test,2024.2.0,59.931809577147284,2026-01-22 17h48.12.444023 +0530,
41,0,42,o,0.9158287000027485,None,42,0,41,218.88280740001937,,,,,,,,,,,,,,,,,,,,,,,,,,,,,,,,,,,,,,,,,,,,,,,,,,218.86728950001998,218.88280740001937,219.40336669998942,219.36658279999392,219.3995410000207,219.40336669998942,219.40336669998942,219.40336669998942,220.33359480003128,Objects\022b.jpg,post,o,0.9158287000027485,None,,,,,,,,00034,001,2026-01-22_17h48.05.945,MST_test,2024.2.0,59.931809577147284,2026-01-22 17h48.12.444023 +0530,
42,0,43,n,3.453362800006289,None,43,0,42,220.3495230000117,,,,,,,,,,,,,,,,,,,,,,,,,,,,,,,,,,,,,,,,,,,,,,,,,,220.33398120000493,220.3495230000117,220.84976920002373,220.83320580003783,220.84271320002154,220.84976920002373,220.84976920002373,220.84976920002373,224.31689680001,Foils\093b.jpg,none,n,3.453362800006289,None,,,,,,,,00034,001,2026-01-22_17h48.05.945,MST_test,2024.2.0,59.931809577147284,2026-01-22 17h48.12.444023 +0530,
43,0,44,o,2.695196299988311,None,44,0,43,224.3327689000289,,,,,,,,,,,,,,,,,,,,,,,,,,,,,,,,,,,,,,,,,,,,,,,,,,224.31729879998602,224.3327689000289,224.83995609998237,224.81658980000066,224.8376443000161,224.83995609998237,224.83995609998237,224.83995609998237,227.55020930001047,Scenes\121a.jpg,post,o,2.695196299988311,None,,,,,,,,00034,001,2026-01-22_17h48.05.945,MST_test,2024.2.0,59.931809577147284,2026-01-22 17h48.12.444023 +0530,
44,0,45,o,1.06433039996773,None,45,0,44,227.56599520001328,,,,,,,,,,,,,,,,,,,,,,,,,,,,,,,,,,,,,,,,,,,,,,,,,,227.55056090001017,227.56599520001328,228.08703729999252,228.0499179000035,228.08414809999522,228.08703729999252,228.08703729999252,228.08703729999252,229.16684830002487,Objects\175b.jpg,mid,o,1.06433039996773,None,,,,,,,,00034,001,2026-01-22_17h48.05.945,MST_test,2024.2.0,59.931809577147284,2026-01-22 17h48.12.444023 +0530,
45,0,46,s,1.7081052999710664,None,46,0,45,229.18278540001484,,,,,,,,,,,,,,,,,,,,,,,,,,,,,,,,,,,,,,,,,,,,,,,,,,229.1672019000398,229.18278540001484,229.68303690000903,229.66649020003388,229.6792036999832,229.68303690000903,229.68303690000903,229.68303690000903,231.3999807999935,Scenes\079a.jpg,mid,s,1.7081052999710664,None,,,,,,,,00034,001,2026-01-22_17h48.05.945,MST_test,2024.2.0,59.931809577147284,2026-01-22 17h48.12.444023 +0530,
46,0,47,o,1.8976280000060797,None,47,0,46,231.41580509999767,,,,,,,,,,,,,,,,,,,,,,,,,,,,,,,,,,,,,,,,,,,,,,,,,,231.4003376000328,231.41580509999767,231.91763350000838,231.8999877999886,231.91441560001113,231.91763350000838,231.91763350000838,231.91763350000838,233.81678490003105,Scenes\008b.jpg,post,o,1.8976280000060797,None,,,,,,,,00034,001,2026-01-22_17h48.05.945,MST_test,2024.2.0,59.931809577147284,2026-01-22 17h48.12.444023 +0530,
47,0,48,n,1.19621249998454,None,48,0,47,233.8321107000229,,,,,,,,,,,,,,,,,,,,,,,,,,,,,,,,,,,,,,,,,,,,,,,,,,233.8171522000339,233.8321107000229,234.34698129998287,234.3165923000197,234.34403989999555,234.34698129998287,234.34698129998287,234.34698129998287,235.55016700003762,Foils\082a.jpg,none,n,1.19621249998454,None,,,,,,,,00034,001,2026-01-22_17h48.05.945,MST_test,2024.2.0,59.931809577147284,2026-01-22 17h48.12.444023 +0530,
48,0,49,s,1.2292932999553159,None,49,0,48,235.5661829999881,,,,,,,,,,,,,,,,,,,,,,,,,,,,,,,,,,,,,,,,,,,,,,,,,,235.5505211999989,235.5661829999881,236.08250280003995,236.04972220002674,236.08029310003622,236.08250280003995,236.08250280003995,236.08250280003995,237.3168145000236,Objects\182b.jpg,pre,s,1.2292932999553159,None,,,,,,,,00034,001,2026-01-22_17h48.05.945,MST_test,2024.2.0,59.931809577147284,2026-01-22 17h48.12.444023 +0530,
49,0,50,s,2.166266599961091,None,50,0,49,237.33278019999852,,,,,,,,,,,,,,,,,,,,,,,,,,,,,,,,,,,,,,,,,,,,,,,,,,237.31716630002484,237.33278019999852,237.8328699999838,237.8164598000003,237.82463099999586,237.8328699999838,237.8328699999838,237.8328699999838,240.00037200003862,Objects\192b.jpg,mid,s,2.166266599961091,None,,,,,,,,00034,001,2026-01-22_17h48.05.945,MST_test,2024.2.0,59.931809577147284,2026-01-22 17h48.12.444023 +0530,
50,0,51,n,1.2752217999659479,None,51,0,50,240.01624740002444,,,,,,,,,,,,,,,,,,,,,,,,,,,,,,,,,,,,,,,,,,,,,,,,,,240.0007243999862,240.01624740002444,240.53257740003755,240.4999220999889,240.52960780001013,240.53257740003755,240.53257740003755,240.53257740003755,241.81689590000315,Foils\scenes12.jpg,none,n,1.2752217999659479,None,,,,,,,,00034,001,2026-01-22_17h48.05.945,MST_test,2024.2.0,59.931809577147284,2026-01-22 17h48.12.444023 +0530,
51,0,52,s,2.0327999999863096,None,52,0,51,241.83276359998854,,,,,,,,,,,,,,,,,,,,,,,,,,,,,,,,,,,,,,,,,,,,,,,,,,241.81728270003805,241.83276359998854,242.33436740003526,242.31658980000066,242.33210950001376,242.33436740003526,242.33436740003526,242.33436740003526,244.38350190001074,Scenes\102a.jpg,mid,s,2.0327999999863096,None,,,,,,,,00034,001,2026-01-22_17h48.05.945,MST_test,2024.2.0,59.931809577147284,2026-01-22 17h48.12.444023 +0530,
52,0,53,o,1.2269526000018232,None,53,0,52,244.39953130000504,,,,,,,,,,,,,,,,,,,,,,,,,,,,,,,,,,,,,,,,,,,,,,,,,,244.383905900002,244.39953130000504,244.9001681000227,244.8831006999826,244.897323400015,244.9001681000227,244.9001681000227,244.9001681000227,246.13318420003634,Scenes\150a.jpg,mid,o,1.2269526000018232,None,,,,,,,,00034,001,2026-01-22_17h48.05.945,MST_test,2024.2.0,59.931809577147284,2026-01-22 17h48.12.444023 +0530,
53,0,54,s,1.581453499966301,None,54,0,53,246.14940789999673,,,,,,,,,,,,,,,,,,,,,,,,,,,,,,,,,,,,,,,,,,,,,,,,,,246.13353500002995,246.14940789999673,246.650357800012,246.63319060002686,246.64566799998283,246.650357800012,246.650357800012,246.650357800012,248.23321760003455,Scenes\007a.jpg,pre,s,1.581453499966301,None,,,,,,,,00034,001,2026-01-22_17h48.05.945,MST_test,2024.2.0,59.931809577147284,2026-01-22 17h48.12.444023 +0530,
54,0,55,s,2.217036799993366,None,55,0,54,248.24943090003217,,,,,,,,,,,,,,,,,,,,,,,,,,,,,,,,,,,,,,,,,,,,,,,,,,248.23358759999974,248.24943090003217,248.7500701000099,248.73322609998286,248.74345509998966,248.7500701000099,248.7500701000099,248.7500701000099,250.9834775000345,Objects\080b.jpg,post,s,2.217036799993366,None,,,,,,,,00034,001,2026-01-22_17h48.05.945,MST_test,2024.2.0,59.931809577147284,2026-01-22 17h48.12.444023 +0530,
55,0,56,s,1.99583359999815,None,56,0,55,250.99955410003895,,,,,,,,,,,,,,,,,,,,,,,,,,,,,,,,,,,,,,,,,,,,,,,,,,250.98386010003742,250.99955410003895,251.49975560000166,251.48320000001695,251.49716349999653,251.49975560000166,251.49975560000166,251.49975560000166,253.50019280001288,Scenes\152a.jpg,post,s,1.99583359999815,None,,,,,,,,00034,001,2026-01-22_17h48.05.945,MST_test,2024.2.0,59.931809577147284,2026-01-22 17h48.12.444023 +0530,
56,0,57,o,1.18235379998805,None,57,0,56,253.5162255000323,,,,,,,,,,,,,,,,,,,,,,,,,,,,,,,,,,,,,,,,,,,,,,,,,,253.50056549999863,253.5162255000323,254.01680049998686,253.99989999999525,254.00881989998743,254.01680049998686,254.01680049998686,254.01680049998686,255.1999147000024,Objects\140a.jpg,post,o,1.18235379998805,None,,,,,,,,00034,001,2026-01-22_17h48.05.945,MST_test,2024.2.0,59.931809577147284,2026-01-22 17h48.12.444023 +0530,
57,0,58,o,0.8746526000322774,None,58,0,57,255.2162418999942,,,,,,,,,,,,,,,,,,,,,,,,,,,,,,,,,,,,,,,,,,,,,,,,,,255.20027090003714,255.2162418999942,255.7164550999878,255.69992909999564,255.70810580003308,255.7164550999878,255.7164550999878,255.7164550999878,256.60017900000094,Objects\096a.jpg,pre,o,0.8746526000322774,None,,,,,,,,00034,001,2026-01-22_17h48.05.945,MST_test,2024.2.0,59.931809577147284,2026-01-22 17h48.12.444023 +0530,
58,0,59,o,2.158720000006724,None,59,0,58,256.6161867000046,,,,,,,,,,,,,,,,,,,,,,,,,,,,,,,,,,,,,,,,,,,,,,,,,,256.60054970002966,256.6161867000046,257.1523865000345,257.09973190003075,257.14974319998873,257.1523865000345,257.1523865000345,257.1523865000345,259.3169054000173,Scenes\034b.jpg,post,o,2.158720000006724,None,,,,,,,,00034,001,2026-01-22_17h48.05.945,MST_test,2024.2.0,59.931809577147284,2026-01-22 17h48.12.444023 +0530,
59,0,60,n,2.8007057000068016,None,60,0,59,259.3328610000317,,,,,,,,,,,,,,,,,,,,,,,,,,,,,,,,,,,,,,,,,,,,,,,,,,259.31727290002163,259.3328610000317,259.8390242999885,259.81638850003947,259.8361046999926,259.8390242999885,259.8390242999885,259.8390242999885,262.65005420002853,Scenes\032b.jpg,mid,n,2.8007057000068016,None,,,,,,,,00034,001,2026-01-22_17h48.05.945,MST_test,2024.2.0,59.931809577147284,2026-01-22 17h48.12.444023 +0530,
60,0,61,o,1.6790290000499226,None,61,0,60,262.6657217000029,,,,,,,,,,,,,,,,,,,,,,,,,,,,,,,,,,,,,,,,,,,,,,,,,,262.650441100006,262.6657217000029,263.1763352000271,263.1498452000087,263.1734760000254,263.1763352000271,263.1763352000271,263.1763352000271,264.86687150003854,Scenes\009a.jpg,mid,o,1.6790290000499226,None,,,,,,,,00034,001,2026-01-22_17h48.05.945,MST_test,2024.2.0,59.931809577147284,2026-01-22 17h48.12.444023 +0530,
61,0,62,s,1.59239309997065,None,62,0,61,264.8828845000244,,,,,,,,,,,,,,,,,,,,,,,,,,,,,,,,,,,,,,,,,,,,,,,,,,264.8672488000011,264.8828845000244,265.39938850002363,265.3666467000148,265.39667230000487,265.39938850002363,265.39938850002363,265.39938850002363,267.00017810001737,Objects\180b.jpg,mid,s,1.59239309997065,None,,,,,,,,00034,001,2026-01-22_17h48.05.945,MST_test,2024.2.0,59.931809577147284,2026-01-22 17h48.12.444023 +0530,
62,0,63,n,2.8856782999937423,None,63,0,62,267.0162422999856,,,,,,,,,,,,,,,,,,,,,,,,,,,,,,,,,,,,,,,,,,,,,,,,,,267.0005880999961,267.0162422999856,267.5540900999913,267.4998399000033,267.55171640001936,267.5540900999913,267.5540900999913,267.5540900999913,270.45023930002935,Objects\118b.jpg,post,n,2.8856782999937423,None,,,,,,,,00034,001,2026-01-22_17h48.05.945,MST_test,2024.2.0,59.931809577147284,2026-01-22 17h48.12.444023 +0530,
63,0,64,o,2.457825599994976,None,64,0,63,270.4661698000273,,,,,,,,,,,,,,,,,,,,,,,,,,,,,,,,,,,,,,,,,,,,,,,,,,270.4506238999893,270.4661698000273,270.9663481999887,270.9499235000112,270.95833360002143,270.9663481999887,270.9663481999887,270.9663481999887,273.4335465999902,Objects\129a.jpg,pre,o,2.457825599994976,None,,,,,,,,00034,001,2026-01-22_17h48.05.945,MST_test,2024.2.0,59.931809577147284,2026-01-22 17h48.12.444023 +0530,
64,0,65,n,5.22596050001448,None,65,0,64,273.449530199985,,,,,,,,,,,,,,,,,,,,,,,,,,,,,,,,,,,,,,,,,,,,,,,,,,273.43393330002436,273.449530199985,273.9498097000178,273.9331091000349,273.9396053000237,273.9498097000178,273.9498097000178,273.9498097000178,279.18351390003227,Foils\scenes19.jpg,none,n,5.22596050001448,None,,,,,,,,00034,001,2026-01-22_17h48.05.945,MST_test,2024.2.0,59.931809577147284,2026-01-22 17h48.12.444023 +0530,
65,0,66,o,2.0549458999885246,None,66,0,65,279.1995409000083,,,,,,,,,,,,,,,,,,,,,,,,,,,,,,,,,,,,,,,,,,,,,,,,,,279.1838872000226,279.1995409000083,279.72023829998216,279.68324490002124,279.71795020002173,279.72023829998216,279.72023829998216,279.72023829998216,281.7835564999841,Objects\116b.jpg,mid,o,2.0549458999885246,None,,,,,,,,00034,001,2026-01-22_17h48.05.945,MST_test,2024.2.0,59.931809577147284,2026-01-22 17h48.12.444023 +0530,
66,0,67,n,2.5804932999890298,None,67,0,66,281.7995185999898,,,,,,,,,,,,,,,,,,,,,,,,,,,,,,,,,,,,,,,,,,,,,,,,,,281.78398800001014,281.7995185999898,282.31526380003197,282.28330960002495,282.31234050000785,282.31526380003197,282.31526380003197,282.31526380003197,284.90020340000046,Foils\scenes17.jpg,none,n,2.5804932999890298,None,,,,,,,,00034,001,2026-01-22_17h48.05.945,MST_test,2024.2.0,59.931809577147284,2026-01-22 17h48.12.444023 +0530,
67,0,68,n,1.0392275999765843,None,68,0,67,284.9161538000335,,,,,,,,,,,,,,,,,,,,,,,,,,,,,,,,,,,,,,,,,,,,,,,,,,284.9005621999968,284.9161538000335,285.4165030000149,285.39999850001186,285.408851300017,285.4165030000149,285.4165030000149,285.4165030000149,286.4667989999871,Foils\020b.jpg,none,n,1.0392275999765843,None,,,,,,,,00034,001,2026-01-22_17h48.05.945,MST_test,2024.2.0,59.931809577147284,2026-01-22 17h48.12.444023 +0530,
68,0,69,s,1.5110478000133298,None,69,0,68,286.4828694000025,,,,,,,,,,,,,,,,,,,,,,,,,,,,,,,,,,,,,,,,,,,,,,,,,,286.46715089998906,286.4828694000025,287.00811220001196,286.9662180999876,287.00567009998485,287.00811220001196,287.00811220001196,287.00811220001196,288.5334274999914,Scenes\116b.jpg,post,s,1.5110478000133298,None,,,,,,,,00034,001,2026-01-22_17h48.05.945,MST_test,2024.2.0,59.931809577147284,2026-01-22 17h48.12.444023 +0530,
69,0,70,n,2.108928699977696,None,70,0,69,288.54941640002653,,,,,,,,,,,,,,,,,,,,,,,,,,,,,,,,,,,,,,,,,,,,,,,,,,288.53378390002763,288.54941640002653,289.050071900012,289.0331964000361,289.0450692999875,289.050071900012,289.050071900012,289.050071900012,291.16650450002635,Scenes\118b.jpg,post,n,2.108928699977696,None,,,,,,,,00034,001,2026-01-22_17h48.05.945,MST_test,2024.2.0,59.931809577147284,2026-01-22 17h48.12.444023 +0530,
70,0,71,n,1.4143280999851413,None,71,0,70,291.1824939000071,,,,,,,,,,,,,,,,,,,,,,,,,,,,,,,,,,,,,,,,,,,,,,,,,,291.16676759999245,291.1824939000071,291.6894270000048,291.66658700001426,291.68693820002954,291.6894270000048,291.6894270000048,291.6894270000048,293.11685310001485,Scenes\090a.jpg,post,n,1.4143280999851413,None,,,,,,,,00034,001,2026-01-22_17h48.05.945,MST_test,2024.2.0,59.931809577147284,2026-01-22 17h48.12.444023 +0530,
71,0,72,s,1.4285110000055283,None,72,0,71,293.13435340003343,,,,,,,,,,,,,,,,,,,,,,,,,,,,,,,,,,,,,,,,,,,,,,,,,,293.1172372000292,293.13435340003343,,293.63310500001535,293.6727925000014,293.6753039000323,293.6753039000323,293.6753039000323,295.1166468000156,Scenes\137b.jpg,post,s,1.4285110000055283,None,,,,,,,,00034,001,2026-01-22_17h48.05.945,MST_test,2024.2.0,59.931809577147284,2026-01-22 17h48.12.444023 +0530,
72,0,73,o,1.4948025000048801,None,73,0,72,295.13289020000957,,,,,,,,,,,,,,,,,,,,,,,,,,,,,,,,,,,,,,,,,,,,,,,,,,295.117027100001,295.13289020000957,295.63296529999934,295.6161213000305,295.6278361000004,295.63296529999934,295.63296529999934,295.63296529999934,297.13356970000314,Scenes\153a.jpg,post,o,1.4948025000048801,None,,,,,,,,00034,001,2026-01-22_17h48.05.945,MST_test,2024.2.0,59.931809577147284,2026-01-22 17h48.12.444023 +0530,
73,0,74,s,1.2539496999816038,None,74,0,73,297.1495467000059,,,,,,,,,,,,,,,,,,,,,,,,,,,,,,,,,,,,,,,,,,,,,,,,,,297.13394850003533,297.1495467000059,297.6497917000088,297.6329600000172,297.6402247000369,297.6497917000088,297.6497917000088,297.6497917000088,298.91684449999593,Foils\066a.jpg,none,s,1.2539496999816038,None,,,,,,,,00034,001,2026-01-22_17h48.05.945,MST_test,2024.2.0,59.931809577147284,2026-01-22 17h48.12.444023 +0530,
74,0,75,s,1.4487729000393301,None,75,0,74,298.93289140000707,,,,,,,,,,,,,,,,,,,,,,,,,,,,,,,,,,,,,,,,,,,,,,,,,,298.91729180002585,298.93289140000707,299.4625635999837,299.41637490002904,299.45978139998624,299.4625635999837,299.4625635999837,299.4625635999837,300.9167773000081,Scenes\151b.jpg,pre,s,1.4487729000393301,None,,,,,,,,00034,001,2026-01-22_17h48.05.945,MST_test,2024.2.0,59.931809577147284,2026-01-22 17h48.12.444023 +0530,
75,0,76,o,1.133694000018295,None,76,0,75,300.93287309998414,,,,,,,,,,,,,,,,,,,,,,,,,,,,,,,,,,,,,,,,,,,,,,,,,,300.91714869998395,300.93287309998414,301.43340710003395,301.4165540999966,301.4311037000152,301.43340710003395,301.43340710003395,301.43340710003395,302.5835684000049,Scenes\164a.jpg,pre,o,1.133694000018295,None,,,,,,,,00034,001,2026-01-22_17h48.05.945,MST_test,2024.2.0,59.931809577147284,2026-01-22 17h48.12.444023 +0530,
76,0,77,n,4.299116299953312,None,77,0,76,302.5995263000368,,,,,,,,,,,,,,,,,,,,,,,,,,,,,,,,,,,,,,,,,,,,,,,,,,302.5839217000175,302.5995263000368,303.10007799998857,303.08315010002116,303.09185369999614,303.10007799998857,303.10007799998857,303.10007799998857,307.40004919999046,Foils\057a.jpg,none,n,4.299116299953312,None,,,,,,,,00034,001,2026-01-22_17h48.05.945,MST_test,2024.2.0,59.931809577147284,2026-01-22 17h48.12.444023 +0530,
77,0,78,n,0.9057174000190571,None,78,0,77,307.4161504000076,,,,,,,,,,,,,,,,,,,,,,,,,,,,,,,,,,,,,,,,,,,,,,,,,,307.4004166999948,307.4161504000076,307.93339930003276,307.8998374000075,307.930783000018,307.93339930003276,307.93339930003276,307.93339930003276,308.85016600001836,Foils\106a.jpg,none,n,0.9057174000190571,None,,,,,,,,00034,001,2026-01-22_17h48.05.945,MST_test,2024.2.0,59.931809577147284,2026-01-22 17h48.12.444023 +0530,
78,0,79,o,1.1528336000046693,None,79,0,78,308.86612630001036,,,,,,,,,,,,,,,,,,,,,,,,,,,,,,,,,,,,,,,,,,,,,,,,,,308.8505268000299,308.86612630001036,309.366346099996,309.34996369999135,309.35786650003865,309.366346099996,309.366346099996,309.366346099996,310.53327000001445,Objects\148a.jpg,mid,o,1.1528336000046693,None,,,,,,,,00034,001,2026-01-22_17h48.05.945,MST_test,2024.2.0,59.931809577147284,2026-01-22 17h48.12.444023 +0530,
79,0,80,o,1.059775899979286,None,80,0,79,310.54953120002756,,,,,,,,,,,,,,,,,,,,,,,,,,,,,,,,,,,,,,,,,,,,,,,,,,310.5336217000149,310.54953120002756,311.05106700002216,311.0332805000362,311.0487661000225,311.05106700002216,311.05106700002216,311.05106700002216,312.1163177000126,Scenes\052a.jpg,pre,o,1.059775899979286,None,,,,,,,,00034,001,2026-01-22_17h48.05.945,MST_test,2024.2.0,59.931809577147284,2026-01-22 17h48.12.444023 +0530,
80,0,81,o,0.8856981000280939,None,81,0,80,312.13256500003627,,,,,,,,,,,,,,,,,,,,,,,,,,,,,,,,,,,,,,,,,,,,,,,,,,312.1166850000154,312.13256500003627,312.6333970000269,312.61650150001515,312.6254862000351,312.6333970000269,312.6333970000269,312.6333970000269,313.5332228000043,Objects\150a.jpg,mid,o,0.8856981000280939,None,,,,,,,,00034,001,2026-01-22_17h48.05.945,MST_test,2024.2.0,59.931809577147284,2026-01-22 17h48.12.444023 +0530,
81,0,82,s,1.3614993999945,None,82,0,81,313.5495339999907,,,,,,,,,,,,,,,,,,,,,,,,,,,,,,,,,,,,,,,,,,,,,,,,,,313.533570300031,313.5495339999907,314.0617823000066,314.03326300001936,314.0598199000233,314.0617823000066,314.0617823000066,314.0617823000066,315.4333902000217,Objects\090b.jpg,post,s,1.3614993999945,None,,,,,,,,00034,001,2026-01-22_17h48.05.945,MST_test,2024.2.0,59.931809577147284,2026-01-22 17h48.12.444023 +0530,
82,0,83,s,2.643999400024768,None,83,0,82,315.4493540999829,,,,,,,,,,,,,,,,,,,,,,,,,,,,,,,,,,,,,,,,,,,,,,,,,,315.4337430000305,315.4493540999829,315.9801265000133,315.93324410001514,315.9777514000307,315.9801265000133,315.9801265000133,315.9801265000133,318.63351529999636,Scenes\070b.jpg,post,s,2.643999400024768,None,,,,,,,,00034,001,2026-01-22_17h48.05.945,MST_test,2024.2.0,59.931809577147284,2026-01-22 17h48.12.444023 +0530,
83,0,84,n,1.5719235999858938,None,84,0,83,318.6495257000206,,,,,,,,,,,,,,,,,,,,,,,,,,,,,,,,,,,,,,,,,,,,,,,,,,318.633868600009,318.6495257000206,319.179439700034,319.13326800003415,319.1770273000002,319.179439700034,319.179439700034,319.179439700034,320.76690200000303,Scenes\071b.jpg,pre,n,1.5719235999858938,None,,,,,,,,00034,001,2026-01-22_17h48.05.945,MST_test,2024.2.0,59.931809577147284,2026-01-22 17h48.12.444023 +0530,
84,0,85,s,3.113740400003735,None,85,0,84,320.78287360002287,,,,,,,,,,,,,,,,,,,,,,,,,,,,,,,,,,,,,,,,,,,,,,,,,,320.76728359999834,320.78287360002287,321.3100038000266,321.26652569998987,321.3073757000384,321.3100038000266,321.3100038000266,321.3100038000266,324.4335645000101,Objects\042b.jpg,mid,s,3.113740400003735,None,,,,,,,,00034,001,2026-01-22_17h48.05.945,MST_test,2024.2.0,59.931809577147284,2026-01-22 17h48.12.444023 +0530,
85,0,86,o,4.951817199995276,None,86,0,85,324.4492229000316,,,,,,,,,,,,,,,,,,,,,,,,,,,,,,,,,,,,,,,,,,,,,,,,,,324.4339725000318,324.4492229000316,324.9512818999938,324.9333275000099,324.9488953999826,324.9512818999938,324.9512818999938,324.9512818999938,329.9167990999995,Scenes\141a.jpg,mid,o,4.951817199995276,None,,,,,,,,00034,001,2026-01-22_17h48.05.945,MST_test,2024.2.0,59.931809577147284,2026-01-22 17h48.12.444023 +0530,
86,0,87,n,1.0718078999780118,None,87,0,86,329.93286920001265,,,,,,,,,,,,,,,,,,,,,,,,,,,,,,,,,,,,,,,,,,,,,,,,,,329.91714999999385,329.93286920001265,330.4394215000211,330.41644120001,330.4353648000397,330.4394215000211,330.4394215000211,330.4394215000211,331.5167855999898,Foils\scenes28.jpg,none,n,1.0718078999780118,None,,,,,,,,00034,001,2026-01-22_17h48.05.945,MST_test,2024.2.0,59.931809577147284,2026-01-22 17h48.12.444023 +0530,
87,0,88,n,3.1579353000270203,None,88,0,87,331.53289299999597,,,,,,,,,,,,,,,,,,,,,,,,,,,,,,,,,,,,,,,,,,,,,,,,,,331.51716220000526,331.53289299999597,332.0337564999936,332.0165288000135,332.02563889999874,332.0337564999936,332.0337564999936,332.0337564999936,335.20023280003807,Objects\086a.jpg,post,n,3.1579353000270203,None,,,,,,,,00034,001,2026-01-22_17h48.05.945,MST_test,2024.2.0,59.931809577147284,2026-01-22 17h48.12.444023 +0530,
88,0,89,n,0.8185209999792278,None,89,0,88,335.21615480002947,,,,,,,,,,,,,,,,,,,,,,,,,,,,,,,,,,,,,,,,,,,,,,,,,,335.2005823000218,335.21615480002947,335.71649399999296,335.6996280000312,335.70562439999776,335.71649399999296,335.71649399999296,335.71649399999296,336.5502108000219,Foils\scenes29.jpg,none,n,0.8185209999792278,None,,,,,,,,00034,001,2026-01-22_17h48.05.945,MST_test,2024.2.0,59.931809577147284,2026-01-22 17h48.12.444023 +0530,
89,0,90,o,1.4304072000086308,None,90,0,89,336.5661424000282,,,,,,,,,,,,,,,,,,,,,,,,,,,,,,,,,,,,,,,,,,,,,,,,,,336.550570100022,336.5661424000282,337.0887004000251,337.04965569998603,337.08503050002037,337.0887004000251,337.0887004000251,337.0887004000251,338.53321570000844,Objects\103b.jpg,pre,o,1.4304072000086308,None,,,,,,,,00034,001,2026-01-22_17h48.05.945,MST_test,2024.2.0,59.931809577147284,2026-01-22 17h48.12.444023 +0530,
90,0,91,o,0.8497307000216097,None,91,0,90,338.54933429998346,,,,,,,,,,,,,,,,,,,,,,,,,,,,,,,,,,,,,,,,,,,,,,,,,,338.5335928000277,338.54933429998346,339.14181920001283,339.0332657999825,339.13918320002267,339.14181920001283,339.14181920001283,339.14181920001283,340.00016749999486,Objects\064b.jpg,pre,o,0.8497307000216097,None,,,,,,,,00034,001,2026-01-22_17h48.05.945,MST_test,2024.2.0,59.931809577147284,2026-01-22 17h48.12.444023 +0530,
91,0,92,o,0.8992716000066139,None,92,0,91,340.01619920000667,,,,,,,,,,,,,,,,,,,,,,,,,,,,,,,,,,,,,,,,,,,,,,,,,,340.00052820000565,340.01619920000667,340.5163651999901,340.49992560001556,340.50816710002255,340.5163651999901,340.5163651999901,340.5163651999901,341.41702250001254,Objects\135a.jpg,post,o,0.8992716000066139,None,,,,,,,,00034,001,2026-01-22_17h48.05.945,MST_test,2024.2.0,59.931809577147284,2026-01-22 17h48.12.444023 +0530,
92,0,93,o,0.8506995000061579,None,93,0,92,341.432799400005,,,,,,,,,,,,,,,,,,,,,,,,,,,,,,,,,,,,,,,,,,,,,,,,,,341.41738549998263,341.432799400005,341.9327796000289,341.91662299999734,341.92339900002116,341.9327796000289,341.9327796000289,341.9327796000289,342.7999821000267,Objects\152b.jpg,mid,o,0.8506995000061579,None,,,,,,,,00034,001,2026-01-22_17h48.05.945,MST_test,2024.2.0,59.931809577147284,2026-01-22 17h48.12.444023 +0530,
93,0,94,n,1.5649648000253364,None,94,0,93,342.81589620001614,,,,,,,,,,,,,,,,,,,,,,,,,,,,,,,,,,,,,,,,,,,,,,,,,,342.8003569000284,342.81589620001614,343.3307477000053,343.29993480001576,343.3282205000287,343.3307477000053,343.3307477000053,343.3307477000053,344.90017600002466,Objects\191b.jpg,post,n,1.5649648000253364,None,,,,,,,,00034,001,2026-01-22_17h48.05.945,MST_test,2024.2.0,59.931809577147284,2026-01-22 17h48.12.444023 +0530,
94,0,95,o,1.4906544999685138,None,95,0,94,344.9162210000213,,,,,,,,,,,,,,,,,,,,,,,,,,,,,,,,,,,,,,,,,,,,,,,,,,344.9005220000399,344.9162210000213,345.4210843000328,345.3999336999841,345.41849489999004,345.4210843000328,345.4210843000328,345.4210843000328,346.91685660002986,Scenes\015a.jpg,pre,o,1.4906544999685138,None,,,,,,,,00034,001,2026-01-22_17h48.05.945,MST_test,2024.2.0,59.931809577147284,2026-01-22 17h48.12.444023 +0530,
95,0,96,s,1.5016030000406317,None,96,0,95,346.9325463999994,,,,,,,,,,,,,,,,,,,,,,,,,,,,,,,,,,,,,,,,,,,,,,,,,,346.91722659999505,346.9325463999994,347.4654781999998,347.4165885000257,347.462789400015,347.4654781999998,347.4654781999998,347.4654781999998,348.98358270002063,Scenes\073b.jpg,mid,s,1.5016030000406317,None,,,,,,,,00034,001,2026-01-22_17h48.05.945,MST_test,2024.2.0,59.931809577147284,2026-01-22 17h48.12.444023 +0530,
96,0,97,s,1.379051800002344,None,97,0,96,348.9994826000184,,,,,,,,,,,,,,,,,,,,,,,,,,,,,,,,,,,,,,,,,,,,,,,,,,348.98401960002957,348.9994826000184,349.51599949999945,349.4832800999866,349.51273000001675,349.51599949999945,349.51599949999945,349.51599949999945,350.89977910002926,Objects\091b.jpg,pre,s,1.379051800002344,None,,,,,,,,00034,001,2026-01-22_17h48.05.945,MST_test,2024.2.0,59.931809577147284,2026-01-22 17h48.12.444023 +0530,
97,0,98,s,1.7499321999493986,None,98,0,97,350.91620979999425,,,,,,,,,,,,,,,,,,,,,,,,,,,,,,,,,,,,,,,,,,,,,,,,,,350.900140999991,350.91620979999425,351.41713240003446,351.39986240002327,351.40833930001827,351.41713240003446,351.41713240003446,351.41713240003446,353.18321300001116,Objects\102a.jpg,post,s,1.7499321999493986,None,,,,,,,,00034,001,2026-01-22_17h48.05.945,MST_test,2024.2.0,59.931809577147284,2026-01-22 17h48.12.444023 +0530,
98,0,99,n,3.569208700035233,None,99,0,98,353.19946780003374,,,,,,,,,,,,,,,,,,,,,,,,,,,,,,,,,,,,,,,,,,,,,,,,,,353.1835610999842,353.19946780003374,353.7261345000006,353.68327929999214,353.72276710002916,353.7261345000006,353.7261345000006,353.7261345000006,357.29999480000697,Scenes\169b.jpg,mid,n,3.569208700035233,None,,,,,,,,00034,001,2026-01-22_17h48.05.945,MST_test,2024.2.0,59.931809577147284,2026-01-22 17h48.12.444023 +0530,
99,0,100,o,1.7099554000305943,None,100,0,99,357.316220000037,,,,,,,,,,,,,,,,,,,,,,,,,,,,,,,,,,,,,,,,,,,,,,,,,,357.30034000001615,357.316220000037,,357.8005819999962,357.8225749999983,357.825088099984,357.825088099984,357.825088099984,359.54995840002084,Scenes\105a.jpg,pre,o,1.7099554000305943,None,,,,,,,,00034,001,2026-01-22_17h48.05.945,MST_test,2024.2.0,59.931809577147284,2026-01-22 17h48.12.444023 +0530,
100,0,101,o,1.2449006999959238,None,101,0,100,359.5658194000134,,,,,,,,,,,,,,,,,,,,,,,,,,,,,,,,,,,,,,,,,,,,,,,,,,359.5503310000058,359.5658194000134,360.06682970002294,360.04993380000815,360.0612160000019,360.06682970002294,360.06682970002294,360.06682970002294,361.31688990001567,Objects\156a.jpg,pre,o,1.2449006999959238,None,,,,,,,,00034,001,2026-01-22_17h48.05.945,MST_test,2024.2.0,59.931809577147284,2026-01-22 17h48.12.444023 +0530,
101,0,102,o,0.9825779999955557,None,102,0,101,361.3329053000198,,,,,,,,,,,,,,,,,,,,,,,,,,,,,,,,,,,,,,,,,,,,,,,,,,361.31726149999304,361.3329053000198,361.8330941000022,361.81658260000404,361.82488249999005,361.8330941000022,361.8330941000022,361.8330941000022,362.81708499998786,Objects\136a.jpg,post,o,0.9825779999955557,None,,,,,,,,00034,001,2026-01-22_17h48.05.945,MST_test,2024.2.0,59.931809577147284,2026-01-22 17h48.12.444023 +0530,
102,0,103,o,0.7464547000126913,None,103,0,102,362.8328661000123,,,,,,,,,,,,,,,,,,,,,,,,,,,,,,,,,,,,,,,,,,,,,,,,,,362.8174452999956,362.8328661000123,363.33276590000605,363.31635069998447,363.3229908000212,363.33276590000605,363.33276590000605,363.33276590000605,364.08329029998276,Objects\190a.jpg,mid,o,0.7464547000126913,None,,,,,,,,00034,001,2026-01-22_17h48.05.945,MST_test,2024.2.0,59.931809577147284,2026-01-22 17h48.12.444023 +0530,
103,0,104,s,1.2989169000065885,None,104,0,103,364.099257200025,,,,,,,,,,,,,,,,,,,,,,,,,,,,,,,,,,,,,,,,,,,,,,,,,,364.0836568000377,364.099257200025,364.6200906999875,364.5831293000374,364.617452000035,364.6200906999875,364.6200906999875,364.6200906999875,365.9346121000126,Objects\181b.jpg,post,s,1.2989169000065885,None,,,,,,,,00034,001,2026-01-22_17h48.05.945,MST_test,2024.2.0,59.931809577147284,2026-01-22 17h48.12.444023 +0530,
104,0,105,s,2.442035100015346,None,105,0,104,365.94907610001974,,,,,,,,,,,,,,,,,,,,,,,,,,,,,,,,,,,,,,,,,,,,,,,,,,365.934798900038,365.94907610001974,366.47697220003465,366.4333063000231,366.47453030000906,366.47697220003465,366.47697220003465,366.47697220003465,368.9335431000218,Scenes\124b.jpg,pre,s,2.442035100015346,None,,,,,,,,00034,001,2026-01-22_17h48.05.945,MST_test,2024.2.0,59.931809577147284,2026-01-22 17h48.12.444023 +0530,
105,0,106,o,4.001624200027436,None,106,0,105,368.94949000002816,,,,,,,,,,,,,,,,,,,,,,,,,,,,,,,,,,,,,,,,,,,,,,,,,,368.9338941000169,368.94949000002816,369.45383690000745,369.43327640002826,369.4513488000375,369.45383690000745,369.45383690000745,369.45383690000745,373.4669075999991,Scenes\026a.jpg,pre,o,4.001624200027436,None,,,,,,,,00034,001,2026-01-22_17h48.05.945,MST_test,2024.2.0,59.931809577147284,2026-01-22 17h48.12.444023 +0530,
106,0,107,o,1.4482917999848723,None,107,0,106,373.48289600003045,,,,,,,,,,,,,,,,,,,,,,,,,,,,,,,,,,,,,,,,,,,,,,,,,,373.46728290000465,373.48289600003045,373.9834066000185,373.96635900001274,373.97459060000256,373.9834066000185,373.9834066000185,373.9834066000185,375.43322050001007,Objects\085a.jpg,mid,o,1.4482917999848723,None,,,,,,,,00034,001,2026-01-22_17h48.05.945,MST_test,2024.2.0,59.931809577147284,2026-01-22 17h48.12.444023 +0530,
107,0,108,o,0.8893136000260711,None,108,0,107,375.4493861999945,,,,,,,,,,,,,,,,,,,,,,,,,,,,,,,,,,,,,,,,,,,,,,,,,,375.43356979999226,375.4493861999945,375.9497328000143,375.9331922000274,375.9416110999882,375.9497328000143,375.9497328000143,375.9497328000143,376.85014609998325,Objects\009b.jpg,pre,o,0.8893136000260711,None,,,,,,,,00034,001,2026-01-22_17h48.05.945,MST_test,2024.2.0,59.931809577147284,2026-01-22 17h48.12.444023 +0530,
108,0,109,n,3.0877139000222087,None,109,0,108,376.86620530002983,,,,,,,,,,,,,,,,,,,,,,,,,,,,,,,,,,,,,,,,,,,,,,,,,,376.85058750002645,376.86620530002983,377.3752854000195,377.35013600002276,377.3731822000118,377.3752854000195,377.3752854000195,377.3752854000195,380.4667663000291,Foils\scenes16.jpg,none,n,3.0877139000222087,None,,,,,,,,00034,001,2026-01-22_17h48.05.945,MST_test,2024.2.0,59.931809577147284,2026-01-22 17h48.12.444023 +0530,
109,0,110,o,3.384238999977242,None,110,0,109,380.4829131999868,,,,,,,,,,,,,,,,,,,,,,,,,,,,,,,,,,,,,,,,,,,,,,,,,,380.46715460001724,380.4829131999868,380.98279949999414,380.96661330002826,380.9757440999965,380.98279949999414,380.98279949999414,380.98279949999414,384.3833784000017,Objects\123a.jpg,post,o,3.384238999977242,None,,,,,,,,00034,001,2026-01-22_17h48.05.945,MST_test,2024.2.0,59.931809577147284,2026-01-22 17h48.12.444023 +0530,
110,0,111,n,1.1930709999869578,None,111,0,110,384.3994824999827,,,,,,,,,,,,,,,,,,,,,,,,,,,,,,,,,,,,,,,,,,,,,,,,,,384.38372749998234,384.3994824999827,384.9184566999902,384.8831695999834,384.91609620000236,384.9184566999902,384.9184566999902,384.9184566999902,386.11661460000323,Foils\033a.jpg,none,n,1.1930709999869578,None,,,,,,,,00034,001,2026-01-22_17h48.05.945,MST_test,2024.2.0,59.931809577147284,2026-01-22 17h48.12.444023 +0530,
111,0,112,o,1.1906614000326954,None,112,0,111,386.13274480000837,,,,,,,,,,,,,,,,,,,,,,,,,,,,,,,,,,,,,,,,,,,,,,,,,,386.116958300001,386.13274480000837,386.63299090001965,386.61675839999225,386.6247221000376,386.63299090001965,386.63299090001965,386.63299090001965,387.833527699986,Objects\132a.jpg,pre,o,1.1906614000326954,None,,,,,,,,00034,001,2026-01-22_17h48.05.945,MST_test,2024.2.0,59.931809577147284,2026-01-22 17h48.12.444023 +0530,
112,0,113,o,1.4722279999987222,None,113,0,112,387.84949849999975,,,,,,,,,,,,,,,,,,,,,,,,,,,,,,,,,,,,,,,,,,,,,,,,,,387.83387189998757,387.84949849999975,388.391441499989,388.333315099997,388.38851780002005,388.391441499989,388.391441499989,388.391441499989,389.8667930000229,Scenes\062b.jpg,mid,o,1.4722279999987222,None,,,,,,,,00034,001,2026-01-22_17h48.05.945,MST_test,2024.2.0,59.931809577147284,2026-01-22 17h48.12.444023 +0530,
113,0,114,n,1.22229210002115,None,114,0,113,389.8828744000057,,,,,,,,,,,,,,,,,,,,,,,,,,,,,,,,,,,,,,,,,,,,,,,,,,389.8671360000153,389.8828744000057,390.3930666000233,390.3665444999933,390.3908521999838,390.3930666000233,390.3930666000233,390.3930666000233,391.61663990002126,Foils\scenes14.jpg,none,n,1.22229210002115,None,,,,,,,,00034,001,2026-01-22_17h48.05.945,MST_test,2024.2.0,59.931809577147284,2026-01-22 17h48.12.444023 +0530,
114,0,115,o,1.4017471999977715,None,115,0,114,391.6326734999893,,,,,,,,,,,,,,,,,,,,,,,,,,,,,,,,,,,,,,,,,,,,,,,,,,391.61699000000954,391.6326734999893,392.13318860001164,392.1165686000022,392.1239886999829,392.13318860001164,392.13318860001164,392.13318860001164,393.5505404000287,Scenes\053a.jpg,pre,o,1.4017471999977715,None,,,,,,,,00034,001,2026-01-22_17h48.05.945,MST_test,2024.2.0,59.931809577147284,2026-01-22 17h48.12.444023 +0530,
115,0,116,o,1.0212982000084594,None,116,0,115,393.56591450003907,,,,,,,,,,,,,,,,,,,,,,,,,,,,,,,,,,,,,,,,,,,,,,,,,,393.5509178999928,393.56591450003907,394.06640120001975,394.0499407000025,394.05808129999787,394.06640120001975,394.06640120001975,394.06640120001975,395.1001775999903,Objects\089a.jpg,mid,o,1.0212982000084594,None,,,,,,,,00034,001,2026-01-22_17h48.05.945,MST_test,2024.2.0,59.931809577147284,2026-01-22 17h48.12.444023 +0530,
116,0,117,s,1.8685617999872193,None,117,0,116,395.11614260001807,,,,,,,,,,,,,,,,,,,,,,,,,,,,,,,,,,,,,,,,,,,,,,,,,,395.10052620002534,395.11614260001807,,395.6004031000193,395.6400212000008,395.64250010001706,395.64250010001706,395.64250010001706,397.5166026999941,Scenes\187b.jpg,mid,s,1.8685617999872193,None,,,,,,,,00034,001,2026-01-22_17h48.05.945,MST_test,2024.2.0,59.931809577147284,2026-01-22 17h48.12.444023 +0530,
117,0,118,s,2.0451890000258572,None,118,0,117,397.53252950002206,,,,,,,,,,,,,,,,,,,,,,,,,,,,,,,,,,,,,,,,,,,,,,,,,,397.51696590002393,397.53252950002206,398.0338813000126,398.016476800025,398.0313449000241,398.0338813000126,398.0338813000126,398.0338813000126,400.08353230002103,Scenes\112a.jpg,mid,s,2.0451890000258572,None,,,,,,,,00034,001,2026-01-22_17h48.05.945,MST_test,2024.2.0,59.931809577147284,2026-01-22 17h48.12.444023 +0530,
118,0,119,s,1.2155237999977544,None,119,0,118,400.0995583999902,,,,,,,,,,,,,,,,,,,,,,,,,,,,,,,,,,,,,,,,,,,,,,,,,,400.08388900000136,400.0995583999902,400.60008060000837,400.58332610002253,400.59150340000633,400.60008060000837,400.60008060000837,400.60008060000837,401.81702990003396,Foils\scenes20.jpg,none,s,1.2155237999977544,None,,,,,,,,00034,001,2026-01-22_17h48.05.945,MST_test,2024.2.0,59.931809577147284,2026-01-22 17h48.12.444023 +0530,
119,0,120,s,1.2823561999830417,None,120,0,119,401.83291490003467,,,,,,,,,,,,,,,,,,,,,,,,,,,,,,,,,,,,,,,,,,,,,,,,,,401.81740300002275,401.83291490003467,402.3332398000057,402.3162497000303,402.32770989998244,402.3332398000057,402.3332398000057,402.3332398000057,403.61707460001344,Scenes\139a.jpg,post,s,1.2823561999830417,None,,,,,,,,00034,001,2026-01-22_17h48.05.945,MST_test,2024.2.0,59.931809577147284,2026-01-22 17h48.12.444023 +0530,
120,0,121,o,0.9704023000085726,None,121,0,120,403.6329093000386,,,,,,,,,,,,,,,,,,,,,,,,,,,,,,,,,,,,,,,,,,,,,,,,,,403.6174309999915,403.6329093000386,404.13322010001866,404.1165458000032,404.1303222000133,404.13322010001866,404.13322010001866,404.13322010001866,405.1167762000114,Scenes\129a.jpg,pre,o,0.9704023000085726,None,,,,,,,,00034,001,2026-01-22_17h48.05.945,MST_test,2024.2.0,59.931809577147284,2026-01-22 17h48.12.444023 +0530,
121,0,122,s,1.019930900016334,None,122,0,121,405.13322920002975,,,,,,,,,,,,,,,,,,,,,,,,,,,,,,,,,,,,,,,,,,,,,,,,,,405.1171226000297,405.13322920002975,405.66708510002354,405.61707430001115,405.6645010000211,405.66708510002354,405.66708510002354,405.66708510002354,406.69970060000196,Foils\049a.jpg,none,s,1.019930900016334,None,,,,,,,,00034,001,2026-01-22_17h48.05.945,MST_test,2024.2.0,59.931809577147284,2026-01-22 17h48.12.444023 +0530,
122,0,123,o,0.9925625000032596,None,123,0,122,406.71608290000586,,,,,,,,,,,,,,,,,,,,,,,,,,,,,,,,,,,,,,,,,,,,,,,,,,406.69989960000385,406.71608290000586,,407.1998597999918,407.22882550000213,407.2311050000135,407.2311050000135,407.2311050000135,408.2334251999855,Objects\008b.jpg,pre,o,0.9925625000032596,None,,,,,,,,00034,001,2026-01-22_17h48.05.945,MST_test,2024.2.0,59.931809577147284,2026-01-22 17h48.12.444023 +0530,
123,0,124,o,1.9134997999644838,None,124,0,123,408.2495498000062,,,,,,,,,,,,,,,,,,,,,,,,,,,,,,,,,,,,,,,,,,,,,,,,,,408.23383049998665,408.2495498000062,408.74977450002916,408.73320960003184,408.74143190000905,408.74977450002916,408.74977450002916,408.74977450002916,410.6665781000047,Objects\020a.jpg,post,o,1.9134997999644838,None,,,,,,,,00034,001,2026-01-22_17h48.05.945,MST_test,2024.2.0,59.931809577147284,2026-01-22 17h48.12.444023 +0530,
124,0,125,n,1.9286322999978438,None,125,0,124,410.6828191000386,,,,,,,,,,,,,,,,,,,,,,,,,,,,,,,,,,,,,,,,,,,,,,,,,,410.6669554000255,410.6828191000386,411.1830207000021,411.16660100000445,411.1741067999974,411.1830207000021,411.1830207000021,411.1830207000021,413.11689200002,Foils\074a.jpg,none,n,1.9286322999978438,None,,,,,,,,00034,001,2026-01-22_17h48.05.945,MST_test,2024.2.0,59.931809577147284,2026-01-22 17h48.12.444023 +0530,
125,0,126,o,1.291302600002382,None,126,0,125,413.1328258999856,,,,,,,,,,,,,,,,,,,,,,,,,,,,,,,,,,,,,,,,,,,,,,,,,,413.1172682000324,413.1328258999856,413.63641720003216,413.61662929999875,413.6340346999932,413.63641720003216,413.63641720003216,413.63641720003216,414.9334882000112,Scenes\103a.jpg,post,o,1.291302600002382,None,,,,,,,,00034,001,2026-01-22_17h48.05.945,MST_test,2024.2.0,59.931809577147284,2026-01-22 17h48.12.444023 +0530,
126,0,127,s,1.9251359999761917,None,127,0,126,414.9495617999928,,,,,,,,,,,,,,,,,,,,,,,,,,,,,,,,,,,,,,,,,,,,,,,,,,414.93383400002494,414.9495617999928,415.4499571000342,415.4331992000225,415.4420031000045,415.4499571000342,415.4499571000342,415.4499571000342,417.3834883000236,Objects\023b.jpg,pre,s,1.9251359999761917,None,,,,,,,,00034,001,2026-01-22_17h48.05.945,MST_test,2024.2.0,59.931809577147284,2026-01-22 17h48.12.444023 +0530,
127,0,128,o,2.199344399967231,None,128,0,127,417.3995597999892,,,,,,,,,,,,,,,,,,,,,,,,,,,,,,,,,,,,,,,,,,,,,,,,,,417.3838962999871,417.3995597999892,417.92800539999735,417.88323750003474,417.92520749999676,417.92800539999735,417.92800539999735,417.92800539999735,420.13348630000837,Scenes\004b.jpg,mid,o,2.199344399967231,None,,,,,,,,00034,001,2026-01-22_17h48.05.945,MST_test,2024.2.0,59.931809577147284,2026-01-22 17h48.12.444023 +0530,
128,0,129,o,0.8450715999933891,None,129,0,128,420.1495678999927,,,,,,,,,,,,,,,,,,,,,,,,,,,,,,,,,,,,,,,,,,,,,,,,,,420.1338570000371,420.1495678999927,420.649941199983,420.6331907000276,420.64236920000985,420.649941199983,420.649941199983,420.649941199983,421.50090700003784,Objects\036a.jpg,mid,o,0.8450715999933891,None,,,,,,,,00034,001,2026-01-22_17h48.05.945,MST_test,2024.2.0,59.931809577147284,2026-01-22 17h48.12.444023 +0530,
129,0,130,o,0.878956200031098,None,130,0,129,421.51601970003685,,,,,,,,,,,,,,,,,,,,,,,,,,,,,,,,,,,,,,,,,,,,,,,,,,421.50126739998814,421.51601970003685,422.01631879998604,421.99983610003255,422.00779920001514,422.01631879998604,422.01631879998604,422.01631879998604,422.90019720001146,Objects\057a.jpg,post,o,0.878956200031098,None,,,,,,,,00034,001,2026-01-22_17h48.05.945,MST_test,2024.2.0,59.931809577147284,2026-01-22 17h48.12.444023 +0530,
130,0,131,o,0.7185565000399947,None,131,0,130,422.9162103999988,,,,,,,,,,,,,,,,,,,,,,,,,,,,,,,,,,,,,,,,,,,,,,,,,,422.90054310002597,422.9162103999988,423.41645459999563,423.3999563000398,423.40783919999376,423.41645459999563,423.41645459999563,423.41645459999563,424.15006499999436,Objects\055a.jpg,mid,o,0.7185565000399947,None,,,,,,,,00034,001,2026-01-22_17h48.05.945,MST_test,2024.2.0,59.931809577147284,2026-01-22 17h48.12.444023 +0530,
131,0,132,s,1.9736463999724947,None,132,0,131,424.1660767000285,,,,,,,,,,,,,,,,,,,,,,,,,,,,,,,,,,,,,,,,,,,,,,,,,,424.15041300002486,424.1660767000285,424.6820102999918,424.6496771000093,424.6799624999985,424.6820102999918,424.6820102999918,424.6820102999918,426.66688249999424,Objects\137b.jpg,post,s,1.9736463999724947,None,,,,,,,,00034,001,2026-01-22_17h48.05.945,MST_test,2024.2.0,59.931809577147284,2026-01-22 17h48.12.444023 +0530,
132,0,133,o,1.0789755000150762,None,133,0,132,426.68294010002865,,,,,,,,,,,,,,,,,,,,,,,,,,,,,,,,,,,,,,,,,,,,,,,,,,426.6672317000339,426.68294010002865,427.18473560002167,427.1662674000254,427.18243119999534,427.18473560002167,427.18473560002167,427.18473560002167,428.2665325999842,Scenes\021a.jpg,mid,o,1.0789755000150762,None,,,,,,,,00034,001,2026-01-22_17h48.05.945,MST_test,2024.2.0,59.931809577147284,2026-01-22 17h48.12.444023 +0530,
133,0,134,n,2.33497670001816,None,134,0,133,428.2827335000038,,,,,,,,,,,,,,,,,,,,,,,,,,,,,,,,,,,,,,,,,,,,,,,,,,428.266876699985,428.2827335000038,428.7841020000051,428.7663568999851,428.78144829999655,428.7841020000051,428.7841020000051,428.7841020000051,431.1336122000357,Scenes\055a.jpg,mid,n,2.33497670001816,None,,,,,,,,00034,001,2026-01-22_17h48.05.945,MST_test,2024.2.0,59.931809577147284,2026-01-22 17h48.12.444023 +0530,
134,0,135,s,1.3172271000221372,None,135,0,134,431.1496047999826,,,,,,,,,,,,,,,,,,,,,,,,,,,,,,,,,,,,,,,,,,,,,,,,,,431.13400610000826,431.1496047999826,431.64991730003385,431.6330198000069,431.6416723000002,431.64991730003385,431.64991730003385,431.64991730003385,432.9834417999955,Objects\184b.jpg,post,s,1.3172271000221372,None,,,,,,,,00034,001,2026-01-22_17h48.05.945,MST_test,2024.2.0,59.931809577147284,2026-01-22 17h48.12.444023 +0530,
135,0,136,o,1.1048314999789,None,136,0,135,432.99955250002677,,,,,,,,,,,,,,,,,,,,,,,,,,,,,,,,,,,,,,,,,,,,,,,,,,432.98378650000086,432.99955250002677,433.5023656000267,433.48321700003,433.499868599989,433.5023656000267,433.5023656000267,433.5023656000267,434.61674750002567,Scenes\011b.jpg,mid,o,1.1048314999789,None,,,,,,,,00034,001,2026-01-22_17h48.05.945,MST_test,2024.2.0,59.931809577147284,2026-01-22 17h48.12.444023 +0530,
136,0,137,o,0.8416538999881595,None,137,0,136,434.63282810000237,,,,,,,,,,,,,,,,,,,,,,,,,,,,,,,,,,,,,,,,,,,,,,,,,,434.61709300003713,434.63282810000237,435.1333882000181,435.1164928000071,435.124814699986,435.1333882000181,435.1333882000181,435.1333882000181,435.98348120000446,Objects\109a.jpg,mid,o,0.8416538999881595,None,,,,,,,,00034,001,2026-01-22_17h48.05.945,MST_test,2024.2.0,59.931809577147284,2026-01-22 17h48.12.444023 +0530,
137,0,138,o,0.82374439999694,None,138,0,137,435.99950929998886,,,,,,,,,,,,,,,,,,,,,,,,,,,,,,,,,,,,,,,,,,,,,,,,,,435.9838231999893,435.99950929998886,436.51943440001924,436.48315129999537,436.51709420001134,436.51943440001924,436.51943440001924,436.51943440001924,437.3500275000115,Objects\147b.jpg,pre,o,0.82374439999694,None,,,,,,,,00034,001,2026-01-22_17h48.05.945,MST_test,2024.2.0,59.931809577147284,2026-01-22 17h48.12.444023 +0530,
138,0,139,s,1.812074399960693,None,139,0,138,437.3660414000042,,,,,,,,,,,,,,,,,,,,,,,,,,,,,,,,,,,,,,,,,,,,,,,,,,437.3503922999953,437.3660414000042,437.88328740000725,437.84897069999715,437.88102199998684,437.88328740000725,437.88328740000725,437.88328740000725,439.7002591000055,Objects\063b.jpg,mid,s,1.812074399960693,None,,,,,,,,00034,001,2026-01-22_17h48.05.945,MST_test,2024.2.0,59.931809577147284,2026-01-22 17h48.12.444023 +0530,
139,0,140,s,2.2399799000122584,None,140,0,139,439.71622619999107,,,,,,,,,,,,,,,,,,,,,,,,,,,,,,,,,,,,,,,,,,,,,,,,,,439.70058290002635,439.71622619999107,440.46302740002284,440.1996819000342,440.45588309998857,440.46302740002284,440.46302740002284,440.46302740002284,442.7173384000198,Foils\scenes26.jpg,none,s,2.2399799000122584,None,,,,,,,,00034,001,2026-01-22_17h48.05.945,MST_test,2024.2.0,59.931809577147284,2026-01-22 17h48.12.444023 +0530,
140,0,141,n,1.0301732999505475,None,141,0,140,442.7326348000206,,,,,,,,,,,,,,,,,,,,,,,,,,,,,,,,,,,,,,,,,,,,,,,,,,442.71769040002255,442.7326348000206,443.2732965000323,443.2166157999891,443.2711159000173,443.2732965000323,443.2732965000323,443.2732965000323,444.3168295000214,Foils\101b.jpg,none,n,1.0301732999505475,None,,,,,,,,00034,001,2026-01-22_17h48.05.945,MST_test,2024.2.0,59.931809577147284,2026-01-22 17h48.12.444023 +0530,
141,0,142,n,1.0885921000153758,None,142,0,141,444.3328814000124,,,,,,,,,,,,,,,,,,,,,,,,,,,,,,,,,,,,,,,,,,,,,,,,,,444.3171771999914,444.3328814000124,444.84639610000886,444.8166435000021,444.8433640000294,444.84639610000886,444.84639610000886,444.84639610000886,445.9502221000148,Foils\scenes23.jpg,none,n,1.0885921000153758,None,,,,,,,,00034,001,2026-01-22_17h48.05.945,MST_test,2024.2.0,59.931809577147284,2026-01-22 17h48.12.444023 +0530,
142,0,143,s,1.5226967000053264,None,143,0,142,445.9658431999851,,,,,,,,,,,,,,,,,,,,,,,,,,,,,,,,,,,,,,,,,,,,,,,,,,445.9505694999825,445.9658431999851,446.5005019000382,446.4499559000251,446.49743280000985,446.5005019000382,446.5005019000382,446.5005019000382,448.0343359000399,Scenes\156b.jpg,mid,s,1.5226967000053264,None,,,,,,,,00034,001,2026-01-22_17h48.05.945,MST_test,2024.2.0,59.931809577147284,2026-01-22 17h48.12.444023 +0530,
143,0,144,o,1.1203116999822669,None,144,0,143,448.049419899995,,,,,,,,,,,,,,,,,,,,,,,,,,,,,,,,,,,,,,,,,,,,,,,,,,448.03468630003044,448.049419899995,448.5508706999826,448.5332270000363,448.5484356000088,448.5508706999826,448.5508706999826,448.5508706999826,449.683395,Scenes\027a.jpg,post,o,1.1203116999822669,None,,,,,,,,00034,001,2026-01-22_17h48.05.945,MST_test,2024.2.0,59.931809577147284,2026-01-22 17h48.12.444023 +0530,
144,0,145,s,4.518651399994269,None,145,0,144,449.6992992000305,,,,,,,,,,,,,,,,,,,,,,,,,,,,,,,,,,,,,,,,,,,,,,,,,,449.68373719998635,449.6992992000305,450.20050420000916,450.18322310002986,450.1969564000028,450.20050420000916,450.20050420000916,450.20050420000916,454.7335319999838,Scenes\042a.jpg,post,s,4.518651399994269,None,,,,,,,,00034,001,2026-01-22_17h48.05.945,MST_test,2024.2.0,59.931809577147284,2026-01-22 17h48.12.444023 +0530,
145,0,146,n,1.4112586999544874,None,146,0,145,454.7495755000273,,,,,,,,,,,,,,,,,,,,,,,,,,,,,,,,,,,,,,,,,,,,,,,,,,454.73398550000275,454.7495755000273,455.26836640003603,455.2332226000144,455.2659005000023,455.26836640003603,455.26836640003603,455.26836640003603,456.68330149998656,Objects\110b.jpg,post,n,1.4112586999544874,None,,,,,,,,00034,001,2026-01-22_17h48.05.945,MST_test,2024.2.0,59.931809577147284,2026-01-22 17h48.12.444023 +0530,
146,0,147,s,2.1825751999858767,None,147,0,146,456.7009061999852,,,,,,,,,,,,,,,,,,,,,,,,,,,,,,,,,,,,,,,,,,,,,,,,,,456.6836716000107,456.7009061999852,,457.19978680001805,457.2086360999965,457.2164458000334,457.2164458000334,457.2164458000334,459.4002646000008,Objects\124a.jpg,pre,s,2.1825751999858767,None,,,,,,,,00034,001,2026-01-22_17h48.05.945,MST_test,2024.2.0,59.931809577147284,2026-01-22 17h48.12.444023 +0530,
147,0,148,o,1.6509660000447184,None,148,0,147,459.4163228000398,,,,,,,,,,,,,,,,,,,,,,,,,,,,,,,,,,,,,,,,,,,,,,,,,,459.40061640000204,459.4163228000398,459.92431650002254,459.8999629000318,459.922430799983,459.92431650002254,459.92431650002254,459.92431650002254,461.5834232000052,Objects\094b.jpg,mid,o,1.6509660000447184,None,,,,,,,,00034,001,2026-01-22_17h48.05.945,MST_test,2024.2.0,59.931809577147284,2026-01-22 17h48.12.444023 +0530,
148,0,149,o,1.7992853000178002,None,149,0,148,461.5995633000275,,,,,,,,,,,,,,,,,,,,,,,,,,,,,,,,,,,,,,,,,,,,,,,,,,461.5838259999873,461.5995633000275,462.1283531000372,462.08321559999604,462.12595820002025,462.1283531000372,462.1283531000372,462.1283531000372,463.9334810000146,Scenes\101b.jpg,mid,o,1.7992853000178002,None,,,,,,,,00034,001,2026-01-22_17h48.05.945,MST_test,2024.2.0,59.931809577147284,2026-01-22 17h48.12.444023 +0530,
149,0,150,n,1.3228270999970846,None,150,0,149,463.9495753000374,,,,,,,,,,,,,,,,,,,,,,,,,,,,,,,,,,,,,,,,,,,,,,,,,,463.9338616000023,463.9495753000374,464.4843897999963,464.43378200003644,464.48030230001314,464.4843897999963,464.4843897999963,464.4843897999963,465.81697330001043,Foils\scenes15.jpg,none,n,1.3228270999970846,None,,,,,,,,00034,001,2026-01-22_17h48.05.945,MST_test,2024.2.0,59.931809577147284,2026-01-22 17h48.12.444023 +0530,
,,,,,,,,,,,,,,,,,,,,,,,,,,,,,,,,,,,,,,,,,,,,,,,,,,,,,,,,,,,,,,,,,,,,,,,,,465.81720769999083,465.8329190000077,465.8329190000077,468.38340980000794,space,2.533960900036618,None,00034,001,2026-01-22_17h48.05.945,MST_test,2024.2.0,59.931809577147284,2026-01-22 17h48.12.444023 +0530,
