Sl_no,image_path,thisN,thisTrialN,thisRepN,key_resp_5.keys,key_resp_5.rt,key_resp_5.duration,key_resp_7.keys,key_resp_7.rt,key_resp_7.duration,key_resp_9.keys,key_resp_9.rt,key_resp_9.duration,key_resp_8.keys,key_resp_8.rt,key_resp_8.duration,practice.thisRepN,practice.thisTrialN,practice.thisN,trials.thisRepN,trials.thisTrialN,trials.thisN,thisRow.t,notes,welcome_page.started,text.started,key_resp.started,welcome_page.stopped,key_resp.keys,key_resp.rt,key_resp.duration,instructions.started,ins.started,key_resp_2.started,instructions.stopped,key_resp_2.keys,key_resp_2.rt,key_resp_2.duration,objects_only_instruction.started,text_3.started,key_resp_3.started,objects_only_instruction.stopped,key_resp_3.keys,key_resp_3.rt,key_resp_3.duration,ISI.started,text_4.started,text_4.stopped,ISI.stopped,practice_block.started,image.started,text_5.started,key_resp_5.started,practice_block.stopped,practice.key_resp_5.keys,practice.key_resp_5.rt,practice.key_resp_5.duration,indoor_outdoor.started,indoor_outdoor.stopped,practice.key_resp_7.keys,image.stopped,text_5.stopped,key_resp_5.stopped,text_7.started,key_resp_7.started,practice.key_resp_7.rt,practice.key_resp_7.duration,practice_to_main.started,text_2.started,key_resp_4.started,practice_to_main.stopped,key_resp_4.keys,key_resp_4.rt,key_resp_4.duration,objects.started,image_2.started,text_9.started,key_resp_9.started,image_2.stopped,text_9.stopped,key_resp_9.stopped,objects.stopped,trials.key_resp_9.keys,trials.key_resp_9.rt,trials.key_resp_9.duration,encoding_task.started,encoding_task.stopped,trials.key_resp_8.keys,text_8.started,key_resp_8.started,trials.key_resp_8.rt,trials.key_resp_8.duration,end_experiment.started,text_6.started,key_resp_6.started,end_experiment.stopped,key_resp_6.keys,key_resp_6.rt,key_resp_6.duration,list_of_stimuli,encoding_task_accuracy,participant,session,date,expName,psychopyVersion,frameRate,expStart,
,,,,,,,,,,,,,,,,,,,,,,,,,0.0013998000067658722,0.0034980999771505594,0.0034980999771505594,11.430686699983198,space,11.417836499982513,None,,,,,,,,,,,,,,,,,,,,,,,,,,,,,,,,,,,,,,,,,,,,,,,,,,,,,,,,,,,,,,,,,,,,,,,00047,001,2026-01-24_14h59.12.126,MST_task,2024.2.0,60.13670275049041,2026-01-24 14h59.23.742091 +0530,
,,,,,,,,,,,,,,,,,,,,,,,,,,,,,,,,11.430731499975082,11.44439770001918,11.44439770001918,44.3592560000252,space,32.91333449998638,None,,,,,,,,,,,,,,,,,,,,,,,,,,,,,,,,,,,,,,,,,,,,,,,,,,,,,,,,,,,,,,,,00047,001,2026-01-24_14h59.12.126,MST_task,2024.2.0,60.13670275049041,2026-01-24 14h59.23.742091 +0530,
,,,,,,,,,,,,,,,,,,,,,,,,,,,,,,,,,,,,,,,44.359293700021226,44.37605199997779,44.37605199997779,82.79198370000813,space,38.41385900002206,None,,,,,,,,,,,,,,,,,,,,,,,,,,,,,,,,,,,,,,,,,,,,,,,,,,,,,,,,,00047,001,2026-01-24_14h59.12.126,MST_task,2024.2.0,60.13670275049041,2026-01-24 14h59.23.742091 +0530,
9,practice_images/180a.jpg,0,0,1,f,2.025578700006008,0.15192890004254878,None,,,,,,,,,1,0,0,,,,82.80794660001993,,,,,,,,,,,,,,,,,,,,,,,82.79777599999215,82.80794660001993,83.31560279999394,83.29148640000494,83.30174540000735,83.31560279999394,83.31560279999394,83.31560279999394,86.30828240001574,f,2.025578700006008,0.15192890004254878,86.31105239997851,86.31107840000186,None,,,,,,,,,,,,,,,,,,,,,,,,,,,,,,,,,,,,,,,,,,00047,001,2026-01-24_14h59.12.126,MST_task,2024.2.0,60.13670275049041,2026-01-24 14h59.23.742091 +0530,
5,practice_images/139a.jpg,1,1,1,j,2.340331200044602,0.15259620000142604,None,,,,,,,,,1,1,1,,,,86.32444060000125,,,,,,,,,,,,,,,,,,,,,,,86.31116390001262,86.32444060000125,86.8246943000122,86.80865090002771,86.81105620000744,86.8246943000122,86.8246943000122,86.8246943000122,89.80888680001954,j,2.340331200044602,0.15259620000142604,89.80896190000931,89.80897980002919,None,89.82470270001795,89.82470270001795,89.82470270001795,,,,,,,,,,,,,,,,,,,,,,,,,,,,,,,,,,,,,,,00047,001,2026-01-24_14h59.12.126,MST_task,2024.2.0,60.13670275049041,2026-01-24 14h59.23.742091 +0530,
8,practice_images/178a.jpg,2,2,1,f,2.3454138999804854,0.1999721000320278,None,,,,,,,,,1,2,2,,,,89.82470270001795,,,,,,,,,,,,,,,,,,,,,,,89.80906499997946,89.82470270001795,90.32448960002512,90.30905600002734,90.31123569997726,90.32448960002512,90.32448960002512,90.32448960002512,93.30862510000588,f,2.3454138999804854,0.1999721000320278,93.30869869998423,93.30871650000336,None,93.3245494000148,93.3245494000148,93.3245494000148,,,,,,,,,,,,,,,,,,,,,,,,,,,,,,,,,,,,,,,00047,001,2026-01-24_14h59.12.126,MST_task,2024.2.0,60.13670275049041,2026-01-24 14h59.23.742091 +0530,
6,practice_images/158a.jpg,3,3,1,j,1.1172013999894261,0.15116919996216893,None,,,,,,,,,1,3,3,,,,93.3245494000148,,,,,,,,,,,,,,,,,,,,,,,93.30879330000607,93.3245494000148,93.8250705000246,93.80904570000712,93.81152400001884,93.8250705000246,93.8250705000246,93.8250705000246,96.80899759999011,j,1.1172013999894261,0.15116919996216893,96.80906900000991,96.80908660002751,None,96.8245719000115,96.8245719000115,96.8245719000115,,,,,,,,,,,,,,,,,,,,,,,,,,,,,,,,,,,,,,,00047,001,2026-01-24_14h59.12.126,MST_task,2024.2.0,60.13670275049041,2026-01-24 14h59.23.742091 +0530,
3,practice_images/037a.jpg,4,4,1,f,1.3522311999695376,0.20799830002943054,None,,,,,,,,,1,4,4,,,,96.8245719000115,,,,,,,,,,,,,,,,,,,,,,,96.80917050002608,96.8245719000115,97.32535980001558,97.30849690001924,97.3105298000155,97.32535980001558,97.32535980001558,97.32535980001558,100.30889460002072,f,1.3522311999695376,0.20799830002943054,100.30896569998004,100.3089833999984,None,100.32504239998525,100.32504239998525,100.32504239998525,,,,,,,,,,,,,,,,,,,,,,,,,,,,,,,,,,,,,,,00047,001,2026-01-24_14h59.12.126,MST_task,2024.2.0,60.13670275049041,2026-01-24 14h59.23.742091 +0530,
2,practice_images/031a.jpg,5,5,1,f,1.3084455000353046,0.17686069995397702,None,,,,,,,,,1,5,5,,,,100.32504239998525,,,,,,,,,,,,,,,,,,,,,,,100.30907630000729,100.32504239998525,100.8246353000286,100.80852870002855,100.81074909999734,100.8246353000286,100.8246353000286,100.8246353000286,103.8088499000296,f,1.3084455000353046,0.17686069995397702,103.80892560002394,103.8089477000176,None,103.82442660001107,103.82442660001107,103.82442660001107,,,,,,,,,,,,,,,,,,,,,,,,,,,,,,,,,,,,,,,00047,001,2026-01-24_14h59.12.126,MST_task,2024.2.0,60.13670275049041,2026-01-24 14h59.23.742091 +0530,
1,practice_images/013a.jpg,6,6,1,j,2.240757600055076,0.15152419998776168,None,,,,,,,,,1,6,6,,,,103.82442660001107,,,,,,,,,,,,,,,,,,,,,,,103.80903499998385,103.82442660001107,104.32471900002565,104.30848270002753,104.31063840002753,104.32471900002565,104.32471900002565,104.32471900002565,107.3086649000179,j,2.240757600055076,0.15152419998776168,107.30873829999473,107.30875640001614,None,107.32457529997919,107.32457529997919,107.32457529997919,,,,,,,,,,,,,,,,,,,,,,,,,,,,,,,,,,,,,,,00047,001,2026-01-24_14h59.12.126,MST_task,2024.2.0,60.13670275049041,2026-01-24 14h59.23.742091 +0530,
10,practice_images/182a.jpg,7,7,1,f,1.1248337000142783,0.1680709999636747,None,,,,,,,,,1,7,7,,,,107.32457529997919,,,,,,,,,,,,,,,,,,,,,,,107.30884519999381,107.32457529997919,107.82473290001508,107.80830550001701,107.81042440002784,107.82473290001508,107.82473290001508,107.82473290001508,110.80855060002068,f,1.1248337000142783,0.1680709999636747,110.80860859999666,110.80862830003025,None,110.82430139998905,110.82430139998905,110.82430139998905,,,,,,,,,,,,,,,,,,,,,,,,,,,,,,,,,,,,,,,00047,001,2026-01-24_14h59.12.126,MST_task,2024.2.0,60.13670275049041,2026-01-24 14h59.23.742091 +0530,
4,practice_images/002b.jpg,8,8,1,None,,,f,2.224252499989234,None,,,,,,,1,8,8,,,,110.82430139998905,,,,,,,,,,,,,,,,,,,,,,,110.80869949999033,110.82430139998905,111.32483860000502,111.30845680000493,111.31080039998051,111.32483860000502,111.32483860000502,111.32483860000502,114.30834799999138,None,,,114.30841430003056,116.55960430001142,f,114.32494580000639,114.32494580000639,114.32494580000639,114.32494580000639,114.32494580000639,2.224252499989234,None,,,,,,,,,,,,,,,,,,,,,,,,,,,,,,,,,,,00047,001,2026-01-24_14h59.12.126,MST_task,2024.2.0,60.13670275049041,2026-01-24 14h59.23.742091 +0530,
7,practice_images/166a.jpg,9,9,1,f,1.730241399956867,0.15196250000735745,None,,,,,,,,,1,9,9,,,,116.5746035000193,,,,,,,,,,,,,,,,,,,,,,,116.55971350002801,116.5746035000193,117.07482560002245,117.05830480001168,117.06074570002966,117.07482560002245,117.07482560002245,117.07482560002245,120.05871120002121,f,1.730241399956867,0.15196250000735745,120.0587750999839,120.05879199999617,None,120.0752063000109,120.0752063000109,120.0752063000109,,,,,,,,,,,,,,,,,,,,,,,,,,,,,,,,,,,,,,,00047,001,2026-01-24_14h59.12.126,MST_task,2024.2.0,60.13670275049041,2026-01-24 14h59.23.742091 +0530,
,,,,,,,,,,,,,,,,,,,,,,,,,,,,,,,,,,,,,,,,,,,,,,,,,,,,,,,,,,,,,,,,,,,,120.05885319999652,120.0752063000109,120.0752063000109,145.12530539999716,space,25.041778700018767,None,,,,,,,,,,,,,,,,,,,,,,,,,,,,00047,001,2026-01-24_14h59.12.126,MST_task,2024.2.0,60.13670275049041,2026-01-24 14h59.23.742091 +0530,
,Objects\165a.jpg,0,0,1,,,,,,,f,1.3312270999886096,0.16811350005446002,None,,,,,,1,0,0,145.14166850002948,,,,,,,,,,,,,,,,,,,,,,,145.12606989999767,145.14166850002948,145.64200900000287,145.6247943000053,,,,,,,,,,,,,,,,,,,,,,,,,,145.63844090001658,145.64200900000287,145.64200900000287,145.64200900000287,148.64191230002325,148.64191230002325,148.64191230002325,148.62582940002903,f,1.3312270999886096,0.16811350005446002,148.62780030001886,148.62782230001176,None,,,,,,,,,,,,,,00047,001,2026-01-24_14h59.12.126,MST_task,2024.2.0,60.13670275049041,2026-01-24 14h59.23.742091 +0530,
,Objects\150a.jpg,1,0,2,,,,,,,f,2.1442700000479817,0.20007379999151453,None,,,,,,2,0,1,148.64191230002325,,,,,,,,,,,,,,,,,,,,,,,148.6279274999979,148.64191230002325,149.14126160001615,149.12541310000233,,,,,,,,,,,,,,,,,,,,,,,,,,149.13623190001817,149.14126160001615,149.14126160001615,149.14126160001615,152.14110479998635,152.14110479998635,152.14110479998635,152.12521720002405,f,2.1442700000479817,0.20007379999151453,152.12528079998447,152.12529430002905,None,,,,,,,,,,,,,,00047,001,2026-01-24_14h59.12.126,MST_task,2024.2.0,60.13670275049041,2026-01-24 14h59.23.742091 +0530,
,Objects\063a.jpg,2,0,3,,,,,,,None,,,f,1.0687039000331424,None,,,,3,0,2,152.14110479998635,,,,,,,,,,,,,,,,,,,,,,,152.12536770000588,152.14110479998635,152.6419629000011,152.62565140001243,,,,,,,,,,,,,,,,,,,,,,,,,,152.62955309997778,152.6419629000011,152.6419629000011,152.6419629000011,155.6411934000207,155.6411934000207,155.6411934000207,155.62562140001683,None,,,155.6256903000176,156.72490179998567,f,155.6411934000207,155.6411934000207,1.0687039000331424,None,,,,,,,,,,00047,001,2026-01-24_14h59.12.126,MST_task,2024.2.0,60.13670275049041,2026-01-24 14h59.23.742091 +0530,
,Objects\131a.jpg,3,0,4,,,,,,,f,2.65249439998297,0.17605080001521856,None,,,,,,4,0,3,156.74170279997634,,,,,,,,,,,,,,,,,,,,,,,156.72504639998078,156.74170279997634,157.2412807000219,157.2247089999728,,,,,,,,,,,,,,,,,,,,,,,,,,157.2291790000163,157.2412807000219,157.2412807000219,157.2412807000219,160.24164840002777,160.24164840002777,160.24164840002777,160.22542740002973,f,2.65249439998297,0.17605080001521856,160.22550090000732,160.2255154000013,None,,,,,,,,,,,,,,00047,001,2026-01-24_14h59.12.126,MST_task,2024.2.0,60.13670275049041,2026-01-24 14h59.23.742091 +0530,
,Objects\115a.jpg,4,0,5,,,,,,,j,1.7112599999527447,0.13618500001030043,None,,,,,,5,0,4,160.24164840002777,,,,,,,,,,,,,,,,,,,,,,,160.22559550002916,160.24164840002777,160.74163659999613,160.72464650002075,,,,,,,,,,,,,,,,,,,,,,,,,,160.72825759998523,160.74163659999613,160.74163659999613,160.74163659999613,163.74177760002203,163.74177760002203,163.74177760002203,163.72518309997395,j,1.7112599999527447,0.13618500001030043,163.7252545999945,163.72526789997937,None,,,,,,,,,,,,,,00047,001,2026-01-24_14h59.12.126,MST_task,2024.2.0,60.13670275049041,2026-01-24 14h59.23.742091 +0530,
,Objects\107a.jpg,5,0,6,,,,,,,f,1.555471799976658,0.18407050002133474,None,,,,,,6,0,5,163.74177760002203,,,,,,,,,,,,,,,,,,,,,,,163.72536679997575,163.74177760002203,164.24173710000468,164.22466479998548,,,,,,,,,,,,,,,,,,,,,,,,,,164.22848500002874,164.24173710000468,164.24173710000468,164.24173710000468,167.241227600025,167.241227600025,167.241227600025,167.22593110002344,f,1.555471799976658,0.18407050002133474,167.22600000002421,167.22602599998936,None,,,,,,,,,,,,,,00047,001,2026-01-24_14h59.12.126,MST_task,2024.2.0,60.13670275049041,2026-01-24 14h59.23.742091 +0530,
,Objects\042a.jpg,6,0,7,,,,,,,f,1.576446900027804,0.19238109997240826,None,,,,,,7,0,6,167.241227600025,,,,,,,,,,,,,,,,,,,,,,,167.22613830002956,167.241227600025,167.7413139999844,167.7249765000306,,,,,,,,,,,,,,,,,,,,,,,,,,167.7358944999869,167.7413139999844,167.7413139999844,167.7413139999844,170.74165109999012,170.74165109999012,170.74165109999012,170.72517799999332,f,1.576446900027804,0.19238109997240826,170.72524860000703,170.7252642000094,None,,,,,,,,,,,,,,00047,001,2026-01-24_14h59.12.126,MST_task,2024.2.0,60.13670275049041,2026-01-24 14h59.23.742091 +0530,
,Scenes\076a.jpg,7,0,8,,,,,,,j,1.3832166999927722,0.19196090003242716,None,,,,,,8,0,7,170.74165109999012,,,,,,,,,,,,,,,,,,,,,,,170.72534770000493,170.74165109999012,171.25422980001895,171.22529019997455,,,,,,,,,,,,,,,,,,,,,,,,,,171.2514190999791,171.25422980001895,171.25422980001895,171.25422980001895,,,,174.2417419999838,j,1.3832166999927722,0.19196090003242716,174.24186629999895,174.2418905000086,None,,,,,,,,,,,,,,00047,001,2026-01-24_14h59.12.126,MST_task,2024.2.0,60.13670275049041,2026-01-24 14h59.23.742091 +0530,
,Scenes\059a.jpg,8,0,9,,,,,,,j,2.6470193000277504,0.1920232999837026,None,,,,,,9,0,8,174.25810209999327,,,,,,,,,,,,,,,,,,,,,,,174.24203010002384,174.25810209999327,174.75835770001868,174.74157439998817,,,,,,,,,,,,,,,,,,,,,,,,,,174.75399840000318,174.75835770001868,174.75835770001868,174.75835770001868,,,,177.74216169997817,j,2.6470193000277504,0.1920232999837026,177.7422517000232,177.74227220000466,None,,,,,,,,,,,,,,00047,001,2026-01-24_14h59.12.126,MST_task,2024.2.0,60.13670275049041,2026-01-24 14h59.23.742091 +0530,
,Scenes\032a.jpg,9,0,10,,,,,,,j,2.5217373999767005,0.19198480003979057,None,,,,,,10,0,9,177.75811250001425,,,,,,,,,,,,,,,,,,,,,,,177.7424001999898,177.75811250001425,178.25962040002923,178.24205990001792,,,,,,,,,,,,,,,,,,,,,,,,,,178.25682120001875,178.25962040002923,178.25962040002923,178.25962040002923,,,,181.25850220001303,j,2.5217373999767005,0.19198480003979057,181.25858109997353,181.2585976999835,None,,,,,,,,,,,,,,00047,001,2026-01-24_14h59.12.126,MST_task,2024.2.0,60.13670275049041,2026-01-24 14h59.23.742091 +0530,
,Scenes\163a.jpg,10,0,11,,,,,,,j,1.1906560999923386,0.16796220000833273,None,,,,,,11,0,10,181.27449999999953,,,,,,,,,,,,,,,,,,,,,,,181.25869470002363,181.27449999999953,181.77509710000595,181.7584730000235,,,,,,,,,,,,,,,,,,,,,,,,,,181.766630899976,181.77509710000595,181.77509710000595,181.77509710000595,184.77468229999067,184.77468229999067,184.77468229999067,184.7591166999773,j,1.1906560999923386,0.16796220000833273,184.7591865999857,184.75920119998045,None,,,,,,,,,,,,,,00047,001,2026-01-24_14h59.12.126,MST_task,2024.2.0,60.13670275049041,2026-01-24 14h59.23.742091 +0530,
,Scenes\134a.jpg,11,0,12,,,,,,,j,2.2267261000233702,0.1763552000047639,None,,,,,,12,0,11,184.77468229999067,,,,,,,,,,,,,,,,,,,,,,,184.75931480003055,184.77468229999067,185.27470050001284,185.25822910002898,,,,,,,,,,,,,,,,,,,,,,,,,,185.27020490000723,185.27470050001284,185.27470050001284,185.27470050001284,188.27434730000095,188.27434730000095,188.27434730000095,188.25910989998374,j,2.2267261000233702,0.1763552000047639,188.25919200002681,188.2592073000269,None,,,,,,,,,,,,,,00047,001,2026-01-24_14h59.12.126,MST_task,2024.2.0,60.13670275049041,2026-01-24 14h59.23.742091 +0530,
,Scenes\044a.jpg,12,0,13,,,,,,,None,,,f,0.8535046000033617,None,,,,13,0,12,188.27434730000095,,,,,,,,,,,,,,,,,,,,,,,188.25932110002032,188.27434730000095,188.77914619998774,188.75878470001044,,,,,,,,,,,,,,,,,,,,,,,,,,188.7761629000306,188.77914619998774,188.77914619998774,188.77914619998774,,,,191.77471409999998,None,,,191.77480339998147,192.65866070002085,f,191.79187750001438,191.79187750001438,0.8535046000033617,None,,,,,,,,,,00047,001,2026-01-24_14h59.12.126,MST_task,2024.2.0,60.13670275049041,2026-01-24 14h59.23.742091 +0530,
,Scenes\035a.jpg,13,0,14,,,,,,,j,2.9022779000224546,None,None,,,,,,14,0,13,192.67424429999664,,,,,,,,,,,,,,,,,,,,,,,192.65875900001265,192.67424429999664,193.17483400000492,193.15818520000903,,,,,,,,,,,,,,,,,,,,,,,,,,193.16948949999642,193.17483400000492,193.17483400000492,193.17483400000492,196.17437189997872,196.17437189997872,196.17437189997872,196.15876239998033,j,2.9022779000224546,None,196.1588378000306,196.15885369997704,None,,,,,,,,,,,,,,00047,001,2026-01-24_14h59.12.126,MST_task,2024.2.0,60.13670275049041,2026-01-24 14h59.23.742091 +0530,
,Objects\023a.jpg,14,0,15,,,,,,,f,1.0270293000503443,0.16719359997659922,None,,,,,,15,0,14,196.17437189997872,,,,,,,,,,,,,,,,,,,,,,,196.15893899998628,196.17437189997872,196.6747417000006,196.65880289999768,,,,,,,,,,,,,,,,,,,,,,,,,,196.66606359998696,196.6747417000006,196.6747417000006,196.6747417000006,199.6746742000105,199.6746742000105,199.6746742000105,199.65918820002116,f,1.0270293000503443,0.16719359997659922,199.65925580001203,199.65927230002126,None,,,,,,,,,,,,,,00047,001,2026-01-24_14h59.12.126,MST_task,2024.2.0,60.13670275049041,2026-01-24 14h59.23.742091 +0530,
,Objects\020a.jpg,15,0,16,,,,,,,f,2.3574753000284545,0.18433860002551228,None,,,,,,16,0,15,199.6746742000105,,,,,,,,,,,,,,,,,,,,,,,199.65935329999775,199.6746742000105,200.17556000000332,200.1588157999795,,,,,,,,,,,,,,,,,,,,,,,,,,200.16245000000345,200.17556000000332,200.17556000000332,200.17556000000332,,,,203.17584420001367,f,2.3574753000284545,0.18433860002551228,203.17592549999245,203.1759419000009,None,,,,,,,,,,,,,,00047,001,2026-01-24_14h59.12.126,MST_task,2024.2.0,60.13670275049041,2026-01-24 14h59.23.742091 +0530,
,Objects\180a.jpg,16,0,17,,,,,,,j,1.977772400015965,0.16791949997423217,None,,,,,,17,0,16,203.1919359000167,,,,,,,,,,,,,,,,,,,,,,,203.17606780002825,203.1919359000167,203.691328099987,203.67488240002422,,,,,,,,,,,,,,,,,,,,,,,,,,203.67879069998162,203.691328099987,203.691328099987,203.691328099987,206.69147540000267,206.69147540000267,206.69147540000267,206.67523619998246,j,1.977772400015965,0.16791949997423217,206.6753088000114,206.6753321000142,None,,,,,,,,,,,,,,00047,001,2026-01-24_14h59.12.126,MST_task,2024.2.0,60.13670275049041,2026-01-24 14h59.23.742091 +0530,
,Objects\167a.jpg,17,0,18,,,,,,,f,2.3577245000051335,0.18394329998409376,None,,,,,,18,0,17,206.69147540000267,,,,,,,,,,,,,,,,,,,,,,,206.67541640001582,206.69147540000267,207.19168769998942,207.1748836999759,,,,,,,,,,,,,,,,,,,,,,,,,,207.18560989998514,207.19168769998942,207.19168769998942,207.19168769998942,210.19136669998989,210.19136669998989,210.19136669998989,210.17522129998542,f,2.3577245000051335,0.18394329998409376,210.1752930000075,210.17530760000227,None,,,,,,,,,,,,,,00047,001,2026-01-24_14h59.12.126,MST_task,2024.2.0,60.13670275049041,2026-01-24 14h59.23.742091 +0530,
,Objects\004a.jpg,18,0,19,,,,,,,None,,,f,0.5705529999686405,None,,,,19,0,18,210.19136669998989,,,,,,,,,,,,,,,,,,,,,,,210.17538570001489,210.19136669998989,210.6920567000052,210.6755621000193,,,,,,,,,,,,,,,,,,,,,,,,,,210.67926349997288,210.6920567000052,210.6920567000052,210.6920567000052,213.69125789997634,213.69125789997634,213.69125789997634,213.6755669999984,None,,,213.6756382000167,214.2757011000067,f,213.69125789997634,213.69125789997634,0.5705529999686405,None,,,,,,,,,,00047,001,2026-01-24_14h59.12.126,MST_task,2024.2.0,60.13670275049041,2026-01-24 14h59.23.742091 +0530,
,Objects\121a.jpg,19,0,20,,,,,,,f,2.254071000032127,0.16803319996688515,None,,,,,,20,0,19,214.29135730001144,,,,,,,,,,,,,,,,,,,,,,,214.27581289998489,214.29135730001144,214.79155490000267,214.77484720002394,,,,,,,,,,,,,,,,,,,,,,,,,,214.77871739998227,214.79155490000267,214.79155490000267,214.79155490000267,217.79153950000182,217.79153950000182,217.79153950000182,217.77528499998152,f,2.254071000032127,0.16803319996688515,217.775351600023,217.77536560001317,None,,,,,,,,,,,,,,00047,001,2026-01-24_14h59.12.126,MST_task,2024.2.0,60.13670275049041,2026-01-24 14h59.23.742091 +0530,
,Objects\142a.jpg,20,0,21,,,,,,,f,2.8741603999515064,None,None,,,,,,21,0,20,217.79153950000182,,,,,,,,,,,,,,,,,,,,,,,217.77544019999914,217.79153950000182,218.29143470001873,218.27499960002024,,,,,,,,,,,,,,,,,,,,,,,,,,218.27866240002913,218.29143470001873,218.29143470001873,218.29143470001873,221.2918515999918,221.2918515999918,221.2918515999918,221.27510740002617,f,2.8741603999515064,None,221.27517909999005,221.27519229997415,None,,,,,,,,,,,,,,00047,001,2026-01-24_14h59.12.126,MST_task,2024.2.0,60.13670275049041,2026-01-24 14h59.23.742091 +0530,
,Scenes\036a.jpg,21,0,22,,,,,,,j,0.8058381000300869,0.14410139998653904,None,,,,,,22,0,21,221.2918515999918,,,,,,,,,,,,,,,,,,,,,,,221.27529299998423,221.2918515999918,221.79155389999505,221.77470870001707,,,,,,,,,,,,,,,,,,,,,,,,,,221.78022690000944,221.79155389999505,221.79155389999505,221.79155389999505,224.79146199999377,224.79146199999377,224.79146199999377,224.77503999997862,j,0.8058381000300869,0.14410139998653904,224.7751063000178,224.77512010000646,None,,,,,,,,,,,,,,00047,001,2026-01-24_14h59.12.126,MST_task,2024.2.0,60.13670275049041,2026-01-24 14h59.23.742091 +0530,
,Scenes\182a.jpg,22,0,23,,,,,,,j,1.1134755999664776,0.16844710003351793,None,,,,,,23,0,22,224.79146199999377,,,,,,,,,,,,,,,,,,,,,,,224.7752054000157,224.79146199999377,225.2918649999774,225.27513899997575,,,,,,,,,,,,,,,,,,,,,,,,,,225.28431580000324,225.2918649999774,225.2918649999774,225.2918649999774,228.29113460000372,228.29113460000372,228.29113460000372,228.27510119997896,j,1.1134755999664776,0.16844710003351793,228.27516959997592,228.27518410002813,None,,,,,,,,,,,,,,00047,001,2026-01-24_14h59.12.126,MST_task,2024.2.0,60.13670275049041,2026-01-24 14h59.23.742091 +0530,
,Scenes\078a.jpg,23,0,24,,,,,,,j,2.3839560999767855,0.19243140000617132,None,,,,,,24,0,23,228.29113460000372,,,,,,,,,,,,,,,,,,,,,,,228.27526030002628,228.29113460000372,228.79704099998344,228.77473950001877,,,,,,,,,,,,,,,,,,,,,,,,,,228.7940967999748,228.79704099998344,228.79704099998344,228.79704099998344,,,,231.79154700000072,j,2.3839560999767855,0.19243140000617132,231.7916257000179,231.79164289997425,None,,,,,,,,,,,,,,00047,001,2026-01-24_14h59.12.126,MST_task,2024.2.0,60.13670275049041,2026-01-24 14h59.23.742091 +0530,
,Scenes\096a.jpg,24,0,25,,,,,,,j,0.9689376999740489,0.16829180001514032,None,,,,,,25,0,24,231.80826600000728,,,,,,,,,,,,,,,,,,,,,,,231.79176240001107,231.80826600000728,232.3085433000233,232.29192879999755,,,,,,,,,,,,,,,,,,,,,,,,,,232.29801949998364,232.3085433000233,232.3085433000233,232.3085433000233,235.3077815999859,235.3077815999859,235.3077815999859,235.29201939998893,j,0.9689376999740489,0.16829180001514032,235.29209489998175,235.2921112999902,None,,,,,,,,,,,,,,00047,001,2026-01-24_14h59.12.126,MST_task,2024.2.0,60.13670275049041,2026-01-24 14h59.23.742091 +0530,
,Scenes\053a.jpg,25,0,26,,,,,,,j,0.8204634999856353,0.1680663000443019,None,,,,,,26,0,25,235.3077815999859,,,,,,,,,,,,,,,,,,,,,,,235.29222679999657,235.3077815999859,235.8084957000101,235.7915296999854,,,,,,,,,,,,,,,,,,,,,,,,,,235.7950294999755,235.8084957000101,235.8084957000101,235.8084957000101,238.80808049999177,238.80808049999177,238.80808049999177,238.79260009998688,j,0.8204634999856353,0.1680663000443019,238.79267160000745,238.79268539999612,None,,,,,,,,,,,,,,00047,001,2026-01-24_14h59.12.126,MST_task,2024.2.0,60.13670275049041,2026-01-24 14h59.23.742091 +0530,
,Scenes\090a.jpg,26,0,27,,,,,,,j,1.048398399958387,0.16809390002163127,None,,,,,,27,0,26,238.80808049999177,,,,,,,,,,,,,,,,,,,,,,,238.7927892000298,238.80808049999177,239.30856460001087,239.29153390001738,,,,,,,,,,,,,,,,,,,,,,,,,,239.30351950001204,239.30856460001087,239.30856460001087,239.30856460001087,242.30868620000547,242.30868620000547,242.30868620000547,242.29191710002488,j,1.048398399958387,0.16809390002163127,242.29198899999028,242.2920041999896,None,,,,,,,,,,,,,,00047,001,2026-01-24_14h59.12.126,MST_task,2024.2.0,60.13670275049041,2026-01-24 14h59.23.742091 +0530,
,Scenes\109a.jpg,27,0,28,,,,,,,None,,,j,0.5256082999985665,None,,,,28,0,27,242.30868620000547,,,,,,,,,,,,,,,,,,,,,,,242.29211739997845,242.30868620000547,242.80838399997447,242.7913654000149,,,,,,,,,,,,,,,,,,,,,,,,,,242.8006187999854,242.80838399997447,242.80838399997447,242.80838399997447,245.80798590002814,245.80798590002814,245.80798590002814,245.7922309000278,None,,,245.79230000003008,246.34215669997502,j,245.80798590002814,245.80798590002814,0.5256082999985665,None,,,,,,,,,,00047,001,2026-01-24_14h59.12.126,MST_task,2024.2.0,60.13670275049041,2026-01-24 14h59.23.742091 +0530,
,Objects\102a.jpg,28,0,29,,,,,,,f,1.043534800002817,0.18304500001249835,None,,,,,,29,0,28,246.35764780000318,,,,,,,,,,,,,,,,,,,,,,,246.34225089999381,246.35764780000318,246.85863209998934,246.84205889998702,,,,,,,,,,,,,,,,,,,,,,,,,,246.8467294999864,246.85863209998934,246.85863209998934,246.85863209998934,249.8577722000191,249.8577722000191,249.8577722000191,249.84181960002752,f,1.043534800002817,0.18304500001249835,249.84189009998227,249.8419054999831,None,,,,,,,,,,,,,,00047,001,2026-01-24_14h59.12.126,MST_task,2024.2.0,60.13670275049041,2026-01-24 14h59.23.742091 +0530,
,Objects\192a.jpg,29,0,30,,,,,,,j,2.1188202999765053,0.18412210000678897,None,,,,,,30,0,29,249.8577722000191,,,,,,,,,,,,,,,,,,,,,,,249.84198700002162,249.8577722000191,250.35845699999481,250.34168920002412,,,,,,,,,,,,,,,,,,,,,,,,,,250.34592400002293,250.35845699999481,250.35845699999481,250.35845699999481,253.35771050001495,253.35771050001495,253.35771050001495,253.34177559998352,j,2.1188202999765053,0.18412210000678897,253.34184100001585,253.34185500000603,None,,,,,,,,,,,,,,00047,001,2026-01-24_14h59.12.126,MST_task,2024.2.0,60.13670275049041,2026-01-24 14h59.23.742091 +0530,
,Objects\182a.jpg,30,0,31,,,,,,,None,,,f,0.47547199996188283,None,,,,31,0,30,253.35771050001495,,,,,,,,,,,,,,,,,,,,,,,253.34193639998557,253.35771050001495,253.8581030999776,253.84177439997438,,,,,,,,,,,,,,,,,,,,,,,,,,253.84569569997257,253.8581030999776,253.8581030999776,253.8581030999776,256.8578711000155,256.8578711000155,256.8578711000155,256.8421922000125,None,,,256.8422584999935,257.34163430001354,f,256.8578711000155,256.8578711000155,0.47547199996188283,None,,,,,,,,,,00047,001,2026-01-24_14h59.12.126,MST_task,2024.2.0,60.13670275049041,2026-01-24 14h59.23.742091 +0530,
,Objects\066a.jpg,31,0,32,,,,,,,j,2.2907618999597616,0.15209030004916713,None,,,,,,32,0,31,257.3577133999788,,,,,,,,,,,,,,,,,,,,,,,257.34174290002557,257.3577133999788,257.8584556999849,257.8416933999979,,,,,,,,,,,,,,,,,,,,,,,,,,257.84581430000253,257.8584556999849,257.8584556999849,257.8584556999849,,,,260.84187509998446,j,2.2907618999597616,0.15209030004916713,260.8419512999826,260.84196829999564,None,,,,,,,,,,,,,,00047,001,2026-01-24_14h59.12.126,MST_task,2024.2.0,60.13670275049041,2026-01-24 14h59.23.742091 +0530,
,Objects\175a.jpg,32,0,33,,,,,,,None,,,f,1.2316388000035658,None,,,,33,0,32,260.85779039998306,,,,,,,,,,,,,,,,,,,,,,,260.8420676999958,260.85779039998306,261.3582307000179,261.3414266000036,,,,,,,,,,,,,,,,,,,,,,,,,,261.34510999999475,261.3582307000179,261.3582307000179,261.3582307000179,264.35766749997856,264.35766749997856,264.35766749997856,264.3420928000123,None,,,264.34216030000243,265.5918992999941,f,264.35766749997856,264.35766749997856,1.2316388000035658,None,,,,,,,,,,00047,001,2026-01-24_14h59.12.126,MST_task,2024.2.0,60.13670275049041,2026-01-24 14h59.23.742091 +0530,
,Objects\145a.jpg,33,0,34,,,,,,,f,2.8568195000407286,None,None,,,,,,34,0,33,265.6080394000164,,,,,,,,,,,,,,,,,,,,,,,265.592006699997,265.6080394000164,266.1086246999912,266.0915169999935,,,,,,,,,,,,,,,,,,,,,,,,,,266.095245399978,266.1086246999912,266.1086246999912,266.1086246999912,269.1089474000037,269.1089474000037,269.1089474000037,269.09227329998976,f,2.8568195000407286,None,269.0923518000054,269.09236650000094,None,,,,,,,,,,,,,,00047,001,2026-01-24_14h59.12.126,MST_task,2024.2.0,60.13670275049041,2026-01-24 14h59.23.742091 +0530,
,Objects\158a.jpg,34,0,35,,,,,,,f,1.0130409999983385,0.14413349999813363,None,,,,,,35,0,34,269.1089474000037,,,,,,,,,,,,,,,,,,,,,,,269.0924703999772,269.1089474000037,269.6081173000275,269.5923061000067,,,,,,,,,,,,,,,,,,,,,,,,,,269.59586860000854,269.6081173000275,269.6081173000275,269.6081173000275,272.6079576999764,272.6079576999764,272.6079576999764,272.5921414999757,f,1.0130409999983385,0.14413349999813363,272.59220630000345,272.59222029999364,None,,,,,,,,,,,,,,00047,001,2026-01-24_14h59.12.126,MST_task,2024.2.0,60.13670275049041,2026-01-24 14h59.23.742091 +0530,
,Scenes\111a.jpg,35,0,36,,,,,,,j,2.4144733999855816,0.16050779999932274,None,,,,,,36,0,35,272.6079576999764,,,,,,,,,,,,,,,,,,,,,,,272.59232140000677,272.6079576999764,273.11048740003025,273.0917329000076,,,,,,,,,,,,,,,,,,,,,,,,,,273.10757699998794,273.11048740003025,273.11048740003025,273.11048740003025,,,,276.1082890999969,j,2.4144733999855816,0.16050779999932274,276.10835549997864,276.1083703999757,None,,,,,,,,,,,,,,00047,001,2026-01-24_14h59.12.126,MST_task,2024.2.0,60.13670275049041,2026-01-24 14h59.23.742091 +0530,
,Scenes\097a.jpg,36,0,37,,,,,,,f,2.236720899993088,0.19209850003244355,None,,,,,,37,0,36,276.1241966999951,,,,,,,,,,,,,,,,,,,,,,,276.10846229997696,276.1241966999951,276.6248800000176,276.6083163000294,,,,,,,,,,,,,,,,,,,,,,,,,,276.6126682999893,276.6248800000176,276.6248800000176,276.6248800000176,279.6242681000149,279.6242681000149,279.6242681000149,279.6088405000046,f,2.236720899993088,0.19209850003244355,279.60891409998294,279.6089291999815,None,,,,,,,,,,,,,,00047,001,2026-01-24_14h59.12.126,MST_task,2024.2.0,60.13670275049041,2026-01-24 14h59.23.742091 +0530,
,Scenes\079a.jpg,37,0,38,,,,,,,j,0.9361918999929912,0.18315410002833232,None,,,,,,38,0,37,279.6242681000149,,,,,,,,,,,,,,,,,,,,,,,279.6090659999754,279.6242681000149,280.1256528000231,280.10860460001277,,,,,,,,,,,,,,,,,,,,,,,,,,280.12276420003036,280.1256528000231,280.1256528000231,280.1256528000231,283.1247394999955,283.1247394999955,283.1247394999955,283.10856630001217,j,0.9361918999929912,0.18315410002833232,283.1086404999951,283.10865479998756,None,,,,,,,,,,,,,,00047,001,2026-01-24_14h59.12.126,MST_task,2024.2.0,60.13670275049041,2026-01-24 14h59.23.742091 +0530,
,Scenes\029a.jpg,38,0,39,,,,,,,j,1.691848399990704,0.17598699999507517,None,,,,,,39,0,38,283.1247394999955,,,,,,,,,,,,,,,,,,,,,,,283.10876139998436,283.1247394999955,283.62514269998064,283.6083055000054,,,,,,,,,,,,,,,,,,,,,,,,,,283.62175669998396,283.62514269998064,283.62514269998064,283.62514269998064,286.6245551999891,286.6245551999891,286.6245551999891,286.60847630002536,j,1.691848399990704,0.17598699999507517,286.60854410001775,286.6085582000087,None,,,,,,,,,,,,,,00047,001,2026-01-24_14h59.12.126,MST_task,2024.2.0,60.13670275049041,2026-01-24 14h59.23.742091 +0530,
,Scenes\033a.jpg,39,0,40,,,,,,,j,1.2799315999727696,0.16798980004386976,None,,,,,,40,0,39,286.6245551999891,,,,,,,,,,,,,,,,,,,,,,,286.608664600004,286.6245551999891,287.12498999998206,287.1082139000064,,,,,,,,,,,,,,,,,,,,,,,,,,287.1133151000249,287.12498999998206,287.12498999998206,287.12498999998206,290.1246323999949,290.1246323999949,290.1246323999949,290.10890870000003,j,1.2799315999727696,0.16798980004386976,290.108987500018,290.1090032000211,None,,,,,,,,,,,,,,00047,001,2026-01-24_14h59.12.126,MST_task,2024.2.0,60.13670275049041,2026-01-24 14h59.23.742091 +0530,
,Scenes\139a.jpg,40,0,41,,,,,,,j,0.7965397999505512,0.16798450000351295,None,,,,,,41,0,40,290.1246323999949,,,,,,,,,,,,,,,,,,,,,,,290.1090951000224,290.1246323999949,290.6247255000053,290.60819870000705,,,,,,,,,,,,,,,,,,,,,,,,,,290.61467390001053,290.6247255000053,290.6247255000053,290.6247255000053,293.62493799999356,293.62493799999356,293.62493799999356,293.60888229997363,j,0.7965397999505512,0.16798450000351295,293.6089567000163,293.6089717000141,None,,,,,,,,,,,,,,00047,001,2026-01-24_14h59.12.126,MST_task,2024.2.0,60.13670275049041,2026-01-24 14h59.23.742091 +0530,
,Scenes\183a.jpg,41,0,42,,,,,,,f,1.471306600025855,0.1845640999963507,None,,,,,,42,0,41,293.62493799999356,,,,,,,,,,,,,,,,,,,,,,,293.609083599993,293.62493799999356,294.1257031999994,294.10825099999784,,,,,,,,,,,,,,,,,,,,,,,,,,294.11910579999676,294.1257031999994,294.1257031999994,294.1257031999994,,,,297.1247796000098,f,1.471306600025855,0.1845640999963507,297.12488710001344,297.1249032000196,None,,,,,,,,,,,,,,00047,001,2026-01-24_14h59.12.126,MST_task,2024.2.0,60.13670275049041,2026-01-24 14h59.23.742091 +0530,
,Objects\017a.jpg,42,0,43,,,,,,,f,2.1396246000076644,0.19219289999455214,None,,,,,,43,0,42,297.1411686000065,,,,,,,,,,,,,,,,,,,,,,,297.12501770001836,297.1411686000065,297.6417823000229,297.6249823999824,,,,,,,,,,,,,,,,,,,,,,,,,,297.6360324000125,297.6417823000229,297.6417823000229,297.6417823000229,300.6413191999891,300.6413191999891,300.6413191999891,300.62492169998586,f,2.1396246000076644,0.19219289999455214,300.62498770002276,300.6250008000061,None,,,,,,,,,,,,,,00047,001,2026-01-24_14h59.12.126,MST_task,2024.2.0,60.13670275049041,2026-01-24 14h59.23.742091 +0530,
,Objects\033a.jpg,43,0,44,,,,,,,f,2.1667144000530243,0.16798119997838512,None,,,,,,44,0,43,300.6413191999891,,,,,,,,,,,,,,,,,,,,,,,300.62507569999434,300.6413191999891,301.1421604999923,301.12500070000533,,,,,,,,,,,,,,,,,,,,,,,,,,301.12895240000216,301.1421604999923,301.1421604999923,301.1421604999923,,,,304.1251022000215,f,2.1667144000530243,0.16798119997838512,304.1251868000254,304.12520299997414,None,,,,,,,,,,,,,,00047,001,2026-01-24_14h59.12.126,MST_task,2024.2.0,60.13670275049041,2026-01-24 14h59.23.742091 +0530,
,Objects\184a.jpg,44,0,45,,,,,,,None,,,j,0.3001502000261098,None,,,,45,0,44,304.14142719999654,,,,,,,,,,,,,,,,,,,,,,,304.1252913000062,304.14142719999654,304.6412489999784,304.6247341000126,,,,,,,,,,,,,,,,,,,,,,,,,,304.62849350000033,304.6412489999784,304.6412489999784,304.6412489999784,307.6413406999782,307.6413406999782,307.6413406999782,307.6252639000304,None,,,307.6253339999821,307.9422447999823,j,307.6413406999782,307.6413406999782,0.3001502000261098,None,,,,,,,,,,00047,001,2026-01-24_14h59.12.126,MST_task,2024.2.0,60.13670275049041,2026-01-24 14h59.23.742091 +0530,
,Objects\139a.jpg,45,0,46,,,,,,,f,0.9863590999739245,0.1838461000006646,None,,,,,,46,0,45,307.95785780000733,,,,,,,,,,,,,,,,,,,,,,,307.942390399985,307.95785780000733,308.45891019998817,308.44159060000675,,,,,,,,,,,,,,,,,,,,,,,,,,308.4543646000093,308.45891019998817,308.45891019998817,308.45891019998817,311.4577890000073,311.4577890000073,311.4577890000073,311.44285599997966,f,0.9863590999739245,0.1838461000006646,311.44293130002916,311.4429459000239,None,,,,,,,,,,,,,,00047,001,2026-01-24_14h59.12.126,MST_task,2024.2.0,60.13670275049041,2026-01-24 14h59.23.742091 +0530,
,Objects\106a.jpg,46,0,47,,,,,,,f,1.4551493999897502,0.2079639000003226,None,,,,,,47,0,46,311.4577890000073,,,,,,,,,,,,,,,,,,,,,,,311.4430277000065,311.4577890000073,311.95807090000017,311.94147780002095,,,,,,,,,,,,,,,,,,,,,,,,,,311.9449192999746,311.95807090000017,311.95807090000017,311.95807090000017,314.95845440000994,314.95845440000994,314.95845440000994,314.9420845999848,f,1.4551493999897502,0.2079639000003226,314.9421560000046,314.9421705999994,None,,,,,,,,,,,,,,00047,001,2026-01-24_14h59.12.126,MST_task,2024.2.0,60.13670275049041,2026-01-24 14h59.23.742091 +0530,
,Objects\067a.jpg,47,0,48,,,,,,,f,2.0993193999747746,0.1989989000139758,None,,,,,,48,0,47,314.95845440000994,,,,,,,,,,,,,,,,,,,,,,,314.9422859000042,314.95845440000994,315.45860289997654,315.44213470001705,,,,,,,,,,,,,,,,,,,,,,,,,,315.4531110000098,315.45860289997654,315.45860289997654,315.45860289997654,318.45794779999414,318.45794779999414,318.45794779999414,318.44196189998183,f,2.0993193999747746,0.1989989000139758,318.4420349000138,318.4420495000086,None,,,,,,,,,,,,,,00047,001,2026-01-24_14h59.12.126,MST_task,2024.2.0,60.13670275049041,2026-01-24 14h59.23.742091 +0530,
,Objects\046a.jpg,48,0,49,,,,,,,f,1.86288929998409,0.20001490000868216,None,,,,,,49,0,48,318.45794779999414,,,,,,,,,,,,,,,,,,,,,,,318.44212640001206,318.45794779999414,318.9581031000125,318.9414622000186,,,,,,,,,,,,,,,,,,,,,,,,,,318.9450711000245,318.9581031000125,318.9581031000125,318.9581031000125,321.95823290001135,321.95823290001135,321.95823290001135,321.9420657000155,f,1.86288929998409,0.20001490000868216,321.94213649997255,321.9421511000255,None,,,,,,,,,,,,,,00047,001,2026-01-24_14h59.12.126,MST_task,2024.2.0,60.13670275049041,2026-01-24 14h59.23.742091 +0530,
,Scenes\133a.jpg,49,0,50,,,,,,,j,0.835132899985183,0.18403320002835244,None,,,,,,50,0,49,321.95823290001135,,,,,,,,,,,,,,,,,,,,,,,321.9422384999925,321.95823290001135,322.4579340000055,322.4414763000095,,,,,,,,,,,,,,,,,,,,,,,,,,322.45194280002033,322.4579340000055,322.4579340000055,322.4579340000055,325.4580584000214,325.4580584000214,325.4580584000214,325.44173060002504,j,0.835132899985183,0.18403320002835244,325.441800999979,325.4418148000259,None,,,,,,,,,,,,,,00047,001,2026-01-24_14h59.12.126,MST_task,2024.2.0,60.13670275049041,2026-01-24 14h59.23.742091 +0530,
,Scenes\112a.jpg,50,0,51,,,,,,,j,0.9033233000081964,0.17569429997820407,None,,,,,,51,0,50,325.4580584000214,,,,,,,,,,,,,,,,,,,,,,,325.4419198000105,325.4580584000214,325.9584250000189,325.9416781999753,,,,,,,,,,,,,,,,,,,,,,,,,,325.95198750001146,325.9584250000189,325.9584250000189,325.9584250000189,328.9577890000073,328.9577890000073,328.9577890000073,328.9422545999987,j,0.9033233000081964,0.17569429997820407,328.94233370001893,328.94234870001674,None,,,,,,,,,,,,,,00047,001,2026-01-24_14h59.12.126,MST_task,2024.2.0,60.13670275049041,2026-01-24 14h59.23.742091 +0530,
,Scenes\185a.jpg,51,0,52,,,,,,,j,1.169125200016424,0.18403349997242913,None,,,,,,52,0,51,328.9577890000073,,,,,,,,,,,,,,,,,,,,,,,328.94243659998756,328.9577890000073,329.4598216000013,329.44248660001904,,,,,,,,,,,,,,,,,,,,,,,,,,329.4501180999796,329.4598216000013,329.4598216000013,329.4598216000013,,,,332.4580882000155,j,1.169125200016424,0.18403349997242913,332.45816069998546,332.4581765999901,None,,,,,,,,,,,,,,00047,001,2026-01-24_14h59.12.126,MST_task,2024.2.0,60.13670275049041,2026-01-24 14h59.23.742091 +0530,
,Scenes\007a.jpg,52,0,53,,,,,,,f,1.9339944000239484,0.18350659997668117,None,,,,,,53,0,52,332.4747139000101,,,,,,,,,,,,,,,,,,,,,,,332.4582723000203,332.4747139000101,332.97532819997286,332.95791210001335,,,,,,,,,,,,,,,,,,,,,,,,,,332.96502270002384,332.97532819997286,332.97532819997286,332.97532819997286,,,,335.958369400003,f,1.9339944000239484,0.18350659997668117,335.9584596999921,335.958477600012,None,,,,,,,,,,,,,,00047,001,2026-01-24_14h59.12.126,MST_task,2024.2.0,60.13670275049041,2026-01-24 14h59.23.742091 +0530,
,Scenes\186a.jpg,53,0,54,,,,,,,j,2.2722190999775194,0.21545690001221374,None,,,,,,54,0,53,335.97463950002566,,,,,,,,,,,,,,,,,,,,,,,335.95863519998966,335.97463950002566,336.47727049997775,336.45851780002704,,,,,,,,,,,,,,,,,,,,,,,,,,336.4743690000032,336.47727049997775,336.47727049997775,336.47727049997775,,,,339.47460850002244,j,2.2722190999775194,0.21545690001221374,339.47470650001196,339.4747224000166,None,,,,,,,,,,,,,,00047,001,2026-01-24_14h59.12.126,MST_task,2024.2.0,60.13670275049041,2026-01-24 14h59.23.742091 +0530,
,Scenes\069a.jpg,54,0,55,,,,,,,j,0.8132517999620177,0.17641110002296045,None,,,,,,55,0,54,339.4912589000305,,,,,,,,,,,,,,,,,,,,,,,339.4748258999898,339.4912589000305,339.99162310000975,339.9747739000013,,,,,,,,,,,,,,,,,,,,,,,,,,339.9825280000223,339.99162310000975,339.99162310000975,339.99162310000975,342.9912306999904,342.9912306999904,342.9912306999904,342.9752672999748,j,0.8132517999620177,0.17641110002296045,342.9753475000034,342.97536370001035,None,,,,,,,,,,,,,,00047,001,2026-01-24_14h59.12.126,MST_task,2024.2.0,60.13670275049041,2026-01-24 14h59.23.742091 +0530,
,Scenes\095a.jpg,55,0,56,,,,,,,f,1.809218399983365,0.2160071000107564,None,,,,,,56,0,55,342.9912306999904,,,,,,,,,,,,,,,,,,,,,,,342.975487800024,342.9912306999904,343.49162540002726,343.47521409997717,,,,,,,,,,,,,,,,,,,,,,,,,,343.48362640000414,343.49162540002726,343.49162540002726,343.49162540002726,346.4912314999965,346.4912314999965,346.4912314999965,346.4753318000003,f,1.809218399983365,0.2160071000107564,346.4754142999882,346.47542889998294,None,,,,,,,,,,,,,,00047,001,2026-01-24_14h59.12.126,MST_task,2024.2.0,60.13670275049041,2026-01-24 14h59.23.742091 +0530,
,Objects\137a.jpg,56,0,57,,,,,,,f,2.6379086999804713,0.2795103000244126,None,,,,,,57,0,56,346.4912314999965,,,,,,,,,,,,,,,,,,,,,,,346.4755323000136,346.4912314999965,346.9920600000187,346.97489070001757,,,,,,,,,,,,,,,,,,,,,,,,,,346.97917649999727,346.9920600000187,346.9920600000187,346.9920600000187,349.9911471999949,349.9911471999949,349.9911471999949,349.9750898000202,f,2.6379086999804713,0.2795103000244126,349.9751531999791,349.9751669000252,None,,,,,,,,,,,,,,00047,001,2026-01-24_14h59.12.126,MST_task,2024.2.0,60.13670275049041,2026-01-24 14h59.23.742091 +0530,
,Objects\181a.jpg,57,0,58,,,,,,,j,0.8262577000423335,0.23193289997288957,None,,,,,,58,0,57,349.9911471999949,,,,,,,,,,,,,,,,,,,,,,,349.97525399998995,349.9911471999949,350.4912534999894,350.47477019997314,,,,,,,,,,,,,,,,,,,,,,,,,,350.48579870001413,350.4912534999894,350.4912534999894,350.4912534999894,353.49154959997395,353.49154959997395,353.49154959997395,353.47497380001005,j,0.8262577000423335,0.23193289997288957,353.4750533999759,353.47506929998053,None,,,,,,,,,,,,,,00047,001,2026-01-24_14h59.12.126,MST_task,2024.2.0,60.13670275049041,2026-01-24 14h59.23.742091 +0530,
,Objects\013a.jpg,58,0,59,,,,,,,None,,,j,0.4546085000038147,None,,,,59,0,58,353.49154959997395,,,,,,,,,,,,,,,,,,,,,,,353.47515589999966,353.49154959997395,353.9919491999899,353.9751454999787,,,,,,,,,,,,,,,,,,,,,,,,,,353.9788903000299,353.9919491999899,353.9919491999899,353.9919491999899,,,,356.9752934999997,None,,,356.97538309998345,357.4586427999893,j,356.99121559999185,356.99121559999185,0.4546085000038147,None,,,,,,,,,,00047,001,2026-01-24_14h59.12.126,MST_task,2024.2.0,60.13670275049041,2026-01-24 14h59.23.742091 +0530,
,Objects\136a.jpg,59,0,60,,,,,,,None,,,f,0.446330200007651,None,,,,60,0,59,357.4745131999953,,,,,,,,,,,,,,,,,,,,,,,357.4587539000204,357.4745131999953,357.9749286000151,357.95829470001627,,,,,,,,,,,,,,,,,,,,,,,,,,357.9703163999948,357.9749286000151,357.9749286000151,357.9749286000151,,,,360.958756499982,None,,,360.9588479999802,361.42587119998643,f,360.9746143000084,360.9746143000084,0.446330200007651,None,,,,,,,,,,00047,001,2026-01-24_14h59.12.126,MST_task,2024.2.0,60.13670275049041,2026-01-24 14h59.23.742091 +0530,
,Objects\088a.jpg,60,0,61,,,,,,,f,1.5202101999893785,0.21603549999417737,None,,,,,,61,0,60,361.44104930001777,,,,,,,,,,,,,,,,,,,,,,,361.4260621999856,361.44104930001777,361.9413462000084,361.9247304999735,,,,,,,,,,,,,,,,,,,,,,,,,,361.93594420002773,361.9413462000084,361.9413462000084,361.9413462000084,364.9414589999942,364.9414589999942,364.9414589999942,364.9256117999903,f,1.5202101999893785,0.21603549999417737,364.9256827000063,364.9256970999995,None,,,,,,,,,,,,,,00047,001,2026-01-24_14h59.12.126,MST_task,2024.2.0,60.13670275049041,2026-01-24 14h59.23.742091 +0530,
,Objects\113a.jpg,61,0,62,,,,,,,f,2.0914981000241823,0.21596579998731613,None,,,,,,62,0,61,364.9414589999942,,,,,,,,,,,,,,,,,,,,,,,364.92580209998414,364.9414589999942,365.4417736000032,365.4254535000073,,,,,,,,,,,,,,,,,,,,,,,,,,365.4292766000144,365.4417736000032,365.4417736000032,365.4417736000032,368.4411726000253,368.4411726000253,368.4411726000253,368.425871799991,f,2.0914981000241823,0.21596579998731613,368.4259440000169,368.42595830000937,None,,,,,,,,,,,,,,00047,001,2026-01-24_14h59.12.126,MST_task,2024.2.0,60.13670275049041,2026-01-24 14h59.23.742091 +0530,
,Objects\170a.jpg,62,0,63,,,,,,,None,,,f,1.3999858000315726,None,,,,63,0,62,368.4411726000253,,,,,,,,,,,,,,,,,,,,,,,368.4260340000037,368.4411726000253,368.9412560000201,368.9252754999907,,,,,,,,,,,,,,,,,,,,,,,,,,368.92906689998927,368.9412560000201,368.9412560000201,368.9412560000201,371.94154949998483,371.94154949998483,371.94154949998483,371.92549779999536,None,,,371.9255750000011,373.35836269997526,f,371.94154949998483,371.94154949998483,1.3999858000315726,None,,,,,,,,,,00047,001,2026-01-24_14h59.12.126,MST_task,2024.2.0,60.13670275049041,2026-01-24 14h59.23.742091 +0530,
,Scenes\074a.jpg,63,0,64,,,,,,,j,0.955004999996163,0.19153429998550564,None,,,,,,64,0,63,373.3745637999964,,,,,,,,,,,,,,,,,,,,,,,373.3584813000052,373.3745637999964,373.8746299999766,373.85837179998634,,,,,,,,,,,,,,,,,,,,,,,,,,373.8697852999903,373.8746299999766,373.8746299999766,373.8746299999766,,,,376.8590509999776,j,0.955004999996163,0.19153429998550564,376.85915029997705,376.85917309997603,None,,,,,,,,,,,,,,00047,001,2026-01-24_14h59.12.126,MST_task,2024.2.0,60.13670275049041,2026-01-24 14h59.23.742091 +0530,
,Scenes\023a.jpg,64,0,65,,,,,,,None,,,f,0.6217004000209272,None,,,,65,0,64,376.8748194000218,,,,,,,,,,,,,,,,,,,,,,,376.85931119997986,376.8748194000218,377.37593979999656,377.35809370002244,,,,,,,,,,,,,,,,,,,,,,,,,,377.37303249997785,377.37593979999656,377.37593979999656,377.37593979999656,,,,380.3744200000074,None,,,380.37450520001585,381.02514310000697,f,380.39166080002906,380.39166080002906,0.6217004000209272,None,,,,,,,,,,00047,001,2026-01-24_14h59.12.126,MST_task,2024.2.0,60.13670275049041,2026-01-24 14h59.23.742091 +0530,
,Scenes\157a.jpg,65,0,66,,,,,,,j,1.9213465999928303,0.19203869998455048,None,,,,,,66,0,65,381.0413437000243,,,,,,,,,,,,,,,,,,,,,,,381.0252946999972,381.0413437000243,381.54780960001517,381.5249714999809,,,,,,,,,,,,,,,,,,,,,,,,,,381.5451656000223,381.54780960001517,381.54780960001517,381.54780960001517,,,,384.5414450999815,j,1.9213465999928303,0.19203869998455048,384.5415289999801,384.5415461999946,None,,,,,,,,,,,,,,00047,001,2026-01-24_14h59.12.126,MST_task,2024.2.0,60.13670275049041,2026-01-24 14h59.23.742091 +0530,
,Scenes\045a.jpg,66,0,67,,,,,,,None,,,f,0.06793809996452183,None,,,,67,0,66,384.55776180000976,,,,,,,,,,,,,,,,,,,,,,,384.5416726000258,384.55776180000976,385.0586111000157,385.0414385999902,,,,,,,,,,,,,,,,,,,,,,,,,,385.05495199997677,385.0586111000157,385.0586111000157,385.0586111000157,388.0578297000029,388.0578297000029,388.0578297000029,388.0420799999847,None,,,388.0421472999733,388.14177410001867,f,388.0578297000029,388.0578297000029,0.06793809996452183,None,,,,,,,,,,00047,001,2026-01-24_14h59.12.126,MST_task,2024.2.0,60.13670275049041,2026-01-24 14h59.23.742091 +0530,
,Scenes\192a.jpg,67,0,68,,,,,,,j,1.3953726000036113,0.1679901999887079,None,,,,,,68,0,67,388.15795800002525,,,,,,,,,,,,,,,,,,,,,,,388.141876699985,388.15795800002525,388.6586372000165,388.6417465999839,,,,,,,,,,,,,,,,,,,,,,,,,,388.6495175000164,388.6586372000165,388.6586372000165,388.6586372000165,391.65813779999735,391.65813779999735,391.65813779999735,391.6421114000259,j,1.3953726000036113,0.1679901999887079,391.64219350001076,391.64221219997853,None,,,,,,,,,,,,,,00047,001,2026-01-24_14h59.12.126,MST_task,2024.2.0,60.13670275049041,2026-01-24 14h59.23.742091 +0530,
,Scenes\100a.jpg,68,0,69,,,,,,,f,1.6153733999817632,0.23094290000153705,None,,,,,,69,0,68,391.65813779999735,,,,,,,,,,,,,,,,,,,,,,,391.6423077000072,391.65813779999735,392.15863710001577,392.14156219997676,,,,,,,,,,,,,,,,,,,,,,,,,,392.1522765000118,392.15863710001577,392.15863710001577,392.15863710001577,395.1577972000232,395.1577972000232,395.1577972000232,395.1421961999731,f,1.6153733999817632,0.23094290000153705,395.14227319997735,395.1422878000303,None,,,,,,,,,,,,,,00047,001,2026-01-24_14h59.12.126,MST_task,2024.2.0,60.13670275049041,2026-01-24 14h59.23.742091 +0530,
,Scenes\140a.jpg,69,0,70,,,,,,,f,2.8023526000324637,None,None,,,,,,70,0,69,395.1577972000232,,,,,,,,,,,,,,,,,,,,,,,395.1424001000123,395.1577972000232,395.65907280001557,395.6414966000011,,,,,,,,,,,,,,,,,,,,,,,,,,395.65617279999424,395.65907280001557,395.65907280001557,395.65907280001557,,,,398.65808269998524,f,2.8023526000324637,None,398.658155800018,398.6581727999728,None,,,,,,,,,,,,,,00047,001,2026-01-24_14h59.12.126,MST_task,2024.2.0,60.13670275049041,2026-01-24 14h59.23.742091 +0530,
,Objects\011a.jpg,70,0,71,,,,,,,None,,,f,0.07860249996883795,None,,,,71,0,70,398.6745418999926,,,,,,,,,,,,,,,,,,,,,,,398.6583127999911,398.6745418999926,,399.1583122999873,,,,,,,,,,,,,,,,,,,,,,,,,,399.161935799988,399.17530639999313,399.17530639999313,399.17530639999313,,,,402.15849529998377,None,,,402.1585862999782,402.25857920001727,f,402.1742315000156,402.1742315000156,0.07860249996883795,None,,,,,,,,,,00047,001,2026-01-24_14h59.12.126,MST_task,2024.2.0,60.13670275049041,2026-01-24 14h59.23.742091 +0530,
,Objects\114a.jpg,71,0,72,,,,,,,f,1.6387646999792196,0.1840057999943383,None,,,,,,72,0,71,402.2749912000145,,,,,,,,,,,,,,,,,,,,,,,402.2586925000069,402.2749912000145,402.7744333000155,402.75823929999024,,,,,,,,,,,,,,,,,,,,,,,,,,402.761813900026,402.7744333000155,402.7744333000155,402.7744333000155,405.7745124999783,405.7745124999783,405.7745124999783,405.75864060001913,f,1.6387646999792196,0.1840057999943383,405.7587489000289,405.75878650002414,None,,,,,,,,,,,,,,00047,001,2026-01-24_14h59.12.126,MST_task,2024.2.0,60.13670275049041,2026-01-24 14h59.23.742091 +0530,
,Objects\022a.jpg,72,0,73,,,,,,,f,1.9305535000166856,0.1521372999995947,None,,,,,,73,0,72,405.7745124999783,,,,,,,,,,,,,,,,,,,,,,,405.7588819999946,405.7745124999783,406.2748993000132,406.2584489000146,,,,,,,,,,,,,,,,,,,,,,,,,,406.2697607000009,406.2748993000132,406.2748993000132,406.2748993000132,409.27431210002396,409.27431210002396,409.27431210002396,409.2589958999888,f,1.9305535000166856,0.1521372999995947,409.25906070001656,409.2590743000037,None,,,,,,,,,,,,,,00047,001,2026-01-24_14h59.12.126,MST_task,2024.2.0,60.13670275049041,2026-01-24 14h59.23.742091 +0530,
,Objects\086a.jpg,73,0,74,,,,,,,None,,,j,0.4231822000001557,None,,,,74,0,73,409.27431210002396,,,,,,,,,,,,,,,,,,,,,,,409.2591507000034,409.27431210002396,409.77458430000115,409.75822610000614,,,,,,,,,,,,,,,,,,,,,,,,,,409.7618400999927,409.77458430000115,409.77458430000115,409.77458430000115,412.7743075999897,412.7743075999897,412.7743075999897,412.7588036999805,None,,,412.75887000001967,413.2090061000199,j,412.7743075999897,412.7743075999897,0.4231822000001557,None,,,,,,,,,,00047,001,2026-01-24_14h59.12.126,MST_task,2024.2.0,60.13670275049041,2026-01-24 14h59.23.742091 +0530,
,Objects\128a.jpg,74,0,75,,,,,,,f,1.4328205999918282,0.2240004999912344,None,,,,,,75,0,74,413.2243591999868,,,,,,,,,,,,,,,,,,,,,,,413.2091432000161,413.2243591999868,413.7245098000276,413.7084688000032,,,,,,,,,,,,,,,,,,,,,,,,,,413.71225270000286,413.7245098000276,413.7245098000276,413.7245098000276,416.72466120001627,416.72466120001627,416.72466120001627,416.7089829000179,f,1.4328205999918282,0.2240004999912344,416.7090576000046,416.7090724000009,None,,,,,,,,,,,,,,00047,001,2026-01-24_14h59.12.126,MST_task,2024.2.0,60.13670275049041,2026-01-24 14h59.23.742091 +0530,
,Objects\129a.jpg,75,0,76,,,,,,,f,1.9158356999978423,0.24790459999348968,None,,,,,,76,0,75,416.72466120001627,,,,,,,,,,,,,,,,,,,,,,,416.7091526000295,416.72466120001627,417.2251204000204,417.2081963000237,,,,,,,,,,,,,,,,,,,,,,,,,,417.21171790000517,417.2251204000204,417.2251204000204,417.2251204000204,420.22433210001327,420.22433210001327,420.22433210001327,420.2091240999871,f,1.9158356999978423,0.24790459999348968,420.20918970002094,420.20920310000656,None,,,,,,,,,,,,,,00047,001,2026-01-24_14h59.12.126,MST_task,2024.2.0,60.13670275049041,2026-01-24 14h59.23.742091 +0530,
,Objects\171a.jpg,76,0,77,,,,,,,j,2.616721900005359,0.23987649998161942,None,,,,,,77,0,76,420.22433210001327,,,,,,,,,,,,,,,,,,,,,,,420.20930220000446,420.22433210001327,420.7246229000157,420.70929780002916,,,,,,,,,,,,,,,,,,,,,,,,,,420.7127545999829,420.7246229000157,420.7246229000157,420.7246229000157,423.7244560000254,423.7244560000254,423.7244560000254,423.7096325000166,j,2.616721900005359,0.23987649998161942,423.7097046999843,423.70971929997904,None,,,,,,,,,,,,,,00047,001,2026-01-24_14h59.12.126,MST_task,2024.2.0,60.13670275049041,2026-01-24 14h59.23.742091 +0530,
,Scenes\128a.jpg,77,0,78,,,,,,,j,0.7963657999644056,0.24845319997984916,None,,,,,,78,0,77,423.7244560000254,,,,,,,,,,,,,,,,,,,,,,,423.70984349999344,423.7244560000254,424.2248736000038,424.20848650002154,,,,,,,,,,,,,,,,,,,,,,,,,,424.2213607999729,424.2248736000038,424.2248736000038,424.2248736000038,427.22492309997324,427.22492309997324,427.22492309997324,427.2089890000061,j,0.7963657999644056,0.24845319997984916,427.20905930001754,427.20907330000773,None,,,,,,,,,,,,,,00047,001,2026-01-24_14h59.12.126,MST_task,2024.2.0,60.13670275049041,2026-01-24 14h59.23.742091 +0530,
,Scenes\147a.jpg,78,0,79,,,,,,,j,1.0565562000265345,0.20004709996283054,None,,,,,,79,0,78,427.22492309997324,,,,,,,,,,,,,,,,,,,,,,,427.2091738000163,427.22492309997324,427.7247920000227,427.7081503000227,,,,,,,,,,,,,,,,,,,,,,,,,,427.7160796999815,427.7247920000227,427.7247920000227,427.7247920000227,430.72429749998264,430.72429749998264,430.72429749998264,430.70877209998434,j,1.0565562000265345,0.20004709996283054,430.70886710000923,430.70888130000094,None,,,,,,,,,,,,,,00047,001,2026-01-24_14h59.12.126,MST_task,2024.2.0,60.13670275049041,2026-01-24 14h59.23.742091 +0530,
,Scenes\142a.jpg,79,0,80,,,,,,,j,2.6278383000171743,0.2000361999962479,None,,,,,,80,0,79,430.72429749998264,,,,,,,,,,,,,,,,,,,,,,,430.70899299997836,430.72429749998264,431.224965100002,431.2092215999728,,,,,,,,,,,,,,,,,,,,,,,,,,431.22117749997415,431.224965100002,431.224965100002,431.224965100002,434.224744200008,434.224744200008,434.224744200008,434.20888049999485,j,2.6278383000171743,0.2000361999962479,434.20894649997354,434.2089606000227,None,,,,,,,,,,,,,,00047,001,2026-01-24_14h59.12.126,MST_task,2024.2.0,60.13670275049041,2026-01-24 14h59.23.742091 +0530,
,Scenes\188a.jpg,80,0,81,,,,,,,j,1.279576700006146,0.2163010000367649,None,,,,,,81,0,80,434.224744200008,,,,,,,,,,,,,,,,,,,,,,,434.209065300005,434.224744200008,434.7256067999988,434.7082868000143,,,,,,,,,,,,,,,,,,,,,,,,,,434.7162608000217,434.7256067999988,434.7256067999988,434.7256067999988,,,,437.72446390002733,j,1.279576700006146,0.2163010000367649,437.72453499998664,437.72455029998673,None,,,,,,,,,,,,,,00047,001,2026-01-24_14h59.12.126,MST_task,2024.2.0,60.13670275049041,2026-01-24 14h59.23.742091 +0530,
,Scenes\073a.jpg,81,0,82,,,,,,,j,1.5153254000470042,0.21685729996534064,None,,,,,,82,0,81,437.74094079999486,,,,,,,,,,,,,,,,,,,,,,,437.7246357999975,437.74094079999486,,438.2247790999827,,,,,,,,,,,,,,,,,,,,,,,,,,438.2328799000243,438.2415370999952,438.2415370999952,438.2415370999952,,,,441.2250240999856,j,1.5153254000470042,0.21685729996534064,441.2250938999932,441.22510909999255,None,,,,,,,,,,,,,,00047,001,2026-01-24_14h59.12.126,MST_task,2024.2.0,60.13670275049041,2026-01-24 14h59.23.742091 +0530,
,Scenes\024a.jpg,82,0,83,,,,,,,j,1.2633000999921933,0.16012640000553802,None,,,,,,83,0,82,441.24122129997704,,,,,,,,,,,,,,,,,,,,,,,441.22523099998944,441.24122129997704,441.7416969999904,441.72453780000797,,,,,,,,,,,,,,,,,,,,,,,,,,441.7317913000006,441.7416969999904,441.7416969999904,441.7416969999904,444.74144200002775,444.74144200002775,444.74144200002775,444.7251379999798,j,1.2633000999921933,0.16012640000553802,444.7252017999999,444.725214999984,None,,,,,,,,,,,,,,00047,001,2026-01-24_14h59.12.126,MST_task,2024.2.0,60.13670275049041,2026-01-24 14h59.23.742091 +0530,
,Scenes\011a.jpg,83,0,84,,,,,,,None,,,j,0.11654810002073646,None,,,,84,0,83,444.74144200002775,,,,,,,,,,,,,,,,,,,,,,,444.72531299997354,444.74144200002775,445.2416283999919,445.22471590002533,,,,,,,,,,,,,,,,,,,,,,,,,,445.23837809998076,445.2416283999919,445.2416283999919,445.2416283999919,448.24139540002216,448.24139540002216,448.24139540002216,448.22540450003,None,,,448.2254677999881,448.3587076999829,j,448.24139540002216,448.24139540002216,0.11654810002073646,None,,,,,,,,,,00047,001,2026-01-24_14h59.12.126,MST_task,2024.2.0,60.13670275049041,2026-01-24 14h59.23.742091 +0530,
,Objects\164a.jpg,84,0,85,,,,,,,f,1.7543349000043236,0.1838504999759607,None,,,,,,85,0,84,448.3744951999979,,,,,,,,,,,,,,,,,,,,,,,448.3588455999852,448.3744951999979,448.87521460000426,448.85810950002633,,,,,,,,,,,,,,,,,,,,,,,,,,448.869813599973,448.87521460000426,448.87521460000426,448.87521460000426,451.8744202000089,451.8744202000089,451.8744202000089,451.8595271999948,f,1.7543349000043236,0.1838504999759607,451.85959629999707,451.85961109999334,None,,,,,,,,,,,,,,00047,001,2026-01-24_14h59.12.126,MST_task,2024.2.0,60.13670275049041,2026-01-24 14h59.23.742091 +0530,
,Objects\051a.jpg,85,0,86,,,,,,,f,1.3420287999906577,0.24104340001940727,None,,,,,,86,0,85,451.8744202000089,,,,,,,,,,,,,,,,,,,,,,,451.85971559997415,451.8744202000089,452.3748838999891,452.35847709997324,,,,,,,,,,,,,,,,,,,,,,,,,,452.3620498999953,452.3748838999891,452.3748838999891,452.3748838999891,455.37492640002165,455.37492640002165,455.37492640002165,455.35853119997773,f,1.3420287999906577,0.24104340001940727,455.3585981000215,455.35861080000177,None,,,,,,,,,,,,,,00047,001,2026-01-24_14h59.12.126,MST_task,2024.2.0,60.13670275049041,2026-01-24 14h59.23.742091 +0530,
,Objects\038a.jpg,86,0,87,,,,,,,f,1.3790884999907576,0.2239873000071384,None,,,,,,87,0,86,455.37492640002165,,,,,,,,,,,,,,,,,,,,,,,455.3586886000121,455.37492640002165,455.8746392999892,455.8581174000283,,,,,,,,,,,,,,,,,,,,,,,,,,455.86884660000214,455.8746392999892,455.8746392999892,455.8746392999892,458.87473340000724,458.87473340000724,458.87473340000724,458.8587017999962,f,1.3790884999907576,0.2239873000071384,458.85876690002624,458.8587804000126,None,,,,,,,,,,,,,,00047,001,2026-01-24_14h59.12.126,MST_task,2024.2.0,60.13670275049041,2026-01-24 14h59.23.742091 +0530,
,Objects\050a.jpg,87,0,88,,,,,,,f,1.871137899986934,0.23951669997768477,None,,,,,,88,0,87,458.87473340000724,,,,,,,,,,,,,,,,,,,,,,,458.85888180002803,458.87473340000724,459.3745291000232,459.3582537000184,,,,,,,,,,,,,,,,,,,,,,,,,,459.36868880002294,459.3745291000232,459.3745291000232,459.3745291000232,462.37432489998173,462.37432489998173,462.37432489998173,462.35874459997285,f,1.871137899986934,0.23951669997768477,462.35881519998657,462.3588295999798,None,,,,,,,,,,,,,,00047,001,2026-01-24_14h59.12.126,MST_task,2024.2.0,60.13670275049041,2026-01-24 14h59.23.742091 +0530,
,Objects\039a.jpg,88,0,89,,,,,,,j,2.122480900026858,0.19254000001819804,None,,,,,,89,0,88,462.37432489998173,,,,,,,,,,,,,,,,,,,,,,,462.3589173000073,462.37432489998173,462.87458250002237,462.85808119998546,,,,,,,,,,,,,,,,,,,,,,,,,,462.86184309999226,462.87458250002237,462.87458250002237,462.87458250002237,465.8750819999841,465.8750819999841,465.8750819999841,465.85891180002363,j,2.122480900026858,0.19254000001819804,465.85898600000655,465.8590030000196,None,,,,,,,,,,,,,,00047,001,2026-01-24_14h59.12.126,MST_task,2024.2.0,60.13670275049041,2026-01-24 14h59.23.742091 +0530,
,Objects\161a.jpg,89,0,90,,,,,,,j,0.9743832999956794,0.21615860000019893,None,,,,,,90,0,89,465.8750819999841,,,,,,,,,,,,,,,,,,,,,,,465.8591308000032,465.8750819999841,466.37488140002824,466.35819429997355,,,,,,,,,,,,,,,,,,,,,,,,,,466.3618767000153,466.37488140002824,466.37488140002824,466.37488140002824,469.3740421999828,469.3740421999828,469.3740421999828,469.35839970002417,j,0.9743832999956794,0.21615860000019893,469.35846600000514,469.3584797999938,None,,,,,,,,,,,,,,00047,001,2026-01-24_14h59.12.126,MST_task,2024.2.0,60.13670275049041,2026-01-24 14h59.23.742091 +0530,
,Objects\109a.jpg,90,0,91,,,,,,,j,2.371201599948108,0.17504450003616512,None,,,,,,91,0,90,469.3740421999828,,,,,,,,,,,,,,,,,,,,,,,469.3585558999912,469.3740421999828,469.8748944000108,469.8587113000103,,,,,,,,,,,,,,,,,,,,,,,,,,469.86928230000194,469.8748944000108,469.8748944000108,469.8748944000108,472.87474579998525,472.87474579998525,472.87474579998525,472.8586843999801,j,2.371201599948108,0.17504450003616512,472.8587633999996,472.8587822000263,None,,,,,,,,,,,,,,00047,001,2026-01-24_14h59.12.126,MST_task,2024.2.0,60.13670275049041,2026-01-24 14h59.23.742091 +0530,
,Scenes\187a.jpg,91,0,92,,,,,,,j,1.9664828999666497,0.1519488000194542,None,,,,,,92,0,91,472.87474579998525,,,,,,,,,,,,,,,,,,,,,,,472.85889289999614,472.87474579998525,473.37459449999733,473.3585738000111,,,,,,,,,,,,,,,,,,,,,,,,,,473.3688609999954,473.37459449999733,473.37459449999733,473.37459449999733,476.37468790001003,476.37468790001003,476.37468790001003,476.3587253000005,j,1.9664828999666497,0.1519488000194542,476.35879480000585,476.3588091999991,None,,,,,,,,,,,,,,00047,001,2026-01-24_14h59.12.126,MST_task,2024.2.0,60.13670275049041,2026-01-24 14h59.23.742091 +0530,
,Scenes\017a.jpg,92,0,93,,,,,,,f,2.1297682999866083,0.2154879000154324,None,,,,,,93,0,92,476.37468790001003,,,,,,,,,,,,,,,,,,,,,,,476.35889109998243,476.37468790001003,476.8756880000001,476.85822220001137,,,,,,,,,,,,,,,,,,,,,,,,,,476.87299060000805,476.8756880000001,476.8756880000001,476.8756880000001,,,,479.87475020001875,f,2.1297682999866083,0.2154879000154324,479.8748274000245,479.87484230002156,None,,,,,,,,,,,,,,00047,001,2026-01-24_14h59.12.126,MST_task,2024.2.0,60.13670275049041,2026-01-24 14h59.23.742091 +0530,
,Scenes\116a.jpg,93,0,94,,,,,,,j,1.8989129000110552,0.17653639998752624,None,,,,,,94,0,93,479.89108099997975,,,,,,,,,,,,,,,,,,,,,,,479.8749517999822,479.89108099997975,480.3938702000305,480.37502550001955,,,,,,,,,,,,,,,,,,,,,,,,,,480.3899857000215,480.3938702000305,480.3938702000305,480.3938702000305,,,,483.3914109999896,j,1.8989129000110552,0.17653639998752624,483.3915054000099,483.39152270002523,None,,,,,,,,,,,,,,00047,001,2026-01-24_14h59.12.126,MST_task,2024.2.0,60.13670275049041,2026-01-24 14h59.23.742091 +0530,
,Scenes\122a.jpg,94,0,95,,,,,,,f,1.7852371000335552,0.21595019998494536,None,,,,,,95,0,94,483.4077115000109,,,,,,,,,,,,,,,,,,,,,,,483.3917178999982,483.4077115000109,483.9084123999928,483.89210609998554,,,,,,,,,,,,,,,,,,,,,,,,,,483.9043522999855,483.9084123999928,483.9084123999928,483.9084123999928,486.90786219999427,486.90786219999427,486.90786219999427,486.89212939998833,f,1.7852371000335552,0.21595019998494536,486.8921958000283,486.8922095000162,None,,,,,,,,,,,,,,00047,001,2026-01-24_14h59.12.126,MST_task,2024.2.0,60.13670275049041,2026-01-24 14h59.23.742091 +0530,
,Scenes\136a.jpg,95,0,96,,,,,,,f,2.068311700015329,0.19993170001544058,None,,,,,,96,0,95,486.90786219999427,,,,,,,,,,,,,,,,,,,,,,,486.89231000002474,486.90786219999427,487.4086560999858,487.3919660000247,,,,,,,,,,,,,,,,,,,,,,,,,,487.39986870001303,487.4086560999858,487.4086560999858,487.4086560999858,490.4073859999771,490.4073859999771,490.4073859999771,490.3923900999944,f,2.068311700015329,0.19993170001544058,490.3924615000142,490.3924757000059,None,,,,,,,,,,,,,,00047,001,2026-01-24_14h59.12.126,MST_task,2024.2.0,60.13670275049041,2026-01-24 14h59.23.742091 +0530,
,Scenes\071a.jpg,96,0,97,,,,,,,j,2.5781686999835074,0.1840393000165932,None,,,,,,97,0,96,490.4073859999771,,,,,,,,,,,,,,,,,,,,,,,490.3925795999821,490.4073859999771,490.9147708999808,490.89133040001616,,,,,,,,,,,,,,,,,,,,,,,,,,490.91144250001526,490.9147708999808,490.9147708999808,490.9147708999808,,,,493.9077208000235,j,2.5781686999835074,0.1840393000165932,493.90779500000644,493.9078120000195,None,,,,,,,,,,,,,,00047,001,2026-01-24_14h59.12.126,MST_task,2024.2.0,60.13670275049041,2026-01-24 14h59.23.742091 +0530,
,Scenes\060a.jpg,97,0,98,,,,,,,j,0.9719611000036821,0.16786869999486953,None,,,,,,98,0,97,493.9241731999791,,,,,,,,,,,,,,,,,,,,,,,493.9079032000154,493.9241731999791,,494.4081103000208,,,,,,,,,,,,,,,,,,,,,,,,,,494.4223484999966,494.425134500023,494.425134500023,494.425134500023,,,,497.4086239999742,j,0.9719611000036821,0.16786869999486953,497.40871909999987,497.4087336999946,None,,,,,,,,,,,,,,00047,001,2026-01-24_14h59.12.126,MST_task,2024.2.0,60.13670275049041,2026-01-24 14h59.23.742091 +0530,
,Objects\078a.jpg,98,0,99,,,,,,,j,1.1520805999753065,0.16901070001767948,None,,,,,,99,0,98,497.4241449999972,,,,,,,,,,,,,,,,,,,,,,,497.40885629999684,497.4241449999972,497.9247269000043,497.9085937999771,,,,,,,,,,,,,,,,,,,,,,,,,,497.91980530001456,497.9247269000043,497.9247269000043,497.9247269000043,500.92440469999565,500.92440469999565,500.92440469999565,500.9092262000195,j,1.1520805999753065,0.16901070001767948,500.9093112000264,500.90932590002194,None,,,,,,,,,,,,,,00047,001,2026-01-24_14h59.12.126,MST_task,2024.2.0,60.13670275049041,2026-01-24 14h59.23.742091 +0530,
,Objects\143a.jpg,99,0,100,,,,,,,j,2.5485860999906436,0.1999105999711901,None,,,,,,100,0,99,500.92440469999565,,,,,,,,,,,,,,,,,,,,,,,500.9094228000031,500.92440469999565,501.42465360002825,501.4083711000276,,,,,,,,,,,,,,,,,,,,,,,,,,501.4121477000299,501.42465360002825,501.42465360002825,501.42465360002825,504.4241689000046,504.4241689000046,504.4241689000046,504.40847470000153,j,2.5485860999906436,0.1999105999711901,504.4085441000061,504.40855849999934,None,,,,,,,,,,,,,,00047,001,2026-01-24_14h59.12.126,MST_task,2024.2.0,60.13670275049041,2026-01-24 14h59.23.742091 +0530,
,Objects\103a.jpg,100,0,101,,,,,,,f,2.6169767000246793,0.24008359998697415,None,,,,,,101,0,100,504.4241689000046,,,,,,,,,,,,,,,,,,,,,,,504.4086362000089,504.4241689000046,504.9245290000108,504.90843640000094,,,,,,,,,,,,,,,,,,,,,,,,,,504.9125052000163,504.9245290000108,504.9245290000108,504.9245290000108,507.9246619999758,507.9246619999758,507.9246619999758,507.9085147000151,f,2.6169767000246793,0.24008359998697415,507.90858330001356,507.90859750000527,None,,,,,,,,,,,,,,00047,001,2026-01-24_14h59.12.126,MST_task,2024.2.0,60.13670275049041,2026-01-24 14h59.23.742091 +0530,
,Objects\119a.jpg,101,0,102,,,,,,,None,,,f,1.5093110000016168,None,,,,102,0,101,507.9246619999758,,,,,,,,,,,,,,,,,,,,,,,507.9087010999792,507.9246619999758,508.4245239000302,508.4085529000149,,,,,,,,,,,,,,,,,,,,,,,,,,508.4120192999835,508.4245239000302,508.4245239000302,508.4245239000302,511.4242072000052,511.4242072000052,511.4242072000052,511.40894170000684,None,,,511.40899939998053,512.9417175999843,f,511.4242072000052,511.4242072000052,1.5093110000016168,None,,,,,,,,,,00047,001,2026-01-24_14h59.12.126,MST_task,2024.2.0,60.13670275049041,2026-01-24 14h59.23.742091 +0530,
,Objects\053a.jpg,102,0,103,,,,,,,None,,,f,0.5148520999937318,None,,,,103,0,102,512.9577995000291,,,,,,,,,,,,,,,,,,,,,,,512.9418577000033,512.9577995000291,513.4583019000129,513.4418955000001,,,,,,,,,,,,,,,,,,,,,,,,,,513.4461278999806,513.4583019000129,513.4583019000129,513.4583019000129,,,,516.4419292000239,None,,,516.4420066999737,516.9756082000094,f,516.457992199983,516.457992199983,0.5148520999937318,None,,,,,,,,,,00047,001,2026-01-24_14h59.12.126,MST_task,2024.2.0,60.13670275049041,2026-01-24 14h59.23.742091 +0530,
,Objects\071a.jpg,103,0,104,,,,,,,j,1.2742154999868944,0.1436297000036575,None,,,,,,104,0,103,516.9910948000033,,,,,,,,,,,,,,,,,,,,,,,516.9757653999841,516.9910948000033,517.4911407000036,517.4747177999816,,,,,,,,,,,,,,,,,,,,,,,,,,517.4781564000295,517.4911407000036,517.4911407000036,517.4911407000036,520.4916961999843,520.4916961999843,520.4916961999843,520.4750261000008,j,1.2742154999868944,0.1436297000036575,520.4750946999993,520.4751097999979,None,,,,,,,,,,,,,,00047,001,2026-01-24_14h59.12.126,MST_task,2024.2.0,60.13670275049041,2026-01-24 14h59.23.742091 +0530,
,Objects\076a.jpg,104,0,105,,,,,,,j,1.317508900014218,0.1601601999718696,None,,,,,,105,0,104,520.4916961999843,,,,,,,,,,,,,,,,,,,,,,,520.4752156999893,520.4916961999843,520.9915049999836,520.975304600026,,,,,,,,,,,,,,,,,,,,,,,,,,520.9788673000294,520.9915049999836,520.9915049999836,520.9915049999836,,,,523.9754743999802,j,1.317508900014218,0.1601601999718696,523.975548300019,523.9755647000275,None,,,,,,,,,,,,,,00047,001,2026-01-24_14h59.12.126,MST_task,2024.2.0,60.13670275049041,2026-01-24 14h59.23.742091 +0530,
,Scenes\070a.jpg,105,0,106,,,,,,,f,2.452525799977593,0.19990320003125817,None,,,,,,106,0,105,523.9911986999796,,,,,,,,,,,,,,,,,,,,,,,523.9756843000068,523.9911986999796,524.4971961000119,524.4747816000017,,,,,,,,,,,,,,,,,,,,,,,,,,524.494335299998,524.4971961000119,524.4971961000119,524.4971961000119,,,,527.4920433000079,f,2.452525799977593,0.19990320003125817,527.4921257999958,527.4921410999959,None,,,,,,,,,,,,,,00047,001,2026-01-24_14h59.12.126,MST_task,2024.2.0,60.13670275049041,2026-01-24 14h59.23.742091 +0530,
,Scenes\191a.jpg,106,0,107,,,,,,,j,1.281306200020481,0.23229940002784133,None,,,,,,107,0,106,527.5078885999974,,,,,,,,,,,,,,,,,,,,,,,527.4922687999788,527.5078885999974,528.0117094999878,527.9923821000266,,,,,,,,,,,,,,,,,,,,,,,,,,528.0085140999872,528.0117094999878,528.0117094999878,528.0117094999878,,,,531.0082746000262,j,1.281306200020481,0.23229940002784133,531.0083585000248,531.0083761999849,None,,,,,,,,,,,,,,00047,001,2026-01-24_14h59.12.126,MST_task,2024.2.0,60.13670275049041,2026-01-24 14h59.23.742091 +0530,
,Scenes\169a.jpg,107,0,108,,,,,,,j,0.9367222000146285,0.20800949999829754,None,,,,,,108,0,107,531.0247576999827,,,,,,,,,,,,,,,,,,,,,,,531.0084886000259,531.0247576999827,,531.5084286999772,,,,,,,,,,,,,,,,,,,,,,,,,,531.5165857999818,531.5247944000294,531.5247944000294,531.5247944000294,534.5244689999963,534.5244689999963,534.5244689999963,534.5085506999749,j,0.9367222000146285,0.20800949999829754,534.5086246000137,534.508639000007,None,,,,,,,,,,,,,,00047,001,2026-01-24_14h59.12.126,MST_task,2024.2.0,60.13670275049041,2026-01-24 14h59.23.742091 +0530,
,Scenes\166a.jpg,108,0,109,,,,,,,j,0.955614999984391,0.28795110003557056,None,,,,,,109,0,108,534.5244689999963,,,,,,,,,,,,,,,,,,,,,,,534.5087217999971,534.5244689999963,535.0260144000058,535.0088126999908,,,,,,,,,,,,,,,,,,,,,,,,,,535.0230411000084,535.0260144000058,535.0260144000058,535.0260144000058,,,,538.0246889999835,j,0.955614999984391,0.28795110003557056,538.0247703000205,538.0247864000266,None,,,,,,,,,,,,,,00047,001,2026-01-24_14h59.12.126,MST_task,2024.2.0,60.13670275049041,2026-01-24 14h59.23.742091 +0530,
,Scenes\172a.jpg,109,0,110,,,,,,,j,1.407264799985569,0.2960032999981195,None,,,,,,110,0,109,538.0412254999974,,,,,,,,,,,,,,,,,,,,,,,538.0248896999983,538.0412254999974,538.5418692000094,538.5247027000296,,,,,,,,,,,,,,,,,,,,,,,,,,538.5325673000189,538.5418692000094,538.5418692000094,538.5418692000094,541.5411591000156,541.5411591000156,541.5411591000156,541.5250688000233,j,1.407264799985569,0.2960032999981195,541.5251427000039,541.5251584000071,None,,,,,,,,,,,,,,00047,001,2026-01-24_14h59.12.126,MST_task,2024.2.0,60.13670275049041,2026-01-24 14h59.23.742091 +0530,
,Scenes\129a.jpg,110,0,111,,,,,,,None,,,j,0.3548379999701865,None,,,,111,0,110,541.5411591000156,,,,,,,,,,,,,,,,,,,,,,,541.5252428000094,541.5411591000156,542.0430329000228,542.0246807999793,,,,,,,,,,,,,,,,,,,,,,,,,,542.0398292000173,542.0430329000228,542.0430329000228,542.0430329000228,,,,545.0412986000301,None,,,545.0413680999773,545.4251541999984,j,545.058026099985,545.058026099985,0.3548379999701865,None,,,,,,,,,,00047,001,2026-01-24_14h59.12.126,MST_task,2024.2.0,60.13670275049041,2026-01-24 14h59.23.742091 +0530,
,Scenes\176a.jpg,111,0,112,,,,,,,j,1.864498500013724,0.21555279998574406,None,,,,,,112,0,111,545.4418082999764,,,,,,,,,,,,,,,,,,,,,,,545.4252684999956,545.4418082999764,545.9487394000171,545.9249190000119,,,,,,,,,,,,,,,,,,,,,,,,,,545.9455538999755,545.9487394000171,545.9487394000171,545.9487394000171,,,,548.9415197999915,j,1.864498500013724,0.21555279998574406,548.9416030999855,548.9416205000016,None,,,,,,,,,,,,,,00047,001,2026-01-24_14h59.12.126,MST_task,2024.2.0,60.13670275049041,2026-01-24 14h59.23.742091 +0530,
,Objects\147a.jpg,112,0,113,,,,,,,f,0.9787404999951832,0.23987429996486753,None,,,,,,113,0,112,548.957921400026,,,,,,,,,,,,,,,,,,,,,,,548.9417212000117,548.957921400026,549.4584302000003,549.4413587999879,,,,,,,,,,,,,,,,,,,,,,,,,,549.4549101999728,549.4584302000003,549.4584302000003,549.4584302000003,,,,552.4417047000024,f,0.9787404999951832,0.23987429996486753,552.4417760000215,552.4417918000254,None,,,,,,,,,,,,,,00047,001,2026-01-24_14h59.12.126,MST_task,2024.2.0,60.13670275049041,2026-01-24 14h59.23.742091 +0530,
,Objects\082a.jpg,113,0,114,,,,,,,f,2.846923400007654,None,None,,,,,,114,0,113,552.4576845000265,,,,,,,,,,,,,,,,,,,,,,,552.4418774999795,552.4576845000265,552.9579811000149,552.9413265999756,,,,,,,,,,,,,,,,,,,,,,,,,,552.9453433000017,552.9579811000149,552.9579811000149,552.9579811000149,555.9576395999757,555.9576395999757,555.9576395999757,555.9420759999775,f,2.846923400007654,None,555.9421515000286,555.9421665000264,None,,,,,,,,,,,,,,00047,001,2026-01-24_14h59.12.126,MST_task,2024.2.0,60.13670275049041,2026-01-24 14h59.23.742091 +0530,
,Objects\092a.jpg,114,0,115,,,,,,,j,1.6596277999924496,0.1999175000237301,None,,,,,,115,0,114,555.9576395999757,,,,,,,,,,,,,,,,,,,,,,,555.9422940000077,555.9576395999757,556.4580484000035,556.4418221000233,,,,,,,,,,,,,,,,,,,,,,,,,,556.4458496000152,556.4580484000035,556.4580484000035,556.4580484000035,559.4579894000199,559.4579894000199,559.4579894000199,559.441850800009,j,1.6596277999924496,0.1999175000237301,559.4419210000196,559.4419356000144,None,,,,,,,,,,,,,,00047,001,2026-01-24_14h59.12.126,MST_task,2024.2.0,60.13670275049041,2026-01-24 14h59.23.742091 +0530,
,Objects\005a.jpg,115,0,116,,,,,,,f,1.5186083000153303,0.23198099998990074,None,,,,,,116,0,115,559.4579894000199,,,,,,,,,,,,,,,,,,,,,,,559.4420481999987,559.4579894000199,559.9586584999925,559.9416318000294,,,,,,,,,,,,,,,,,,,,,,,,,,559.9526325999759,559.9586584999925,559.9586584999925,559.9586584999925,562.958034500014,562.958034500014,562.958034500014,562.9420163999894,f,1.5186083000153303,0.23198099998990074,562.9420930999913,562.9421080999891,None,,,,,,,,,,,,,,00047,001,2026-01-24_14h59.12.126,MST_task,2024.2.0,60.13670275049041,2026-01-24 14h59.23.742091 +0530,
,Objects\120a.jpg,116,0,117,,,,,,,f,1.1232929000398144,0.19999900000402704,None,,,,,,117,0,116,562.958034500014,,,,,,,,,,,,,,,,,,,,,,,562.942223399994,562.958034500014,563.458055199997,563.4414676000015,,,,,,,,,,,,,,,,,,,,,,,,,,563.4518830999732,563.458055199997,563.458055199997,563.458055199997,566.4580287000281,566.4580287000281,566.4580287000281,566.4416947999853,f,1.1232929000398144,0.19999900000402704,566.4417594000115,566.4417726999964,None,,,,,,,,,,,,,,00047,001,2026-01-24_14h59.12.126,MST_task,2024.2.0,60.13670275049041,2026-01-24 14h59.23.742091 +0530,
,Objects\075a.jpg,117,0,118,,,,,,,None,,,j,0.3918646000092849,None,,,,118,0,117,566.4580287000281,,,,,,,,,,,,,,,,,,,,,,,566.4418491999968,566.4580287000281,566.9581331000081,566.9415578999906,,,,,,,,,,,,,,,,,,,,,,,,,,566.9523293999955,566.9581331000081,566.9581331000081,566.9581331000081,569.9577426000033,569.9577426000033,569.9577426000033,569.942091999983,None,,,569.9421612999868,570.3589095000061,j,569.9577426000033,569.9577426000033,0.3918646000092849,None,,,,,,,,,,00047,001,2026-01-24_14h59.12.126,MST_task,2024.2.0,60.13670275049041,2026-01-24 14h59.23.742091 +0530,
,Objects\087a.jpg,118,0,119,,,,,,,j,1.6420116000226699,0.11151269997935742,None,,,,,,119,0,118,570.3743379000225,,,,,,,,,,,,,,,,,,,,,,,570.359072900028,570.3743379000225,570.8754001000198,570.8587966000196,,,,,,,,,,,,,,,,,,,,,,,,,,570.8622782999882,570.8754001000198,570.8754001000198,570.8754001000198,573.874165199988,573.874165199988,573.874165199988,573.8586451999727,j,1.6420116000226699,0.11151269997935742,573.8587145999772,573.8587293999735,None,,,,,,,,,,,,,,00047,001,2026-01-24_14h59.12.126,MST_task,2024.2.0,60.13670275049041,2026-01-24 14h59.23.742091 +0530,
,Scenes\131a.jpg,119,0,120,,,,,,,j,0.8541198000311852,0.16812429996207356,None,,,,,,120,0,119,573.874165199988,,,,,,,,,,,,,,,,,,,,,,,573.8588383999886,573.874165199988,574.3747570000123,574.3585985000245,,,,,,,,,,,,,,,,,,,,,,,,,,574.3711048000259,574.3747570000123,574.3747570000123,574.3747570000123,577.3745513000176,577.3745513000176,577.3745513000176,577.3586656000116,j,0.8541198000311852,0.16812429996207356,577.3587519000284,577.3587690999848,None,,,,,,,,,,,,,,00047,001,2026-01-24_14h59.12.126,MST_task,2024.2.0,60.13670275049041,2026-01-24 14h59.23.742091 +0530,
,Scenes\155a.jpg,120,0,121,,,,,,,j,0.8915428000036627,0.14375559997279197,None,,,,,,121,0,120,577.3745513000176,,,,,,,,,,,,,,,,,,,,,,,577.3588532999856,577.3745513000176,577.8815356999985,577.8587098999997,,,,,,,,,,,,,,,,,,,,,,,,,,577.8789112999802,577.8815356999985,577.8815356999985,577.8815356999985,,,,580.8750168000115,j,0.8915428000036627,0.14375559997279197,580.8751094000181,580.875125200022,None,,,,,,,,,,,,,,00047,001,2026-01-24_14h59.12.126,MST_task,2024.2.0,60.13670275049041,2026-01-24 14h59.23.742091 +0530,
,Scenes\034a.jpg,121,0,122,,,,,,,j,1.4427970999968238,0.16002700000535697,None,,,,,,122,0,121,580.8912186999805,,,,,,,,,,,,,,,,,,,,,,,580.8752508999896,580.8912186999805,581.3948540000129,581.3745329999947,,,,,,,,,,,,,,,,,,,,,,,,,,581.3918002999853,581.3948540000129,581.3948540000129,581.3948540000129,,,,584.3915213000146,j,1.4427970999968238,0.16002700000535697,584.3916481999913,584.3916652000044,None,,,,,,,,,,,,,,00047,001,2026-01-24_14h59.12.126,MST_task,2024.2.0,60.13670275049041,2026-01-24 14h59.23.742091 +0530,
,Scenes\072a.jpg,122,0,123,,,,,,,j,0.7918891999870539,0.1533204999868758,None,,,,,,123,0,122,584.4080000999966,,,,,,,,,,,,,,,,,,,,,,,584.391799999983,584.4080000999966,584.9090810000198,584.8921890999773,,,,,,,,,,,,,,,,,,,,,,,,,,584.9043218999868,584.9090810000198,584.9090810000198,584.9090810000198,587.9082834000001,587.9082834000001,587.9082834000001,587.8922161000082,j,0.7918891999870539,0.1533204999868758,587.8922859000158,587.892305699992,None,,,,,,,,,,,,,,00047,001,2026-01-24_14h59.12.126,MST_task,2024.2.0,60.13670275049041,2026-01-24 14h59.23.742091 +0530,
,Scenes\184a.jpg,123,0,124,,,,,,,j,2.1723802000051364,0.14449919998878613,None,,,,,,124,0,123,587.9082834000001,,,,,,,,,,,,,,,,,,,,,,,587.8924185999786,587.9082834000001,588.4084725999855,588.3918158999877,,,,,,,,,,,,,,,,,,,,,,,,,,588.4000806999975,588.4084725999855,588.4084725999855,588.4084725999855,591.4078755999799,591.4078755999799,591.4078755999799,591.3920644000173,j,2.1723802000051364,0.14449919998878613,591.3921315000043,591.392145299993,None,,,,,,,,,,,,,,00047,001,2026-01-24_14h59.12.126,MST_task,2024.2.0,60.13670275049041,2026-01-24 14h59.23.742091 +0530,
,Scenes\103a.jpg,124,0,125,,,,,,,f,1.5295492999721318,0.23988360003568232,None,,,,,,125,0,124,591.4078755999799,,,,,,,,,,,,,,,,,,,,,,,591.392221999995,591.4078755999799,591.9081092000124,591.8913989000139,,,,,,,,,,,,,,,,,,,,,,,,,,591.9036278999993,591.9081092000124,591.9081092000124,591.9081092000124,594.908153700002,594.908153700002,594.908153700002,594.89179959998,f,1.5295492999721318,0.23988360003568232,594.8918666000245,594.8918801000109,None,,,,,,,,,,,,,,00047,001,2026-01-24_14h59.12.126,MST_task,2024.2.0,60.13670275049041,2026-01-24 14h59.23.742091 +0530,
,Scenes\149a.jpg,125,0,126,,,,,,,f,1.5086512000416405,0.21610429999418557,None,,,,,,126,0,125,594.908153700002,,,,,,,,,,,,,,,,,,,,,,,594.8919825999765,594.908153700002,595.4081367999897,595.3914775000303,,,,,,,,,,,,,,,,,,,,,,,,,,595.4023019000306,595.4081367999897,595.4081367999897,595.4081367999897,,,,598.392038799997,f,1.5086512000416405,0.21610429999418557,598.3921399000101,598.3921567000216,None,,,,,,,,,,,,,,00047,001,2026-01-24_14h59.12.126,MST_task,2024.2.0,60.13670275049041,2026-01-24 14h59.23.742091 +0530,
,Objects\152a.jpg,126,0,127,,,,,,,f,1.3529085000045598,0.22337409999454394,None,,,,,,127,0,126,598.4077978000278,,,,,,,,,,,,,,,,,,,,,,,598.3922547000111,598.4077978000278,598.9084777000244,598.8917745000217,,,,,,,,,,,,,,,,,,,,,,,,,,598.8960765000083,598.9084777000244,598.9084777000244,598.9084777000244,601.9080669999821,601.9080669999821,601.9080669999821,601.89179590001,f,1.3529085000045598,0.22337409999454394,601.8918669000268,601.8918821000261,None,,,,,,,,,,,,,,00047,001,2026-01-24_14h59.12.126,MST_task,2024.2.0,60.13670275049041,2026-01-24 14h59.23.742091 +0530,
,Objects\186a.jpg,127,0,128,,,,,,,f,2.8775678999954835,None,None,,,,,,128,0,127,601.9080669999821,,,,,,,,,,,,,,,,,,,,,,,601.8919927999959,601.9080669999821,602.4081877000281,602.3914240999729,,,,,,,,,,,,,,,,,,,,,,,,,,602.4037425999995,602.4081877000281,602.4081877000281,602.4081877000281,605.4080024000141,605.4080024000141,605.4080024000141,605.3918210000265,f,2.8775678999954835,None,605.3918898000265,605.3919043000205,None,,,,,,,,,,,,,,00047,001,2026-01-24_14h59.12.126,MST_task,2024.2.0,60.13670275049041,2026-01-24 14h59.23.742091 +0530,
,Objects\040a.jpg,128,0,129,,,,,,,f,0.9211715999990702,0.2320167000289075,None,,,,,,129,0,128,605.4080024000141,,,,,,,,,,,,,,,,,,,,,,,605.3919842999894,605.4080024000141,605.9082844000077,605.8912616000162,,,,,,,,,,,,,,,,,,,,,,,,,,605.9021448999993,605.9082844000077,605.9082844000077,605.9082844000077,608.9076085999841,608.9076085999841,608.9076085999841,608.8920091000036,f,0.9211715999990702,0.2320167000289075,608.8920767999953,608.8920912999893,None,,,,,,,,,,,,,,00047,001,2026-01-24_14h59.12.126,MST_task,2024.2.0,60.13670275049041,2026-01-24 14h59.23.742091 +0530,
,Objects\015a.jpg,129,0,130,,,,,,,f,2.3811300999950618,0.18408440001076087,None,,,,,,130,0,129,608.9076085999841,,,,,,,,,,,,,,,,,,,,,,,608.8921734999749,608.9076085999841,609.407967999985,609.3912697000196,,,,,,,,,,,,,,,,,,,,,,,,,,609.3957037000218,609.407967999985,609.407967999985,609.407967999985,612.4077493000077,612.4077493000077,612.4077493000077,612.3922172000166,f,2.3811300999950618,0.18408440001076087,612.3922905999934,612.3923044999829,None,,,,,,,,,,,,,,00047,001,2026-01-24_14h59.12.126,MST_task,2024.2.0,60.13670275049041,2026-01-24 14h59.23.742091 +0530,
,Objects\083a.jpg,130,0,131,,,,,,,f,2.1848140000365674,0.22401830001035705,None,,,,,,131,0,130,612.4077493000077,,,,,,,,,,,,,,,,,,,,,,,612.3924046999891,612.4077493000077,612.9081335000228,612.8913233000203,,,,,,,,,,,,,,,,,,,,,,,,,,612.8949119999888,612.9081335000228,612.9081335000228,612.9081335000228,615.9076434000162,615.9076434000162,615.9076434000162,615.8919898999739,f,2.1848140000365674,0.22401830001035705,615.8920646000188,615.8920798000181,None,,,,,,,,,,,,,,00047,001,2026-01-24_14h59.12.126,MST_task,2024.2.0,60.13670275049041,2026-01-24 14h59.23.742091 +0530,
,Objects\160a.jpg,131,0,132,,,,,,,None,,,j,0.10138560004997998,None,,,,132,0,131,615.9076434000162,,,,,,,,,,,,,,,,,,,,,,,615.8921720000217,615.9076434000162,616.4079288999783,616.3923685000045,,,,,,,,,,,,,,,,,,,,,,,,,,616.3961960999877,616.4079288999783,616.4079288999783,616.4079288999783,619.408072900027,619.408072900027,619.408072900027,619.3920567000168,None,,,619.3921335000196,619.5247467000154,j,619.408072900027,619.408072900027,0.10138560004997998,None,,,,,,,,,,00047,001,2026-01-24_14h59.12.126,MST_task,2024.2.0,60.13670275049041,2026-01-24 14h59.23.742091 +0530,
,Objects\172a.jpg,132,0,133,,,,,,,j,0.9241342000314035,0.1839365999912843,None,,,,,,133,0,132,619.5413675999735,,,,,,,,,,,,,,,,,,,,,,,619.5248656999902,619.5413675999735,620.0413494000095,620.024924599973,,,,,,,,,,,,,,,,,,,,,,,,,,620.0377421000157,620.0413494000095,620.0413494000095,620.0413494000095,623.0411520000198,623.0411520000198,623.0411520000198,623.0254320999957,j,0.9241342000314035,0.1839365999912843,623.0255010999972,623.0255158999935,None,,,,,,,,,,,,,,00047,001,2026-01-24_14h59.12.126,MST_task,2024.2.0,60.13670275049041,2026-01-24 14h59.23.742091 +0530,
,Scenes\063a.jpg,133,0,134,,,,,,,j,0.9220098000369035,0.18458519998239353,None,,,,,,134,0,133,623.0411520000198,,,,,,,,,,,,,,,,,,,,,,,623.025630899996,623.0411520000198,623.5467318000156,623.5243506000261,,,,,,,,,,,,,,,,,,,,,,,,,,623.5438270000159,623.5467318000156,623.5467318000156,623.5467318000156,,,,626.5418077000068,j,0.9220098000369035,0.18458519998239353,626.5419006000157,626.5419168000226,None,,,,,,,,,,,,,,00047,001,2026-01-24_14h59.12.126,MST_task,2024.2.0,60.13670275049041,2026-01-24 14h59.23.742091 +0530,
,Scenes\013a.jpg,134,0,135,,,,,,,j,1.028775000013411,0.18401140003697947,None,,,,,,135,0,134,626.5576401000144,,,,,,,,,,,,,,,,,,,,,,,626.542038500018,626.5576401000144,627.0647482000059,627.041542800027,,,,,,,,,,,,,,,,,,,,,,,,,,627.0614595999941,627.0647482000059,627.0647482000059,627.0647482000059,,,,630.0586622999981,j,1.028775000013411,0.18401140003697947,630.0587394000031,630.05875560001,None,,,,,,,,,,,,,,00047,001,2026-01-24_14h59.12.126,MST_task,2024.2.0,60.13670275049041,2026-01-24 14h59.23.742091 +0530,
,Scenes\161a.jpg,135,0,136,,,,,,,j,0.8301616000244394,0.21612709999317303,None,,,,,,136,0,135,630.0743177999975,,,,,,,,,,,,,,,,,,,,,,,630.0588859000127,630.0743177999975,630.5751995000173,630.5582715999917,,,,,,,,,,,,,,,,,,,,,,,,,,630.5705937999883,630.5751995000173,630.5751995000173,630.5751995000173,633.5746510999743,633.5746510999743,633.5746510999743,633.5592647999874,j,0.8301616000244394,0.21612709999317303,633.5593459000229,633.5593642999884,None,,,,,,,,,,,,,,00047,001,2026-01-24_14h59.12.126,MST_task,2024.2.0,60.13670275049041,2026-01-24 14h59.23.742091 +0530,
,Scenes\106a.jpg,136,0,137,,,,,,,j,1.0030781999812461,0.17611060000490397,None,,,,,,137,0,136,633.5746510999743,,,,,,,,,,,,,,,,,,,,,,,633.5594911000226,633.5746510999743,634.0744871000061,634.0582215000177,,,,,,,,,,,,,,,,,,,,,,,,,,634.0705476999865,634.0744871000061,634.0744871000061,634.0744871000061,637.0744938999997,637.0744938999997,637.0744938999997,637.0590236000135,j,1.0030781999812461,0.17611060000490397,637.0590857000207,637.059099200007,None,,,,,,,,,,,,,,00047,001,2026-01-24_14h59.12.126,MST_task,2024.2.0,60.13670275049041,2026-01-24 14h59.23.742091 +0530,
,Scenes\028a.jpg,137,0,138,,,,,,,j,0.8462599000195041,0.19239629997173324,None,,,,,,138,0,137,637.0744938999997,,,,,,,,,,,,,,,,,,,,,,,637.0591986000072,637.0744938999997,637.5748120999779,637.5584039000096,,,,,,,,,,,,,,,,,,,,,,,,,,637.5669736000127,637.5748120999779,637.5748120999779,637.5748120999779,640.5746456999914,640.5746456999914,640.5746456999914,640.5591353999916,j,0.8462599000195041,0.19239629997173324,640.5592034999863,640.5592184999841,None,,,,,,,,,,,,,,00047,001,2026-01-24_14h59.12.126,MST_task,2024.2.0,60.13670275049041,2026-01-24 14h59.23.742091 +0530,
,Scenes\092a.jpg,138,0,139,,,,,,,j,2.6380956000066362,0.33587760000955313,None,,,,,,139,0,138,640.5746456999914,,,,,,,,,,,,,,,,,,,,,,,640.5593233000254,640.5746456999914,641.079372600012,641.0579574999865,,,,,,,,,,,,,,,,,,,,,,,,,,641.0763195999898,641.079372600012,641.079372600012,641.079372600012,,,,644.0745714000077,j,2.6380956000066362,0.33587760000955313,644.0746635000105,644.0746784000075,None,,,,,,,,,,,,,,00047,001,2026-01-24_14h59.12.126,MST_task,2024.2.0,60.13670275049041,2026-01-24 14h59.23.742091 +0530,
,Scenes\042a.jpg,139,0,140,,,,,,,j,1.7414588000392541,0.2080129999667406,None,,,,,,140,0,139,644.0910345999873,,,,,,,,,,,,,,,,,,,,,,,644.0747679999913,644.0910345999873,644.5915054000216,644.5748210999882,,,,,,,,,,,,,,,,,,,,,,,,,,644.5833264000248,644.5915054000216,644.5915054000216,644.5915054000216,647.5910139000043,647.5910139000043,647.5910139000043,647.5754388999776,j,1.7414588000392541,0.2080129999667406,647.5755162999849,647.5755314999842,None,,,,,,,,,,,,,,00047,001,2026-01-24_14h59.12.126,MST_task,2024.2.0,60.13670275049041,2026-01-24 14h59.23.742091 +0530,
,Objects\007a.jpg,140,0,141,,,,,,,f,2.1138003999949433,0.21584110002731904,None,,,,,,141,0,140,647.5910139000043,,,,,,,,,,,,,,,,,,,,,,,647.5756377999787,647.5910139000043,648.0915931999916,648.0747807000298,,,,,,,,,,,,,,,,,,,,,,,,,,648.0792117000092,648.0915931999916,648.0915931999916,648.0915931999916,651.091006600007,651.091006600007,651.091006600007,651.0751586999977,f,2.1138003999949433,0.21584110002731904,651.0752231000224,651.0752378000179,None,,,,,,,,,,,,,,00047,001,2026-01-24_14h59.12.126,MST_task,2024.2.0,60.13670275049041,2026-01-24 14h59.23.742091 +0530,
,Objects\174a.jpg,141,0,142,,,,,,,f,1.8456219999934547,0.1759351000073366,None,,,,,,142,0,141,651.091006600007,,,,,,,,,,,,,,,,,,,,,,,651.0753409999888,651.091006600007,651.5915249999962,651.5754130000132,,,,,,,,,,,,,,,,,,,,,,,,,,651.5791732000071,651.5915249999962,651.5915249999962,651.5915249999962,654.5917647000169,654.5917647000169,654.5917647000169,654.5753503000014,f,1.8456219999934547,0.1759351000073366,654.5754263999988,654.5754397999845,None,,,,,,,,,,,,,,00047,001,2026-01-24_14h59.12.126,MST_task,2024.2.0,60.13670275049041,2026-01-24 14h59.23.742091 +0530,
,Objects\055a.jpg,142,0,143,,,,,,,f,1.1150603999849409,0.19895699998596683,None,,,,,,143,0,142,654.5917647000169,,,,,,,,,,,,,,,,,,,,,,,654.575542400009,654.5917647000169,655.0913247999852,655.0748954000301,,,,,,,,,,,,,,,,,,,,,,,,,,655.0865333999973,655.0913247999852,655.0913247999852,655.0913247999852,658.0912699999753,658.0912699999753,658.0912699999753,658.0751517000026,f,1.1150603999849409,0.19895699998596683,658.0752266999916,658.0752456000191,None,,,,,,,,,,,,,,00047,001,2026-01-24_14h59.12.126,MST_task,2024.2.0,60.13670275049041,2026-01-24 14h59.23.742091 +0530,
,Objects\149a.jpg,143,0,144,,,,,,,f,1.1500032999902032,0.1913957999786362,None,,,,,,144,0,143,658.0912699999753,,,,,,,,,,,,,,,,,,,,,,,658.0753344999976,658.0912699999753,658.5916487000068,658.5750824999996,,,,,,,,,,,,,,,,,,,,,,,,,,658.5786667999928,658.5916487000068,658.5916487000068,658.5916487000068,661.5911048999988,661.5911048999988,661.5911048999988,661.5750620000181,f,1.1500032999902032,0.1913957999786362,661.5751286000013,661.575148999982,None,,,,,,,,,,,,,,00047,001,2026-01-24_14h59.12.126,MST_task,2024.2.0,60.13670275049041,2026-01-24 14h59.23.742091 +0530,
,Objects\189a.jpg,144,0,145,,,,,,,f,1.801905199943576,0.21593680005753413,None,,,,,,145,0,144,661.5911048999988,,,,,,,,,,,,,,,,,,,,,,,661.5752784999786,661.5911048999988,662.0914216000238,662.0749741999898,,,,,,,,,,,,,,,,,,,,,,,,,,662.0864924999769,662.0914216000238,662.0914216000238,662.0914216000238,665.0910793999792,665.0910793999792,665.0910793999792,665.0758459999925,f,1.801905199943576,0.21593680005753413,665.0759194000275,665.0759340000222,None,,,,,,,,,,,,,,00047,001,2026-01-24_14h59.12.126,MST_task,2024.2.0,60.13670275049041,2026-01-24 14h59.23.742091 +0530,
,Objects\010a.jpg,145,0,146,,,,,,,f,2.261681400006637,0.21589699998730794,None,,,,,,146,0,145,665.0910793999792,,,,,,,,,,,,,,,,,,,,,,,665.0760360999848,665.0910793999792,665.5917741000303,665.5743706999929,,,,,,,,,,,,,,,,,,,,,,,,,,665.5851021999842,665.5917741000303,665.5917741000303,665.5917741000303,668.5915105000022,668.5915105000022,668.5915105000022,668.5756204000209,f,2.261681400006637,0.21589699998730794,668.575686199998,668.5756994999829,None,,,,,,,,,,,,,,00047,001,2026-01-24_14h59.12.126,MST_task,2024.2.0,60.13670275049041,2026-01-24 14h59.23.742091 +0530,
,Objects\057a.jpg,146,0,147,,,,,,,f,1.0093211999628693,0.22479810001095757,None,,,,,,147,0,146,668.5915105000022,,,,,,,,,,,,,,,,,,,,,,,668.5757880000165,668.5915105000022,669.0914523000247,669.0746393000009,,,,,,,,,,,,,,,,,,,,,,,,,,669.0781030000071,669.0914523000247,669.0914523000247,669.0914523000247,672.0909183999756,672.0909183999756,672.0909183999756,672.0748603999964,f,1.0093211999628693,0.22479810001095757,672.0749251000234,672.0749391000136,None,,,,,,,,,,,,,,00047,001,2026-01-24_14h59.12.126,MST_task,2024.2.0,60.13670275049041,2026-01-24 14h59.23.742091 +0530,
,Scenes\117a.jpg,147,0,148,,,,,,,j,1.4501329999766313,0.2242227999959141,None,,,,,,148,0,147,672.0909183999756,,,,,,,,,,,,,,,,,,,,,,,672.0750201999908,672.0909183999756,,672.5753125000047,,,,,,,,,,,,,,,,,,,,,,,,,,672.5916972000268,672.594710299978,672.594710299978,672.594710299978,,,,675.5750044999877,j,1.4501329999766313,0.2242227999959141,675.5750849000178,675.5751007000217,None,,,,,,,,,,,,,,00047,001,2026-01-24_14h59.12.126,MST_task,2024.2.0,60.13670275049041,2026-01-24 14h59.23.742091 +0530,
,Scenes\145a.jpg,148,0,149,,,,,,,j,1.1293995000305586,0.21594959998037666,None,,,,,,149,0,148,675.5914865999948,,,,,,,,,,,,,,,,,,,,,,,675.5752142000129,675.5914865999948,,676.0755500000087,,,,,,,,,,,,,,,,,,,,,,,,,,676.0879573000129,676.09230020002,676.09230020002,676.09230020002,,,,679.0913781999843,j,1.1293995000305586,0.21594959998037666,679.091457100003,679.0914722000016,None,,,,,,,,,,,,,,00047,001,2026-01-24_14h59.12.126,MST_task,2024.2.0,60.13670275049041,2026-01-24 14h59.23.742091 +0530,
,Scenes\062a.jpg,149,0,150,,,,,,,j,0.9496887000277638,0.19947370002046227,None,,,,,,150,0,149,679.107897799986,,,,,,,,,,,,,,,,,,,,,,,679.0915997999837,679.107897799986,679.6079526999965,679.5912989000208,,,,,,,,,,,,,,,,,,,,,,,,,,679.6036927999812,679.6079526999965,679.6079526999965,679.6079526999965,682.6080947999726,682.6080947999726,682.6080947999726,682.5918124999735,j,0.9496887000277638,0.19947370002046227,682.5918801000225,682.5918947000173,None,,,,,,,,,,,,,,00047,001,2026-01-24_14h59.12.126,MST_task,2024.2.0,60.13670275049041,2026-01-24 14h59.23.742091 +0530,
,Scenes\016a.jpg,150,0,151,,,,,,,j,0.921090500021819,0.24792519997572526,None,,,,,,151,0,150,682.6080947999726,,,,,,,,,,,,,,,,,,,,,,,682.5919982999912,682.6080947999726,683.1083972000051,683.0913215000182,,,,,,,,,,,,,,,,,,,,,,,,,,683.0961375000188,683.1083972000051,683.1083972000051,683.1083972000051,686.1076135999756,686.1076135999756,686.1076135999756,686.0921322000213,j,0.921090500021819,0.24792519997572526,686.0922012000228,686.0922158000176,None,,,,,,,,,,,,,,00047,001,2026-01-24_14h59.12.126,MST_task,2024.2.0,60.13670275049041,2026-01-24 14h59.23.742091 +0530,
,Scenes\047a.jpg,151,0,152,,,,,,,j,1.2049380000098608,0.23192779999226332,None,,,,,,152,0,151,686.1076135999756,,,,,,,,,,,,,,,,,,,,,,,686.092314700014,686.1076135999756,686.6087050000206,686.5919766000006,,,,,,,,,,,,,,,,,,,,,,,,,,686.6044753000024,686.6087050000206,686.6087050000206,686.6087050000206,689.6080405000248,689.6080405000248,689.6080405000248,689.5922360999975,j,1.2049380000098608,0.23192779999226332,689.592313000001,689.5923269999912,None,,,,,,,,,,,,,,00047,001,2026-01-24_14h59.12.126,MST_task,2024.2.0,60.13670275049041,2026-01-24 14h59.23.742091 +0530,
,Scenes\180a.jpg,152,0,153,,,,,,,j,0.944140299980063,0.2240371000370942,None,,,,,,153,0,152,689.6080405000248,,,,,,,,,,,,,,,,,,,,,,,689.5924398999778,689.6080405000248,690.1089443999808,690.0913008999778,,,,,,,,,,,,,,,,,,,,,,,,,,690.0997422999935,690.1089443999808,690.1089443999808,690.1089443999808,,,,693.1080718000303,j,0.944140299980063,0.2240371000370942,693.1081630000263,693.1081786000286,None,,,,,,,,,,,,,,00047,001,2026-01-24_14h59.12.126,MST_task,2024.2.0,60.13670275049041,2026-01-24 14h59.23.742091 +0530,
,Scenes\150a.jpg,153,0,154,,,,,,,j,1.219714499951806,0.28876630001468584,None,,,,,,154,0,153,693.1242886999971,,,,,,,,,,,,,,,,,,,,,,,693.1082858999725,693.1242886999971,693.6251021000207,693.6081357999938,,,,,,,,,,,,,,,,,,,,,,,,,,693.6175576000242,693.6251021000207,693.6251021000207,693.6251021000207,,,,696.6091869000229,j,1.219714499951806,0.28876630001468584,696.6092609000043,696.6092814999865,None,,,,,,,,,,,,,,00047,001,2026-01-24_14h59.12.126,MST_task,2024.2.0,60.13670275049041,2026-01-24 14h59.23.742091 +0530,
,Objects\116a.jpg,154,0,155,,,,,,,j,1.6563627999858,0.24836600001435727,None,,,,,,155,0,154,696.6242903000093,,,,,,,,,,,,,,,,,,,,,,,696.609399900015,696.6242903000093,697.1247744000284,697.1083597000106,,,,,,,,,,,,,,,,,,,,,,,,,,697.1125644000131,697.1247744000284,697.1247744000284,697.1247744000284,700.1245698999846,700.1245698999846,700.1245698999846,700.1086187000037,j,1.6563627999858,0.24836600001435727,700.1086972000194,700.1087137000286,None,,,,,,,,,,,,,,00047,001,2026-01-24_14h59.12.126,MST_task,2024.2.0,60.13670275049041,2026-01-24 14h59.23.742091 +0530,
,Objects\179a.jpg,155,0,156,,,,,,,f,2.541007600026205,0.19191689998842776,None,,,,,,156,0,155,700.1245698999846,,,,,,,,,,,,,,,,,,,,,,,700.1088312999927,700.1245698999846,700.6245221000281,700.6079342000303,,,,,,,,,,,,,,,,,,,,,,,,,,700.6117125999881,700.6245221000281,700.6245221000281,700.6245221000281,703.6246435000212,703.6246435000212,703.6246435000212,703.6086910999729,f,2.541007600026205,0.19191689998842776,703.6087613999844,703.6087756999768,None,,,,,,,,,,,,,,00047,001,2026-01-24_14h59.12.126,MST_task,2024.2.0,60.13670275049041,2026-01-24 14h59.23.742091 +0530,
,Objects\097a.jpg,156,0,157,,,,,,,j,0.9360254000057466,0.21701199997914955,None,,,,,,157,0,156,703.6246435000212,,,,,,,,,,,,,,,,,,,,,,,703.6088738000253,703.6246435000212,704.1248494000174,704.1083721999894,,,,,,,,,,,,,,,,,,,,,,,,,,704.1119852000265,704.1248494000174,704.1248494000174,704.1248494000174,,,,707.1092796000303,j,0.9360254000057466,0.21701199997914955,707.1093531000079,707.1093679000041,None,,,,,,,,,,,,,,00047,001,2026-01-24_14h59.12.126,MST_task,2024.2.0,60.13670275049041,2026-01-24 14h59.23.742091 +0530,
,Objects\091a.jpg,157,0,158,,,,,,,j,1.5248540999600664,0.21579410001868382,None,,,,,,158,0,157,707.1244076000294,,,,,,,,,,,,,,,,,,,,,,,707.1094636999769,707.1244076000294,707.6246649000095,707.608318899991,,,,,,,,,,,,,,,,,,,,,,,,,,707.6116982999956,707.6246649000095,707.6246649000095,707.6246649000095,710.6245891000144,710.6245891000144,710.6245891000144,710.6091090000118,j,1.5248540999600664,0.21579410001868382,710.6091832999955,710.6091980999918,None,,,,,,,,,,,,,,00047,001,2026-01-24_14h59.12.126,MST_task,2024.2.0,60.13670275049041,2026-01-24 14h59.23.742091 +0530,
,Objects\061a.jpg,158,0,159,,,,,,,j,1.3364739999524318,0.2162302000215277,None,,,,,,159,0,158,710.6245891000144,,,,,,,,,,,,,,,,,,,,,,,710.609304499987,710.6245891000144,711.1247728000162,711.1079109000275,,,,,,,,,,,,,,,,,,,,,,,,,,711.1116374999983,711.1247728000162,711.1247728000162,711.1247728000162,714.1244051000103,714.1244051000103,714.1244051000103,714.1085062000202,j,1.3364739999524318,0.2162302000215277,714.1085957000032,714.1086104999995,None,,,,,,,,,,,,,,00047,001,2026-01-24_14h59.12.126,MST_task,2024.2.0,60.13670275049041,2026-01-24 14h59.23.742091 +0530,
,Objects\155a.jpg,159,0,160,,,,,,,f,1.6609234999632463,0.21599240001523867,None,,,,,,160,0,159,714.1244051000103,,,,,,,,,,,,,,,,,,,,,,,714.1087205000222,714.1244051000103,714.6245517000207,714.6084199000034,,,,,,,,,,,,,,,,,,,,,,,,,,714.6124688999844,714.6245517000207,714.6245517000207,714.6245517000207,717.6243534000241,717.6243534000241,717.6243534000241,717.6082802999881,f,1.6609234999632463,0.21599240001523867,717.6083512000041,717.6083658999996,None,,,,,,,,,,,,,,00047,001,2026-01-24_14h59.12.126,MST_task,2024.2.0,60.13670275049041,2026-01-24 14h59.23.742091 +0530,
,Objects\104a.jpg,160,0,161,,,,,,,f,1.217245500010904,0.2155977999791503,None,,,,,,161,0,160,717.6243534000241,,,,,,,,,,,,,,,,,,,,,,,717.6084720999934,717.6243534000241,718.1243354000035,718.1078722000238,,,,,,,,,,,,,,,,,,,,,,,,,,718.1189779000124,718.1243354000035,718.1243354000035,718.1243354000035,721.1245266000042,721.1245266000042,721.1245266000042,721.1088210999733,f,1.217245500010904,0.2155977999791503,721.10889209999,721.1089060999802,None,,,,,,,,,,,,,,00047,001,2026-01-24_14h59.12.126,MST_task,2024.2.0,60.13670275049041,2026-01-24 14h59.23.742091 +0530,
,Scenes\009a.jpg,161,0,162,,,,,,,f,2.068627699976787,0.17592409998178482,None,,,,,,162,0,161,721.1245266000042,,,,,,,,,,,,,,,,,,,,,,,721.1090138999862,721.1245266000042,721.6248499000212,721.6083805999951,,,,,,,,,,,,,,,,,,,,,,,,,,721.6217190999887,721.6248499000212,721.6248499000212,721.6248499000212,,,,724.6090311000007,f,2.068627699976787,0.17592409998178482,724.609112199978,724.6091294999933,None,,,,,,,,,,,,,,00047,001,2026-01-24_14h59.12.126,MST_task,2024.2.0,60.13670275049041,2026-01-24 14h59.23.742091 +0530,
,Scenes\160a.jpg,162,0,163,,,,,,,j,1.080680199956987,0.16710780002176762,None,,,,,,163,0,162,724.6242193999933,,,,,,,,,,,,,,,,,,,,,,,724.6092275999836,724.6242193999933,725.1248439999763,725.1079270999762,,,,,,,,,,,,,,,,,,,,,,,,,,725.1168190999888,725.1248439999763,725.1248439999763,725.1248439999763,728.1252684000065,728.1252684000065,728.1252684000065,728.108756600006,j,1.080680199956987,0.16710780002176762,728.1088279000251,728.108842000016,None,,,,,,,,,,,,,,00047,001,2026-01-24_14h59.12.126,MST_task,2024.2.0,60.13670275049041,2026-01-24 14h59.23.742091 +0530,
