thisN,thisTrialN,thisRepN,key_resp_3.keys,key_resp_3.rt,key_resp_3.duration,trials.thisRepN,trials.thisTrialN,trials.thisN,thisRow.t,notes,intro_page.started,text.started,key_resp.started,intro_page.stopped,key_resp.keys,key_resp.rt,key_resp.duration,instructions.started,text_2.started,key_resp_2.started,instructions.stopped,key_resp_2.keys,key_resp_2.rt,key_resp_2.duration,demo1.started,image_1.started,image_2.started,text_7.started,key_resp_6.started,text_9.started,demo1.stopped,key_resp_6.keys,key_resp_6.rt,key_resp_6.duration,demo2.started,image_5.started,image_6.started,text_11.started,text_12.started,key_resp_8.started,demo2.stopped,key_resp_8.keys,key_resp_8.rt,key_resp_8.duration,demo_conclusion.started,text_13.started,key_resp_9.started,demo_conclusion.stopped,key_resp_9.keys,key_resp_9.rt,key_resp_9.duration,start_test.started,text_6.started,key_resp_5.started,start_test.stopped,key_resp_5.keys,key_resp_5.rt,key_resp_5.duration,ISI.started,text_4.started,text_4.stopped,ISI.stopped,routine_1.started,image.started,text_3.started,key_resp_3.started,routine_1.stopped,image_path,position_of_stimuli,trials.key_resp_3.keys,trials.key_resp_3.rt,trials.key_resp_3.duration,End_page.started,text_5.started,key_resp_4.started,End_page.stopped,key_resp_4.keys,key_resp_4.rt,key_resp_4.duration,participant,session,date,expName,psychopyVersion,frameRate,expStart,
,,,,,,,,,,,0.0012449999921955168,0.002841200039256364,0.002841200039256364,3.1625764000345953,space,3.1527225999743678,None,,,,,,,,,,,,,,,,,,,,,,,,,,,,,,,,,,,,,,,,,,,,,,,,,,,,,,,,,,,,,,,00049,001,2026-01-25_11h31.50.122,MST_test,2024.2.0,59.914573805838,2026-01-25 11h32.01.132611 +0530,
,,,,,,,,,,,,,,,,,,3.1626087999902666,3.17737049999414,3.17737049999414,11.911145300022326,space,8.721757900028024,None,,,,,,,,,,,,,,,,,,,,,,,,,,,,,,,,,,,,,,,,,,,,,,,,,,,,,,,,00049,001,2026-01-25_11h31.50.122,MST_test,2024.2.0,59.914573805838,2026-01-25 11h32.01.132611 +0530,
,,,,,,,,,,,,,,,,,,,,,,,,,11.911174100008793,11.927504900027998,11.927504900027998,11.927504900027998,11.927504900027998,11.927504900027998,18.728022399998736,space,6.787579099996947,None,,,,,,,,,,,,,,,,,,,,,,,,,,,,,,,,,,,,,,,,,,,,,,00049,001,2026-01-25_11h31.50.122,MST_test,2024.2.0,59.914573805838,2026-01-25 11h32.01.132611 +0530,
,,,,,,,,,,,,,,,,,,,,,,,,,,,,,,,,,,,18.728055000014137,18.744315900024958,18.744315900024958,18.744315900024958,18.744315900024958,18.744315900024958,22.09464590001153,space,3.339189800026361,None,,,,,,,,,,,,,,,,,,,,,,,,,,,,,,,,,,,,00049,001,2026-01-25_11h31.50.122,MST_test,2024.2.0,59.914573805838,2026-01-25 11h32.01.132611 +0530,
,,,,,,,,,,,,,,,,,,,,,,,,,,,,,,,,,,,,,,,,,,,,,22.094673000043258,22.110572600038722,22.110572600038722,35.36104750004597,space,13.237345800036564,None,,,,,,,,,,,,,,,,,,,,,,,,,,,,,00049,001,2026-01-25_11h31.50.122,MST_test,2024.2.0,59.914573805838,2026-01-25 11h32.01.132611 +0530,
,,,,,,,,,,,,,,,,,,,,,,,,,,,,,,,,,,,,,,,,,,,,,,,,,,,,35.36107520002406,35.377108499989845,35.377108499989845,90.89446209999733,space,55.51426969998283,None,,,,,,,,,,,,,,,,,,,,,,00049,001,2026-01-25_11h31.50.122,MST_test,2024.2.0,59.914573805838,2026-01-25 11h32.01.132611 +0530,
0,0,1,o,5.110819399997126,None,1,0,0,90.91056540003046,,,,,,,,,,,,,,,,,,,,,,,,,,,,,,,,,,,,,,,,,,,,,,,,,,90.89808469999116,90.91056540003046,91.41276949999155,91.39422310004011,91.41055100003723,91.41276949999155,91.41276949999155,91.41276949999155,96.52819119999185,Objects\130b.jpg,mid,o,5.110819399997126,None,,,,,,,,00049,001,2026-01-25_11h31.50.122,MST_test,2024.2.0,59.914573805838,2026-01-25 11h32.01.132611 +0530,
1,0,2,o,2.555091399990488,None,2,0,1,96.54393580002943,,,,,,,,,,,,,,,,,,,,,,,,,,,,,,,,,,,,,,,,,,,,,,,,,,96.5282943000202,96.54393580002943,97.04767840000568,97.02756790001877,97.04539660003502,97.04767840000568,97.04767840000568,97.04767840000568,99.61114090000046,Scenes\085b.jpg,post,o,2.555091399990488,None,,,,,,,,00049,001,2026-01-25_11h31.50.122,MST_test,2024.2.0,59.914573805838,2026-01-25 11h32.01.132611 +0530,
2,0,3,s,4.179455100034829,None,3,0,2,99.62728080002125,,,,,,,,,,,,,,,,,,,,,,,,,,,,,,,,,,,,,,,,,,,,,,,,,,99.61123360000784,99.62728080002125,100.12732480000705,100.11082240001997,100.12288199999603,100.12732480000705,100.12732480000705,100.12732480000705,104.31116540002404,Foils\scenes11.jpg,none,s,4.179455100034829,None,,,,,,,,00049,001,2026-01-25_11h31.50.122,MST_test,2024.2.0,59.914573805838,2026-01-25 11h32.01.132611 +0530,
3,0,4,n,4.271756300004199,None,4,0,3,104.3272862000158,,,,,,,,,,,,,,,,,,,,,,,,,,,,,,,,,,,,,,,,,,,,,,,,,,104.31125730002532,104.3272862000158,104.8276262000436,104.81088730000192,104.81949480000185,104.8276262000436,104.8276262000436,104.8276262000436,109.11114270001417,Scenes\121a.jpg,post,n,4.271756300004199,None,,,,,,,,00049,001,2026-01-25_11h31.50.122,MST_test,2024.2.0,59.914573805838,2026-01-25 11h32.01.132611 +0530,
4,0,5,o,3.375687000050675,None,5,0,4,109.12729720002972,,,,,,,,,,,,,,,,,,,,,,,,,,,,,,,,,,,,,,,,,,,,,,,,,,109.11123540002154,109.12729720002972,109.62766610004473,109.61077020002995,109.62104480003472,109.62766610004473,109.62766610004473,109.62766610004473,113.01141030003782,Objects\007b.jpg,mid,o,3.375687000050675,None,,,,,,,,00049,001,2026-01-25_11h31.50.122,MST_test,2024.2.0,59.914573805838,2026-01-25 11h32.01.132611 +0530,
5,0,6,o,2.2760952999815345,None,6,0,5,113.02724280004622,,,,,,,,,,,,,,,,,,,,,,,,,,,,,,,,,,,,,,,,,,,,,,,,,,113.0115109999897,113.02724280004622,113.52753110002959,113.51084750000155,113.51328320003813,113.52753110002959,113.52753110002959,113.52753110002959,115.81114990002243,Objects\044a.jpg,mid,o,2.2760952999815345,None,,,,,,,,00049,001,2026-01-25_11h31.50.122,MST_test,2024.2.0,59.914573805838,2026-01-25 11h32.01.132611 +0530,
6,0,7,n,2.8525646000052802,None,7,0,6,115.82727390003856,,,,,,,,,,,,,,,,,,,,,,,,,,,,,,,,,,,,,,,,,,,,,,,,,,115.8112408000161,115.82727390003856,116.32749470003182,116.31083390000276,116.3132154000341,116.32749470003182,116.32749470003182,116.32749470003182,119.19463199999882,Objects\141a.jpg,post,n,2.8525646000052802,None,,,,,,,,00049,001,2026-01-25_11h31.50.122,MST_test,2024.2.0,59.914573805838,2026-01-25 11h32.01.132611 +0530,
7,0,8,s,8.987801900017075,None,8,0,7,119.21047500002896,,,,,,,,,,,,,,,,,,,,,,,,,,,,,,,,,,,,,,,,,,,,,,,,,,119.19472920004046,119.21047500002896,119.71092889999272,119.69412659999216,119.70418530004099,119.71092889999272,119.71092889999272,119.71092889999272,128.71120020002127,Objects\018b.jpg,pre,s,8.987801900017075,None,,,,,,,,00049,001,2026-01-25_11h31.50.122,MST_test,2024.2.0,59.914573805838,2026-01-25 11h32.01.132611 +0530,
8,0,9,o,3.8877230000216514,None,9,0,8,128.7272748000105,,,,,,,,,,,,,,,,,,,,,,,,,,,,,,,,,,,,,,,,,,,,,,,,,,128.71129080001265,128.7272748000105,129.2272196999984,129.210939600016,129.2146099000238,129.2272196999984,129.2272196999984,129.2272196999984,133.12767970003188,Objects\132a.jpg,pre,o,3.8877230000216514,None,,,,,,,,00049,001,2026-01-25_11h31.50.122,MST_test,2024.2.0,59.914573805838,2026-01-25 11h32.01.132611 +0530,
9,0,10,n,2.871633800037671,None,10,0,9,133.14396419998957,,,,,,,,,,,,,,,,,,,,,,,,,,,,,,,,,,,,,,,,,,,,,,,,,,133.12777260004077,133.14396419998957,133.64405120001175,133.62744250003016,133.63795230002142,133.64405120001175,133.64405120001175,133.64405120001175,136.52760850003688,Foils\073a.jpg,none,n,2.871633800037671,None,,,,,,,,00049,001,2026-01-25_11h31.50.122,MST_test,2024.2.0,59.914573805838,2026-01-25 11h32.01.132611 +0530,
10,0,11,o,2.6475188999902457,None,11,0,10,136.54385550000006,,,,,,,,,,,,,,,,,,,,,,,,,,,,,,,,,,,,,,,,,,,,,,,,,,136.52769890002673,136.54385550000006,137.04407960001845,137.02740060002543,137.03001049999148,137.04407960001845,137.04407960001845,137.04407960001845,139.6943397000432,Objects\023a.jpg,mid,o,2.6475188999902457,None,,,,,,,,00049,001,2026-01-25_11h31.50.122,MST_test,2024.2.0,59.914573805838,2026-01-25 11h32.01.132611 +0530,
11,0,12,s,6.987730499997269,None,12,0,11,139.71082320000278,,,,,,,,,,,,,,,,,,,,,,,,,,,,,,,,,,,,,,,,,,,,,,,,,,139.69443030003458,139.71082320000278,140.21577090001665,140.19409280002583,140.21372600004543,140.21577090001665,140.21577090001665,140.21577090001665,147.21107840002514,Scenes\012b.jpg,post,s,6.987730499997269,None,,,,,,,,00049,001,2026-01-25_11h31.50.122,MST_test,2024.2.0,59.914573805838,2026-01-25 11h32.01.132611 +0530,
12,0,13,n,3.517043800035026,None,13,0,12,147.2271047999966,,,,,,,,,,,,,,,,,,,,,,,,,,,,,,,,,,,,,,,,,,,,,,,,,,147.2111714000348,147.2271047999966,147.79038489999948,147.71081110002706,147.7873461000272,147.79038489999948,147.79038489999948,147.79038489999948,151.31146360002458,Foils\scenes25.jpg,none,n,3.517043800035026,None,,,,,,,,00049,001,2026-01-25_11h31.50.122,MST_test,2024.2.0,59.914573805838,2026-01-25 11h32.01.132611 +0530,
13,0,14,s,6.77368209999986,None,14,0,13,151.32717360003153,,,,,,,,,,,,,,,,,,,,,,,,,,,,,,,,,,,,,,,,,,,,,,,,,,151.31155550002586,151.32717360003153,151.83754450001288,151.81087510002544,151.8354241999914,151.83754450001288,151.83754450001288,151.83754450001288,158.6277207999956,Scenes\130b.jpg,post,s,6.77368209999986,None,,,,,,,,00049,001,2026-01-25_11h31.50.122,MST_test,2024.2.0,59.914573805838,2026-01-25 11h32.01.132611 +0530,
14,0,15,s,6.402537600020878,None,15,0,14,158.643824400031,,,,,,,,,,,,,,,,,,,,,,,,,,,,,,,,,,,,,,,,,,,,,,,,,,158.62781350000296,158.643824400031,159.14433070004452,159.1273280000314,159.13074490003055,159.14433070004452,159.14433070004452,159.14433070004452,165.56101040000794,Objects\114a.jpg,post,s,6.402537600020878,None,,,,,,,,00049,001,2026-01-25_11h31.50.122,MST_test,2024.2.0,59.914573805838,2026-01-25 11h32.01.132611 +0530,
15,0,16,o,3.5411699999822304,None,16,0,15,165.5771007000003,,,,,,,,,,,,,,,,,,,,,,,,,,,,,,,,,,,,,,,,,,,,,,,,,,165.5611011000001,165.5771007000003,166.07768710004166,166.06078510003863,166.0704212000128,166.07768710004166,166.07768710004166,166.07768710004166,169.62770610000007,Scenes\165a.jpg,mid,o,3.5411699999822304,None,,,,,,,,00049,001,2026-01-25_11h31.50.122,MST_test,2024.2.0,59.914573805838,2026-01-25 11h32.01.132611 +0530,
16,0,17,s,9.260111600044183,None,17,0,16,169.64384140004404,,,,,,,,,,,,,,,,,,,,,,,,,,,,,,,,,,,,,,,,,,,,,,,,,,169.62780890002614,169.64384140004404,170.14434250001796,170.12756039999658,170.13078529998893,170.14434250001796,170.14434250001796,170.14434250001796,179.4111205000081,Objects\072a.jpg,post,s,9.260111600044183,None,,,,,,,,00049,001,2026-01-25_11h31.50.122,MST_test,2024.2.0,59.914573805838,2026-01-25 11h32.01.132611 +0530,
17,0,18,n,5.396343600004911,None,18,0,17,179.4272286000196,,,,,,,,,,,,,,,,,,,,,,,,,,,,,,,,,,,,,,,,,,,,,,,,,,179.41122950002318,179.4272286000196,179.9275872000144,179.9106046000379,179.91998050000984,179.9275872000144,179.9275872000144,179.9275872000144,185.32807760004653,Foils\scenes29.jpg,none,n,5.396343600004911,None,,,,,,,,00049,001,2026-01-25_11h31.50.122,MST_test,2024.2.0,59.914573805838,2026-01-25 11h32.01.132611 +0530,
18,0,19,s,8.920067899976857,None,19,0,18,185.3438473000424,,,,,,,,,,,,,,,,,,,,,,,,,,,,,,,,,,,,,,,,,,,,,,,,,,185.32816920004552,185.3438473000424,185.84418170002755,185.82732490001945,185.83998250000877,185.84418170002755,185.84418170002755,185.84418170002755,194.77781350002624,Scenes\151b.jpg,post,s,8.920067899976857,None,,,,,,,,00049,001,2026-01-25_11h31.50.122,MST_test,2024.2.0,59.914573805838,2026-01-25 11h32.01.132611 +0530,
19,0,20,n,6.341191500017885,None,20,0,19,194.79381770000327,,,,,,,,,,,,,,,,,,,,,,,,,,,,,,,,,,,,,,,,,,,,,,,,,,194.7779062000336,194.79381770000327,195.29446410003584,195.2774527000147,195.2821905000019,195.29446410003584,195.29446410003584,195.29446410003584,201.64442460000282,Scenes\117a.jpg,mid,n,6.341191500017885,None,,,,,,,,00049,001,2026-01-25_11h31.50.122,MST_test,2024.2.0,59.914573805838,2026-01-25 11h32.01.132611 +0530,
20,0,21,n,5.567962400033139,None,21,0,20,201.66055890003918,,,,,,,,,,,,,,,,,,,,,,,,,,,,,,,,,,,,,,,,,,,,,,,,,,201.64451670000562,201.66055890003918,202.16325470001902,202.14406510000117,202.16129630000796,202.16325470001902,202.16325470001902,202.16325470001902,207.74459060002118,Scenes\063b.jpg,post,n,5.567962400033139,None,,,,,,,,00049,001,2026-01-25_11h31.50.122,MST_test,2024.2.0,59.914573805838,2026-01-25 11h32.01.132611 +0530,
21,0,22,s,4.9845750000094995,None,22,0,21,207.76046590000624,,,,,,,,,,,,,,,,,,,,,,,,,,,,,,,,,,,,,,,,,,,,,,,,,,207.7446859999909,207.76046590000624,208.26703470002394,208.2441088000196,208.2650205999962,208.26703470002394,208.26703470002394,208.26703470002394,213.26147560001118,Scenes\031b.jpg,mid,s,4.9845750000094995,None,,,,,,,,00049,001,2026-01-25_11h31.50.122,MST_test,2024.2.0,59.914573805838,2026-01-25 11h32.01.132611 +0530,
22,0,23,n,4.258717800024897,None,23,0,22,213.27727409999352,,,,,,,,,,,,,,,,,,,,,,,,,,,,,,,,,,,,,,,,,,,,,,,,,,213.26161020004656,213.27727409999352,213.78485320002073,213.76084649999393,213.7827294000308,213.78485320002073,213.78485320002073,213.78485320002073,218.04443980002543,Scenes\086b.jpg,pre,n,4.258717800024897,None,,,,,,,,00049,001,2026-01-25_11h31.50.122,MST_test,2024.2.0,59.914573805838,2026-01-25 11h32.01.132611 +0530,
23,0,24,o,3.2105748999747448,None,24,0,23,218.0605231000227,,,,,,,,,,,,,,,,,,,,,,,,,,,,,,,,,,,,,,,,,,,,,,,,,,218.0445480000344,218.0605231000227,218.5609981000307,218.54408150003292,218.54747150000185,218.5609981000307,218.5609981000307,218.5609981000307,221.7777417000034,Objects\118a.jpg,pre,o,3.2105748999747448,None,,,,,,,,00049,001,2026-01-25_11h31.50.122,MST_test,2024.2.0,59.914573805838,2026-01-25 11h32.01.132611 +0530,
24,0,25,o,3.28472509997664,None,25,0,24,221.79395600000862,,,,,,,,,,,,,,,,,,,,,,,,,,,,,,,,,,,,,,,,,,,,,,,,,,221.77783229999477,221.79395600000862,222.2942303000018,222.27744740003254,222.28438070003176,222.2942303000018,222.2942303000018,222.2942303000018,225.59477190003963,Scenes\140a.jpg,mid,o,3.28472509997664,None,,,,,,,,00049,001,2026-01-25_11h31.50.122,MST_test,2024.2.0,59.914573805838,2026-01-25 11h32.01.132611 +0530,
25,0,26,s,3.8756941000465304,None,26,0,25,225.61050609999802,,,,,,,,,,,,,,,,,,,,,,,,,,,,,,,,,,,,,,,,,,,,,,,,,,225.59487050003372,225.61050609999802,226.1110492000007,226.09455430001253,226.1045420000446,226.1110492000007,226.1110492000007,226.1110492000007,229.99435490003088,Objects\100b.jpg,post,s,3.8756941000465304,None,,,,,,,,00049,001,2026-01-25_11h31.50.122,MST_test,2024.2.0,59.914573805838,2026-01-25 11h32.01.132611 +0530,
26,0,27,n,3.716475800029002,None,27,0,26,230.01041730004363,,,,,,,,,,,,,,,,,,,,,,,,,,,,,,,,,,,,,,,,,,,,,,,,,,229.99444690003293,230.01041730004363,230.51079810003284,230.49405590002425,230.50345030002063,230.51079810003284,230.51079810003284,230.51079810003284,234.2279904000461,Foils\scenes17.jpg,none,n,3.716475800029002,None,,,,,,,,00049,001,2026-01-25_11h31.50.122,MST_test,2024.2.0,59.914573805838,2026-01-25 11h32.01.132611 +0530,
27,0,28,s,4.714561399945524,None,28,0,27,234.2438139000442,,,,,,,,,,,,,,,,,,,,,,,,,,,,,,,,,,,,,,,,,,,,,,,,,,234.2280885000364,234.2438139000442,234.74414960003924,234.7274008000386,234.73356220003916,234.74414960003924,234.74414960003924,234.74414960003924,239.46105069998885,Scenes\091a.jpg,pre,s,4.714561399945524,None,,,,,,,,00049,001,2026-01-25_11h31.50.122,MST_test,2024.2.0,59.914573805838,2026-01-25 11h32.01.132611 +0530,
28,0,29,s,5.457177000003867,None,29,0,28,239.477120800002,,,,,,,,,,,,,,,,,,,,,,,,,,,,,,,,,,,,,,,,,,,,,,,,,,239.46114359999774,239.477120800002,239.9775626999908,239.96068530000048,239.97134230000665,239.9775626999908,239.9775626999908,239.9775626999908,245.44434240000555,Objects\027b.jpg,post,s,5.457177000003867,None,,,,,,,,00049,001,2026-01-25_11h31.50.122,MST_test,2024.2.0,59.914573805838,2026-01-25 11h32.01.132611 +0530,
29,0,30,n,8.798952500044834,None,30,0,29,245.46031300001778,,,,,,,,,,,,,,,,,,,,,,,,,,,,,,,,,,,,,,,,,,,,,,,,,,245.44445240002824,245.46031300001778,245.9644580000313,245.94398979999823,245.96224480000092,245.9644580000313,245.9644580000313,245.9644580000313,254.77798660000553,Scenes\103b.jpg,mid,n,8.798952500044834,None,,,,,,,,00049,001,2026-01-25_11h31.50.122,MST_test,2024.2.0,59.914573805838,2026-01-25 11h32.01.132611 +0530,
30,0,31,s,7.956900199991651,None,31,0,30,254.79389510001056,,,,,,,,,,,,,,,,,,,,,,,,,,,,,,,,,,,,,,,,,,,,,,,,,,254.77808300004108,254.79389510001056,255.29426670004614,255.27738450001925,255.28718909999589,255.29426670004614,255.29426670004614,255.29426670004614,263.260930599994,Objects\028b.jpg,post,s,7.956900199991651,None,,,,,,,,00049,001,2026-01-25_11h31.50.122,MST_test,2024.2.0,59.914573805838,2026-01-25 11h32.01.132611 +0530,
31,0,32,o,5.249802200007252,None,32,0,31,263.27712660003453,,,,,,,,,,,,,,,,,,,,,,,,,,,,,,,,,,,,,,,,,,,,,,,,,,263.2610290000448,263.27712660003453,263.77778240002226,263.76056910003535,263.7707791000139,263.77778240002226,263.77778240002226,263.77778240002226,269.0443682000041,Scenes\059a.jpg,mid,o,5.249802200007252,None,,,,,,,,00049,001,2026-01-25_11h31.50.122,MST_test,2024.2.0,59.914573805838,2026-01-25 11h32.01.132611 +0530,
32,0,33,s,4.4032469999510795,None,33,0,32,269.060335999995,,,,,,,,,,,,,,,,,,,,,,,,,,,,,,,,,,,,,,,,,,,,,,,,,,269.0444616000168,269.060335999995,269.56083890004084,269.54445600003237,269.5563874000218,269.56083890004084,269.56083890004084,269.56083890004084,273.9776194000151,Objects\005b.jpg,pre,s,4.4032469999510795,None,,,,,,,,00049,001,2026-01-25_11h31.50.122,MST_test,2024.2.0,59.914573805838,2026-01-25 11h32.01.132611 +0530,
33,0,34,n,3.441699900024105,None,34,0,33,273.9937939000083,,,,,,,,,,,,,,,,,,,,,,,,,,,,,,,,,,,,,,,,,,,,,,,,,,273.9777169000008,273.9937939000083,274.497025699995,274.47731480002403,274.49496820004424,274.497025699995,274.497025699995,274.497025699995,277.94434889999684,Scenes\035b.jpg,pre,n,3.441699900024105,None,,,,,,,,00049,001,2026-01-25_11h31.50.122,MST_test,2024.2.0,59.914573805838,2026-01-25 11h32.01.132611 +0530,
34,0,35,s,3.613833200011868,None,35,0,34,277.9604024,,,,,,,,,,,,,,,,,,,,,,,,,,,,,,,,,,,,,,,,,,,,,,,,,,277.94444019999355,277.9604024,278.46085560001666,278.4439637000323,278.4541102999938,278.46085560001666,278.46085560001666,278.46085560001666,282.0776787000359,Objects\059b.jpg,post,s,3.613833200011868,None,,,,,,,,00049,001,2026-01-25_11h31.50.122,MST_test,2024.2.0,59.914573805838,2026-01-25 11h32.01.132611 +0530,
35,0,36,o,11.296551000035834,None,36,0,35,282.0937871999922,,,,,,,,,,,,,,,,,,,,,,,,,,,,,,,,,,,,,,,,,,,,,,,,,,282.07777710002847,282.0937871999922,282.59421509999083,282.5772838999983,282.5842429000186,282.59421509999083,282.59421509999083,282.59421509999083,293.89427420002175,Scenes\098a.jpg,mid,o,11.296551000035834,None,,,,,,,,00049,001,2026-01-25_11h31.50.122,MST_test,2024.2.0,59.914573805838,2026-01-25 11h32.01.132611 +0530,
36,0,37,n,4.736615100002382,None,37,0,36,293.91037990001496,,,,,,,,,,,,,,,,,,,,,,,,,,,,,,,,,,,,,,,,,,,,,,,,,,293.8943651000154,293.91037990001496,294.4106926000095,294.39395749999676,294.4044862000155,294.4106926000095,294.4106926000095,294.4106926000095,299.1607858000207,Objects\142b.jpg,post,n,4.736615100002382,None,,,,,,,,00049,001,2026-01-25_11h31.50.122,MST_test,2024.2.0,59.914573805838,2026-01-25 11h32.01.132611 +0530,
37,0,38,s,6.446076499996707,None,38,0,37,299.1771207000129,,,,,,,,,,,,,,,,,,,,,,,,,,,,,,,,,,,,,,,,,,,,,,,,,,299.1608799000387,299.1771207000129,299.6775276000262,299.66056079999544,299.6750994999893,299.6775276000262,299.6775276000262,299.6775276000262,306.1276959000388,Scenes\177b.jpg,post,s,6.446076499996707,None,,,,,,,,00049,001,2026-01-25_11h31.50.122,MST_test,2024.2.0,59.914573805838,2026-01-25 11h32.01.132611 +0530,
38,0,39,n,2.7765542999841273,None,39,0,38,306.14371279999614,,,,,,,,,,,,,,,,,,,,,,,,,,,,,,,,,,,,,,,,,,,,,,,,,,306.1277863000287,306.14371279999614,306.65029300004244,306.62736929999664,306.64797859999817,306.65029300004244,306.65029300004244,306.65029300004244,309.4276270000264,Scenes\045b.jpg,mid,n,2.7765542999841273,None,,,,,,,,00049,001,2026-01-25_11h31.50.122,MST_test,2024.2.0,59.914573805838,2026-01-25 11h32.01.132611 +0530,
39,0,40,n,5.491547299956437,None,40,0,39,309.4437612000038,,,,,,,,,,,,,,,,,,,,,,,,,,,,,,,,,,,,,,,,,,,,,,,,,,309.4277191000292,309.4437612000038,309.94464609998977,309.9276472000056,309.9382148000295,309.94464609998977,309.94464609998977,309.94464609998977,315.4443518000189,Objects\061b.jpg,mid,n,5.491547299956437,None,,,,,,,,00049,001,2026-01-25_11h31.50.122,MST_test,2024.2.0,59.914573805838,2026-01-25 11h32.01.132611 +0530,
40,0,41,s,3.99510719999671,None,41,0,40,315.460295900004,,,,,,,,,,,,,,,,,,,,,,,,,,,,,,,,,,,,,,,,,,,,,,,,,,315.4444419000065,315.460295900004,315.9605458000442,315.94405210000696,315.95323330000974,315.9605458000442,315.9605458000442,315.9605458000442,319.96110890002456,Objects\080b.jpg,mid,s,3.99510719999671,None,,,,,,,,00049,001,2026-01-25_11h31.50.122,MST_test,2024.2.0,59.914573805838,2026-01-25 11h32.01.132611 +0530,
41,0,42,n,4.654595600033645,None,42,0,41,319.97720140003366,,,,,,,,,,,,,,,,,,,,,,,,,,,,,,,,,,,,,,,,,,,,,,,,,,319.96120000001974,319.97720140003366,320.477464399999,320.4607929000049,320.47010299999965,320.477464399999,320.477464399999,320.477464399999,325.14440980000654,Foils\066a.jpg,none,n,4.654595600033645,None,,,,,,,,00049,001,2026-01-25_11h31.50.122,MST_test,2024.2.0,59.914573805838,2026-01-25 11h32.01.132611 +0530,
42,0,43,o,4.370405499998014,None,43,0,42,325.16046300000744,,,,,,,,,,,,,,,,,,,,,,,,,,,,,,,,,,,,,,,,,,,,,,,,,,325.14450090000173,325.16046300000744,325.66424990003,325.6441482999944,325.66221580002457,325.66424990003,325.66424990003,325.66424990003,330.04432380001526,Scenes\062b.jpg,post,o,4.370405499998014,None,,,,,,,,00049,001,2026-01-25_11h31.50.122,MST_test,2024.2.0,59.914573805838,2026-01-25 11h32.01.132611 +0530,
43,0,44,s,4.801700700016227,None,44,0,43,330.06052890000865,,,,,,,,,,,,,,,,,,,,,,,,,,,,,,,,,,,,,,,,,,,,,,,,,,330.04441440000664,330.06052890000865,330.56098450004356,330.5440890000318,330.54743610002333,330.56098450004356,330.56098450004356,330.56098450004356,335.3777947000344,Objects\073a.jpg,post,s,4.801700700016227,None,,,,,,,,00049,001,2026-01-25_11h31.50.122,MST_test,2024.2.0,59.914573805838,2026-01-25 11h32.01.132611 +0530,
44,0,45,s,3.653097499976866,None,45,0,44,335.39379090000875,,,,,,,,,,,,,,,,,,,,,,,,,,,,,,,,,,,,,,,,,,,,,,,,,,335.37788780004485,335.39379090000875,335.89410500001395,335.8776175000239,335.88884770002915,335.89410500001395,335.89410500001395,335.89410500001395,339.56108830001904,Foils\086a.jpg,none,s,3.653097499976866,None,,,,,,,,00049,001,2026-01-25_11h31.50.122,MST_test,2024.2.0,59.914573805838,2026-01-25 11h32.01.132611 +0530,
45,0,46,n,4.957296399981715,None,46,0,45,339.57719350000843,,,,,,,,,,,,,,,,,,,,,,,,,,,,,,,,,,,,,,,,,,,,,,,,,,339.5611805000226,339.57719350000843,340.0775155000156,340.06074099999387,340.0702439000015,340.0775155000156,340.0775155000156,340.0775155000156,345.04436260001967,Foils\106a.jpg,none,n,4.957296399981715,None,,,,,,,,00049,001,2026-01-25_11h31.50.122,MST_test,2024.2.0,59.914573805838,2026-01-25 11h32.01.132611 +0530,
46,0,47,n,3.2817903000395745,None,47,0,46,345.06052450003335,,,,,,,,,,,,,,,,,,,,,,,,,,,,,,,,,,,,,,,,,,,,,,,,,,345.044452800008,345.06052450003335,345.56170610000845,345.54424389998894,345.5596183000016,345.56170610000845,345.56170610000845,345.56170610000845,348.84433510003146,Scenes\181b.jpg,post,n,3.2817903000395745,None,,,,,,,,00049,001,2026-01-25_11h31.50.122,MST_test,2024.2.0,59.914573805838,2026-01-25 11h32.01.132611 +0530,
47,0,48,s,6.335560100036673,None,48,0,47,348.8604492000304,,,,,,,,,,,,,,,,,,,,,,,,,,,,,,,,,,,,,,,,,,,,,,,,,,348.8444373999955,348.8604492000304,349.3638864000095,349.34404400002677,349.3616544000106,349.3638864000095,349.3638864000095,349.3638864000095,355.7110273000435,Scenes\072b.jpg,pre,s,6.335560100036673,None,,,,,,,,00049,001,2026-01-25_11h31.50.122,MST_test,2024.2.0,59.914573805838,2026-01-25 11h32.01.132611 +0530,
48,0,49,o,4.054992699995637,None,49,0,48,355.7271894000005,,,,,,,,,,,,,,,,,,,,,,,,,,,,,,,,,,,,,,,,,,,,,,,,,,355.71111900004325,355.7271894000005,356.2278712000116,356.2107272000285,356.2168765999959,356.2278712000116,356.2278712000116,356.2278712000116,360.29460640001344,Scenes\118a.jpg,post,o,4.054992699995637,None,,,,,,,,00049,001,2026-01-25_11h31.50.122,MST_test,2024.2.0,59.914573805838,2026-01-25 11h32.01.132611 +0530,
49,0,50,o,4.656372700002976,None,50,0,49,360.31053200003225,,,,,,,,,,,,,,,,,,,,,,,,,,,,,,,,,,,,,,,,,,,,,,,,,,360.29469820001395,360.31053200003225,360.8110146000399,360.7941240000073,360.7982392000267,360.8110146000399,360.8110146000399,360.8110146000399,365.477795600018,Scenes\113a.jpg,mid,o,4.656372700002976,None,,,,,,,,00049,001,2026-01-25_11h31.50.122,MST_test,2024.2.0,59.914573805838,2026-01-25 11h32.01.132611 +0530,
50,0,51,o,4.68161600001622,None,51,0,50,365.493858300033,,,,,,,,,,,,,,,,,,,,,,,,,,,,,,,,,,,,,,,,,,,,,,,,,,365.47788630001014,365.493858300033,365.994301800034,365.9775169999921,365.9875238999957,365.994301800034,365.994301800034,365.994301800034,370.6775805000216,Objects\128b.jpg,post,o,4.68161600001622,None,,,,,,,,00049,001,2026-01-25_11h31.50.122,MST_test,2024.2.0,59.914573805838,2026-01-25 11h32.01.132611 +0530,
51,0,52,s,6.320915299991611,None,52,0,51,370.69403090002015,,,,,,,,,,,,,,,,,,,,,,,,,,,,,,,,,,,,,,,,,,,,,,,,,,370.6776763999951,370.69403090002015,371.1942919000285,371.1774399999995,371.1872120000189,371.1942919000285,371.1942919000285,371.1942919000285,377.527711600007,Scenes\053b.jpg,mid,s,6.320915299991611,None,,,,,,,,00049,001,2026-01-25_11h31.50.122,MST_test,2024.2.0,59.914573805838,2026-01-25 11h32.01.132611 +0530,
52,0,53,n,12.830934999976307,None,53,0,52,377.5438481000019,,,,,,,,,,,,,,,,,,,,,,,,,,,,,,,,,,,,,,,,,,,,,,,,,,377.5278043000144,377.5438481000019,378.04408270004205,378.0273794000386,378.03663190000225,378.04408270004205,378.04408270004205,378.04408270004205,390.8777873000363,Foils\scenes12.jpg,none,n,12.830934999976307,None,,,,,,,,00049,001,2026-01-25_11h31.50.122,MST_test,2024.2.0,59.914573805838,2026-01-25 11h32.01.132611 +0530,
53,0,54,s,2.5773155000060797,None,54,0,53,390.89378260000376,,,,,,,,,,,,,,,,,,,,,,,,,,,,,,,,,,,,,,,,,,,,,,,,,,390.87788049998926,390.89378260000376,391.3941693000379,391.37737370003015,391.3849210999906,391.3941693000379,391.3941693000379,391.3941693000379,393.97767410002416,Scenes\138a.jpg,pre,s,2.5773155000060797,None,,,,,,,,00049,001,2026-01-25_11h31.50.122,MST_test,2024.2.0,59.914573805838,2026-01-25 11h32.01.132611 +0530,
54,0,55,s,5.901699299982283,None,55,0,54,393.9937735000276,,,,,,,,,,,,,,,,,,,,,,,,,,,,,,,,,,,,,,,,,,,,,,,,,,393.977764500014,393.9937735000276,394.49419540003873,394.4772588000051,394.4807665999979,394.49419540003873,394.49419540003873,394.49419540003873,400.4108548000222,Objects\157a.jpg,mid,s,5.901699299982283,None,,,,,,,,00049,001,2026-01-25_11h31.50.122,MST_test,2024.2.0,59.914573805838,2026-01-25 11h32.01.132611 +0530,
55,0,56,s,7.1478047000127845,None,56,0,55,400.4270087000332,,,,,,,,,,,,,,,,,,,,,,,,,,,,,,,,,,,,,,,,,,,,,,,,,,400.41094269999303,400.4270087000332,400.92731769999955,400.9110616000253,400.9224688000395,400.92731769999955,400.92731769999955,400.92731769999955,408.0777302000206,Objects\143b.jpg,mid,s,7.1478047000127845,None,,,,,,,,00049,001,2026-01-25_11h31.50.122,MST_test,2024.2.0,59.914573805838,2026-01-25 11h32.01.132611 +0530,
56,0,57,n,3.9210255999932997,None,57,0,56,408.09371370001463,,,,,,,,,,,,,,,,,,,,,,,,,,,,,,,,,,,,,,,,,,,,,,,,,,408.0778258999926,408.09371370001463,408.5939427000121,408.5773147,408.58014239999466,408.5939427000121,408.5939427000121,408.5939427000121,412.5275646999944,Objects\049a.jpg,pre,n,3.9210255999932997,None,,,,,,,,00049,001,2026-01-25_11h31.50.122,MST_test,2024.2.0,59.914573805838,2026-01-25 11h32.01.132611 +0530,
57,0,58,n,4.111422299989499,None,58,0,57,412.54374170000665,,,,,,,,,,,,,,,,,,,,,,,,,,,,,,,,,,,,,,,,,,,,,,,,,,412.5276547000394,412.54374170000665,413.0442367999931,413.02739430003567,413.0360884999973,413.0442367999931,413.0442367999931,413.0442367999931,417.16095220000716,Scenes\150a.jpg,post,n,4.111422299989499,None,,,,,,,,00049,001,2026-01-25_11h31.50.122,MST_test,2024.2.0,59.914573805838,2026-01-25 11h32.01.132611 +0530,
58,0,59,o,2.853017900022678,None,59,0,58,417.1770655,,,,,,,,,,,,,,,,,,,,,,,,,,,,,,,,,,,,,,,,,,,,,,,,,,417.1610439000069,417.1770655,417.67768920003437,417.66057160001947,417.6695491000428,417.67768920003437,417.67768920003437,417.67768920003437,420.5442619000096,Scenes\142a.jpg,pre,o,2.853017900022678,None,,,,,,,,00049,001,2026-01-25_11h31.50.122,MST_test,2024.2.0,59.914573805838,2026-01-25 11h32.01.132611 +0530,
59,0,60,o,4.246809599979315,None,60,0,59,420.56027429999085,,,,,,,,,,,,,,,,,,,,,,,,,,,,,,,,,,,,,,,,,,,,,,,,,,420.54435570002533,420.56027429999085,421.0606975000119,421.04396209999686,421.0504058999941,421.0606975000119,421.0606975000119,421.0606975000119,425.3109490000061,Scenes\156a.jpg,pre,o,4.246809599979315,None,,,,,,,,00049,001,2026-01-25_11h31.50.122,MST_test,2024.2.0,59.914573805838,2026-01-25 11h32.01.132611 +0530,
60,0,61,o,3.400693899951875,None,61,0,60,425.3271442000405,,,,,,,,,,,,,,,,,,,,,,,,,,,,,,,,,,,,,,,,,,,,,,,,,,425.3110472999979,425.3271442000405,425.827652100008,425.81051310000475,425.8165768000181,425.827652100008,425.827652100008,425.827652100008,429.24434590002056,Scenes\136a.jpg,pre,o,3.400693899951875,None,,,,,,,,00049,001,2026-01-25_11h31.50.122,MST_test,2024.2.0,59.914573805838,2026-01-25 11h32.01.132611 +0530,
61,0,62,n,1.5622899999725632,None,62,0,61,429.2602373000118,,,,,,,,,,,,,,,,,,,,,,,,,,,,,,,,,,,,,,,,,,,,,,,,,,429.2444372000173,429.2602373000118,429.76072620000923,429.7439155000029,429.7553135000053,429.76072620000923,429.76072620000923,429.76072620000923,431.3277109999908,Foils\017a.jpg,none,n,1.5622899999725632,None,,,,,,,,00049,001,2026-01-25_11h31.50.122,MST_test,2024.2.0,59.914573805838,2026-01-25 11h32.01.132611 +0530,
62,0,63,n,3.1881227999692783,None,63,0,62,431.34373750002123,,,,,,,,,,,,,,,,,,,,,,,,,,,,,,,,,,,,,,,,,,,,,,,,,,431.3278038999997,431.34373750002123,431.8466072000447,431.82735830004094,431.8444669000455,431.8466072000447,431.8466072000447,431.8466072000447,435.0443004000117,Scenes\119b.jpg,mid,n,3.1881227999692783,None,,,,,,,,00049,001,2026-01-25_11h31.50.122,MST_test,2024.2.0,59.914573805838,2026-01-25 11h32.01.132611 +0530,
63,0,64,n,3.658605099946726,None,64,0,63,435.0603176000295,,,,,,,,,,,,,,,,,,,,,,,,,,,,,,,,,,,,,,,,,,,,,,,,,,435.04439630004345,435.0603176000295,435.5609508000198,435.5439962000237,435.55884360003984,435.5609508000198,435.5609508000198,435.5609508000198,439.22780370002147,Foils\scenes27.jpg,none,n,3.658605099946726,None,,,,,,,,00049,001,2026-01-25_11h31.50.122,MST_test,2024.2.0,59.914573805838,2026-01-25 11h32.01.132611 +0530,
64,0,65,s,1.8296954999677837,None,65,0,64,439.24375090003014,,,,,,,,,,,,,,,,,,,,,,,,,,,,,,,,,,,,,,,,,,,,,,,,,,439.2278990999912,439.24375090003014,439.74955820001196,439.72746560000814,439.74728479998885,439.74955820001196,439.74955820001196,439.74955820001196,441.59442490001675,Scenes\089b.jpg,mid,s,1.8296954999677837,None,,,,,,,,00049,001,2026-01-25_11h31.50.122,MST_test,2024.2.0,59.914573805838,2026-01-25 11h32.01.132611 +0530,
65,0,66,n,3.30869239999447,None,66,0,65,441.6103776000091,,,,,,,,,,,,,,,,,,,,,,,,,,,,,,,,,,,,,,,,,,,,,,,,,,441.5945166000165,441.6103776000091,442.11096680001356,442.0940838000388,442.09758060000604,442.11096680001356,442.11096680001356,442.11096680001356,445.42782889999216,Objects\084a.jpg,post,n,3.30869239999447,None,,,,,,,,00049,001,2026-01-25_11h31.50.122,MST_test,2024.2.0,59.914573805838,2026-01-25 11h32.01.132611 +0530,
66,0,67,o,4.506404699990526,None,67,0,66,445.4437825999921,,,,,,,,,,,,,,,,,,,,,,,,,,,,,,,,,,,,,,,,,,,,,,,,,,445.42792340001324,445.4437825999921,445.9443363000173,445.9273913000361,445.93704530003015,445.9443363000173,445.9443363000173,445.9443363000173,450.46124920004513,Scenes\146a.jpg,post,o,4.506404699990526,None,,,,,,,,00049,001,2026-01-25_11h31.50.122,MST_test,2024.2.0,59.914573805838,2026-01-25 11h32.01.132611 +0530,
67,0,68,s,1.729061999998521,None,68,0,67,450.4771459000185,,,,,,,,,,,,,,,,,,,,,,,,,,,,,,,,,,,,,,,,,,,,,,,,,,450.46134490001714,450.4771459000185,450.9776003000443,450.9606591000338,450.96383170003537,450.9776003000443,450.9776003000443,450.9776003000443,452.7110475000227,Objects\098a.jpg,pre,s,1.729061999998521,None,,,,,,,,00049,001,2026-01-25_11h31.50.122,MST_test,2024.2.0,59.914573805838,2026-01-25 11h32.01.132611 +0530,
68,0,69,o,1.3837252999655902,None,69,0,68,452.72715819999576,,,,,,,,,,,,,,,,,,,,,,,,,,,,,,,,,,,,,,,,,,,,,,,,,,452.71113820001483,452.72715819999576,453.22737710003275,453.2107221999904,453.2132528999937,453.22737710003275,453.22737710003275,453.22737710003275,454.62764740001876,Objects\042a.jpg,pre,o,1.3837252999655902,None,,,,,,,,00049,001,2026-01-25_11h31.50.122,MST_test,2024.2.0,59.914573805838,2026-01-25 11h32.01.132611 +0530,
69,0,70,n,4.98692850000225,None,70,0,69,454.6438228000188,,,,,,,,,,,,,,,,,,,,,,,,,,,,,,,,,,,,,,,,,,,,,,,,,,454.62773750000633,454.6438228000188,455.1439881999977,455.12739030004013,455.1384439000394,455.1439881999977,455.1439881999977,455.1439881999977,460.14437930000713,Foils\098a.jpg,none,n,4.98692850000225,None,,,,,,,,00049,001,2026-01-25_11h31.50.122,MST_test,2024.2.0,59.914573805838,2026-01-25 11h32.01.132611 +0530,
70,0,71,s,3.6141355999861844,None,71,0,70,460.1604831000441,,,,,,,,,,,,,,,,,,,,,,,,,,,,,,,,,,,,,,,,,,,,,,,,,,460.1444710000069,460.1604831000441,460.66074190003565,460.64408410002943,460.65409700002056,460.66074190003565,460.66074190003565,460.66074190003565,464.2776801,Objects\164b.jpg,mid,s,3.6141355999861844,None,,,,,,,,00049,001,2026-01-25_11h31.50.122,MST_test,2024.2.0,59.914573805838,2026-01-25 11h32.01.132611 +0530,
71,0,72,s,6.409291699994355,None,72,0,71,464.2938234000467,,,,,,,,,,,,,,,,,,,,,,,,,,,,,,,,,,,,,,,,,,,,,,,,,,464.27777260000585,464.2938234000467,464.7940357000334,464.7774170000339,464.7808415000327,464.7940357000334,464.7940357000334,464.7940357000334,471.2109103000257,Objects\002a.jpg,mid,s,6.409291699994355,None,,,,,,,,00049,001,2026-01-25_11h31.50.122,MST_test,2024.2.0,59.914573805838,2026-01-25 11h32.01.132611 +0530,
72,0,73,o,6.5873708999715745,None,73,0,72,471.2271571000456,,,,,,,,,,,,,,,,,,,,,,,,,,,,,,,,,,,,,,,,,,,,,,,,,,471.2109999000095,471.2271571000456,471.72737999999663,471.71077930001775,471.72033119999105,471.72737999999663,471.72737999999663,471.72737999999663,478.3278816000093,Objects\191b.jpg,pre,o,6.5873708999715745,None,,,,,,,,00049,001,2026-01-25_11h31.50.122,MST_test,2024.2.0,59.914573805838,2026-01-25 11h32.01.132611 +0530,
73,0,74,o,7.791744399990421,None,74,0,73,478.34379950002767,,,,,,,,,,,,,,,,,,,,,,,,,,,,,,,,,,,,,,,,,,,,,,,,,,478.3279749000212,478.34379950002767,478.8440321999951,478.8274089000188,478.83021410001675,478.8440321999951,478.8440321999951,478.8440321999951,486.64419120003004,Objects\039a.jpg,pre,o,7.791744399990421,None,,,,,,,,00049,001,2026-01-25_11h31.50.122,MST_test,2024.2.0,59.914573805838,2026-01-25 11h32.01.132611 +0530,
74,0,75,s,2.514832699962426,None,75,0,74,486.6603226000443,,,,,,,,,,,,,,,,,,,,,,,,,,,,,,,,,,,,,,,,,,,,,,,,,,486.6442823000252,486.6603226000443,487.16055279999273,487.1440772000351,487.1467302000383,487.16055279999273,487.16055279999273,487.16055279999273,489.67780980002135,Objects\149a.jpg,post,s,2.514832699962426,None,,,,,,,,00049,001,2026-01-25_11h31.50.122,MST_test,2024.2.0,59.914573805838,2026-01-25 11h32.01.132611 +0530,
75,0,76,o,3.1609303999575786,None,76,0,75,489.6938249000232,,,,,,,,,,,,,,,,,,,,,,,,,,,,,,,,,,,,,,,,,,,,,,,,,,489.6779034000356,489.6938249000232,490.1940439000027,490.1773972000228,490.17974120000144,490.1940439000027,490.1940439000027,490.1940439000027,493.3610789999948,Objects\170a.jpg,mid,o,3.1609303999575786,None,,,,,,,,00049,001,2026-01-25_11h31.50.122,MST_test,2024.2.0,59.914573805838,2026-01-25 11h32.01.132611 +0530,
76,0,77,o,4.0781779999961145,None,77,0,76,493.37712350004585,,,,,,,,,,,,,,,,,,,,,,,,,,,,,,,,,,,,,,,,,,,,,,,,,,493.36117789999116,493.37712350004585,493.8773115000222,493.8607728999923,493.8631260000402,493.8773115000222,493.8773115000222,493.8773115000222,497.9610125999898,Objects\001a.jpg,mid,o,4.0781779999961145,None,,,,,,,,00049,001,2026-01-25_11h31.50.122,MST_test,2024.2.0,59.914573805838,2026-01-25 11h32.01.132611 +0530,
77,0,78,n,3.886148300021887,None,78,0,77,497.9770737999934,,,,,,,,,,,,,,,,,,,,,,,,,,,,,,,,,,,,,,,,,,,,,,,,,,497.96110660000704,497.9770737999934,498.4774494000012,498.4605470999959,498.47259220003616,498.4774494000012,498.4774494000012,498.4774494000012,502.3777504999889,Scenes\033b.jpg,mid,n,3.886148300021887,None,,,,,,,,00049,001,2026-01-25_11h31.50.122,MST_test,2024.2.0,59.914573805838,2026-01-25 11h32.01.132611 +0530,
78,0,79,n,3.1726685000467114,None,79,0,78,502.3936549000209,,,,,,,,,,,,,,,,,,,,,,,,,,,,,,,,,,,,,,,,,,,,,,,,,,502.3778505999944,502.3936549000209,502.89431220002007,502.8772951000137,502.89221000002,502.89431220002007,502.89431220002007,502.89431220002007,506.0775537000154,Scenes\163b.jpg,post,n,3.1726685000467114,None,,,,,,,,00049,001,2026-01-25_11h31.50.122,MST_test,2024.2.0,59.914573805838,2026-01-25 11h32.01.132611 +0530,
79,0,80,s,3.465137999970466,None,80,0,79,506.0937103999895,,,,,,,,,,,,,,,,,,,,,,,,,,,,,,,,,,,,,,,,,,,,,,,,,,506.077648400038,506.0937103999895,506.59423139999853,506.5772238000063,506.59164490003604,506.59423139999853,506.59423139999853,506.59423139999853,510.06098870001733,Scenes\049b.jpg,pre,s,3.465137999970466,None,,,,,,,,00049,001,2026-01-25_11h31.50.122,MST_test,2024.2.0,59.914573805838,2026-01-25 11h32.01.132611 +0530,
80,0,81,o,3.9700224999687634,None,81,0,80,510.0770428000251,,,,,,,,,,,,,,,,,,,,,,,,,,,,,,,,,,,,,,,,,,,,,,,,,,510.0610921999905,510.0770428000251,510.5774943000288,510.5604682000121,510.5729735000059,510.5774943000288,510.5774943000288,510.5774943000288,514.5612014000071,Objects\081b.jpg,pre,o,3.9700224999687634,None,,,,,,,,00049,001,2026-01-25_11h31.50.122,MST_test,2024.2.0,59.914573805838,2026-01-25 11h32.01.132611 +0530,
81,0,82,s,12.10973029996967,None,82,0,81,514.577044100035,,,,,,,,,,,,,,,,,,,,,,,,,,,,,,,,,,,,,,,,,,,,,,,,,,514.5612961000297,514.577044100035,515.0771907000453,515.0605465000262,515.0704330000444,515.0771907000453,515.0771907000453,515.0771907000453,527.1942967000068,Foils\033a.jpg,none,s,12.10973029996967,None,,,,,,,,00049,001,2026-01-25_11h31.50.122,MST_test,2024.2.0,59.914573805838,2026-01-25 11h32.01.132611 +0530,
82,0,83,s,11.236688900040463,None,83,0,82,527.2102281000116,,,,,,,,,,,,,,,,,,,,,,,,,,,,,,,,,,,,,,,,,,,,,,,,,,527.1943962000078,527.2102281000116,527.7105584000237,527.6939428999904,527.697120900033,527.7105584000237,527.7105584000237,527.7105584000237,538.9608972000424,Objects\162a.jpg,pre,s,11.236688900040463,None,,,,,,,,00049,001,2026-01-25_11h31.50.122,MST_test,2024.2.0,59.914573805838,2026-01-25 11h32.01.132611 +0530,
83,0,84,s,4.301494300016202,None,84,0,83,538.977058199991,,,,,,,,,,,,,,,,,,,,,,,,,,,,,,,,,,,,,,,,,,,,,,,,,,538.9609920000075,538.977058199991,539.4772672000108,539.4605101000052,539.4636169000296,539.4772672000108,539.4772672000108,539.4772672000108,543.7943634000258,Objects\113a.jpg,mid,s,4.301494300016202,None,,,,,,,,00049,001,2026-01-25_11h31.50.122,MST_test,2024.2.0,59.914573805838,2026-01-25 11h32.01.132611 +0530,
84,0,85,n,6.981096200004686,None,85,0,84,543.8102913000039,,,,,,,,,,,,,,,,,,,,,,,,,,,,,,,,,,,,,,,,,,,,,,,,,,543.7944596000016,543.8102913000039,544.3105032000458,544.2940612999955,544.3044641000452,544.3105032000458,544.3105032000458,544.3105032000458,551.2942699000123,Foils\105a.jpg,none,n,6.981096200004686,None,,,,,,,,00049,001,2026-01-25_11h31.50.122,MST_test,2024.2.0,59.914573805838,2026-01-25 11h32.01.132611 +0530,
85,0,86,o,2.809358600003179,None,86,0,85,551.3101884000353,,,,,,,,,,,,,,,,,,,,,,,,,,,,,,,,,,,,,,,,,,,,,,,,,,551.2943660000456,551.3101884000353,551.8106912000221,551.793848500005,551.8017755000037,551.8106912000221,551.8106912000221,551.8106912000221,554.6275793000241,Scenes\092a.jpg,pre,o,2.809358600003179,None,,,,,,,,00049,001,2026-01-25_11h31.50.122,MST_test,2024.2.0,59.914573805838,2026-01-25 11h32.01.132611 +0530,
86,0,87,n,4.41291720001027,None,87,0,86,554.6436942000291,,,,,,,,,,,,,,,,,,,,,,,,,,,,,,,,,,,,,,,,,,,,,,,,,,554.6276770000113,554.6436942000291,555.1502379000303,555.1272072000429,555.1482490000199,555.1502379000303,555.1502379000303,555.1502379000303,559.5776368000079,Scenes\054b.jpg,post,n,4.41291720001027,None,,,,,,,,00049,001,2026-01-25_11h31.50.122,MST_test,2024.2.0,59.914573805838,2026-01-25 11h32.01.132611 +0530,
87,0,88,n,7.752233700011857,None,88,0,87,559.5937763000256,,,,,,,,,,,,,,,,,,,,,,,,,,,,,,,,,,,,,,,,,,,,,,,,,,559.5777288000099,559.5937763000256,560.0989271000144,560.0773976999917,560.0963674000232,560.0989271000144,560.0989271000144,560.0989271000144,567.8608275000006,Foils\scenes22.jpg,none,n,7.752233700011857,None,,,,,,,,00049,001,2026-01-25_11h31.50.122,MST_test,2024.2.0,59.914573805838,2026-01-25 11h32.01.132611 +0530,
88,0,89,o,4.841123400023207,None,89,0,88,567.8770988000324,,,,,,,,,,,,,,,,,,,,,,,,,,,,,,,,,,,,,,,,,,,,,,,,,,567.8609157000319,567.8770988000324,568.3781738000107,568.360642899992,568.3758504000143,568.3781738000107,568.3781738000107,568.3781738000107,573.2277182000107,Scenes\182b.jpg,pre,o,4.841123400023207,None,,,,,,,,00049,001,2026-01-25_11h31.50.122,MST_test,2024.2.0,59.914573805838,2026-01-25 11h32.01.132611 +0530,
89,0,90,s,2.811147300002631,None,90,0,89,573.2438021000125,,,,,,,,,,,,,,,,,,,,,,,,,,,,,,,,,,,,,,,,,,,,,,,,,,573.2278127000318,573.2438021000125,573.7442468000227,573.7274166000425,573.7306141000008,573.7442468000227,573.7442468000227,573.7442468000227,576.5609579000156,Objects\159a.jpg,mid,s,2.811147300002631,None,,,,,,,,00049,001,2026-01-25_11h31.50.122,MST_test,2024.2.0,59.914573805838,2026-01-25 11h32.01.132611 +0530,
90,0,91,o,6.4053074000403285,None,91,0,90,576.5771317000035,,,,,,,,,,,,,,,,,,,,,,,,,,,,,,,,,,,,,,,,,,,,,,,,,,576.5610586000257,576.5771317000035,577.077282000042,577.0605543000274,577.0714389000204,577.077282000042,577.077282000042,577.077282000042,583.4942281999975,Objects\020b.jpg,post,o,6.4053074000403285,None,,,,,,,,00049,001,2026-01-25_11h31.50.122,MST_test,2024.2.0,59.914573805838,2026-01-25 11h32.01.132611 +0530,
91,0,92,n,3.664097800035961,None,92,0,91,583.5104108999949,,,,,,,,,,,,,,,,,,,,,,,,,,,,,,,,,,,,,,,,,,,,,,,,,,583.4943182000425,583.5104108999949,584.0106543000438,583.9940572000341,584.0031687000301,584.0106543000438,584.0106543000438,584.0106543000438,587.6774958000169,Foils\113a.jpg,none,n,3.664097800035961,None,,,,,,,,00049,001,2026-01-25_11h31.50.122,MST_test,2024.2.0,59.914573805838,2026-01-25 11h32.01.132611 +0530,
92,0,93,s,7.8971333999652416,None,93,0,92,587.6936912999954,,,,,,,,,,,,,,,,,,,,,,,,,,,,,,,,,,,,,,,,,,,,,,,,,,587.6775889000273,587.6936912999954,588.1942338999943,588.1774103000062,588.1920624999912,588.1942338999943,588.1942338999943,588.1942338999943,596.0942658000276,Scenes\007b.jpg,pre,s,7.8971333999652416,None,,,,,,,,00049,001,2026-01-25_11h31.50.122,MST_test,2024.2.0,59.914573805838,2026-01-25 11h32.01.132611 +0530,
93,0,94,n,5.901522100029979,None,94,0,93,596.1101807000232,,,,,,,,,,,,,,,,,,,,,,,,,,,,,,,,,,,,,,,,,,,,,,,,,,596.0943574000266,596.1101807000232,596.6130571000394,596.593952300027,596.610966200009,596.6130571000394,596.6130571000394,596.6130571000394,602.5276078000315,Scenes\175b.jpg,mid,n,5.901522100029979,None,,,,,,,,00049,001,2026-01-25_11h31.50.122,MST_test,2024.2.0,59.914573805838,2026-01-25 11h32.01.132611 +0530,
94,0,95,o,3.8880950000020675,None,95,0,94,602.5436117000063,,,,,,,,,,,,,,,,,,,,,,,,,,,,,,,,,,,,,,,,,,,,,,,,,,602.5276966000092,602.5436117000063,603.0442131000455,603.0273046999937,603.0381063999957,603.0442131000455,603.0442131000455,603.0442131000455,606.9442027999903,Objects\175b.jpg,pre,o,3.8880950000020675,None,,,,,,,,00049,001,2026-01-25_11h31.50.122,MST_test,2024.2.0,59.914573805838,2026-01-25 11h32.01.132611 +0530,
95,0,96,n,4.023299799999222,None,96,0,95,606.9601697000326,,,,,,,,,,,,,,,,,,,,,,,,,,,,,,,,,,,,,,,,,,,,,,,,,,606.944292500033,606.9601697000326,607.4685076000169,607.4439379000105,607.4662638000445,607.4685076000169,607.4685076000169,607.4685076000169,611.4942900000024,Scenes\170b.jpg,pre,n,4.023299799999222,None,,,,,,,,00049,001,2026-01-25_11h31.50.122,MST_test,2024.2.0,59.914573805838,2026-01-25 11h32.01.132611 +0530,
96,0,97,s,6.232081199996173,None,97,0,96,611.5102794000413,,,,,,,,,,,,,,,,,,,,,,,,,,,,,,,,,,,,,,,,,,,,,,,,,,611.4943823000067,611.5102794000413,612.0109386999975,611.9939221999957,612.0086272000335,612.0109386999975,612.0109386999975,612.0109386999975,618.2443528000149,Scenes\180b.jpg,mid,s,6.232081199996173,None,,,,,,,,00049,001,2026-01-25_11h31.50.122,MST_test,2024.2.0,59.914573805838,2026-01-25 11h32.01.132611 +0530,
97,0,98,n,3.3859314000001177,None,98,0,97,618.2602592000039,,,,,,,,,,,,,,,,,,,,,,,,,,,,,,,,,,,,,,,,,,,,,,,,,,618.2444422999979,618.2602592000039,618.7607357000234,618.7439378999989,618.7471714999992,618.7607357000234,618.7607357000234,618.7607357000234,622.1608416000381,Objects\060a.jpg,mid,n,3.3859314000001177,None,,,,,,,,00049,001,2026-01-25_11h31.50.122,MST_test,2024.2.0,59.914573805838,2026-01-25 11h32.01.132611 +0530,
98,0,99,n,1.4542004999821074,None,99,0,98,622.1769906000118,,,,,,,,,,,,,,,,,,,,,,,,,,,,,,,,,,,,,,,,,,,,,,,,,,622.1609318000264,622.1769906000118,622.6771950999973,622.660434600024,622.6699068000307,622.6771950999973,622.6771950999973,622.6771950999973,624.1442282000207,Foils\074a.jpg,none,n,1.4542004999821074,None,,,,,,,,00049,001,2026-01-25_11h31.50.122,MST_test,2024.2.0,59.914573805838,2026-01-25 11h32.01.132611 +0530,
99,0,100,n,1.5551081000012346,None,100,0,99,624.1601627999917,,,,,,,,,,,,,,,,,,,,,,,,,,,,,,,,,,,,,,,,,,,,,,,,,,624.1443302000407,624.1601627999917,624.6725099000032,624.6442195000127,624.6701496000169,624.6725099000032,624.6725099000032,624.6725099000032,626.2443420999916,Foils\scenes23.jpg,none,n,1.5551081000012346,None,,,,,,,,00049,001,2026-01-25_11h31.50.122,MST_test,2024.2.0,59.914573805838,2026-01-25 11h32.01.132611 +0530,
100,0,101,s,6.097964700020384,None,101,0,100,626.2603156000259,,,,,,,,,,,,,,,,,,,,,,,,,,,,,,,,,,,,,,,,,,,,,,,,,,626.2444399000378,626.2603156000259,626.7610675999895,626.7439361000434,626.7565054000006,626.7610675999895,626.7610675999895,626.7610675999895,632.8606764000142,Scenes\032a.jpg,post,s,6.097964700020384,None,,,,,,,,00049,001,2026-01-25_11h31.50.122,MST_test,2024.2.0,59.914573805838,2026-01-25 11h32.01.132611 +0530,
101,0,102,n,1.329826699977275,None,102,0,101,632.8770212000236,,,,,,,,,,,,,,,,,,,,,,,,,,,,,,,,,,,,,,,,,,,,,,,,,,632.8607655999949,632.8770212000236,633.3775708000176,633.3605465000146,633.3718909000163,633.3775708000176,633.3775708000176,633.3775708000176,634.710771300015,Foils\097a.jpg,none,n,1.329826699977275,None,,,,,,,,00049,001,2026-01-25_11h31.50.122,MST_test,2024.2.0,59.914573805838,2026-01-25 11h32.01.132611 +0530,
102,0,103,o,4.536676999996416,None,103,0,102,634.7269962000428,,,,,,,,,,,,,,,,,,,,,,,,,,,,,,,,,,,,,,,,,,,,,,,,,,634.7108604999958,634.7269962000428,635.2271686000167,635.2105551999994,635.2132272000308,635.2271686000167,635.2271686000167,635.2271686000167,639.7775332000456,Objects\108a.jpg,pre,o,4.536676999996416,None,,,,,,,,00049,001,2026-01-25_11h31.50.122,MST_test,2024.2.0,59.914573805838,2026-01-25 11h32.01.132611 +0530,
103,0,104,o,2.045562000013888,None,104,0,103,639.7936604000279,,,,,,,,,,,,,,,,,,,,,,,,,,,,,,,,,,,,,,,,,,,,,,,,,,639.7776280000107,639.7936604000279,640.2938878000132,640.2772710000281,640.2866996999946,640.2938878000132,640.2938878000132,640.2938878000132,642.3441556000034,Objects\120b.jpg,pre,o,2.045562000013888,None,,,,,,,,00049,001,2026-01-25_11h31.50.122,MST_test,2024.2.0,59.914573805838,2026-01-25 11h32.01.132611 +0530,
104,0,105,o,6.4308195999474265,None,105,0,104,642.3601655000239,,,,,,,,,,,,,,,,,,,,,,,,,,,,,,,,,,,,,,,,,,,,,,,,,,642.3442462999956,642.3601655000239,642.8606990000117,642.8438509000116,642.8582152000163,642.8606990000117,642.8606990000117,642.8606990000117,649.2942099000211,Scenes\069b.jpg,post,o,6.4308195999474265,None,,,,,,,,00049,001,2026-01-25_11h31.50.122,MST_test,2024.2.0,59.914573805838,2026-01-25 11h32.01.132611 +0530,
105,0,106,n,2.543898200034164,None,106,0,105,649.310232000018,,,,,,,,,,,,,,,,,,,,,,,,,,,,,,,,,,,,,,,,,,,,,,,,,,649.2943009000155,649.310232000018,649.8107757000253,649.7939838000457,649.8043873000424,649.8107757000253,649.8107757000253,649.8107757000253,652.3608214000124,Foils\020b.jpg,none,n,2.543898200034164,None,,,,,,,,00049,001,2026-01-25_11h31.50.122,MST_test,2024.2.0,59.914573805838,2026-01-25 11h32.01.132611 +0530,
106,0,107,o,3.6776236000005156,None,107,0,106,652.376926500001,,,,,,,,,,,,,,,,,,,,,,,,,,,,,,,,,,,,,,,,,,,,,,,,,,652.3609107999946,652.376926500001,652.8774161000038,652.8605177000281,652.8671524000238,652.8774161000038,652.8774161000038,652.8774161000038,656.5607473000418,Scenes\153a.jpg,pre,o,3.6776236000005156,None,,,,,,,,00049,001,2026-01-25_11h31.50.122,MST_test,2024.2.0,59.914573805838,2026-01-25 11h32.01.132611 +0530,
107,0,108,s,4.021952399984002,None,108,0,107,656.5769833000377,,,,,,,,,,,,,,,,,,,,,,,,,,,,,,,,,,,,,,,,,,,,,,,,,,656.560838400037,656.5769833000377,657.0773796000285,657.0604231000179,657.0703302000184,657.0773796000285,657.0773796000285,657.0773796000285,661.1109173000441,Foils\057a.jpg,none,s,4.021952399984002,None,,,,,,,,00049,001,2026-01-25_11h31.50.122,MST_test,2024.2.0,59.914573805838,2026-01-25 11h32.01.132611 +0530,
108,0,109,n,2.127295000012964,None,109,0,108,661.1269818000146,,,,,,,,,,,,,,,,,,,,,,,,,,,,,,,,,,,,,,,,,,,,,,,,,,661.1110066000256,661.1269818000146,661.627324000001,661.6104818000458,661.6195578000043,661.627324000001,661.627324000001,661.627324000001,663.7607811000198,Foils\scenes4.jpg,none,n,2.127295000012964,None,,,,,,,,00049,001,2026-01-25_11h31.50.122,MST_test,2024.2.0,59.914573805838,2026-01-25 11h32.01.132611 +0530,
109,0,110,n,2.8230537999770604,None,110,0,109,663.776973900036,,,,,,,,,,,,,,,,,,,,,,,,,,,,,,,,,,,,,,,,,,,,,,,,,,663.7608717000112,663.776973900036,664.2773069000104,664.2605832000263,664.2729824000271,664.2773069000104,664.2773069000104,664.2773069000104,667.1108105000458,Scenes\079b.jpg,pre,n,2.8230537999770604,None,,,,,,,,00049,001,2026-01-25_11h31.50.122,MST_test,2024.2.0,59.914573805838,2026-01-25 11h32.01.132611 +0530,
110,0,111,s,4.895108299970161,None,111,0,110,667.1269821000169,,,,,,,,,,,,,,,,,,,,,,,,,,,,,,,,,,,,,,,,,,,,,,,,,,667.1108987000189,667.1269821000169,667.6275142999948,667.6105189000373,667.6243006000295,667.6275142999948,667.6275142999948,667.6275142999948,672.5275731000002,Scenes\132b.jpg,mid,s,4.895108299970161,None,,,,,,,,00049,001,2026-01-25_11h31.50.122,MST_test,2024.2.0,59.914573805838,2026-01-25 11h32.01.132611 +0530,
111,0,112,n,5.050820300006308,None,112,0,111,672.543642100005,,,,,,,,,,,,,,,,,,,,,,,,,,,,,,,,,,,,,,,,,,,,,,,,,,672.527676000027,672.543642100005,673.0494265000452,673.0271790000261,673.0471563000465,673.0494265000452,673.0494265000452,673.0494265000452,678.1110911000287,Scenes\046b.jpg,mid,n,5.050820300006308,None,,,,,,,,00049,001,2026-01-25_11h31.50.122,MST_test,2024.2.0,59.914573805838,2026-01-25 11h32.01.132611 +0530,
112,0,113,o,8.39834370004246,None,113,0,112,678.127186800004,,,,,,,,,,,,,,,,,,,,,,,,,,,,,,,,,,,,,,,,,,,,,,,,,,678.1111895000213,678.127186800004,678.8853061000118,678.6106806999887,678.8808462000452,678.8853061000118,678.8853061000118,678.8853061000118,687.2943725000368,Foils\scenes26.jpg,none,o,8.39834370004246,None,,,,,,,,00049,001,2026-01-25_11h31.50.122,MST_test,2024.2.0,59.914573805838,2026-01-25 11h32.01.132611 +0530,
113,0,114,n,1.2177358000189997,None,114,0,113,687.3104061000049,,,,,,,,,,,,,,,,,,,,,,,,,,,,,,,,,,,,,,,,,,,,,,,,,,687.2944638000336,687.3104061000049,687.8252803999931,687.7939141000388,687.8231616000412,687.8252803999931,687.8252803999931,687.8252803999931,689.0444659999921,Foils\101b.jpg,none,n,1.2177358000189997,None,,,,,,,,00049,001,2026-01-25_11h31.50.122,MST_test,2024.2.0,59.914573805838,2026-01-25 11h32.01.132611 +0530,
114,0,115,s,4.377744600002188,None,115,0,114,689.0604129999992,,,,,,,,,,,,,,,,,,,,,,,,,,,,,,,,,,,,,,,,,,,,,,,,,,689.0445573999896,689.0604129999992,689.5615820999956,689.5440537999966,689.5593822000083,689.5615820999956,689.5615820999956,689.5615820999956,693.9443534000311,Scenes\067b.jpg,post,s,4.377744600002188,None,,,,,,,,00049,001,2026-01-25_11h31.50.122,MST_test,2024.2.0,59.914573805838,2026-01-25 11h32.01.132611 +0530,
115,0,116,o,8.222723699989729,None,116,0,115,693.9603531000321,,,,,,,,,,,,,,,,,,,,,,,,,,,,,,,,,,,,,,,,,,,,,,,,,,693.9444434000179,693.9603531000321,694.460894000018,694.4439720000373,694.4471861000056,694.460894000018,694.460894000018,694.460894000018,702.6941645999905,Objects\031a.jpg,post,o,8.222723699989729,None,,,,,,,,00049,001,2026-01-25_11h31.50.122,MST_test,2024.2.0,59.914573805838,2026-01-25 11h32.01.132611 +0530,
116,0,117,o,1.1922888000262901,None,117,0,116,702.710410700005,,,,,,,,,,,,,,,,,,,,,,,,,,,,,,,,,,,,,,,,,,,,,,,,,,702.6942576000001,702.710410700005,703.210656500014,703.1941200000001,703.2049758000067,703.210656500014,703.210656500014,703.210656500014,704.4109843000188,Objects\038b.jpg,mid,o,1.1922888000262901,None,,,,,,,,00049,001,2026-01-25_11h31.50.122,MST_test,2024.2.0,59.914573805838,2026-01-25 11h32.01.132611 +0530,
117,0,118,n,3.099565399985295,None,118,0,117,704.4270029999898,,,,,,,,,,,,,,,,,,,,,,,,,,,,,,,,,,,,,,,,,,,,,,,,,,704.4110756000155,704.4270029999898,704.927642100025,704.9106216999935,704.9215868000174,704.927642100025,704.927642100025,704.927642100025,708.0279488000087,Scenes\102a.jpg,post,n,3.099565399985295,None,,,,,,,,00049,001,2026-01-25_11h31.50.122,MST_test,2024.2.0,59.914573805838,2026-01-25 11h32.01.132611 +0530,
118,0,119,n,2.9149119000067003,None,119,0,118,708.0437606000341,,,,,,,,,,,,,,,,,,,,,,,,,,,,,,,,,,,,,,,,,,,,,,,,,,708.0280397000024,708.0437606000341,708.5442269000341,708.5272680000053,708.5331474000122,708.5442269000341,708.5442269000341,708.5442269000341,711.4609782000189,Scenes\061a.jpg,pre,n,2.9149119000067003,None,,,,,,,,00049,001,2026-01-25_11h31.50.122,MST_test,2024.2.0,59.914573805838,2026-01-25 11h32.01.132611 +0530,
119,0,120,o,1.6741724000312388,None,120,0,119,711.4770850000205,,,,,,,,,,,,,,,,,,,,,,,,,,,,,,,,,,,,,,,,,,,,,,,,,,711.4610866000294,711.4770850000205,711.9774395000422,711.9605734000215,711.9638546000351,711.9774395000422,711.9774395000422,711.9774395000422,713.6611491999938,Objects\112a.jpg,post,o,1.6741724000312388,None,,,,,,,,00049,001,2026-01-25_11h31.50.122,MST_test,2024.2.0,59.914573805838,2026-01-25 11h32.01.132611 +0530,
120,0,121,o,1.897021799988579,None,121,0,120,713.6771347000031,,,,,,,,,,,,,,,,,,,,,,,,,,,,,,,,,,,,,,,,,,,,,,,,,,713.6612491999986,713.6771347000031,714.1775746000349,714.1606548000127,714.167297500011,714.1775746000349,714.1775746000349,714.1775746000349,716.0777185999905,Scenes\018a.jpg,mid,o,1.897021799988579,None,,,,,,,,00049,001,2026-01-25_11h31.50.122,MST_test,2024.2.0,59.914573805838,2026-01-25 11h32.01.132611 +0530,
121,0,122,o,2.321427799994126,None,122,0,121,716.0936415999895,,,,,,,,,,,,,,,,,,,,,,,,,,,,,,,,,,,,,,,,,,,,,,,,,,716.0778139000176,716.0936415999895,716.5942630000063,716.5772948000231,716.586010100029,716.5942630000063,716.5942630000063,716.5942630000063,718.927996500046,Scenes\058a.jpg,pre,o,2.321427799994126,None,,,,,,,,00049,001,2026-01-25_11h31.50.122,MST_test,2024.2.0,59.914573805838,2026-01-25 11h32.01.132611 +0530,
122,0,123,s,4.43908719997853,None,123,0,122,718.9437607,,,,,,,,,,,,,,,,,,,,,,,,,,,,,,,,,,,,,,,,,,,,,,,,,,718.9281000000192,718.9437607,719.4441442000098,719.4272295000264,719.4369682000251,719.4441442000098,719.4441442000098,719.4441442000098,723.8942998000421,Scenes\047a.jpg,post,s,4.43908719997853,None,,,,,,,,00049,001,2026-01-25_11h31.50.122,MST_test,2024.2.0,59.914573805838,2026-01-25 11h32.01.132611 +0530,
123,0,124,s,10.255732799996622,None,124,0,123,723.9103572000167,,,,,,,,,,,,,,,,,,,,,,,,,,,,,,,,,,,,,,,,,,,,,,,,,,723.894395100011,723.9103572000167,724.4109188000439,724.3939469000325,724.4043597000418,724.4109188000439,724.4109188000439,724.4109188000439,734.6775659000268,Objects\182b.jpg,pre,s,10.255732799996622,None,,,,,,,,00049,001,2026-01-25_11h31.50.122,MST_test,2024.2.0,59.914573805838,2026-01-25 11h32.01.132611 +0530,
124,0,125,n,1.2567195000010543,None,125,0,124,734.6936635000166,,,,,,,,,,,,,,,,,,,,,,,,,,,,,,,,,,,,,,,,,,,,,,,,,,734.6776645000209,734.6936635000166,735.1938093000208,735.1772933999891,735.1871621000464,735.1938093000208,735.1938093000208,735.1938093000208,736.4609286999912,Foils\082a.jpg,none,n,1.2567195000010543,None,,,,,,,,00049,001,2026-01-25_11h31.50.122,MST_test,2024.2.0,59.914573805838,2026-01-25 11h32.01.132611 +0530,
125,0,126,s,2.2014248000341468,None,126,0,125,736.4770706000272,,,,,,,,,,,,,,,,,,,,,,,,,,,,,,,,,,,,,,,,,,,,,,,,,,736.4610262000351,736.4770706000272,736.9771901000058,736.9605882000178,736.9697268000455,736.9771901000058,736.9771901000058,736.9771901000058,739.1939925000188,Objects\076b.jpg,post,s,2.2014248000341468,None,,,,,,,,00049,001,2026-01-25_11h31.50.122,MST_test,2024.2.0,59.914573805838,2026-01-25 11h32.01.132611 +0530,
126,0,127,o,6.773192399996333,None,127,0,126,739.2102900000173,,,,,,,,,,,,,,,,,,,,,,,,,,,,,,,,,,,,,,,,,,,,,,,,,,739.1940828000079,739.2102900000173,739.7105111000128,739.6937720000278,739.7029196000076,739.7105111000128,739.7105111000128,739.7105111000128,746.4940329000237,Objects\166b.jpg,pre,o,6.773192399996333,None,,,,,,,,00049,001,2026-01-25_11h31.50.122,MST_test,2024.2.0,59.914573805838,2026-01-25 11h32.01.132611 +0530,
127,0,128,s,3.5364424000144936,None,128,0,127,746.5102895000018,,,,,,,,,,,,,,,,,,,,,,,,,,,,,,,,,,,,,,,,,,,,,,,,,,746.4941268000402,746.5102895000018,747.0105758000282,746.9938167000073,747.0033041000133,747.0105758000282,747.0105758000282,747.0105758000282,750.5608093999908,Objects\102b.jpg,pre,s,3.5364424000144936,None,,,,,,,,00049,001,2026-01-25_11h31.50.122,MST_test,2024.2.0,59.914573805838,2026-01-25 11h32.01.132611 +0530,
128,0,129,n,1.6615874000126496,None,129,0,128,750.5769743000274,,,,,,,,,,,,,,,,,,,,,,,,,,,,,,,,,,,,,,,,,,,,,,,,,,750.5609093999956,750.5769743000274,751.0774694000138,751.0606352000032,751.0693009000388,751.0774694000138,751.0774694000138,751.0774694000138,752.7441811000463,Foils\scenes20.jpg,none,n,1.6615874000126496,None,,,,,,,,00049,001,2026-01-25_11h31.50.122,MST_test,2024.2.0,59.914573805838,2026-01-25 11h32.01.132611 +0530,
129,0,130,o,3.838660200010054,None,130,0,129,752.7602869000402,,,,,,,,,,,,,,,,,,,,,,,,,,,,,,,,,,,,,,,,,,,,,,,,,,752.7442774000228,752.7602869000402,753.2606274000136,753.2437805000227,753.2513528999989,753.2606274000136,753.2606274000136,753.2606274000136,757.1108095000382,Scenes\186a.jpg,mid,o,3.838660200010054,None,,,,,,,,00049,001,2026-01-25_11h31.50.122,MST_test,2024.2.0,59.914573805838,2026-01-25 11h32.01.132611 +0530,
130,0,131,s,13.432161799981259,None,131,0,130,757.1269510000129,,,,,,,,,,,,,,,,,,,,,,,,,,,,,,,,,,,,,,,,,,,,,,,,,,757.1109011000372,757.1269510000129,757.6274391000043,757.6105500000413,757.614069800009,757.6274391000043,757.6274391000043,757.6274391000043,771.0608465000405,Objects\030a.jpg,post,s,13.432161799981259,None,,,,,,,,00049,001,2026-01-25_11h31.50.122,MST_test,2024.2.0,59.914573805838,2026-01-25 11h32.01.132611 +0530,
131,0,132,n,1.1694504999904893,None,132,0,131,771.0769405000028,,,,,,,,,,,,,,,,,,,,,,,,,,,,,,,,,,,,,,,,,,,,,,,,,,771.0609427000163,771.0769405000028,771.5771139000426,771.5605330000399,771.5702504999936,771.5771139000426,771.5771139000426,771.5771139000426,772.7608259000117,Objects\190b.jpg,mid,n,1.1694504999904893,None,,,,,,,,00049,001,2026-01-25_11h31.50.122,MST_test,2024.2.0,59.914573805838,2026-01-25 11h32.01.132611 +0530,
132,0,133,o,3.4775853999890387,None,133,0,132,772.7769063000451,,,,,,,,,,,,,,,,,,,,,,,,,,,,,,,,,,,,,,,,,,,,,,,,,,772.760935200029,772.7769063000451,773.2771441999939,773.2615207000053,773.2638865000335,773.2771441999939,773.2771441999939,773.2771441999939,776.76086390001,Objects\135a.jpg,post,o,3.4775853999890387,None,,,,,,,,00049,001,2026-01-25_11h31.50.122,MST_test,2024.2.0,59.914573805838,2026-01-25 11h32.01.132611 +0530,
133,0,134,o,1.2462752999854274,None,134,0,133,776.7768692999962,,,,,,,,,,,,,,,,,,,,,,,,,,,,,,,,,,,,,,,,,,,,,,,,,,776.7609538999968,776.7768692999962,777.2771812000428,777.2605735000107,777.2632612000452,777.2771812000428,777.2771812000428,777.2771812000428,778.5280046000262,Objects\034a.jpg,pre,o,1.2462752999854274,None,,,,,,,,00049,001,2026-01-25_11h31.50.122,MST_test,2024.2.0,59.914573805838,2026-01-25 11h32.01.132611 +0530,
134,0,135,o,2.895493099989835,None,135,0,134,778.5436085000401,,,,,,,,,,,,,,,,,,,,,,,,,,,,,,,,,,,,,,,,,,,,,,,,,,778.5281085000024,778.5436085000401,779.0438224000391,779.0275448000175,779.0382625000202,779.0438224000391,779.0438224000391,779.0438224000391,781.9442345999996,Foils\081a.jpg,none,o,2.895493099989835,None,,,,,,,,00049,001,2026-01-25_11h31.50.122,MST_test,2024.2.0,59.914573805838,2026-01-25 11h32.01.132611 +0530,
135,0,136,s,2.4461699999519624,None,136,0,135,781.9602956000017,,,,,,,,,,,,,,,,,,,,,,,,,,,,,,,,,,,,,,,,,,,,,,,,,,781.9443320000428,781.9602956000017,782.4605082999915,782.4437237000093,782.4468200000119,782.4605082999915,782.4605082999915,782.4605082999915,784.9109334000386,Objects\024a.jpg,mid,s,2.4461699999519624,None,,,,,,,,00049,001,2026-01-25_11h31.50.122,MST_test,2024.2.0,59.914573805838,2026-01-25 11h32.01.132611 +0530,
136,0,137,s,1.3675660999724641,None,137,0,136,784.9268751000054,,,,,,,,,,,,,,,,,,,,,,,,,,,,,,,,,,,,,,,,,,,,,,,,,,784.9110239000292,784.9268751000054,785.4271644999972,785.4105396000086,785.4196519000106,785.4271644999972,785.4271644999972,785.4271644999972,786.8108647000045,Objects\041b.jpg,mid,s,1.3675660999724641,None,,,,,,,,00049,001,2026-01-25_11h31.50.122,MST_test,2024.2.0,59.914573805838,2026-01-25 11h32.01.132611 +0530,
137,0,138,n,1.1277084999601357,None,138,0,137,786.826875800034,,,,,,,,,,,,,,,,,,,,,,,,,,,,,,,,,,,,,,,,,,,,,,,,,,786.8109536000411,786.826875800034,787.3310535000055,787.3106679000193,787.3289761000196,787.3310535000055,787.3310535000055,787.3310535000055,788.4609103000257,Scenes\039b.jpg,pre,n,1.1277084999601357,None,,,,,,,,00049,001,2026-01-25_11h31.50.122,MST_test,2024.2.0,59.914573805838,2026-01-25 11h32.01.132611 +0530,
138,0,139,s,2.0891957999556325,None,139,0,138,788.4768991000019,,,,,,,,,,,,,,,,,,,,,,,,,,,,,,,,,,,,,,,,,,,,,,,,,,788.4610007000156,788.4768991000019,788.9773861000431,788.9604785999982,788.96371000004,788.9773861000431,788.9773861000431,788.9773861000431,791.0774986000033,Objects\077a.jpg,post,s,2.0891957999556325,None,,,,,,,,00049,001,2026-01-25_11h31.50.122,MST_test,2024.2.0,59.914573805838,2026-01-25 11h32.01.132611 +0530,
139,0,140,n,1.5699734999798238,None,140,0,139,791.0933711000253,,,,,,,,,,,,,,,,,,,,,,,,,,,,,,,,,,,,,,,,,,,,,,,,,,791.077625600039,791.0933711000253,791.5938566999976,791.5771804000251,791.5863329000422,791.5938566999976,791.5938566999976,791.5938566999976,793.1774136000313,Foils\scenes6.jpg,none,n,1.5699734999798238,None,,,,,,,,00049,001,2026-01-25_11h31.50.122,MST_test,2024.2.0,59.914573805838,2026-01-25 11h32.01.132611 +0530,
140,0,141,n,2.388713199994527,None,141,0,140,793.1935382999945,,,,,,,,,,,,,,,,,,,,,,,,,,,,,,,,,,,,,,,,,,,,,,,,,,793.1775052000303,793.1935382999945,793.6938650000375,793.6771155000315,793.6860392999952,793.6938650000375,793.6938650000375,793.6938650000375,796.0940093999961,Scenes\013a.jpg,pre,n,2.388713199994527,None,,,,,,,,00049,001,2026-01-25_11h31.50.122,MST_test,2024.2.0,59.914573805838,2026-01-25 11h32.01.132611 +0530,
141,0,142,n,3.112542500020936,None,142,0,141,796.110264900024,,,,,,,,,,,,,,,,,,,,,,,,,,,,,,,,,,,,,,,,,,,,,,,,,,796.0940989000374,796.110264900024,796.6108629000373,796.5936957999947,796.6017028000206,796.6108629000373,796.6108629000373,796.6108629000373,799.7277976000332,Scenes\157a.jpg,post,n,3.112542500020936,None,,,,,,,,00049,001,2026-01-25_11h31.50.122,MST_test,2024.2.0,59.914573805838,2026-01-25 11h32.01.132611 +0530,
142,0,143,o,4.80644289997872,None,143,0,142,799.7436426000204,,,,,,,,,,,,,,,,,,,,,,,,,,,,,,,,,,,,,,,,,,,,,,,,,,799.7279034000239,799.7436426000204,800.244162100018,800.2273633000441,800.230415500002,800.244162100018,800.244162100018,800.244162100018,805.0609471999924,Scenes\097a.jpg,mid,o,4.80644289997872,None,,,,,,,,00049,001,2026-01-25_11h31.50.122,MST_test,2024.2.0,59.914573805838,2026-01-25 11h32.01.132611 +0530,
143,0,144,o,1.041691999998875,None,144,0,143,805.0770336000132,,,,,,,,,,,,,,,,,,,,,,,,,,,,,,,,,,,,,,,,,,,,,,,,,,805.0610384999891,805.0770336000132,805.5776432999992,805.560576000018,805.5728530000197,805.5776432999992,805.5776432999992,805.5776432999992,806.6276072000037,Objects\051b.jpg,pre,o,1.041691999998875,None,,,,,,,,00049,001,2026-01-25_11h31.50.122,MST_test,2024.2.0,59.914573805838,2026-01-25 11h32.01.132611 +0530,
144,0,145,s,1.8669666000059806,None,145,0,144,806.6437201999943,,,,,,,,,,,,,,,,,,,,,,,,,,,,,,,,,,,,,,,,,,,,,,,,,,806.6277105000336,806.6437201999943,807.144277799991,807.1272253000061,807.1377264999901,807.144277799991,807.144277799991,807.144277799991,809.0276263999986,Foils\050a.jpg,none,s,1.8669666000059806,None,,,,,,,,00049,001,2026-01-25_11h31.50.122,MST_test,2024.2.0,59.914573805838,2026-01-25 11h32.01.132611 +0530,
145,0,146,n,1.2886617999756709,None,146,0,145,809.043628400017,,,,,,,,,,,,,,,,,,,,,,,,,,,,,,,,,,,,,,,,,,,,,,,,,,809.027717399993,809.043628400017,809.5459799999953,809.5272925000172,809.5436648000032,809.5459799999953,809.5459799999953,809.5459799999953,810.8441947000101,Scenes\167b.jpg,pre,n,1.2886617999756709,None,,,,,,,,00049,001,2026-01-25_11h31.50.122,MST_test,2024.2.0,59.914573805838,2026-01-25 11h32.01.132611 +0530,
146,0,147,o,6.490397999994457,None,147,0,146,810.8603751999908,,,,,,,,,,,,,,,,,,,,,,,,,,,,,,,,,,,,,,,,,,,,,,,,,,810.8442868000129,810.8603751999908,811.3609034999972,811.3439057000214,811.3471688000136,811.3609034999972,811.3609034999972,811.3609034999972,817.8608611000236,Objects\176a.jpg,post,o,6.490397999994457,None,,,,,,,,00049,001,2026-01-25_11h31.50.122,MST_test,2024.2.0,59.914573805838,2026-01-25 11h32.01.132611 +0530,
147,0,148,s,8.225614800001495,None,148,0,147,817.8770200000145,,,,,,,,,,,,,,,,,,,,,,,,,,,,,,,,,,,,,,,,,,,,,,,,,,817.8609554000432,817.8770200000145,818.3772511000279,818.3605859000236,818.3637808000203,818.3772511000279,818.3772511000279,818.3772511000279,826.6109788000467,Objects\131a.jpg,pre,s,8.225614800001495,None,,,,,,,,00049,001,2026-01-25_11h31.50.122,MST_test,2024.2.0,59.914573805838,2026-01-25 11h32.01.132611 +0530,
148,0,149,s,1.9396240999922156,None,149,0,148,826.6270110000041,,,,,,,,,,,,,,,,,,,,,,,,,,,,,,,,,,,,,,,,,,,,,,,,,,826.6110691000358,826.6270110000041,827.1272156999912,827.1105138999992,827.1133151000249,827.1272156999912,827.1272156999912,827.1272156999912,829.0775218000053,Objects\111a.jpg,mid,s,1.9396240999922156,None,,,,,,,,00049,001,2026-01-25_11h31.50.122,MST_test,2024.2.0,59.914573805838,2026-01-25 11h32.01.132611 +0530,
149,0,150,n,1.2407493999926373,None,150,0,149,829.0936700000311,,,,,,,,,,,,,,,,,,,,,,,,,,,,,,,,,,,,,,,,,,,,,,,,,,829.0776162000257,829.0936700000311,829.5940614000428,829.5772738000378,829.5882898000418,829.5940614000428,829.5940614000428,829.5940614000428,830.8442659000284,Foils\scenes19.jpg,none,n,1.2407493999926373,None,,,,,,,,00049,001,2026-01-25_11h31.50.122,MST_test,2024.2.0,59.914573805838,2026-01-25 11h32.01.132611 +0530,
,,,,,,,,,,,,,,,,,,,,,,,,,,,,,,,,,,,,,,,,,,,,,,,,,,,,,,,,,,,,,,,,,,,,,,,,,830.8443317000056,830.8603958000313,830.8603958000313,834.3441291000345,space,3.4707329000229947,None,00049,001,2026-01-25_11h31.50.122,MST_test,2024.2.0,59.914573805838,2026-01-25 11h32.01.132611 +0530,
