thisN,thisTrialN,thisRepN,key_resp_3.keys,key_resp_3.rt,key_resp_3.duration,trials.thisRepN,trials.thisTrialN,trials.thisN,thisRow.t,notes,intro_page.started,text.started,key_resp.started,intro_page.stopped,key_resp.keys,key_resp.rt,key_resp.duration,instructions.started,text_2.started,key_resp_2.started,instructions.stopped,key_resp_2.keys,key_resp_2.rt,key_resp_2.duration,demo1.started,image_1.started,image_2.started,text_7.started,key_resp_6.started,text_9.started,demo1.stopped,key_resp_6.keys,key_resp_6.rt,key_resp_6.duration,demo2.started,image_5.started,image_6.started,text_11.started,text_12.started,key_resp_8.started,demo2.stopped,key_resp_8.keys,key_resp_8.rt,key_resp_8.duration,demo_conclusion.started,text_13.started,key_resp_9.started,demo_conclusion.stopped,key_resp_9.keys,key_resp_9.rt,key_resp_9.duration,start_test.started,text_6.started,key_resp_5.started,start_test.stopped,key_resp_5.keys,key_resp_5.rt,key_resp_5.duration,ISI.started,text_4.started,ISI.stopped,routine_1.started,image.started,text_3.started,key_resp_3.started,routine_1.stopped,image_path,position_of_stimuli,trials.key_resp_3.keys,trials.key_resp_3.rt,trials.key_resp_3.duration,text_4.stopped,End_page.started,text_5.started,key_resp_4.started,End_page.stopped,key_resp_4.keys,key_resp_4.rt,key_resp_4.duration,participant,session,date,expName,psychopyVersion,frameRate,expStart,
,,,,,,,,,,,0.001076200045645237,0.002738500013947487,0.002738500013947487,3.8610121000092477,space,3.8495303000090644,None,,,,,,,,,,,,,,,,,,,,,,,,,,,,,,,,,,,,,,,,,,,,,,,,,,,,,,,,,,,,,,,00046,001,2026-01-24_12h57.45.954,MST_test,2024.2.0,59.83344762862646,2026-01-24 12h57.53.162990 +0530,
,,,,,,,,,,,,,,,,,,3.8610498000052758,3.870939400047064,3.870939400047064,13.955415200034622,space,10.069009299972095,None,,,,,,,,,,,,,,,,,,,,,,,,,,,,,,,,,,,,,,,,,,,,,,,,,,,,,,,,00046,001,2026-01-24_12h57.45.954,MST_test,2024.2.0,59.83344762862646,2026-01-24 12h57.53.162990 +0530,
,,,,,,,,,,,,,,,,,,,,,,,,,13.955506800033618,13.993076200014912,13.993076200014912,13.993076200014912,13.993076200014912,13.993076200014912,21.688840900023934,space,7.6911350000300445,None,,,,,,,,,,,,,,,,,,,,,,,,,,,,,,,,,,,,,,,,,,,,,,00046,001,2026-01-24_12h57.45.954,MST_test,2024.2.0,59.83344762862646,2026-01-24 12h57.53.162990 +0530,
,,,,,,,,,,,,,,,,,,,,,,,,,,,,,,,,,,,21.68895219999831,21.705031700024847,21.705031700024847,21.705031700024847,21.705031700024847,21.705031700024847,24.05554770003073,space,2.347431799978949,None,,,,,,,,,,,,,,,,,,,,,,,,,,,,,,,,,,,,00046,001,2026-01-24_12h57.45.954,MST_test,2024.2.0,59.83344762862646,2026-01-24 12h57.53.162990 +0530,
,,,,,,,,,,,,,,,,,,,,,,,,,,,,,,,,,,,,,,,,,,,,,24.055648900044616,24.072214400046505,24.072214400046505,43.83866480004508,space,19.75579129997641,None,,,,,,,,,,,,,,,,,,,,,,,,,,,,,00046,001,2026-01-24_12h57.45.954,MST_test,2024.2.0,59.83344762862646,2026-01-24 12h57.53.162990 +0530,
,,,,,,,,,,,,,,,,,,,,,,,,,,,,,,,,,,,,,,,,,,,,,,,,,,,,43.83876010001404,43.8547865000437,43.8547865000437,90.98876980005298,space,47.133249400008935,None,,,,,,,,,,,,,,,,,,,,,,00046,001,2026-01-24_12h57.45.954,MST_test,2024.2.0,59.83344762862646,2026-01-24 12h57.53.162990 +0530,
0,0,1,o,2.97889040003065,None,1,0,0,91.00456010003109,,,,,,,,,,,,,,,,,,,,,,,,,,,,,,,,,,,,,,,,,,,,,,,,,,90.99900579999667,91.00456010003109,91.488990700047,91.50252300000284,91.50497310003266,91.50497310003266,91.50497310003266,94.4889159000013,Objects\121a.jpg,mid,o,2.97889040003065,None,,,,,,,,,00046,001,2026-01-24_12h57.45.954,MST_test,2024.2.0,59.83344762862646,2026-01-24 12h57.53.162990 +0530,
1,0,2,o,2.4989556000218727,None,2,0,1,94.50493330002064,,,,,,,,,,,,,,,,,,,,,,,,,,,,,,,,,,,,,,,,,,,,,,,,,,94.48929430003045,94.50493330002064,94.98850670002867,95.01468980003847,95.0167774000438,95.0167774000438,95.0167774000438,97.5223612000118,Objects\126b.jpg,pre,o,2.4989556000218727,None,95.0167774000438,,,,,,,,00046,001,2026-01-24_12h57.45.954,MST_test,2024.2.0,59.83344762862646,2026-01-24 12h57.53.162990 +0530,
2,0,3,o,1.5918306999956258,None,3,0,2,97.53841590002412,,,,,,,,,,,,,,,,,,,,,,,,,,,,,,,,,,,,,,,,,,,,,,,,,,97.52275740000186,97.53841590002412,98.02190230000997,98.06609999999637,98.06864460004726,98.06864460004726,98.06864460004726,99.67221670004074,Scenes\076b.jpg,post,o,1.5918306999956258,None,98.06864460004726,,,,,,,,00046,001,2026-01-24_12h57.45.954,MST_test,2024.2.0,59.83344762862646,2026-01-24 12h57.53.162990 +0530,
3,0,4,o,2.014077099971473,None,4,0,3,99.68795580003643,,,,,,,,,,,,,,,,,,,,,,,,,,,,,,,,,,,,,,,,,,,,,,,,,,99.67269780003699,99.68795580003643,100.17161090002628,100.22744899999816,100.2301239000517,100.2301239000517,100.2301239000517,102.25573770003393,Objects\078b.jpg,mid,o,2.014077099971473,None,100.2301239000517,,,,,,,,00046,001,2026-01-24_12h57.45.954,MST_test,2024.2.0,59.83344762862646,2026-01-24 12h57.53.162990 +0530,
4,0,5,o,1.0161933000199497,None,5,0,4,102.27135130000534,,,,,,,,,,,,,,,,,,,,,,,,,,,,,,,,,,,,,,,,,,,,,,,,,,102.25609480001731,102.27135130000534,102.75493400002597,102.75944700004766,102.77150780003285,102.77150780003285,102.77150780003285,103.78895940002985,Objects\021a.jpg,pre,o,1.0161933000199497,None,102.77150780003285,,,,,,,,00046,001,2026-01-24_12h57.45.954,MST_test,2024.2.0,59.83344762862646,2026-01-24 12h57.53.162990 +0530,
5,0,6,o,0.9228702000109479,None,6,0,5,103.8048852000502,,,,,,,,,,,,,,,,,,,,,,,,,,,,,,,,,,,,,,,,,,,,,,,,,,103.78935600002296,103.8048852000502,104.28822390001733,104.31903830001829,104.3214584000525,104.3214584000525,104.3214584000525,105.25557010003831,Objects\183b.jpg,mid,o,0.9228702000109479,None,104.3214584000525,,,,,,,,00046,001,2026-01-24_12h57.45.954,MST_test,2024.2.0,59.83344762862646,2026-01-24 12h57.53.162990 +0530,
6,0,7,o,6.200416399980895,None,7,0,6,105.27159940003185,,,,,,,,,,,,,,,,,,,,,,,,,,,,,,,,,,,,,,,,,,,,,,,,,,105.2559256000095,105.27159940003185,105.7562534000026,105.76725690002786,105.77184130001115,105.77184130001115,105.77184130001115,111.98850670002867,Scenes\036a.jpg,pre,o,6.200416399980895,None,,,,,,,,,00046,001,2026-01-24_12h57.45.954,MST_test,2024.2.0,59.83344762862646,2026-01-24 12h57.53.162990 +0530,
7,0,8,n,2.624034299980849,None,8,0,7,112.0048933000071,,,,,,,,,,,,,,,,,,,,,,,,,,,,,,,,,,,,,,,,,,,,,,,,,,111.98886150005274,112.0048933000071,112.48835080000572,112.52926490001846,112.5317809000262,112.5317809000262,112.5317809000262,115.17227840004489,Scenes\190b.jpg,post,n,2.624034299980849,None,112.5317809000262,,,,,,,,00046,001,2026-01-24_12h57.45.954,MST_test,2024.2.0,59.83344762862646,2026-01-24 12h57.53.162990 +0530,
8,0,9,n,1.1380946999997832,None,9,0,8,115.18801060004625,,,,,,,,,,,,,,,,,,,,,,,,,,,,,,,,,,,,,,,,,,,,,,,,,,115.1726341000176,115.18801060004625,115.67201219999697,115.68138490000274,115.68963820004137,115.68963820004137,115.68963820004137,116.83885460003512,Foils\020b.jpg,none,n,1.1380946999997832,None,115.68963820004137,,,,,,,,00046,001,2026-01-24_12h57.45.954,MST_test,2024.2.0,59.83344762862646,2026-01-24 12h57.53.162990 +0530,
9,0,10,n,7.434739799995441,None,10,0,9,116.85492940002587,,,,,,,,,,,,,,,,,,,,,,,,,,,,,,,,,,,,,,,,,,,,,,,,,,116.83923770004185,116.85492940002587,117.3385874000378,117.36660870001651,117.36930250003934,117.36930250003934,117.36930250003934,124.8056329000392,Foils\scenes23.jpg,none,n,7.434739799995441,None,117.36930250003934,,,,,,,,00046,001,2026-01-24_12h57.45.954,MST_test,2024.2.0,59.83344762862646,2026-01-24 12h57.53.162990 +0530,
10,0,11,o,1.5486662000184879,None,11,0,10,124.82152150000911,,,,,,,,,,,,,,,,,,,,,,,,,,,,,,,,,,,,,,,,,,,,,,,,,,124.80599780002376,124.82152150000911,125.30532230000244,125.32476850005332,125.32699000003049,125.32699000003049,125.32699000003049,126.88843570003519,Scenes\188a.jpg,pre,o,1.5486662000184879,None,125.32699000003049,,,,,,,,00046,001,2026-01-24_12h57.45.954,MST_test,2024.2.0,59.83344762862646,2026-01-24 12h57.53.162990 +0530,
11,0,12,s,3.718126800027676,None,12,0,11,126.9045577000361,,,,,,,,,,,,,,,,,,,,,,,,,,,,,,,,,,,,,,,,,,,,,,,,,,126.88868900004309,126.9045577000361,127.38806230004411,127.50704980001319,127.50976550002815,127.50976550002815,127.50976550002815,131.23900729999878,Scenes\133b.jpg,mid,s,3.718126800027676,None,127.50976550002815,,,,,,,,00046,001,2026-01-24_12h57.45.954,MST_test,2024.2.0,59.83344762862646,2026-01-24 12h57.53.162990 +0530,
12,0,13,o,3.017894900054671,None,13,0,12,131.25558220001403,,,,,,,,,,,,,,,,,,,,,,,,,,,,,,,,,,,,,,,,,,,,,,,,,,131.23937419999857,131.25558220001403,131.73864120000508,131.78431780001847,131.7866491000168,131.7866491000168,131.7866491000168,134.8058523000218,Scenes\103b.jpg,pre,o,3.017894900054671,None,131.7866491000168,,,,,,,,00046,001,2026-01-24_12h57.45.954,MST_test,2024.2.0,59.83344762862646,2026-01-24 12h57.53.162990 +0530,
13,0,14,o,1.2811444000108168,None,14,0,13,134.8215179000399,,,,,,,,,,,,,,,,,,,,,,,,,,,,,,,,,,,,,,,,,,,,,,,,,,134.8062132000341,134.8215179000399,135.30514690000564,135.39163730002474,135.3946624000091,135.3946624000091,135.3946624000091,136.68873580003856,Objects\055b.jpg,mid,o,1.2811444000108168,None,135.3946624000091,,,,,,,,00046,001,2026-01-24_12h57.45.954,MST_test,2024.2.0,59.83344762862646,2026-01-24 12h57.53.162990 +0530,
14,0,15,o,0.9394554999889806,None,15,0,14,136.7047392000095,,,,,,,,,,,,,,,,,,,,,,,,,,,,,,,,,,,,,,,,,,,,,,,,,,136.68890609999653,136.7047392000095,137.1886459000525,137.22999990003882,137.23248310002964,137.23248310002964,137.23248310002964,138.1888603999978,Scenes\070b.jpg,mid,o,0.9394554999889806,None,137.23248310002964,,,,,,,,00046,001,2026-01-24_12h57.45.954,MST_test,2024.2.0,59.83344762862646,2026-01-24 12h57.53.162990 +0530,
15,0,16,o,1.1538076999713667,None,16,0,15,138.20580420002807,,,,,,,,,,,,,,,,,,,,,,,,,,,,,,,,,,,,,,,,,,,,,,,,,,138.18919090001145,138.20580420002807,138.70555720000993,138.7139415999991,138.72255370003404,138.72255370003404,138.72255370003404,139.88885780004784,Objects\173a.jpg,post,o,1.1538076999713667,None,,,,,,,,,00046,001,2026-01-24_12h57.45.954,MST_test,2024.2.0,59.83344762862646,2026-01-24 12h57.53.162990 +0530,
16,0,17,o,0.8233726999606006,None,17,0,16,139.90492990001803,,,,,,,,,,,,,,,,,,,,,,,,,,,,,,,,,,,,,,,,,,,,,,,,,,139.8891272000037,139.90492990001803,140.38867460004985,140.490512999997,140.49304470000789,140.49304470000789,140.49304470000789,141.3224281000439,Scenes\017b.jpg,pre,o,0.8233726999606006,None,140.49304470000789,,,,,,,,00046,001,2026-01-24_12h57.45.954,MST_test,2024.2.0,59.83344762862646,2026-01-24 12h57.53.162990 +0530,
17,0,18,o,1.175964699999895,None,18,0,17,141.33819370000856,,,,,,,,,,,,,,,,,,,,,,,,,,,,,,,,,,,,,,,,,,,,,,,,,,141.32278370001586,141.33819370000856,141.82199790002778,141.88106280000648,141.88381420000223,141.88381420000223,141.88381420000223,143.07223760004854,Scenes\065b.jpg,pre,o,1.175964699999895,None,141.88381420000223,,,,,,,,00046,001,2026-01-24_12h57.45.954,MST_test,2024.2.0,59.83344762862646,2026-01-24 12h57.53.162990 +0530,
18,0,19,n,1.198913000000175,None,19,0,18,143.08808560000034,,,,,,,,,,,,,,,,,,,,,,,,,,,,,,,,,,,,,,,,,,,,,,,,,,143.07259150000755,143.08808560000034,143.57259100000374,143.5820287000388,143.58889800001634,143.58889800001634,143.58889800001634,144.7891192000243,Foils\049a.jpg,none,n,1.198913000000175,None,143.58889800001634,,,,,,,,00046,001,2026-01-24_12h57.45.954,MST_test,2024.2.0,59.83344762862646,2026-01-24 12h57.53.162990 +0530,
19,0,20,o,1.3952755000209436,None,20,0,19,144.80441540002357,,,,,,,,,,,,,,,,,,,,,,,,,,,,,,,,,,,,,,,,,,,,,,,,,,144.78947720001452,144.80441540002357,145.28825020004297,145.29322730004787,145.3051059000427,145.3051059000427,145.3051059000427,146.70546230004402,Objects\004a.jpg,post,o,1.3952755000209436,None,145.3051059000427,,,,,,,,00046,001,2026-01-24_12h57.45.954,MST_test,2024.2.0,59.83344762862646,2026-01-24 12h57.53.162990 +0530,
20,0,21,n,2.628249700006563,None,21,0,20,146.72153640002944,,,,,,,,,,,,,,,,,,,,,,,,,,,,,,,,,,,,,,,,,,,,,,,,,,146.7058229999966,146.72153640002944,147.20511270000134,147.47243980003987,147.47972910001408,147.47972910001408,147.47972910001408,150.12278390000574,Foils\scenes26.jpg,none,n,2.628249700006563,None,147.47972910001408,,,,,,,,00046,001,2026-01-24_12h57.45.954,MST_test,2024.2.0,59.83344762862646,2026-01-24 12h57.53.162990 +0530,
21,0,22,s,1.9331958999973722,None,22,0,21,150.1378887000028,,,,,,,,,,,,,,,,,,,,,,,,,,,,,,,,,,,,,,,,,,,,,,,,,,150.12314999999944,150.1378887000028,150.62197930004913,150.68499200005317,150.6869568999973,150.6869568999973,150.6869568999973,152.6226257000235,Objects\118b.jpg,mid,s,1.9331958999973722,None,150.6869568999973,,,,,,,,00046,001,2026-01-24_12h57.45.954,MST_test,2024.2.0,59.83344762862646,2026-01-24 12h57.53.162990 +0530,
22,0,23,s,3.0973258999874815,None,23,0,22,152.6382877000142,,,,,,,,,,,,,,,,,,,,,,,,,,,,,,,,,,,,,,,,,,,,,,,,,,152.62290270003723,152.6382877000142,153.1218102000421,153.15317590004997,153.1557385000051,153.1557385000051,153.1557385000051,156.2552889000508,Foils\074a.jpg,none,s,3.0973258999874815,None,153.1557385000051,,,,,,,,00046,001,2026-01-24_12h57.45.954,MST_test,2024.2.0,59.83344762862646,2026-01-24 12h57.53.162990 +0530,
23,0,24,o,1.3841353000025265,None,24,0,23,156.2715229000314,,,,,,,,,,,,,,,,,,,,,,,,,,,,,,,,,,,,,,,,,,,,,,,,,,156.25564210000448,156.2715229000314,156.75539720000234,156.76480440003797,156.77158550004242,156.77158550004242,156.77158550004242,158.1720639000414,Objects\027a.jpg,mid,o,1.3841353000025265,None,156.77158550004242,,,,,,,,00046,001,2026-01-24_12h57.45.954,MST_test,2024.2.0,59.83344762862646,2026-01-24 12h57.53.162990 +0530,
24,0,25,o,0.744126400037203,None,25,0,24,158.18827430001693,,,,,,,,,,,,,,,,,,,,,,,,,,,,,,,,,,,,,,,,,,,,,,,,,,158.1724212000263,158.18827430001693,158.671470900008,158.72184210002888,158.72417200001655,158.72417200001655,158.72417200001655,159.4721005000174,Objects\167b.jpg,pre,o,0.744126400037203,None,158.72417200001655,,,,,,,,00046,001,2026-01-24_12h57.45.954,MST_test,2024.2.0,59.83344762862646,2026-01-24 12h57.53.162990 +0530,
25,0,26,o,1.36674009996932,None,26,0,25,159.48817600001348,,,,,,,,,,,,,,,,,,,,,,,,,,,,,,,,,,,,,,,,,,,,,,,,,,159.47245270002168,159.48817600001348,159.97207870002603,160.01851870003156,160.02123880002182,160.02123880002182,160.02123880002182,161.38922800001455,Scenes\149b.jpg,post,o,1.36674009996932,None,160.02123880002182,,,,,,,,00046,001,2026-01-24_12h57.45.954,MST_test,2024.2.0,59.83344762862646,2026-01-24 12h57.53.162990 +0530,
26,0,27,s,4.8660682999761775,None,27,0,26,161.40449159999844,,,,,,,,,,,,,,,,,,,,,,,,,,,,,,,,,,,,,,,,,,,,,,,,,,161.38958150002873,161.40449159999844,161.88840090000303,161.95120740000857,161.9539879000513,161.9539879000513,161.9539879000513,166.82194680004613,Objects\022b.jpg,pre,s,4.8660682999761775,None,161.9539879000513,,,,,,,,00046,001,2026-01-24_12h57.45.954,MST_test,2024.2.0,59.83344762862646,2026-01-24 12h57.53.162990 +0530,
27,0,28,o,1.831884999992326,None,28,0,27,166.8386099000345,,,,,,,,,,,,,,,,,,,,,,,,,,,,,,,,,,,,,,,,,,,,,,,,,,166.82232500001555,166.8386099000345,167.3220048000221,167.36962200002745,167.3720399000449,167.3720399000449,167.3720399000449,169.206161900016,Scenes\035b.jpg,pre,o,1.831884999992326,None,167.3720399000449,,,,,,,,00046,001,2026-01-24_12h57.45.954,MST_test,2024.2.0,59.83344762862646,2026-01-24 12h57.53.162990 +0530,
28,0,29,o,0.8744718999951147,None,29,0,28,169.22160470002564,,,,,,,,,,,,,,,,,,,,,,,,,,,,,,,,,,,,,,,,,,,,,,,,,,169.20651350001572,169.22160470002564,169.70525650004856,169.71527410001727,169.72190280002542,169.72190280002542,169.72190280002542,170.60565199999837,Objects\097a.jpg,mid,o,0.8744718999951147,None,169.72190280002542,,,,,,,,00046,001,2026-01-24_12h57.45.954,MST_test,2024.2.0,59.83344762862646,2026-01-24 12h57.53.162990 +0530,
29,0,30,o,0.6827663000440225,None,30,0,29,170.62160430004587,,,,,,,,,,,,,,,,,,,,,,,,,,,,,,,,,,,,,,,,,,,,,,,,,,170.60599740000907,170.62160430004587,171.1058768000221,171.11210369999753,171.1217054000008,171.1217054000008,171.1217054000008,171.80574950005393,Objects\153a.jpg,pre,o,0.6827663000440225,None,,,,,,,,,00046,001,2026-01-24_12h57.45.954,MST_test,2024.2.0,59.83344762862646,2026-01-24 12h57.53.162990 +0530,
30,0,31,o,0.7066505999537185,None,31,0,30,171.82172270002775,,,,,,,,,,,,,,,,,,,,,,,,,,,,,,,,,,,,,,,,,,,,,,,,,,171.8061064000358,171.82172270002775,172.3051180000184,172.31399550003698,172.32151570002316,172.32151570002316,172.32151570002316,173.0389073000406,Objects\091a.jpg,pre,o,0.7066505999537185,None,172.32151570002316,,,,,,,,00046,001,2026-01-24_12h57.45.954,MST_test,2024.2.0,59.83344762862646,2026-01-24 12h57.53.162990 +0530,
31,0,32,s,1.7263404999976046,None,32,0,31,173.05485200003022,,,,,,,,,,,,,,,,,,,,,,,,,,,,,,,,,,,,,,,,,,,,,,,,,,173.03925880003953,173.05485200003022,173.5384982000105,173.66681270004483,173.66943710000487,173.66943710000487,173.66943710000487,175.40526600001613,Scenes\045b.jpg,pre,s,1.7263404999976046,None,173.66943710000487,,,,,,,,00046,001,2026-01-24_12h57.45.954,MST_test,2024.2.0,59.83344762862646,2026-01-24 12h57.53.162990 +0530,
32,0,33,o,1.3701702000107616,None,33,0,32,175.42159310000716,,,,,,,,,,,,,,,,,,,,,,,,,,,,,,,,,,,,,,,,,,,,,,,,,,175.40561890002573,175.42159310000716,175.90531890001148,175.91495180001948,175.922297800018,175.922297800018,175.922297800018,177.30528380000032,Objects\139a.jpg,pre,o,1.3701702000107616,None,175.922297800018,,,,,,,,00046,001,2026-01-24_12h57.45.954,MST_test,2024.2.0,59.83344762862646,2026-01-24 12h57.53.162990 +0530,
33,0,34,o,1.0004046999965794,None,34,0,33,177.3215909000137,,,,,,,,,,,,,,,,,,,,,,,,,,,,,,,,,,,,,,,,,,,,,,,,,,177.30550400004722,177.3215909000137,177.80587100004777,177.8246643000166,177.8273139000521,177.8273139000521,177.8273139000521,178.84005540004,Scenes\101a.jpg,post,o,1.0004046999965794,None,,,,,,,,,00046,001,2026-01-24_12h57.45.954,MST_test,2024.2.0,59.83344762862646,2026-01-24 12h57.53.162990 +0530,
34,0,35,n,4.425651600002311,None,35,0,34,178.8549208000186,,,,,,,,,,,,,,,,,,,,,,,,,,,,,,,,,,,,,,,,,,,,,,,,,,178.84041160001652,178.8549208000186,179.33861640002578,179.35273310000775,179.3547384000267,179.3547384000267,179.3547384000267,183.7888478000532,Scenes\126a.jpg,mid,n,4.425651600002311,None,179.3547384000267,,,,,,,,00046,001,2026-01-24_12h57.45.954,MST_test,2024.2.0,59.83344762862646,2026-01-24 12h57.53.162990 +0530,
35,0,36,o,2.7879820999805816,None,36,0,35,183.8049491000129,,,,,,,,,,,,,,,,,,,,,,,,,,,,,,,,,,,,,,,,,,,,,,,,,,183.78920180001296,183.8049491000129,184.28847980004502,184.32575760001782,184.3284171000123,184.3284171000123,184.3284171000123,187.1224094000063,Objects\108b.jpg,post,o,2.7879820999805816,None,184.3284171000123,,,,,,,,00046,001,2026-01-24_12h57.45.954,MST_test,2024.2.0,59.83344762862646,2026-01-24 12h57.53.162990 +0530,
36,0,37,o,1.643469400005415,None,37,0,36,187.13820169999963,,,,,,,,,,,,,,,,,,,,,,,,,,,,,,,,,,,,,,,,,,,,,,,,,,187.12276290002046,187.13820169999963,187.62190650001867,187.63815190002788,187.64055940002436,187.64055940002436,187.64055940002436,189.28955159999896,Scenes\170a.jpg,post,o,1.643469400005415,None,187.64055940002436,,,,,,,,00046,001,2026-01-24_12h57.45.954,MST_test,2024.2.0,59.83344762862646,2026-01-24 12h57.53.162990 +0530,
37,0,38,s,2.198519400029909,None,38,0,37,189.3049341000151,,,,,,,,,,,,,,,,,,,,,,,,,,,,,,,,,,,,,,,,,,,,,,,,,,189.28993540001102,189.3049341000151,189.788348400034,189.8193785000476,189.82186920003733,189.82186920003733,189.82186920003733,192.02197970001725,Objects\109b.jpg,pre,s,2.198519400029909,None,189.82186920003733,,,,,,,,00046,001,2026-01-24_12h57.45.954,MST_test,2024.2.0,59.83344762862646,2026-01-24 12h57.53.162990 +0530,
38,0,39,o,2.8959984999964945,None,39,0,38,192.0381973000476,,,,,,,,,,,,,,,,,,,,,,,,,,,,,,,,,,,,,,,,,,,,,,,,,,192.02235480002128,192.0381973000476,192.52192200004356,192.53788519999944,192.5403445000411,192.5403445000411,192.5403445000411,195.43855670001358,Scenes\084b.jpg,mid,o,2.8959984999964945,None,192.5403445000411,,,,,,,,00046,001,2026-01-24_12h57.45.954,MST_test,2024.2.0,59.83344762862646,2026-01-24 12h57.53.162990 +0530,
39,0,40,o,0.9925672999816015,None,40,0,39,195.45493590005208,,,,,,,,,,,,,,,,,,,,,,,,,,,,,,,,,,,,,,,,,,,,,,,,,,195.43895239999983,195.45493590005208,195.93839320004918,195.94779400003608,195.95536360004917,195.95536360004917,195.95536360004917,196.95542980002938,Objects\063a.jpg,pre,o,0.9925672999816015,None,195.95536360004917,,,,,,,,00046,001,2026-01-24_12h57.45.954,MST_test,2024.2.0,59.83344762862646,2026-01-24 12h57.53.162990 +0530,
40,0,41,o,1.6125384999904782,None,41,0,40,196.97144920000574,,,,,,,,,,,,,,,,,,,,,,,,,,,,,,,,,,,,,,,,,,,,,,,,,,196.95579239999643,196.97144920000574,197.4551485000411,197.46753280004486,197.47191740002017,197.47191740002017,197.47191740002017,199.0888660000055,Scenes\069a.jpg,pre,o,1.6125384999904782,None,197.47191740002017,,,,,,,,00046,001,2026-01-24_12h57.45.954,MST_test,2024.2.0,59.83344762862646,2026-01-24 12h57.53.162990 +0530,
41,0,42,n,3.7972554999869317,None,42,0,41,199.10456340003293,,,,,,,,,,,,,,,,,,,,,,,,,,,,,,,,,,,,,,,,,,,,,,,,,,199.0892228000448,199.10456340003293,199.58844439999666,199.61251150001772,199.61512680002488,199.61512680002488,199.61512680002488,203.42213820002507,Foils\106a.jpg,none,n,3.7972554999869317,None,199.61512680002488,,,,,,,,00046,001,2026-01-24_12h57.45.954,MST_test,2024.2.0,59.83344762862646,2026-01-24 12h57.53.162990 +0530,
42,0,43,o,1.68990009999834,None,43,0,42,203.4382255000528,,,,,,,,,,,,,,,,,,,,,,,,,,,,,,,,,,,,,,,,,,,,,,,,,,203.42249470000388,203.4382255000528,203.92194680002285,203.99179420003202,203.99391900002956,203.99391900002956,203.99391900002956,205.6889023000258,Objects\003b.jpg,mid,o,1.68990009999834,None,203.99391900002956,,,,,,,,00046,001,2026-01-24_12h57.45.954,MST_test,2024.2.0,59.83344762862646,2026-01-24 12h57.53.162990 +0530,
43,0,44,n,6.455123699968681,None,44,0,43,205.70476800005417,,,,,,,,,,,,,,,,,,,,,,,,,,,,,,,,,,,,,,,,,,,,,,,,,,205.6892557000392,205.70476800005417,206.188454200048,206.19717590004439,206.20490770001197,206.20490770001197,206.20490770001197,212.6720670000068,Objects\147a.jpg,mid,n,6.455123699968681,None,206.20490770001197,,,,,,,,00046,001,2026-01-24_12h57.45.954,MST_test,2024.2.0,59.83344762862646,2026-01-24 12h57.53.162990 +0530,
44,0,45,s,1.858694499998819,None,45,0,44,212.6881600000197,,,,,,,,,,,,,,,,,,,,,,,,,,,,,,,,,,,,,,,,,,,,,,,,,,212.6725019000005,212.6881600000197,213.1724080000422,213.1987528000027,213.20161630003713,213.20161630003713,213.20161630003713,215.0720395000535,Objects\058b.jpg,post,s,1.858694499998819,None,,,,,,,,,00046,001,2026-01-24_12h57.45.954,MST_test,2024.2.0,59.83344762862646,2026-01-24 12h57.53.162990 +0530,
45,0,46,o,1.143343600037042,None,46,0,45,215.08826930000214,,,,,,,,,,,,,,,,,,,,,,,,,,,,,,,,,,,,,,,,,,,,,,,,,,215.07239470002241,215.08826930000214,215.57191410002997,215.5803625000408,215.58854330005124,215.58854330005124,215.58854330005124,216.7387299000402,Objects\092a.jpg,pre,o,1.143343600037042,None,215.58854330005124,,,,,,,,00046,001,2026-01-24_12h57.45.954,MST_test,2024.2.0,59.83344762862646,2026-01-24 12h57.53.162990 +0530,
46,0,47,o,0.7676067000138573,None,47,0,46,216.7545903000282,,,,,,,,,,,,,,,,,,,,,,,,,,,,,,,,,,,,,,,,,,,,,,,,,,216.73908250004752,216.7545903000282,217.23866540001472,217.25795720005408,217.2606919000391,217.2606919000391,217.2606919000391,218.03892730001826,Scenes\066b.jpg,pre,o,0.7676067000138573,None,217.2606919000391,,,,,,,,00046,001,2026-01-24_12h57.45.954,MST_test,2024.2.0,59.83344762862646,2026-01-24 12h57.53.162990 +0530,
47,0,48,s,1.9199605000321753,None,48,0,47,218.05494090000866,,,,,,,,,,,,,,,,,,,,,,,,,,,,,,,,,,,,,,,,,,,,,,,,,,218.03928120003548,218.05494090000866,218.53868980001425,218.5459402000415,218.55568170000333,218.55568170000333,218.55568170000333,220.4889410000178,Foils\scenes16.jpg,none,s,1.9199605000321753,None,218.55568170000333,,,,,,,,00046,001,2026-01-24_12h57.45.954,MST_test,2024.2.0,59.83344762862646,2026-01-24 12h57.53.162990 +0530,
48,0,49,s,1.5023419999633916,None,49,0,48,220.50473050004803,,,,,,,,,,,,,,,,,,,,,,,,,,,,,,,,,,,,,,,,,,,,,,,,,,220.48929370002588,220.50473050004803,220.9878297999967,220.99405700003263,221.00521170004504,221.00521170004504,221.00521170004504,222.5213716000435,Foils\scenes1.jpg,none,s,1.5023419999633916,None,221.00521170004504,,,,,,,,00046,001,2026-01-24_12h57.45.954,MST_test,2024.2.0,59.83344762862646,2026-01-24 12h57.53.162990 +0530,
49,0,50,n,1.689078600029461,None,50,0,49,222.53790049999952,,,,,,,,,,,,,,,,,,,,,,,,,,,,,,,,,,,,,,,,,,,,,,,,,,222.5215325000463,222.53790049999952,223.02200190001167,223.04104959999677,223.04325850005262,223.04325850005262,223.04325850005262,224.73894220002694,Foils\scenes30.jpg,none,n,1.689078600029461,None,,,,,,,,,00046,001,2026-01-24_12h57.45.954,MST_test,2024.2.0,59.83344762862646,2026-01-24 12h57.53.162990 +0530,
50,0,51,n,6.115654100023676,None,51,0,50,224.75494420004543,,,,,,,,,,,,,,,,,,,,,,,,,,,,,,,,,,,,,,,,,,,,,,,,,,224.73929450003197,224.75494420004543,225.23869930004003,225.25373799999943,225.25611230003415,225.25611230003415,225.25611230003415,231.38936670002295,Foils\scenes27.jpg,none,n,6.115654100023676,None,225.25611230003415,,,,,,,,00046,001,2026-01-24_12h57.45.954,MST_test,2024.2.0,59.83344762862646,2026-01-24 12h57.53.162990 +0530,
51,0,52,n,2.2350422000163235,None,52,0,51,231.40492729999823,,,,,,,,,,,,,,,,,,,,,,,,,,,,,,,,,,,,,,,,,,,,,,,,,,231.3897324000136,231.40492729999823,231.8884194000275,231.91048750001937,231.91335030004848,231.91335030004848,231.91335030004848,234.1557719000266,Foils\scenes28.jpg,none,n,2.2350422000163235,None,231.91335030004848,,,,,,,,00046,001,2026-01-24_12h57.45.954,MST_test,2024.2.0,59.83344762862646,2026-01-24 12h57.53.162990 +0530,
52,0,53,o,1.2273061000159942,None,53,0,52,234.17134480003733,,,,,,,,,,,,,,,,,,,,,,,,,,,,,,,,,,,,,,,,,,,,,,,,,,234.15615760005312,234.17134480003733,234.65499710000586,234.66542220005067,234.6723322000471,234.6723322000471,234.6723322000471,235.9061789000407,Scenes\022a.jpg,pre,o,1.2273061000159942,None,234.6723322000471,,,,,,,,00046,001,2026-01-24_12h57.45.954,MST_test,2024.2.0,59.83344762862646,2026-01-24 12h57.53.162990 +0530,
53,0,54,o,1.0138753000064753,None,54,0,53,235.92153670004336,,,,,,,,,,,,,,,,,,,,,,,,,,,,,,,,,,,,,,,,,,,,,,,,,,235.90653470001416,235.92153670004336,236.40534280001884,236.41962010000134,236.42187650001142,236.42187650001142,236.42187650001142,237.43859010003507,Scenes\109a.jpg,mid,o,1.0138753000064753,None,236.42187650001142,,,,,,,,00046,001,2026-01-24_12h57.45.954,MST_test,2024.2.0,59.83344762862646,2026-01-24 12h57.53.162990 +0530,
54,0,55,o,1.1279351999983191,None,55,0,54,237.45493770000758,,,,,,,,,,,,,,,,,,,,,,,,,,,,,,,,,,,,,,,,,,,,,,,,,,237.4389406000264,237.45493770000758,237.93846380000468,237.94747790001566,237.9558176000137,237.9558176000137,237.9558176000137,239.0889175000484,Objects\117a.jpg,post,o,1.1279351999983191,None,237.9558176000137,,,,,,,,00046,001,2026-01-24_12h57.45.954,MST_test,2024.2.0,59.83344762862646,2026-01-24 12h57.53.162990 +0530,
55,0,56,o,0.8601275999681093,None,56,0,55,239.10522290004883,,,,,,,,,,,,,,,,,,,,,,,,,,,,,,,,,,,,,,,,,,,,,,,,,,239.08927400002722,239.10522290004883,239.5884073000052,239.60512580000795,239.60738640005002,239.60738640005002,239.60738640005002,240.47154830000363,Scenes\029a.jpg,mid,o,0.8601275999681093,None,239.60738640005002,,,,,,,,00046,001,2026-01-24_12h57.45.954,MST_test,2024.2.0,59.83344762862646,2026-01-24 12h57.53.162990 +0530,
56,0,57,n,2.67079190001823,None,57,0,56,240.48777490004431,,,,,,,,,,,,,,,,,,,,,,,,,,,,,,,,,,,,,,,,,,,,,,,,,,240.4718542000046,240.48777490004431,240.971845400054,240.97877680003876,240.98905190004734,240.98905190004734,240.98905190004734,243.67189140000846,Foils\scenes19.jpg,none,n,2.67079190001823,None,,,,,,,,,00046,001,2026-01-24_12h57.45.954,MST_test,2024.2.0,59.83344762862646,2026-01-24 12h57.53.162990 +0530,
57,0,58,o,1.1251009000116028,None,58,0,57,243.68828440003563,,,,,,,,,,,,,,,,,,,,,,,,,,,,,,,,,,,,,,,,,,,,,,,,,,243.67224350001197,243.68828440003563,244.17195510002784,244.18853159999708,244.19066280004336,244.19066280004336,244.19066280004336,245.32220809999853,Scenes\158a.jpg,post,o,1.1251009000116028,None,244.19066280004336,,,,,,,,00046,001,2026-01-24_12h57.45.954,MST_test,2024.2.0,59.83344762862646,2026-01-24 12h57.53.162990 +0530,
58,0,59,o,1.294107099995017,None,59,0,58,245.33825230004732,,,,,,,,,,,,,,,,,,,,,,,,,,,,,,,,,,,,,,,,,,,,,,,,,,245.32257990003563,245.33825230004732,245.82190310000442,245.83030520001194,245.83839790005004,245.83839790005004,245.83839790005004,247.13892150000902,Objects\175a.jpg,mid,o,1.294107099995017,None,245.83839790005004,,,,,,,,00046,001,2026-01-24_12h57.45.954,MST_test,2024.2.0,59.83344762862646,2026-01-24 12h57.53.162990 +0530,
59,0,60,n,3.236397400032729,None,60,0,59,247.15496529999655,,,,,,,,,,,,,,,,,,,,,,,,,,,,,,,,,,,,,,,,,,,,,,,,,,247.13927450001938,247.15496529999655,247.63915380003164,247.64720120001584,247.65520150004886,247.65520150004886,247.65520150004886,250.9055918000522,Foils\113a.jpg,none,n,3.236397400032729,None,247.65520150004886,,,,,,,,00046,001,2026-01-24_12h57.45.954,MST_test,2024.2.0,59.83344762862646,2026-01-24 12h57.53.162990 +0530,
60,0,61,n,1.6479719000053592,None,61,0,60,250.9211992000346,,,,,,,,,,,,,,,,,,,,,,,,,,,,,,,,,,,,,,,,,,,,,,,,,,250.9059450000059,250.9211992000346,251.4053447000333,251.45695560000604,251.45968390000053,251.45968390000053,251.45968390000053,253.1220443000202,Scenes\003b.jpg,mid,n,1.6479719000053592,None,251.45968390000053,,,,,,,,00046,001,2026-01-24_12h57.45.954,MST_test,2024.2.0,59.83344762862646,2026-01-24 12h57.53.162990 +0530,
61,0,62,n,4.148830100020859,None,62,0,61,253.1380996000371,,,,,,,,,,,,,,,,,,,,,,,,,,,,,,,,,,,,,,,,,,,,,,,,,,253.12239580001915,253.1380996000371,253.62214849999873,253.63331689999904,253.6389032000443,253.6389032000443,253.6389032000443,257.7890257000108,Foils\026a.jpg,none,n,4.148830100020859,None,253.6389032000443,,,,,,,,00046,001,2026-01-24_12h57.45.954,MST_test,2024.2.0,59.83344762862646,2026-01-24 12h57.53.162990 +0530,
62,0,63,n,1.3143883000011556,None,63,0,62,257.80556580005214,,,,,,,,,,,,,,,,,,,,,,,,,,,,,,,,,,,,,,,,,,,,,,,,,,257.7893782000174,257.80556580005214,258.28864630003227,258.2962093000533,258.3054523000028,258.3054523000028,258.3054523000028,259.6219662000076,Foils\050a.jpg,none,n,1.3143883000011556,None,258.3054523000028,,,,,,,,00046,001,2026-01-24_12h57.45.954,MST_test,2024.2.0,59.83344762862646,2026-01-24 12h57.53.162990 +0530,
63,0,64,s,3.2663711000350304,None,64,0,63,259.637846800033,,,,,,,,,,,,,,,,,,,,,,,,,,,,,,,,,,,,,,,,,,,,,,,,,,259.62232020002557,259.637846800033,260.1222547000507,260.1299036000273,260.1384167000069,260.1384167000069,260.1384167000069,263.42223040002864,Objects\123a.jpg,post,s,3.2663711000350304,None,,,,,,,,,00046,001,2026-01-24_12h57.45.954,MST_test,2024.2.0,59.83344762862646,2026-01-24 12h57.53.162990 +0530,
64,0,65,s,4.832704300002661,None,65,0,64,263.4382050000131,,,,,,,,,,,,,,,,,,,,,,,,,,,,,,,,,,,,,,,,,,,,,,,,,,263.42246550001437,263.4382050000131,263.9219552000286,263.95222320000175,263.9551216000109,263.9551216000109,263.9551216000109,268.788597900013,Foils\scenes14.jpg,none,s,4.832704300002661,None,263.9551216000109,,,,,,,,00046,001,2026-01-24_12h57.45.954,MST_test,2024.2.0,59.83344762862646,2026-01-24 12h57.53.162990 +0530,
65,0,66,n,1.4515197000000626,None,66,0,65,268.8050202000304,,,,,,,,,,,,,,,,,,,,,,,,,,,,,,,,,,,,,,,,,,,,,,,,,,268.78895170002943,268.8050202000304,269.28867530002026,269.30928680003854,269.31212090002373,269.31212090002373,269.31212090002373,270.7717819000245,Foils\042a.jpg,none,n,1.4515197000000626,None,269.31212090002373,,,,,,,,00046,001,2026-01-24_12h57.45.954,MST_test,2024.2.0,59.83344762862646,2026-01-24 12h57.53.162990 +0530,
66,0,67,s,1.5768005000427365,None,67,0,66,270.7878178000101,,,,,,,,,,,,,,,,,,,,,,,,,,,,,,,,,,,,,,,,,,,,,,,,,,270.77213550003944,270.7878178000101,271.2720169000095,271.2885704000364,271.2908990000142,271.2908990000142,271.2908990000142,272.8718378000194,Scenes\174a.jpg,pre,s,1.5768005000427365,None,271.2908990000142,,,,,,,,00046,001,2026-01-24_12h57.45.954,MST_test,2024.2.0,59.83344762862646,2026-01-24 12h57.53.162990 +0530,
67,0,68,o,1.0953155999886803,None,68,0,67,272.88789559999714,,,,,,,,,,,,,,,,,,,,,,,,,,,,,,,,,,,,,,,,,,,,,,,,,,272.87209410005016,272.88789559999714,273.3719608000247,273.3805626000394,273.38895400002366,273.38895400002366,273.38895400002366,274.48957810003776,Objects\135a.jpg,post,o,1.0953155999886803,None,273.38895400002366,,,,,,,,00046,001,2026-01-24_12h57.45.954,MST_test,2024.2.0,59.83344762862646,2026-01-24 12h57.53.162990 +0530,
68,0,69,n,1.5384053000016138,None,69,0,68,274.5058723000111,,,,,,,,,,,,,,,,,,,,,,,,,,,,,,,,,,,,,,,,,,,,,,,,,,274.4899405000033,274.5058723000111,275.00516560004326,275.0386558000464,275.0414690000471,275.0414690000471,275.0414690000471,276.5892623999971,Foils\017a.jpg,none,n,1.5384053000016138,None,,,,,,,,,00046,001,2026-01-24_12h57.45.954,MST_test,2024.2.0,59.83344762862646,2026-01-24 12h57.53.162990 +0530,
69,0,70,o,1.4348049000254832,None,70,0,69,276.60531860002084,,,,,,,,,,,,,,,,,,,,,,,,,,,,,,,,,,,,,,,,,,,,,,,,,,276.5896138000535,276.60531860002084,277.08851070003584,277.09578870004043,277.105074400024,277.105074400024,277.105074400024,278.55527000001166,Objects\079b.jpg,pre,o,1.4348049000254832,None,277.105074400024,,,,,,,,00046,001,2026-01-24_12h57.45.954,MST_test,2024.2.0,59.83344762862646,2026-01-24 12h57.53.162990 +0530,
70,0,71,o,1.7943710000254214,None,71,0,70,278.57160550000845,,,,,,,,,,,,,,,,,,,,,,,,,,,,,,,,,,,,,,,,,,,,,,,,,,278.5556282000034,278.57160550000845,279.0548412000062,279.0793335000053,279.0819286000333,279.0819286000333,279.0819286000333,280.8886465000105,Objects\034b.jpg,post,o,1.7943710000254214,None,279.0819286000333,,,,,,,,00046,001,2026-01-24_12h57.45.954,MST_test,2024.2.0,59.83344762862646,2026-01-24 12h57.53.162990 +0530,
71,0,72,s,5.474199599993881,None,72,0,71,280.9047225000104,,,,,,,,,,,,,,,,,,,,,,,,,,,,,,,,,,,,,,,,,,,,,,,,,,280.888998200011,280.9047225000104,281.38841200002935,281.42286890000105,281.42542880005203,281.42542880005203,281.42542880005203,286.90584439999657,Objects\191b.jpg,pre,s,5.474199599993881,None,281.42542880005203,,,,,,,,00046,001,2026-01-24_12h57.45.954,MST_test,2024.2.0,59.83344762862646,2026-01-24 12h57.53.162990 +0530,
72,0,73,n,1.5838926999713294,None,73,0,72,286.92121330002556,,,,,,,,,,,,,,,,,,,,,,,,,,,,,,,,,,,,,,,,,,,,,,,,,,286.9062177000451,286.92121330002556,287.4051869000541,287.42464870004915,287.42784499999834,287.42784499999834,287.42784499999834,289.0223198000458,Foils\scenes20.jpg,none,n,1.5838926999713294,None,287.42784499999834,,,,,,,,00046,001,2026-01-24_12h57.45.954,MST_test,2024.2.0,59.83344762862646,2026-01-24 12h57.53.162990 +0530,
73,0,74,o,1.1157749999547377,None,74,0,73,289.0380177000188,,,,,,,,,,,,,,,,,,,,,,,,,,,,,,,,,,,,,,,,,,,,,,,,,,289.0227387000341,289.0380177000188,289.52207390003605,289.54969030001666,289.5519787000376,289.5519787000376,289.5519787000376,290.6723384000361,Objects\015b.jpg,post,o,1.1157749999547377,None,289.5519787000376,,,,,,,,00046,001,2026-01-24_12h57.45.954,MST_test,2024.2.0,59.83344762862646,2026-01-24 12h57.53.162990 +0530,
74,0,75,o,0.9190915999934077,None,75,0,74,290.6879862000351,,,,,,,,,,,,,,,,,,,,,,,,,,,,,,,,,,,,,,,,,,,,,,,,,,290.67270049999934,290.6879862000351,291.17203529999824,291.17875000002095,291.1884759000386,291.1884759000386,291.1884759000386,292.122308799997,Objects\119a.jpg,mid,o,0.9190915999934077,None,291.1884759000386,,,,,,,,00046,001,2026-01-24_12h57.45.954,MST_test,2024.2.0,59.83344762862646,2026-01-24 12h57.53.162990 +0530,
75,0,76,n,1.8534507000003941,None,76,0,75,292.1379416999989,,,,,,,,,,,,,,,,,,,,,,,,,,,,,,,,,,,,,,,,,,,,,,,,,,292.12268430000404,292.1379416999989,292.6218213000102,292.6286617000005,292.63881230005063,292.63881230005063,292.63881230005063,294.50569370004814,Foils\scenes6.jpg,none,n,1.8534507000003941,None,292.63881230005063,,,,,,,,00046,001,2026-01-24_12h57.45.954,MST_test,2024.2.0,59.83344762862646,2026-01-24 12h57.53.162990 +0530,
76,0,77,o,1.2057247999473475,None,77,0,76,294.5212921000202,,,,,,,,,,,,,,,,,,,,,,,,,,,,,,,,,,,,,,,,,,,,,,,,,,294.50611000001663,294.5212921000202,295.0053370000096,295.01843620004365,295.0221058000461,295.0221058000461,295.0221058000461,296.23876190005103,Scenes\186a.jpg,post,o,1.2057247999473475,None,295.0221058000461,,,,,,,,00046,001,2026-01-24_12h57.45.954,MST_test,2024.2.0,59.83344762862646,2026-01-24 12h57.53.162990 +0530,
77,0,78,o,1.2244752999977209,None,78,0,77,296.25495420000516,,,,,,,,,,,,,,,,,,,,,,,,,,,,,,,,,,,,,,,,,,,,,,,,,,296.2391220999998,296.25495420000516,296.7386085000471,296.800711900054,296.8037967000273,296.8037967000273,296.8037967000273,298.03878400003305,Scenes\157b.jpg,pre,o,1.2244752999977209,None,296.8037967000273,,,,,,,,00046,001,2026-01-24_12h57.45.954,MST_test,2024.2.0,59.83344762862646,2026-01-24 12h57.53.162990 +0530,
78,0,79,o,1.3075016999500804,None,79,0,78,298.0547637999989,,,,,,,,,,,,,,,,,,,,,,,,,,,,,,,,,,,,,,,,,,,,,,,,,,298.03915550000966,298.0547637999989,298.53833070001565,298.55811110005016,298.5607886000071,298.5607886000071,298.5607886000071,299.87220280000474,Scenes\023a.jpg,pre,o,1.3075016999500804,None,298.5607886000071,,,,,,,,00046,001,2026-01-24_12h57.45.954,MST_test,2024.2.0,59.83344762862646,2026-01-24 12h57.53.162990 +0530,
79,0,80,s,1.3343408000073396,None,80,0,79,299.88828160002595,,,,,,,,,,,,,,,,,,,,,,,,,,,,,,,,,,,,,,,,,,,,,,,,,,299.87257540004794,299.88828160002595,300.3719538000296,300.41110930003924,300.41393530002097,300.41393530002097,300.41393530002097,301.75532340002246,Scenes\173b.jpg,post,s,1.3343408000073396,None,300.41393530002097,,,,,,,,00046,001,2026-01-24_12h57.45.954,MST_test,2024.2.0,59.83344762862646,2026-01-24 12h57.53.162990 +0530,
80,0,81,o,1.081678299990017,None,81,0,80,301.77140770002734,,,,,,,,,,,,,,,,,,,,,,,,,,,,,,,,,,,,,,,,,,,,,,,,,,301.7556990000303,301.77140770002734,302.25496790005127,302.271700500045,302.2741679000319,302.2741679000319,302.2741679000319,303.37207090004813,Scenes\040a.jpg,mid,o,1.081678299990017,None,302.2741679000319,,,,,,,,00046,001,2026-01-24_12h57.45.954,MST_test,2024.2.0,59.83344762862646,2026-01-24 12h57.53.162990 +0530,
81,0,82,s,1.9726367000257596,None,82,0,81,303.38827670004684,,,,,,,,,,,,,,,,,,,,,,,,,,,,,,,,,,,,,,,,,,,,,,,,,,303.37241960002575,303.38827670004684,303.87165820004884,303.94891510001617,303.9511634000228,303.9511634000228,303.9511634000228,305.93884160002926,Scenes\136b.jpg,post,s,1.9726367000257596,None,303.9511634000228,,,,,,,,00046,001,2026-01-24_12h57.45.954,MST_test,2024.2.0,59.83344762862646,2026-01-24 12h57.53.162990 +0530,
82,0,83,n,3.1235618999926373,None,83,0,82,305.95485520001967,,,,,,,,,,,,,,,,,,,,,,,,,,,,,,,,,,,,,,,,,,,,,,,,,,305.9392119999975,305.95485520001967,306.43870500003686,306.44735319999745,306.45595350000076,306.45595350000076,306.45595350000076,309.58857120003086,Objects\111a.jpg,pre,n,3.1235618999926373,None,306.45595350000076,,,,,,,,00046,001,2026-01-24_12h57.45.954,MST_test,2024.2.0,59.83344762862646,2026-01-24 12h57.53.162990 +0530,
83,0,84,o,1.7608034000149928,None,84,0,83,309.60434190003434,,,,,,,,,,,,,,,,,,,,,,,,,,,,,,,,,,,,,,,,,,,,,,,,,,309.58905220002634,309.60434190003434,310.08812720002607,310.10388940002304,310.1065011000028,310.1065011000028,310.1065011000028,311.8715046000434,Scenes\047a.jpg,pre,o,1.7608034000149928,None,310.1065011000028,,,,,,,,00046,001,2026-01-24_12h57.45.954,MST_test,2024.2.0,59.83344762862646,2026-01-24 12h57.53.162990 +0530,
84,0,85,n,1.7416403000243008,None,85,0,84,311.88780450000195,,,,,,,,,,,,,,,,,,,,,,,,,,,,,,,,,,,,,,,,,,,,,,,,,,311.8718030000455,311.88780450000195,312.37136400002055,312.4191817000392,312.4218192000408,312.4218192000408,312.4218192000408,314.1716972000431,Foils\010a.jpg,none,n,1.7416403000243008,None,312.4218192000408,,,,,,,,00046,001,2026-01-24_12h57.45.954,MST_test,2024.2.0,59.83344762862646,2026-01-24 12h57.53.162990 +0530,
85,0,86,o,3.8493605999974534,None,86,0,85,314.18783130001975,,,,,,,,,,,,,,,,,,,,,,,,,,,,,,,,,,,,,,,,,,,,,,,,,,314.17181170004187,314.18783130001975,314.67192170000635,314.73537670000223,314.7382663000026,314.7382663000026,314.7382663000026,318.5884384000092,Scenes\089b.jpg,pre,o,3.8493605999974534,None,,,,,,,,,00046,001,2026-01-24_12h57.45.954,MST_test,2024.2.0,59.83344762862646,2026-01-24 12h57.53.162990 +0530,
86,0,87,o,5.631498200003989,None,87,0,86,318.60440599999856,,,,,,,,,,,,,,,,,,,,,,,,,,,,,,,,,,,,,,,,,,,,,,,,,,318.58878700004425,318.60440599999856,319.08815490000416,319.10536440002033,319.1080620000139,319.1080620000139,319.1080620000139,324.7552120000473,Scenes\013a.jpg,post,o,5.631498200003989,None,319.1080620000139,,,,,,,,00046,001,2026-01-24_12h57.45.954,MST_test,2024.2.0,59.83344762862646,2026-01-24 12h57.53.162990 +0530,
87,0,88,o,0.9714107000036165,None,88,0,87,324.7711959000444,,,,,,,,,,,,,,,,,,,,,,,,,,,,,,,,,,,,,,,,,,,,,,,,,,324.7555526000215,324.7711959000444,325.25478400004795,325.2634261000203,325.2720259000198,325.2720259000198,325.2720259000198,326.2549753000494,Objects\020a.jpg,mid,o,0.9714107000036165,None,325.2720259000198,,,,,,,,00046,001,2026-01-24_12h57.45.954,MST_test,2024.2.0,59.83344762862646,2026-01-24 12h57.53.162990 +0530,
88,0,89,o,1.0076326000271365,None,89,0,88,326.271082100051,,,,,,,,,,,,,,,,,,,,,,,,,,,,,,,,,,,,,,,,,,,,,,,,,,326.2553445000085,326.271082100051,326.7549707000144,326.7603913000203,326.7719402000075,326.7719402000075,326.7719402000075,327.78855530003784,Scenes\139a.jpg,mid,o,1.0076326000271365,None,326.7719402000075,,,,,,,,00046,001,2026-01-24_12h57.45.954,MST_test,2024.2.0,59.83344762862646,2026-01-24 12h57.53.162990 +0530,
89,0,90,o,0.7139869999955408,None,90,0,89,327.8045450000209,,,,,,,,,,,,,,,,,,,,,,,,,,,,,,,,,,,,,,,,,,,,,,,,,,327.7886786000454,327.8045450000209,328.2882522,328.31921300000977,328.3215273000533,328.3215273000533,328.3215273000533,329.0383742999984,Objects\077b.jpg,post,o,0.7139869999955408,None,328.3215273000533,,,,,,,,00046,001,2026-01-24_12h57.45.954,MST_test,2024.2.0,59.83344762862646,2026-01-24 12h57.53.162990 +0530,
90,0,91,o,3.338679999986198,None,91,0,90,329.0543101000367,,,,,,,,,,,,,,,,,,,,,,,,,,,,,,,,,,,,,,,,,,,,,,,,,,329.0387194000068,329.0543101000367,329.5380843000021,329.59019240003545,329.59274500003085,329.59274500003085,329.59274500003085,332.9390651000431,Scenes\026b.jpg,post,o,3.338679999986198,None,329.59274500003085,,,,,,,,00046,001,2026-01-24_12h57.45.954,MST_test,2024.2.0,59.83344762862646,2026-01-24 12h57.53.162990 +0530,
91,0,92,o,1.1963233999558724,None,92,0,91,332.9544554000022,,,,,,,,,,,,,,,,,,,,,,,,,,,,,,,,,,,,,,,,,,,,,,,,,,332.9393320000381,332.9544554000022,333.4380446000141,333.4453480000375,333.45497890003026,333.45497890003026,333.45497890003026,334.6548707000329,Objects\089a.jpg,post,o,1.1963233999558724,None,333.45497890003026,,,,,,,,00046,001,2026-01-24_12h57.45.954,MST_test,2024.2.0,59.83344762862646,2026-01-24 12h57.53.162990 +0530,
92,0,93,o,0.9018228999921121,None,93,0,92,334.67093290004414,,,,,,,,,,,,,,,,,,,,,,,,,,,,,,,,,,,,,,,,,,,,,,,,,,334.65509360004216,334.67093290004414,335.15497440000763,335.1873407000094,335.18966100004036,335.18966100004036,335.18966100004036,336.10477580002043,Objects\129b.jpg,post,o,0.9018228999921121,None,335.18966100004036,,,,,,,,00046,001,2026-01-24_12h57.45.954,MST_test,2024.2.0,59.83344762862646,2026-01-24 12h57.53.162990 +0530,
93,0,94,n,1.2424365999759175,None,94,0,93,336.1210467000492,,,,,,,,,,,,,,,,,,,,,,,,,,,,,,,,,,,,,,,,,,,,,,,,,,336.10493460000725,336.1210467000492,336.60502230003476,336.65527240000665,336.65785630000755,336.65785630000755,336.65785630000755,337.9051347000059,Scenes\142b.jpg,pre,n,1.2424365999759175,None,336.65785630000755,,,,,,,,00046,001,2026-01-24_12h57.45.954,MST_test,2024.2.0,59.83344762862646,2026-01-24 12h57.53.162990 +0530,
94,0,95,s,2.0490957999718376,None,95,0,94,337.92140970000764,,,,,,,,,,,,,,,,,,,,,,,,,,,,,,,,,,,,,,,,,,,,,,,,,,337.9054881000193,337.92140970000764,338.4053703000536,338.4314521000488,338.4344390000333,338.4344390000333,338.4344390000333,340.48843020002823,Objects\008b.jpg,post,s,2.0490957999718376,None,338.4344390000333,,,,,,,,00046,001,2026-01-24_12h57.45.954,MST_test,2024.2.0,59.83344762862646,2026-01-24 12h57.53.162990 +0530,
95,0,96,o,1.5267352999653667,None,96,0,95,340.5047192000202,,,,,,,,,,,,,,,,,,,,,,,,,,,,,,,,,,,,,,,,,,,,,,,,,,340.48854550003307,340.5047192000202,340.98819370003184,340.99660740001127,341.00493090000236,341.00493090000236,341.00493090000236,342.538631500036,Objects\138b.jpg,post,o,1.5267352999653667,None,341.00493090000236,,,,,,,,00046,001,2026-01-24_12h57.45.954,MST_test,2024.2.0,59.83344762862646,2026-01-24 12h57.53.162990 +0530,
96,0,97,o,1.0448041000054218,None,97,0,96,342.5545988000231,,,,,,,,,,,,,,,,,,,,,,,,,,,,,,,,,,,,,,,,,,,,,,,,,,342.5389816000243,342.5545988000231,343.0380793000222,343.0470378000173,343.0547248000512,343.0547248000512,343.0547248000512,344.10526010004105,Objects\018a.jpg,pre,o,1.0448041000054218,None,343.0547248000512,,,,,,,,00046,001,2026-01-24_12h57.45.954,MST_test,2024.2.0,59.83344762862646,2026-01-24 12h57.53.162990 +0530,
97,0,98,s,5.436026800016407,None,98,0,97,344.1212272000266,,,,,,,,,,,,,,,,,,,,,,,,,,,,,,,,,,,,,,,,,,,,,,,,,,344.10558890004177,344.1212272000266,344.60477289999835,344.6450451000128,344.6474962000502,344.6474962000502,344.6474962000502,350.0883669000468,Objects\185b.jpg,mid,s,5.436026800016407,None,344.6474962000502,,,,,,,,00046,001,2026-01-24_12h57.45.954,MST_test,2024.2.0,59.83344762862646,2026-01-24 12h57.53.162990 +0530,
98,0,99,o,1.1672496999963187,None,99,0,98,350.1045003000181,,,,,,,,,,,,,,,,,,,,,,,,,,,,,,,,,,,,,,,,,,,,,,,,,,350.0887160000275,350.1045003000181,350.5881812000298,350.6178931000177,350.62029880000046,350.62029880000046,350.62029880000046,351.78870510001434,Objects\182b.jpg,mid,o,1.1672496999963187,None,350.62029880000046,,,,,,,,00046,001,2026-01-24_12h57.45.954,MST_test,2024.2.0,59.83344762862646,2026-01-24 12h57.53.162990 +0530,
99,0,100,o,1.1620778000215068,None,100,0,99,351.804777100042,,,,,,,,,,,,,,,,,,,,,,,,,,,,,,,,,,,,,,,,,,,,,,,,,,351.789060500043,351.804777100042,352.2880411000224,352.3188450000016,352.3213836000068,352.3213836000068,352.3213836000068,353.4883160000318,Scenes\028b.jpg,post,o,1.1620778000215068,None,352.3213836000068,,,,,,,,00046,001,2026-01-24_12h57.45.954,MST_test,2024.2.0,59.83344762862646,2026-01-24 12h57.53.162990 +0530,
100,0,101,n,2.8436171999783255,None,101,0,100,353.50444510002853,,,,,,,,,,,,,,,,,,,,,,,,,,,,,,,,,,,,,,,,,,,,,,,,,,353.4886608000379,353.50444510002853,353.98780950001674,354.0373306000256,354.03998080000747,354.03998080000747,354.03998080000747,356.88874910003506,Scenes\001b.jpg,pre,n,2.8436171999783255,None,354.03998080000747,,,,,,,,00046,001,2026-01-24_12h57.45.954,MST_test,2024.2.0,59.83344762862646,2026-01-24 12h57.53.162990 +0530,
101,0,102,o,1.4197745999554172,None,102,0,101,356.9044718000223,,,,,,,,,,,,,,,,,,,,,,,,,,,,,,,,,,,,,,,,,,,,,,,,,,356.8890903000138,356.9044718000223,357.3883912000456,357.42907420004485,357.4317035000422,357.4317035000422,357.4317035000422,358.85515940003097,Scenes\097b.jpg,pre,o,1.4197745999554172,None,357.4317035000422,,,,,,,,00046,001,2026-01-24_12h57.45.954,MST_test,2024.2.0,59.83344762862646,2026-01-24 12h57.53.162990 +0530,
102,0,103,o,0.9595735999755561,None,103,0,102,358.8712689000531,,,,,,,,,,,,,,,,,,,,,,,,,,,,,,,,,,,,,,,,,,,,,,,,,,358.8555040000356,358.8712689000531,359.3547596000135,359.36274530005176,359.3719570999965,359.3719570999965,359.3719570999965,360.33848970005056,Scenes\006a.jpg,pre,o,0.9595735999755561,None,359.3719570999965,,,,,,,,00046,001,2026-01-24_12h57.45.954,MST_test,2024.2.0,59.83344762862646,2026-01-24 12h57.53.162990 +0530,
103,0,104,o,1.3689741999842227,None,104,0,103,360.3544150000089,,,,,,,,,,,,,,,,,,,,,,,,,,,,,,,,,,,,,,,,,,,,,,,,,,360.3387804000522,360.3544150000089,360.83924050000496,360.8557277000509,360.8585600000224,360.8585600000224,360.8585600000224,362.23863710003207,Scenes\085a.jpg,mid,o,1.3689741999842227,None,,,,,,,,,00046,001,2026-01-24_12h57.45.954,MST_test,2024.2.0,59.83344762862646,2026-01-24 12h57.53.162990 +0530,
104,0,105,n,1.016541099990718,None,105,0,104,362.2546094999998,,,,,,,,,,,,,,,,,,,,,,,,,,,,,,,,,,,,,,,,,,,,,,,,,,362.23895020002965,362.2546094999998,362.7382764000213,362.74332760000834,362.75500750000356,362.75500750000356,362.75500750000356,363.77203770005144,Foils\scenes11.jpg,none,n,1.016541099990718,None,362.75500750000356,,,,,,,,00046,001,2026-01-24_12h57.45.954,MST_test,2024.2.0,59.83344762862646,2026-01-24 12h57.53.162990 +0530,
105,0,106,o,1.0272031999775209,None,106,0,105,363.7879200000316,,,,,,,,,,,,,,,,,,,,,,,,,,,,,,,,,,,,,,,,,,,,,,,,,,363.77241710003,363.7879200000316,364.2714614000288,364.27615450002486,364.28805030003423,364.28805030003423,364.28805030003423,365.3211267000297,Objects\014a.jpg,post,o,1.0272031999775209,None,364.28805030003423,,,,,,,,00046,001,2026-01-24_12h57.45.954,MST_test,2024.2.0,59.83344762862646,2026-01-24 12h57.53.162990 +0530,
106,0,107,n,8.29160719999345,None,107,0,106,365.3375916000223,,,,,,,,,,,,,,,,,,,,,,,,,,,,,,,,,,,,,,,,,,,,,,,,,,365.3212558000232,365.3375916000223,365.8214304000139,365.8385840000119,365.84060320002027,365.84060320002027,365.84060320002027,374.13944540004013,Foils\093b.jpg,none,n,8.29160719999345,None,,,,,,,,,00046,001,2026-01-24_12h57.45.954,MST_test,2024.2.0,59.83344762862646,2026-01-24 12h57.53.162990 +0530,
107,0,108,o,0.9404191999929026,None,108,0,107,374.15488100005314,,,,,,,,,,,,,,,,,,,,,,,,,,,,,,,,,,,,,,,,,,,,,,,,,,374.13980080001056,374.15488100005314,374.6385801000288,374.6478460000362,374.6552065000287,374.6552065000287,374.6552065000287,375.60600210004486,Objects\090a.jpg,post,o,0.9404191999929026,None,374.6552065000287,,,,,,,,00046,001,2026-01-24_12h57.45.954,MST_test,2024.2.0,59.83344762862646,2026-01-24 12h57.53.162990 +0530,
108,0,109,o,0.6747021999908611,None,109,0,108,375.62227240001084,,,,,,,,,,,,,,,,,,,,,,,,,,,,,,,,,,,,,,,,,,,,,,,,,,375.6063458000426,375.62227240001084,376.10531310003716,376.1143185000401,376.12148840003647,376.12148840003647,376.12148840003647,376.80568450002465,Objects\081a.jpg,pre,o,0.6747021999908611,None,376.12148840003647,,,,,,,,00046,001,2026-01-24_12h57.45.954,MST_test,2024.2.0,59.83344762862646,2026-01-24 12h57.53.162990 +0530,
109,0,110,o,0.7056640000082552,None,110,0,109,376.82147480000276,,,,,,,,,,,,,,,,,,,,,,,,,,,,,,,,,,,,,,,,,,,,,,,,,,376.80604900000617,376.82147480000276,377.30493110005045,377.35139910003636,377.35387670004275,377.35387670004275,377.35387670004275,378.07222980004735,Scenes\143b.jpg,mid,o,0.7056640000082552,None,377.35387670004275,,,,,,,,00046,001,2026-01-24_12h57.45.954,MST_test,2024.2.0,59.83344762862646,2026-01-24 12h57.53.162990 +0530,
110,0,111,n,3.9298595000291243,None,111,0,110,378.0883018000168,,,,,,,,,,,,,,,,,,,,,,,,,,,,,,,,,,,,,,,,,,,,,,,,,,378.07257650000975,378.0883018000168,378.5720396999968,378.5996290000039,378.60194060002686,378.60194060002686,378.60194060002686,382.5389380000415,Objects\127b.jpg,post,n,3.9298595000291243,None,378.60194060002686,,,,,,,,00046,001,2026-01-24_12h57.45.954,MST_test,2024.2.0,59.83344762862646,2026-01-24 12h57.53.162990 +0530,
111,0,112,o,1.1172381000360474,None,112,0,111,382.5549514000304,,,,,,,,,,,,,,,,,,,,,,,,,,,,,,,,,,,,,,,,,,,,,,,,,,382.5392812000355,382.5549514000304,383.03922000003513,383.0469677000074,383.05514380004024,383.05514380004024,383.05514380004024,384.1885223000427,Objects\107a.jpg,mid,o,1.1172381000360474,None,383.05514380004024,,,,,,,,00046,001,2026-01-24_12h57.45.954,MST_test,2024.2.0,59.83344762862646,2026-01-24 12h57.53.162990 +0530,
112,0,113,n,12.682722199999262,None,113,0,112,384.20462270005373,,,,,,,,,,,,,,,,,,,,,,,,,,,,,,,,,,,,,,,,,,,,,,,,,,384.18874510005116,384.20462270005373,384.6888255000231,384.69694910000544,384.7051751000108,384.7051751000108,384.7051751000108,397.3891813000082,Foils\065a.jpg,none,n,12.682722199999262,None,384.7051751000108,,,,,,,,00046,001,2026-01-24_12h57.45.954,MST_test,2024.2.0,59.83344762862646,2026-01-24 12h57.53.162990 +0530,
113,0,114,n,1.849192599998787,None,114,0,113,397.40575050003827,,,,,,,,,,,,,,,,,,,,,,,,,,,,,,,,,,,,,,,,,,,,,,,,,,397.3895851999987,397.40575050003827,397.8886964000412,397.9126075000386,397.91499090002617,397.91499090002617,397.91499090002617,399.77219960000366,Foils\057a.jpg,none,n,1.849192599998787,None,397.91499090002617,,,,,,,,00046,001,2026-01-24_12h57.45.954,MST_test,2024.2.0,59.83344762862646,2026-01-24 12h57.53.162990 +0530,
114,0,115,o,0.9363410000223666,None,115,0,114,399.7882494000369,,,,,,,,,,,,,,,,,,,,,,,,,,,,,,,,,,,,,,,,,,,,,,,,,,399.7725623000297,399.7882494000369,400.27168450003956,400.32092399999965,400.3234599000425,400.3234599000425,400.3234599000425,401.2722963000415,Scenes\015b.jpg,mid,o,0.9363410000223666,None,400.3234599000425,,,,,,,,00046,001,2026-01-24_12h57.45.954,MST_test,2024.2.0,59.83344762862646,2026-01-24 12h57.53.162990 +0530,
115,0,116,o,0.7511310999980196,None,116,0,115,401.28804460004903,,,,,,,,,,,,,,,,,,,,,,,,,,,,,,,,,,,,,,,,,,,,,,,,,,401.27264100004686,401.28804460004903,401.77203140000347,401.8010667000199,401.8042480000295,401.8042480000295,401.8042480000295,402.5719583000173,Objects\064b.jpg,post,o,0.7511310999980196,None,401.8042480000295,,,,,,,,00046,001,2026-01-24_12h57.45.954,MST_test,2024.2.0,59.83344762862646,2026-01-24 12h57.53.162990 +0530,
116,0,117,o,0.8458739999914542,None,117,0,116,402.58784310001647,,,,,,,,,,,,,,,,,,,,,,,,,,,,,,,,,,,,,,,,,,,,,,,,,,402.57236920000287,402.58784310001647,403.07204950001324,403.0913861000445,403.0939371000277,403.0939371000277,403.0939371000277,403.95577350002714,Scenes\002a.jpg,mid,o,0.8458739999914542,None,403.0939371000277,,,,,,,,00046,001,2026-01-24_12h57.45.954,MST_test,2024.2.0,59.83344762862646,2026-01-24 12h57.53.162990 +0530,
117,0,118,o,0.7472113000112586,None,118,0,117,403.97166600002674,,,,,,,,,,,,,,,,,,,,,,,,,,,,,,,,,,,,,,,,,,,,,,,,,,403.9560033000307,403.97166600002674,404.4553759000264,404.46799330000067,404.4723070000182,404.4723070000182,404.4723070000182,405.2220456000068,Scenes\018a.jpg,post,o,0.7472113000112586,None,404.4723070000182,,,,,,,,00046,001,2026-01-24_12h57.45.954,MST_test,2024.2.0,59.83344762862646,2026-01-24 12h57.53.162990 +0530,
118,0,119,o,1.0975219000247307,None,119,0,118,405.23804650001694,,,,,,,,,,,,,,,,,,,,,,,,,,,,,,,,,,,,,,,,,,,,,,,,,,405.22238990000915,405.23804650001694,405.7218084000051,405.73514740000246,405.73862110002665,405.73862110002665,405.73862110002665,406.8386878000456,Scenes\162a.jpg,mid,o,1.0975219000247307,None,405.73862110002665,,,,,,,,00046,001,2026-01-24_12h57.45.954,MST_test,2024.2.0,59.83344762862646,2026-01-24 12h57.53.162990 +0530,
119,0,120,o,0.8474685000255704,None,120,0,119,406.85463290003827,,,,,,,,,,,,,,,,,,,,,,,,,,,,,,,,,,,,,,,,,,,,,,,,,,406.8390360000194,406.85463290003827,407.3386316000251,407.3545774000231,407.3568465000135,407.3568465000135,407.3568465000135,408.2056730000186,Scenes\055a.jpg,post,o,0.8474685000255704,None,407.3568465000135,,,,,,,,00046,001,2026-01-24_12h57.45.954,MST_test,2024.2.0,59.83344762862646,2026-01-24 12h57.53.162990 +0530,
120,0,121,n,1.1029215999878943,None,121,0,120,408.2215600000345,,,,,,,,,,,,,,,,,,,,,,,,,,,,,,,,,,,,,,,,,,,,,,,,,,408.20603400003165,408.2215600000345,408.70503950002603,408.7299003000371,408.73320470005274,408.73320470005274,408.73320470005274,409.83861490001436,Foils\082a.jpg,none,n,1.1029215999878943,None,408.73320470005274,,,,,,,,00046,001,2026-01-24_12h57.45.954,MST_test,2024.2.0,59.83344762862646,2026-01-24 12h57.53.162990 +0530,
121,0,122,o,0.8543233000091277,None,122,0,121,409.85488290002104,,,,,,,,,,,,,,,,,,,,,,,,,,,,,,,,,,,,,,,,,,,,,,,,,,409.8389656000072,409.85488290002104,410.33864360000007,410.3701882000314,410.3733838000335,410.3733838000335,410.3733838000335,411.23892900004284,Objects\044b.jpg,mid,o,0.8543233000091277,None,410.3733838000335,,,,,,,,00046,001,2026-01-24_12h57.45.954,MST_test,2024.2.0,59.83344762862646,2026-01-24 12h57.53.162990 +0530,
122,0,123,n,5.208212000026833,None,123,0,122,411.25543990003644,,,,,,,,,,,,,,,,,,,,,,,,,,,,,,,,,,,,,,,,,,,,,,,,,,411.2392918000114,411.25543990003644,411.73828220000723,411.76124180003535,411.76333149999846,411.76333149999846,411.76333149999846,416.9886184000061,Objects\066b.jpg,mid,n,5.208212000026833,None,411.76333149999846,,,,,,,,00046,001,2026-01-24_12h57.45.954,MST_test,2024.2.0,59.83344762862646,2026-01-24 12h57.53.162990 +0530,
123,0,124,s,2.170961499970872,None,124,0,123,417.0054216000135,,,,,,,,,,,,,,,,,,,,,,,,,,,,,,,,,,,,,,,,,,,,,,,,,,416.98933520005085,417.0054216000135,417.48862400004873,417.4979255000362,417.5051766000106,417.5051766000106,417.5051766000106,419.68887780001387,Objects\026b.jpg,pre,s,2.170961499970872,None,417.5051766000106,,,,,,,,00046,001,2026-01-24_12h57.45.954,MST_test,2024.2.0,59.83344762862646,2026-01-24 12h57.53.162990 +0530,
124,0,125,n,2.2891179000143893,None,125,0,124,419.70496390003245,,,,,,,,,,,,,,,,,,,,,,,,,,,,,,,,,,,,,,,,,,,,,,,,,,419.68922560004285,419.70496390003245,420.1890847000177,420.2245365999988,420.2271079000202,420.2271079000202,420.2271079000202,422.52200740005355,Scenes\160b.jpg,mid,n,2.2891179000143893,None,420.2271079000202,,,,,,,,00046,001,2026-01-24_12h57.45.954,MST_test,2024.2.0,59.83344762862646,2026-01-24 12h57.53.162990 +0530,
125,0,126,o,3.4844217999489047,None,126,0,125,422.5382181000314,,,,,,,,,,,,,,,,,,,,,,,,,,,,,,,,,,,,,,,,,,,,,,,,,,422.5224455000134,422.5382181000314,423.0221596000483,423.04498410003725,423.0477405000129,423.0477405000129,423.0477405000129,426.53877290000673,Scenes\054a.jpg,mid,o,3.4844217999489047,None,423.0477405000129,,,,,,,,00046,001,2026-01-24_12h57.45.954,MST_test,2024.2.0,59.83344762862646,2026-01-24 12h57.53.162990 +0530,
126,0,127,o,1.4895150999655016,None,127,0,126,426.5548507000203,,,,,,,,,,,,,,,,,,,,,,,,,,,,,,,,,,,,,,,,,,,,,,,,,,426.5391235999996,426.5548507000203,427.0386224000249,427.0561514000292,427.0586975000333,427.0586975000333,427.0586975000333,428.5556521000108,Scenes\031a.jpg,pre,o,1.4895150999655016,None,427.0586975000333,,,,,,,,00046,001,2026-01-24_12h57.45.954,MST_test,2024.2.0,59.83344762862646,2026-01-24 12h57.53.162990 +0530,
127,0,128,o,1.6600998000358231,None,128,0,127,428.57165030000033,,,,,,,,,,,,,,,,,,,,,,,,,,,,,,,,,,,,,,,,,,,,,,,,,,428.55600270000286,428.57165030000033,429.05548610002734,429.0694051000173,429.07206259999657,429.07206259999657,429.07206259999657,430.73909250000725,Scenes\182a.jpg,post,o,1.6600998000358231,None,429.07206259999657,,,,,,,,00046,001,2026-01-24_12h57.45.954,MST_test,2024.2.0,59.83344762862646,2026-01-24 12h57.53.162990 +0530,
128,0,129,n,2.2844749000505544,None,129,0,128,430.7549499000306,,,,,,,,,,,,,,,,,,,,,,,,,,,,,,,,,,,,,,,,,,,,,,,,,,430.73944020003546,430.7549499000306,431.2386274000164,431.24352780001936,431.2553631000337,431.2553631000337,431.2553631000337,433.55559580004774,Foils\scenes12.jpg,none,n,2.2844749000505544,None,431.2553631000337,,,,,,,,00046,001,2026-01-24_12h57.45.954,MST_test,2024.2.0,59.83344762862646,2026-01-24 12h57.53.162990 +0530,
129,0,130,o,1.2275427000131458,None,130,0,129,433.5723093000124,,,,,,,,,,,,,,,,,,,,,,,,,,,,,,,,,,,,,,,,,,,,,,,,,,433.5558500000043,433.5723093000124,434.0555297000101,434.0626245000167,434.0718522000243,434.0718522000243,434.0718522000243,435.3056490000454,Foils\scenes2.jpg,none,o,1.2275427000131458,None,434.0718522000243,,,,,,,,00046,001,2026-01-24_12h57.45.954,MST_test,2024.2.0,59.83344762862646,2026-01-24 12h57.53.162990 +0530,
130,0,131,o,3.349256700021215,None,131,0,130,435.3216406000429,,,,,,,,,,,,,,,,,,,,,,,,,,,,,,,,,,,,,,,,,,,,,,,,,,435.30599940003594,435.3216406000429,435.8051850000047,435.81404090003343,435.8223241000087,435.8223241000087,435.8223241000087,439.1726921000518,Objects\088a.jpg,post,o,3.349256700021215,None,435.8223241000087,,,,,,,,00046,001,2026-01-24_12h57.45.954,MST_test,2024.2.0,59.83344762862646,2026-01-24 12h57.53.162990 +0530,
131,0,132,n,4.565527500002645,None,132,0,131,439.1882580000092,,,,,,,,,,,,,,,,,,,,,,,,,,,,,,,,,,,,,,,,,,,,,,,,,,439.17305110004963,439.1882580000092,439.6714960000245,439.69156680000015,439.6940763000166,439.6940763000166,439.6940763000166,444.2723260000348,Scenes\128a.jpg,mid,n,4.565527500002645,None,439.6940763000166,,,,,,,,00046,001,2026-01-24_12h57.45.954,MST_test,2024.2.0,59.83344762862646,2026-01-24 12h57.53.162990 +0530,
132,0,133,s,3.5145370999816805,None,133,0,132,444.28824120003264,,,,,,,,,,,,,,,,,,,,,,,,,,,,,,,,,,,,,,,,,,,,,,,,,,444.27276370004984,444.28824120003264,444.7718645000132,444.82258320000255,444.8250459000119,444.8250459000119,444.8250459000119,448.35549790004734,Objects\158b.jpg,post,s,3.5145370999816805,None,444.8250459000119,,,,,,,,00046,001,2026-01-24_12h57.45.954,MST_test,2024.2.0,59.83344762862646,2026-01-24 12h57.53.162990 +0530,
133,0,134,s,5.1399209999945015,None,134,0,133,448.37163460004376,,,,,,,,,,,,,,,,,,,,,,,,,,,,,,,,,,,,,,,,,,,,,,,,,,448.3558219000115,448.37163460004376,448.8552872000146,448.8929787000525,448.89568270003656,448.89568270003656,448.89568270003656,454.0387461000355,Objects\184b.jpg,pre,s,5.1399209999945015,None,448.89568270003656,,,,,,,,00046,001,2026-01-24_12h57.45.954,MST_test,2024.2.0,59.83344762862646,2026-01-24 12h57.53.162990 +0530,
134,0,135,o,1.4549381000106223,None,135,0,134,454.05476160004037,,,,,,,,,,,,,,,,,,,,,,,,,,,,,,,,,,,,,,,,,,,,,,,,,,454.0390923000523,454.05476160004037,454.53868390002754,454.554525100044,454.55719190003583,454.55719190003583,454.55719190003583,456.02195750002284,Scenes\024a.jpg,post,o,1.4549381000106223,None,454.55719190003583,,,,,,,,00046,001,2026-01-24_12h57.45.954,MST_test,2024.2.0,59.83344762862646,2026-01-24 12h57.53.162990 +0530,
135,0,136,n,6.144726399972569,None,136,0,135,456.03830250003375,,,,,,,,,,,,,,,,,,,,,,,,,,,,,,,,,,,,,,,,,,,,,,,,,,456.02232510002796,456.03830250003375,456.5220339000225,456.52904530003434,456.5393449999974,456.5393449999974,456.5393449999974,462.68896580004366,Foils\scenes4.jpg,none,n,6.144726399972569,None,456.5393449999974,,,,,,,,00046,001,2026-01-24_12h57.45.954,MST_test,2024.2.0,59.83344762862646,2026-01-24 12h57.53.162990 +0530,
136,0,137,s,2.966246999974828,None,137,0,136,462.704893200018,,,,,,,,,,,,,,,,,,,,,,,,,,,,,,,,,,,,,,,,,,,,,,,,,,462.68926880002255,462.704893200018,463.1891688000178,463.1985802000272,463.20526690001134,463.20526690001134,463.20526690001134,466.1721986000193,Objects\028b.jpg,mid,s,2.966246999974828,None,463.20526690001134,,,,,,,,00046,001,2026-01-24_12h57.45.954,MST_test,2024.2.0,59.83344762862646,2026-01-24 12h57.53.162990 +0530,
137,0,138,o,1.3315449999645352,None,138,0,137,466.1880112000508,,,,,,,,,,,,,,,,,,,,,,,,,,,,,,,,,,,,,,,,,,,,,,,,,,466.1725868000067,466.1880112000508,466.6720359000028,466.6803716000286,466.6885735000251,466.6885735000251,466.6885735000251,468.0219576000236,Objects\061a.jpg,mid,o,1.3315449999645352,None,466.6885735000251,,,,,,,,00046,001,2026-01-24_12h57.45.954,MST_test,2024.2.0,59.83344762862646,2026-01-24 12h57.53.162990 +0530,
138,0,139,o,1.213603999989573,None,139,0,138,468.0385476000374,,,,,,,,,,,,,,,,,,,,,,,,,,,,,,,,,,,,,,,,,,,,,,,,,,468.02230550005333,468.0385476000374,468.5220513000386,468.5634806000162,468.5661331000156,468.5661331000156,468.5661331000156,469.7888174999971,Scenes\074b.jpg,mid,o,1.213603999989573,None,468.5661331000156,,,,,,,,00046,001,2026-01-24_12h57.45.954,MST_test,2024.2.0,59.83344762862646,2026-01-24 12h57.53.162990 +0530,
139,0,140,o,1.1459887999808416,None,140,0,139,469.8047075000359,,,,,,,,,,,,,,,,,,,,,,,,,,,,,,,,,,,,,,,,,,,,,,,,,,469.7891841000528,469.8047075000359,470.28856250003446,470.32762890000595,470.3301588000031,470.3301588000031,470.3301588000031,471.48897090001265,Scenes\095b.jpg,post,o,1.1459887999808416,None,470.3301588000031,,,,,,,,00046,001,2026-01-24_12h57.45.954,MST_test,2024.2.0,59.83344762862646,2026-01-24 12h57.53.162990 +0530,
140,0,141,n,3.356588600028772,None,141,0,140,471.5049937000149,,,,,,,,,,,,,,,,,,,,,,,,,,,,,,,,,,,,,,,,,,,,,,,,,,471.4893195000477,471.5049937000149,471.98859370005084,472.01320760004455,472.01565720001236,472.01565720001236,472.01565720001236,475.3887854000204,Scenes\168b.jpg,post,n,3.356588600028772,None,472.01565720001236,,,,,,,,00046,001,2026-01-24_12h57.45.954,MST_test,2024.2.0,59.83344762862646,2026-01-24 12h57.53.162990 +0530,
141,0,142,o,1.0266176000004634,None,142,0,141,475.405371300003,,,,,,,,,,,,,,,,,,,,,,,,,,,,,,,,,,,,,,,,,,,,,,,,,,475.38915580004686,475.405371300003,475.8886934000184,475.8980486000073,475.9049786000396,475.9049786000396,475.9049786000396,476.93867190001765,Objects\101a.jpg,pre,o,1.0266176000004634,None,475.9049786000396,,,,,,,,00046,001,2026-01-24_12h57.45.954,MST_test,2024.2.0,59.83344762862646,2026-01-24 12h57.53.162990 +0530,
142,0,143,s,1.2471972999628633,None,143,0,142,476.9555371000315,,,,,,,,,,,,,,,,,,,,,,,,,,,,,,,,,,,,,,,,,,,,,,,,,,476.9390218000044,476.9555371000315,477.4388459000038,477.48190200002864,477.484445900016,477.484445900016,477.484445900016,478.7390020000166,Scenes\137b.jpg,mid,s,1.2471972999628633,None,477.484445900016,,,,,,,,00046,001,2026-01-24_12h57.45.954,MST_test,2024.2.0,59.83344762862646,2026-01-24 12h57.53.162990 +0530,
143,0,144,o,1.660019300004933,None,144,0,143,478.75490140001057,,,,,,,,,,,,,,,,,,,,,,,,,,,,,,,,,,,,,,,,,,,,,,,,,,478.7393705000286,478.75490140001057,479.23928780003916,479.24923430004856,479.2554268000531,479.2554268000531,479.2554268000531,480.9219286000007,Objects\051a.jpg,pre,o,1.660019300004933,None,,,,,,,,,00046,001,2026-01-24_12h57.45.954,MST_test,2024.2.0,59.83344762862646,2026-01-24 12h57.53.162990 +0530,
144,0,145,n,2.4414301000069827,None,145,0,144,480.93788870004937,,,,,,,,,,,,,,,,,,,,,,,,,,,,,,,,,,,,,,,,,,,,,,,,,,480.92216650000773,480.93788870004937,481.4221366000129,481.4402811000473,481.44269480003277,481.44269480003277,481.44269480003277,483.888963400037,Foils\034a.jpg,none,n,2.4414301000069827,None,481.44269480003277,,,,,,,,00046,001,2026-01-24_12h57.45.954,MST_test,2024.2.0,59.83344762862646,2026-01-24 12h57.53.162990 +0530,
145,0,146,o,1.3183770999894477,None,146,0,145,483.9047473000246,,,,,,,,,,,,,,,,,,,,,,,,,,,,,,,,,,,,,,,,,,,,,,,,,,483.8893288000254,483.9047473000246,484.3889392000274,484.39800919999834,484.4053294000332,484.4053294000332,484.4053294000332,485.73894010001095,Objects\176b.jpg,mid,o,1.3183770999894477,None,484.4053294000332,,,,,,,,00046,001,2026-01-24_12h57.45.954,MST_test,2024.2.0,59.83344762862646,2026-01-24 12h57.53.162990 +0530,
146,0,147,o,4.587588299997151,None,147,0,146,485.75490739999805,,,,,,,,,,,,,,,,,,,,,,,,,,,,,,,,,,,,,,,,,,,,,,,,,,485.73929560004035,485.75490739999805,486.2385051000165,486.2535735000274,486.2561329000164,486.2561329000164,486.2561329000164,490.85543530003633,Scenes\038a.jpg,post,o,4.587588299997151,None,486.2561329000164,,,,,,,,00046,001,2026-01-24_12h57.45.954,MST_test,2024.2.0,59.83344762862646,2026-01-24 12h57.53.162990 +0530,
147,0,148,o,0.8715932999621145,None,148,0,147,490.8714219999965,,,,,,,,,,,,,,,,,,,,,,,,,,,,,,,,,,,,,,,,,,,,,,,,,,490.85585700004594,490.8714219999965,491.3550724000088,491.36935530003393,491.372092500038,491.372092500038,491.372092500038,492.2551477000234,Scenes\172a.jpg,post,o,0.8715932999621145,None,491.372092500038,,,,,,,,00046,001,2026-01-24_12h57.45.954,MST_test,2024.2.0,59.83344762862646,2026-01-24 12h57.53.162990 +0530,
148,0,149,o,1.982507400040049,None,149,0,148,492.2716935000499,,,,,,,,,,,,,,,,,,,,,,,,,,,,,,,,,,,,,,,,,,,,,,,,,,492.2554987000185,492.2716935000499,492.75492680002935,492.770834200026,492.773304500035,492.773304500035,492.773304500035,494.7723609000095,Scenes\131a.jpg,mid,o,1.982507400040049,None,492.773304500035,,,,,,,,00046,001,2026-01-24_12h57.45.954,MST_test,2024.2.0,59.83344762862646,2026-01-24 12h57.53.162990 +0530,
149,0,150,o,0.8510055000078864,None,150,0,149,494.788302400033,,,,,,,,,,,,,,,,,,,,,,,,,,,,,,,,,,,,,,,,,,,,,,,,,,494.7727219000226,494.788302400033,495.27203280001413,495.3096794000012,495.3124806000269,495.3124806000269,495.3124806000269,496.17257730005076,Objects\116b.jpg,pre,o,0.8510055000078864,None,495.3124806000269,,,,,,,,00046,001,2026-01-24_12h57.45.954,MST_test,2024.2.0,59.83344762862646,2026-01-24 12h57.53.162990 +0530,
,,,,,,,,,,,,,,,,,,,,,,,,,,,,,,,,,,,,,,,,,,,,,,,,,,,,,,,,,,,,,,,,,,,,,,,,,496.17265680001583,496.1883660000167,496.1883660000167,497.6721744000097,space,1.479722500022035,None,00046,001,2026-01-24_12h57.45.954,MST_test,2024.2.0,59.83344762862646,2026-01-24 12h57.53.162990 +0530,
