thisN,thisTrialN,thisRepN,key_resp_3.keys,key_resp_3.rt,key_resp_3.duration,trials.thisRepN,trials.thisTrialN,trials.thisN,thisRow.t,notes,intro_page.started,text.started,key_resp.started,intro_page.stopped,key_resp.keys,key_resp.rt,key_resp.duration,instructions.started,text_2.started,key_resp_2.started,instructions.stopped,key_resp_2.keys,key_resp_2.rt,key_resp_2.duration,demo1.started,image_1.started,image_2.started,text_7.started,key_resp_6.started,text_9.started,demo1.stopped,key_resp_6.keys,key_resp_6.rt,key_resp_6.duration,demo2.started,image_5.started,image_6.started,text_11.started,text_12.started,key_resp_8.started,demo2.stopped,key_resp_8.keys,key_resp_8.rt,key_resp_8.duration,demo_conclusion.started,text_13.started,key_resp_9.started,demo_conclusion.stopped,key_resp_9.keys,key_resp_9.rt,key_resp_9.duration,start_test.started,text_6.started,key_resp_5.started,start_test.stopped,key_resp_5.keys,key_resp_5.rt,key_resp_5.duration,ISI.started,text_4.started,text_4.stopped,ISI.stopped,routine_1.started,image.started,text_3.started,key_resp_3.started,routine_1.stopped,image_path,position_of_stimuli,trials.key_resp_3.keys,trials.key_resp_3.rt,trials.key_resp_3.duration,End_page.started,text_5.started,key_resp_4.started,End_page.stopped,key_resp_4.keys,key_resp_4.rt,key_resp_4.duration,participant,session,date,expName,psychopyVersion,frameRate,expStart,
,,,,,,,,,,,0.0018606000230647624,0.004251500009559095,0.004251500009559095,5.053096599993296,space,5.029072999954224,None,,,,,,,,,,,,,,,,,,,,,,,,,,,,,,,,,,,,,,,,,,,,,,,,,,,,,,,,,,,,,,,00045,001,2026-01-24_11h54.00.474,MST_test,2024.2.0,60.24568187479153,2026-01-24 11h54.07.563913 +0530,
,,,,,,,,,,,,,,,,,,5.053170300030615,5.065816599992104,5.065816599992104,16.0791035000002,space,10.998991600004956,None,,,,,,,,,,,,,,,,,,,,,,,,,,,,,,,,,,,,,,,,,,,,,,,,,,,,,,,,00045,001,2026-01-24_11h54.00.474,MST_test,2024.2.0,60.24568187479153,2026-01-24 11h54.07.563913 +0530,
,,,,,,,,,,,,,,,,,,,,,,,,,16.07920630002627,16.116548500023782,16.116548500023782,16.116548500023782,16.116548500023782,16.116548500023782,25.697015399986412,space,9.56427309999708,None,,,,,,,,,,,,,,,,,,,,,,,,,,,,,,,,,,,,,,,,,,,,,,00045,001,2026-01-24_11h54.00.474,MST_test,2024.2.0,60.24568187479153,2026-01-24 11h54.07.563913 +0530,
,,,,,,,,,,,,,,,,,,,,,,,,,,,,,,,,,,,25.697113900037948,25.713224300008733,25.713224300008733,25.713224300008733,25.713224300008733,25.713224300008733,30.829818200028967,space,5.111800300015602,None,,,,,,,,,,,,,,,,,,,,,,,,,,,,,,,,,,,,00045,001,2026-01-24_11h54.00.474,MST_test,2024.2.0,60.24568187479153,2026-01-24 11h54.07.563913 +0530,
,,,,,,,,,,,,,,,,,,,,,,,,,,,,,,,,,,,,,,,,,,,,,30.829921900003683,30.84572370001115,30.84572370001115,49.49596149998251,space,18.643688399984967,None,,,,,,,,,,,,,,,,,,,,,,,,,,,,,00045,001,2026-01-24_11h54.00.474,MST_test,2024.2.0,60.24568187479153,2026-01-24 11h54.07.563913 +0530,
,,,,,,,,,,,,,,,,,,,,,,,,,,,,,,,,,,,,,,,,,,,,,,,,,,,,49.49604360002559,49.512371100019664,49.512371100019664,118.36308760003885,space,68.84070739999879,None,,,,,,,,,,,,,,,,,,,,,,00045,001,2026-01-24_11h54.00.474,MST_test,2024.2.0,60.24568187479153,2026-01-24 11h54.07.563913 +0530,
0,0,1,n,2.403526799986139,None,1,0,0,118.37886490003439,,,,,,,,,,,,,,,,,,,,,,,,,,,,,,,,,,,,,,,,,,,,,,,,,,118.37229470000602,118.37886490003439,118.92521419998957,118.86278070003027,118.9228226999985,118.92521419998957,118.92521419998957,118.92521419998957,121.32988040003693,Scenes\188b.jpg,mid,n,2.403526799986139,None,,,,,,,,00045,001,2026-01-24_11h54.00.474,MST_test,2024.2.0,60.24568187479153,2026-01-24 11h54.07.563913 +0530,
1,0,2,o,2.635051499994006,None,2,0,1,121.34563629998593,,,,,,,,,,,,,,,,,,,,,,,,,,,,,,,,,,,,,,,,,,,,,,,,,,121.33023160003358,121.34563629998593,121.84574670001166,121.82949040003587,121.84332980000181,121.84574670001166,121.84574670001166,121.84574670001166,124.49629989999812,Objects\143a.jpg,pre,o,2.635051499994006,None,,,,,,,,00045,001,2026-01-24_11h54.00.474,MST_test,2024.2.0,60.24568187479153,2026-01-24 11h54.07.563913 +0530,
2,0,3,o,1.988382899959106,None,3,0,2,124.51238999998895,,,,,,,,,,,,,,,,,,,,,,,,,,,,,,,,,,,,,,,,,,,,,,,,,,124.49665360001381,124.51238999998895,125.06037369999103,124.995869699982,125.05769849999342,125.06037369999103,125.06037369999103,125.06037369999103,127.06303369998932,Scenes\113b.jpg,pre,o,1.988382899959106,None,,,,,,,,00045,001,2026-01-24_11h54.00.474,MST_test,2024.2.0,60.24568187479153,2026-01-24 11h54.07.563913 +0530,
3,0,4,o,2.0199840999557637,None,4,0,3,127.07883429998765,,,,,,,,,,,,,,,,,,,,,,,,,,,,,,,,,,,,,,,,,,,,,,,,,,127.06341810000595,127.07883429998765,127.58143760001985,127.56264680001186,127.5791096999892,127.58143760001985,127.58143760001985,127.58143760001985,129.6129523999989,Scenes\104a.jpg,post,o,2.0199840999557637,None,,,,,,,,00045,001,2026-01-24_11h54.00.474,MST_test,2024.2.0,60.24568187479153,2026-01-24 11h54.07.563913 +0530,
4,0,5,s,7.839831800025422,None,5,0,4,129.62903800001368,,,,,,,,,,,,,,,,,,,,,,,,,,,,,,,,,,,,,,,,,,,,,,,,,,129.61330329999328,129.62903800001368,130.14505510003073,130.1124484000029,130.1423792000278,130.14505510003073,130.14505510003073,130.14505510003073,137.99648359999992,Objects\176b.jpg,pre,s,7.839831800025422,None,,,,,,,,00045,001,2026-01-24_11h54.00.474,MST_test,2024.2.0,60.24568187479153,2026-01-24 11h54.07.563913 +0530,
5,0,6,o,3.048798399977386,None,6,0,5,138.01230180001585,,,,,,,,,,,,,,,,,,,,,,,,,,,,,,,,,,,,,,,,,,,,,,,,,,137.99684129998786,138.01230180001585,138.51258899999084,138.49667080002837,138.5050307000056,138.51258899999084,138.51258899999084,138.51258899999084,141.5627339000348,Objects\156a.jpg,post,o,3.048798399977386,None,,,,,,,,00045,001,2026-01-24_11h54.00.474,MST_test,2024.2.0,60.24568187479153,2026-01-24 11h54.07.563913 +0530,
6,0,7,o,1.1694342999835499,None,7,0,6,141.57896529999562,,,,,,,,,,,,,,,,,,,,,,,,,,,,,,,,,,,,,,,,,,,,,,,,,,141.56308220000938,141.57896529999562,142.07923810003558,142.06260260002455,142.07625859999098,142.07923810003558,142.07923810003558,142.07923810003558,143.2629697000375,Scenes\123a.jpg,post,o,1.1694342999835499,None,,,,,,,,00045,001,2026-01-24_11h54.00.474,MST_test,2024.2.0,60.24568187479153,2026-01-24 11h54.07.563913 +0530,
7,0,8,o,1.2253295000409707,None,8,0,7,143.27951520000352,,,,,,,,,,,,,,,,,,,,,,,,,,,,,,,,,,,,,,,,,,,,,,,,,,143.26343560003443,143.27951520000352,143.88743340002839,143.7627947999863,143.88499699998647,143.88743340002839,143.88743340002839,143.88743340002839,145.12969660002273,Objects\130b.jpg,post,o,1.2253295000409707,None,,,,,,,,00045,001,2026-01-24_11h54.00.474,MST_test,2024.2.0,60.24568187479153,2026-01-24 11h54.07.563913 +0530,
8,0,9,s,2.3436636999831535,None,9,0,8,145.14561680000043,,,,,,,,,,,,,,,,,,,,,,,,,,,,,,,,,,,,,,,,,,,,,,,,,,145.13005179999163,145.14561680000043,145.6810360000236,145.6294506000122,145.67856640001992,145.6810360000236,145.6810360000236,145.6810360000236,148.02945870003896,Scenes\111b.jpg,mid,s,2.3436636999831535,None,,,,,,,,00045,001,2026-01-24_11h54.00.474,MST_test,2024.2.0,60.24568187479153,2026-01-24 11h54.07.563913 +0530,
9,0,10,o,4.437899799959268,None,10,0,9,148.04534070001682,,,,,,,,,,,,,,,,,,,,,,,,,,,,,,,,,,,,,,,,,,,,,,,,,,148.0296965999878,148.04534070001682,148.5469547000248,148.52914050000254,148.53795770002762,148.5469547000248,148.5469547000248,148.5469547000248,152.99656520003919,Objects\084a.jpg,mid,o,4.437899799959268,None,,,,,,,,00045,001,2026-01-24_11h54.00.474,MST_test,2024.2.0,60.24568187479153,2026-01-24 11h54.07.563913 +0530,
10,0,11,s,2.544297699991148,None,11,0,10,153.01219939999282,,,,,,,,,,,,,,,,,,,,,,,,,,,,,,,,,,,,,,,,,,,,,,,,,,152.99696240003686,153.01219939999282,153.51257140003145,153.49610470002517,153.5020938999951,153.51257140003145,153.51257140003145,153.51257140003145,156.06295440002577,Objects\030a.jpg,post,s,2.544297699991148,None,,,,,,,,00045,001,2026-01-24_11h54.00.474,MST_test,2024.2.0,60.24568187479153,2026-01-24 11h54.07.563913 +0530,
11,0,12,n,1.6360037000267766,None,12,0,11,156.07904620002955,,,,,,,,,,,,,,,,,,,,,,,,,,,,,,,,,,,,,,,,,,,,,,,,,,156.06330249999883,156.07904620002955,156.58865789999254,156.5627608000068,156.58613910002168,156.58865789999254,156.58865789999254,156.58865789999254,158.22949820000213,Foils\020b.jpg,none,n,1.6360037000267766,None,,,,,,,,00045,001,2026-01-24_11h54.00.474,MST_test,2024.2.0,60.24568187479153,2026-01-24 11h54.07.563913 +0530,
12,0,13,n,1.313034399994649,None,13,0,12,158.2455975000048,,,,,,,,,,,,,,,,,,,,,,,,,,,,,,,,,,,,,,,,,,,,,,,,,,158.229880400002,158.2455975000048,158.77624869998544,158.72936860000482,158.77427930000704,158.77624869998544,158.77624869998544,158.77624869998544,160.0963445000234,Foils\018a.jpg,none,n,1.313034399994649,None,,,,,,,,00045,001,2026-01-24_11h54.00.474,MST_test,2024.2.0,60.24568187479153,2026-01-24 11h54.07.563913 +0530,
13,0,14,n,1.5533935999847017,None,14,0,13,160.11231350002345,,,,,,,,,,,,,,,,,,,,,,,,,,,,,,,,,,,,,,,,,,,,,,,,,,160.09669099998428,160.11231350002345,160.64760470000328,160.59583720000228,160.64525380003033,160.64760470000328,160.64760470000328,160.64760470000328,162.21367670001928,Foils\scenes18.jpg,none,n,1.5533935999847017,None,,,,,,,,00045,001,2026-01-24_11h54.00.474,MST_test,2024.2.0,60.24568187479153,2026-01-24 11h54.07.563913 +0530,
14,0,15,n,1.3696904000244103,None,15,0,14,162.2289396999986,,,,,,,,,,,,,,,,,,,,,,,,,,,,,,,,,,,,,,,,,,,,,,,,,,162.21402700000908,162.2289396999986,162.7354199999827,162.7127672000206,162.7331543000182,162.7354199999827,162.7354199999827,162.7354199999827,164.11271900002612,Foils\002a.jpg,none,n,1.3696904000244103,None,,,,,,,,00045,001,2026-01-24_11h54.00.474,MST_test,2024.2.0,60.24568187479153,2026-01-24 11h54.07.563913 +0530,
15,0,16,s,4.849502599972766,None,16,0,15,164.12896719999844,,,,,,,,,,,,,,,,,,,,,,,,,,,,,,,,,,,,,,,,,,,,,,,,,,164.11307540000416,164.12896719999844,164.65532389999134,164.6127788000158,164.65260129998205,164.65532389999134,164.65532389999134,164.65532389999134,169.5127459000214,Scenes\183b.jpg,mid,s,4.849502599972766,None,,,,,,,,00045,001,2026-01-24_11h54.00.474,MST_test,2024.2.0,60.24568187479153,2026-01-24 11h54.07.563913 +0530,
16,0,17,s,2.7649631000240333,None,17,0,16,169.52844369999366,,,,,,,,,,,,,,,,,,,,,,,,,,,,,,,,,,,,,,,,,,,,,,,,,,169.51297700003488,169.52844369999366,170.0437043000129,170.01221070002066,170.0405912999995,170.0437043000129,170.0437043000129,170.0437043000129,172.8126668999903,Objects\181b.jpg,post,s,2.7649631000240333,None,,,,,,,,00045,001,2026-01-24_11h54.00.474,MST_test,2024.2.0,60.24568187479153,2026-01-24 11h54.07.563913 +0530,
17,0,18,o,1.4931548000313342,None,18,0,17,172.82855330000166,,,,,,,,,,,,,,,,,,,,,,,,,,,,,,,,,,,,,,,,,,,,,,,,,,172.81309890002012,172.82855330000166,173.33212149998872,173.31283260002965,173.3296409000177,173.33212149998872,173.33212149998872,173.33212149998872,174.83010750001995,Scenes\007a.jpg,pre,o,1.4931548000313342,None,,,,,,,,00045,001,2026-01-24_11h54.00.474,MST_test,2024.2.0,60.24568187479153,2026-01-24 11h54.07.563913 +0530,
18,0,19,o,1.1345646000117995,None,19,0,18,174.84574160003103,,,,,,,,,,,,,,,,,,,,,,,,,,,,,,,,,,,,,,,,,,,,,,,,,,174.83049710001796,174.84574160003103,175.34636020002654,175.32947360002436,175.34043769998243,175.34636020002654,175.34636020002654,175.34636020002654,176.49608330003684,Objects\053a.jpg,mid,o,1.1345646000117995,None,,,,,,,,00045,001,2026-01-24_11h54.00.474,MST_test,2024.2.0,60.24568187479153,2026-01-24 11h54.07.563913 +0530,
19,0,20,o,0.9537264999817125,None,20,0,19,176.51239129999885,,,,,,,,,,,,,,,,,,,,,,,,,,,,,,,,,,,,,,,,,,,,,,,,,,176.4964345000335,176.51239129999885,177.09492499998305,176.99590959999477,177.0922722000396,177.09492499998305,177.09492499998305,177.09492499998305,178.06302310002502,Objects\094b.jpg,pre,o,0.9537264999817125,None,,,,,,,,00045,001,2026-01-24_11h54.00.474,MST_test,2024.2.0,60.24568187479153,2026-01-24 11h54.07.563913 +0530,
20,0,21,n,3.443140299990773,None,21,0,20,178.0790546000353,,,,,,,,,,,,,,,,,,,,,,,,,,,,,,,,,,,,,,,,,,,,,,,,,,178.06350330001442,178.0790546000353,178.60631689999718,178.56257559999358,178.60363209998468,178.60631689999718,178.60631689999718,178.60631689999718,182.06303830002435,Foils\scenes23.jpg,none,n,3.443140299990773,None,,,,,,,,00045,001,2026-01-24_11h54.00.474,MST_test,2024.2.0,60.24568187479153,2026-01-24 11h54.07.563913 +0530,
21,0,22,s,4.432609600014985,None,22,0,21,182.079047599982,,,,,,,,,,,,,,,,,,,,,,,,,,,,,,,,,,,,,,,,,,,,,,,,,,182.06338519998826,182.079047599982,182.60019969998393,182.5624873000197,182.59835159999784,182.60019969998393,182.60019969998393,182.60019969998393,187.0462665000232,Objects\048b.jpg,mid,s,4.432609600014985,None,,,,,,,,00045,001,2026-01-24_11h54.00.474,MST_test,2024.2.0,60.24568187479153,2026-01-24 11h54.07.563913 +0530,
22,0,23,o,1.6133750000153668,None,23,0,22,187.06341920001432,,,,,,,,,,,,,,,,,,,,,,,,,,,,,,,,,,,,,,,,,,,,,,,,,,187.04668040003162,187.06341920001432,,187.56262899999274,187.5702110999846,187.57927590003237,187.57927590003237,187.57927590003237,189.19592369999737,Objects\120a.jpg,post,o,1.6133750000153668,None,,,,,,,,00045,001,2026-01-24_11h54.00.474,MST_test,2024.2.0,60.24568187479153,2026-01-24 11h54.07.563913 +0530,
23,0,24,o,1.3582603999529965,None,24,0,23,189.21324830001686,,,,,,,,,,,,,,,,,,,,,,,,,,,,,,,,,,,,,,,,,,,,,,,,,,189.19627740001306,189.21324830001686,189.71480070002144,189.69607000000542,189.71245360001922,189.71480070002144,189.71480070002144,189.71480070002144,191.07963739999104,Scenes\119a.jpg,pre,o,1.3582603999529965,None,,,,,,,,00045,001,2026-01-24_11h54.00.474,MST_test,2024.2.0,60.24568187479153,2026-01-24 11h54.07.563913 +0530,
24,0,25,o,1.180831899982877,None,25,0,24,191.09564170002704,,,,,,,,,,,,,,,,,,,,,,,,,,,,,,,,,,,,,,,,,,,,,,,,,,191.08000770001672,191.09564170002704,191.59711490001064,191.5795736000291,191.5948192999931,191.59711490001064,191.59711490001064,191.59711490001064,192.77950030000648,Scenes\157a.jpg,pre,o,1.180831899982877,None,,,,,,,,00045,001,2026-01-24_11h54.00.474,MST_test,2024.2.0,60.24568187479153,2026-01-24 11h54.07.563913 +0530,
25,0,26,n,2.6145859999815,None,26,0,25,192.79649560002144,,,,,,,,,,,,,,,,,,,,,,,,,,,,,,,,,,,,,,,,,,,,,,,,,,192.7798622000264,192.79649560002144,193.30632710002828,193.2794515999849,193.304510499991,193.30632710002828,193.30632710002828,193.30632710002828,195.93073650001315,Foils\scenes13.jpg,none,n,2.6145859999815,None,,,,,,,,00045,001,2026-01-24_11h54.00.474,MST_test,2024.2.0,60.24568187479153,2026-01-24 11h54.07.563913 +0530,
26,0,27,n,1.1566387999919243,None,27,0,26,195.94564879999962,,,,,,,,,,,,,,,,,,,,,,,,,,,,,,,,,,,,,,,,,,,,,,,,,,195.9311303999857,195.94564879999962,196.45198369998252,196.42950540001038,196.44926900003338,196.45198369998252,196.45198369998252,196.45198369998252,197.61273049999727,Foils\009a.jpg,none,n,1.1566387999919243,None,,,,,,,,00045,001,2026-01-24_11h54.00.474,MST_test,2024.2.0,60.24568187479153,2026-01-24 11h54.07.563913 +0530,
27,0,28,s,3.1382450999808498,None,28,0,27,197.62937959999545,,,,,,,,,,,,,,,,,,,,,,,,,,,,,,,,,,,,,,,,,,,,,,,,,,197.61311249999562,197.62937959999545,198.14237780001713,198.11218860000372,198.13985929999035,198.14237780001713,198.14237780001713,198.14237780001713,201.29588370001875,Objects\010b.jpg,pre,s,3.1382450999808498,None,,,,,,,,00045,001,2026-01-24_11h54.00.474,MST_test,2024.2.0,60.24568187479153,2026-01-24 11h54.07.563913 +0530,
28,0,29,o,1.1808374000247568,None,29,0,28,201.3124102000147,,,,,,,,,,,,,,,,,,,,,,,,,,,,,,,,,,,,,,,,,,,,,,,,,,201.2962695999886,201.3124102000147,,201.79655840003397,201.80434219999006,201.8124475000077,201.8124475000077,201.8124475000077,202.9961387999938,Objects\153a.jpg,mid,o,1.1808374000247568,None,,,,,,,,00045,001,2026-01-24_11h54.00.474,MST_test,2024.2.0,60.24568187479153,2026-01-24 11h54.07.563913 +0530,
29,0,30,n,2.720492899999954,None,30,0,29,203.0125119999866,,,,,,,,,,,,,,,,,,,,,,,,,,,,,,,,,,,,,,,,,,,,,,,,,,202.99648800003342,203.0125119999866,203.52822790003847,203.4959587000194,203.52504979999503,203.52822790003847,203.52822790003847,203.52822790003847,206.26295100001153,Foils\scenes12.jpg,none,n,2.720492899999954,None,,,,,,,,00045,001,2026-01-24_11h54.00.474,MST_test,2024.2.0,60.24568187479153,2026-01-24 11h54.07.563913 +0530,
30,0,31,s,1.8061137999757193,None,31,0,30,206.2790704999934,,,,,,,,,,,,,,,,,,,,,,,,,,,,,,,,,,,,,,,,,,,,,,,,,,206.26332150003873,206.2790704999934,206.80258240003604,206.76249039999675,206.8002606999944,206.80258240003604,206.80258240003604,206.80258240003604,208.61303459998453,Scenes\042b.jpg,mid,s,1.8061137999757193,None,,,,,,,,00045,001,2026-01-24_11h54.00.474,MST_test,2024.2.0,60.24568187479153,2026-01-24 11h54.07.563913 +0530,
31,0,32,o,1.3030212000012398,None,32,0,31,208.6290540000191,,,,,,,,,,,,,,,,,,,,,,,,,,,,,,,,,,,,,,,,,,,,,,,,,,208.61338130000513,208.6290540000191,209.1296391999931,209.1126487000147,209.1249906999874,209.1296391999931,209.1296391999931,209.1296391999931,210.4463927000179,Objects\177a.jpg,mid,o,1.3030212000012398,None,,,,,,,,00045,001,2026-01-24_11h54.00.474,MST_test,2024.2.0,60.24568187479153,2026-01-24 11h54.07.563913 +0530,
32,0,33,o,0.8945804000250064,None,33,0,32,210.46238230000017,,,,,,,,,,,,,,,,,,,,,,,,,,,,,,,,,,,,,,,,,,,,,,,,,,210.44678300002124,210.46238230000017,210.96266880002804,210.94608600001084,210.95483740000054,210.96266880002804,210.96266880002804,210.96266880002804,211.86302699998487,Objects\159a.jpg,mid,o,0.8945804000250064,None,,,,,,,,00045,001,2026-01-24_11h54.00.474,MST_test,2024.2.0,60.24568187479153,2026-01-24 11h54.07.563913 +0530,
33,0,34,o,2.35838569997577,None,34,0,33,211.87917329999618,,,,,,,,,,,,,,,,,,,,,,,,,,,,,,,,,,,,,,,,,,,,,,,,,,211.86337740003364,211.87917329999618,212.37889910000376,212.36255309998523,212.3690232000081,212.37889910000376,212.37889910000376,212.37889910000376,214.74629540002206,Objects\036a.jpg,post,o,2.35838569997577,None,,,,,,,,00045,001,2026-01-24_11h54.00.474,MST_test,2024.2.0,60.24568187479153,2026-01-24 11h54.07.563913 +0530,
34,0,35,o,1.5141726000001654,None,35,0,34,214.76239520002855,,,,,,,,,,,,,,,,,,,,,,,,,,,,,,,,,,,,,,,,,,,,,,,,,,214.74667090002913,214.76239520002855,215.26312900002813,215.2457150000264,215.2607749000308,215.26312900002813,215.26312900002813,215.26312900002813,216.7794407000183,Scenes\028a.jpg,mid,o,1.5141726000001654,None,,,,,,,,00045,001,2026-01-24_11h54.00.474,MST_test,2024.2.0,60.24568187479153,2026-01-24 11h54.07.563913 +0530,
35,0,36,s,2.14670089998981,None,36,0,35,216.7956481000292,,,,,,,,,,,,,,,,,,,,,,,,,,,,,,,,,,,,,,,,,,,,,,,,,,216.77980289998231,216.7956481000292,217.30192970001372,217.279302800016,217.29931370000122,217.30192970001372,217.30192970001372,217.30192970001372,219.46303620003164,Foils\065a.jpg,none,s,2.14670089998981,None,,,,,,,,00045,001,2026-01-24_11h54.00.474,MST_test,2024.2.0,60.24568187479153,2026-01-24 11h54.07.563913 +0530,
36,0,37,n,1.5278174999984913,None,37,0,36,219.4787728000083,,,,,,,,,,,,,,,,,,,,,,,,,,,,,,,,,,,,,,,,,,,,,,,,,,219.46342690003803,219.4787728000083,219.984810199996,219.96279630000936,219.9827422000235,219.984810199996,219.984810199996,219.984810199996,221.52971179998713,Foils\scenes11.jpg,none,n,1.5278174999984913,None,,,,,,,,00045,001,2026-01-24_11h54.00.474,MST_test,2024.2.0,60.24568187479153,2026-01-24 11h54.07.563913 +0530,
37,0,38,o,2.107653199986089,None,38,0,37,221.5456509999931,,,,,,,,,,,,,,,,,,,,,,,,,,,,,,,,,,,,,,,,,,,,,,,,,,221.530060900026,221.5456509999931,222.04559550003614,222.02920769999037,222.03793900000164,222.04559550003614,222.04559550003614,222.04559550003614,224.16314439999405,Objects\160a.jpg,pre,o,2.107653199986089,None,,,,,,,,00045,001,2026-01-24_11h54.00.474,MST_test,2024.2.0,60.24568187479153,2026-01-24 11h54.07.563913 +0530,
38,0,39,s,1.9845219000126235,None,39,0,38,224.17916830000468,,,,,,,,,,,,,,,,,,,,,,,,,,,,,,,,,,,,,,,,,,,,,,,,,,224.16352569998708,224.17916830000468,224.6960293999873,224.6629852000042,224.69360970001435,224.6960293999873,224.6960293999873,224.6960293999873,226.69612610002514,Scenes\018b.jpg,pre,s,1.9845219000126235,None,,,,,,,,00045,001,2026-01-24_11h54.00.474,MST_test,2024.2.0,60.24568187479153,2026-01-24 11h54.07.563913 +0530,
39,0,40,o,2.4113841999787837,None,40,0,39,226.71202020003693,,,,,,,,,,,,,,,,,,,,,,,,,,,,,,,,,,,,,,,,,,,,,,,,,,226.69644740002695,226.71202020003693,227.21350449998863,227.19592249998823,227.20740519999526,227.21350449998863,227.21350449998863,227.21350449998863,229.62948509998387,Scenes\156a.jpg,mid,o,2.4113841999787837,None,,,,,,,,00045,001,2026-01-24_11h54.00.474,MST_test,2024.2.0,60.24568187479153,2026-01-24 11h54.07.563913 +0530,
40,0,41,s,2.20890430000145,None,41,0,40,229.64546299999347,,,,,,,,,,,,,,,,,,,,,,,,,,,,,,,,,,,,,,,,,,,,,,,,,,229.6298373999889,229.64546299999347,230.2003817000077,230.12946190004004,230.19785820000106,230.2003817000077,230.2003817000077,230.2003817000077,232.4128292000387,Objects\119b.jpg,post,s,2.20890430000145,None,,,,,,,,00045,001,2026-01-24_11h54.00.474,MST_test,2024.2.0,60.24568187479153,2026-01-24 11h54.07.563913 +0530,
41,0,42,o,2.871574699995108,None,42,0,41,232.42901110003004,,,,,,,,,,,,,,,,,,,,,,,,,,,,,,,,,,,,,,,,,,,,,,,,,,232.41318480001064,232.42901110003004,232.92921080003725,232.91283159999875,232.9262141000363,232.92921080003725,232.92921080003725,232.92921080003725,235.81282300001476,Scenes\101a.jpg,pre,o,2.871574699995108,None,,,,,,,,00045,001,2026-01-24_11h54.00.474,MST_test,2024.2.0,60.24568187479153,2026-01-24 11h54.07.563913 +0530,
42,0,43,n,1.7461354999686591,None,43,0,42,235.82929890003288,,,,,,,,,,,,,,,,,,,,,,,,,,,,,,,,,,,,,,,,,,,,,,,,,,235.81319539999822,235.82929890003288,236.35900200001197,236.31217940000352,236.35658200003672,236.35900200001197,236.35900200001197,236.35900200001197,238.11305420001736,Foils\026a.jpg,none,n,1.7461354999686591,None,,,,,,,,00045,001,2026-01-24_11h54.00.474,MST_test,2024.2.0,60.24568187479153,2026-01-24 11h54.07.563913 +0530,
43,0,44,n,3.116620199987665,None,44,0,43,238.12947729998268,,,,,,,,,,,,,,,,,,,,,,,,,,,,,,,,,,,,,,,,,,,,,,,,,,238.1134017999866,238.12947729998268,238.6446420000284,238.61280270002317,238.64170410000952,238.6446420000284,238.6446420000284,238.6446420000284,241.76395759999286,Foils\scenes22.jpg,none,n,3.116620199987665,None,,,,,,,,00045,001,2026-01-24_11h54.00.474,MST_test,2024.2.0,60.24568187479153,2026-01-24 11h54.07.563913 +0530,
44,0,45,n,1.6811052999692038,None,45,0,44,241.77897829998983,,,,,,,,,,,,,,,,,,,,,,,,,,,,,,,,,,,,,,,,,,,,,,,,,,241.7643120000139,241.77897829998983,242.2881197000388,242.26281759998528,242.2851894000196,242.2881197000388,242.2881197000388,242.2881197000388,243.98026470001787,Foils\086a.jpg,none,n,1.6811052999692038,None,,,,,,,,00045,001,2026-01-24_11h54.00.474,MST_test,2024.2.0,60.24568187479153,2026-01-24 11h54.07.563913 +0530,
45,0,46,s,1.6298508999752812,None,46,0,45,243.99555390002206,,,,,,,,,,,,,,,,,,,,,,,,,,,,,,,,,,,,,,,,,,,,,,,,,,243.98061379999854,243.99555390002206,244.5314984000288,244.4795148000121,244.52897149999626,244.5314984000288,244.5314984000288,244.5314984000288,246.16293659998337,Scenes\046b.jpg,pre,s,1.6298508999752812,None,,,,,,,,00045,001,2026-01-24_11h54.00.474,MST_test,2024.2.0,60.24568187479153,2026-01-24 11h54.07.563913 +0530,
46,0,47,o,1.233209199970588,None,47,0,46,246.1790544000105,,,,,,,,,,,,,,,,,,,,,,,,,,,,,,,,,,,,,,,,,,,,,,,,,,246.16332420002436,246.1790544000105,246.67971850000322,246.66247019998264,246.67451410001377,246.67971850000322,246.67971850000322,246.67971850000322,247.9296989000286,Scenes\065a.jpg,pre,o,1.233209199970588,None,,,,,,,,00045,001,2026-01-24_11h54.00.474,MST_test,2024.2.0,60.24568187479153,2026-01-24 11h54.07.563913 +0530,
47,0,48,o,0.8343035000143573,None,48,0,47,247.94586889998754,,,,,,,,,,,,,,,,,,,,,,,,,,,,,,,,,,,,,,,,,,,,,,,,,,247.93005030002678,247.94586889998754,248.4463340000366,248.429529200017,248.43713590002153,248.4463340000366,248.4463340000366,248.4463340000366,249.2963128000265,Scenes\033a.jpg,pre,o,0.8343035000143573,None,,,,,,,,00045,001,2026-01-24_11h54.00.474,MST_test,2024.2.0,60.24568187479153,2026-01-24 11h54.07.563913 +0530,
48,0,49,s,2.013936500006821,None,49,0,48,249.31239899998764,,,,,,,,,,,,,,,,,,,,,,,,,,,,,,,,,,,,,,,,,,,,,,,,,,249.29666550003458,249.31239899998764,249.83474100002786,249.79588310001418,249.83244530000957,249.83474100002786,249.83474100002786,249.83474100002786,251.8630642000353,Objects\028b.jpg,pre,s,2.013936500006821,None,,,,,,,,00045,001,2026-01-24_11h54.00.474,MST_test,2024.2.0,60.24568187479153,2026-01-24 11h54.07.563913 +0530,
49,0,50,o,2.114164000027813,None,50,0,49,251.87908179999795,,,,,,,,,,,,,,,,,,,,,,,,,,,,,,,,,,,,,,,,,,,,,,,,,,251.86342479998711,251.87908179999795,252.38240830000723,252.36263440002222,252.37988870003028,252.38240830000723,252.38240830000723,252.38240830000723,254.51288180000847,Scenes\173a.jpg,post,o,2.114164000027813,None,,,,,,,,00045,001,2026-01-24_11h54.00.474,MST_test,2024.2.0,60.24568187479153,2026-01-24 11h54.07.563913 +0530,
50,0,51,o,1.3554133999859914,None,51,0,50,254.52890790003585,,,,,,,,,,,,,,,,,,,,,,,,,,,,,,,,,,,,,,,,,,,,,,,,,,254.5132209000294,254.52890790003585,255.03720170003362,255.01274219999323,255.03468680003425,255.03720170003362,255.03720170003362,255.03720170003362,256.39595460001146,Foils\066a.jpg,none,o,1.3554133999859914,None,,,,,,,,00045,001,2026-01-24_11h54.00.474,MST_test,2024.2.0,60.24568187479153,2026-01-24 11h54.07.563913 +0530,
51,0,52,s,1.370674700010568,None,52,0,51,256.41241270001046,,,,,,,,,,,,,,,,,,,,,,,,,,,,,,,,,,,,,,,,,,,,,,,,,,256.39630080002826,256.41241270001046,,256.89618490001885,256.92441819998203,256.92655840003863,256.92655840003863,256.92655840003863,258.3129212000058,Objects\155b.jpg,post,s,1.370674700010568,None,,,,,,,,00045,001,2026-01-24_11h54.00.474,MST_test,2024.2.0,60.24568187479153,2026-01-24 11h54.07.563913 +0530,
52,0,53,o,4.4751600999734364,None,53,0,52,258.32887160003884,,,,,,,,,,,,,,,,,,,,,,,,,,,,,,,,,,,,,,,,,,,,,,,,,,258.31327139999485,258.32887160003884,258.8295429000282,258.81246909999754,258.82145670003956,258.8295429000282,258.8295429000282,258.8295429000282,263.31371489999583,Scenes\027a.jpg,pre,o,4.4751600999734364,None,,,,,,,,00045,001,2026-01-24_11h54.00.474,MST_test,2024.2.0,60.24568187479153,2026-01-24 11h54.07.563913 +0530,
53,0,54,n,3.0190029999939725,None,54,0,53,263.32908160000807,,,,,,,,,,,,,,,,,,,,,,,,,,,,,,,,,,,,,,,,,,,,,,,,,,263.31410349998623,263.32908160000807,263.82962090004,263.8128202999942,263.8215171000338,263.82962090004,263.82962090004,263.82962090004,266.8628356999834,Objects\116a.jpg,mid,n,3.0190029999939725,None,,,,,,,,00045,001,2026-01-24_11h54.00.474,MST_test,2024.2.0,60.24568187479153,2026-01-24 11h54.07.563913 +0530,
54,0,55,o,4.269695899973158,None,55,0,54,266.87912550003966,,,,,,,,,,,,,,,,,,,,,,,,,,,,,,,,,,,,,,,,,,,,,,,,,,266.8631888999953,266.87912550003966,267.3789324000245,267.3628078000038,267.37069489998976,267.3789324000245,267.3789324000245,267.3789324000245,271.6631490000291,Objects\150a.jpg,post,o,4.269695899973158,None,,,,,,,,00045,001,2026-01-24_11h54.00.474,MST_test,2024.2.0,60.24568187479153,2026-01-24 11h54.07.563913 +0530,
55,0,56,o,0.8331172000034712,None,56,0,55,271.67907000001287,,,,,,,,,,,,,,,,,,,,,,,,,,,,,,,,,,,,,,,,,,,,,,,,,,271.663531600032,271.67907000001287,272.1835390999913,272.1628095000051,272.18119370000204,272.1835390999913,272.1835390999913,272.1835390999913,273.02970970002934,Scenes\054a.jpg,mid,o,0.8331172000034712,None,,,,,,,,00045,001,2026-01-24_11h54.00.474,MST_test,2024.2.0,60.24568187479153,2026-01-24 11h54.07.563913 +0530,
56,0,57,o,1.0845770000014454,None,57,0,56,273.04565960000036,,,,,,,,,,,,,,,,,,,,,,,,,,,,,,,,,,,,,,,,,,,,,,,,,,273.0300593000138,273.04565960000036,273.54866219998803,273.5292894000304,273.5462571000098,273.54866219998803,273.54866219998803,273.54866219998803,274.64632390002953,Scenes\122a.jpg,post,o,1.0845770000014454,None,,,,,,,,00045,001,2026-01-24_11h54.00.474,MST_test,2024.2.0,60.24568187479153,2026-01-24 11h54.07.563913 +0530,
57,0,58,n,1.2586382000008598,None,58,0,57,274.6624211000162,,,,,,,,,,,,,,,,,,,,,,,,,,,,,,,,,,,,,,,,,,,,,,,,,,274.64677120000124,274.6624211000162,275.17457800003467,275.1459540000069,275.17190439999104,275.17457800003467,275.17457800003467,275.17457800003467,276.44630740000866,Foils\101b.jpg,none,n,1.2586382000008598,None,,,,,,,,00045,001,2026-01-24_11h54.00.474,MST_test,2024.2.0,60.24568187479153,2026-01-24 11h54.07.563913 +0530,
58,0,59,n,1.0341885999660008,None,59,0,58,276.46208150003804,,,,,,,,,,,,,,,,,,,,,,,,,,,,,,,,,,,,,,,,,,,,,,,,,,276.4466555000399,276.46208150003804,276.96700659999624,276.9460507000331,276.96427390002646,276.96700659999624,276.96700659999624,276.96700659999624,278.01305599999614,Foils\scenes29.jpg,none,n,1.0341885999660008,None,,,,,,,,00045,001,2026-01-24_11h54.00.474,MST_test,2024.2.0,60.24568187479153,2026-01-24 11h54.07.563913 +0530,
59,0,60,s,1.611508000001777,None,60,0,59,278.0287828000146,,,,,,,,,,,,,,,,,,,,,,,,,,,,,,,,,,,,,,,,,,,,,,,,,,278.0134061999852,278.0287828000146,278.549992699991,278.51280730002327,278.5472367000184,278.549992699991,278.549992699991,278.549992699991,280.16279249999207,Objects\040b.jpg,mid,s,1.611508000001777,None,,,,,,,,00045,001,2026-01-24_11h54.00.474,MST_test,2024.2.0,60.24568187479153,2026-01-24 11h54.07.563913 +0530,
60,0,61,o,1.323217900004238,None,61,0,60,280.17908480000915,,,,,,,,,,,,,,,,,,,,,,,,,,,,,,,,,,,,,,,,,,,,,,,,,,280.16314570000395,280.17908480000915,280.70938740001293,280.66282880003564,280.7070296999882,280.70938740001293,280.70938740001293,280.70938740001293,282.04633029998513,Scenes\031b.jpg,post,o,1.323217900004238,None,,,,,,,,00045,001,2026-01-24_11h54.00.474,MST_test,2024.2.0,60.24568187479153,2026-01-24 11h54.07.563913 +0530,
61,0,62,s,2.052162700041663,None,62,0,61,282.06236430001445,,,,,,,,,,,,,,,,,,,,,,,,,,,,,,,,,,,,,,,,,,,,,,,,,,282.0466841000016,282.06236430001445,282.7890446000383,282.5459201000049,282.78658020001603,282.7890446000383,282.7890446000383,282.7890446000383,284.84630119998474,Objects\049b.jpg,post,s,2.052162700041663,None,,,,,,,,00045,001,2026-01-24_11h54.00.474,MST_test,2024.2.0,60.24568187479153,2026-01-24 11h54.07.563913 +0530,
62,0,63,s,1.2745174000156112,None,63,0,62,284.86240789998556,,,,,,,,,,,,,,,,,,,,,,,,,,,,,,,,,,,,,,,,,,,,,,,,,,284.84665359999053,284.86240789998556,285.3900366000016,285.3459332000348,285.38753260002704,285.3900366000016,285.3900366000016,285.3900366000016,286.6797139000264,Objects\081b.jpg,pre,s,1.2745174000156112,None,,,,,,,,00045,001,2026-01-24_11h54.00.474,MST_test,2024.2.0,60.24568187479153,2026-01-24 11h54.07.563913 +0530,
63,0,64,s,1.8572434000088833,None,64,0,63,286.69642880000174,,,,,,,,,,,,,,,,,,,,,,,,,,,,,,,,,,,,,,,,,,,,,,,,,,286.680066800036,286.69642880000174,287.2234202999971,287.1795012000366,287.220708000008,287.2234202999971,287.2234202999971,287.2234202999971,289.0963593000197,Objects\106b.jpg,pre,s,1.8572434000088833,None,,,,,,,,00045,001,2026-01-24_11h54.00.474,MST_test,2024.2.0,60.24568187479153,2026-01-24 11h54.07.563913 +0530,
64,0,65,s,3.050361300003715,None,65,0,64,289.1124168999959,,,,,,,,,,,,,,,,,,,,,,,,,,,,,,,,,,,,,,,,,,,,,,,,,,289.096736699983,289.1124168999959,289.6305091000395,289.5960640999838,289.62812740000663,289.6305091000395,289.6305091000395,289.6305091000395,292.6963267000392,Objects\132b.jpg,post,s,3.050361300003715,None,,,,,,,,00045,001,2026-01-24_11h54.00.474,MST_test,2024.2.0,60.24568187479153,2026-01-24 11h54.07.563913 +0530,
65,0,66,o,1.2205306999967434,None,66,0,65,292.71243960002903,,,,,,,,,,,,,,,,,,,,,,,,,,,,,,,,,,,,,,,,,,,,,,,,,,292.6966950999922,292.71243960002903,293.2126909000217,293.19607060001,293.2098285999964,293.2126909000217,293.2126909000217,293.2126909000217,294.4462971999892,Scenes\141a.jpg,post,o,1.2205306999967434,None,,,,,,,,00045,001,2026-01-24_11h54.00.474,MST_test,2024.2.0,60.24568187479153,2026-01-24 11h54.07.563913 +0530,
66,0,67,s,1.8520063000032678,None,67,0,66,294.46235680003883,,,,,,,,,,,,,,,,,,,,,,,,,,,,,,,,,,,,,,,,,,,,,,,,,,294.4466573999962,294.46235680003883,294.98139999998966,294.9466009000316,294.9790087000001,294.98139999998966,294.98139999998966,294.98139999998966,296.847180199984,Objects\019b.jpg,pre,s,1.8520063000032678,None,,,,,,,,00045,001,2026-01-24_11h54.00.474,MST_test,2024.2.0,60.24568187479153,2026-01-24 11h54.07.563913 +0530,
67,0,68,o,1.6216763000120409,None,68,0,67,296.8622054000152,,,,,,,,,,,,,,,,,,,,,,,,,,,,,,,,,,,,,,,,,,,,,,,,,,296.8475547999842,296.8622054000152,297.36351160000777,297.3461193999974,297.35616930003744,297.36351160000777,297.36351160000777,297.36351160000777,298.9962225999916,Scenes\037a.jpg,post,o,1.6216763000120409,None,,,,,,,,00045,001,2026-01-24_11h54.00.474,MST_test,2024.2.0,60.24568187479153,2026-01-24 11h54.07.563913 +0530,
68,0,69,n,1.1073224000283517,None,69,0,68,299.01224750000983,,,,,,,,,,,,,,,,,,,,,,,,,,,,,,,,,,,,,,,,,,,,,,,,,,298.9965944000287,299.01224750000983,299.53390929999296,299.49607990001095,299.53089340002043,299.53390929999296,299.53390929999296,299.53390929999296,300.64633990003495,Foils\scenes28.jpg,none,n,1.1073224000283517,None,,,,,,,,00045,001,2026-01-24_11h54.00.474,MST_test,2024.2.0,60.24568187479153,2026-01-24 11h54.07.563913 +0530,
69,0,70,s,1.2799768999684602,None,70,0,69,300.6621591000003,,,,,,,,,,,,,,,,,,,,,,,,,,,,,,,,,,,,,,,,,,,,,,,,,,300.6466971000191,300.6621591000003,301.1845248999889,301.14624000003096,301.18163120001554,301.1845248999889,301.1845248999889,301.1845248999889,302.47986269998364,Objects\050b.jpg,post,s,1.2799768999684602,None,,,,,,,,00045,001,2026-01-24_11h54.00.474,MST_test,2024.2.0,60.24568187479153,2026-01-24 11h54.07.563913 +0530,
70,0,71,n,1.7796131999930367,None,71,0,70,302.49566910002613,,,,,,,,,,,,,,,,,,,,,,,,,,,,,,,,,,,,,,,,,,,,,,,,,,302.48021559999324,302.49566910002613,302.99742680002237,302.97947900003055,302.99405620002653,302.99742680002237,302.99742680002237,302.99742680002237,304.77948430000106,Foils\scenes5.jpg,none,n,1.7796131999930367,None,,,,,,,,00045,001,2026-01-24_11h54.00.474,MST_test,2024.2.0,60.24568187479153,2026-01-24 11h54.07.563913 +0530,
71,0,72,s,1.3775307000032626,None,72,0,71,304.7956800000393,,,,,,,,,,,,,,,,,,,,,,,,,,,,,,,,,,,,,,,,,,,,,,,,,,304.77983439998934,304.7956800000393,305.34325780003564,305.2797290000017,305.3405250000069,305.34325780003564,305.34325780003564,305.34325780003564,306.7295169000281,Scenes\114b.jpg,pre,s,1.3775307000032626,None,,,,,,,,00045,001,2026-01-24_11h54.00.474,MST_test,2024.2.0,60.24568187479153,2026-01-24 11h54.07.563913 +0530,
72,0,73,s,3.730656099971384,None,73,0,72,306.74576840002555,,,,,,,,,,,,,,,,,,,,,,,,,,,,,,,,,,,,,,,,,,,,,,,,,,306.7298702999833,306.74576840002555,307.24659870000323,307.22927559999516,307.2396598000196,307.24659870000323,307.24659870000323,307.24659870000323,310.9795124999946,Objects\008a.jpg,mid,s,3.730656099971384,None,,,,,,,,00045,001,2026-01-24_11h54.00.474,MST_test,2024.2.0,60.24568187479153,2026-01-24 11h54.07.563913 +0530,
73,0,74,s,1.4434955000178888,None,74,0,73,310.99576010002056,,,,,,,,,,,,,,,,,,,,,,,,,,,,,,,,,,,,,,,,,,,,,,,,,,310.9798858999857,310.99576010002056,311.51709989999654,311.47942520002834,311.5143761000363,311.51709989999654,311.51709989999654,311.51709989999654,312.9627344000037,Scenes\004b.jpg,post,s,1.4434955000178888,None,,,,,,,,00045,001,2026-01-24_11h54.00.474,MST_test,2024.2.0,60.24568187479153,2026-01-24 11h54.07.563913 +0530,
74,0,75,n,3.253129699965939,None,75,0,74,312.9789500000188,,,,,,,,,,,,,,,,,,,,,,,,,,,,,,,,,,,,,,,,,,,,,,,,,,312.9630865000072,312.9789500000188,313.50005630002124,313.46251300000586,313.49657479999587,313.50005630002124,313.50005630002124,313.50005630002124,316.7630563999992,Foils\scenes1.jpg,none,n,3.253129699965939,None,,,,,,,,00045,001,2026-01-24_11h54.00.474,MST_test,2024.2.0,60.24568187479153,2026-01-24 11h54.07.563913 +0530,
75,0,76,o,1.3591555000166409,None,76,0,75,316.77896960004,,,,,,,,,,,,,,,,,,,,,,,,,,,,,,,,,,,,,,,,,,,,,,,,,,316.76354190002894,316.77896960004,317.2821004000143,317.26274810003815,317.2799025999848,317.2821004000143,317.2821004000143,317.2821004000143,318.6464502000017,Scenes\127a.jpg,mid,o,1.3591555000166409,None,,,,,,,,00045,001,2026-01-24_11h54.00.474,MST_test,2024.2.0,60.24568187479153,2026-01-24 11h54.07.563913 +0530,
76,0,77,s,1.2537269000313245,None,77,0,76,318.66295810003066,,,,,,,,,,,,,,,,,,,,,,,,,,,,,,,,,,,,,,,,,,,,,,,,,,318.6468274000217,318.66295810003066,319.178816700005,319.14614299999084,319.1763055000338,319.178816700005,319.178816700005,319.178816700005,320.4461479000165,Objects\026b.jpg,mid,s,1.2537269000313245,None,,,,,,,,00045,001,2026-01-24_11h54.00.474,MST_test,2024.2.0,60.24568187479153,2026-01-24 11h54.07.563913 +0530,
77,0,78,n,3.6800520999822766,None,78,0,77,320.4623285999987,,,,,,,,,,,,,,,,,,,,,,,,,,,,,,,,,,,,,,,,,,,,,,,,,,320.4464527000091,320.4623285999987,320.984420599998,320.94615580001846,320.9817010000115,320.984420599998,320.984420599998,320.984420599998,324.679743900022,Objects\075b.jpg,post,n,3.6800520999822766,None,,,,,,,,00045,001,2026-01-24_11h54.00.474,MST_test,2024.2.0,60.24568187479153,2026-01-24 11h54.07.563913 +0530,
78,0,79,o,1.1545520999934524,None,79,0,78,324.69590069999686,,,,,,,,,,,,,,,,,,,,,,,,,,,,,,,,,,,,,,,,,,,,,,,,,,324.6801240000059,324.69590069999686,325.19865330000175,325.1792014000239,325.19616799999494,325.19865330000175,325.19865330000175,325.19865330000175,326.36290230002487,Scenes\072a.jpg,pre,o,1.1545520999934524,None,,,,,,,,00045,001,2026-01-24_11h54.00.474,MST_test,2024.2.0,60.24568187479153,2026-01-24 11h54.07.563913 +0530,
79,0,80,o,0.8123410000116564,None,80,0,79,326.37907020002604,,,,,,,,,,,,,,,,,,,,,,,,,,,,,,,,,,,,,,,,,,,,,,,,,,326.36328320001485,326.37907020002604,326.88419730000896,326.8627354000346,326.88164340000367,326.88419730000896,326.88419730000896,326.88419730000896,327.71369150001556,Scenes\047a.jpg,mid,o,0.8123410000116564,None,,,,,,,,00045,001,2026-01-24_11h54.00.474,MST_test,2024.2.0,60.24568187479153,2026-01-24 11h54.07.563913 +0530,
80,0,81,n,2.5087250000215136,None,81,0,80,327.7286921000341,,,,,,,,,,,,,,,,,,,,,,,,,,,,,,,,,,,,,,,,,,,,,,,,,,327.71404880000046,327.7286921000341,328.2440445999964,328.21272260003025,328.24174910003785,328.2440445999964,328.2440445999964,328.2440445999964,330.7628553999821,Foils\097a.jpg,none,n,2.5087250000215136,None,,,,,,,,00045,001,2026-01-24_11h54.00.474,MST_test,2024.2.0,60.24568187479153,2026-01-24 11h54.07.563913 +0530,
81,0,82,s,1.5486425999552011,None,82,0,81,330.77890999999363,,,,,,,,,,,,,,,,,,,,,,,,,,,,,,,,,,,,,,,,,,,,,,,,,,330.7632223999826,330.77890999999363,331.29252260003705,331.2625284999958,331.29060180002125,331.29252260003705,331.29252260003705,331.29252260003705,332.8463772999821,Objects\101b.jpg,post,s,1.5486425999552011,None,,,,,,,,00045,001,2026-01-24_11h54.00.474,MST_test,2024.2.0,60.24568187479153,2026-01-24 11h54.07.563913 +0530,
82,0,83,s,1.8066074999514967,None,83,0,82,332.8632070000167,,,,,,,,,,,,,,,,,,,,,,,,,,,,,,,,,,,,,,,,,,,,,,,,,,332.8467287000385,332.8632070000167,333.386596700002,333.3461544000311,333.38470779999625,333.386596700002,333.386596700002,333.386596700002,335.19649890001165,Objects\138b.jpg,mid,s,1.8066074999514967,None,,,,,,,,00045,001,2026-01-24_11h54.00.474,MST_test,2024.2.0,60.24568187479153,2026-01-24 11h54.07.563913 +0530,
83,0,84,n,1.452383900003042,None,84,0,83,335.2119979999843,,,,,,,,,,,,,,,,,,,,,,,,,,,,,,,,,,,,,,,,,,,,,,,,,,335.1968723000027,335.2119979999843,335.72468889999436,335.69658580003306,335.7227341000107,335.72468889999436,335.72468889999436,335.72468889999436,337.1794484999846,Foils\098a.jpg,none,n,1.452383900003042,None,,,,,,,,00045,001,2026-01-24_11h54.00.474,MST_test,2024.2.0,60.24568187479153,2026-01-24 11h54.07.563913 +0530,
84,0,85,n,1.4885295000276528,None,85,0,84,337.1957425000146,,,,,,,,,,,,,,,,,,,,,,,,,,,,,,,,,,,,,,,,,,,,,,,,,,337.1797980000265,337.1957425000146,337.71262270002626,337.6793889999972,337.71019820001675,337.71262270002626,337.71262270002626,337.71262270002626,339.2130260000122,Foils\049a.jpg,none,n,1.4885295000276528,None,,,,,,,,00045,001,2026-01-24_11h54.00.474,MST_test,2024.2.0,60.24568187479153,2026-01-24 11h54.07.563913 +0530,
85,0,86,n,1.0174285999964923,None,86,0,85,339.2290802000207,,,,,,,,,,,,,,,,,,,,,,,,,,,,,,,,,,,,,,,,,,,,,,,,,,339.21339679998346,339.2290802000207,339.74337129999185,339.7125329999835,339.7410865999991,339.74337129999185,339.74337129999185,339.74337129999185,340.762601000024,Foils\scenes2.jpg,none,n,1.0174285999964923,None,,,,,,,,00045,001,2026-01-24_11h54.00.474,MST_test,2024.2.0,60.24568187479153,2026-01-24 11h54.07.563913 +0530,
86,0,87,n,1.3175819999887608,None,87,0,86,340.7788910000236,,,,,,,,,,,,,,,,,,,,,,,,,,,,,,,,,,,,,,,,,,,,,,,,,,340.76294660003623,340.7788910000236,341.2989397000056,341.2624514999916,341.29660400003195,341.2989397000056,341.2989397000056,341.2989397000056,342.6295536000398,Scenes\140b.jpg,pre,n,1.3175819999887608,None,,,,,,,,00045,001,2026-01-24_11h54.00.474,MST_test,2024.2.0,60.24568187479153,2026-01-24 11h54.07.563913 +0530,
87,0,88,n,1.4561412999755703,None,88,0,87,342.64632619998883,,,,,,,,,,,,,,,,,,,,,,,,,,,,,,,,,,,,,,,,,,,,,,,,,,342.62993140000617,342.64632619998883,343.1521053999895,343.12946339999326,343.1493591000326,343.1521053999895,343.1521053999895,343.1521053999895,344.6120474000345,Foils\scenes16.jpg,none,n,1.4561412999755703,None,,,,,,,,00045,001,2026-01-24_11h54.00.474,MST_test,2024.2.0,60.24568187479153,2026-01-24 11h54.07.563913 +0530,
88,0,89,s,3.6084003999712877,None,89,0,88,344.628699199995,,,,,,,,,,,,,,,,,,,,,,,,,,,,,,,,,,,,,,,,,,,,,,,,,,344.61220090003917,344.628699199995,,345.1126125000301,345.13486230000854,345.13704150001286,345.13704150001286,345.13704150001286,348.7465463000117,Foils\050a.jpg,none,s,3.6084003999712877,None,,,,,,,,00045,001,2026-01-24_11h54.00.474,MST_test,2024.2.0,60.24568187479153,2026-01-24 11h54.07.563913 +0530,
89,0,90,n,2.560218899976462,None,90,0,89,348.76203119999263,,,,,,,,,,,,,,,,,,,,,,,,,,,,,,,,,,,,,,,,,,,,,,,,,,348.746896800003,348.76203119999263,349.26447739999276,349.24614330002805,349.26207930000965,349.26447739999276,349.26447739999276,349.26447739999276,351.82975979999173,Scenes\112a.jpg,pre,n,2.560218899976462,None,,,,,,,,00045,001,2026-01-24_11h54.00.474,MST_test,2024.2.0,60.24568187479153,2026-01-24 11h54.07.563913 +0530,
90,0,91,s,1.275848000019323,None,91,0,90,351.8455257000169,,,,,,,,,,,,,,,,,,,,,,,,,,,,,,,,,,,,,,,,,,,,,,,,,,351.83010960003594,351.8455257000169,352.3648207000224,352.329272700008,352.3624895000248,352.3648207000224,352.3648207000224,352.3648207000224,353.64618179999525,Objects\135b.jpg,mid,s,1.275848000019323,None,,,,,,,,00045,001,2026-01-24_11h54.00.474,MST_test,2024.2.0,60.24568187479153,2026-01-24 11h54.07.563913 +0530,
91,0,92,o,0.9908037999994121,None,92,0,91,353.66208259999985,,,,,,,,,,,,,,,,,,,,,,,,,,,,,,,,,,,,,,,,,,,,,,,,,,353.646515200031,353.66208259999985,354.16233070002636,354.14578469999833,354.1529454999836,354.16233070002636,354.16233070002636,354.16233070002636,355.16301200003363,Objects\141a.jpg,mid,o,0.9908037999994121,None,,,,,,,,00045,001,2026-01-24_11h54.00.474,MST_test,2024.2.0,60.24568187479153,2026-01-24 11h54.07.563913 +0530,
92,0,93,s,1.184970100002829,None,93,0,92,355.17911170003936,,,,,,,,,,,,,,,,,,,,,,,,,,,,,,,,,,,,,,,,,,,,,,,,,,355.16335610003443,355.17911170003936,355.7279145999928,355.6627320999978,355.72553029999835,355.7279145999928,355.7279145999928,355.7279145999928,356.9297428000136,Objects\079b.jpg,mid,s,1.184970100002829,None,,,,,,,,00045,001,2026-01-24_11h54.00.474,MST_test,2024.2.0,60.24568187479153,2026-01-24 11h54.07.563913 +0530,
93,0,94,o,1.779336899984628,None,94,0,93,356.9456881000078,,,,,,,,,,,,,,,,,,,,,,,,,,,,,,,,,,,,,,,,,,,,,,,,,,356.93010390002746,356.9456881000078,357.4459217999829,357.42954789998475,357.43803359998856,357.4459217999829,357.4459217999829,357.4459217999829,359.229724200035,Objects\054a.jpg,pre,o,1.779336899984628,None,,,,,,,,00045,001,2026-01-24_11h54.00.474,MST_test,2024.2.0,60.24568187479153,2026-01-24 11h54.07.563913 +0530,
94,0,95,n,1.3676782999536954,None,95,0,94,359.2456886,,,,,,,,,,,,,,,,,,,,,,,,,,,,,,,,,,,,,,,,,,,,,,,,,,359.2300651000114,359.2456886,359.75345030002063,359.72946300002513,359.75101870001527,359.75345030002063,359.75345030002063,359.75345030002063,361.1297262000153,Foils\scenes19.jpg,none,n,1.3676782999536954,None,,,,,,,,00045,001,2026-01-24_11h54.00.474,MST_test,2024.2.0,60.24568187479153,2026-01-24 11h54.07.563913 +0530,
95,0,96,o,1.2910897000110708,None,96,0,95,361.14566229999764,,,,,,,,,,,,,,,,,,,,,,,,,,,,,,,,,,,,,,,,,,,,,,,,,,361.13006880000466,361.14566229999764,361.646060900006,361.6294741000165,361.6383334000129,361.646060900006,361.646060900006,361.646060900006,362.94717880000826,Objects\158a.jpg,post,o,1.2910897000110708,None,,,,,,,,00045,001,2026-01-24_11h54.00.474,MST_test,2024.2.0,60.24568187479153,2026-01-24 11h54.07.563913 +0530,
96,0,97,o,1.1210834000376053,None,97,0,96,362.9628937999951,,,,,,,,,,,,,,,,,,,,,,,,,,,,,,,,,,,,,,,,,,,,,,,,,,362.9475241000182,362.9628937999951,363.4640858999919,363.4468300000299,363.4614200000069,363.4640858999919,363.4640858999919,363.4640858999919,364.5965797000099,Scenes\175a.jpg,post,o,1.1210834000376053,None,,,,,,,,00045,001,2026-01-24_11h54.00.474,MST_test,2024.2.0,60.24568187479153,2026-01-24 11h54.07.563913 +0530,
97,0,98,s,2.553743700031191,None,98,0,97,364.6124971000245,,,,,,,,,,,,,,,,,,,,,,,,,,,,,,,,,,,,,,,,,,,,,,,,,,364.59700290003093,364.6124971000245,365.14283620001515,365.09608019998996,365.1404434000142,365.14283620001515,365.14283620001515,365.14283620001515,367.7129054000252,Scenes\176b.jpg,pre,s,2.553743700031191,None,,,,,,,,00045,001,2026-01-24_11h54.00.474,MST_test,2024.2.0,60.24568187479153,2026-01-24 11h54.07.563913 +0530,
98,0,99,s,3.851162300037686,None,99,0,98,367.72914810001384,,,,,,,,,,,,,,,,,,,,,,,,,,,,,,,,,,,,,,,,,,,,,,,,,,367.7132750999881,367.72914810001384,368.2295427999925,368.21282170002814,368.2208210999961,368.2295427999925,368.2295427999925,368.2295427999925,372.09632650000276,Objects\051a.jpg,pre,s,3.851162300037686,None,,,,,,,,00045,001,2026-01-24_11h54.00.474,MST_test,2024.2.0,60.24568187479153,2026-01-24 11h54.07.563913 +0530,
99,0,100,o,1.3022138000233099,None,100,0,99,372.11228579998715,,,,,,,,,,,,,,,,,,,,,,,,,,,,,,,,,,,,,,,,,,,,,,,,,,372.09666989999823,372.11228579998715,372.61879020003835,372.59608799999114,372.61614390002796,372.61879020003835,372.61879020003835,372.61879020003835,373.93030110001564,Scenes\024a.jpg,post,o,1.3022138000233099,None,,,,,,,,00045,001,2026-01-24_11h54.00.474,MST_test,2024.2.0,60.24568187479153,2026-01-24 11h54.07.563913 +0530,
100,0,101,o,1.1340259999851696,None,101,0,100,373.9456718000001,,,,,,,,,,,,,,,,,,,,,,,,,,,,,,,,,,,,,,,,,,,,,,,,,,373.93064540001797,373.9456718000001,374.4507559000049,374.42947989999084,374.44758550002007,374.4507559000049,374.4507559000049,374.4507559000049,375.59634200000437,Scenes\059a.jpg,post,o,1.1340259999851696,None,,,,,,,,00045,001,2026-01-24_11h54.00.474,MST_test,2024.2.0,60.24568187479153,2026-01-24 11h54.07.563913 +0530,
101,0,102,s,1.7492141999537125,None,102,0,101,375.6122778999852,,,,,,,,,,,,,,,,,,,,,,,,,,,,,,,,,,,,,,,,,,,,,,,,,,375.59678160003386,375.6122778999852,376.1475061000092,376.09609030000865,376.144786400022,376.1475061000092,376.1475061000092,376.1475061000092,377.9130040000309,Scenes\145b.jpg,mid,s,1.7492141999537125,None,,,,,,,,00045,001,2026-01-24_11h54.00.474,MST_test,2024.2.0,60.24568187479153,2026-01-24 11h54.07.563913 +0530,
102,0,103,s,1.4671417000354268,None,103,0,102,377.9290731000365,,,,,,,,,,,,,,,,,,,,,,,,,,,,,,,,,,,,,,,,,,,,,,,,,,377.9133562000352,377.9290731000365,378.46140640001977,378.41261579998536,378.4586483000312,378.46140640001977,378.46140640001977,378.46140640001977,379.9298683000379,Scenes\044b.jpg,post,s,1.4671417000354268,None,,,,,,,,00045,001,2026-01-24_11h54.00.474,MST_test,2024.2.0,60.24568187479153,2026-01-24 11h54.07.563913 +0530,
103,0,104,o,1.5941796000115573,None,104,0,103,379.9457414000062,,,,,,,,,,,,,,,,,,,,,,,,,,,,,,,,,,,,,,,,,,,,,,,,,,379.9302439999883,379.9457414000062,380.44631750002736,380.42940610001097,380.440407600021,380.44631750002736,380.44631750002736,380.44631750002736,382.0463878000155,Objects\037a.jpg,post,o,1.5941796000115573,None,,,,,,,,00045,001,2026-01-24_11h54.00.474,MST_test,2024.2.0,60.24568187479153,2026-01-24 11h54.07.563913 +0530,
104,0,105,s,1.1064462999929674,None,105,0,104,382.06208390003303,,,,,,,,,,,,,,,,,,,,,,,,,,,,,,,,,,,,,,,,,,,,,,,,,,382.04673340002773,382.06208390003303,382.5742821000167,382.54615509998985,382.57223390002036,382.5742821000167,382.5742821000167,382.5742821000167,383.69638480001595,Objects\102b.jpg,post,s,1.1064462999929674,None,,,,,,,,00045,001,2026-01-24_11h54.00.474,MST_test,2024.2.0,60.24568187479153,2026-01-24 11h54.07.563913 +0530,
105,0,106,s,2.276108000020031,None,106,0,105,383.71240720001515,,,,,,,,,,,,,,,,,,,,,,,,,,,,,,,,,,,,,,,,,,,,,,,,,,383.69673180003883,383.71240720001515,384.21269800001755,384.19614110002294,384.2046248000115,384.21269800001755,384.21269800001755,384.21269800001755,386.4962140999851,Objects\082a.jpg,mid,s,2.276108000020031,None,,,,,,,,00045,001,2026-01-24_11h54.00.474,MST_test,2024.2.0,60.24568187479153,2026-01-24 11h54.07.563913 +0530,
106,0,107,o,1.3325591000029817,None,107,0,106,386.5120786000043,,,,,,,,,,,,,,,,,,,,,,,,,,,,,,,,,,,,,,,,,,,,,,,,,,386.496586400026,386.5120786000043,387.0126396000269,386.9962145999889,387.0044380000327,387.0126396000269,387.0126396000269,387.0126396000269,388.34656710003037,Objects\003a.jpg,post,o,1.3325591000029817,None,,,,,,,,00045,001,2026-01-24_11h54.00.474,MST_test,2024.2.0,60.24568187479153,2026-01-24 11h54.07.563913 +0530,
107,0,108,o,3.0547209000214934,None,108,0,107,388.362091100018,,,,,,,,,,,,,,,,,,,,,,,,,,,,,,,,,,,,,,,,,,,,,,,,,,388.3469090000144,388.362091100018,388.8979718000046,388.84664709999925,388.8951329999836,388.8979718000046,388.8979718000046,388.8979718000046,391.96273840003414,Scenes\066b.jpg,mid,o,3.0547209000214934,None,,,,,,,,00045,001,2026-01-24_11h54.00.474,MST_test,2024.2.0,60.24568187479153,2026-01-24 11h54.07.563913 +0530,
108,0,109,s,1.2637986000045203,None,109,0,108,391.9793700000155,,,,,,,,,,,,,,,,,,,,,,,,,,,,,,,,,,,,,,,,,,,,,,,,,,391.96308509999653,391.9793700000155,392.4886753000319,392.4628238999867,392.48608270002296,392.4886753000319,392.4886753000319,392.4886753000319,393.7632900000317,Objects\027b.jpg,mid,s,1.2637986000045203,None,,,,,,,,00045,001,2026-01-24_11h54.00.474,MST_test,2024.2.0,60.24568187479153,2026-01-24 11h54.07.563913 +0530,
109,0,110,s,2.3325342999887653,None,110,0,109,393.77907990000676,,,,,,,,,,,,,,,,,,,,,,,,,,,,,,,,,,,,,,,,,,,,,,,,,,393.76366009999765,393.77907990000676,394.3483621000196,394.2628134000115,394.34574650001014,394.3483621000196,394.3483621000196,394.3483621000196,396.69632729998557,Scenes\009b.jpg,mid,s,2.3325342999887653,None,,,,,,,,00045,001,2026-01-24_11h54.00.474,MST_test,2024.2.0,60.24568187479153,2026-01-24 11h54.07.563913 +0530,
110,0,111,s,2.0674002000014298,None,111,0,110,396.71242060000077,,,,,,,,,,,,,,,,,,,,,,,,,,,,,,,,,,,,,,,,,,,,,,,,,,396.6967001000303,396.71242060000077,397.22904509998625,397.19613719999325,397.226519000018,397.22904509998625,397.22904509998625,397.22904509998625,399.31304740003543,Objects\057b.jpg,mid,s,2.0674002000014298,None,,,,,,,,00045,001,2026-01-24_11h54.00.474,MST_test,2024.2.0,60.24568187479153,2026-01-24 11h54.07.563913 +0530,
111,0,112,o,4.1856307000271045,None,112,0,111,399.32900120003615,,,,,,,,,,,,,,,,,,,,,,,,,,,,,,,,,,,,,,,,,,,,,,,,,,399.3133986000321,399.32900120003615,,399.81367320002755,399.8277885999996,399.8315711999894,399.8315711999894,399.8315711999894,404.0297040999867,Scenes\120a.jpg,mid,o,4.1856307000271045,None,,,,,,,,00045,001,2026-01-24_11h54.00.474,MST_test,2024.2.0,60.24568187479153,2026-01-24 11h54.07.563913 +0530,
112,0,113,o,1.0703147000167519,None,113,0,112,404.0453073999961,,,,,,,,,,,,,,,,,,,,,,,,,,,,,,,,,,,,,,,,,,,,,,,,,,404.0300518000149,404.0453073999961,404.54630540002836,404.5290791000007,404.5359743000008,404.54630540002836,404.54630540002836,404.54630540002836,405.6296333000064,Objects\001a.jpg,pre,o,1.0703147000167519,None,,,,,,,,00045,001,2026-01-24_11h54.00.474,MST_test,2024.2.0,60.24568187479153,2026-01-24 11h54.07.563913 +0530,
113,0,114,n,2.730644299997948,None,114,0,113,405.64539499999955,,,,,,,,,,,,,,,,,,,,,,,,,,,,,,,,,,,,,,,,,,,,,,,,,,405.62998239998706,405.64539499999955,406.15007229999173,406.12896850000834,406.1472070000018,406.15007229999173,406.15007229999173,406.15007229999173,408.8962150000152,Foils\scenes6.jpg,none,n,2.730644299997948,None,,,,,,,,00045,001,2026-01-24_11h54.00.474,MST_test,2024.2.0,60.24568187479153,2026-01-24 11h54.07.563913 +0530,
114,0,115,s,1.57138679997297,None,115,0,114,408.9123454000219,,,,,,,,,,,,,,,,,,,,,,,,,,,,,,,,,,,,,,,,,,,,,,,,,,408.8966769000399,408.9123454000219,409.4857819000026,409.395988400036,409.4836115000071,409.4857819000026,409.4857819000026,409.4857819000026,411.0634904000326,Scenes\012b.jpg,mid,s,1.57138679997297,None,,,,,,,,00045,001,2026-01-24_11h54.00.474,MST_test,2024.2.0,60.24568187479153,2026-01-24 11h54.07.563913 +0530,
115,0,116,o,1.8931375000393018,None,116,0,115,411.0791112000006,,,,,,,,,,,,,,,,,,,,,,,,,,,,,,,,,,,,,,,,,,,,,,,,,,411.06383850000566,411.0791112000006,411.57934039999964,411.56256560003385,411.56923269998515,411.57934039999964,411.57934039999964,411.57934039999964,413.47956830001203,Objects\004a.jpg,pre,o,1.8931375000393018,None,,,,,,,,00045,001,2026-01-24_11h54.00.474,MST_test,2024.2.0,60.24568187479153,2026-01-24 11h54.07.563913 +0530,
116,0,117,o,1.4688528000260703,None,117,0,116,413.4962415000191,,,,,,,,,,,,,,,,,,,,,,,,,,,,,,,,,,,,,,,,,,,,,,,,,,413.4798670000164,413.4962415000191,413.9957730000024,413.9794854000211,413.99350949999643,413.9957730000024,413.9957730000024,413.9957730000024,415.47981400002027,Scenes\075a.jpg,pre,o,1.4688528000260703,None,,,,,,,,00045,001,2026-01-24_11h54.00.474,MST_test,2024.2.0,60.24568187479153,2026-01-24 11h54.07.563913 +0530,
117,0,118,s,1.001301100011915,None,118,0,117,415.4957062000176,,,,,,,,,,,,,,,,,,,,,,,,,,,,,,,,,,,,,,,,,,,,,,,,,,415.48019490001025,415.4957062000176,416.0154097999912,415.9794797000359,416.01218279998284,416.0154097999912,416.0154097999912,416.0154097999912,417.029817200033,Objects\112b.jpg,pre,s,1.001301100011915,None,,,,,,,,00045,001,2026-01-24_11h54.00.474,MST_test,2024.2.0,60.24568187479153,2026-01-24 11h54.07.563913 +0530,
118,0,119,s,2.3070325999869965,None,119,0,118,417.0454486000235,,,,,,,,,,,,,,,,,,,,,,,,,,,,,,,,,,,,,,,,,,,,,,,,,,417.03020129998913,417.0454486000235,417.5655848000315,417.5291435000254,417.56354280002415,417.5655848000315,417.5655848000315,417.5655848000315,419.8806115000043,Objects\052b.jpg,pre,s,2.3070325999869965,None,,,,,,,,00045,001,2026-01-24_11h54.00.474,MST_test,2024.2.0,60.24568187479153,2026-01-24 11h54.07.563913 +0530,
119,0,120,n,4.900721199985128,None,120,0,119,419.89567370002624,,,,,,,,,,,,,,,,,,,,,,,,,,,,,,,,,,,,,,,,,,,,,,,,,,419.8809551000013,419.89567370002624,420.41997630003607,420.37948410003446,420.4175302000367,420.41997630003607,420.41997630003607,420.41997630003607,425.3295605999883,Scenes\184b.jpg,post,n,4.900721199985128,None,,,,,,,,00045,001,2026-01-24_11h54.00.474,MST_test,2024.2.0,60.24568187479153,2026-01-24 11h54.07.563913 +0530,
120,0,121,o,1.639795899973251,None,121,0,120,425.34568570001284,,,,,,,,,,,,,,,,,,,,,,,,,,,,,,,,,,,,,,,,,,,,,,,,,,425.3299060999998,425.34568570001284,425.8567179000238,425.82924600003753,425.8541739000357,425.8567179000238,425.8567179000238,425.8567179000238,427.5127785000368,Scenes\003a.jpg,pre,o,1.639795899973251,None,,,,,,,,00045,001,2026-01-24_11h54.00.474,MST_test,2024.2.0,60.24568187479153,2026-01-24 11h54.07.563913 +0530,
121,0,122,s,1.3389359000138938,None,122,0,121,427.5288439000142,,,,,,,,,,,,,,,,,,,,,,,,,,,,,,,,,,,,,,,,,,,,,,,,,,427.5131255000015,427.5288439000142,428.0456375000067,428.0125800000387,428.04318259999854,428.0456375000067,428.0456375000067,428.0456375000067,429.39591070002643,Objects\095b.jpg,pre,s,1.3389359000138938,None,,,,,,,,00045,001,2026-01-24_11h54.00.474,MST_test,2024.2.0,60.24568187479153,2026-01-24 11h54.07.563913 +0530,
122,0,123,o,1.5427313999971375,None,123,0,122,429.4124302000273,,,,,,,,,,,,,,,,,,,,,,,,,,,,,,,,,,,,,,,,,,,,,,,,,,429.39625170000363,429.4124302000273,429.91386420000345,429.89566849998664,429.91142960003344,429.91386420000345,429.91386420000345,429.91386420000345,431.46401699999114,Scenes\020a.jpg,mid,o,1.5427313999971375,None,,,,,,,,00045,001,2026-01-24_11h54.00.474,MST_test,2024.2.0,60.24568187479153,2026-01-24 11h54.07.563913 +0530,
123,0,124,n,2.7239270000136457,None,124,0,123,431.4795490000397,,,,,,,,,,,,,,,,,,,,,,,,,,,,,,,,,,,,,,,,,,,,,,,,,,431.46436650003307,431.4795490000397,432.0046754000359,431.9628366000252,432.0020796000026,432.0046754000359,432.0046754000359,432.0046754000359,434.73010019998765,Scenes\084b.jpg,mid,n,2.7239270000136457,None,,,,,,,,00045,001,2026-01-24_11h54.00.474,MST_test,2024.2.0,60.24568187479153,2026-01-24 11h54.07.563913 +0530,
124,0,125,o,2.3062785000074655,None,125,0,124,434.74572990002343,,,,,,,,,,,,,,,,,,,,,,,,,,,,,,,,,,,,,,,,,,,,,,,,,,434.73044740001205,434.74572990002343,435.24620049999794,435.2291407000157,435.23737610003445,435.24620049999794,435.24620049999794,435.24620049999794,437.5629639000399,Objects\044a.jpg,pre,o,2.3062785000074655,None,,,,,,,,00045,001,2026-01-24_11h54.00.474,MST_test,2024.2.0,60.24568187479153,2026-01-24 11h54.07.563913 +0530,
125,0,126,s,3.021871100005228,None,126,0,125,437.5789165000315,,,,,,,,,,,,,,,,,,,,,,,,,,,,,,,,,,,,,,,,,,,,,,,,,,437.56333840003936,437.5789165000315,438.1152419000282,438.06282819999615,438.1127063999884,438.1152419000282,438.1152419000282,438.1152419000282,441.1464971000096,Scenes\086b.jpg,pre,s,3.021871100005228,None,,,,,,,,00045,001,2026-01-24_11h54.00.474,MST_test,2024.2.0,60.24568187479153,2026-01-24 11h54.07.563913 +0530,
126,0,127,s,2.194449899950996,None,127,0,126,441.1623401000397,,,,,,,,,,,,,,,,,,,,,,,,,,,,,,,,,,,,,,,,,,,,,,,,,,441.14686849998543,441.1623401000397,441.66266500001075,441.64629589999095,441.6576926999842,441.66266500001075,441.66266500001075,441.66266500001075,443.8630651999847,Objects\096a.jpg,mid,s,2.194449899950996,None,,,,,,,,00045,001,2026-01-24_11h54.00.474,MST_test,2024.2.0,60.24568187479153,2026-01-24 11h54.07.563913 +0530,
127,0,128,o,1.1266143000102602,None,128,0,127,443.87911099998746,,,,,,,,,,,,,,,,,,,,,,,,,,,,,,,,,,,,,,,,,,,,,,,,,,443.8634504000074,443.87911099998746,444.3944422000204,444.3624251000001,444.3921077999985,444.3944422000204,444.3944422000204,444.3944422000204,445.5297433999949,Objects\149b.jpg,post,o,1.1266143000102602,None,,,,,,,,00045,001,2026-01-24_11h54.00.474,MST_test,2024.2.0,60.24568187479153,2026-01-24 11h54.07.563913 +0530,
128,0,129,n,3.10058599995682,None,129,0,128,445.54531300003873,,,,,,,,,,,,,,,,,,,,,,,,,,,,,,,,,,,,,,,,,,,,,,,,,,445.5300902000163,445.54531300003873,446.0685193000245,446.0295119000366,446.0661734000314,446.0685193000245,446.0685193000245,446.0685193000245,449.17959040001733,Scenes\121b.jpg,post,n,3.10058599995682,None,,,,,,,,00045,001,2026-01-24_11h54.00.474,MST_test,2024.2.0,60.24568187479153,2026-01-24 11h54.07.563913 +0530,
129,0,130,s,1.3056710999808274,None,130,0,129,449.19559519999893,,,,,,,,,,,,,,,,,,,,,,,,,,,,,,,,,,,,,,,,,,,,,,,,,,449.1799679999822,449.19559519999893,449.718796000001,449.67948739998974,449.71589019999374,449.718796000001,449.718796000001,449.718796000001,451.03083360003075,Objects\068b.jpg,post,s,1.3056710999808274,None,,,,,,,,00045,001,2026-01-24_11h54.00.474,MST_test,2024.2.0,60.24568187479153,2026-01-24 11h54.07.563913 +0530,
130,0,131,n,2.5140647999942303,None,131,0,130,451.0457607000135,,,,,,,,,,,,,,,,,,,,,,,,,,,,,,,,,,,,,,,,,,,,,,,,,,451.0311938000377,451.0457607000135,451.58272140001645,451.529127900023,451.580203599995,451.58272140001645,451.58272140001645,451.58272140001645,454.1130844000145,Scenes\025b.jpg,post,n,2.5140647999942303,None,,,,,,,,00045,001,2026-01-24_11h54.00.474,MST_test,2024.2.0,60.24568187479153,2026-01-24 11h54.07.563913 +0530,
131,0,132,n,2.9166328000137582,None,132,0,131,454.12896609999007,,,,,,,,,,,,,,,,,,,,,,,,,,,,,,,,,,,,,,,,,,,,,,,,,,454.1134538000333,454.12896609999007,454.6684311000281,454.61281520000193,454.6657064000028,454.6684311000281,454.6684311000281,454.6684311000281,457.5964742000215,Scenes\174b.jpg,mid,n,2.9166328000137582,None,,,,,,,,00045,001,2026-01-24_11h54.00.474,MST_test,2024.2.0,60.24568187479153,2026-01-24 11h54.07.563913 +0530,
132,0,133,o,3.408367800002452,None,133,0,132,457.61221210000804,,,,,,,,,,,,,,,,,,,,,,,,,,,,,,,,,,,,,,,,,,,,,,,,,,457.59682899998734,457.61221210000804,458.11268140003085,458.09613379999064,458.10687010001857,458.11268140003085,458.11268140003085,458.11268140003085,461.5294205000391,Objects\107a.jpg,pre,o,3.408367800002452,None,,,,,,,,00045,001,2026-01-24_11h54.00.474,MST_test,2024.2.0,60.24568187479153,2026-01-24 11h54.07.563913 +0530,
133,0,134,s,1.0692134000128135,None,134,0,133,461.54535620001843,,,,,,,,,,,,,,,,,,,,,,,,,,,,,,,,,,,,,,,,,,,,,,,,,,461.52976559998933,461.54535620001843,462.0592057000031,462.029479800025,462.0569464000291,462.0592057000031,462.0592057000031,462.0592057000031,463.12968070001807,Objects\063b.jpg,mid,s,1.0692134000128135,None,,,,,,,,00045,001,2026-01-24_11h54.00.474,MST_test,2024.2.0,60.24568187479153,2026-01-24 11h54.07.563913 +0530,
134,0,135,s,2.2328023000154644,None,135,0,134,463.14601259998744,,,,,,,,,,,,,,,,,,,,,,,,,,,,,,,,,,,,,,,,,,,,,,,,,,463.13002410001354,463.14601259998744,463.6799566000118,463.62951490003616,463.67729409999447,463.6799566000118,463.6799566000118,463.6799566000118,465.9299619999947,Scenes\170b.jpg,mid,s,2.2328023000154644,None,,,,,,,,00045,001,2026-01-24_11h54.00.474,MST_test,2024.2.0,60.24568187479153,2026-01-24 11h54.07.563913 +0530,
135,0,136,s,3.6818646999890916,None,136,0,135,465.94576219999,,,,,,,,,,,,,,,,,,,,,,,,,,,,,,,,,,,,,,,,,,,,,,,,,,465.93031090003205,465.94576219999,466.44646790000843,466.4294826000114,466.44137170002796,466.44646790000843,466.44646790000843,466.44646790000843,470.12944759998936,Objects\060a.jpg,pre,s,3.6818646999890916,None,,,,,,,,00045,001,2026-01-24_11h54.00.474,MST_test,2024.2.0,60.24568187479153,2026-01-24 11h54.07.563913 +0530,
136,0,137,o,1.1431358000263572,None,137,0,136,470.14532960002543,,,,,,,,,,,,,,,,,,,,,,,,,,,,,,,,,,,,,,,,,,,,,,,,,,470.1297993999906,470.14532960002543,,470.62982850003755,470.65498390002176,470.65739780000877,470.65739780000877,470.65739780000877,471.8130296000163,Scenes\043a.jpg,post,o,1.1431358000263572,None,,,,,,,,00045,001,2026-01-24_11h54.00.474,MST_test,2024.2.0,60.24568187479153,2026-01-24 11h54.07.563913 +0530,
137,0,138,n,4.842933900014032,None,138,0,137,471.8290525000193,,,,,,,,,,,,,,,,,,,,,,,,,,,,,,,,,,,,,,,,,,,,,,,,,,471.8134000999853,471.8290525000193,472.36618350003846,472.3124996999977,472.3635648000054,472.36618350003846,472.36618350003846,472.36618350003846,477.21409570000833,Foils\scenes27.jpg,none,n,4.842933900014032,None,,,,,,,,00045,001,2026-01-24_11h54.00.474,MST_test,2024.2.0,60.24568187479153,2026-01-24 11h54.07.563913 +0530,
138,0,139,s,1.4828545000054874,None,139,0,138,477.22904310002923,,,,,,,,,,,,,,,,,,,,,,,,,,,,,,,,,,,,,,,,,,,,,,,,,,477.21445159998257,477.22904310002923,477.77400710002985,477.71397769998293,477.7712000000174,477.77400710002985,477.77400710002985,477.77400710002985,479.2628863999853,Scenes\147b.jpg,post,s,1.4828545000054874,None,,,,,,,,00045,001,2026-01-24_11h54.00.474,MST_test,2024.2.0,60.24568187479153,2026-01-24 11h54.07.563913 +0530,
139,0,140,s,1.1037188000045717,None,140,0,139,479.27910530002555,,,,,,,,,,,,,,,,,,,,,,,,,,,,,,,,,,,,,,,,,,,,,,,,,,479.26325940003153,479.27910530002555,479.7853220999823,479.76286820002133,479.78303819999564,479.7853220999823,479.7853220999823,479.7853220999823,480.89618720003637,Foils\113a.jpg,none,s,1.1037188000045717,None,,,,,,,,00045,001,2026-01-24_11h54.00.474,MST_test,2024.2.0,60.24568187479153,2026-01-24 11h54.07.563913 +0530,
140,0,141,o,1.1311168000102043,None,141,0,140,480.9121014000266,,,,,,,,,,,,,,,,,,,,,,,,,,,,,,,,,,,,,,,,,,,,,,,,,,480.8965291000204,480.9121014000266,481.4133078000159,481.3958437999827,481.41099100001156,481.4133078000159,481.4133078000159,481.4133078000159,482.5460727000027,Scenes\107a.jpg,post,o,1.1311168000102043,None,,,,,,,,00045,001,2026-01-24_11h54.00.474,MST_test,2024.2.0,60.24568187479153,2026-01-24 11h54.07.563913 +0530,
141,0,142,n,4.644598499988206,None,142,0,141,482.5620316999848,,,,,,,,,,,,,,,,,,,,,,,,,,,,,,,,,,,,,,,,,,,,,,,,,,482.54645419999724,482.5620316999848,483.09249660000205,483.04600760003086,483.08990130003076,483.09249660000205,483.09249660000205,483.09249660000205,487.7461421000189,Scenes\134b.jpg,post,n,4.644598499988206,None,,,,,,,,00045,001,2026-01-24_11h54.00.474,MST_test,2024.2.0,60.24568187479153,2026-01-24 11h54.07.563913 +0530,
142,0,143,o,1.417423500039149,None,143,0,142,487.76213290001033,,,,,,,,,,,,,,,,,,,,,,,,,,,,,,,,,,,,,,,,,,,,,,,,,,487.7464863000205,487.76213290001033,488.2632572000148,488.24609909998253,488.2534561000066,488.2632572000148,488.2632572000148,488.2632572000148,489.6963267000392,Objects\167a.jpg,mid,o,1.417423500039149,None,,,,,,,,00045,001,2026-01-24_11h54.00.474,MST_test,2024.2.0,60.24568187479153,2026-01-24 11h54.07.563913 +0530,
143,0,144,s,5.808840000012424,None,144,0,143,489.7133478000178,,,,,,,,,,,,,,,,,,,,,,,,,,,,,,,,,,,,,,,,,,,,,,,,,,489.6966742000077,489.7133478000178,490.2396390000358,490.1960917999968,490.23713259998476,490.2396390000358,490.2396390000358,490.2396390000358,496.0627932000207,Scenes\052b.jpg,pre,s,5.808840000012424,None,,,,,,,,00045,001,2026-01-24_11h54.00.474,MST_test,2024.2.0,60.24568187479153,2026-01-24 11h54.07.563913 +0530,
144,0,145,s,1.2926558000035584,None,145,0,144,496.0791232000338,,,,,,,,,,,,,,,,,,,,,,,,,,,,,,,,,,,,,,,,,,,,,,,,,,496.06317390000913,496.0791232000338,496.59639920003247,496.56286700000055,496.59387149999384,496.59639920003247,496.59639920003247,496.59639920003247,497.89615260000573,Objects\180b.jpg,pre,s,1.2926558000035584,None,,,,,,,,00045,001,2026-01-24_11h54.00.474,MST_test,2024.2.0,60.24568187479153,2026-01-24 11h54.07.563913 +0530,
145,0,146,s,1.5181307999882847,None,146,0,145,497.9124468000373,,,,,,,,,,,,,,,,,,,,,,,,,,,,,,,,,,,,,,,,,,,,,,,,,,497.8965191000025,497.9124468000373,498.45095080003375,498.39610780001385,498.44825850002235,498.45095080003375,498.45095080003375,498.45095080003375,499.9801102000056,Scenes\034b.jpg,pre,s,1.5181307999882847,None,,,,,,,,00045,001,2026-01-24_11h54.00.474,MST_test,2024.2.0,60.24568187479153,2026-01-24 11h54.07.563913 +0530,
146,0,147,s,3.0999231000314467,None,147,0,146,499.9957437000121,,,,,,,,,,,,,,,,,,,,,,,,,,,,,,,,,,,,,,,,,,,,,,,,,,499.98054680001223,499.9957437000121,500.5008644000045,500.479555500031,500.4979893999989,500.5008644000045,500.5008644000045,500.5008644000045,503.6127395000076,Scenes\001a.jpg,post,s,3.0999231000314467,None,,,,,,,,00045,001,2026-01-24_11h54.00.474,MST_test,2024.2.0,60.24568187479153,2026-01-24 11h54.07.563913 +0530,
147,0,148,n,3.574696000025142,None,148,0,147,503.6291008000262,,,,,,,,,,,,,,,,,,,,,,,,,,,,,,,,,,,,,,,,,,,,,,,,,,503.6130900999997,503.6291008000262,,504.11312120000366,504.1347343000234,504.1376959999907,504.1376959999907,504.1376959999907,507.71366120001767,Foils\scenes4.jpg,none,n,3.574696000025142,None,,,,,,,,00045,001,2026-01-24_11h54.00.474,MST_test,2024.2.0,60.24568187479153,2026-01-24 11h54.07.563913 +0530,
148,0,149,s,1.6124668000265956,None,149,0,148,507.72897940000985,,,,,,,,,,,,,,,,,,,,,,,,,,,,,,,,,,,,,,,,,,,,,,,,,,507.71401180000976,507.72897940000985,508.23590810003225,508.2134793000296,508.2336840000353,508.23590810003225,508.23590810003225,508.23590810003225,509.8627976999851,Scenes\159a.jpg,mid,s,1.6124668000265956,None,,,,,,,,00045,001,2026-01-24_11h54.00.474,MST_test,2024.2.0,60.24568187479153,2026-01-24 11h54.07.563913 +0530,
149,0,150,s,0.9083074000081979,None,150,0,149,509.87913479999406,,,,,,,,,,,,,,,,,,,,,,,,,,,,,,,,,,,,,,,,,,,,,,,,,,509.86314169998514,509.87913479999406,510.38005620002514,510.36276109999744,510.3775289999903,510.38005620002514,510.38005620002514,510.38005620002514,511.2964179000119,Scenes\100a.jpg,mid,s,0.9083074000081979,None,,,,,,,,00045,001,2026-01-24_11h54.00.474,MST_test,2024.2.0,60.24568187479153,2026-01-24 11h54.07.563913 +0530,
,,,,,,,,,,,,,,,,,,,,,,,,,,,,,,,,,,,,,,,,,,,,,,,,,,,,,,,,,,,,,,,,,,,,,,,,,511.2966414000257,511.3124161000014,511.3124161000014,514.3960771000129,space,3.080658700026106,None,00045,001,2026-01-24_11h54.00.474,MST_test,2024.2.0,60.24568187479153,2026-01-24 11h54.07.563913 +0530,
