thisN,thisTrialN,thisRepN,key_resp_3.keys,key_resp_3.rt,key_resp_3.duration,trials.thisRepN,trials.thisTrialN,trials.thisN,thisRow.t,notes,intro_page.started,text.started,key_resp.started,intro_page.stopped,key_resp.keys,key_resp.rt,key_resp.duration,instructions.started,text_2.started,key_resp_2.started,instructions.stopped,key_resp_2.keys,key_resp_2.rt,key_resp_2.duration,demo1.started,image_1.started,image_2.started,text_7.started,key_resp_6.started,text_9.started,demo1.stopped,key_resp_6.keys,key_resp_6.rt,key_resp_6.duration,demo2.started,image_5.started,image_6.started,text_11.started,text_12.started,key_resp_8.started,demo2.stopped,key_resp_8.keys,key_resp_8.rt,key_resp_8.duration,demo_conclusion.started,text_13.started,key_resp_9.started,demo_conclusion.stopped,key_resp_9.keys,key_resp_9.rt,key_resp_9.duration,start_test.started,text_6.started,key_resp_5.started,start_test.stopped,key_resp_5.keys,key_resp_5.rt,key_resp_5.duration,ISI.started,text_4.started,text_4.stopped,ISI.stopped,routine_1.started,image.started,text_3.started,key_resp_3.started,routine_1.stopped,image_path,position_of_stimuli,trials.key_resp_3.keys,trials.key_resp_3.rt,trials.key_resp_3.duration,End_page.started,text_5.started,key_resp_4.started,End_page.stopped,key_resp_4.keys,key_resp_4.rt,key_resp_4.duration,participant,session,date,expName,psychopyVersion,frameRate,expStart,
,,,,,,,,,,,0.001839499978814274,0.004142699996009469,0.004142699996009469,4.599827900005039,space,4.581596500007436,None,,,,,,,,,,,,,,,,,,,,,,,,,,,,,,,,,,,,,,,,,,,,,,,,,,,,,,,,,,,,,,,00044,001,2026-01-24_11h25.58.400,MST_test,2024.2.0,59.93371329675843,2026-01-24 11h26.06.934517 +0530,
,,,,,,,,,,,,,,,,,,4.599869199970271,4.6130852999631315,4.6130852999631315,33.71382879995508,space,29.092634200002067,None,,,,,,,,,,,,,,,,,,,,,,,,,,,,,,,,,,,,,,,,,,,,,,,,,,,,,,,,00044,001,2026-01-24_11h25.58.400,MST_test,2024.2.0,59.93371329675843,2026-01-24 11h26.06.934517 +0530,
,,,,,,,,,,,,,,,,,,,,,,,,,33.713864299992565,33.730334499967285,33.730334499967285,33.730334499967285,33.730334499967285,33.730334499967285,41.714160299976356,space,7.974993799987715,None,,,,,,,,,,,,,,,,,,,,,,,,,,,,,,,,,,,,,,,,,,,,,,00044,001,2026-01-24_11h25.58.400,MST_test,2024.2.0,59.93371329675843,2026-01-24 11h26.06.934517 +0530,
,,,,,,,,,,,,,,,,,,,,,,,,,,,,,,,,,,,41.71419649996096,41.7300314999884,41.7300314999884,41.7300314999884,41.7300314999884,41.7300314999884,50.2139870999963,space,8.471541300008539,None,,,,,,,,,,,,,,,,,,,,,,,,,,,,,,,,,,,,00044,001,2026-01-24_11h25.58.400,MST_test,2024.2.0,59.93371329675843,2026-01-24 11h26.06.934517 +0530,
,,,,,,,,,,,,,,,,,,,,,,,,,,,,,,,,,,,,,,,,,,,,,50.21402389998548,50.229843899956904,50.229843899956904,98.74713319999864,space,48.51536830002442,None,,,,,,,,,,,,,,,,,,,,,,,,,,,,,00044,001,2026-01-24_11h25.58.400,MST_test,2024.2.0,59.93371329675843,2026-01-24 11h26.06.934517 +0530,
,,,,,,,,,,,,,,,,,,,,,,,,,,,,,,,,,,,,,,,,,,,,,,,,,,,,98.74716959998477,98.76325159997214,98.76325159997214,187.21422619995428,space,88.445879100007,None,,,,,,,,,,,,,,,,,,,,,,00044,001,2026-01-24_11h25.58.400,MST_test,2024.2.0,59.93371329675843,2026-01-24 11h26.06.934517 +0530,
0,0,1,o,9.271544899966102,None,1,0,0,187.22958409995772,,,,,,,,,,,,,,,,,,,,,,,,,,,,,,,,,,,,,,,,,,,,,,,,,,187.2181574999704,187.22958409995772,187.72985179995885,187.71327409998048,187.72221109998645,187.72985179995885,187.72985179995885,187.72985179995885,197.0140723999939,Objects\108a.jpg,mid,o,9.271544899966102,None,,,,,,,,00044,001,2026-01-24_11h25.58.400,MST_test,2024.2.0,59.93371329675843,2026-01-24 11h26.06.934517 +0530,
1,0,2,o,2.7993516999995336,None,2,0,1,197.03022139996756,,,,,,,,,,,,,,,,,,,,,,,,,,,,,,,,,,,,,,,,,,,,,,,,,,197.01419389998773,197.03022139996756,197.53005349996965,197.51384499995038,197.51740429998608,197.53005349996965,197.53005349996965,197.53005349996965,200.33040469995467,Objects\158a.jpg,pre,o,2.7993516999995336,None,,,,,,,,00044,001,2026-01-24_11h25.58.400,MST_test,2024.2.0,59.93371329675843,2026-01-24 11h26.06.934517 +0530,
2,0,3,s,2.4842176000238396,None,3,0,2,200.34628509997856,,,,,,,,,,,,,,,,,,,,,,,,,,,,,,,,,,,,,,,,,,,,,,,,,,200.33052019996103,200.34628509997856,200.85360729997046,200.8296388000017,200.85094449995086,200.85360729997046,200.85360729997046,200.85360729997046,203.34735529997852,Scenes\130b.jpg,post,s,2.4842176000238396,None,,,,,,,,00044,001,2026-01-24_11h25.58.400,MST_test,2024.2.0,59.93371329675843,2026-01-24 11h26.06.934517 +0530,
3,0,4,s,2.7105648000142537,None,4,0,3,203.3633916999679,,,,,,,,,,,,,,,,,,,,,,,,,,,,,,,,,,,,,,,,,,,,,,,,,,203.34746999997878,203.3633916999679,203.8671114000026,203.84714179998264,203.86425799998688,203.8671114000026,203.8671114000026,203.8671114000026,206.58097789995372,Scenes\110b.jpg,pre,s,2.7105648000142537,None,,,,,,,,00044,001,2026-01-24_11h25.58.400,MST_test,2024.2.0,59.93371329675843,2026-01-24 11h26.06.934517 +0530,
4,0,5,o,2.3764986000023782,None,5,0,4,206.5963752999669,,,,,,,,,,,,,,,,,,,,,,,,,,,,,,,,,,,,,,,,,,,,,,,,,,206.5810953999753,206.5963752999669,207.09652829996776,207.0798718999722,207.08534130000044,207.09652829996776,207.09652829996776,207.09652829996776,209.4807584999944,Objects\063a.jpg,pre,o,2.3764986000023782,None,,,,,,,,00044,001,2026-01-24_11h25.58.400,MST_test,2024.2.0,59.93371329675843,2026-01-24 11h26.06.934517 +0530,
5,0,6,n,3.5856888000271283,None,6,0,5,209.4962239000015,,,,,,,,,,,,,,,,,,,,,,,,,,,,,,,,,,,,,,,,,,,,,,,,,,209.48088549997192,209.4962239000015,210.0160955999745,209.98022909997962,210.01318859995808,210.0160955999745,210.0160955999745,210.0160955999745,213.61392479995266,Foils\scenes23.jpg,none,n,3.5856888000271283,None,,,,,,,,00044,001,2026-01-24_11h25.58.400,MST_test,2024.2.0,59.93371329675843,2026-01-24 11h26.06.934517 +0530,
6,0,7,n,3.4456421999493614,None,7,0,6,213.62983749998966,,,,,,,,,,,,,,,,,,,,,,,,,,,,,,,,,,,,,,,,,,,,,,,,,,213.61403989995597,213.62983749998966,214.13161290000426,214.11400790000334,214.12880939996103,214.13161290000426,214.13161290000426,214.13161290000426,217.58029549999628,Foils\093b.jpg,none,n,3.4456421999493614,None,,,,,,,,00044,001,2026-01-24_11h25.58.400,MST_test,2024.2.0,59.93371329675843,2026-01-24 11h26.06.934517 +0530,
7,0,8,n,3.912703799956944,None,8,0,7,217.59620420000283,,,,,,,,,,,,,,,,,,,,,,,,,,,,,,,,,,,,,,,,,,,,,,,,,,217.5804089999874,217.59620420000283,218.09684660000494,218.07992119999835,218.09002579998923,218.09684660000494,218.09684660000494,218.09684660000494,222.0138635999756,Foils\scenes7.jpg,none,n,3.912703799956944,None,,,,,,,,00044,001,2026-01-24_11h25.58.400,MST_test,2024.2.0,59.93371329675843,2026-01-24 11h26.06.934517 +0530,
8,0,9,s,1.8805681000230834,None,9,0,8,222.0305376999895,,,,,,,,,,,,,,,,,,,,,,,,,,,,,,,,,,,,,,,,,,,,,,,,,,222.01397649996215,222.0305376999895,222.5367344999686,222.5133965999703,222.53402729996014,222.5367344999686,222.5367344999686,222.5367344999686,224.43026850000024,Scenes\060b.jpg,mid,s,1.8805681000230834,None,,,,,,,,00044,001,2026-01-24_11h25.58.400,MST_test,2024.2.0,59.93371329675843,2026-01-24 11h26.06.934517 +0530,
9,0,10,s,2.3333471000078134,None,10,0,9,224.4463331999723,,,,,,,,,,,,,,,,,,,,,,,,,,,,,,,,,,,,,,,,,,,,,,,,,,224.43039699998917,224.4463331999723,,224.93039749999298,224.94592369999737,224.9483255999512,224.9483255999512,224.9483255999512,227.29685549996793,Scenes\178b.jpg,pre,s,2.3333471000078134,None,,,,,,,,00044,001,2026-01-24_11h25.58.400,MST_test,2024.2.0,59.93371329675843,2026-01-24 11h26.06.934517 +0530,
10,0,11,n,2.4999746999819763,None,11,0,10,227.31325639999704,,,,,,,,,,,,,,,,,,,,,,,,,,,,,,,,,,,,,,,,,,,,,,,,,,227.29697299998952,227.31325639999704,227.8134419999551,227.79696179996245,227.8084089999902,227.8134419999551,227.8134419999551,227.8134419999551,230.3301419999916,Objects\151b.jpg,post,n,2.4999746999819763,None,,,,,,,,00044,001,2026-01-24_11h25.58.400,MST_test,2024.2.0,59.93371329675843,2026-01-24 11h26.06.934517 +0530,
11,0,12,o,1.5224277999950573,None,12,0,11,230.34620699996594,,,,,,,,,,,,,,,,,,,,,,,,,,,,,,,,,,,,,,,,,,,,,,,,,,230.33026009995956,230.34620699996594,,230.83023839996895,230.83304289996158,230.84703079995234,230.84703079995234,230.84703079995234,232.38046539999777,Objects\076a.jpg,pre,o,1.5224277999950573,None,,,,,,,,00044,001,2026-01-24_11h25.58.400,MST_test,2024.2.0,59.93371329675843,2026-01-24 11h26.06.934517 +0530,
12,0,13,s,5.184156300034374,None,13,0,12,232.3966417000047,,,,,,,,,,,,,,,,,,,,,,,,,,,,,,,,,,,,,,,,,,,,,,,,,,232.38058919995092,232.3966417000047,232.8970780999516,232.88030479999725,232.88812459999463,232.8970780999516,232.8970780999516,232.8970780999516,238.09751089999918,Scenes\169a.jpg,pre,s,5.184156300034374,None,,,,,,,,00044,001,2026-01-24_11h25.58.400,MST_test,2024.2.0,59.93371329675843,2026-01-24 11h26.06.934517 +0530,
13,0,14,n,1.4939466000068933,None,14,0,13,238.11331039998913,,,,,,,,,,,,,,,,,,,,,,,,,,,,,,,,,,,,,,,,,,,,,,,,,,238.09763229999226,238.11331039998913,238.62004049995448,238.5972021999769,238.61709119996522,238.62004049995448,238.62004049995448,238.62004049995448,240.1302872999804,Scenes\052b.jpg,mid,n,1.4939466000068933,None,,,,,,,,00044,001,2026-01-24_11h25.58.400,MST_test,2024.2.0,59.93371329675843,2026-01-24 11h26.06.934517 +0530,
14,0,15,s,3.1699478999944404,None,15,0,14,240.14624979998916,,,,,,,,,,,,,,,,,,,,,,,,,,,,,,,,,,,,,,,,,,,,,,,,,,240.13040559994988,240.14624979998916,240.64815009996528,240.6302599000046,240.64268849999644,240.64815009996528,240.64815009996528,240.64815009996528,243.83077499998035,Objects\044b.jpg,pre,s,3.1699478999944404,None,,,,,,,,00044,001,2026-01-24_11h25.58.400,MST_test,2024.2.0,59.93371329675843,2026-01-24 11h26.06.934517 +0530,
15,0,16,n,1.8946481999591924,None,16,0,15,243.84649599995464,,,,,,,,,,,,,,,,,,,,,,,,,,,,,,,,,,,,,,,,,,,,,,,,,,243.83088959997986,243.84649599995464,244.3467555999523,244.33004159998382,244.34059549996164,244.3467555999523,244.3467555999523,244.3467555999523,246.24739679996856,Foils\121a.jpg,none,n,1.8946481999591924,None,,,,,,,,00044,001,2026-01-24_11h25.58.400,MST_test,2024.2.0,59.93371329675843,2026-01-24 11h26.06.934517 +0530,
16,0,17,o,1.5740443999529816,None,17,0,16,246.2631233999855,,,,,,,,,,,,,,,,,,,,,,,,,,,,,,,,,,,,,,,,,,,,,,,,,,246.2475029999623,246.2631233999855,246.763317200006,246.74680999998236,246.75925810000626,246.763317200006,246.763317200006,246.763317200006,248.346865599975,Objects\006b.jpg,mid,o,1.5740443999529816,None,,,,,,,,00044,001,2026-01-24_11h25.58.400,MST_test,2024.2.0,59.93371329675843,2026-01-24 11h26.06.934517 +0530,
17,0,18,s,8.522032499953639,None,18,0,17,248.36315089999698,,,,,,,,,,,,,,,,,,,,,,,,,,,,,,,,,,,,,,,,,,,,,,,,,,248.34698390000267,248.36315089999698,248.86341069999617,248.84696599998279,248.84944889997132,248.86341069999617,248.86341069999617,248.86341069999617,257.39703819999704,Scenes\053a.jpg,post,s,8.522032499953639,None,,,,,,,,00044,001,2026-01-24_11h25.58.400,MST_test,2024.2.0,59.93371329675843,2026-01-24 11h26.06.934517 +0530,
18,0,19,n,2.359861799981445,None,19,0,18,257.41357360000256,,,,,,,,,,,,,,,,,,,,,,,,,,,,,,,,,,,,,,,,,,,,,,,,,,257.3971505999798,257.41357360000256,257.91360779997194,257.8968622999964,257.9067541999975,257.91360779997194,257.91360779997194,257.91360779997194,260.2806929999497,Foils\scenes29.jpg,none,n,2.359861799981445,None,,,,,,,,00044,001,2026-01-24_11h25.58.400,MST_test,2024.2.0,59.93371329675843,2026-01-24 11h26.06.934517 +0530,
19,0,20,s,2.9881577999913134,None,20,0,19,260.29643679998117,,,,,,,,,,,,,,,,,,,,,,,,,,,,,,,,,,,,,,,,,,,,,,,,,,260.28080249996856,260.29643679998117,260.7973673999659,260.77982639998663,260.7915353999706,260.7973673999659,260.7973673999659,260.7973673999659,263.79737549996935,Objects\024b.jpg,mid,s,2.9881577999913134,None,,,,,,,,00044,001,2026-01-24_11h25.58.400,MST_test,2024.2.0,59.93371329675843,2026-01-24 11h26.06.934517 +0530,
20,0,21,o,1.3354422000120394,None,21,0,20,263.8132098999922,,,,,,,,,,,,,,,,,,,,,,,,,,,,,,,,,,,,,,,,,,,,,,,,,,263.7974840999814,263.8132098999922,264.31358369998634,264.29670799995074,264.3060240999912,264.31358369998634,264.31358369998634,264.31358369998634,265.66369779995875,Scenes\019a.jpg,post,o,1.3354422000120394,None,,,,,,,,00044,001,2026-01-24_11h25.58.400,MST_test,2024.2.0,59.93371329675843,2026-01-24 11h26.06.934517 +0530,
21,0,22,s,2.559183600009419,None,22,0,21,265.67983229999663,,,,,,,,,,,,,,,,,,,,,,,,,,,,,,,,,,,,,,,,,,,,,,,,,,265.6638197999564,265.67983229999663,266.1864137999946,266.1636067999643,266.18419259996153,266.1864137999946,266.1864137999946,266.1864137999946,268.74759339995217,Scenes\043b.jpg,pre,s,2.559183600009419,None,,,,,,,,00044,001,2026-01-24_11h25.58.400,MST_test,2024.2.0,59.93371329675843,2026-01-24 11h26.06.934517 +0530,
22,0,23,o,3.2589553000289015,None,23,0,22,268.7628679999616,,,,,,,,,,,,,,,,,,,,,,,,,,,,,,,,,,,,,,,,,,,,,,,,,,268.74771530000726,268.7628679999616,269.2699166999664,269.24670729995705,269.26708609994967,269.2699166999664,269.2699166999664,269.2699166999664,272.53043459996115,Scenes\128b.jpg,mid,o,3.2589553000289015,None,,,,,,,,00044,001,2026-01-24_11h25.58.400,MST_test,2024.2.0,59.93371329675843,2026-01-24 11h26.06.934517 +0530,
23,0,24,s,1.666471000004094,None,24,0,23,272.5467690999503,,,,,,,,,,,,,,,,,,,,,,,,,,,,,,,,,,,,,,,,,,,,,,,,,,272.53055440000026,272.5467690999503,273.0469734999933,273.0299327999819,273.04083539999556,273.0469734999933,273.0469734999933,273.0469734999933,274.714479999966,Objects\135b.jpg,mid,s,1.666471000004094,None,,,,,,,,00044,001,2026-01-24_11h25.58.400,MST_test,2024.2.0,59.93371329675843,2026-01-24 11h26.06.934517 +0530,
24,0,25,n,1.6267911000177264,None,25,0,24,274.72991080000065,,,,,,,,,,,,,,,,,,,,,,,,,,,,,,,,,,,,,,,,,,,,,,,,,,274.7146046999842,274.72991080000065,275.5428442999837,275.21356109995395,275.5384247999755,275.5428442999837,275.5428442999837,275.5428442999837,277.18045499996515,Foils\scenes26.jpg,none,n,1.6267911000177264,None,,,,,,,,00044,001,2026-01-24_11h25.58.400,MST_test,2024.2.0,59.93371329675843,2026-01-24 11h26.06.934517 +0530,
25,0,26,n,8.247668199997861,None,26,0,25,277.19628259999445,,,,,,,,,,,,,,,,,,,,,,,,,,,,,,,,,,,,,,,,,,,,,,,,,,277.1805660999962,277.19628259999445,,277.68078619998414,277.7266211999813,277.72939619998215,277.72939619998215,277.72939619998215,285.98070919996826,Scenes\167b.jpg,mid,n,8.247668199997861,None,,,,,,,,00044,001,2026-01-24_11h25.58.400,MST_test,2024.2.0,59.93371329675843,2026-01-24 11h26.06.934517 +0530,
26,0,27,o,5.976233699999284,None,27,0,26,285.9963123999769,,,,,,,,,,,,,,,,,,,,,,,,,,,,,,,,,,,,,,,,,,,,,,,,,,285.98082900000736,285.9963123999769,286.5049662999809,286.4799538999796,286.50215009995736,286.5049662999809,286.5049662999809,286.5049662999809,292.4971606999752,Scenes\001b.jpg,mid,o,5.976233699999284,None,,,,,,,,00044,001,2026-01-24_11h25.58.400,MST_test,2024.2.0,59.93371329675843,2026-01-24 11h26.06.934517 +0530,
27,0,28,n,1.403149600024335,None,28,0,27,292.5130322999903,,,,,,,,,,,,,,,,,,,,,,,,,,,,,,,,,,,,,,,,,,,,,,,,,,292.49728039995534,292.5130322999903,293.01387949998025,292.9976048999815,293.00995639996836,293.01387949998025,293.01387949998025,293.01387949998025,294.4315644999733,Objects\056b.jpg,post,n,1.403149600024335,None,,,,,,,,00044,001,2026-01-24_11h25.58.400,MST_test,2024.2.0,59.93371329675843,2026-01-24 11h26.06.934517 +0530,
28,0,29,o,1.4307728999992833,None,29,0,28,294.4462210999918,,,,,,,,,,,,,,,,,,,,,,,,,,,,,,,,,,,,,,,,,,,,,,,,,,294.4316803999827,294.4462210999918,294.9466169999796,294.9302144999965,294.9331668999512,294.9466169999796,294.9466169999796,294.9466169999796,296.38069749996066,Objects\145a.jpg,mid,o,1.4307728999992833,None,,,,,,,,00044,001,2026-01-24_11h25.58.400,MST_test,2024.2.0,59.93371329675843,2026-01-24 11h26.06.934517 +0530,
29,0,30,s,1.5633680000319146,None,30,0,29,296.39606379996985,,,,,,,,,,,,,,,,,,,,,,,,,,,,,,,,,,,,,,,,,,,,,,,,,,296.38081060000695,296.39606379996985,296.90253629995277,296.880015600007,296.90004409995163,296.90253629995277,296.90253629995277,296.90253629995277,298.4808863999788,Scenes\165b.jpg,mid,s,1.5633680000319146,None,,,,,,,,00044,001,2026-01-24_11h25.58.400,MST_test,2024.2.0,59.93371329675843,2026-01-24 11h26.06.934517 +0530,
30,0,31,s,2.508196600014344,None,31,0,30,298.496279999963,,,,,,,,,,,,,,,,,,,,,,,,,,,,,,,,,,,,,,,,,,,,,,,,,,298.48099670000374,298.496279999963,298.9972496999544,298.9798351000063,298.98733340000035,298.9972496999544,298.9972496999544,298.9972496999544,301.5143664999632,Scenes\123a.jpg,post,s,2.508196600014344,None,,,,,,,,00044,001,2026-01-24_11h25.58.400,MST_test,2024.2.0,59.93371329675843,2026-01-24 11h26.06.934517 +0530,
31,0,32,s,1.754972800030373,None,32,0,31,301.5296968999901,,,,,,,,,,,,,,,,,,,,,,,,,,,,,,,,,,,,,,,,,,,,,,,,,,301.5145131999743,301.5296968999901,302.0302303999779,302.0138040999882,302.02565899997717,302.0302303999779,302.0302303999779,302.0302303999779,303.797591599985,Scenes\171a.jpg,post,s,1.754972800030373,None,,,,,,,,00044,001,2026-01-24_11h25.58.400,MST_test,2024.2.0,59.93371329675843,2026-01-24 11h26.06.934517 +0530,
32,0,33,o,1.5998791999882087,None,33,0,32,303.8130773999728,,,,,,,,,,,,,,,,,,,,,,,,,,,,,,,,,,,,,,,,,,,,,,,,,,303.79773069999646,303.8130773999728,304.31372029997874,304.29679599998053,304.300155200006,304.31372029997874,304.31372029997874,304.31372029997874,305.91439980000723,Objects\001a.jpg,pre,o,1.5998791999882087,None,,,,,,,,00044,001,2026-01-24_11h25.58.400,MST_test,2024.2.0,59.93371329675843,2026-01-24 11h26.06.934517 +0530,
33,0,34,o,3.0042709999834187,None,34,0,33,305.9295640999917,,,,,,,,,,,,,,,,,,,,,,,,,,,,,,,,,,,,,,,,,,,,,,,,,,305.91452239995124,305.9295640999917,306.4373912999872,306.41336229996523,306.4349699000013,306.4373912999872,306.4373912999872,306.4373912999872,309.4473613000009,Scenes\072b.jpg,post,o,3.0042709999834187,None,,,,,,,,00044,001,2026-01-24_11h25.58.400,MST_test,2024.2.0,59.93371329675843,2026-01-24 11h26.06.934517 +0530,
34,0,35,n,1.865550999995321,None,35,0,34,309.4634131999919,,,,,,,,,,,,,,,,,,,,,,,,,,,,,,,,,,,,,,,,,,,,,,,,,,309.4475115999812,309.4634131999919,309.99974870000733,309.94734099996276,309.9961030999548,309.99974870000733,309.99974870000733,309.99974870000733,311.88040309998905,Foils\scenes15.jpg,none,n,1.865550999995321,None,,,,,,,,00044,001,2026-01-24_11h25.58.400,MST_test,2024.2.0,59.93371329675843,2026-01-24 11h26.06.934517 +0530,
35,0,36,n,1.6672827000147663,None,36,0,35,311.89656079997076,,,,,,,,,,,,,,,,,,,,,,,,,,,,,,,,,,,,,,,,,,,,,,,,,,311.8805323999841,311.89656079997076,312.39774240000406,312.38032679999014,312.39238549995935,312.39774240000406,312.39774240000406,312.39774240000406,314.08075899997493,Objects\163b.jpg,mid,n,1.6672827000147663,None,,,,,,,,00044,001,2026-01-24_11h25.58.400,MST_test,2024.2.0,59.93371329675843,2026-01-24 11h26.06.934517 +0530,
36,0,37,n,1.213375699997414,None,37,0,36,314.09668049996253,,,,,,,,,,,,,,,,,,,,,,,,,,,,,,,,,,,,,,,,,,,,,,,,,,314.0808681999915,314.09668049996253,314.59634150000056,314.58012639998924,314.59117369999876,314.59634150000056,314.59634150000056,314.59634150000056,315.8138320999569,Foils\049a.jpg,none,n,1.213375699997414,None,,,,,,,,00044,001,2026-01-24_11h25.58.400,MST_test,2024.2.0,59.93371329675843,2026-01-24 11h26.06.934517 +0530,
37,0,38,n,1.5197003000066616,None,38,0,37,315.8307579999673,,,,,,,,,,,,,,,,,,,,,,,,,,,,,,,,,,,,,,,,,,,,,,,,,,315.81393579998985,315.8307579999673,316.33001619996503,316.31354459997965,316.3242914999719,316.33001619996503,316.33001619996503,316.33001619996503,317.86365159996785,Foils\098a.jpg,none,n,1.5197003000066616,None,,,,,,,,00044,001,2026-01-24_11h25.58.400,MST_test,2024.2.0,59.93371329675843,2026-01-24 11h26.06.934517 +0530,
38,0,39,n,3.285169799986761,None,39,0,38,317.87952679995215,,,,,,,,,,,,,,,,,,,,,,,,,,,,,,,,,,,,,,,,,,,,,,,,,,317.86376029998064,317.87952679995215,318.38053939997917,318.36320809996687,318.37328419997357,318.38053939997917,318.38053939997917,318.38053939997917,321.68085109995445,Foils\scenes5.jpg,none,n,3.285169799986761,None,,,,,,,,00044,001,2026-01-24_11h25.58.400,MST_test,2024.2.0,59.93371329675843,2026-01-24 11h26.06.934517 +0530,
39,0,40,o,2.2286525000235997,None,40,0,39,321.6959633999504,,,,,,,,,,,,,,,,,,,,,,,,,,,,,,,,,,,,,,,,,,,,,,,,,,321.68096500000684,321.6959633999504,322.19669209996937,322.1801087000058,322.1834749999689,322.19669209996937,322.19669209996937,322.19669209996937,324.43035149999196,Objects\124a.jpg,post,o,2.2286525000235997,None,,,,,,,,00044,001,2026-01-24_11h25.58.400,MST_test,2024.2.0,59.93371329675843,2026-01-24 11h26.06.934517 +0530,
40,0,41,n,5.270821199985221,None,41,0,40,324.44609549996676,,,,,,,,,,,,,,,,,,,,,,,,,,,,,,,,,,,,,,,,,,,,,,,,,,324.4304659999907,324.44609549996676,,324.93044909997843,324.93901059997734,324.94686709996313,324.94686709996313,324.94686709996313,330.23090639995644,Scenes\188a.jpg,post,n,5.270821199985221,None,,,,,,,,00044,001,2026-01-24_11h25.58.400,MST_test,2024.2.0,59.93371329675843,2026-01-24 11h26.06.934517 +0530,
41,0,42,o,3.006278100016061,None,42,0,41,330.2463721999666,,,,,,,,,,,,,,,,,,,,,,,,,,,,,,,,,,,,,,,,,,,,,,,,,,330.23101689998293,330.2463721999666,330.7468660000013,330.729940899997,330.73780069994973,330.7468660000013,330.7468660000013,330.7468660000013,333.76410769997165,Scenes\050a.jpg,post,o,3.006278100016061,None,,,,,,,,00044,001,2026-01-24_11h25.58.400,MST_test,2024.2.0,59.93371329675843,2026-01-24 11h26.06.934517 +0530,
42,0,43,s,2.4887112000142224,None,43,0,42,333.779662499961,,,,,,,,,,,,,,,,,,,,,,,,,,,,,,,,,,,,,,,,,,,,,,,,,,333.7642261000001,333.779662499961,334.2804638999514,334.2632210999727,334.2716825999669,334.2804638999514,334.2804638999514,334.2804638999514,336.7803369999747,Scenes\144a.jpg,mid,s,2.4887112000142224,None,,,,,,,,00044,001,2026-01-24_11h25.58.400,MST_test,2024.2.0,59.93371329675843,2026-01-24 11h26.06.934517 +0530,
43,0,44,n,1.77629380003782,None,44,0,43,336.79599229997257,,,,,,,,,,,,,,,,,,,,,,,,,,,,,,,,,,,,,,,,,,,,,,,,,,336.7804414999555,336.79599229997257,337.29668470000615,337.28061699995305,337.2917713999632,337.29668470000615,337.29668470000615,337.29668470000615,339.0804694999824,Scenes\033b.jpg,mid,n,1.77629380003782,None,,,,,,,,00044,001,2026-01-24_11h25.58.400,MST_test,2024.2.0,59.93371329675843,2026-01-24 11h26.06.934517 +0530,
44,0,45,s,3.220749900036026,None,45,0,44,339.0962166999816,,,,,,,,,,,,,,,,,,,,,,,,,,,,,,,,,,,,,,,,,,,,,,,,,,339.08057659998303,339.0962166999816,339.5965876999544,339.58043430000544,339.58662709995406,339.5965876999544,339.5965876999544,339.5965876999544,342.83052299998235,Scenes\139a.jpg,post,s,3.220749900036026,None,,,,,,,,00044,001,2026-01-24_11h25.58.400,MST_test,2024.2.0,59.93371329675843,2026-01-24 11h26.06.934517 +0530,
45,0,46,s,2.2379327000235207,None,46,0,45,342.84632389998296,,,,,,,,,,,,,,,,,,,,,,,,,,,,,,,,,,,,,,,,,,,,,,,,,,342.83063109999057,342.84632389998296,343.3468896999839,343.3300982999499,343.3336723999819,343.3468896999839,343.3468896999839,343.3468896999839,345.597811399959,Objects\071a.jpg,pre,s,2.2379327000235207,None,,,,,,,,00044,001,2026-01-24_11h25.58.400,MST_test,2024.2.0,59.93371329675843,2026-01-24 11h26.06.934517 +0530,
46,0,47,n,2.9195054000010714,None,47,0,46,345.61308649997227,,,,,,,,,,,,,,,,,,,,,,,,,,,,,,,,,,,,,,,,,,,,,,,,,,345.59793269995134,345.61308649997227,346.113557100005,346.0966705000028,346.10634179995395,346.113557100005,346.113557100005,346.113557100005,349.0474084999878,Foils\scenes30.jpg,none,n,2.9195054000010714,None,,,,,,,,00044,001,2026-01-24_11h25.58.400,MST_test,2024.2.0,59.93371329675843,2026-01-24 11h26.06.934517 +0530,
47,0,48,o,1.9105494000250474,None,48,0,47,349.06308379996335,,,,,,,,,,,,,,,,,,,,,,,,,,,,,,,,,,,,,,,,,,,,,,,,,,349.04751730000135,349.06308379996335,349.56356759998016,349.54665669996757,349.55761429999257,349.56356759998016,349.56356759998016,349.56356759998016,351.48082999995677,Objects\146b.jpg,post,o,1.9105494000250474,None,,,,,,,,00044,001,2026-01-24_11h25.58.400,MST_test,2024.2.0,59.93371329675843,2026-01-24 11h26.06.934517 +0530,
48,0,49,o,1.7664562999852933,None,49,0,48,351.4970083999797,,,,,,,,,,,,,,,,,,,,,,,,,,,,,,,,,,,,,,,,,,,,,,,,,,351.4809388999711,351.4970083999797,351.99626589997206,351.9803108999622,351.9835897999583,351.99626589997206,351.99626589997206,351.99626589997206,353.7641039000009,Objects\102a.jpg,mid,o,1.7664562999852933,None,,,,,,,,00044,001,2026-01-24_11h25.58.400,MST_test,2024.2.0,59.93371329675843,2026-01-24 11h26.06.934517 +0530,
49,0,50,n,2.0247095999657176,None,50,0,49,353.7798122999957,,,,,,,,,,,,,,,,,,,,,,,,,,,,,,,,,,,,,,,,,,,,,,,,,,353.7642474999884,353.7798122999957,354.28048379998654,354.26329739997163,354.2734421999776,354.28048379998654,354.28048379998654,354.28048379998654,356.31388609996065,Foils\scenes14.jpg,none,n,2.0247095999657176,None,,,,,,,,00044,001,2026-01-24_11h25.58.400,MST_test,2024.2.0,59.93371329675843,2026-01-24 11h26.06.934517 +0530,
50,0,51,n,1.9146652999916114,None,51,0,50,356.33009609999135,,,,,,,,,,,,,,,,,,,,,,,,,,,,,,,,,,,,,,,,,,,,,,,,,,356.3139910000027,356.33009609999135,356.8312086999649,356.81326339999214,356.82883329998003,356.8312086999649,356.8312086999649,356.8312086999649,358.74714870000025,Scenes\147b.jpg,post,n,1.9146652999916114,None,,,,,,,,00044,001,2026-01-24_11h25.58.400,MST_test,2024.2.0,59.93371329675843,2026-01-24 11h26.06.934517 +0530,
51,0,52,s,3.5213241999736056,None,52,0,51,358.76288880000357,,,,,,,,,,,,,,,,,,,,,,,,,,,,,,,,,,,,,,,,,,,,,,,,,,358.7472581999609,358.76288880000357,359.26367979997303,359.246663399972,359.2563868999714,359.26367979997303,359.26367979997303,359.26367979997303,362.7972276999499,Objects\066b.jpg,pre,s,3.5213241999736056,None,,,,,,,,00044,001,2026-01-24_11h25.58.400,MST_test,2024.2.0,59.93371329675843,2026-01-24 11h26.06.934517 +0530,
52,0,53,s,1.5398229000275023,None,53,0,52,362.81416609999724,,,,,,,,,,,,,,,,,,,,,,,,,,,,,,,,,,,,,,,,,,,,,,,,,,362.7973282999592,362.81416609999724,,363.3128824000014,363.3311815999914,363.3335656999843,363.3335656999843,363.3335656999843,364.8817490999936,Scenes\159b.jpg,mid,s,1.5398229000275023,None,,,,,,,,00044,001,2026-01-24_11h25.58.400,MST_test,2024.2.0,59.93371329675843,2026-01-24 11h26.06.934517 +0530,
53,0,54,n,3.7648153999471106,None,54,0,53,364.896794100001,,,,,,,,,,,,,,,,,,,,,,,,,,,,,,,,,,,,,,,,,,,,,,,,,,364.8818646,364.896794100001,365.396977700002,365.38007859996287,365.3906533999834,365.396977700002,365.396977700002,365.396977700002,369.16446080000605,Foils\074a.jpg,none,n,3.7648153999471106,None,,,,,,,,00044,001,2026-01-24_11h25.58.400,MST_test,2024.2.0,59.93371329675843,2026-01-24 11h26.06.934517 +0530,
54,0,55,o,2.168879900011234,None,55,0,54,369.1800594999804,,,,,,,,,,,,,,,,,,,,,,,,,,,,,,,,,,,,,,,,,,,,,,,,,,369.16457049996825,369.1800594999804,369.68051679997006,369.6634790999815,369.6665888999705,369.68051679997006,369.68051679997006,369.68051679997006,371.8637478000019,Objects\170a.jpg,post,o,2.168879900011234,None,,,,,,,,00044,001,2026-01-24_11h25.58.400,MST_test,2024.2.0,59.93371329675843,2026-01-24 11h26.06.934517 +0530,
55,0,56,s,1.8846387999947183,None,56,0,55,371.88003439997556,,,,,,,,,,,,,,,,,,,,,,,,,,,,,,,,,,,,,,,,,,,,,,,,,,371.8638716999558,371.88003439997556,,372.36395689996425,372.3671669999603,372.3808841999853,372.3808841999853,372.3808841999853,374.280560299987,Objects\153a.jpg,mid,s,1.8846387999947183,None,,,,,,,,00044,001,2026-01-24_11h25.58.400,MST_test,2024.2.0,59.93371329675843,2026-01-24 11h26.06.934517 +0530,
56,0,57,n,2.99715319997631,None,57,0,56,374.2961218999699,,,,,,,,,,,,,,,,,,,,,,,,,,,,,,,,,,,,,,,,,,,,,,,,,,374.2806752999895,374.2961218999699,374.7964074999909,374.7804352999665,374.79299089999404,374.7964074999909,374.7964074999909,374.7964074999909,377.79702669999097,Foils\058a.jpg,none,n,2.99715319997631,None,,,,,,,,00044,001,2026-01-24_11h25.58.400,MST_test,2024.2.0,59.93371329675843,2026-01-24 11h26.06.934517 +0530,
57,0,58,o,5.54371140000876,None,58,0,57,377.8130070999614,,,,,,,,,,,,,,,,,,,,,,,,,,,,,,,,,,,,,,,,,,,,,,,,,,377.79713279998396,377.8130070999614,378.31323829997564,378.29635769996094,378.30955969996285,378.31323829997564,378.31323829997564,378.31323829997564,383.86383709998336,Scenes\112b.jpg,mid,o,5.54371140000876,None,,,,,,,,00044,001,2026-01-24_11h25.58.400,MST_test,2024.2.0,59.93371329675843,2026-01-24 11h26.06.934517 +0530,
58,0,59,s,1.3647165999864228,None,59,0,58,383.880090199993,,,,,,,,,,,,,,,,,,,,,,,,,,,,,,,,,,,,,,,,,,,,,,,,,,383.86394269997254,383.880090199993,384.38028589996975,384.36351219995413,384.374908400001,384.38028589996975,384.38028589996975,384.38028589996975,385.74732849997235,Objects\097b.jpg,mid,s,1.3647165999864228,None,,,,,,,,00044,001,2026-01-24_11h25.58.400,MST_test,2024.2.0,59.93371329675843,2026-01-24 11h26.06.934517 +0530,
59,0,60,s,1.5853580000111833,None,60,0,59,385.763083799975,,,,,,,,,,,,,,,,,,,,,,,,,,,,,,,,,,,,,,,,,,,,,,,,,,385.7474450999871,385.763083799975,386.26349419995677,386.24742369999876,386.258256000001,386.26349419995677,386.26349419995677,386.26349419995677,387.86396339995554,Objects\185b.jpg,post,s,1.5853580000111833,None,,,,,,,,00044,001,2026-01-24_11h25.58.400,MST_test,2024.2.0,59.93371329675843,2026-01-24 11h26.06.934517 +0530,
60,0,61,s,4.27725929999724,None,61,0,60,387.87995469995076,,,,,,,,,,,,,,,,,,,,,,,,,,,,,,,,,,,,,,,,,,,,,,,,,,387.86410409997916,387.87995469995076,388.3801033999771,388.3634227999719,388.3666674999986,388.3801033999771,388.3801033999771,388.3801033999771,392.6643542999518,Objects\009a.jpg,mid,s,4.27725929999724,None,,,,,,,,00044,001,2026-01-24_11h25.58.400,MST_test,2024.2.0,59.93371329675843,2026-01-24 11h26.06.934517 +0530,
61,0,62,s,1.5653907000087202,None,62,0,61,392.67977689998224,,,,,,,,,,,,,,,,,,,,,,,,,,,,,,,,,,,,,,,,,,,,,,,,,,392.66450299997814,392.67977689998224,393.17988549999427,393.1636190999998,393.1668466999545,393.17988549999427,393.17988549999427,393.17988549999427,394.74769539997214,Objects\030a.jpg,mid,s,1.5653907000087202,None,,,,,,,,00044,001,2026-01-24_11h25.58.400,MST_test,2024.2.0,59.93371329675843,2026-01-24 11h26.06.934517 +0530,
62,0,63,s,1.6973403000156395,None,63,0,62,394.7634875999647,,,,,,,,,,,,,,,,,,,,,,,,,,,,,,,,,,,,,,,,,,,,,,,,,,394.74781279999297,394.7634875999647,395.2639246999752,395.24690269998973,395.259311999951,395.2639246999752,395.2639246999752,395.2639246999752,396.9640537999803,Scenes\087b.jpg,pre,s,1.6973403000156395,None,,,,,,,,00044,001,2026-01-24_11h25.58.400,MST_test,2024.2.0,59.93371329675843,2026-01-24 11h26.06.934517 +0530,
63,0,64,s,3.0815615999745205,None,64,0,63,396.98011929995846,,,,,,,,,,,,,,,,,,,,,,,,,,,,,,,,,,,,,,,,,,,,,,,,,,396.96416599996155,396.98011929995846,397.4800498999539,397.4632499999716,397.47124859999167,397.4800498999539,397.4800498999539,397.4800498999539,400.56444260000717,Scenes\051a.jpg,mid,s,3.0815615999745205,None,,,,,,,,00044,001,2026-01-24_11h25.58.400,MST_test,2024.2.0,59.93371329675843,2026-01-24 11h26.06.934517 +0530,
64,0,65,n,4.991543199983425,None,65,0,64,400.5797381000011,,,,,,,,,,,,,,,,,,,,,,,,,,,,,,,,,,,,,,,,,,,,,,,,,,400.5645611999789,400.5797381000011,401.0892787000048,401.06322199996794,401.0867687999853,401.0892787000048,401.0892787000048,401.0892787000048,406.09713239996927,Scenes\025b.jpg,mid,n,4.991543199983425,None,,,,,,,,00044,001,2026-01-24_11h25.58.400,MST_test,2024.2.0,59.93371329675843,2026-01-24 11h26.06.934517 +0530,
65,0,66,o,1.196156800026074,None,66,0,65,406.11337089998415,,,,,,,,,,,,,,,,,,,,,,,,,,,,,,,,,,,,,,,,,,,,,,,,,,406.09725659998367,406.11337089998415,406.6138959999662,406.59640929999296,406.6059436999494,406.6138959999662,406.6138959999662,406.6138959999662,407.8136059999815,Scenes\109a.jpg,post,o,1.196156800026074,None,,,,,,,,00044,001,2026-01-24_11h25.58.400,MST_test,2024.2.0,59.93371329675843,2026-01-24 11h26.06.934517 +0530,
66,0,67,s,3.447082999977283,None,67,0,66,407.82964179996634,,,,,,,,,,,,,,,,,,,,,,,,,,,,,,,,,,,,,,,,,,,,,,,,,,407.81371899996884,407.82964179996634,408.33006319997367,408.3131544999778,408.3177094999701,408.33006319997367,408.33006319997367,408.33006319997367,411.7806856999523,Objects\192a.jpg,mid,s,3.447082999977283,None,,,,,,,,00044,001,2026-01-24_11h25.58.400,MST_test,2024.2.0,59.93371329675843,2026-01-24 11h26.06.934517 +0530,
67,0,68,o,1.4173881000024267,None,68,0,67,411.79663579998305,,,,,,,,,,,,,,,,,,,,,,,,,,,,,,,,,,,,,,,,,,,,,,,,,,411.78080539999064,411.79663579998305,412.30391969997436,412.28113649995066,412.3015511999838,412.30391969997436,412.30391969997436,412.30391969997436,413.73055889998795,Scenes\004b.jpg,pre,o,1.4173881000024267,None,,,,,,,,00044,001,2026-01-24_11h25.58.400,MST_test,2024.2.0,59.93371329675843,2026-01-24 11h26.06.934517 +0530,
68,0,69,s,4.96299019997241,None,69,0,68,413.7467410999816,,,,,,,,,,,,,,,,,,,,,,,,,,,,,,,,,,,,,,,,,,,,,,,,,,413.73067479999736,413.7467410999816,,414.2308493999881,414.2407409999869,414.24646569998004,414.24646569998004,414.24646569998004,419.21381589997327,Foils\scenes19.jpg,none,s,4.96299019997241,None,,,,,,,,00044,001,2026-01-24_11h25.58.400,MST_test,2024.2.0,59.93371329675843,2026-01-24 11h26.06.934517 +0530,
69,0,70,o,1.4057363999891095,None,70,0,69,419.2295359999989,,,,,,,,,,,,,,,,,,,,,,,,,,,,,,,,,,,,,,,,,,,,,,,,,,419.2139392999816,419.2295359999989,419.73137130000396,419.71323850000044,419.728276299953,419.73137130000396,419.73137130000396,419.73137130000396,421.1468411999522,Scenes\141b.jpg,pre,o,1.4057363999891095,None,,,,,,,,00044,001,2026-01-24_11h25.58.400,MST_test,2024.2.0,59.93371329675843,2026-01-24 11h26.06.934517 +0530,
70,0,71,o,1.377140700002201,None,71,0,70,421.16285849997075,,,,,,,,,,,,,,,,,,,,,,,,,,,,,,,,,,,,,,,,,,,,,,,,,,421.14695329999086,421.16285849997075,421.6636581000057,421.6464197000023,421.65881559997797,421.6636581000057,421.6636581000057,421.6636581000057,423.0476867999532,Objects\062b.jpg,pre,o,1.377140700002201,None,,,,,,,,00044,001,2026-01-24_11h25.58.400,MST_test,2024.2.0,59.93371329675843,2026-01-24 11h26.06.934517 +0530,
71,0,72,n,2.0538373000454158,None,72,0,71,423.0629879999906,,,,,,,,,,,,,,,,,,,,,,,,,,,,,,,,,,,,,,,,,,,,,,,,,,423.0478060999885,423.0629879999906,423.56311429996276,423.54652069997974,423.5584635999985,423.56311429996276,423.56311429996276,423.56311429996276,425.6308592999703,Foils\scenes13.jpg,none,n,2.0538373000454158,None,,,,,,,,00044,001,2026-01-24_11h25.58.400,MST_test,2024.2.0,59.93371329675843,2026-01-24 11h26.06.934517 +0530,
72,0,73,s,1.6383778000017628,None,73,0,72,425.64593629998853,,,,,,,,,,,,,,,,,,,,,,,,,,,,,,,,,,,,,,,,,,,,,,,,,,425.63097050000215,425.64593629998853,426.146823099989,426.1298745999811,426.14273919997504,426.146823099989,426.146823099989,426.146823099989,427.79693569999654,Objects\079b.jpg,post,s,1.6383778000017628,None,,,,,,,,00044,001,2026-01-24_11h25.58.400,MST_test,2024.2.0,59.93371329675843,2026-01-24 11h26.06.934517 +0530,
73,0,74,s,3.0956775000086054,None,74,0,73,427.8128815999953,,,,,,,,,,,,,,,,,,,,,,,,,,,,,,,,,,,,,,,,,,,,,,,,,,427.7970512000029,427.8128815999953,428.3136236999999,428.2965613999986,428.30560919997515,428.3136236999999,428.3136236999999,428.3136236999999,431.4136132999556,Scenes\073a.jpg,pre,s,3.0956775000086054,None,,,,,,,,00044,001,2026-01-24_11h25.58.400,MST_test,2024.2.0,59.93371329675843,2026-01-24 11h26.06.934517 +0530,
74,0,75,o,1.903390199993737,None,75,0,74,431.42985219997354,,,,,,,,,,,,,,,,,,,,,,,,,,,,,,,,,,,,,,,,,,,,,,,,,,431.4137256999966,431.42985219997354,431.93024099996546,431.9131850999547,431.91664339997806,431.93024099996546,431.93024099996546,431.93024099996546,433.84725920000346,Objects\182a.jpg,pre,o,1.903390199993737,None,,,,,,,,00044,001,2026-01-24_11h25.58.400,MST_test,2024.2.0,59.93371329675843,2026-01-24 11h26.06.934517 +0530,
75,0,76,o,1.1097921999753453,None,76,0,75,433.8630975999986,,,,,,,,,,,,,,,,,,,,,,,,,,,,,,,,,,,,,,,,,,,,,,,,,,433.8473698999733,433.8630975999986,434.3632371999556,434.3467711999547,434.35737339995103,434.3632371999556,434.3632371999556,434.3632371999556,435.4805639999686,Objects\034b.jpg,mid,o,1.1097921999753453,None,,,,,,,,00044,001,2026-01-24_11h25.58.400,MST_test,2024.2.0,59.93371329675843,2026-01-24 11h26.06.934517 +0530,
76,0,77,o,1.9173122000065632,None,77,0,76,435.4970739999553,,,,,,,,,,,,,,,,,,,,,,,,,,,,,,,,,,,,,,,,,,,,,,,,,,435.4806741999928,435.4970739999553,435.9962686999934,435.98004299995955,435.982781699975,435.9962686999934,435.9962686999934,435.9962686999934,437.9310082999873,Objects\137a.jpg,mid,o,1.9173122000065632,None,,,,,,,,00044,001,2026-01-24_11h25.58.400,MST_test,2024.2.0,59.93371329675843,2026-01-24 11h26.06.934517 +0530,
77,0,78,n,2.658861399977468,None,78,0,77,437.946251699992,,,,,,,,,,,,,,,,,,,,,,,,,,,,,,,,,,,,,,,,,,,,,,,,,,437.93111760000465,437.946251699992,438.4468893999583,438.42987859999994,438.4404250999796,438.4468893999583,438.4468893999583,438.4468893999583,441.1142477999674,Foils\113a.jpg,none,n,2.658861399977468,None,,,,,,,,00044,001,2026-01-24_11h25.58.400,MST_test,2024.2.0,59.93371329675843,2026-01-24 11h26.06.934517 +0530,
78,0,79,o,2.7870912000071257,None,79,0,78,441.1295462999842,,,,,,,,,,,,,,,,,,,,,,,,,,,,,,,,,,,,,,,,,,,,,,,,,,441.1143634999753,441.1295462999842,441.6302838999545,441.61343349999515,441.627805600001,441.6302838999545,441.6302838999545,441.6302838999545,444.43024570000125,Scenes\113b.jpg,mid,o,2.7870912000071257,None,,,,,,,,00044,001,2026-01-24_11h25.58.400,MST_test,2024.2.0,59.93371329675843,2026-01-24 11h26.06.934517 +0530,
79,0,80,o,2.838733799988404,None,80,0,79,444.4460205999785,,,,,,,,,,,,,,,,,,,,,,,,,,,,,,,,,,,,,,,,,,,,,,,,,,444.43042649998097,444.4460205999785,444.9465949999867,444.9300002999953,444.941471499973,444.9465949999867,444.9465949999867,444.9465949999867,447.79692090000026,Foils\065a.jpg,none,o,2.838733799988404,None,,,,,,,,00044,001,2026-01-24_11h25.58.400,MST_test,2024.2.0,59.93371329675843,2026-01-24 11h26.06.934517 +0530,
80,0,81,s,4.03965779999271,None,81,0,80,447.8126849999535,,,,,,,,,,,,,,,,,,,,,,,,,,,,,,,,,,,,,,,,,,,,,,,,,,447.797027099994,447.8126849999535,448.31334279995644,448.2967253999668,448.29997130000265,448.31334279995644,448.31334279995644,448.31334279995644,452.3635865999968,Objects\069a.jpg,post,s,4.03965779999271,None,,,,,,,,00044,001,2026-01-24_11h25.58.400,MST_test,2024.2.0,59.93371329675843,2026-01-24 11h26.06.934517 +0530,
81,0,82,n,5.387812600005418,None,82,0,81,452.3799737999798,,,,,,,,,,,,,,,,,,,,,,,,,,,,,,,,,,,,,,,,,,,,,,,,,,452.3636988999788,452.3799737999798,452.8858782000025,452.8634100999916,452.88325640000403,452.8858782000025,452.8858782000025,452.8858782000025,458.2803880999563,Scenes\160b.jpg,pre,n,5.387812600005418,None,,,,,,,,00044,001,2026-01-24_11h25.58.400,MST_test,2024.2.0,59.93371329675843,2026-01-24 11h26.06.934517 +0530,
82,0,83,s,3.197843300004024,None,83,0,82,458.2962109000073,,,,,,,,,,,,,,,,,,,,,,,,,,,,,,,,,,,,,,,,,,,,,,,,,,458.2805045999703,458.2962109000073,458.8037218999816,458.78010809997795,458.80095109995455,458.8037218999816,458.8037218999816,458.8037218999816,462.0141952999984,Scenes\127b.jpg,post,s,3.197843300004024,None,,,,,,,,00044,001,2026-01-24_11h25.58.400,MST_test,2024.2.0,59.93371329675843,2026-01-24 11h26.06.934517 +0530,
83,0,84,s,2.531922200054396,None,84,0,83,462.0295589999878,,,,,,,,,,,,,,,,,,,,,,,,,,,,,,,,,,,,,,,,,,,,,,,,,,462.0143018999952,462.0295589999878,462.54156939999666,462.5136668999912,462.539139600005,462.54156939999666,462.54156939999666,462.54156939999666,465.0807228999911,Scenes\145b.jpg,post,s,2.531922200054396,None,,,,,,,,00044,001,2026-01-24_11h25.58.400,MST_test,2024.2.0,59.93371329675843,2026-01-24 11h26.06.934517 +0530,
84,0,85,o,1.6504823999712244,None,85,0,84,465.09650119999424,,,,,,,,,,,,,,,,,,,,,,,,,,,,,,,,,,,,,,,,,,,,,,,,,,465.08083289995557,465.09650119999424,465.5983290000004,465.5809065999929,465.5844963999698,465.5983290000004,465.5983290000004,465.5983290000004,467.26410919998307,Objects\089a.jpg,post,o,1.6504823999712244,None,,,,,,,,00044,001,2026-01-24_11h25.58.400,MST_test,2024.2.0,59.93371329675843,2026-01-24 11h26.06.934517 +0530,
85,0,86,o,2.3732753999647684,None,86,0,85,467.2795726999757,,,,,,,,,,,,,,,,,,,,,,,,,,,,,,,,,,,,,,,,,,,,,,,,,,467.26422439998714,467.2795726999757,467.7799892000039,467.7630818999605,467.7743222999852,467.7799892000039,467.7799892000039,467.7799892000039,470.1640577999642,Scenes\047a.jpg,post,o,2.3732753999647684,None,,,,,,,,00044,001,2026-01-24_11h25.58.400,MST_test,2024.2.0,59.93371329675843,2026-01-24 11h26.06.934517 +0530,
86,0,87,o,6.241265499964356,None,87,0,86,470.1799640999525,,,,,,,,,,,,,,,,,,,,,,,,,,,,,,,,,,,,,,,,,,,,,,,,,,470.16416899999604,470.1799640999525,470.68015179998474,470.6630968999816,470.67385959997773,470.68015179998474,470.68015179998474,470.68015179998474,476.9305714999791,Objects\175b.jpg,post,o,6.241265499964356,None,,,,,,,,00044,001,2026-01-24_11h25.58.400,MST_test,2024.2.0,59.93371329675843,2026-01-24 11h26.06.934517 +0530,
87,0,88,o,1.457999899983406,None,88,0,87,476.94672710000305,,,,,,,,,,,,,,,,,,,,,,,,,,,,,,,,,,,,,,,,,,,,,,,,,,476.93068140000105,476.94672710000305,477.4471851999988,477.43009739997797,477.43302619998576,477.4471851999988,477.4471851999988,477.4471851999988,478.91372599999886,Objects\171a.jpg,post,o,1.457999899983406,None,,,,,,,,00044,001,2026-01-24_11h25.58.400,MST_test,2024.2.0,59.93371329675843,2026-01-24 11h26.06.934517 +0530,
88,0,89,o,1.5709202999714762,None,89,0,88,478.92959889996564,,,,,,,,,,,,,,,,,,,,,,,,,,,,,,,,,,,,,,,,,,,,,,,,,,478.91383699997095,478.92959889996564,479.43034580000676,479.41359899996314,479.419027899974,479.43034580000676,479.43034580000676,479.43034580000676,481.0142844999791,Scenes\014a.jpg,post,o,1.5709202999714762,None,,,,,,,,00044,001,2026-01-24_11h25.58.400,MST_test,2024.2.0,59.93371329675843,2026-01-24 11h26.06.934517 +0530,
89,0,90,o,5.359379599976819,None,90,0,89,481.029733399977,,,,,,,,,,,,,,,,,,,,,,,,,,,,,,,,,,,,,,,,,,,,,,,,,,481.0143998999847,481.029733399977,481.5302260000026,481.51337519998197,481.52188239997486,481.5302260000026,481.5302260000026,481.5302260000026,486.8971618999494,Scenes\095a.jpg,mid,o,5.359379599976819,None,,,,,,,,00044,001,2026-01-24_11h25.58.400,MST_test,2024.2.0,59.93371329675843,2026-01-24 11h26.06.934517 +0530,
90,0,91,o,1.6748808000120334,None,91,0,90,486.91336459998274,,,,,,,,,,,,,,,,,,,,,,,,,,,,,,,,,,,,,,,,,,,,,,,,,,486.89727329998277,486.91336459998274,487.41396069998154,487.3968134999741,487.4060942999786,487.41396069998154,487.41396069998154,487.41396069998154,489.09676220000256,Scenes\115a.jpg,mid,o,1.6748808000120334,None,,,,,,,,00044,001,2026-01-24_11h25.58.400,MST_test,2024.2.0,59.93371329675843,2026-01-24 11h26.06.934517 +0530,
91,0,92,o,1.2835040000500157,None,92,0,91,489.1131873999839,,,,,,,,,,,,,,,,,,,,,,,,,,,,,,,,,,,,,,,,,,,,,,,,,,489.09686549997423,489.1131873999839,489.6138307999936,489.5965035999543,489.60574979998637,489.6138307999936,489.6138307999936,489.6138307999936,490.91368489997694,Scenes\132a.jpg,pre,o,1.2835040000500157,None,,,,,,,,00044,001,2026-01-24_11h25.58.400,MST_test,2024.2.0,59.93371329675843,2026-01-24 11h26.06.934517 +0530,
92,0,93,s,2.552794300019741,None,93,0,92,490.92945789999794,,,,,,,,,,,,,,,,,,,,,,,,,,,,,,,,,,,,,,,,,,,,,,,,,,490.91379949997645,490.92945789999794,,491.41453429998364,491.4300537999952,491.4328278999892,491.4328278999892,491.4328278999892,493.99755569995614,Foils\086a.jpg,none,s,2.552794300019741,None,,,,,,,,00044,001,2026-01-24_11h25.58.400,MST_test,2024.2.0,59.93371329675843,2026-01-24 11h26.06.934517 +0530,
93,0,94,n,1.5827335999929346,None,94,0,93,494.0129818999558,,,,,,,,,,,,,,,,,,,,,,,,,,,,,,,,,,,,,,,,,,,,,,,,,,493.99770760000683,494.0129818999558,494.51446159998886,494.4964536000043,494.5120803999598,494.51446159998886,494.51446159998886,494.51446159998886,496.09805069997674,Scenes\091b.jpg,post,n,1.5827335999929346,None,,,,,,,,00044,001,2026-01-24_11h25.58.400,MST_test,2024.2.0,59.93371329675843,2026-01-24 11h26.06.934517 +0530,
94,0,95,s,1.5477862000116147,None,95,0,94,496.1131575999898,,,,,,,,,,,,,,,,,,,,,,,,,,,,,,,,,,,,,,,,,,,,,,,,,,496.0981663999846,496.1131575999898,496.6136380999815,496.596690699982,496.6086049999576,496.6136380999815,496.6136380999815,496.6136380999815,498.163729199965,Objects\157b.jpg,post,s,1.5477862000116147,None,,,,,,,,00044,001,2026-01-24_11h25.58.400,MST_test,2024.2.0,59.93371329675843,2026-01-24 11h26.06.934517 +0530,
95,0,96,o,1.6815302000031807,None,96,0,95,498.17959369998425,,,,,,,,,,,,,,,,,,,,,,,,,,,,,,,,,,,,,,,,,,,,,,,,,,498.16383799997857,498.17959369998425,498.68003269995097,498.66354569996474,498.6666447999887,498.68003269995097,498.68003269995097,498.68003269995097,500.3640449999948,Objects\134a.jpg,pre,o,1.6815302000031807,None,,,,,,,,00044,001,2026-01-24_11h25.58.400,MST_test,2024.2.0,59.93371329675843,2026-01-24 11h26.06.934517 +0530,
96,0,97,s,1.233538700034842,None,97,0,96,500.379444399965,,,,,,,,,,,,,,,,,,,,,,,,,,,,,,,,,,,,,,,,,,,,,,,,,,500.36415409995243,500.379444399965,500.87971259996993,500.86318589997245,500.87423009995837,500.87971259996993,500.87971259996993,500.87971259996993,502.130908799998,Foils\009a.jpg,none,s,1.233538700034842,None,,,,,,,,00044,001,2026-01-24_11h25.58.400,MST_test,2024.2.0,59.93371329675843,2026-01-24 11h26.06.934517 +0530,
97,0,98,n,1.0734179000137374,None,98,0,97,502.1466147999745,,,,,,,,,,,,,,,,,,,,,,,,,,,,,,,,,,,,,,,,,,,,,,,,,,502.1310181999579,502.1466147999745,502.6473119999864,502.6300205999869,502.639873099979,502.6473119999864,502.6473119999864,502.6473119999864,503.73022639995907,Foils\scenes16.jpg,none,n,1.0734179000137374,None,,,,,,,,00044,001,2026-01-24_11h25.58.400,MST_test,2024.2.0,59.93371329675843,2026-01-24 11h26.06.934517 +0530,
98,0,99,s,2.106159500021022,None,99,0,98,503.74619999999413,,,,,,,,,,,,,,,,,,,,,,,,,,,,,,,,,,,,,,,,,,,,,,,,,,503.73033669998404,503.74619999999413,504.2469567999942,504.2298769999761,504.2395678999601,504.2469567999942,504.2469567999942,504.2469567999942,506.363753099984,Scenes\119a.jpg,pre,s,2.106159500021022,None,,,,,,,,00044,001,2026-01-24_11h25.58.400,MST_test,2024.2.0,59.93371329675843,2026-01-24 11h26.06.934517 +0530,
99,0,100,o,1.0892469999962486,None,100,0,99,506.3795247999951,,,,,,,,,,,,,,,,,,,,,,,,,,,,,,,,,,,,,,,,,,,,,,,,,,506.3638666999759,506.3795247999951,506.8802937999717,506.8637463999912,506.8673635000014,506.8802937999717,506.8802937999717,506.8802937999717,507.98033279995434,Objects\133a.jpg,pre,o,1.0892469999962486,None,,,,,,,,00044,001,2026-01-24_11h25.58.400,MST_test,2024.2.0,59.93371329675843,2026-01-24 11h26.06.934517 +0530,
100,0,101,s,2.232903699972667,None,101,0,100,507.99624859995674,,,,,,,,,,,,,,,,,,,,,,,,,,,,,,,,,,,,,,,,,,,,,,,,,,507.980451099982,507.99624859995674,508.4963831999921,508.48050720000174,508.4834525999613,508.4963831999921,508.4963831999921,508.4963831999921,510.73050609999336,Objects\026a.jpg,post,s,2.232903699972667,None,,,,,,,,00044,001,2026-01-24_11h25.58.400,MST_test,2024.2.0,59.93371329675843,2026-01-24 11h26.06.934517 +0530,
101,0,102,o,1.8509036999894306,None,102,0,101,510.74655879999045,,,,,,,,,,,,,,,,,,,,,,,,,,,,,,,,,,,,,,,,,,,,,,,,,,510.73062439996284,510.74655879999045,511.24645139998756,511.23031209997134,511.23292499996023,511.24645139998756,511.24645139998756,511.24645139998756,513.1137788000051,Objects\091a.jpg,mid,o,1.8509036999894306,None,,,,,,,,00044,001,2026-01-24_11h25.58.400,MST_test,2024.2.0,59.93371329675843,2026-01-24 11h26.06.934517 +0530,
102,0,103,o,1.539289899985306,None,103,0,102,513.1298017999507,,,,,,,,,,,,,,,,,,,,,,,,,,,,,,,,,,,,,,,,,,,,,,,,,,513.1138855000027,513.1298017999507,513.6300920000067,513.6133736000047,513.6226814999827,513.6300920000067,513.6300920000067,513.6300920000067,515.1808108999976,Scenes\074a.jpg,post,o,1.539289899985306,None,,,,,,,,00044,001,2026-01-24_11h25.58.400,MST_test,2024.2.0,59.93371329675843,2026-01-24 11h26.06.934517 +0530,
103,0,104,o,0.8964938999852166,None,104,0,103,515.1965729999938,,,,,,,,,,,,,,,,,,,,,,,,,,,,,,,,,,,,,,,,,,,,,,,,,,515.1809179999982,515.1965729999938,515.6963973999955,515.6798842999851,515.6908024000004,515.6963973999955,515.6963973999955,515.6963973999955,516.5969349999796,Objects\070b.jpg,post,o,0.8964938999852166,None,,,,,,,,00044,001,2026-01-24_11h25.58.400,MST_test,2024.2.0,59.93371329675843,2026-01-24 11h26.06.934517 +0530,
104,0,105,o,1.2079781999927945,None,105,0,104,516.6129940999672,,,,,,,,,,,,,,,,,,,,,,,,,,,,,,,,,,,,,,,,,,,,,,,,,,516.5970413999748,516.6129940999672,517.1132711999817,517.0965214999742,517.1073641999974,517.1132711999817,517.1132711999817,517.1132711999817,518.3306987999822,Foils\066a.jpg,none,o,1.2079781999927945,None,,,,,,,,00044,001,2026-01-24_11h25.58.400,MST_test,2024.2.0,59.93371329675843,2026-01-24 11h26.06.934517 +0530,
105,0,106,o,1.1859554999973625,None,106,0,105,518.3461788999848,,,,,,,,,,,,,,,,,,,,,,,,,,,,,,,,,,,,,,,,,,,,,,,,,,518.3308045999729,518.3461788999848,518.8469121999806,518.8304298999719,518.8413694999763,518.8469121999806,518.8469121999806,518.8469121999806,520.0473659999552,Scenes\041a.jpg,mid,o,1.1859554999973625,None,,,,,,,,00044,001,2026-01-24_11h25.58.400,MST_test,2024.2.0,59.93371329675843,2026-01-24 11h26.06.934517 +0530,
106,0,107,o,1.5256214999826625,None,107,0,106,520.0633694999851,,,,,,,,,,,,,,,,,,,,,,,,,,,,,,,,,,,,,,,,,,,,,,,,,,520.0474711999996,520.0633694999851,520.5637966999784,520.546508600004,520.5577956999769,520.5637966999784,520.5637966999784,520.5637966999784,522.0972233999637,Scenes\003a.jpg,pre,o,1.5256214999826625,None,,,,,,,,00044,001,2026-01-24_11h25.58.400,MST_test,2024.2.0,59.93371329675843,2026-01-24 11h26.06.934517 +0530,
107,0,108,s,4.279598699999042,None,108,0,107,522.1130631999695,,,,,,,,,,,,,,,,,,,,,,,,,,,,,,,,,,,,,,,,,,,,,,,,,,522.0973328999826,522.1130631999695,522.6177445999929,522.5964192999527,522.6150608999887,522.6177445999929,522.6177445999929,522.6177445999929,526.9143548999564,Scenes\126b.jpg,post,s,4.279598699999042,None,,,,,,,,00044,001,2026-01-24_11h25.58.400,MST_test,2024.2.0,59.93371329675843,2026-01-24 11h26.06.934517 +0530,
108,0,109,n,3.2588185999775305,None,109,0,108,526.9294904999551,,,,,,,,,,,,,,,,,,,,,,,,,,,,,,,,,,,,,,,,,,,,,,,,,,526.9144673999981,526.9294904999551,527.4302734999801,527.4132710999693,527.4265576999751,527.4302734999801,527.4302734999801,527.4302734999801,530.696836899966,Scenes\023a.jpg,post,n,3.2588185999775305,None,,,,,,,,00044,001,2026-01-24_11h25.58.400,MST_test,2024.2.0,59.93371329675843,2026-01-24 11h26.06.934517 +0530,
109,0,110,n,4.136530900024809,None,110,0,109,530.7130886999657,,,,,,,,,,,,,,,,,,,,,,,,,,,,,,,,,,,,,,,,,,,,,,,,,,530.6969618999865,530.7130886999657,531.2164570000023,531.1963985000039,531.2136021999759,531.2164570000023,531.2164570000023,531.2164570000023,535.3639451999916,Scenes\042b.jpg,pre,n,4.136530900024809,None,,,,,,,,00044,001,2026-01-24_11h25.58.400,MST_test,2024.2.0,59.93371329675843,2026-01-24 11h26.06.934517 +0530,
110,0,111,s,1.4494056000257842,None,111,0,110,535.3798579999711,,,,,,,,,,,,,,,,,,,,,,,,,,,,,,,,,,,,,,,,,,,,,,,,,,535.3640482999617,535.3798579999711,535.8803758999566,535.8631526999525,535.8744520999608,535.8803758999566,535.8803758999566,535.8803758999566,537.3304005999817,Objects\035b.jpg,post,s,1.4494056000257842,None,,,,,,,,00044,001,2026-01-24_11h25.58.400,MST_test,2024.2.0,59.93371329675843,2026-01-24 11h26.06.934517 +0530,
111,0,112,n,9.922513100027572,None,112,0,111,537.3464888999588,,,,,,,,,,,,,,,,,,,,,,,,,,,,,,,,,,,,,,,,,,,,,,,,,,537.33050739998,537.3464888999588,537.8550833999761,537.829578899953,537.8522248999798,537.8550833999761,537.8550833999761,537.8550833999761,547.7803012999939,Scenes\032b.jpg,pre,n,9.922513100027572,None,,,,,,,,00044,001,2026-01-24_11h25.58.400,MST_test,2024.2.0,59.93371329675843,2026-01-24 11h26.06.934517 +0530,
112,0,113,o,1.7047295000520535,None,113,0,112,547.7960192000028,,,,,,,,,,,,,,,,,,,,,,,,,,,,,,,,,,,,,,,,,,,,,,,,,,547.7804228999885,547.7960192000028,548.2968969999929,548.2798268999904,548.2905909999972,548.2968969999929,548.2968969999929,548.2968969999929,550.0140075999661,Objects\119b.jpg,pre,o,1.7047295000520535,None,,,,,,,,00044,001,2026-01-24_11h25.58.400,MST_test,2024.2.0,59.93371329675843,2026-01-24 11h26.06.934517 +0530,
113,0,114,s,1.5269456999958493,None,114,0,113,550.0300934999832,,,,,,,,,,,,,,,,,,,,,,,,,,,,,,,,,,,,,,,,,,,,,,,,,,550.0141174999881,550.0300934999832,550.5298979000072,550.5131394999917,550.5237866999814,550.5298979000072,550.5298979000072,550.5298979000072,552.0645415000035,Foils\018a.jpg,none,s,1.5269456999958493,None,,,,,,,,00044,001,2026-01-24_11h25.58.400,MST_test,2024.2.0,59.93371329675843,2026-01-24 11h26.06.934517 +0530,
114,0,115,o,1.7174590000067838,None,115,0,114,552.0798270999803,,,,,,,,,,,,,,,,,,,,,,,,,,,,,,,,,,,,,,,,,,,,,,,,,,552.0646517999703,552.0798270999803,552.5798525999999,552.5632299999706,552.5659435999696,552.5798525999999,552.5798525999999,552.5798525999999,554.3141042999923,Objects\101a.jpg,post,o,1.7174590000067838,None,,,,,,,,00044,001,2026-01-24_11h25.58.400,MST_test,2024.2.0,59.93371329675843,2026-01-24 11h26.06.934517 +0530,
115,0,116,o,1.1956199000123888,None,116,0,115,554.3302296999609,,,,,,,,,,,,,,,,,,,,,,,,,,,,,,,,,,,,,,,,,,,,,,,,,,554.3142187999911,554.3302296999609,554.8300722999847,554.8134746999713,554.8231831999728,554.8300722999847,554.8300722999847,554.8300722999847,556.0309965999913,Scenes\107a.jpg,mid,o,1.1956199000123888,None,,,,,,,,00044,001,2026-01-24_11h25.58.400,MST_test,2024.2.0,59.93371329675843,2026-01-24 11h26.06.934517 +0530,
116,0,117,o,1.6226154000032693,None,117,0,116,556.0461908999714,,,,,,,,,,,,,,,,,,,,,,,,,,,,,,,,,,,,,,,,,,,,,,,,,,556.031118599989,556.0461908999714,556.5469202999957,556.5298322999734,556.5426218999783,556.5469202999957,556.5469202999957,556.5469202999957,558.1803959999816,Scenes\035a.jpg,pre,o,1.6226154000032693,None,,,,,,,,00044,001,2026-01-24_11h25.58.400,MST_test,2024.2.0,59.93371329675843,2026-01-24 11h26.06.934517 +0530,
117,0,118,o,1.4173885000054725,None,118,0,117,558.196403799986,,,,,,,,,,,,,,,,,,,,,,,,,,,,,,,,,,,,,,,,,,,,,,,,,,558.1805079999613,558.196403799986,558.7036244999617,558.6801692000008,558.699832299957,558.7036244999617,558.7036244999617,558.7036244999617,560.1305536999716,Scenes\106b.jpg,pre,o,1.4173885000054725,None,,,,,,,,00044,001,2026-01-24_11h25.58.400,MST_test,2024.2.0,59.93371329675843,2026-01-24 11h26.06.934517 +0530,
118,0,119,o,1.4185300000244752,None,119,0,118,560.1459841000033,,,,,,,,,,,,,,,,,,,,,,,,,,,,,,,,,,,,,,,,,,,,,,,,,,560.1306724000024,560.1459841000033,560.6468228999875,560.6301304999506,560.6412657999899,560.6468228999875,560.6468228999875,560.6468228999875,562.0806382999872,Objects\114b.jpg,pre,o,1.4185300000244752,None,,,,,,,,00044,001,2026-01-24_11h25.58.400,MST_test,2024.2.0,59.93371329675843,2026-01-24 11h26.06.934517 +0530,
119,0,120,n,4.3482249999651685,None,120,0,119,562.0962124999496,,,,,,,,,,,,,,,,,,,,,,,,,,,,,,,,,,,,,,,,,,,,,,,,,,562.0808349999716,562.0962124999496,562.596872199967,562.5797470999532,562.589613899996,562.596872199967,562.596872199967,562.596872199967,566.9472380999941,Foils\scenes12.jpg,none,n,4.3482249999651685,None,,,,,,,,00044,001,2026-01-24_11h25.58.400,MST_test,2024.2.0,59.93371329675843,2026-01-24 11h26.06.934517 +0530,
120,0,121,n,1.5867088999948464,None,121,0,120,566.9627848999808,,,,,,,,,,,,,,,,,,,,,,,,,,,,,,,,,,,,,,,,,,,,,,,,,,566.9473588999826,566.9627848999808,567.4629735999624,567.4461162999505,567.4577584999497,567.4629735999624,567.4629735999624,567.4629735999624,569.0640672000009,Foils\105a.jpg,none,n,1.5867088999948464,None,,,,,,,,00044,001,2026-01-24_11h25.58.400,MST_test,2024.2.0,59.93371329675843,2026-01-24 11h26.06.934517 +0530,
121,0,122,o,1.6210878000129014,None,122,0,121,569.080189500004,,,,,,,,,,,,,,,,,,,,,,,,,,,,,,,,,,,,,,,,,,,,,,,,,,569.0641815999988,569.080189500004,569.5802865999867,569.5632750999648,569.5724536000052,569.5802865999867,569.5802865999867,569.5802865999867,571.2137602999574,Scenes\077a.jpg,mid,o,1.6210878000129014,None,,,,,,,,00044,001,2026-01-24_11h25.58.400,MST_test,2024.2.0,59.93371329675843,2026-01-24 11h26.06.934517 +0530,
122,0,123,o,1.7670399999478832,None,123,0,122,571.2298559999908,,,,,,,,,,,,,,,,,,,,,,,,,,,,,,,,,,,,,,,,,,,,,,,,,,571.2138891000068,571.2298559999908,571.7302471000003,571.7133170999587,571.7242016999517,571.7302471000003,571.7302471000003,571.7302471000003,573.5137324999669,Objects\061b.jpg,mid,o,1.7670399999478832,None,,,,,,,,00044,001,2026-01-24_11h25.58.400,MST_test,2024.2.0,59.93371329675843,2026-01-24 11h26.06.934517 +0530,
123,0,124,n,3.8987709999782965,None,124,0,123,573.5295077000046,,,,,,,,,,,,,,,,,,,,,,,,,,,,,,,,,,,,,,,,,,,,,,,,,,573.5138500999892,573.5295077000046,574.0299571999931,574.0138224999537,574.0236306999577,574.0299571999931,574.0299571999931,574.0299571999931,577.9303649999783,Foils\scenes11.jpg,none,n,3.8987709999782965,None,,,,,,,,00044,001,2026-01-24_11h25.58.400,MST_test,2024.2.0,59.93371329675843,2026-01-24 11h26.06.934517 +0530,
124,0,125,s,2.1073621999821626,None,125,0,124,577.9459472000017,,,,,,,,,,,,,,,,,,,,,,,,,,,,,,,,,,,,,,,,,,,,,,,,,,577.9304837999516,577.9459472000017,578.4463155999547,578.4301792999613,578.433821899991,578.4463155999547,578.4463155999547,578.4463155999547,580.5635408999515,Objects\036a.jpg,pre,s,2.1073621999821626,None,,,,,,,,00044,001,2026-01-24_11h25.58.400,MST_test,2024.2.0,59.93371329675843,2026-01-24 11h26.06.934517 +0530,
125,0,126,o,1.240981999959331,None,126,0,125,580.5795631000074,,,,,,,,,,,,,,,,,,,,,,,,,,,,,,,,,,,,,,,,,,,,,,,,,,580.5636535999947,580.5795631000074,581.0798979999963,581.0638781999587,581.0745858000009,581.0798979999963,581.0798979999963,581.0798979999963,582.3305899999687,Objects\019b.jpg,post,o,1.240981999959331,None,,,,,,,,00044,001,2026-01-24_11h25.58.400,MST_test,2024.2.0,59.93371329675843,2026-01-24 11h26.06.934517 +0530,
126,0,127,o,0.9621481000212952,None,127,0,126,582.3464189999504,,,,,,,,,,,,,,,,,,,,,,,,,,,,,,,,,,,,,,,,,,,,,,,,,,582.3307069999864,582.3464189999504,582.8467579999706,582.8297857999569,582.8401009999798,582.8467579999706,582.8467579999706,582.8467579999706,583.8136026999564,Objects\152b.jpg,pre,o,0.9621481000212952,None,,,,,,,,00044,001,2026-01-24_11h25.58.400,MST_test,2024.2.0,59.93371329675843,2026-01-24 11h26.06.934517 +0530,
127,0,128,n,1.7830602999893017,None,128,0,127,583.8294199999655,,,,,,,,,,,,,,,,,,,,,,,,,,,,,,,,,,,,,,,,,,,,,,,,,,583.8137126999791,583.8294199999655,584.4184973999509,584.3133151999791,584.414392000006,584.4184973999509,584.4184973999509,584.4184973999509,586.213921699964,Foils\scenes25.jpg,none,n,1.7830602999893017,None,,,,,,,,00044,001,2026-01-24_11h25.58.400,MST_test,2024.2.0,59.93371329675843,2026-01-24 11h26.06.934517 +0530,
128,0,129,n,2.086161600018386,None,129,0,128,586.2298929999815,,,,,,,,,,,,,,,,,,,,,,,,,,,,,,,,,,,,,,,,,,,,,,,,,,586.2140409999993,586.2298929999815,586.7312890999601,586.7129059999716,586.7245472999639,586.7312890999601,586.7312890999601,586.7312890999601,588.8312133,Objects\176a.jpg,mid,n,2.086161600018386,None,,,,,,,,00044,001,2026-01-24_11h25.58.400,MST_test,2024.2.0,59.93371329675843,2026-01-24 11h26.06.934517 +0530,
129,0,130,o,3.1347196999704465,None,130,0,129,588.846909099957,,,,,,,,,,,,,,,,,,,,,,,,,,,,,,,,,,,,,,,,,,,,,,,,,,588.8313315999694,588.846909099957,589.3461303999647,589.3300902000046,589.3411635999801,589.3461303999647,589.3461303999647,589.3461303999647,592.4971190999495,Objects\060b.jpg,post,o,3.1347196999704465,None,,,,,,,,00044,001,2026-01-24_11h25.58.400,MST_test,2024.2.0,59.93371329675843,2026-01-24 11h26.06.934517 +0530,
130,0,131,n,6.179551500012167,None,131,0,130,592.5127709999797,,,,,,,,,,,,,,,,,,,,,,,,,,,,,,,,,,,,,,,,,,,,,,,,,,592.4972277999623,592.5127709999797,593.0131802999531,592.9968709999812,593.0083255000063,593.0131802999531,593.0131802999531,593.0131802999531,599.1971481999499,Scenes\038a.jpg,mid,n,6.179551500012167,None,,,,,,,,00044,001,2026-01-24_11h25.58.400,MST_test,2024.2.0,59.93371329675843,2026-01-24 11h26.06.934517 +0530,
131,0,132,n,1.1281361000146717,None,132,0,131,599.2125830999576,,,,,,,,,,,,,,,,,,,,,,,,,,,,,,,,,,,,,,,,,,,,,,,,,,599.1972567999619,599.2125830999576,599.7132381999982,599.6966111999936,599.7059557999601,599.7132381999982,599.7132381999982,599.7132381999982,600.8471725999843,Scenes\055a.jpg,mid,n,1.1281361000146717,None,,,,,,,,00044,001,2026-01-24_11h25.58.400,MST_test,2024.2.0,59.93371329675843,2026-01-24 11h26.06.934517 +0530,
132,0,133,n,0.9980324000352994,None,133,0,132,600.8631251999759,,,,,,,,,,,,,,,,,,,,,,,,,,,,,,,,,,,,,,,,,,,,,,,,,,600.8472975000041,600.8631251999759,601.3638170000049,601.3466535999905,601.3591938999598,601.3638170000049,601.3638170000049,601.3638170000049,602.3643481999752,Foils\010a.jpg,none,n,0.9980324000352994,None,,,,,,,,00044,001,2026-01-24_11h25.58.400,MST_test,2024.2.0,59.93371329675843,2026-01-24 11h26.06.934517 +0530,
133,0,134,n,0.7129853999940678,None,134,0,133,602.3797528999858,,,,,,,,,,,,,,,,,,,,,,,,,,,,,,,,,,,,,,,,,,,,,,,,,,602.364465199993,602.3797528999858,602.8804123000009,602.8631416999851,602.8666297000018,602.8804123000009,602.8804123000009,602.8804123000009,603.5973237999715,Objects\118a.jpg,mid,n,0.7129853999940678,None,,,,,,,,00044,001,2026-01-24_11h25.58.400,MST_test,2024.2.0,59.93371329675843,2026-01-24 11h26.06.934517 +0530,
134,0,135,n,1.7199481999850832,None,135,0,134,603.6125267999596,,,,,,,,,,,,,,,,,,,,,,,,,,,,,,,,,,,,,,,,,,,,,,,,,,603.5974309999729,603.6125267999596,604.1134271000046,604.0967651999672,604.1073210999602,604.1134271000046,604.1134271000046,604.1134271000046,605.8473584000021,Objects\174b.jpg,mid,n,1.7199481999850832,None,,,,,,,,00044,001,2026-01-24_11h25.58.400,MST_test,2024.2.0,59.93371329675843,2026-01-24 11h26.06.934517 +0530,
135,0,136,s,3.998260200023651,None,136,0,135,605.8625430999673,,,,,,,,,,,,,,,,,,,,,,,,,,,,,,,,,,,,,,,,,,,,,,,,,,605.847478199983,605.8625430999673,606.3632033999893,606.3466336999554,606.3534846999682,606.3632033999893,606.3632033999893,606.3632033999893,610.36386329995,Scenes\024a.jpg,pre,s,3.998260200023651,None,,,,,,,,00044,001,2026-01-24_11h25.58.400,MST_test,2024.2.0,59.93371329675843,2026-01-24 11h26.06.934517 +0530,
136,0,137,s,2.8812098000198603,None,137,0,136,610.3795208999654,,,,,,,,,,,,,,,,,,,,,,,,,,,,,,,,,,,,,,,,,,,,,,,,,,610.3639726999681,610.3795208999654,610.8802652999875,610.8633559999871,610.8704141000053,610.8802652999875,610.8802652999875,610.8802652999875,613.763496199972,Scenes\154a.jpg,pre,s,2.8812098000198603,None,,,,,,,,00044,001,2026-01-24_11h25.58.400,MST_test,2024.2.0,59.93371329675843,2026-01-24 11h26.06.934517 +0530,
137,0,138,n,3.6646115999901667,None,138,0,137,613.7802642000024,,,,,,,,,,,,,,,,,,,,,,,,,,,,,,,,,,,,,,,,,,,,,,,,,,613.7636082999525,613.7802642000024,614.2803031999501,614.2634720999631,614.2703320999863,614.2803031999501,614.2803031999501,614.2803031999501,617.9469527999754,Scenes\163a.jpg,pre,n,3.6646115999901667,None,,,,,,,,00044,001,2026-01-24_11h25.58.400,MST_test,2024.2.0,59.93371329675843,2026-01-24 11h26.06.934517 +0530,
138,0,139,o,1.2897544999723323,None,139,0,138,617.9634656999842,,,,,,,,,,,,,,,,,,,,,,,,,,,,,,,,,,,,,,,,,,,,,,,,,,617.9470641999505,617.9634656999842,618.4631290999823,618.4467427000054,618.4500947999768,618.4631290999823,618.4631290999823,618.4631290999823,619.7638916999567,Objects\057a.jpg,pre,o,1.2897544999723323,None,,,,,,,,00044,001,2026-01-24_11h25.58.400,MST_test,2024.2.0,59.93371329675843,2026-01-24 11h26.06.934517 +0530,
139,0,140,n,2.94987879996188,None,140,0,139,619.7795652999775,,,,,,,,,,,,,,,,,,,,,,,,,,,,,,,,,,,,,,,,,,,,,,,,,,619.7640010999748,619.7795652999775,620.2833589999937,620.2629227999714,620.2809221000061,620.2833589999937,620.2833589999937,620.2833589999937,623.2472833999782,Scenes\069b.jpg,post,n,2.94987879996188,None,,,,,,,,00044,001,2026-01-24_11h25.58.400,MST_test,2024.2.0,59.93371329675843,2026-01-24 11h26.06.934517 +0530,
140,0,141,o,1.7260208000079729,None,141,0,140,623.2628708999837,,,,,,,,,,,,,,,,,,,,,,,,,,,,,,,,,,,,,,,,,,,,,,,,,,623.2473909999826,623.2628708999837,623.7633149999892,623.7466602000059,623.7578839999624,623.7633149999892,623.7633149999892,623.7633149999892,625.4973683999851,Objects\173b.jpg,pre,o,1.7260208000079729,None,,,,,,,,00044,001,2026-01-24_11h25.58.400,MST_test,2024.2.0,59.93371329675843,2026-01-24 11h26.06.934517 +0530,
141,0,142,o,1.2042597999679856,None,142,0,141,625.512975199963,,,,,,,,,,,,,,,,,,,,,,,,,,,,,,,,,,,,,,,,,,,,,,,,,,625.4974805999664,625.512975199963,626.0131031000055,625.9966418999829,625.9998389999964,626.0131031000055,626.0131031000055,626.0131031000055,627.2303555999533,Objects\082a.jpg,post,o,1.2042597999679856,None,,,,,,,,00044,001,2026-01-24_11h25.58.400,MST_test,2024.2.0,59.93371329675843,2026-01-24 11h26.06.934517 +0530,
142,0,143,o,1.5710282000363804,None,143,0,142,627.2464116999763,,,,,,,,,,,,,,,,,,,,,,,,,,,,,,,,,,,,,,,,,,,,,,,,,,627.230471399962,627.2464116999763,627.7505447999574,627.7296523999539,627.7475794999627,627.7505447999574,627.7505447999574,627.7505447999574,629.3305224999785,Scenes\068b.jpg,pre,o,1.5710282000363804,None,,,,,,,,00044,001,2026-01-24_11h25.58.400,MST_test,2024.2.0,59.93371329675843,2026-01-24 11h26.06.934517 +0530,
143,0,144,o,1.4509642000193708,None,144,0,143,629.3463600999676,,,,,,,,,,,,,,,,,,,,,,,,,,,,,,,,,,,,,,,,,,,,,,,,,,629.3306377999834,629.3463600999676,629.8465453999816,629.8302528999629,629.8409801999805,629.8465453999816,629.8465453999816,629.8465453999816,631.313309899997,Objects\161b.jpg,mid,o,1.4509642000193708,None,,,,,,,,00044,001,2026-01-24_11h25.58.400,MST_test,2024.2.0,59.93371329675843,2026-01-24 11h26.06.934517 +0530,
144,0,145,o,1.5869544000015594,None,145,0,144,631.3297464000061,,,,,,,,,,,,,,,,,,,,,,,,,,,,,,,,,,,,,,,,,,,,,,,,,,631.3134129999671,631.3297464000061,631.8301229999634,631.8135517999763,631.8241051999503,631.8301229999634,631.8301229999634,631.8301229999634,633.4303868999705,Objects\064b.jpg,post,o,1.5869544000015594,None,,,,,,,,00044,001,2026-01-24_11h25.58.400,MST_test,2024.2.0,59.93371329675843,2026-01-24 11h26.06.934517 +0530,
145,0,146,n,8.159230699995533,None,146,0,145,633.4459682999877,,,,,,,,,,,,,,,,,,,,,,,,,,,,,,,,,,,,,,,,,,,,,,,,,,633.4305006999639,633.4459682999877,633.9462908999994,633.9299364999752,633.9407582999556,633.9462908999994,633.9462908999994,633.9462908999994,642.1133355000056,Objects\032b.jpg,pre,n,8.159230699995533,None,,,,,,,,00044,001,2026-01-24_11h25.58.400,MST_test,2024.2.0,59.93371329675843,2026-01-24 11h26.06.934517 +0530,
146,0,147,o,2.9788598000304773,None,147,0,146,642.1295541999862,,,,,,,,,,,,,,,,,,,,,,,,,,,,,,,,,,,,,,,,,,,,,,,,,,642.1134645999991,642.1295541999862,,642.6140459000017,642.6254666000023,642.630027599982,642.630027599982,642.630027599982,645.6137724999571,Objects\023b.jpg,pre,o,2.9788598000304773,None,,,,,,,,00044,001,2026-01-24_11h25.58.400,MST_test,2024.2.0,59.93371329675843,2026-01-24 11h26.06.934517 +0530,
147,0,148,o,2.703411899972707,None,148,0,147,645.6299324999563,,,,,,,,,,,,,,,,,,,,,,,,,,,,,,,,,,,,,,,,,,,,,,,,,,645.6138988999883,645.6299324999563,646.129404999956,646.1131980000064,646.1161319999956,646.129404999956,646.129404999956,646.129404999956,648.8475680999691,Objects\184a.jpg,pre,o,2.703411899972707,None,,,,,,,,00044,001,2026-01-24_11h25.58.400,MST_test,2024.2.0,59.93371329675843,2026-01-24 11h26.06.934517 +0530,
148,0,149,n,2.254417399992235,None,149,0,148,648.8634324999875,,,,,,,,,,,,,,,,,,,,,,,,,,,,,,,,,,,,,,,,,,,,,,,,,,648.8477124999627,648.8634324999875,649.3628611000022,649.3466899999767,649.3577276999713,649.3628611000022,649.3628611000022,649.3628611000022,651.6309238999966,Foils\002a.jpg,none,n,2.254417399992235,None,,,,,,,,00044,001,2026-01-24_11h25.58.400,MST_test,2024.2.0,59.93371329675843,2026-01-24 11h26.06.934517 +0530,
149,0,150,o,1.7271319999708794,None,150,0,149,651.6471082000062,,,,,,,,,,,,,,,,,,,,,,,,,,,,,,,,,,,,,,,,,,,,,,,,,,651.6310427999706,651.6471082000062,652.1462317999685,652.1300336999702,652.1420137999812,652.1462317999685,652.1462317999685,652.1462317999685,653.8805189999985,Foils\073a.jpg,none,o,1.7271319999708794,None,,,,,,,,00044,001,2026-01-24_11h25.58.400,MST_test,2024.2.0,59.93371329675843,2026-01-24 11h26.06.934517 +0530,
,,,,,,,,,,,,,,,,,,,,,,,,,,,,,,,,,,,,,,,,,,,,,,,,,,,,,,,,,,,,,,,,,,,,,,,,,653.8805966000073,653.8963619999704,653.8963619999704,659.6974699999555,space,5.8004898999934085,None,00044,001,2026-01-24_11h25.58.400,MST_test,2024.2.0,59.93371329675843,2026-01-24 11h26.06.934517 +0530,
