Sl_no,image_path,thisN,thisTrialN,thisRepN,key_resp_5.keys,key_resp_7.keys,key_resp_7.rt,key_resp_7.duration,key_resp_5.rt,key_resp_5.duration,key_resp_9.keys,key_resp_9.rt,key_resp_9.duration,key_resp_8.keys,practice.thisRepN,practice.thisTrialN,practice.thisN,trials.thisRepN,trials.thisTrialN,trials.thisN,thisRow.t,notes,welcome_page.started,text.started,key_resp.started,welcome_page.stopped,key_resp.keys,key_resp.rt,key_resp.duration,instructions.started,ins.started,key_resp_2.started,instructions.stopped,key_resp_2.keys,key_resp_2.rt,key_resp_2.duration,objects_only_instruction.started,text_3.started,key_resp_3.started,objects_only_instruction.stopped,key_resp_3.keys,key_resp_3.rt,key_resp_3.duration,ISI.started,text_4.started,text_4.stopped,ISI.stopped,practice_block.started,image.started,text_5.started,key_resp_5.started,practice_block.stopped,practice.key_resp_5.keys,indoor_outdoor.started,text_7.started,key_resp_7.started,indoor_outdoor.stopped,practice.key_resp_7.keys,practice.key_resp_7.rt,practice.key_resp_7.duration,image.stopped,text_5.stopped,key_resp_5.stopped,practice.key_resp_5.rt,practice.key_resp_5.duration,practice_to_main.started,text_2.started,key_resp_4.started,practice_to_main.stopped,key_resp_4.keys,key_resp_4.rt,key_resp_4.duration,objects.started,image_2.started,text_9.started,key_resp_9.started,objects.stopped,trials.key_resp_9.keys,trials.key_resp_9.rt,trials.key_resp_9.duration,encoding_task.started,encoding_task.stopped,trials.key_resp_8.keys,image_2.stopped,text_9.stopped,key_resp_9.stopped,end_experiment.started,text_6.started,key_resp_6.started,end_experiment.stopped,key_resp_6.keys,key_resp_6.rt,key_resp_6.duration,list_of_stimuli,encoding_task_accuracy,participant,session,date,expName,psychopyVersion,frameRate,expStart,
,,,,,,,,,,,,,,,,,,,,,,,0.0013712000218220055,0.004166900005657226,0.004166900005657226,9.395356099994387,space,9.379470899992157,None,,,,,,,,,,,,,,,,,,,,,,,,,,,,,,,,,,,,,,,,,,,,,,,,,,,,,,,,,,,,,,,,,,,00040,001,2026-01-23_17h20.31.026,MST_task,2024.2.0,60.05648913033941,2026-01-23 17h20.36.679876 +0530,
,,,,,,,,,,,,,,,,,,,,,,,,,,,,,,9.395493799995165,9.411207199969795,9.411207199969795,35.83971739996923,space,26.42791369999759,None,,,,,,,,,,,,,,,,,,,,,,,,,,,,,,,,,,,,,,,,,,,,,,,,,,,,,,,,,,,,00040,001,2026-01-23_17h20.31.026,MST_task,2024.2.0,60.05648913033941,2026-01-23 17h20.36.679876 +0530,
,,,,,,,,,,,,,,,,,,,,,,,,,,,,,,,,,,,,,35.83984390000114,35.86577029997716,35.86577029997716,67.30632470001001,space,31.429403399990406,None,,,,,,,,,,,,,,,,,,,,,,,,,,,,,,,,,,,,,,,,,,,,,,,,,,,,,00040,001,2026-01-23_17h20.31.026,MST_task,2024.2.0,60.05648913033941,2026-01-23 17h20.36.679876 +0530,
4,practice_images/002b.jpg,0,0,1,None,j,1.7043119000154547,None,,,,,,,1,0,0,,,,67.32237130001886,,,,,,,,,,,,,,,,,,,,,,,67.31768440001179,67.32237130001886,67.84977640002035,67.80595559999347,67.8188123999862,67.84977640002035,67.84977640002035,67.84977640002035,70.82268029998522,None,70.82959779998055,70.83923139999388,70.83923139999388,72.55669890000718,j,1.7043119000154547,None,,,,,,,,,,,,,,,,,,,,,,,,,,,,,,,,,,,,00040,001,2026-01-23_17h20.31.026,MST_task,2024.2.0,60.05648913033941,2026-01-23 17h20.36.679876 +0530,
2,practice_images/031a.jpg,1,1,1,f,None,,,1.3185854000039399,0.09592809999594465,,,,,1,1,1,,,,72.57262799999444,,,,,,,,,,,,,,,,,,,,,,,72.55703450000146,72.57262799999444,73.0725566999754,73.05651349999243,73.06246909999754,73.0725566999754,73.0725566999754,73.0725566999754,76.0561713000061,f,76.05635650001932,,,76.05642129998887,None,,,76.07235259999288,76.07235259999288,76.07235259999288,1.3185854000039399,0.09592809999594465,,,,,,,,,,,,,,,,,,,,,,,,,,,,,,,00040,001,2026-01-23_17h20.31.026,MST_task,2024.2.0,60.05648913033941,2026-01-23 17h20.36.679876 +0530,
8,practice_images/178a.jpg,2,2,1,f,None,,,2.0271138999960385,0.13567499996861443,,,,,1,2,2,,,,76.07235259999288,,,,,,,,,,,,,,,,,,,,,,,76.05669559998205,76.07235259999288,76.57243270002073,76.55599959997926,76.56140710000182,76.57243270002073,76.57243270002073,76.57243270002073,79.55614479997894,f,79.5563250000123,,,79.55638769996585,None,,,79.57215690001613,79.57215690001613,79.57215690001613,2.0271138999960385,0.13567499996861443,,,,,,,,,,,,,,,,,,,,,,,,,,,,,,,00040,001,2026-01-23_17h20.31.026,MST_task,2024.2.0,60.05648913033941,2026-01-23 17h20.36.679876 +0530,
3,practice_images/037a.jpg,3,3,1,f,None,,,1.9989829999976791,0.1516435999656096,,,,,1,3,3,,,,79.57215690001613,,,,,,,,,,,,,,,,,,,,,,,79.55667780002113,79.57215690001613,80.0725779000204,80.05658959998982,80.06194109999342,80.0725779000204,80.0725779000204,80.0725779000204,83.05620579997776,f,83.05639179999707,,,83.05645560001722,None,,,83.0721549000009,83.0721549000009,83.0721549000009,1.9989829999976791,0.1516435999656096,,,,,,,,,,,,,,,,,,,,,,,,,,,,,,,00040,001,2026-01-23_17h20.31.026,MST_task,2024.2.0,60.05648913033941,2026-01-23 17h20.36.679876 +0530,
9,practice_images/180a.jpg,4,4,1,f,None,,,0.9473324000136927,0.12816610001027584,,,,,1,4,4,,,,83.0721549000009,,,,,,,,,,,,,,,,,,,,,,,83.05673999997089,83.0721549000009,83.57219199999236,83.55616179999197,83.56150379998144,83.57219199999236,83.57219199999236,83.57219199999236,86.55633499997202,f,86.55651269998634,,,86.5565757000004,None,,,86.57235470000887,86.57235470000887,86.57235470000887,0.9473324000136927,0.12816610001027584,,,,,,,,,,,,,,,,,,,,,,,,,,,,,,,00040,001,2026-01-23_17h20.31.026,MST_task,2024.2.0,60.05648913033941,2026-01-23 17h20.36.679876 +0530,
7,practice_images/166a.jpg,5,5,1,j,None,,,1.359442399989348,0.14367900002980605,,,,,1,5,5,,,,86.57235470000887,,,,,,,,,,,,,,,,,,,,,,,86.55684500001371,86.57235470000887,87.07186999998521,87.05570239998633,87.06095630000345,87.07186999998521,87.07186999998521,87.07186999998521,90.05632229999173,j,90.05650190002052,,,90.05656459997408,None,,,90.07236340001691,90.07236340001691,90.07236340001691,1.359442399989348,0.14367900002980605,,,,,,,,,,,,,,,,,,,,,,,,,,,,,,,00040,001,2026-01-23_17h20.31.026,MST_task,2024.2.0,60.05648913033941,2026-01-23 17h20.36.679876 +0530,
6,practice_images/158a.jpg,6,6,1,j,None,,,1.3394128999789245,0.12761730002239347,,,,,1,6,6,,,,90.07236340001691,,,,,,,,,,,,,,,,,,,,,,,90.0568357000011,90.07236340001691,90.5721091000014,90.5561585999676,90.56173479999416,90.5721091000014,90.5721091000014,90.5721091000014,93.55635410000104,j,93.55654149997281,,,93.556605699996,None,,,93.57236200000625,93.57236200000625,93.57236200000625,1.3394128999789245,0.12761730002239347,,,,,,,,,,,,,,,,,,,,,,,,,,,,,,,00040,001,2026-01-23_17h20.31.026,MST_task,2024.2.0,60.05648913033941,2026-01-23 17h20.36.679876 +0530,
5,practice_images/139a.jpg,7,7,1,j,None,,,2.3186531999963336,0.08807050000177696,,,,,1,7,7,,,,93.57236200000625,,,,,,,,,,,,,,,,,,,,,,,93.55694879998919,93.57236200000625,94.07258500001626,94.0559198000119,94.06161510001402,94.07258500001626,94.07258500001626,94.07258500001626,97.05697809997946,j,97.05716989998473,,,97.05723889998626,None,,,,,,2.3186531999963336,0.08807050000177696,,,,,,,,,,,,,,,,,,,,,,,,,,,,,,,00040,001,2026-01-23_17h20.31.026,MST_task,2024.2.0,60.05648913033941,2026-01-23 17h20.36.679876 +0530,
10,practice_images/182a.jpg,8,8,1,f,None,,,1.1068802999798208,0.13620290003018454,,,,,1,8,8,,,,97.07283329998609,,,,,,,,,,,,,,,,,,,,,,,97.05751519999467,97.07283329998609,97.57260590000078,97.55618399998639,97.56113769998774,97.57260590000078,97.57260590000078,97.57260590000078,100.55621030001203,f,100.55639300000621,,,100.55645749997348,None,,,100.5720338000101,100.5720338000101,100.5720338000101,1.1068802999798208,0.13620290003018454,,,,,,,,,,,,,,,,,,,,,,,,,,,,,,,00040,001,2026-01-23_17h20.31.026,MST_task,2024.2.0,60.05648913033941,2026-01-23 17h20.36.679876 +0530,
1,practice_images/013a.jpg,9,9,1,f,None,,,1.4231886999914423,0.15951230004429817,,,,,1,9,9,,,,100.5720338000101,,,,,,,,,,,,,,,,,,,,,,,100.55674470000667,100.5720338000101,101.07230579998577,101.0561549999984,101.06173269997817,101.07230579998577,101.07230579998577,101.07230579998577,104.05607009999221,f,104.05621349997818,,,104.05623909999849,None,,,104.07245739997597,104.07245739997597,104.07245739997597,1.4231886999914423,0.15951230004429817,,,,,,,,,,,,,,,,,,,,,,,,,,,,,,,00040,001,2026-01-23_17h20.31.026,MST_task,2024.2.0,60.05648913033941,2026-01-23 17h20.36.679876 +0530,
,,,,,,,,,,,,,,,,,,,,,,,,,,,,,,,,,,,,,,,,,,,,,,,,,,,,,,,,,,,,,,,,,,104.0563167000073,104.07245739997597,104.07245739997597,117.0226132000098,space,12.934368300018832,None,,,,,,,,,,,,,,,,,,,,,,,,00040,001,2026-01-23_17h20.31.026,MST_task,2024.2.0,60.05648913033941,2026-01-23 17h20.36.679876 +0530,
,Scenes\084a.jpg,0,0,1,,,,,,,j,1.40542030002689,0.1038391999900341,None,,,,1,0,0,117.03909629996633,,,,,,,,,,,,,,,,,,,,,,,117.02570349996677,117.03909629996633,117.54606999998214,117.52251009998145,,,,,,,,,,,,,,,,,,,,,,,,,,117.54197760001989,117.54606999998214,117.54606999998214,117.54606999998214,120.53930870001204,j,1.40542030002689,0.1038391999900341,120.54599650000455,120.54605010000523,None,,,,,,,,,,,,,00040,001,2026-01-23_17h20.31.026,MST_task,2024.2.0,60.05648913033941,2026-01-23 17h20.36.679876 +0530,
,Scenes\168a.jpg,1,0,2,,,,,,,j,0.9748061000136659,0.09668050002073869,None,,,,2,0,1,120.5555580999935,,,,,,,,,,,,,,,,,,,,,,,120.54629359999672,120.5555580999935,121.05619829997886,121.03949699999066,,,,,,,,,,,,,,,,,,,,,,,,,,121.05236630002037,121.05619829997886,121.05619829997886,121.05619829997886,124.03997099999106,j,0.9748061000136659,0.09668050002073869,124.0401789000025,124.04023939999752,None,124.05576169997221,124.05576169997221,124.05576169997221,,,,,,,,,,00040,001,2026-01-23_17h20.31.026,MST_task,2024.2.0,60.05648913033941,2026-01-23 17h20.36.679876 +0530,
,Scenes\055a.jpg,2,0,3,,,,,,,j,1.2407539000269026,0.1367774999816902,None,,,,3,0,2,124.05576169997221,,,,,,,,,,,,,,,,,,,,,,,124.04053820000263,124.05576169997221,124.5582159999758,124.53934339998523,,,,,,,,,,,,,,,,,,,,,,,,,,124.55530309997266,124.5582159999758,124.5582159999758,124.5582159999758,127.5567101999768,j,1.2407539000269026,0.1367774999816902,127.55691189999925,127.55697659996804,None,,,,,,,,,,,,,00040,001,2026-01-23_17h20.31.026,MST_task,2024.2.0,60.05648913033941,2026-01-23 17h20.36.679876 +0530,
,Scenes\072a.jpg,3,0,4,,,,,,,j,0.7617384999757633,0.10409079998498783,None,,,,4,0,3,127.572370400012,,,,,,,,,,,,,,,,,,,,,,,127.55726610001875,127.572370400012,128.0772244000109,128.0561474999995,,,,,,,,,,,,,,,,,,,,,,,,,,128.07397620001575,128.0772244000109,128.0772244000109,128.0772244000109,131.0724588999874,j,0.7617384999757633,0.10409079998498783,131.07265919999918,131.07272529997863,None,,,,,,,,,,,,,00040,001,2026-01-23_17h20.31.026,MST_task,2024.2.0,60.05648913033941,2026-01-23 17h20.36.679876 +0530,
,Scenes\125a.jpg,4,0,5,,,,,,,j,0.9148469000356272,0.12827289995038882,None,,,,5,0,4,131.08911020000232,,,,,,,,,,,,,,,,,,,,,,,131.07294290000573,131.08911020000232,131.61222860001726,131.57274669996696,,,,,,,,,,,,,,,,,,,,,,,,,,131.60952019999968,131.61222860001726,131.61222860001726,131.61222860001726,134.58927769999718,j,0.9148469000356272,0.12827289995038882,134.58947760000592,134.5895420999732,None,,,,,,,,,,,,,00040,001,2026-01-23_17h20.31.026,MST_task,2024.2.0,60.05648913033941,2026-01-23 17h20.36.679876 +0530,
,Scenes\077a.jpg,5,0,6,,,,,,,j,1.0053632000344805,0.10409909998998046,None,,,,6,0,5,134.6057820999995,,,,,,,,,,,,,,,,,,,,,,,134.58990849996917,134.6057820999995,,135.0898456000141,,,,,,,,,,,,,,,,,,,,,,,,,,135.11842149996664,135.12134309997782,135.12134309997782,135.12134309997782,138.10587239998858,j,1.0053632000344805,0.10409909998998046,138.10607989999698,138.10614649998024,None,,,,,,,,,,,,,00040,001,2026-01-23_17h20.31.026,MST_task,2024.2.0,60.05648913033941,2026-01-23 17h20.36.679876 +0530,
,Scenes\127a.jpg,6,0,7,,,,,,,j,0.9192461000056937,0.1608705999678932,None,,,,7,0,6,138.12238630000502,,,,,,,,,,,,,,,,,,,,,,,138.10644220001996,138.12238630000502,138.62360120000085,138.60580859996844,,,,,,,,,,,,,,,,,,,,,,,,,,138.62094689998776,138.62360120000085,138.62360120000085,138.62360120000085,141.62281650002114,j,0.9192461000056937,0.1608705999678932,141.6230271999957,141.62309389997972,None,,,,,,,,,,,,,00040,001,2026-01-23_17h20.31.026,MST_task,2024.2.0,60.05648913033941,2026-01-23 17h20.36.679876 +0530,
,Objects\071a.jpg,7,0,8,,,,,,,f,1.066904200008139,0.0806808999623172,None,,,,8,0,7,141.63894969999092,,,,,,,,,,,,,,,,,,,,,,,141.62347230000887,141.63894969999092,142.14013000001432,142.12245859997347,,,,,,,,,,,,,,,,,,,,,,,,,,142.13687960000243,142.14013000001432,142.14013000001432,142.14013000001432,145.12338880001334,f,1.066904200008139,0.0806808999623172,145.12359520001337,145.12365989998216,None,,,,,,,,,,,,,00040,001,2026-01-23_17h20.31.026,MST_task,2024.2.0,60.05648913033941,2026-01-23 17h20.36.679876 +0530,
,Objects\004a.jpg,8,0,9,,,,,,,f,1.799517499981448,0.11233730003004894,None,,,,9,0,8,145.13931519998005,,,,,,,,,,,,,,,,,,,,,,,145.12402739998652,145.13931519998005,145.639389799966,145.62331689998973,,,,,,,,,,,,,,,,,,,,,,,,,,145.6311211999855,145.639389799966,145.639389799966,145.639389799966,148.6238059999887,f,1.799517499981448,0.11233730003004894,148.6240183999762,148.62407879997045,None,148.63904219999677,148.63904219999677,148.63904219999677,,,,,,,,,,00040,001,2026-01-23_17h20.31.026,MST_task,2024.2.0,60.05648913033941,2026-01-23 17h20.36.679876 +0530,
,Objects\009a.jpg,9,0,10,,,,,,,f,1.3143009000341408,0.13658379996195436,None,,,,10,0,9,148.63904219999677,,,,,,,,,,,,,,,,,,,,,,,148.62436939997133,148.63904219999677,149.14878440002212,149.1227715999703,,,,,,,,,,,,,,,,,,,,,,,,,,149.14601650001714,149.14878440002212,149.14878440002212,149.14878440002212,152.13921090000076,f,1.3143009000341408,0.13658379996195436,152.1394100000034,152.13947629998438,None,,,,,,,,,,,,,00040,001,2026-01-23_17h20.31.026,MST_task,2024.2.0,60.05648913033941,2026-01-23 17h20.36.679876 +0530,
,Objects\030a.jpg,10,0,11,,,,,,,f,0.9723918999661691,0.14332810003543273,None,,,,11,0,10,152.15548539999872,,,,,,,,,,,,,,,,,,,,,,,152.13976669998374,152.15548539999872,152.68324919999577,152.63923349999823,,,,,,,,,,,,,,,,,,,,,,,,,,152.68007449997822,152.68324919999577,152.68324919999577,152.68324919999577,155.6399523,f,0.9723918999661691,0.14332810003543273,155.6401693999651,155.64023489999818,None,,,,,,,,,,,,,00040,001,2026-01-23_17h20.31.026,MST_task,2024.2.0,60.05648913033941,2026-01-23 17h20.36.679876 +0530,
,Objects\063a.jpg,11,0,12,,,,,,,f,0.9973867000080645,0.11969220003811643,None,,,,12,0,11,155.6557353999815,,,,,,,,,,,,,,,,,,,,,,,155.64060679997783,155.6557353999815,156.18616669997573,156.13950759998988,,,,,,,,,,,,,,,,,,,,,,,,,,156.18326690001413,156.18616669997573,156.18616669997573,156.18616669997573,159.15615360002266,f,0.9973867000080645,0.11969220003811643,159.15636399999494,159.1564318999881,None,,,,,,,,,,,,,00040,001,2026-01-23_17h20.31.026,MST_task,2024.2.0,60.05648913033941,2026-01-23 17h20.36.679876 +0530,
,Objects\180a.jpg,12,0,13,,,,,,,f,1.3266204000101425,0.1686100999941118,None,,,,13,0,12,159.17206559999613,,,,,,,,,,,,,,,,,,,,,,,159.15682909998577,159.17206559999613,159.67243420000887,159.65602599998238,,,,,,,,,,,,,,,,,,,,,,,,,,159.6661415999988,159.67243420000887,159.67243420000887,159.67243420000887,162.65740480000386,f,1.3266204000101425,0.1686100999941118,162.65762760001235,162.65768900001422,None,162.6720450000139,162.6720450000139,162.6720450000139,,,,,,,,,,00040,001,2026-01-23_17h20.31.026,MST_task,2024.2.0,60.05648913033941,2026-01-23 17h20.36.679876 +0530,
,Objects\019a.jpg,13,0,14,,,,,,,f,1.4508664999739267,0.09592049999628216,None,,,,14,0,13,162.6720450000139,,,,,,,,,,,,,,,,,,,,,,,162.65798959997483,162.6720450000139,163.17285929998616,163.15616959996987,,,,,,,,,,,,,,,,,,,,,,,,,,163.16509829997085,163.17285929998616,163.17285929998616,163.17285929998616,166.15667270001722,f,1.4508664999739267,0.09592049999628216,166.1568763999967,166.15693539998028,None,166.17194159998326,166.17194159998326,166.17194159998326,,,,,,,,,,00040,001,2026-01-23_17h20.31.026,MST_task,2024.2.0,60.05648913033941,2026-01-23 17h20.36.679876 +0530,
,Scenes\095a.jpg,14,0,15,,,,,,,j,0.8948242000187747,0.10423729999456555,None,,,,15,0,14,166.17194159998326,,,,,,,,,,,,,,,,,,,,,,,166.15724540001247,166.17194159998326,166.6726542999968,166.6567195999669,,,,,,,,,,,,,,,,,,,,,,,,,,166.66771710000467,166.6726542999968,166.6726542999968,166.6726542999968,169.65676179999718,j,0.8948242000187747,0.10423729999456555,169.65696320001734,169.65702320000855,None,169.67314630001783,169.67314630001783,169.67314630001783,,,,,,,,,,00040,001,2026-01-23_17h20.31.026,MST_task,2024.2.0,60.05648913033941,2026-01-23 17h20.36.679876 +0530,
,Scenes\174a.jpg,15,0,16,,,,,,,j,1.2992862000246532,0.12009039998520166,None,,,,16,0,15,169.67314630001783,,,,,,,,,,,,,,,,,,,,,,,169.657406000013,169.67314630001783,170.18758680002065,170.15619020001031,,,,,,,,,,,,,,,,,,,,,,,,,,170.18478499999037,170.18758680002065,170.18758680002065,170.18758680002065,173.17276479996508,j,1.2992862000246532,0.12009039998520166,173.17297040001722,173.17303569999058,None,,,,,,,,,,,,,00040,001,2026-01-23_17h20.31.026,MST_task,2024.2.0,60.05648913033941,2026-01-23 17h20.36.679876 +0530,
,Scenes\054a.jpg,16,0,17,,,,,,,j,0.9863075000466779,0.1367850999813527,None,,,,17,0,16,173.18877830001293,,,,,,,,,,,,,,,,,,,,,,,173.17333069996675,173.18877830001293,173.69257339998148,173.67267050000373,,,,,,,,,,,,,,,,,,,,,,,,,,173.6897874000133,173.69257339998148,173.69257339998148,173.69257339998148,176.68941210000776,j,0.9863075000466779,0.1367850999813527,176.6896142999758,176.68967890000204,None,,,,,,,,,,,,,00040,001,2026-01-23_17h20.31.026,MST_task,2024.2.0,60.05648913033941,2026-01-23 17h20.36.679876 +0530,
,Scenes\018a.jpg,17,0,18,,,,,,,j,1.5285058000008576,0.1126889000297524,None,,,,18,0,17,176.70570210000733,,,,,,,,,,,,,,,,,,,,,,,176.69003210001392,176.70570210000733,177.2064348999993,177.18951399996877,,,,,,,,,,,,,,,,,,,,,,,,,,177.20129050000105,177.2064348999993,177.2064348999993,177.2064348999993,180.190074299986,j,1.5285058000008576,0.1126889000297524,180.19027620000998,180.19033680000575,None,180.20578349998686,180.20578349998686,180.20578349998686,,,,,,,,,,00040,001,2026-01-23_17h20.31.026,MST_task,2024.2.0,60.05648913033941,2026-01-23 17h20.36.679876 +0530,
,Scenes\118a.jpg,18,0,19,,,,,,,j,1.292404700012412,0.12000589998206124,None,,,,19,0,18,180.20578349998686,,,,,,,,,,,,,,,,,,,,,,,180.19062629999826,180.20578349998686,180.70650660002138,180.6893437000108,,,,,,,,,,,,,,,,,,,,,,,,,,180.7018010999891,180.70650660002138,180.70650660002138,180.70650660002138,183.6901190999779,j,1.292404700012412,0.12000589998206124,183.69032409996726,183.69038549996912,None,183.70640059997095,183.70640059997095,183.70640059997095,,,,,,,,,,00040,001,2026-01-23_17h20.31.026,MST_task,2024.2.0,60.05648913033941,2026-01-23 17h20.36.679876 +0530,
,Scenes\050a.jpg,19,0,20,,,,,,,j,1.0970763000077568,0.1201907999929972,None,,,,20,0,19,183.70640059997095,,,,,,,,,,,,,,,,,,,,,,,183.69076349999523,183.70640059997095,184.20609009999316,184.18950959999347,,,,,,,,,,,,,,,,,,,,,,,,,,184.20256030000746,184.20609009999316,184.20609009999316,184.20609009999316,187.19032260001404,j,1.0970763000077568,0.1201907999929972,187.1905276000034,187.1905902000144,None,187.20582319999812,187.20582319999812,187.20582319999812,,,,,,,,,,00040,001,2026-01-23_17h20.31.026,MST_task,2024.2.0,60.05648913033941,2026-01-23 17h20.36.679876 +0530,
,Scenes\121a.jpg,20,0,21,,,,,,,j,1.1232016999856569,0.10349539999151602,None,,,,21,0,20,187.20582319999812,,,,,,,,,,,,,,,,,,,,,,,187.1909697999945,187.20582319999812,187.70830320002278,187.68925709999166,,,,,,,,,,,,,,,,,,,,,,,,,,187.70504490000894,187.70830320002278,187.70830320002278,187.70830320002278,190.7061727999826,j,1.1232016999856569,0.10349539999151602,190.7063799999887,190.70644639997045,None,,,,,,,,,,,,,00040,001,2026-01-23_17h20.31.026,MST_task,2024.2.0,60.05648913033941,2026-01-23 17h20.36.679876 +0530,
,Objects\110a.jpg,21,0,22,,,,,,,f,1.280454300052952,0.09569469996495172,None,,,,22,0,21,190.72235009999713,,,,,,,,,,,,,,,,,,,,,,,190.70682119997218,190.72235009999713,191.22297349997098,191.20617710001534,,,,,,,,,,,,,,,,,,,,,,,,,,191.21553649997804,191.22297349997098,191.22297349997098,191.22297349997098,194.20683159999317,f,1.280454300052952,0.09569469996495172,194.20703059999505,194.2070899999817,None,194.22220169997308,194.22220169997308,194.22220169997308,,,,,,,,,,00040,001,2026-01-23_17h20.31.026,MST_task,2024.2.0,60.05648913033941,2026-01-23 17h20.36.679876 +0530,
,Objects\091a.jpg,22,0,23,,,,,,,f,1.1804650000412948,0.09571019996656105,None,,,,23,0,22,194.22220169997308,,,,,,,,,,,,,,,,,,,,,,,194.20739080000203,194.22220169997308,194.72296779998578,194.7058799000224,,,,,,,,,,,,,,,,,,,,,,,,,,194.71226639999077,194.72296779998578,194.72296779998578,194.72296779998578,197.70695409999462,f,1.1804650000412948,0.09571019996656105,197.70715600001859,197.7072157000075,None,197.72236329998123,197.72236329998123,197.72236329998123,,,,,,,,,,00040,001,2026-01-23_17h20.31.026,MST_task,2024.2.0,60.05648913033941,2026-01-23 17h20.36.679876 +0530,
,Objects\167a.jpg,23,0,24,,,,,,,f,1.9925243000034243,0.17628150002565235,None,,,,24,0,23,197.72236329998123,,,,,,,,,,,,,,,,,,,,,,,197.70758789998945,197.72236329998123,198.22226179996505,198.2060152000049,,,,,,,,,,,,,,,,,,,,,,,,,,198.21586539997952,198.22226179996505,198.22226179996505,198.22226179996505,201.20685159997083,f,1.9925243000034243,0.17628150002565235,201.20705239998642,201.20711179997306,None,201.22223620000295,201.22223620000295,201.22223620000295,,,,,,,,,,00040,001,2026-01-23_17h20.31.026,MST_task,2024.2.0,60.05648913033941,2026-01-23 17h20.36.679876 +0530,
,Objects\152a.jpg,24,0,25,,,,,,,f,1.6447743000462651,0.1434651999734342,None,,,,25,0,24,201.22223620000295,,,,,,,,,,,,,,,,,,,,,,,201.20741099998122,201.22223620000295,201.72265459998744,201.70607479999308,,,,,,,,,,,,,,,,,,,,,,,,,,201.7147857999662,201.72265459998744,201.72265459998744,201.72265459998744,204.70679149997886,f,1.6447743000462651,0.1434651999734342,204.70699420000892,204.7070539999986,None,204.72211169998627,204.72211169998627,204.72211169998627,,,,,,,,,,00040,001,2026-01-23_17h20.31.026,MST_task,2024.2.0,60.05648913033941,2026-01-23 17h20.36.679876 +0530,
,Objects\177a.jpg,25,0,26,,,,,,,j,1.5041236999677494,0.08796330000041053,None,,,,26,0,25,204.72211169998627,,,,,,,,,,,,,,,,,,,,,,,204.70742679998511,204.72211169998627,205.2230852000066,205.2061978999991,,,,,,,,,,,,,,,,,,,,,,,,,,205.21256020001601,205.2230852000066,205.2230852000066,205.2230852000066,208.20765200001188,j,1.5041236999677494,0.08796330000041053,208.20786039996892,208.20792040001834,None,208.22239229996921,208.22239229996921,208.22239229996921,,,,,,,,,,00040,001,2026-01-23_17h20.31.026,MST_task,2024.2.0,60.05648913033941,2026-01-23 17h20.36.679876 +0530,
,Objects\064a.jpg,26,0,27,,,,,,,j,1.2844787999638356,0.1201543000061065,None,,,,27,0,26,208.22239229996921,,,,,,,,,,,,,,,,,,,,,,,208.20828590000747,208.22239229996921,208.72269779996714,208.7062080000178,,,,,,,,,,,,,,,,,,,,,,,,,,208.71275589999277,208.72269779996714,208.72269779996714,208.72269779996714,211.7069830999826,j,1.2844787999638356,0.1201543000061065,211.70718319999287,211.70724439999321,None,211.72239189996617,211.72239189996617,211.72239189996617,,,,,,,,,,00040,001,2026-01-23_17h20.31.026,MST_task,2024.2.0,60.05648913033941,2026-01-23 17h20.36.679876 +0530,
,Objects\068a.jpg,27,0,28,,,,,,,f,1.4043515999801457,0.09636949998093769,None,,,,28,0,27,211.72239189996617,,,,,,,,,,,,,,,,,,,,,,,211.70761849998962,211.72239189996617,212.23448009998538,212.20617289998336,,,,,,,,,,,,,,,,,,,,,,,,,,212.2315466,212.23448009998538,212.23448009998538,212.23448009998538,215.22276709997095,f,1.4043515999801457,0.09636949998093769,215.2229695999995,215.22303589998046,None,,,,,,,,,,,,,00040,001,2026-01-23_17h20.31.026,MST_task,2024.2.0,60.05648913033941,2026-01-23 17h20.36.679876 +0530,
,Scenes\129a.jpg,28,0,29,,,,,,,f,1.6804741999949329,0.13618770003085956,None,,,,29,0,28,215.23890160000883,,,,,,,,,,,,,,,,,,,,,,,215.22332960000494,215.23890160000883,215.75096719997237,215.72209799999837,,,,,,,,,,,,,,,,,,,,,,,,,,215.7484883000143,215.75096719997237,215.75096719997237,215.75096719997237,218.7402586999815,f,1.6804741999949329,0.13618770003085956,218.74046689999523,218.74053369998,None,,,,,,,,,,,,,00040,001,2026-01-23_17h20.31.026,MST_task,2024.2.0,60.05648913033941,2026-01-23 17h20.36.679876 +0530,
,Scenes\049a.jpg,29,0,30,,,,,,,j,1.7185795999830589,0.10482330003287643,None,,,,30,0,29,218.75578419998055,,,,,,,,,,,,,,,,,,,,,,,218.74082830001134,218.75578419998055,219.2562052999856,219.23936249996768,,,,,,,,,,,,,,,,,,,,,,,,,,219.25240529997973,219.2562052999856,219.2562052999856,219.2562052999856,222.2403274999815,j,1.7185795999830589,0.10482330003287643,222.2405291000032,222.24058889999287,None,222.25580119999358,222.25580119999358,222.25580119999358,,,,,,,,,,00040,001,2026-01-23_17h20.31.026,MST_task,2024.2.0,60.05648913033941,2026-01-23 17h20.36.679876 +0530,
,Scenes\182a.jpg,30,0,31,,,,,,,j,1.277465299994219,0.07223900000099093,None,,,,31,0,30,222.25580119999358,,,,,,,,,,,,,,,,,,,,,,,222.2409593000193,222.25580119999358,222.76991410000483,222.7395273000002,,,,,,,,,,,,,,,,,,,,,,,,,,222.76726449996931,222.76991410000483,222.76991410000483,222.76991410000483,225.7561739999801,j,1.277465299994219,0.07223900000099093,225.75637299998198,225.75643910001963,None,,,,,,,,,,,,,00040,001,2026-01-23_17h20.31.026,MST_task,2024.2.0,60.05648913033941,2026-01-23 17h20.36.679876 +0530,
,Scenes\167a.jpg,31,0,32,,,,,,,j,1.236078699992504,0.11984140001004562,None,,,,32,0,31,225.77237429999514,,,,,,,,,,,,,,,,,,,,,,,225.75673349999124,225.77237429999514,226.27532730001258,226.25600310001755,,,,,,,,,,,,,,,,,,,,,,,,,,226.27252579998458,226.27532730001258,226.27532730001258,226.27532730001258,229.27278519998072,j,1.236078699992504,0.11984140001004562,229.27298830001382,229.27305479999632,None,,,,,,,,,,,,,00040,001,2026-01-23_17h20.31.026,MST_task,2024.2.0,60.05648913033941,2026-01-23 17h20.36.679876 +0530,
,Scenes\044a.jpg,32,0,33,,,,,,,j,1.5451918000471778,0.11969029996544123,None,,,,33,0,32,229.2891669999808,,,,,,,,,,,,,,,,,,,,,,,229.27348699996946,229.2891669999808,229.8062091000029,229.77277659997344,,,,,,,,,,,,,,,,,,,,,,,,,,229.80302709998796,229.8062091000029,229.8062091000029,229.8062091000029,232.78935729997465,j,1.5451918000471778,0.11969029996544123,232.78955909999786,232.78962489997502,None,,,,,,,,,,,,,00040,001,2026-01-23_17h20.31.026,MST_task,2024.2.0,60.05648913033941,2026-01-23 17h20.36.679876 +0530,
,Scenes\122a.jpg,33,0,34,,,,,,,f,1.1076510999700986,0.09619750001002103,None,,,,34,0,33,232.80562449997524,,,,,,,,,,,,,,,,,,,,,,,232.78991870000027,232.80562449997524,233.3151583999861,233.2895070000086,,,,,,,,,,,,,,,,,,,,,,,,,,233.31244339997647,233.3151583999861,233.3151583999861,233.3151583999861,236.3062069999869,f,1.1076510999700986,0.09619750001002103,236.30640810000477,236.3064731999766,None,,,,,,,,,,,,,00040,001,2026-01-23_17h20.31.026,MST_task,2024.2.0,60.05648913033941,2026-01-23 17h20.36.679876 +0530,
,Scenes\071a.jpg,34,0,35,,,,,,,j,1.1270695999846794,0.0967271999688819,None,,,,35,0,34,236.32237650000025,,,,,,,,,,,,,,,,,,,,,,,236.30684049997944,236.32237650000025,236.82390459999442,236.8059439000208,,,,,,,,,,,,,,,,,,,,,,,,,,236.82081930001732,236.82390459999442,236.82390459999442,236.82390459999442,239.8235139999888,j,1.1270695999846794,0.0967271999688819,239.82372240000404,239.82379009999568,None,,,,,,,,,,,,,00040,001,2026-01-23_17h20.31.026,MST_task,2024.2.0,60.05648913033941,2026-01-23 17h20.36.679876 +0530,
,Objects\117a.jpg,35,0,36,,,,,,,f,2.1476615999708883,0.1595579999848269,None,,,,36,0,35,239.8393924999982,,,,,,,,,,,,,,,,,,,,,,,239.8240859999787,239.8393924999982,240.33973339997465,240.32277899998007,,,,,,,,,,,,,,,,,,,,,,,,,,240.33193649997702,240.33973339997465,240.33973339997465,240.33973339997465,243.32362460001605,f,2.1476615999708883,0.1595579999848269,243.32382499997038,243.32388619997073,None,243.33911369997077,243.33911369997077,243.33911369997077,,,,,,,,,,00040,001,2026-01-23_17h20.31.026,MST_task,2024.2.0,60.05648913033941,2026-01-23 17h20.36.679876 +0530,
,Objects\127a.jpg,36,0,37,,,,,,,j,1.496082599973306,0.11982560000615194,None,,,,37,0,36,243.33911369997077,,,,,,,,,,,,,,,,,,,,,,,243.32418840000173,243.33911369997077,243.83930079999845,243.82246910000686,,,,,,,,,,,,,,,,,,,,,,,,,,243.83152020000853,243.83930079999845,243.83930079999845,243.83930079999845,246.82373890001327,j,1.496082599973306,0.11982560000615194,246.82394299999578,246.82400159997633,None,246.83911900001112,246.83911900001112,246.83911900001112,,,,,,,,,,00040,001,2026-01-23_17h20.31.026,MST_task,2024.2.0,60.05648913033941,2026-01-23 17h20.36.679876 +0530,
,Objects\150a.jpg,37,0,38,,,,,,,j,1.2192610999918543,0.11268089996883646,None,,,,38,0,37,246.83911900001112,,,,,,,,,,,,,,,,,,,,,,,246.82430149998982,246.83911900001112,247.3393976999796,247.32292080001207,,,,,,,,,,,,,,,,,,,,,,,,,,247.33145810000133,247.3393976999796,247.3393976999796,247.3393976999796,250.32368620001944,j,1.2192610999918543,0.11268089996883646,250.32388739997987,250.32394739997108,None,250.33895669999765,250.33895669999765,250.33895669999765,,,,,,,,,,00040,001,2026-01-23_17h20.31.026,MST_task,2024.2.0,60.05648913033941,2026-01-23 17h20.36.679876 +0530,
,Objects\131a.jpg,38,0,39,,,,,,,f,1.4882259999867529,0.11996779998298734,None,,,,39,0,38,250.33895669999765,,,,,,,,,,,,,,,,,,,,,,,250.3242523999652,250.33895669999765,250.8391874000081,250.82248339999933,,,,,,,,,,,,,,,,,,,,,,,,,,250.83150329999626,250.8391874000081,250.8391874000081,250.8391874000081,253.82355789997382,f,1.4882259999867529,0.11996779998298734,253.82376100000693,253.8238216000027,None,253.83908419997897,253.83908419997897,253.83908419997897,,,,,,,,,,00040,001,2026-01-23_17h20.31.026,MST_task,2024.2.0,60.05648913033941,2026-01-23 17h20.36.679876 +0530,
,Objects\108a.jpg,39,0,40,,,,,,,f,2.044058799976483,0.12808749999385327,None,,,,40,0,39,253.83908419997897,,,,,,,,,,,,,,,,,,,,,,,253.82411099999445,253.83908419997897,254.33939320000354,254.32278220000444,,,,,,,,,,,,,,,,,,,,,,,,,,254.3316482999944,254.33939320000354,254.33939320000354,254.33939320000354,257.3236130999867,f,2.044058799976483,0.12808749999385327,257.32382150000194,257.3238807999878,None,257.3390781999915,257.3390781999915,257.3390781999915,,,,,,,,,,00040,001,2026-01-23_17h20.31.026,MST_task,2024.2.0,60.05648913033941,2026-01-23 17h20.36.679876 +0530,
,Objects\048a.jpg,40,0,41,,,,,,,j,0.9515806999988854,0.12080060003791004,None,,,,41,0,40,257.3390781999915,,,,,,,,,,,,,,,,,,,,,,,257.3242908999673,257.3390781999915,257.8391581000178,257.8225566999754,,,,,,,,,,,,,,,,,,,,,,,,,,257.831648899999,257.8391581000178,257.8391581000178,257.8391581000178,260.8237541000126,j,0.9515806999988854,0.12080060003791004,260.8239724999876,260.82403409999097,None,260.839167499973,260.839167499973,260.839167499973,,,,,,,,,,00040,001,2026-01-23_17h20.31.026,MST_task,2024.2.0,60.05648913033941,2026-01-23 17h20.36.679876 +0530,
,Objects\089a.jpg,41,0,42,,,,,,,f,1.8758799000061117,0.0962767000310123,None,,,,42,0,41,260.839167499973,,,,,,,,,,,,,,,,,,,,,,,260.8243323999923,260.839167499973,261.3394021000131,261.3231257000007,,,,,,,,,,,,,,,,,,,,,,,,,,261.3318202000228,261.3394021000131,261.3394021000131,261.3394021000131,264.3234614999965,f,1.8758799000061117,0.0962767000310123,264.32366599998204,264.32372629997553,None,264.3393876000191,264.3393876000191,264.3393876000191,,,,,,,,,,00040,001,2026-01-23_17h20.31.026,MST_task,2024.2.0,60.05648913033941,2026-01-23 17h20.36.679876 +0530,
,Scenes\073a.jpg,42,0,43,,,,,,,j,0.7744646000210196,0.0963740999577567,None,,,,43,0,42,264.3393876000191,,,,,,,,,,,,,,,,,,,,,,,264.32410630001687,264.3393876000191,264.84065530000953,264.8227073000162,,,,,,,,,,,,,,,,,,,,,,,,,,264.8378603999736,264.84065530000953,264.84065530000953,264.84065530000953,267.83951139997225,j,0.7744646000210196,0.0963740999577567,267.8397128999932,267.839777999965,None,,,,,,,,,,,,,00040,001,2026-01-23_17h20.31.026,MST_task,2024.2.0,60.05648913033941,2026-01-23 17h20.36.679876 +0530,
,Scenes\142a.jpg,43,0,44,,,,,,,j,0.7519382999744266,0.09624360001180321,None,,,,44,0,43,267.85560140002053,,,,,,,,,,,,,,,,,,,,,,,267.8401458999724,267.85560140002053,268.3749933000072,268.3396287999931,,,,,,,,,,,,,,,,,,,,,,,,,,268.37230889999773,268.3749933000072,268.3749933000072,268.3749933000072,271.35586269997293,j,0.7519382999744266,0.09624360001180321,271.35606680001365,271.3561318999855,None,,,,,,,,,,,,,00040,001,2026-01-23_17h20.31.026,MST_task,2024.2.0,60.05648913033941,2026-01-23 17h20.36.679876 +0530,
,Scenes\087a.jpg,44,0,45,,,,,,,j,1.6365090999752283,0.10450830002082512,None,,,,45,0,44,271.3728909000056,,,,,,,,,,,,,,,,,,,,,,,271.3565023000119,271.3728909000056,271.8742415999877,271.85611599998083,,,,,,,,,,,,,,,,,,,,,,,,,,271.87064089998603,271.8742415999877,271.8742415999877,271.8742415999877,274.8727868999704,j,1.6365090999752283,0.10450830002082512,274.87298779998673,274.87305300001753,None,,,,,,,,,,,,,00040,001,2026-01-23_17h20.31.026,MST_task,2024.2.0,60.05648913033941,2026-01-23 17h20.36.679876 +0530,
,Scenes\012a.jpg,45,0,46,,,,,,,j,0.7387761999852955,0.12778310000430793,None,,,,46,0,45,274.8887226000079,,,,,,,,,,,,,,,,,,,,,,,274.8733446999686,274.8887226000079,275.41244839999126,275.3727758000023,,,,,,,,,,,,,,,,,,,,,,,,,,275.4096809999901,275.41244839999126,275.41244839999126,275.41244839999126,278.3732243999839,j,0.7387761999852955,0.12778310000430793,278.37343149998924,278.3734975999687,None,,,,,,,,,,,,,00040,001,2026-01-23_17h20.31.026,MST_task,2024.2.0,60.05648913033941,2026-01-23 17h20.36.679876 +0530,
,Scenes\082a.jpg,46,0,47,,,,,,,f,1.6717029999708757,0.1046539000235498,None,,,,47,0,46,278.38957160001155,,,,,,,,,,,,,,,,,,,,,,,278.37385630002245,278.38957160001155,278.89525190001586,278.87263820000226,,,,,,,,,,,,,,,,,,,,,,,,,,278.8923916000058,278.89525190001586,278.89525190001586,278.89525190001586,281.8897088000085,f,1.6717029999708757,0.1046539000235498,281.8900048999931,281.890100300021,None,,,,,,,,,,,,,00040,001,2026-01-23_17h20.31.026,MST_task,2024.2.0,60.05648913033941,2026-01-23 17h20.36.679876 +0530,
,Scenes\068a.jpg,47,0,48,,,,,,,j,1.3991385999834165,0.0961828000145033,None,,,,48,0,47,281.9056220999919,,,,,,,,,,,,,,,,,,,,,,,281.8906741999672,281.9056220999919,282.40757659997325,282.38921069999924,,,,,,,,,,,,,,,,,,,,,,,,,,282.4048202999984,282.40757659997325,282.40757659997325,282.40757659997325,285.4058957999805,j,1.3991385999834165,0.0961828000145033,285.40609379997477,285.406160500017,None,,,,,,,,,,,,,00040,001,2026-01-23_17h20.31.026,MST_task,2024.2.0,60.05648913033941,2026-01-23 17h20.36.679876 +0530,
,Scenes\030a.jpg,48,0,49,,,,,,,j,0.9013673000154085,0.12026699999114498,None,,,,49,0,48,285.4219912000117,,,,,,,,,,,,,,,,,,,,,,,285.40652780001983,285.4219912000117,285.92935749999015,285.9056815999793,,,,,,,,,,,,,,,,,,,,,,,,,,285.9260067999712,285.92935749999015,285.92935749999015,285.92935749999015,288.92343520000577,j,0.9013673000154085,0.12026699999114498,288.9236423000111,288.92370869999286,None,,,,,,,,,,,,,00040,001,2026-01-23_17h20.31.026,MST_task,2024.2.0,60.05648913033941,2026-01-23 17h20.36.679876 +0530,
,Objects\084a.jpg,49,0,50,,,,,,,f,1.1348455999977887,0.19283989997347817,None,,,,50,0,49,288.9395249999943,,,,,,,,,,,,,,,,,,,,,,,288.92403469997225,288.9395249999943,289.43988449999597,289.422608199995,,,,,,,,,,,,,,,,,,,,,,,,,,289.43293000000995,289.43988449999597,289.43988449999597,289.43988449999597,292.4236566000036,f,1.1348455999977887,0.19283989997347817,292.42385490000015,292.42391409998527,None,292.4388184999698,292.4388184999698,292.4388184999698,,,,,,,,,,00040,001,2026-01-23_17h20.31.026,MST_task,2024.2.0,60.05648913033941,2026-01-23 17h20.36.679876 +0530,
,Objects\062a.jpg,50,0,51,,,,,,,f,1.1536769000231288,0.18373009999049827,None,,,,51,0,50,292.4388184999698,,,,,,,,,,,,,,,,,,,,,,,292.42428879998624,292.4388184999698,292.9497311000014,292.92353379999986,,,,,,,,,,,,,,,,,,,,,,,,,,292.946926900011,292.9497311000014,292.9497311000014,292.9497311000014,295.93948609998915,f,1.1536769000231288,0.18373009999049827,295.9396870000055,295.9397526999819,None,,,,,,,,,,,,,00040,001,2026-01-23_17h20.31.026,MST_task,2024.2.0,60.05648913033941,2026-01-23 17h20.36.679876 +0530,
,Objects\005a.jpg,51,0,52,,,,,,,j,1.1170716999913566,0.1365984000149183,None,,,,52,0,51,295.9556322999997,,,,,,,,,,,,,,,,,,,,,,,295.9400458000018,295.9556322999997,296.4658854000154,296.43957539997064,,,,,,,,,,,,,,,,,,,,,,,,,,296.4625961999991,296.4658854000154,296.4658854000154,296.4658854000154,299.4567896000226,j,1.1170716999913566,0.1365984000149183,299.45699209999293,299.4570575999678,None,,,,,,,,,,,,,00040,001,2026-01-23_17h20.31.026,MST_task,2024.2.0,60.05648913033941,2026-01-23 17h20.36.679876 +0530,
,Objects\178a.jpg,52,0,53,,,,,,,j,1.1491861999966204,0.09559649997390807,None,,,,53,0,52,299.472382500011,,,,,,,,,,,,,,,,,,,,,,,299.45741949998774,299.472382500011,299.9781942999689,299.95644609996816,,,,,,,,,,,,,,,,,,,,,,,,,,299.9753909999854,299.9781942999689,299.9781942999689,299.9781942999689,302.9723553999793,j,1.1491861999966204,0.09559649997390807,302.97250729997177,302.9725302999723,None,,,,,,,,,,,,,00040,001,2026-01-23_17h20.31.026,MST_task,2024.2.0,60.05648913033941,2026-01-23 17h20.36.679876 +0530,
,Objects\137a.jpg,53,0,54,,,,,,,f,0.9336630000034347,0.11218719999305904,None,,,,54,0,53,302.9889658999746,,,,,,,,,,,,,,,,,,,,,,,302.97262770001544,302.9889658999746,,303.4728605999844,,,,,,,,,,,,,,,,,,,,,,,,,,303.48155039997073,303.48907670000335,303.48907670000335,303.48907670000335,306.47298909997335,f,0.9336630000034347,0.11218719999305904,306.4732188999769,306.47328430000925,None,,,,,,,,,,,,,00040,001,2026-01-23_17h20.31.026,MST_task,2024.2.0,60.05648913033941,2026-01-23 17h20.36.679876 +0530,
,Objects\020a.jpg,54,0,55,,,,,,,f,1.1943000000319444,0.16818470001453534,None,,,,55,0,54,306.4891251999652,,,,,,,,,,,,,,,,,,,,,,,306.4735897000064,306.4891251999652,306.98907389998203,306.9724797999952,,,,,,,,,,,,,,,,,,,,,,,,,,306.976997699996,306.98907389998203,306.98907389998203,306.98907389998203,309.97283639997477,f,1.1943000000319444,0.16818470001453534,309.97291919996496,309.97293549997266,None,309.98870489996625,309.98870489996625,309.98870489996625,,,,,,,,,,00040,001,2026-01-23_17h20.31.026,MST_task,2024.2.0,60.05648913033941,2026-01-23 17h20.36.679876 +0530,
,Objects\036a.jpg,55,0,56,,,,,,,f,1.1581643999670632,0.12021939997794107,None,,,,56,0,55,309.98870489996625,,,,,,,,,,,,,,,,,,,,,,,309.9730456999969,309.98870489996625,310.489146900014,310.4725730000064,,,,,,,,,,,,,,,,,,,,,,,,,,310.48155530000804,310.489146900014,310.489146900014,310.489146900014,313.47316679998767,f,1.1581643999670632,0.12021939997794107,313.4733720999793,313.47343720000936,None,,,,,,,,,,,,,00040,001,2026-01-23_17h20.31.026,MST_task,2024.2.0,60.05648913033941,2026-01-23 17h20.36.679876 +0530,
,Scenes\085a.jpg,56,0,57,,,,,,,j,0.8226257000351325,0.10446760000195354,None,,,,57,0,56,313.48924490000354,,,,,,,,,,,,,,,,,,,,,,,313.473729499965,313.48924490000354,313.99200440000277,313.97280069999397,,,,,,,,,,,,,,,,,,,,,,,,,,313.98933179996675,313.99200440000277,313.99200440000277,313.99200440000277,316.9892688000109,j,0.8226257000351325,0.10446760000195354,316.9894705999759,316.98953620000975,None,,,,,,,,,,,,,00040,001,2026-01-23_17h20.31.026,MST_task,2024.2.0,60.05648913033941,2026-01-23 17h20.36.679876 +0530,
,Scenes\192a.jpg,57,0,58,,,,,,,j,0.668400099966675,0.10410160000901669,None,,,,58,0,57,317.00548360001994,,,,,,,,,,,,,,,,,,,,,,,316.98982179997256,317.00548360001994,317.5062955999747,317.48954500001855,,,,,,,,,,,,,,,,,,,,,,,,,,317.5036916999961,317.5062955999747,317.5062955999747,317.5062955999747,320.4897998999804,j,0.668400099966675,0.10410160000901669,320.4900031000143,320.4900711000082,None,,,,,,,,,,,,,00040,001,2026-01-23_17h20.31.026,MST_task,2024.2.0,60.05648913033941,2026-01-23 17h20.36.679876 +0530,
,Scenes\158a.jpg,58,0,59,,,,,,,f,1.6372144999913871,0.11149129999103025,None,,,,59,0,58,320.505788200011,,,,,,,,,,,,,,,,,,,,,,,320.49037339998176,320.505788200011,321.0101004000171,320.98921849997714,,,,,,,,,,,,,,,,,,,,,,,,,,321.00633709999966,321.0101004000171,321.0101004000171,321.0101004000171,324.0061912999954,f,1.6372144999913871,0.11149129999103025,324.0063910000026,324.00645509996684,None,,,,,,,,,,,,,00040,001,2026-01-23_17h20.31.026,MST_task,2024.2.0,60.05648913033941,2026-01-23 17h20.36.679876 +0530,
,Scenes\093a.jpg,59,0,60,,,,,,,f,1.025357799953781,0.12068000005092472,None,,,,60,0,59,324.0221037999727,,,,,,,,,,,,,,,,,,,,,,,324.00674360000994,324.0221037999727,324.52549269999145,324.50619220000226,,,,,,,,,,,,,,,,,,,,,,,,,,324.52276209997945,324.52549269999145,324.52549269999145,324.52549269999145,327.5227143999655,f,1.025357799953781,0.12068000005092472,327.52291780000087,327.52298299997346,None,,,,,,,,,,,,,00040,001,2026-01-23_17h20.31.026,MST_task,2024.2.0,60.05648913033941,2026-01-23 17h20.36.679876 +0530,
,Scenes\017a.jpg,60,0,61,,,,,,,f,0.9911215000320226,0.14379299996653572,None,,,,61,0,60,327.5391141999862,,,,,,,,,,,,,,,,,,,,,,,327.5233595999889,327.5391141999862,328.05596209998475,328.0227182999952,,,,,,,,,,,,,,,,,,,,,,,,,,328.05248169996776,328.05596209998475,328.05596209998475,328.05596209998475,331.0394133999944,f,0.9911215000320226,0.14379299996653572,331.0396032999852,331.03965479996987,None,,,,,,,,,,,,,00040,001,2026-01-23_17h20.31.026,MST_task,2024.2.0,60.05648913033941,2026-01-23 17h20.36.679876 +0530,
,Scenes\123a.jpg,61,0,62,,,,,,,j,0.8588114999583922,0.13617880002129823,None,,,,62,0,61,331.0557955999975,,,,,,,,,,,,,,,,,,,,,,,331.0399598000222,331.0557955999975,331.55650850001257,331.5395370000042,,,,,,,,,,,,,,,,,,,,,,,,,,331.5512936000014,331.55650850001257,331.55650850001257,331.55650850001257,334.5405364999897,j,0.8588114999583922,0.13617880002129823,334.5407315000193,334.54079379996983,None,334.55576419999124,334.55576419999124,334.55576419999124,,,,,,,,,,00040,001,2026-01-23_17h20.31.026,MST_task,2024.2.0,60.05648913033941,2026-01-23 17h20.36.679876 +0530,
,Scenes\179a.jpg,62,0,63,,,,,,,j,0.8152952000382356,0.11962349998066202,None,,,,63,0,62,334.55576419999124,,,,,,,,,,,,,,,,,,,,,,,334.5411668000161,334.55576419999124,335.0560403999989,335.03922639996745,,,,,,,,,,,,,,,,,,,,,,,,,,335.05085639999015,335.0560403999989,335.0560403999989,335.0560403999989,338.0401799000101,j,0.8152952000382356,0.11962349998066202,338.04037469998,338.040433200018,None,338.05580119998194,338.05580119998194,338.05580119998194,,,,,,,,,,00040,001,2026-01-23_17h20.31.026,MST_task,2024.2.0,60.05648913033941,2026-01-23 17h20.36.679876 +0530,
,Objects\135a.jpg,63,0,64,,,,,,,f,0.9230587999918498,0.14412690000608563,None,,,,64,0,63,338.05580119998194,,,,,,,,,,,,,,,,,,,,,,,338.04073269997025,338.05580119998194,338.5877049000119,338.54027140000835,,,,,,,,,,,,,,,,,,,,,,,,,,338.58484919997863,338.5877049000119,338.5877049000119,338.5877049000119,341.55617759999586,f,0.9230587999918498,0.14412690000608563,341.55638379999436,341.5564499999746,None,,,,,,,,,,,,,00040,001,2026-01-23_17h20.31.026,MST_task,2024.2.0,60.05648913033941,2026-01-23 17h20.36.679876 +0530,
,Objects\017a.jpg,64,0,65,,,,,,,f,1.9969138999585994,0.1037038000067696,None,,,,65,0,64,341.5721476000035,,,,,,,,,,,,,,,,,,,,,,,341.5568183999858,341.5721476000035,342.0824319999665,342.05623119999655,,,,,,,,,,,,,,,,,,,,,,,,,,342.079934999987,342.0824319999665,342.0824319999665,342.0824319999665,345.07286060001934,f,1.9969138999585994,0.1037038000067696,345.0730589000159,345.0731237999862,None,,,,,,,,,,,,,00040,001,2026-01-23_17h20.31.026,MST_task,2024.2.0,60.05648913033941,2026-01-23 17h20.36.679876 +0530,
,Objects\055a.jpg,65,0,66,,,,,,,f,0.8659627000452019,0.11938509996980429,None,,,,66,0,65,345.0897494999808,,,,,,,,,,,,,,,,,,,,,,,345.07341239997186,345.0897494999808,345.58930619998137,345.5730273000081,,,,,,,,,,,,,,,,,,,,,,,,,,345.58167899999535,345.58930619998137,345.58930619998137,345.58930619998137,348.57375029998366,f,0.8659627000452019,0.11938509996980429,348.5739455000148,348.5740053000045,None,348.5890757999732,348.5890757999732,348.5890757999732,,,,,,,,,,00040,001,2026-01-23_17h20.31.026,MST_task,2024.2.0,60.05648913033941,2026-01-23 17h20.36.679876 +0530,
,Objects\133a.jpg,66,0,67,,,,,,,j,1.3737911999924108,0.14371340000070632,None,,,,67,0,66,348.5890757999732,,,,,,,,,,,,,,,,,,,,,,,348.57428359996993,348.5890757999732,349.08935309998924,349.0728798999917,,,,,,,,,,,,,,,,,,,,,,,,,,349.08162159996573,349.08935309998924,349.08935309998924,349.08935309998924,352.07352749997517,j,1.3737911999924108,0.14371340000070632,352.07372129999567,352.07377849996556,None,352.08875619998435,352.08875619998435,352.08875619998435,,,,,,,,,,00040,001,2026-01-23_17h20.31.026,MST_task,2024.2.0,60.05648913033941,2026-01-23 17h20.36.679876 +0530,
,Objects\076a.jpg,67,0,68,,,,,,,j,1.2094822999788448,0.10416470002382994,None,,,,68,0,67,352.08875619998435,,,,,,,,,,,,,,,,,,,,,,,352.0740728999954,352.08875619998435,352.5893421000219,352.57291390001774,,,,,,,,,,,,,,,,,,,,,,,,,,352.58110150002176,352.5893421000219,352.5893421000219,352.5893421000219,355.57398960000137,j,1.2094822999788448,0.10416470002382994,355.57419329998083,355.57425249996595,None,355.58905060001416,355.58905060001416,355.58905060001416,,,,,,,,,,00040,001,2026-01-23_17h20.31.026,MST_task,2024.2.0,60.05648913033941,2026-01-23 17h20.36.679876 +0530,
,Objects\014a.jpg,68,0,69,,,,,,,f,0.8133310999837704,0.12060930003644899,None,,,,69,0,68,355.58905060001416,,,,,,,,,,,,,,,,,,,,,,,355.57464710000204,355.58905060001416,356.0893989999895,356.0729077999713,,,,,,,,,,,,,,,,,,,,,,,,,,356.07972869998775,356.0893989999895,356.0893989999895,356.0893989999895,359.0733932000003,f,0.8133310999837704,0.12060930003644899,359.07359250000445,359.0736525999964,None,359.088722400018,359.088722400018,359.088722400018,,,,,,,,,,00040,001,2026-01-23_17h20.31.026,MST_task,2024.2.0,60.05648913033941,2026-01-23 17h20.36.679876 +0530,
,Objects\122a.jpg,69,0,70,,,,,,,f,1.6337240999564528,0.11264820001088083,None,,,,70,0,69,359.088722400018,,,,,,,,,,,,,,,,,,,,,,,359.07403959997464,359.088722400018,359.5889511000132,359.5727121999953,,,,,,,,,,,,,,,,,,,,,,,,,,359.5813810999971,359.5889511000132,359.5889511000132,359.5889511000132,362.5734495000215,f,1.6337240999564528,0.11264820001088083,362.5736502999789,362.5737103999709,None,362.58937689999584,362.58937689999584,362.58937689999584,,,,,,,,,,00040,001,2026-01-23_17h20.31.026,MST_task,2024.2.0,60.05648913033941,2026-01-23 17h20.36.679876 +0530,
,Scenes\126a.jpg,70,0,71,,,,,,,j,1.3653933000168763,0.10385040001710877,None,,,,71,0,70,362.58937689999584,,,,,,,,,,,,,,,,,,,,,,,362.5739892999991,362.58937689999584,363.0897873999784,363.0728578999988,,,,,,,,,,,,,,,,,,,,,,,,,,363.0872700000182,363.0897873999784,363.0897873999784,363.0897873999784,366.0737091000192,j,1.3653933000168763,0.10385040001710877,366.07390820002183,366.07396660000086,None,366.089063899999,366.089063899999,366.089063899999,,,,,,,,,,00040,001,2026-01-23_17h20.31.026,MST_task,2024.2.0,60.05648913033941,2026-01-23 17h20.36.679876 +0530,
,Scenes\177a.jpg,71,0,72,,,,,,,j,1.0815347000025213,0.16816200001630932,None,,,,72,0,71,366.089063899999,,,,,,,,,,,,,,,,,,,,,,,366.07440520002274,366.089063899999,366.5891233999864,366.5726406999747,,,,,,,,,,,,,,,,,,,,,,,,,,366.5857824999839,366.5891233999864,366.5891233999864,366.5891233999864,369.57441970001673,j,1.0815347000025213,0.16816200001630932,369.57461140002124,369.57467220001854,None,369.5890645000036,369.5890645000036,369.5890645000036,,,,,,,,,,00040,001,2026-01-23_17h20.31.026,MST_task,2024.2.0,60.05648913033941,2026-01-23 17h20.36.679876 +0530,
,Scenes\025a.jpg,72,0,73,,,,,,,j,0.8080917000188492,0.11959299998125061,None,,,,73,0,72,369.5890645000036,,,,,,,,,,,,,,,,,,,,,,,369.5749635999673,369.5890645000036,370.1112560000038,370.0731597999693,,,,,,,,,,,,,,,,,,,,,,,,,,370.1082398999715,370.1112560000038,370.1112560000038,370.1112560000038,373.08944830001565,j,0.8080917000188492,0.11959299998125061,373.0896504999837,373.0897151000099,None,,,,,,,,,,,,,00040,001,2026-01-23_17h20.31.026,MST_task,2024.2.0,60.05648913033941,2026-01-23 17h20.36.679876 +0530,
,Scenes\094a.jpg,73,0,74,,,,,,,f,1.187739800021518,0.11973489995580167,None,,,,74,0,73,373.1063053999678,,,,,,,,,,,,,,,,,,,,,,,373.09000530000776,373.1063053999678,373.61160020000534,373.5894776000059,,,,,,,,,,,,,,,,,,,,,,,,,,373.60840199998347,373.61160020000534,373.61160020000534,373.61160020000534,376.60619199997745,f,1.187739800021518,0.11973489995580167,376.60639560001437,376.6064604999847,None,,,,,,,,,,,,,00040,001,2026-01-23_17h20.31.026,MST_task,2024.2.0,60.05648913033941,2026-01-23 17h20.36.679876 +0530,
,Scenes\076a.jpg,74,0,75,,,,,,,j,0.7903175000101328,0.12057860003551468,None,,,,75,0,74,376.62245999998413,,,,,,,,,,,,,,,,,,,,,,,376.60674359998666,376.62245999998413,377.1445832999889,377.10620679997373,,,,,,,,,,,,,,,,,,,,,,,,,,377.1411899999948,377.1445832999889,377.1445832999889,377.1445832999889,380.12286050000694,j,0.7903175000101328,0.12057860003551468,380.12306770001305,380.1231326999841,None,,,,,,,,,,,,,00040,001,2026-01-23_17h20.31.026,MST_task,2024.2.0,60.05648913033941,2026-01-23 17h20.36.679876 +0530,
,Scenes\034a.jpg,75,0,76,,,,,,,j,1.1309920000494458,0.1443792999489233,None,,,,76,0,75,380.13890670001274,,,,,,,,,,,,,,,,,,,,,,,380.12350129999686,380.13890670001274,380.6595888999873,380.62286459997995,,,,,,,,,,,,,,,,,,,,,,,,,,380.65615100000286,380.6595888999873,380.6595888999873,380.6595888999873,383.63948279997567,j,1.1309920000494458,0.1443792999489233,383.6396789000137,383.63974289997714,None,,,,,,,,,,,,,00040,001,2026-01-23_17h20.31.026,MST_task,2024.2.0,60.05648913033941,2026-01-23 17h20.36.679876 +0530,
,Scenes\027a.jpg,76,0,77,,,,,,,f,0.9781256000278518,0.12051470001460984,None,,,,77,0,76,383.65563069999916,,,,,,,,,,,,,,,,,,,,,,,383.6401055000024,383.65563069999916,384.1565319999936,384.1394930999959,,,,,,,,,,,,,,,,,,,,,,,,,,384.1507206999813,384.1565319999936,384.1565319999936,384.1565319999936,387.1401797999861,f,0.9781256000278518,0.12051470001460984,387.1403828000184,387.14044629997807,None,,,,,,,,,,,,,00040,001,2026-01-23_17h20.31.026,MST_task,2024.2.0,60.05648913033941,2026-01-23 17h20.36.679876 +0530,
,Objects\037a.jpg,77,0,78,,,,,,,f,0.8621561999898404,0.11219010001514107,None,,,,78,0,77,387.1557959999773,,,,,,,,,,,,,,,,,,,,,,,387.1407395999995,387.1557959999773,387.6566567000118,387.63984720001463,,,,,,,,,,,,,,,,,,,,,,,,,,387.65002160001313,387.6566567000118,387.6566567000118,387.6566567000118,390.6402637999854,f,0.8621561999898404,0.11219010001514107,390.64045850001276,390.6405186000047,None,390.65579759998946,390.65579759998946,390.65579759998946,,,,,,,,,,00040,001,2026-01-23_17h20.31.026,MST_task,2024.2.0,60.05648913033941,2026-01-23 17h20.36.679876 +0530,
,Objects\138a.jpg,78,0,79,,,,,,,j,1.2754828000324778,0.09613809996517375,None,,,,79,0,78,390.65579759998946,,,,,,,,,,,,,,,,,,,,,,,390.6408858000068,390.65579759998946,391.155774999992,391.13912299997173,,,,,,,,,,,,,,,,,,,,,,,,,,391.1488983000163,391.155774999992,391.155774999992,391.155774999992,394.14009160001297,j,1.2754828000324778,0.09613809996517375,394.1402800999931,394.1403387999744,None,394.15580509998836,394.15580509998836,394.15580509998836,,,,,,,,,,00040,001,2026-01-23_17h20.31.026,MST_task,2024.2.0,60.05648913033941,2026-01-23 17h20.36.679876 +0530,
,Objects\033a.jpg,79,0,80,,,,,,,j,1.0855859000002965,0.09627430001273751,None,,,,80,0,79,394.15580509998836,,,,,,,,,,,,,,,,,,,,,,,394.14070789999096,394.15580509998836,394.65695460001007,394.6393238999881,,,,,,,,,,,,,,,,,,,,,,,,,,394.64774350001244,394.65695460001007,394.65695460001007,394.65695460001007,397.6561878999928,j,1.0855859000002965,0.09627430001273751,397.6563987999689,397.65646560001187,None,,,,,,,,,,,,,00040,001,2026-01-23_17h20.31.026,MST_task,2024.2.0,60.05648913033941,2026-01-23 17h20.36.679876 +0530,
,Objects\031a.jpg,80,0,81,,,,,,,f,0.9224623999907635,0.1524277999997139,None,,,,81,0,80,397.6724649000098,,,,,,,,,,,,,,,,,,,,,,,397.6567550000036,397.6724649000098,398.1726053999737,398.1561563999858,,,,,,,,,,,,,,,,,,,,,,,,,,398.1646194999921,398.1726053999737,398.1726053999737,398.1726053999737,401.15711739996914,f,0.9224623999907635,0.1524277999997139,401.15731400001096,401.1573725999915,None,401.17213979997905,401.17213979997905,401.17213979997905,,,,,,,,,,00040,001,2026-01-23_17h20.31.026,MST_task,2024.2.0,60.05648913033941,2026-01-23 17h20.36.679876 +0530,
,Objects\157a.jpg,81,0,82,,,,,,,f,1.174605900014285,0.16829679999500513,None,,,,82,0,81,401.17213979997905,,,,,,,,,,,,,,,,,,,,,,,401.1577451999765,401.17213979997905,401.67249269998865,401.6562170999823,,,,,,,,,,,,,,,,,,,,,,,,,,401.6642577999737,401.67249269998865,401.67249269998865,401.67249269998865,404.6567813999718,f,1.174605900014285,0.16829679999500513,404.65698520001024,404.65704540000297,None,404.67213329998776,404.67213329998776,404.67213329998776,,,,,,,,,,00040,001,2026-01-23_17h20.31.026,MST_task,2024.2.0,60.05648913033941,2026-01-23 17h20.36.679876 +0530,
,Objects\156a.jpg,82,0,83,,,,,,,f,1.3307089000009,0.11191490001510829,None,,,,83,0,82,404.67213329998776,,,,,,,,,,,,,,,,,,,,,,,404.65742090001004,404.67213329998776,405.172504200018,405.1561704999767,,,,,,,,,,,,,,,,,,,,,,,,,,405.1628269000212,405.172504200018,405.172504200018,405.172504200018,408.15666430001147,f,1.3307089000009,0.11191490001510829,408.15685919998214,408.156918499968,None,408.1722697999794,408.1722697999794,408.1722697999794,,,,,,,,,,00040,001,2026-01-23_17h20.31.026,MST_task,2024.2.0,60.05648913033941,2026-01-23 17h20.36.679876 +0530,
,Objects\125a.jpg,83,0,84,,,,,,,j,1.1585401999764144,0.12771010003052652,None,,,,84,0,83,408.1722697999794,,,,,,,,,,,,,,,,,,,,,,,408.15720969997346,408.1722697999794,408.67268419999164,408.6561929999734,,,,,,,,,,,,,,,,,,,,,,,,,,408.6647357000038,408.67268419999164,408.67268419999164,408.67268419999164,411.6569057999877,j,1.1585401999764144,0.12771010003052652,411.6571026999736,411.65716499998234,None,411.67236019996926,411.67236019996926,411.67236019996926,,,,,,,,,,00040,001,2026-01-23_17h20.31.026,MST_task,2024.2.0,60.05648913033941,2026-01-23 17h20.36.679876 +0530,
,Scenes\046a.jpg,84,0,85,,,,,,,j,1.0435512000112794,0.11230520001845434,None,,,,85,0,84,411.67236019996926,,,,,,,,,,,,,,,,,,,,,,,411.6575354000088,411.67236019996926,412.1791388000129,412.1560901000048,,,,,,,,,,,,,,,,,,,,,,,,,,412.17636400001356,412.1791388000129,412.1791388000129,412.1791388000129,415.17289009998785,j,1.0435512000112794,0.11230520001845434,415.17308619996766,415.1731539000175,None,,,,,,,,,,,,,00040,001,2026-01-23_17h20.31.026,MST_task,2024.2.0,60.05648913033941,2026-01-23 17h20.36.679876 +0530,
,Scenes\104a.jpg,85,0,86,,,,,,,j,0.8276937000337057,0.13619439996546134,None,,,,86,0,85,415.18891949998215,,,,,,,,,,,,,,,,,,,,,,,415.17351829999825,415.18891949998215,415.70697679999284,415.6726808999665,,,,,,,,,,,,,,,,,,,,,,,,,,415.7040733000031,415.70697679999284,415.70697679999284,415.70697679999284,418.6893470999785,j,0.8276937000337057,0.13619439996546134,418.6895491000032,418.68961699999636,None,,,,,,,,,,,,,00040,001,2026-01-23_17h20.31.026,MST_task,2024.2.0,60.05648913033941,2026-01-23 17h20.36.679876 +0530,
,Scenes\187a.jpg,86,0,87,,,,,,,j,1.062713299994357,0.1034358000033535,None,,,,87,0,86,418.70569169998635,,,,,,,,,,,,,,,,,,,,,,,418.68995129998075,418.70569169998635,419.2086304000113,419.18932830000995,,,,,,,,,,,,,,,,,,,,,,,,,,419.20604929997353,419.2086304000113,419.2086304000113,419.2086304000113,422.2064830000163,j,1.062713299994357,0.1034358000033535,422.2066832999699,422.2067473999923,None,,,,,,,,,,,,,00040,001,2026-01-23_17h20.31.026,MST_task,2024.2.0,60.05648913033941,2026-01-23 17h20.36.679876 +0530,
,Scenes\160a.jpg,87,0,88,,,,,,,j,1.0663801999762654,0.09708820004016161,None,,,,88,0,87,422.2224629999837,,,,,,,,,,,,,,,,,,,,,,,422.20703779999167,422.2224629999837,422.74043790000724,422.706878099998,,,,,,,,,,,,,,,,,,,,,,,,,,422.7377641000203,422.74043790000724,422.74043790000724,422.74043790000724,425.7228721000138,j,1.0663801999762654,0.09708820004016161,425.7230705000111,425.72313579998445,None,,,,,,,,,,,,,00040,001,2026-01-23_17h20.31.026,MST_task,2024.2.0,60.05648913033941,2026-01-23 17h20.36.679876 +0530,
,Scenes\157a.jpg,88,0,89,,,,,,,j,1.310699499968905,0.1212597000412643,None,,,,89,0,88,425.73908339999616,,,,,,,,,,,,,,,,,,,,,,,425.7235045999987,425.73908339999616,426.23971270001493,426.22286979999626,,,,,,,,,,,,,,,,,,,,,,,,,,426.2371942999889,426.23971270001493,426.23971270001493,426.23971270001493,429.22339940001257,j,1.310699499968905,0.1212597000412643,429.2235919999657,429.2236510000075,None,429.23883330001263,429.23883330001263,429.23883330001263,,,,,,,,,,00040,001,2026-01-23_17h20.31.026,MST_task,2024.2.0,60.05648913033941,2026-01-23 17h20.36.679876 +0530,
,Scenes\014a.jpg,89,0,90,,,,,,,j,1.4508309999946505,0.09696450002957135,None,,,,90,0,89,429.23883330001263,,,,,,,,,,,,,,,,,,,,,,,429.224019700021,429.23883330001263,429.7396229999722,429.72290059999796,,,,,,,,,,,,,,,,,,,,,,,,,,429.734414400009,429.7396229999722,429.7396229999722,429.7396229999722,432.72349619999295,j,1.4508309999946505,0.09696450002957135,432.72369229997275,432.72375279996777,None,432.7390837999992,432.7390837999992,432.7390837999992,,,,,,,,,,00040,001,2026-01-23_17h20.31.026,MST_task,2024.2.0,60.05648913033941,2026-01-23 17h20.36.679876 +0530,
,Scenes\181a.jpg,90,0,91,,,,,,,f,1.2768452999880537,0.11266699997941032,None,,,,91,0,90,432.7390837999992,,,,,,,,,,,,,,,,,,,,,,,432.724050699966,432.7390837999992,433.2419215000118,433.2228895999724,,,,,,,,,,,,,,,,,,,,,,,,,,433.2392699000193,433.2419215000118,433.2419215000118,433.2419215000118,436.2394659999991,f,1.2768452999880537,0.11266699997941032,436.23966690001544,436.23974729998736,None,,,,,,,,,,,,,00040,001,2026-01-23_17h20.31.026,MST_task,2024.2.0,60.05648913033941,2026-01-23 17h20.36.679876 +0530,
,Objects\052a.jpg,91,0,92,,,,,,,j,1.7146342999767512,0.10388710000552237,None,,,,92,0,91,436.2558228999842,,,,,,,,,,,,,,,,,,,,,,,436.2400353999692,436.2558228999842,436.80459790001623,436.7394716999843,,,,,,,,,,,,,,,,,,,,,,,,,,436.8020786999841,436.80459790001623,436.80459790001623,436.80459790001623,439.7560047999723,j,1.7146342999767512,0.10388710000552237,439.756204699981,439.7562673999928,None,,,,,,,,,,,,,00040,001,2026-01-23_17h20.31.026,MST_task,2024.2.0,60.05648913033941,2026-01-23 17h20.36.679876 +0530,
,Objects\143a.jpg,92,0,93,,,,,,,j,1.1958357999683358,0.09604360000230372,None,,,,93,0,92,439.77239439997356,,,,,,,,,,,,,,,,,,,,,,,439.756558699999,439.77239439997356,,440.25696510000853,,,,,,,,,,,,,,,,,,,,,,,,,,440.28030579996994,440.2831437999848,440.2831437999848,440.2831437999848,443.27288319997024,j,1.1958357999683358,0.09604360000230372,443.2730786000029,443.2731425999664,None,,,,,,,,,,,,,00040,001,2026-01-23_17h20.31.026,MST_task,2024.2.0,60.05648913033941,2026-01-23 17h20.36.679876 +0530,
,Objects\163a.jpg,93,0,94,,,,,,,j,1.400485199992545,0.09647960000438616,None,,,,94,0,93,443.28903049998917,,,,,,,,,,,,,,,,,,,,,,,443.27343299996573,443.28903049998917,443.7983863999834,443.77262699999847,,,,,,,,,,,,,,,,,,,,,,,,,,443.7956145000062,443.7983863999834,443.7983863999834,443.7983863999834,446.78920990001643,j,1.400485199992545,0.09647960000438616,446.7894057999947,446.7894714999711,None,,,,,,,,,,,,,00040,001,2026-01-23_17h20.31.026,MST_task,2024.2.0,60.05648913033941,2026-01-23 17h20.36.679876 +0530,
,Objects\079a.jpg,94,0,95,,,,,,,f,1.108827299962286,0.13618480000877753,None,,,,95,0,94,446.8057155999704,,,,,,,,,,,,,,,,,,,,,,,446.789760100015,446.8057155999704,447.3060344000114,447.2892591999844,,,,,,,,,,,,,,,,,,,,,,,,,,447.2982726999908,447.3060344000114,447.3060344000114,447.3060344000114,450.2896601000102,f,1.108827299962286,0.13618480000877753,450.2898642999935,450.289929200022,None,,,,,,,,,,,,,00040,001,2026-01-23_17h20.31.026,MST_task,2024.2.0,60.05648913033941,2026-01-23 17h20.36.679876 +0530,
,Objects\090a.jpg,95,0,96,,,,,,,j,1.8970368999871425,0.0957351999823004,None,,,,96,0,95,450.306580399978,,,,,,,,,,,,,,,,,,,,,,,450.29030059999786,450.306580399978,450.8060813000193,450.78954849997535,,,,,,,,,,,,,,,,,,,,,,,,,,450.7980682000052,450.8060813000193,450.8060813000193,450.8060813000193,453.7903462999966,j,1.8970368999871425,0.0957351999823004,453.7905509999837,453.7906094000209,None,453.80580460000783,453.80580460000783,453.80580460000783,,,,,,,,,,00040,001,2026-01-23_17h20.31.026,MST_task,2024.2.0,60.05648913033941,2026-01-23 17h20.36.679876 +0530,
,Objects\107a.jpg,96,0,97,,,,,,,f,1.0207641000160947,0.1362881999812089,None,,,,97,0,96,453.80580460000783,,,,,,,,,,,,,,,,,,,,,,,453.7909157999675,453.80580460000783,454.3056952999905,454.2895860999706,,,,,,,,,,,,,,,,,,,,,,,,,,454.2979241000139,454.3056952999905,454.3056952999905,454.3056952999905,457.29013939999277,f,1.0207641000160947,0.1362881999812089,457.290330799995,457.2903848999995,None,457.3061821999727,457.3061821999727,457.3061821999727,,,,,,,,,,00040,001,2026-01-23_17h20.31.026,MST_task,2024.2.0,60.05648913033941,2026-01-23 17h20.36.679876 +0530,
,Objects\153a.jpg,97,0,98,,,,,,,f,1.176857300044503,0.1358580999658443,None,,,,98,0,97,457.3061821999727,,,,,,,,,,,,,,,,,,,,,,,457.29096189996926,457.3061821999727,457.8060232999851,457.78954279999016,,,,,,,,,,,,,,,,,,,,,,,,,,457.79813589999685,457.8060232999851,457.8060232999851,457.8060232999851,460.7900263000047,f,1.176857300044503,0.1358580999658443,460.79021790000843,460.79027840000344,None,460.8057873999933,460.8057873999933,460.8057873999933,,,,,,,,,,00040,001,2026-01-23_17h20.31.026,MST_task,2024.2.0,60.05648913033941,2026-01-23 17h20.36.679876 +0530,
,Scenes\173a.jpg,98,0,99,,,,,,,j,0.6770279000047594,0.11974739999277517,None,,,,99,0,98,460.8057873999933,,,,,,,,,,,,,,,,,,,,,,,460.7905761000002,460.8057873999933,461.30602339998586,461.28954520000843,,,,,,,,,,,,,,,,,,,,,,,,,,461.3024610999855,461.30602339998586,461.30602339998586,461.30602339998586,464.29013530001976,j,0.6770279000047594,0.11974739999277517,464.2903232999961,464.29037820000667,None,464.30559110001195,464.30559110001195,464.30559110001195,,,,,,,,,,00040,001,2026-01-23_17h20.31.026,MST_task,2024.2.0,60.05648913033941,2026-01-23 17h20.36.679876 +0530,
,Scenes\060a.jpg,99,0,100,,,,,,,j,1.1070659999968484,0.13652040000306442,None,,,,100,0,99,464.30559110001195,,,,,,,,,,,,,,,,,,,,,,,464.29064159997506,464.30559110001195,464.81152549997205,464.79021780000767,,,,,,,,,,,,,,,,,,,,,,,,,,464.80844479997177,464.81152549997205,464.81152549997205,464.81152549997205,467.8063417999656,j,1.1070659999968484,0.13652040000306442,467.8065507999854,467.806616100017,None,,,,,,,,,,,,,00040,001,2026-01-23_17h20.31.026,MST_task,2024.2.0,60.05648913033941,2026-01-23 17h20.36.679876 +0530,
,Scenes\036a.jpg,100,0,101,,,,,,,j,1.0358814999926835,0.16030469996621832,None,,,,101,0,100,467.8228102999856,,,,,,,,,,,,,,,,,,,,,,,467.8070442000171,467.8228102999856,468.3230603999691,468.30623149999883,,,,,,,,,,,,,,,,,,,,,,,,,,468.3167399999802,468.3230603999691,468.3230603999691,468.3230603999691,471.3070416999981,j,1.0358814999926835,0.16030469996621832,471.3072454999783,471.30730699998094,None,471.3223702000105,471.3223702000105,471.3223702000105,,,,,,,,,,00040,001,2026-01-23_17h20.31.026,MST_task,2024.2.0,60.05648913033941,2026-01-23 17h20.36.679876 +0530,
,Scenes\051a.jpg,101,0,102,,,,,,,j,1.0079694000305608,0.14402209996478632,None,,,,102,0,101,471.3223702000105,,,,,,,,,,,,,,,,,,,,,,,471.30760709999595,471.3223702000105,471.8230300999712,471.8066351999878,,,,,,,,,,,,,,,,,,,,,,,,,,471.8191557999817,471.8230300999712,471.8230300999712,471.8230300999712,474.8068593000062,j,1.0079694000305608,0.14402209996478632,474.80706199997803,474.8071203000145,None,474.82215189997805,474.82215189997805,474.82215189997805,,,,,,,,,,00040,001,2026-01-23_17h20.31.026,MST_task,2024.2.0,60.05648913033941,2026-01-23 17h20.36.679876 +0530,
,Scenes\003a.jpg,102,0,103,,,,,,,j,1.6554827999789268,0.12002970004687086,None,,,,103,0,102,474.82215189997805,,,,,,,,,,,,,,,,,,,,,,,474.80748159997165,474.82215189997805,475.3276351999957,475.30635590001475,,,,,,,,,,,,,,,,,,,,,,,,,,475.324852699996,475.3276351999957,475.3276351999957,475.3276351999957,478.32262980000814,j,1.6554827999789268,0.12002970004687086,478.3228243999765,478.3228873999906,None,,,,,,,,,,,,,00040,001,2026-01-23_17h20.31.026,MST_task,2024.2.0,60.05648913033941,2026-01-23 17h20.36.679876 +0530,
,Scenes\074a.jpg,103,0,104,,,,,,,j,1.0056224999716505,0.1195570999989286,None,,,,104,0,103,478.3391739000217,,,,,,,,,,,,,,,,,,,,,,,478.32325279997895,478.3391739000217,478.8415978999692,478.82304609997664,,,,,,,,,,,,,,,,,,,,,,,,,,478.8388590000104,478.8415978999692,478.8415978999692,478.8415978999692,481.8395899999887,j,1.0056224999716505,0.1195570999989286,481.83978639997076,481.8398506999947,None,,,,,,,,,,,,,00040,001,2026-01-23_17h20.31.026,MST_task,2024.2.0,60.05648913033941,2026-01-23 17h20.36.679876 +0530,
,Scenes\155a.jpg,104,0,105,,,,,,,j,0.6586445999564603,0.10462980001466349,None,,,,105,0,104,481.8558167999727,,,,,,,,,,,,,,,,,,,,,,,481.84021639998537,481.8558167999727,482.35613739996916,482.33930049999617,,,,,,,,,,,,,,,,,,,,,,,,,,482.35338559997035,482.35613739996916,482.35613739996916,482.35613739996916,485.34036370000103,j,0.6586445999564603,0.10462980001466349,485.3405587999732,485.3406188999652,None,485.35550900001545,485.35550900001545,485.35550900001545,,,,,,,,,,00040,001,2026-01-23_17h20.31.026,MST_task,2024.2.0,60.05648913033941,2026-01-23 17h20.36.679876 +0530,
,Objects\035a.jpg,105,0,106,,,,,,,f,2.0786170999635942,0.10373930004425347,None,,,,106,0,105,485.35550900001545,,,,,,,,,,,,,,,,,,,,,,,485.34100760001456,485.35550900001545,485.85639819997596,485.8395890999818,,,,,,,,,,,,,,,,,,,,,,,,,,485.84799939999357,485.85639819997596,485.85639819997596,485.85639819997596,488.84033729997464,f,2.0786170999635942,0.10373930004425347,488.84052590001374,488.84058409999125,None,488.85571600002004,488.85571600002004,488.85571600002004,,,,,,,,,,00040,001,2026-01-23_17h20.31.026,MST_task,2024.2.0,60.05648913033941,2026-01-23 17h20.36.679876 +0530,
,Objects\040a.jpg,106,0,107,,,,,,,f,0.8424375000176951,0.13593699998455122,None,,,,107,0,106,488.85571600002004,,,,,,,,,,,,,,,,,,,,,,,488.8408758000005,488.85571600002004,489.35628960002214,489.33921910001663,,,,,,,,,,,,,,,,,,,,,,,,,,489.3476143999724,489.35628960002214,489.35628960002214,489.35628960002214,492.3402197000105,f,0.8424375000176951,0.13593699998455122,492.3404199000215,492.34048040001653,None,492.35564889997477,492.35564889997477,492.35564889997477,,,,,,,,,,00040,001,2026-01-23_17h20.31.026,MST_task,2024.2.0,60.05648913033941,2026-01-23 17h20.36.679876 +0530,
,Objects\121a.jpg,107,0,108,,,,,,,f,1.55045959999552,0.11281050002435222,None,,,,108,0,107,492.35564889997477,,,,,,,,,,,,,,,,,,,,,,,492.3407765000011,492.35564889997477,492.85615319997305,492.8397595999995,,,,,,,,,,,,,,,,,,,,,,,,,,492.8481163000106,492.85615319997305,492.85615319997305,492.85615319997305,495.8405287999776,f,1.55045959999552,0.11281050002435222,495.84072490001563,495.840784,None,495.85581819998333,495.85581819998333,495.85581819998333,,,,,,,,,,00040,001,2026-01-23_17h20.31.026,MST_task,2024.2.0,60.05648913033941,2026-01-23 17h20.36.679876 +0530,
,Objects\139a.jpg,108,0,109,,,,,,,f,1.57116930000484,0.09575049998238683,None,,,,109,0,108,495.85581819998333,,,,,,,,,,,,,,,,,,,,,,,495.84107580001,495.85581819998333,496.35583499999484,496.3393146999879,,,,,,,,,,,,,,,,,,,,,,,,,,496.3477519999724,496.35583499999484,496.35583499999484,496.35583499999484,499.34040169999935,f,1.57116930000484,0.09575049998238683,499.34060060000047,499.3406610999955,None,499.3558088999707,499.3558088999707,499.3558088999707,,,,,,,,,,00040,001,2026-01-23_17h20.31.026,MST_task,2024.2.0,60.05648913033941,2026-01-23 17h20.36.679876 +0530,
,Objects\081a.jpg,109,0,110,,,,,,,j,1.0121753999846987,0.12061490002088249,None,,,,110,0,109,499.3558088999707,,,,,,,,,,,,,,,,,,,,,,,499.3409625000204,499.3558088999707,499.8665739999851,499.83994580002036,,,,,,,,,,,,,,,,,,,,,,,,,,499.86393310001586,499.8665739999851,499.8665739999851,499.8665739999851,502.85640390001936,j,1.0121753999846987,0.12061490002088249,502.8566200999776,502.85668570001144,None,,,,,,,,,,,,,00040,001,2026-01-23_17h20.31.026,MST_task,2024.2.0,60.05648913033941,2026-01-23 17h20.36.679876 +0530,
,Objects\096a.jpg,110,0,111,,,,,,,f,1.3377349999500439,0.1451797000481747,None,,,,111,0,110,502.8724313999992,,,,,,,,,,,,,,,,,,,,,,,502.8569836000097,502.8724313999992,503.372710799973,503.3557469000225,,,,,,,,,,,,,,,,,,,,,,,,,,503.3624733000179,503.372710799973,503.372710799973,503.372710799973,506.3570917000179,f,1.3377349999500439,0.1451797000481747,506.3572891000076,506.357348599995,None,506.3724169000052,506.3724169000052,506.3724169000052,,,,,,,,,,00040,001,2026-01-23_17h20.31.026,MST_task,2024.2.0,60.05648913033941,2026-01-23 17h20.36.679876 +0530,
,Objects\151a.jpg,111,0,112,,,,,,,f,1.3284347000299022,0.12857449997682124,None,,,,112,0,111,506.3724169000052,,,,,,,,,,,,,,,,,,,,,,,506.35764449997805,506.3724169000052,506.87834290001774,506.85576000000583,,,,,,,,,,,,,,,,,,,,,,,,,,506.8752073000069,506.87834290001774,506.87834290001774,506.87834290001774,509.8727966999868,f,1.3284347000299022,0.12857449997682124,509.87299419997726,509.8730598000111,None,,,,,,,,,,,,,00040,001,2026-01-23_17h20.31.026,MST_task,2024.2.0,60.05648913033941,2026-01-23 17h20.36.679876 +0530,
,Scenes\188a.jpg,112,0,113,,,,,,,j,0.8008021999849007,0.11286449996987358,None,,,,113,0,112,509.8891530999681,,,,,,,,,,,,,,,,,,,,,,,509.87334579997696,509.8891530999681,510.3897014000104,510.3725789000164,,,,,,,,,,,,,,,,,,,,,,,,,,510.3855464999797,510.3897014000104,510.3897014000104,510.3897014000104,513.373675299983,j,0.8008021999849007,0.11286449996987358,513.3738736999803,513.3739346999791,None,513.3891992999706,513.3891992999706,513.3891992999706,,,,,,,,,,00040,001,2026-01-23_17h20.31.026,MST_task,2024.2.0,60.05648913033941,2026-01-23 17h20.36.679876 +0530,
,Scenes\089a.jpg,113,0,114,,,,,,,j,1.4474909999989904,0.11224139999831095,None,,,,114,0,113,513.3891992999706,,,,,,,,,,,,,,,,,,,,,,,513.3742486999836,513.3891992999706,513.895050399995,513.8725175000145,,,,,,,,,,,,,,,,,,,,,,,,,,513.892332999967,513.895050399995,513.895050399995,513.895050399995,516.8895545999985,j,1.4474909999989904,0.11224139999831095,516.8897555000149,516.8898203999852,None,,,,,,,,,,,,,00040,001,2026-01-23_17h20.31.026,MST_task,2024.2.0,60.05648913033941,2026-01-23 17h20.36.679876 +0530,
,Scenes\032a.jpg,114,0,115,,,,,,,j,0.7197458000155166,0.1359513999777846,None,,,,115,0,114,516.9058272999828,,,,,,,,,,,,,,,,,,,,,,,516.8901095999754,516.9058272999828,517.4152472999995,517.3895410000114,,,,,,,,,,,,,,,,,,,,,,,,,,517.4123714999878,517.4152472999995,517.4152472999995,517.4152472999995,520.40621440002,j,0.7197458000155166,0.1359513999777846,520.4064170999918,520.4064812000142,None,,,,,,,,,,,,,00040,001,2026-01-23_17h20.31.026,MST_task,2024.2.0,60.05648913033941,2026-01-23 17h20.36.679876 +0530,
,Scenes\189a.jpg,115,0,116,,,,,,,j,1.1197441999684088,0.0957736000418663,None,,,,116,0,115,520.4224038000102,,,,,,,,,,,,,,,,,,,,,,,520.4067775000003,520.4224038000102,520.9272032000008,520.905968600011,,,,,,,,,,,,,,,,,,,,,,,,,,520.9242792999721,520.9272032000008,520.9272032000008,520.9272032000008,523.922818299965,j,1.1197441999684088,0.0957736000418663,523.9230168000213,523.9230823999969,None,,,,,,,,,,,,,00040,001,2026-01-23_17h20.31.026,MST_task,2024.2.0,60.05648913033941,2026-01-23 17h20.36.679876 +0530,
,Scenes\033a.jpg,116,0,117,,,,,,,j,0.7901041999575682,0.09643320000031963,None,,,,117,0,116,523.939499799977,,,,,,,,,,,,,,,,,,,,,,,523.9233716999879,523.939499799977,524.4408027000027,524.4228293999913,,,,,,,,,,,,,,,,,,,,,,,,,,524.4370445999666,524.4408027000027,524.4408027000027,524.4408027000027,527.4393912999658,j,0.7901041999575682,0.09643320000031963,527.439597300021,527.4396657000179,None,,,,,,,,,,,,,00040,001,2026-01-23_17h20.31.026,MST_task,2024.2.0,60.05648913033941,2026-01-23 17h20.36.679876 +0530,
,Scenes\065a.jpg,117,0,118,,,,,,,j,1.388761699956376,0.09691070002736524,None,,,,118,0,117,527.4554426000104,,,,,,,,,,,,,,,,,,,,,,,527.4399589999812,527.4554426000104,527.9698068000143,527.9395378999761,,,,,,,,,,,,,,,,,,,,,,,,,,527.9672386000166,527.9698068000143,527.9698068000143,527.9698068000143,530.9562321999692,j,1.388761699956376,0.09691070002736524,530.9564313999726,530.956495099992,None,,,,,,,,,,,,,00040,001,2026-01-23_17h20.31.026,MST_task,2024.2.0,60.05648913033941,2026-01-23 17h20.36.679876 +0530,
,Scenes\061a.jpg,118,0,119,,,,,,,j,2.146089799993206,0.11972769995918497,None,,,,119,0,118,530.9723876999924,,,,,,,,,,,,,,,,,,,,,,,530.9568612999865,530.9723876999924,531.4768233000068,531.455878400011,,,,,,,,,,,,,,,,,,,,,,,,,,531.4737552999868,531.4768233000068,531.4768233000068,531.4768233000068,534.4568052999675,j,2.146089799993206,0.11972769995918497,534.4570032000192,534.4570662999758,None,,,,,,,,,,,,,00040,001,2026-01-23_17h20.31.026,MST_task,2024.2.0,60.05648913033941,2026-01-23 17h20.36.679876 +0530,
,Objects\186a.jpg,119,0,120,,,,,,,f,1.9057285000453703,0.11998379998840392,None,,,,120,0,119,534.4724048000062,,,,,,,,,,,,,,,,,,,,,,,534.4574263999821,534.4724048000062,534.9730079000001,534.9562168999691,,,,,,,,,,,,,,,,,,,,,,,,,,534.9652767999796,534.9730079000001,534.9730079000001,534.9730079000001,537.9571092000115,f,1.9057285000453703,0.11998379998840392,537.95730249997,537.9573620000156,None,537.9724068000214,537.9724068000214,537.9724068000214,,,,,,,,,,00040,001,2026-01-23_17h20.31.026,MST_task,2024.2.0,60.05648913033941,2026-01-23 17h20.36.679876 +0530,
,Objects\054a.jpg,120,0,121,,,,,,,f,1.5023075000499375,0.12861869996413589,None,,,,121,0,120,537.9724068000214,,,,,,,,,,,,,,,,,,,,,,,537.9576633999823,537.9724068000214,538.4723910000175,538.4558896999806,,,,,,,,,,,,,,,,,,,,,,,,,,538.4651228999719,538.4723910000175,538.4723910000175,538.4723910000175,541.4575397999724,f,1.5023075000499375,0.12861869996413589,541.4577373000211,541.4577947999933,None,541.4724377999664,541.4724377999664,541.4724377999664,,,,,,,,,,00040,001,2026-01-23_17h20.31.026,MST_task,2024.2.0,60.05648913033941,2026-01-23 17h20.36.679876 +0530,
,Objects\190a.jpg,121,0,122,,,,,,,f,1.3698570999549702,0.0888181000482291,None,,,,122,0,121,541.4724377999664,,,,,,,,,,,,,,,,,,,,,,,541.4581733999657,541.4724377999664,541.9726514000213,541.9562327999738,,,,,,,,,,,,,,,,,,,,,,,,,,541.9641503000166,541.9726514000213,541.9726514000213,541.9726514000213,544.9570138999843,f,1.3698570999549702,0.0888181000482291,544.9572332999669,544.9573247000226,None,544.9724605999654,544.9724605999654,544.9724605999654,,,,,,,,,,00040,001,2026-01-23_17h20.31.026,MST_task,2024.2.0,60.05648913033941,2026-01-23 17h20.36.679876 +0530,
,Objects\155a.jpg,122,0,123,,,,,,,f,0.7977585000335239,0.10451199999079108,None,,,,123,0,122,544.9724605999654,,,,,,,,,,,,,,,,,,,,,,,544.9577276000055,544.9724605999654,545.4727147999802,545.4563484999817,,,,,,,,,,,,,,,,,,,,,,,,,,545.4648714999785,545.4727147999802,545.4727147999802,545.4727147999802,548.4568296999787,f,0.7977585000335239,0.10451199999079108,548.4570251000114,548.4570833999896,None,548.4723846999696,548.4723846999696,548.4723846999696,,,,,,,,,,00040,001,2026-01-23_17h20.31.026,MST_task,2024.2.0,60.05648913033941,2026-01-23 17h20.36.679876 +0530,
,Objects\126a.jpg,123,0,124,,,,,,,f,1.954045300022699,0.1444400000036694,None,,,,124,0,123,548.4723846999696,,,,,,,,,,,,,,,,,,,,,,,548.4574563999777,548.4723846999696,548.9728863000055,548.9561662999913,,,,,,,,,,,,,,,,,,,,,,,,,,548.9651793999947,548.9728863000055,548.9728863000055,548.9728863000055,551.957481999998,f,1.954045300022699,0.1444400000036694,551.9576843999675,551.9577432000078,None,551.9726229999796,551.9726229999796,551.9726229999796,,,,,,,,,,00040,001,2026-01-23_17h20.31.026,MST_task,2024.2.0,60.05648913033941,2026-01-23 17h20.36.679876 +0530,
,Objects\184a.jpg,124,0,125,,,,,,,j,1.6538535000290722,0.12073630001395941,None,,,,125,0,124,551.9726229999796,,,,,,,,,,,,,,,,,,,,,,,551.9580496000126,551.9726229999796,552.4727466999902,552.4562259999802,,,,,,,,,,,,,,,,,,,,,,,,,,552.4643901999807,552.4727466999902,552.4727466999902,552.4727466999902,555.4577424000017,j,1.6538535000290722,0.12073630001395941,555.4579501000117,555.4580094999983,None,555.4726045000134,555.4726045000134,555.4726045000134,,,,,,,,,,00040,001,2026-01-23_17h20.31.026,MST_task,2024.2.0,60.05648913033941,2026-01-23 17h20.36.679876 +0530,
,Objects\011a.jpg,125,0,126,,,,,,,f,1.6258226000354625,0.09618079999927431,None,,,,126,0,125,555.4726045000134,,,,,,,,,,,,,,,,,,,,,,,555.4583892999799,555.4726045000134,555.9733122999896,555.9564250999829,,,,,,,,,,,,,,,,,,,,,,,,,,555.9628516999655,555.9733122999896,555.9733122999896,555.9733122999896,558.9570198999718,f,1.6258226000354625,0.09618079999927431,558.9572126999847,558.9572722999728,None,558.9724247999839,558.9724247999839,558.9724247999839,,,,,,,,,,00040,001,2026-01-23_17h20.31.026,MST_task,2024.2.0,60.05648913033941,2026-01-23 17h20.36.679876 +0530,
,Scenes\102a.jpg,126,0,127,,,,,,,j,1.184063300024718,0.08803260000422597,None,,,,127,0,126,558.9724247999839,,,,,,,,,,,,,,,,,,,,,,,558.9575695999665,558.9724247999839,559.4785672000144,559.4568940000026,,,,,,,,,,,,,,,,,,,,,,,,,,559.4758890999947,559.4785672000144,559.4785672000144,559.4785672000144,562.47249439999,j,1.184063300024718,0.08803260000422597,562.4726935999934,562.4727586000226,None,,,,,,,,,,,,,00040,001,2026-01-23_17h20.31.026,MST_task,2024.2.0,60.05648913033941,2026-01-23 17h20.36.679876 +0530,
,Scenes\041a.jpg,127,0,128,,,,,,,j,2.010217199975159,0.12008620001142845,None,,,,128,0,127,562.489158899989,,,,,,,,,,,,,,,,,,,,,,,562.4731388000073,562.489158899989,563.0123639999656,562.9725070999702,,,,,,,,,,,,,,,,,,,,,,,,,,563.0094524999731,563.0123639999656,563.0123639999656,563.0123639999656,565.990488099982,j,2.010217199975159,0.12008620001142845,565.9906907000113,565.99075669999,None,,,,,,,,,,,,,00040,001,2026-01-23_17h20.31.026,MST_task,2024.2.0,60.05648913033941,2026-01-23 17h20.36.679876 +0530,
,Scenes\097a.jpg,128,0,129,,,,,,,j,1.4767137999879196,0.12049780000234023,None,,,,129,0,128,566.005489800009,,,,,,,,,,,,,,,,,,,,,,,565.9910440999665,566.005489800009,566.5060904999846,566.4894256999833,,,,,,,,,,,,,,,,,,,,,,,,,,566.4982493999996,566.5060904999846,566.5060904999846,566.5060904999846,569.4904808999854,j,1.4767137999879196,0.12049780000234023,569.4906748000067,569.4907327999827,None,569.5058273000177,569.5058273000177,569.5058273000177,,,,,,,,,,00040,001,2026-01-23_17h20.31.026,MST_task,2024.2.0,60.05648913033941,2026-01-23 17h20.36.679876 +0530,
,Scenes\184a.jpg,129,0,130,,,,,,,j,0.8794937000493519,0.09634089999599382,None,,,,130,0,129,569.5058273000177,,,,,,,,,,,,,,,,,,,,,,,569.4911065999768,569.5058273000177,570.0069472999894,569.9897017999901,,,,,,,,,,,,,,,,,,,,,,,,,,570.004184200021,570.0069472999894,570.0069472999894,570.0069472999894,572.9903786000214,j,0.8794937000493519,0.09634089999599382,572.9905809999909,572.9906399999745,None,573.0058774999925,573.0058774999925,573.0058774999925,,,,,,,,,,00040,001,2026-01-23_17h20.31.026,MST_task,2024.2.0,60.05648913033941,2026-01-23 17h20.36.679876 +0530,
,Scenes\101a.jpg,130,0,131,,,,,,,j,0.7785455999546684,0.12024110002676025,None,,,,131,0,130,573.0058774999925,,,,,,,,,,,,,,,,,,,,,,,572.9909562999965,573.0058774999925,573.5239898000145,573.4895608000224,,,,,,,,,,,,,,,,,,,,,,,,,,573.5212935999734,573.5239898000145,573.5239898000145,573.5239898000145,576.5064967999933,j,0.7785455999546684,0.12024110002676025,576.5066970000044,576.5067604000214,None,,,,,,,,,,,,,00040,001,2026-01-23_17h20.31.026,MST_task,2024.2.0,60.05648913033941,2026-01-23 17h20.36.679876 +0530,
,Scenes\166a.jpg,131,0,132,,,,,,,j,0.6403090999810956,0.09547170001314953,None,,,,132,0,131,576.5224195999908,,,,,,,,,,,,,,,,,,,,,,,576.5070461999858,576.5224195999908,577.0228282000171,577.0058575000148,,,,,,,,,,,,,,,,,,,,,,,,,,577.0136510999873,577.0228282000171,577.0228282000171,577.0228282000171,580.0069557999959,j,0.6403090999810956,0.09547170001314953,580.0071554000024,580.0072145999875,None,580.0220831999904,580.0220831999904,580.0220831999904,,,,,,,,,,00040,001,2026-01-23_17h20.31.026,MST_task,2024.2.0,60.05648913033941,2026-01-23 17h20.36.679876 +0530,
,Scenes\026a.jpg,132,0,133,,,,,,,j,1.255745999980718,0.12842050002655014,None,,,,133,0,132,580.0220831999904,,,,,,,,,,,,,,,,,,,,,,,580.0075089000165,580.0220831999904,580.5271890999866,580.5063038999797,,,,,,,,,,,,,,,,,,,,,,,,,,580.52455620002,580.5271890999866,580.5271890999866,580.5271890999866,583.5228166999877,j,1.255745999980718,0.12842050002655014,583.5230219999794,583.5230868000071,None,,,,,,,,,,,,,00040,001,2026-01-23_17h20.31.026,MST_task,2024.2.0,60.05648913033941,2026-01-23 17h20.36.679876 +0530,
,Objects\095a.jpg,133,0,134,,,,,,,f,0.8789277000469156,0.16019789996789768,None,,,,134,0,133,583.53916689998,,,,,,,,,,,,,,,,,,,,,,,583.5233724999707,583.53916689998,584.0396733999951,584.0224833000102,,,,,,,,,,,,,,,,,,,,,,,,,,584.0324751000153,584.0396733999951,584.0396733999951,584.0396733999951,587.0236765000154,f,0.8789277000469156,0.16019789996789768,587.0238787999842,587.0239382999716,None,587.0389033000101,587.0389033000101,587.0389033000101,,,,,,,,,,00040,001,2026-01-23_17h20.31.026,MST_task,2024.2.0,60.05648913033941,2026-01-23 17h20.36.679876 +0530,
,Objects\056a.jpg,134,0,135,,,,,,,f,1.0278460000408813,0.1441660999553278,None,,,,135,0,134,587.0389033000101,,,,,,,,,,,,,,,,,,,,,,,587.0243189000175,587.0389033000101,587.5393042999785,587.5228340000031,,,,,,,,,,,,,,,,,,,,,,,,,,587.5311989000184,587.5393042999785,587.5393042999785,587.5393042999785,590.5236079000169,f,1.0278460000408813,0.1441660999553278,590.5238361000083,590.5239220000221,None,590.5391701000044,590.5391701000044,590.5391701000044,,,,,,,,,,00040,001,2026-01-23_17h20.31.026,MST_task,2024.2.0,60.05648913033941,2026-01-23 17h20.36.679876 +0530,
,Objects\166a.jpg,135,0,136,,,,,,,f,1.0716829000157304,0.14411589998053387,None,,,,136,0,135,590.5391701000044,,,,,,,,,,,,,,,,,,,,,,,590.5242425000179,590.5391701000044,591.0394279999891,591.0224931999692,,,,,,,,,,,,,,,,,,,,,,,,,,591.030647800013,591.0394279999891,591.0394279999891,591.0394279999891,594.0232689999975,f,1.0716829000157304,0.14411589998053387,594.0233333000215,594.0233490999672,None,594.0391997999977,594.0391997999977,594.0391997999977,,,,,,,,,,00040,001,2026-01-23_17h20.31.026,MST_task,2024.2.0,60.05648913033941,2026-01-23 17h20.36.679876 +0530,
,Objects\069a.jpg,136,0,137,,,,,,,j,0.7916992999962531,0.16084990004310384,None,,,,137,0,136,594.0391997999977,,,,,,,,,,,,,,,,,,,,,,,594.0234616000089,594.0391997999977,594.5507458000211,594.5228136999649,,,,,,,,,,,,,,,,,,,,,,,,,,594.5480042999843,594.5507458000211,594.5507458000211,594.5507458000211,597.5395704999682,j,0.7916992999962531,0.16084990004310384,597.5397659000009,597.539831299975,None,,,,,,,,,,,,,00040,001,2026-01-23_17h20.31.026,MST_task,2024.2.0,60.05648913033941,2026-01-23 17h20.36.679876 +0530,
,Objects\086a.jpg,137,0,138,,,,,,,j,1.8392137000337243,0.10418909997679293,None,,,,138,0,137,597.5558347000042,,,,,,,,,,,,,,,,,,,,,,,597.5401918999851,597.5558347000042,598.0558536999743,598.0394147000043,,,,,,,,,,,,,,,,,,,,,,,,,,598.0480224000057,598.0558536999743,598.0558536999743,598.0558536999743,601.040386800014,j,1.8392137000337243,0.10418909997679293,601.040647900023,601.040754000016,None,601.0558564999956,601.0558564999956,601.0558564999956,,,,,,,,,,00040,001,2026-01-23_17h20.31.026,MST_task,2024.2.0,60.05648913033941,2026-01-23 17h20.36.679876 +0530,
,Objects\059a.jpg,138,0,139,,,,,,,f,1.3461064000148326,0.11229389999061823,None,,,,139,0,138,601.0558564999956,,,,,,,,,,,,,,,,,,,,,,,601.0411290000193,601.0558564999956,601.5563690999988,601.5392724999692,,,,,,,,,,,,,,,,,,,,,,,,,,601.5482740000007,601.5563690999988,601.5563690999988,601.5563690999988,604.5404004000011,f,1.3461064000148326,0.11229389999061823,604.5405926000094,604.5406517999945,None,604.5556445000111,604.5556445000111,604.5556445000111,,,,,,,,,,00040,001,2026-01-23_17h20.31.026,MST_task,2024.2.0,60.05648913033941,2026-01-23 17h20.36.679876 +0530,
,Objects\146a.jpg,139,0,140,,,,,,,f,1.463290399988182,0.1196996999788098,None,,,,140,0,139,604.5556445000111,,,,,,,,,,,,,,,,,,,,,,,604.5410308999708,604.5556445000111,605.0557822000119,605.0392966999789,,,,,,,,,,,,,,,,,,,,,,,,,,605.0478712000186,605.0557822000119,605.0557822000119,605.0557822000119,608.040422399994,f,1.463290399988182,0.1196996999788098,608.0406264999765,608.0406864999677,None,608.0558329999913,608.0558329999913,608.0558329999913,,,,,,,,,,00040,001,2026-01-23_17h20.31.026,MST_task,2024.2.0,60.05648913033941,2026-01-23 17h20.36.679876 +0530,
,Scenes\162a.jpg,140,0,141,,,,,,,j,1.6180857000290416,0.09686150000197813,None,,,,141,0,140,608.0558329999913,,,,,,,,,,,,,,,,,,,,,,,608.0409819000051,608.0558329999913,608.5563477000105,608.539271000016,,,,,,,,,,,,,,,,,,,,,,,,,,608.5519247999764,608.5563477000105,608.5563477000105,608.5563477000105,611.540418599965,j,1.6180857000290416,0.09686150000197813,611.540609699965,611.5406683000037,None,611.5558587000123,611.5558587000123,611.5558587000123,,,,,,,,,,00040,001,2026-01-23_17h20.31.026,MST_task,2024.2.0,60.05648913033941,2026-01-23 17h20.36.679876 +0530,
,Scenes\111a.jpg,141,0,142,,,,,,,j,2.066386899969075,0.1287474000127986,None,,,,142,0,141,611.5558587000123,,,,,,,,,,,,,,,,,,,,,,,611.5410385999712,611.5558587000123,612.0680531999678,612.0394939999678,,,,,,,,,,,,,,,,,,,,,,,,,,612.0658160999883,612.0680531999678,612.0680531999678,612.0680531999678,615.0562511999742,j,2.066386899969075,0.1287474000127986,615.0564486000221,615.056513699994,None,,,,,,,,,,,,,00040,001,2026-01-23_17h20.31.026,MST_task,2024.2.0,60.05648913033941,2026-01-23 17h20.36.679876 +0530,
,Scenes\020a.jpg,142,0,143,,,,,,,f,1.2290148999891244,0.14460679999319836,None,,,,143,0,142,615.0722422999679,,,,,,,,,,,,,,,,,,,,,,,615.0568042999948,615.0722422999679,615.5776809999952,615.5563723999658,,,,,,,,,,,,,,,,,,,,,,,,,,615.5747294999892,615.5776809999952,615.5776809999952,615.5776809999952,618.5728350999998,f,1.2290148999891244,0.14460679999319836,618.5730279000127,618.5730918999761,None,,,,,,,,,,,,,00040,001,2026-01-23_17h20.31.026,MST_task,2024.2.0,60.05648913033941,2026-01-23 17h20.36.679876 +0530,
,Scenes\139a.jpg,143,0,144,,,,,,,j,0.8047825000248849,0.12799479998648167,None,,,,144,0,143,618.5891709999996,,,,,,,,,,,,,,,,,,,,,,,618.5734536999953,618.5891709999996,619.0902449999703,619.0728492999915,,,,,,,,,,,,,,,,,,,,,,,,,,619.0843477000017,619.0902449999703,619.0902449999703,619.0902449999703,622.0736798999715,j,0.8047825000248849,0.12799479998648167,622.073873699992,622.0739335999824,None,622.0897886999883,622.0897886999883,622.0897886999883,,,,,,,,,,00040,001,2026-01-23_17h20.31.026,MST_task,2024.2.0,60.05648913033941,2026-01-23 17h20.36.679876 +0530,
,Scenes\141a.jpg,144,0,145,,,,,,,j,1.416588599968236,0.12081290001515299,None,,,,145,0,144,622.0897886999883,,,,,,,,,,,,,,,,,,,,,,,622.074317599996,622.0897886999883,622.5898412999813,622.5728240999742,,,,,,,,,,,,,,,,,,,,,,,,,,622.5848171999678,622.5898412999813,622.5898412999813,622.5898412999813,625.5743345000083,j,1.416588599968236,0.12081290001515299,625.5745288999751,625.5745867000078,None,625.5891751999734,625.5891751999734,625.5891751999734,,,,,,,,,,00040,001,2026-01-23_17h20.31.026,MST_task,2024.2.0,60.05648913033941,2026-01-23 17h20.36.679876 +0530,
,Scenes\040a.jpg,145,0,146,,,,,,,f,1.9674088999745436,0.16852730000391603,None,,,,146,0,145,625.5891751999734,,,,,,,,,,,,,,,,,,,,,,,625.5749628000194,625.5891751999734,626.111388899968,626.0728280000039,,,,,,,,,,,,,,,,,,,,,,,,,,626.1085992999724,626.111388899968,626.111388899968,626.111388899968,629.0899499999941,f,1.9674088999745436,0.16852730000391603,629.0901452999678,629.0902099999948,None,,,,,,,,,,,,,00040,001,2026-01-23_17h20.31.026,MST_task,2024.2.0,60.05648913033941,2026-01-23 17h20.36.679876 +0530,
,Scenes\172a.jpg,146,0,147,,,,,,,j,1.9607494000229053,0.09581239998806268,None,,,,147,0,146,629.1061502000084,,,,,,,,,,,,,,,,,,,,,,,629.0905735999695,629.1061502000084,629.6063438999699,629.5895864000195,,,,,,,,,,,,,,,,,,,,,,,,,,629.6031585999881,629.6063438999699,629.6063438999699,629.6063438999699,632.5901046000072,j,1.9607494000229053,0.09581239998806268,632.5902700999868,632.5903187000076,None,632.6053977999836,632.6053977999836,632.6053977999836,,,,,,,,,,00040,001,2026-01-23_17h20.31.026,MST_task,2024.2.0,60.05648913033941,2026-01-23 17h20.36.679876 +0530,
,Objects\025a.jpg,147,0,148,,,,,,,j,0.8681487999856472,0.0886807999922894,None,,,,148,0,147,632.6053977999836,,,,,,,,,,,,,,,,,,,,,,,632.5905642000143,632.6053977999836,633.1063204999664,633.0897597000003,,,,,,,,,,,,,,,,,,,,,,,,,,633.097666000016,633.1063204999664,633.1063204999664,633.1063204999664,636.0901538999751,j,0.8681487999856472,0.0886807999922894,636.0903503000154,636.0904102000059,None,636.1058770999662,636.1058770999662,636.1058770999662,,,,,,,,,,00040,001,2026-01-23_17h20.31.026,MST_task,2024.2.0,60.05648913033941,2026-01-23 17h20.36.679876 +0530,
,Objects\023a.jpg,148,0,149,,,,,,,f,0.6964996000169776,0.12022679997608066,None,,,,149,0,148,636.1058770999662,,,,,,,,,,,,,,,,,,,,,,,636.0907873999677,636.1058770999662,636.6059479999822,636.5893311999971,,,,,,,,,,,,,,,,,,,,,,,,,,636.5982451000018,636.6059479999822,636.6059479999822,636.6059479999822,639.5906256000162,f,0.6964996000169776,0.12022679997608066,639.5908164000139,639.5908766000066,None,639.6055147000006,639.6055147000006,639.6055147000006,,,,,,,,,,00040,001,2026-01-23_17h20.31.026,MST_task,2024.2.0,60.05648913033941,2026-01-23 17h20.36.679876 +0530,
,Objects\187a.jpg,149,0,150,,,,,,,f,0.7243580999784172,0.14425030001439154,None,,,,150,0,149,639.6055147000006,,,,,,,,,,,,,,,,,,,,,,,639.5911827000091,639.6055147000006,640.1060946999933,640.0893308999948,,,,,,,,,,,,,,,,,,,,,,,,,,640.0980084000039,640.1060946999933,640.1060946999933,640.1060946999933,643.0901995999739,f,0.7243580999784172,0.14425030001439154,643.0903686999809,643.0904166999971,None,643.1055274999817,643.1055274999817,643.1055274999817,,,,,,,,,,00040,001,2026-01-23_17h20.31.026,MST_task,2024.2.0,60.05648913033941,2026-01-23 17h20.36.679876 +0530,
,Objects\024a.jpg,150,0,151,,,,,,,f,0.8886209999909624,0.11962409998523071,None,,,,151,0,150,643.1055274999817,,,,,,,,,,,,,,,,,,,,,,,643.0907158000045,643.1055274999817,643.6144653999945,643.5894276999752,,,,,,,,,,,,,,,,,,,,,,,,,,643.6118629999692,643.6144653999945,643.6144653999945,643.6144653999945,646.6062857999932,f,0.8886209999909624,0.11962409998523071,646.6064957000199,646.6065615999978,None,,,,,,,,,,,,,00040,001,2026-01-23_17h20.31.026,MST_task,2024.2.0,60.05648913033941,2026-01-23 17h20.36.679876 +0530,
,Objects\050a.jpg,151,0,152,,,,,,,j,1.2286686999723315,0.10366960003739223,None,,,,152,0,151,646.622575299989,,,,,,,,,,,,,,,,,,,,,,,646.6069701999659,646.622575299989,647.1224062999827,647.1062426000135,,,,,,,,,,,,,,,,,,,,,,,,,,647.1124506000197,647.1224062999827,647.1224062999827,647.1224062999827,650.1068847000133,j,1.2286686999723315,0.10366960003739223,650.1070843000198,650.1071432000026,None,650.1224285999779,650.1224285999779,650.1224285999779,,,,,,,,,,00040,001,2026-01-23_17h20.31.026,MST_task,2024.2.0,60.05648913033941,2026-01-23 17h20.36.679876 +0530,
,Objects\123a.jpg,152,0,153,,,,,,,j,1.2884255000390112,0.11950999998953193,None,,,,153,0,152,650.1224285999779,,,,,,,,,,,,,,,,,,,,,,,650.1074478999944,650.1224285999779,650.6226382000023,650.605886699981,,,,,,,,,,,,,,,,,,,,,,,,,,650.6145395999774,650.6226382000023,650.6226382000023,650.6226382000023,653.6070388999651,j,1.2884255000390112,0.11950999998953193,653.6072443000157,653.607302999997,None,653.6224533999921,653.6224533999921,653.6224533999921,,,,,,,,,,00040,001,2026-01-23_17h20.31.026,MST_task,2024.2.0,60.05648913033941,2026-01-23 17h20.36.679876 +0530,
,Objects\130a.jpg,153,0,154,,,,,,,f,1.2917139999917708,0.13676860003033653,None,,,,154,0,153,653.6224533999921,,,,,,,,,,,,,,,,,,,,,,,653.6076109000132,653.6224533999921,654.1227007000125,654.1065998999984,,,,,,,,,,,,,,,,,,,,,,,,,,654.1146359000122,654.1227007000125,654.1227007000125,654.1227007000125,657.1069030999788,f,1.2917139999917708,0.13676860003033653,657.1071258999873,657.1071868999861,None,657.1229203999974,657.1229203999974,657.1229203999974,,,,,,,,,,00040,001,2026-01-23_17h20.31.026,MST_task,2024.2.0,60.05648913033941,2026-01-23 17h20.36.679876 +0530,
,Scenes\133a.jpg,154,0,155,,,,,,,j,1.4052185000036843,0.10500350000802428,None,,,,155,0,154,657.1229203999974,,,,,,,,,,,,,,,,,,,,,,,657.1075025000027,657.1229203999974,657.6250996000017,657.6062301999773,,,,,,,,,,,,,,,,,,,,,,,,,,657.6225955999689,657.6250996000017,657.6250996000017,657.6250996000017,660.6228254999733,j,1.4052185000036843,0.10500350000802428,660.623023699969,660.6230884999968,None,,,,,,,,,,,,,00040,001,2026-01-23_17h20.31.026,MST_task,2024.2.0,60.05648913033941,2026-01-23 17h20.36.679876 +0530,
,Scenes\066a.jpg,155,0,156,,,,,,,j,0.8347535000066273,0.14441169996280223,None,,,,156,0,155,660.6391773999785,,,,,,,,,,,,,,,,,,,,,,,660.6234661000199,660.6391773999785,661.1396347999689,661.1228688000119,,,,,,,,,,,,,,,,,,,,,,,,,,661.1336049999809,661.1396347999689,661.1396347999689,661.1396347999689,664.1236345000216,j,0.8347535000066273,0.14441169996280223,664.123825800023,664.1238851000089,None,664.1391486999928,664.1391486999928,664.1391486999928,,,,,,,,,,00040,001,2026-01-23_17h20.31.026,MST_task,2024.2.0,60.05648913033941,2026-01-23 17h20.36.679876 +0530,
,Scenes\170a.jpg,156,0,157,,,,,,,j,1.2143127999734133,0.10409350000554696,None,,,,157,0,156,664.1391486999928,,,,,,,,,,,,,,,,,,,,,,,664.1242599000107,664.1391486999928,664.6403209000127,664.6227829999989,,,,,,,,,,,,,,,,,,,,,,,,,,664.6376705999719,664.6403209000127,664.6403209000127,664.6403209000127,667.6395752999815,j,1.2143127999734133,0.10409350000554696,667.6397829999914,667.6398484999663,None,,,,,,,,,,,,,00040,001,2026-01-23_17h20.31.026,MST_task,2024.2.0,60.05648913033941,2026-01-23 17h20.36.679876 +0530,
,Scenes\143a.jpg,157,0,158,,,,,,,j,0.7280800000298768,0.14421739999670535,None,,,,158,0,157,667.6559555999702,,,,,,,,,,,,,,,,,,,,,,,667.6401387999649,667.6559555999702,668.1589718000032,668.1397370999912,,,,,,,,,,,,,,,,,,,,,,,,,,668.1566930999979,668.1589718000032,668.1589718000032,668.1589718000032,671.1560712999781,j,0.7280800000298768,0.14421739999670535,671.1562770999735,671.1563429000089,None,,,,,,,,,,,,,00040,001,2026-01-23_17h20.31.026,MST_task,2024.2.0,60.05648913033941,2026-01-23 17h20.36.679876 +0530,
,Scenes\010a.jpg,158,0,159,,,,,,,j,1.3141749000060372,0.10488629998872057,None,,,,159,0,158,671.1722719999962,,,,,,,,,,,,,,,,,,,,,,,671.1567736999714,671.1722719999962,671.6762350000208,671.656174600008,,,,,,,,,,,,,,,,,,,,,,,,,,671.6739698000019,671.6762350000208,671.6762350000208,671.6762350000208,674.6728311000043,j,1.3141749000060372,0.10488629998872057,674.673024400021,674.6730910000042,None,,,,,,,,,,,,,00040,001,2026-01-23_17h20.31.026,MST_task,2024.2.0,60.05648913033941,2026-01-23 17h20.36.679876 +0530,
,Scenes\107a.jpg,159,0,160,,,,,,,j,0.6408216999843717,0.11202739999862388,None,,,,160,0,159,674.6891797999851,,,,,,,,,,,,,,,,,,,,,,,674.6734562999918,674.6891797999851,675.1896978999721,675.1729650999769,,,,,,,,,,,,,,,,,,,,,,,,,,675.1859918999835,675.1896978999721,675.1896978999721,675.1896978999721,678.1733541999711,j,0.6408216999843717,0.11202739999862388,678.1735467999824,678.1736257000011,None,,,,,,,,,,,,,00040,001,2026-01-23_17h20.31.026,MST_task,2024.2.0,60.05648913033941,2026-01-23 17h20.36.679876 +0530,
,Scenes\171a.jpg,160,0,161,,,,,,,f,0.8797825999790803,0.12841720000142232,None,,,,161,0,160,678.1891672000056,,,,,,,,,,,,,,,,,,,,,,,678.1739185000188,678.1891672000056,678.7106204999727,678.6728378999978,,,,,,,,,,,,,,,,,,,,,,,,,,678.7078556999913,678.7106204999727,678.7106204999727,678.7106204999727,681.6895860999939,f,0.8797825999790803,0.12841720000142232,681.6897897999734,681.6898550000042,None,,,,,,,,,,,,,00040,001,2026-01-23_17h20.31.026,MST_task,2024.2.0,60.05648913033941,2026-01-23 17h20.36.679876 +0530,
,Objects\120a.jpg,161,0,162,,,,,,,f,0.9180061999941245,0.16777679999358952,None,,,,162,0,161,681.7058259000187,,,,,,,,,,,,,,,,,,,,,,,681.6902183999773,681.7058259000187,682.2170182999689,682.189578999998,,,,,,,,,,,,,,,,,,,,,,,,,,682.2137851999723,682.2170182999689,682.2170182999689,682.2170182999689,685.2059884999762,f,0.9180061999941245,0.16777679999358952,685.206182599999,685.2062472999678,None,,,,,,,,,,,,,00040,001,2026-01-23_17h20.31.026,MST_task,2024.2.0,60.05648913033941,2026-01-23 17h20.36.679876 +0530,
,Objects\164a.jpg,162,0,163,,,,,,,j,1.6043668999918737,0.10420329996850342,None,,,,163,0,162,685.2224252999877,,,,,,,,,,,,,,,,,,,,,,,685.2065339999972,685.2224252999877,685.7226445999695,685.7062459000153,,,,,,,,,,,,,,,,,,,,,,,,,,685.7151350000058,685.7226445999695,685.7226445999695,685.7226445999695,688.7059002000024,j,1.6043668999918737,0.10420329996850342,688.7060216999962,688.7060746999923,None,688.7218334000208,688.7218334000208,688.7218334000208,,,,,,,,,,00040,001,2026-01-23_17h20.31.026,MST_task,2024.2.0,60.05648913033941,2026-01-23 17h20.36.679876 +0530,
,Objects\140a.jpg,163,0,164,,,,,,,j,1.3038582999724895,0.11999640002613887,None,,,,164,0,163,688.7218334000208,,,,,,,,,,,,,,,,,,,,,,,688.7063879999914,688.7218334000208,,689.2063991000177,,,,,,,,,,,,,,,,,,,,,,,,,,689.2151934999856,689.2227419000119,689.2227419000119,689.2227419000119,692.206575899967,j,1.3038582999724895,0.11999640002613887,692.206774100021,692.2068385999883,None,,,,,,,,,,,,,00040,001,2026-01-23_17h20.31.026,MST_task,2024.2.0,60.05648913033941,2026-01-23 17h20.36.679876 +0530,
,Objects\118a.jpg,164,0,165,,,,,,,f,0.8766462000203319,0.1281662000110373,None,,,,165,0,164,692.2229880999657,,,,,,,,,,,,,,,,,,,,,,,692.2071315000067,692.2229880999657,692.7223627999774,692.7062748000026,,,,,,,,,,,,,,,,,,,,,,,,,,692.7141995999846,692.7223627999774,692.7223627999774,692.7223627999774,695.7070385999978,f,0.8766462000203319,0.1281662000110373,695.7072330000228,695.7072937000194,None,695.7224412999931,695.7224412999931,695.7224412999931,,,,,,,,,,00040,001,2026-01-23_17h20.31.026,MST_task,2024.2.0,60.05648913033941,2026-01-23 17h20.36.679876 +0530,
,Objects\101a.jpg,165,0,166,,,,,,,j,0.9406914000282995,0.13635829999111593,None,,,,166,0,165,695.7224412999931,,,,,,,,,,,,,,,,,,,,,,,695.7075849999674,695.7224412999931,696.2501398000168,696.2062796999817,,,,,,,,,,,,,,,,,,,,,,,,,,696.2471075999783,696.2501398000168,696.2501398000168,696.2501398000168,699.2226508000167,j,0.9406914000282995,0.13635829999111593,699.2228612999897,699.2229273999692,None,,,,,,,,,,,,,00040,001,2026-01-23_17h20.31.026,MST_task,2024.2.0,60.05648913033941,2026-01-23 17h20.36.679876 +0530,
,Objects\141a.jpg,166,0,167,,,,,,,j,1.270852499990724,0.07253090001177043,None,,,,167,0,166,699.2390645999694,,,,,,,,,,,,,,,,,,,,,,,699.223223500012,699.2390645999694,699.7837961000041,699.7228833999834,,,,,,,,,,,,,,,,,,,,,,,,,,699.7814790999983,699.7837961000041,699.7837961000041,699.7837961000041,702.7393366000033,j,1.270852499990724,0.07253090001177043,702.7395342999953,702.739599100023,None,,,,,,,,,,,,,00040,001,2026-01-23_17h20.31.026,MST_task,2024.2.0,60.05648913033941,2026-01-23 17h20.36.679876 +0530,
,Objects\010a.jpg,167,0,168,,,,,,,f,0.8931822999729775,0.12016089999815449,None,,,,168,0,167,702.7561342999688,,,,,,,,,,,,,,,,,,,,,,,702.739883399976,702.7561342999688,703.2898504000041,703.2393872999819,,,,,,,,,,,,,,,,,,,,,,,,,,703.2865315999952,703.2898504000041,703.2898504000041,703.2898504000041,706.2561601999914,f,0.8931822999729775,0.12016089999815449,706.2563557999674,706.2564203999937,None,,,,,,,,,,,,,00040,001,2026-01-23_17h20.31.026,MST_task,2024.2.0,60.05648913033941,2026-01-23 17h20.36.679876 +0530,
