Sl_no,image_path,thisN,thisTrialN,thisRepN,key_resp_5.keys,key_resp_7.keys,key_resp_7.rt,key_resp_7.duration,key_resp_5.rt,key_resp_5.duration,key_resp_9.keys,key_resp_9.rt,key_resp_9.duration,key_resp_8.keys,key_resp_8.rt,key_resp_8.duration,practice.thisRepN,practice.thisTrialN,practice.thisN,trials.thisRepN,trials.thisTrialN,trials.thisN,thisRow.t,notes,welcome_page.started,text.started,key_resp.started,welcome_page.stopped,key_resp.keys,key_resp.rt,key_resp.duration,instructions.started,ins.started,key_resp_2.started,instructions.stopped,key_resp_2.keys,key_resp_2.rt,key_resp_2.duration,objects_only_instruction.started,text_3.started,key_resp_3.started,objects_only_instruction.stopped,key_resp_3.keys,key_resp_3.rt,key_resp_3.duration,ISI.started,text_4.started,ISI.stopped,practice_block.started,image.started,text_5.started,key_resp_5.started,practice_block.stopped,practice.key_resp_5.keys,indoor_outdoor.started,text_7.started,key_resp_7.started,indoor_outdoor.stopped,practice.key_resp_7.keys,practice.key_resp_7.rt,practice.key_resp_7.duration,text_4.stopped,practice.key_resp_5.rt,practice.key_resp_5.duration,practice_to_main.started,text_2.started,key_resp_4.started,practice_to_main.stopped,key_resp_4.keys,key_resp_4.rt,key_resp_4.duration,objects.started,image_2.started,text_9.started,key_resp_9.started,objects.stopped,trials.key_resp_9.keys,trials.key_resp_9.rt,trials.key_resp_9.duration,encoding_task.started,encoding_task.stopped,trials.key_resp_8.keys,text_8.started,key_resp_8.started,trials.key_resp_8.rt,trials.key_resp_8.duration,image_2.stopped,text_9.stopped,key_resp_9.stopped,end_experiment.started,text_6.started,key_resp_6.started,end_experiment.stopped,key_resp_6.keys,key_resp_6.rt,key_resp_6.duration,list_of_stimuli,encoding_task_accuracy,participant,session,date,expName,psychopyVersion,frameRate,expStart,
,,,,,,,,,,,,,,,,,,,,,,,,,0.001298899995163083,0.0030675000161863863,0.0030675000161863863,42.375992899993435,space,42.273559499997646,None,,,,,,,,,,,,,,,,,,,,,,,,,,,,,,,,,,,,,,,,,,,,,,,,,,,,,,,,,,,,,,,,,,,,00045,001,2026-01-24_11h29.01.648,MST_task,2024.2.0,59.97785618144234,2026-01-24 11h29.09.405451 +0530,
,,,,,,,,,,,,,,,,,,,,,,,,,,,,,,,,42.376053799991496,42.39033530000597,42.39033530000597,64.95140160003211,space,22.551081800018437,None,,,,,,,,,,,,,,,,,,,,,,,,,,,,,,,,,,,,,,,,,,,,,,,,,,,,,,,,,,,,,00045,001,2026-01-24_11h29.01.648,MST_task,2024.2.0,59.97785618144234,2026-01-24 11h29.09.405451 +0530,
,,,,,,,,,,,,,,,,,,,,,,,,,,,,,,,,,,,,,,,64.95152750000125,64.97675440000603,64.97675440000603,106.65134470001794,space,41.659971399989445,None,,,,,,,,,,,,,,,,,,,,,,,,,,,,,,,,,,,,,,,,,,,,,,,,,,,,,,00045,001,2026-01-24_11h29.01.648,MST_task,2024.2.0,59.97785618144234,2026-01-24 11h29.09.405451 +0530,
5,practice_images/139a.jpg,0,0,1,None,f,4.013165600015782,None,,,,,,,,,1,0,0,,,,106.6815960999811,,,,,,,,,,,,,,,,,,,,,,,106.67899570002919,106.6815960999811,107.16755980002927,107.19231780001428,107.22350020002341,107.22350020002341,107.22350020002341,110.16775060002692,None,110.17446579999523,110.18412739998894,110.18412739998894,114.2017646000022,f,4.013165600015782,None,,,,,,,,,,,,,,,,,,,,,,,,,,,,,,,,,,,,,,00045,001,2026-01-24_11h29.01.648,MST_task,2024.2.0,59.97785618144234,2026-01-24 11h29.09.405451 +0530,
6,practice_images/158a.jpg,1,1,1,j,None,,,1.9417444000137039,0.09686789999250323,,,,,,,1,1,1,,,,114.2173552000313,,,,,,,,,,,,,,,,,,,,,,,114.20192620001035,114.2173552000313,114.70176760002505,114.72375000000466,114.72683440003311,114.72683440003311,114.72683440003311,117.71774739999091,j,117.71793990000151,,,117.71801210002741,None,,,114.72683440003311,1.9417444000137039,0.09686789999250323,,,,,,,,,,,,,,,,,,,,,,,,,,,,,,,,,,,00045,001,2026-01-24_11h29.01.648,MST_task,2024.2.0,59.97785618144234,2026-01-24 11h29.09.405451 +0530,
1,practice_images/013a.jpg,2,2,1,j,None,,,1.005924099998083,0.11207720002857968,,,,,,,1,2,2,,,,117.73380440002074,,,,,,,,,,,,,,,,,,,,,,,117.71828909998294,117.73380440002074,118.21776899998076,118.23608310002601,118.23928500001784,118.23928500001784,118.23928500001784,121.21851420000894,j,121.21872449998045,,,121.21880179998698,None,,,118.23928500001784,1.005924099998083,0.11207720002857968,,,,,,,,,,,,,,,,,,,,,,,,,,,,,,,,,,,00045,001,2026-01-24_11h29.01.648,MST_task,2024.2.0,59.97785618144234,2026-01-24 11h29.09.405451 +0530,
3,practice_images/037a.jpg,3,3,1,f,None,,,1.2784087000181898,0.14471079997019842,,,,,,,1,3,3,,,,121.23407810000936,,,,,,,,,,,,,,,,,,,,,,,121.21921810001368,121.23407810000936,121.71736800001236,121.73737410001922,121.74223289999645,121.74223289999645,121.74223289999645,124.73448360001203,f,124.73468549997779,,,124.73475760000292,None,,,121.74223289999645,1.2784087000181898,0.14471079997019842,,,,,,,,,,,,,,,,,,,,,,,,,,,,,,,,,,,00045,001,2026-01-24_11h29.01.648,MST_task,2024.2.0,59.97785618144234,2026-01-24 11h29.09.405451 +0530,
10,practice_images/182a.jpg,4,4,1,f,None,,,1.5757850999943912,0.12051909998990595,,,,,,,1,4,4,,,,124.75126230000751,,,,,,,,,,,,,,,,,,,,,,,124.73503480001818,124.75126230000751,125.2350243999972,125.25084699998843,125.25301039998885,125.25301039998885,125.25301039998885,128.25218250002945,f,128.25239510001848,,,128.25246960000368,None,,,125.25301039998885,1.5757850999943912,0.12051909998990595,,,,,,,,,,,,,,,,,,,,,,,,,,,,,,,,,,,00045,001,2026-01-24_11h29.01.648,MST_task,2024.2.0,59.97785618144234,2026-01-24 11h29.09.405451 +0530,
8,practice_images/178a.jpg,5,5,1,j,None,,,1.0868690999923274,0.12007309996988624,,,,,,,1,5,5,,,,128.26745390001452,,,,,,,,,,,,,,,,,,,,,,,128.25275029998738,128.26745390001452,128.75087789999088,128.7697535000043,128.77402100001927,128.77402100001927,128.77402100001927,131.76812600000994,j,131.7683194000274,,,131.7683920999989,None,,,128.77402100001927,1.0868690999923274,0.12007309996988624,,,,,,,,,,,,,,,,,,,,,,,,,,,,,,,,,,,00045,001,2026-01-24_11h29.01.648,MST_task,2024.2.0,59.97785618144234,2026-01-24 11h29.09.405451 +0530,
4,practice_images/002b.jpg,6,6,1,j,None,,,2.119117600028403,0.14421249995939434,,,,,,,1,6,6,,,,131.78410550003173,,,,,,,,,,,,,,,,,,,,,,,131.76866930001415,131.78410550003173,132.2677696000319,132.28419979999308,132.28610530000878,132.28610530000878,132.28610530000878,135.2845149000059,j,135.2847331999801,,,135.28480989998206,None,,,132.28610530000878,2.119117600028403,0.14421249995939434,,,,,,,,,,,,,,,,,,,,,,,,,,,,,,,,,,,00045,001,2026-01-24_11h29.01.648,MST_task,2024.2.0,59.97785618144234,2026-01-24 11h29.09.405451 +0530,
9,practice_images/180a.jpg,7,7,1,f,None,,,0.765293299977202,0.14429580001160502,,,,,,,1,7,7,,,,135.30060780001804,,,,,,,,,,,,,,,,,,,,,,,135.28510999999708,135.30060780001804,135.78450310003245,135.80422560003353,135.80738740001107,135.80738740001107,135.80738740001107,138.80114420002792,f,138.80135730002075,,,138.8014312000014,None,,,135.80738740001107,0.765293299977202,0.14429580001160502,,,,,,,,,,,,,,,,,,,,,,,,,,,,,,,,,,,00045,001,2026-01-24_11h29.01.648,MST_task,2024.2.0,59.97785618144234,2026-01-24 11h29.09.405451 +0530,
2,practice_images/031a.jpg,8,8,1,f,None,,,0.8277660000021569,0.09569280000869185,,,,,,,1,8,8,,,,138.8179920000257,,,,,,,,,,,,,,,,,,,,,,,138.80178310000338,138.8179920000257,139.30098970001563,139.3193599000224,139.32150130002992,139.32150130002992,139.32150130002992,142.3183911999804,f,142.31858610000927,,,142.31865859997924,None,,,139.32150130002992,0.8277660000021569,0.09569280000869185,,,,,,,,,,,,,,,,,,,,,,,,,,,,,,,,,,,00045,001,2026-01-24_11h29.01.648,MST_task,2024.2.0,59.97785618144234,2026-01-24 11h29.09.405451 +0530,
7,practice_images/166a.jpg,9,9,1,f,None,,,1.3411151000182144,0.09619030001340434,,,,,,,1,9,9,,,,142.33392790000653,,,,,,,,,,,,,,,,,,,,,,,142.31895129999612,142.33392790000653,142.81748919998063,142.83677250001347,142.84012000000803,142.84012000000803,142.84012000000803,145.8347118999809,f,145.8349038999877,,,145.83497690001968,None,,,142.84012000000803,1.3411151000182144,0.09619030001340434,,,,,,,,,,,,,,,,,,,,,,,,,,,,,,,,,,,00045,001,2026-01-24_11h29.01.648,MST_task,2024.2.0,59.97785618144234,2026-01-24 11h29.09.405451 +0530,
,,,,,,,,,,,,,,,,,,,,,,,,,,,,,,,,,,,,,,,,,,,,,,,,,,,,,,,,,,,,,,,,,145.8351660000044,145.85056240000995,145.85056240000995,157.66798109997762,space,11.802497500029858,None,,,,,,,,,,,,,,,,,,,,,,,,,,,,00045,001,2026-01-24_11h29.01.648,MST_task,2024.2.0,59.97785618144234,2026-01-24 11h29.09.405451 +0530,
,Objects\037a.jpg,0,0,1,,,,,,,f,0.769264500006102,0.0956171999569051,None,,,,,,1,0,0,157.68379749997985,,,,,,,,,,,,,,,,,,,,,,,157.67123039998114,157.68379749997985,158.16825629997766,,,,,,,,,,,,,,,,,,,,,,,,158.20653830002993,158.2119090000051,158.2119090000051,158.2119090000051,161.18429679999826,f,0.769264500006102,0.0956171999569051,161.19135300000198,161.19140760001028,None,,,,,,,,,,,,,,,,,00045,001,2026-01-24_11h29.01.648,MST_task,2024.2.0,59.97785618144234,2026-01-24 11h29.09.405451 +0530,
,Objects\165a.jpg,1,0,2,,,,,,,f,0.831211999990046,0.12019290000898764,None,,,,,,2,0,1,161.20068120001815,,,,,,,,,,,,,,,,,,,,,,,161.19167179998476,161.20068120001815,161.6841252000304,,,,,,,,,,,,,,161.71003329998348,,,,,,,,,,161.70725849998416,161.71003329998348,161.71003329998348,161.71003329998348,164.70084060000954,f,0.831211999990046,0.12019290000898764,164.70104030001676,164.7011058999924,None,,,,,,,,,,,,,,,,,00045,001,2026-01-24_11h29.01.648,MST_task,2024.2.0,59.97785618144234,2026-01-24 11h29.09.405451 +0530,
,Objects\164a.jpg,2,0,3,,,,,,,j,1.8930504999589175,0.12855330004822463,None,,,,,,3,0,2,164.7172305000131,,,,,,,,,,,,,,,,,,,,,,,164.70146830001613,164.7172305000131,165.20124050002778,,,,,,,,,,,,,,165.22379950003233,,,,,,,,,,165.2211008000304,165.22379950003233,165.22379950003233,165.22379950003233,168.21758320002118,j,1.8930504999589175,0.12855330004822463,168.21778330003144,168.21784930001013,None,,,,,,,,,,,,,,,,,00045,001,2026-01-24_11h29.01.648,MST_task,2024.2.0,59.97785618144234,2026-01-24 11h29.09.405451 +0530,
,Objects\177a.jpg,3,0,4,,,,,,,j,1.3053316000150517,0.10417300002882257,None,,,,,,4,0,3,168.23411540000234,,,,,,,,,,,,,,,,,,,,,,,168.21821949997684,168.23411540000234,168.71776299999328,,,,,,,,,,,,,,168.73989149997942,,,,,,,,,,168.737159900018,168.73989149997942,168.73989149997942,168.73989149997942,171.7349791000015,j,1.3053316000150517,0.10417300002882257,171.73517970001558,171.73524680000264,None,,,,,,,,,,,,,,,,,00045,001,2026-01-24_11h29.01.648,MST_task,2024.2.0,59.97785618144234,2026-01-24 11h29.09.405451 +0530,
,Objects\151a.jpg,4,0,5,,,,,,,f,1.903291700000409,0.1357376000378281,None,,,,,,5,0,4,171.75058669998543,,,,,,,,,,,,,,,,,,,,,,,171.7356063000043,171.75058669998543,172.23450680001406,,,,,,,,,,,,,,172.26191619999008,,,,,,,,,,172.25794759998098,172.26191619999008,172.26191619999008,172.26191619999008,175.25118010002188,f,1.903291700000409,0.1357376000378281,175.25139749998925,175.25147170003038,None,,,,,,,,,,,,,,,,,00045,001,2026-01-24_11h29.01.648,MST_task,2024.2.0,59.97785618144234,2026-01-24 11h29.09.405451 +0530,
,Objects\099a.jpg,5,0,6,,,,,,,j,2.249009799968917,0.11946830002125353,None,,,,,,6,0,5,175.26738480001222,,,,,,,,,,,,,,,,,,,,,,,175.25178769999184,175.26738480001222,175.7516137000057,,,,,,,,,,,,,,175.7802270000102,,,,,,,,,,175.7772567999782,175.7802270000102,175.7802270000102,175.7802270000102,178.76858279999578,j,2.249009799968917,0.11946830002125353,178.76878749998286,178.76885549997678,None,,,,,,,,,,,,,,,,,00045,001,2026-01-24_11h29.01.648,MST_task,2024.2.0,59.97785618144234,2026-01-24 11h29.09.405451 +0530,
,Objects\001a.jpg,6,0,7,,,,,,,None,,,f,0.6561572999926284,None,,,,7,0,6,178.78395830001682,,,,,,,,,,,,,,,,,,,,,,,178.7691491000005,178.78395830001682,179.26782740000635,,,,,,,,,,,,,,179.2922491999925,,,,,,,,,,179.28921349998564,179.2922491999925,179.2922491999925,179.2922491999925,182.2841100000078,None,,,182.2842893000343,182.96769160003169,f,182.30064820003463,182.30064820003463,0.6561572999926284,None,,,,,,,,,,,,,00045,001,2026-01-24_11h29.01.648,MST_task,2024.2.0,59.97785618144234,2026-01-24 11h29.09.405451 +0530,
,Scenes\173a.jpg,7,0,8,,,,,,,j,0.8821808000211604,0.09595789999002591,None,,,,,,8,0,7,182.98385020002024,,,,,,,,,,,,,,,,,,,,,,,182.96803940000245,182.98385020002024,183.46885130001465,,,,,,,,,,,,,,,,,,,,,,,,183.5039131999947,183.50664630002575,183.50664630002575,183.50664630002575,186.48444269999163,j,0.8821808000211604,0.09595789999002591,186.48464759998024,186.48471719998633,None,,,,,,,,,,,,,,,,,00045,001,2026-01-24_11h29.01.648,MST_task,2024.2.0,59.97785618144234,2026-01-24 11h29.09.405451 +0530,
,Scenes\115a.jpg,8,0,9,,,,,,,j,0.9019786000135355,0.10399639996467158,None,,,,,,9,0,8,186.50073730002623,,,,,,,,,,,,,,,,,,,,,,,186.48501260002377,186.50073730002623,186.98433449998265,,,,,,,,,,,,,,187.01479290000862,,,,,,,,,,187.01208860002225,187.01479290000862,187.01479290000862,187.01479290000862,190.00116749998415,j,0.9019786000135355,0.10399639996467158,190.0013692000066,190.00143519998528,None,,,,,,,,,,,,,,,,,00045,001,2026-01-24_11h29.01.648,MST_task,2024.2.0,59.97785618144234,2026-01-24 11h29.09.405451 +0530,
,Scenes\118a.jpg,9,0,10,,,,,,,j,1.7181056000408716,0.12037919997237623,None,,,,,,10,0,9,190.01762880000751,,,,,,,,,,,,,,,,,,,,,,,190.00173050002195,190.01762880000751,190.50117609999143,,,,,,,,,,,,,,190.52662489999784,,,,,,,,,,190.52375069999835,190.52662489999784,190.52662489999784,190.52662489999784,193.51777540001785,j,1.7181056000408716,0.12037919997237623,193.51799680001568,193.51806179998675,None,,,,,,,,,,,,,,,,,00045,001,2026-01-24_11h29.01.648,MST_task,2024.2.0,59.97785618144234,2026-01-24 11h29.09.405451 +0530,
,Scenes\042a.jpg,10,0,11,,,,,,,j,2.0946874000364915,0.12056129996199161,None,,,,,,11,0,10,193.53410540003097,,,,,,,,,,,,,,,,,,,,,,,193.5185266000335,193.53410540003097,194.0180361000239,,,,,,,,,,,,,,194.04615439998452,,,,,,,,,,194.04388790001394,194.04615439998452,194.04615439998452,194.04615439998452,197.0342229999951,j,2.0946874000364915,0.12056129996199161,197.03444050002145,197.03450810001232,None,,,,,,,,,,,,,,,,,00045,001,2026-01-24_11h29.01.648,MST_task,2024.2.0,59.97785618144234,2026-01-24 11h29.09.405451 +0530,
,Scenes\149a.jpg,11,0,12,,,,,,,j,1.2665631999843754,0.09669390000635758,None,,,,,,12,0,11,197.0505919000134,,,,,,,,,,,,,,,,,,,,,,,197.03481670003384,197.0505919000134,197.5345309000113,,,,,,,,,,,,,,197.57025270001031,,,,,,,,,,197.56712120003067,197.57025270001031,197.57025270001031,197.57025270001031,200.55093050003052,j,1.2665631999843754,0.09669390000635758,200.551132099994,200.55120099999476,None,,,,,,,,,,,,,,,,,00045,001,2026-01-24_11h29.01.648,MST_task,2024.2.0,59.97785618144234,2026-01-24 11h29.09.405451 +0530,
,Scenes\097a.jpg,12,0,13,,,,,,,f,1.215593600005377,0.11198929999954998,None,,,,,,13,0,12,200.56749320001109,,,,,,,,,,,,,,,,,,,,,,,200.55149709997931,200.56749320001109,201.05083640001249,,,,,,,,,,,,,,201.07715179998195,,,,,,,,,,201.07390980003402,201.07715179998195,201.07715179998195,201.07715179998195,204.06773569999496,f,1.215593600005377,0.11198929999954998,204.06795220001368,204.06801799999084,None,,,,,,,,,,,,,,,,,00045,001,2026-01-24_11h29.01.648,MST_task,2024.2.0,59.97785618144234,2026-01-24 11h29.09.405451 +0530,
,Scenes\065a.jpg,13,0,14,,,,,,,j,1.3725635000155307,0.11173619999317452,None,,,,,,14,0,13,204.08411360002356,,,,,,,,,,,,,,,,,,,,,,,204.06839590001618,204.08411360002356,204.56797029997688,,,,,,,,,,,,,,204.60069410002325,,,,,,,,,,204.59816220001085,204.60069410002325,204.60069410002325,204.60069410002325,207.58450150000863,j,1.3725635000155307,0.11173619999317452,207.5846995000029,207.5847664999892,None,,,,,,,,,,,,,,,,,00045,001,2026-01-24_11h29.01.648,MST_task,2024.2.0,59.97785618144234,2026-01-24 11h29.09.405451 +0530,
,Objects\049a.jpg,14,0,15,,,,,,,f,2.080214299960062,0.14436400000704452,None,,,,,,15,0,14,207.60077180003282,,,,,,,,,,,,,,,,,,,,,,,207.58513289998518,207.60077180003282,208.08457419998012,,,,,,,,,,,,,,208.10885269998107,,,,,,,,,,208.10566449997714,208.10885269998107,208.10885269998107,208.10885269998107,211.10123949998524,f,2.080214299960062,0.14436400000704452,211.10143670003163,211.10150490002707,None,,,,,,,,,,,,,,,,,00045,001,2026-01-24_11h29.01.648,MST_task,2024.2.0,59.97785618144234,2026-01-24 11h29.09.405451 +0530,
,Objects\123a.jpg,15,0,16,,,,,,,j,0.9603171999915503,0.09579310001572594,None,,,,,,16,0,15,211.11718950001523,,,,,,,,,,,,,,,,,,,,,,,211.10179859999334,211.11718950001523,211.6007832000032,,,,,,,,,,,,,,211.62086100003216,,,,,,,,,,211.61804939998547,211.62086100003216,211.62086100003216,211.62086100003216,214.61776530003408,j,0.9603171999915503,0.09579310001572594,214.6179787000292,214.61804560001474,None,,,,,,,,,,,,,,,,,00045,001,2026-01-24_11h29.01.648,MST_task,2024.2.0,59.97785618144234,2026-01-24 11h29.09.405451 +0530,
,Objects\163a.jpg,16,0,17,,,,,,,j,1.2241857000044547,0.07994669995969161,None,,,,,,17,0,16,214.6341265999945,,,,,,,,,,,,,,,,,,,,,,,214.61833800002933,214.6341265999945,215.11831769999117,,,,,,,,,,,,,,,,,,,,,,,,215.13846729998477,215.14061010000296,215.14061010000296,215.14061010000296,218.13443700002972,j,1.2241857000044547,0.07994669995969161,218.13463300000876,218.13469799997984,None,,,,,,,,,,,,,,,,,00045,001,2026-01-24_11h29.01.648,MST_task,2024.2.0,59.97785618144234,2026-01-24 11h29.09.405451 +0530,
,Objects\116a.jpg,17,0,18,,,,,,,f,1.0061947999638505,0.13684140000259504,None,,,,,,18,0,17,218.15057599998545,,,,,,,,,,,,,,,,,,,,,,,218.1349638000247,218.15057599998545,218.63456490001408,,,,,,,,,,,,,,218.66232070000842,,,,,,,,,,218.65941750002094,218.66232070000842,218.66232070000842,218.66232070000842,221.65095109998947,f,1.0061947999638505,0.13684140000259504,221.65115240000887,221.65121630002977,None,,,,,,,,,,,,,,,,,00045,001,2026-01-24_11h29.01.648,MST_task,2024.2.0,59.97785618144234,2026-01-24 11h29.09.405451 +0530,
,Objects\031a.jpg,18,0,19,,,,,,,f,2.4280404000310227,0.1288973999908194,None,,,,,,19,0,18,221.66840409999713,,,,,,,,,,,,,,,,,,,,,,,221.65158190001966,221.66840409999713,222.15213429997675,,,,,,,,,,,,,,,,,,,,,,,,222.17420750000747,222.1764996999991,222.1764996999991,222.1764996999991,225.1677716000122,f,2.4280404000310227,0.1288973999908194,225.16796809999505,225.16803410003195,None,,,,,,,,,,,,,,,,,00045,001,2026-01-24_11h29.01.648,MST_task,2024.2.0,59.97785618144234,2026-01-24 11h29.09.405451 +0530,
,Objects\169a.jpg,19,0,20,,,,,,,f,2.739414800016675,0.0802657000022009,None,,,,,,20,0,19,225.1841031999793,,,,,,,,,,,,,,,,,,,,,,,225.16839629999595,225.1841031999793,225.66781469999114,,,,,,,,,,,,,,225.68975760001922,,,,,,,,,,225.6873064999818,225.68975760001922,225.68975760001922,225.68975760001922,228.68427139997948,f,2.739414800016675,0.0802657000022009,228.68447759997798,228.68454490002478,None,,,,,,,,,,,,,,,,,00045,001,2026-01-24_11h29.01.648,MST_task,2024.2.0,59.97785618144234,2026-01-24 11h29.09.405451 +0530,
,Objects\107a.jpg,20,0,21,,,,,,,j,0.7819763000006787,0.08004889998119324,None,,,,,,21,0,20,228.70044709998183,,,,,,,,,,,,,,,,,,,,,,,228.6848359000287,228.70044709998183,229.18428340001265,,,,,,,,,,,,,,229.20667520002462,,,,,,,,,,229.20451680000406,229.20667520002462,229.20667520002462,229.20667520002462,232.20105350000085,j,0.7819763000006787,0.08004889998119324,232.201275600004,232.20134700002382,None,,,,,,,,,,,,,,,,,00045,001,2026-01-24_11h29.01.648,MST_task,2024.2.0,59.97785618144234,2026-01-24 11h29.09.405451 +0530,
,Scenes\004a.jpg,21,0,22,,,,,,,j,1.247512700036168,0.0961259999894537,None,,,,,,22,0,21,232.21709940000437,,,,,,,,,,,,,,,,,,,,,,,232.20174480002606,232.21709940000437,232.70139350002864,,,,,,,,,,,,,,232.73366979998536,,,,,,,,,,232.73065979999956,232.73366979998536,232.73366979998536,232.73366979998536,235.7176266000024,j,1.247512700036168,0.0961259999894537,235.7178266000119,235.717894100002,None,,,,,,,,,,,,,,,,,00045,001,2026-01-24_11h29.01.648,MST_task,2024.2.0,59.97785618144234,2026-01-24 11h29.09.405451 +0530,
,Scenes\017a.jpg,22,0,23,,,,,,,j,1.4967348000500351,0.12791509996168315,None,,,,,,23,0,22,235.733775300032,,,,,,,,,,,,,,,,,,,,,,,235.7182566000265,235.733775300032,236.21782289998373,,,,,,,,,,,,,,236.25233540002955,,,,,,,,,,236.24957530002575,236.25233540002955,236.25233540002955,236.25233540002955,239.2343864000286,j,1.4967348000500351,0.12791509996168315,239.23458940000273,239.23465739999665,None,,,,,,,,,,,,,,,,,00045,001,2026-01-24_11h29.01.648,MST_task,2024.2.0,59.97785618144234,2026-01-24 11h29.09.405451 +0530,
,Scenes\182a.jpg,23,0,24,,,,,,,j,0.9518346000113524,0.11965429998235777,None,,,,,,24,0,23,239.25063409999711,,,,,,,,,,,,,,,,,,,,,,,239.23502989998087,239.25063409999711,239.73454249999486,,,,,,,,,,,,,,239.76516700000502,,,,,,,,,,239.76243840000825,239.76516700000502,239.76516700000502,239.76516700000502,242.75120220001554,j,0.9518346000113524,0.11965429998235777,242.7514160000137,242.75148269999772,None,,,,,,,,,,,,,,,,,00045,001,2026-01-24_11h29.01.648,MST_task,2024.2.0,59.97785618144234,2026-01-24 11h29.09.405451 +0530,
,Scenes\111a.jpg,24,0,25,,,,,,,j,1.5784414000227116,0.09623580001061782,None,,,,,,25,0,24,242.76740240002982,,,,,,,,,,,,,,,,,,,,,,,242.75178270001197,242.76740240002982,243.2511110000196,,,,,,,,,,,,,,243.2827469999902,,,,,,,,,,243.27994410000974,243.2827469999902,243.2827469999902,243.2827469999902,246.26778529997682,j,1.5784414000227116,0.09623580001061782,246.2679828000255,246.26804990001256,None,,,,,,,,,,,,,,,,,00045,001,2026-01-24_11h29.01.648,MST_task,2024.2.0,59.97785618144234,2026-01-24 11h29.09.405451 +0530,
,Scenes\133a.jpg,25,0,26,,,,,,,f,1.4070471999584697,0.10472600004868582,None,,,,,,26,0,25,246.283740999992,,,,,,,,,,,,,,,,,,,,,,,246.2683436999796,246.283740999992,246.76764340000227,,,,,,,,,,,,,,246.79756949999137,,,,,,,,,,246.79511579999235,246.79756949999137,246.79756949999137,246.79756949999137,249.78450830001384,f,1.4070471999584697,0.10472600004868582,249.7847089000279,249.7847749000066,None,,,,,,,,,,,,,,,,,00045,001,2026-01-24_11h29.01.648,MST_task,2024.2.0,59.97785618144234,2026-01-24 11h29.09.405451 +0530,
,Scenes\138a.jpg,26,0,27,,,,,,,j,1.0123326000175439,0.10391689999960363,None,,,,,,27,0,26,249.8006516000023,,,,,,,,,,,,,,,,,,,,,,,249.7851383999805,249.8006516000023,250.28452230000403,,,,,,,,,,,,,,250.3126682000002,,,,,,,,,,250.310404799995,250.3126682000002,250.3126682000002,250.3126682000002,253.30121439998038,j,1.0123326000175439,0.10391689999960363,253.3014167000074,253.30148219998227,None,,,,,,,,,,,,,,,,,00045,001,2026-01-24_11h29.01.648,MST_task,2024.2.0,59.97785618144234,2026-01-24 11h29.09.405451 +0530,
,Scenes\052a.jpg,27,0,28,,,,,,,j,1.63684709998779,0.1442786999978125,None,,,,,,28,0,27,253.31758949998766,,,,,,,,,,,,,,,,,,,,,,,253.30184839997673,253.31758949998766,253.80125409999164,,,,,,,,,,,,,,253.83175800001482,,,,,,,,,,253.8290545999771,253.83175800001482,253.83175800001482,253.83175800001482,256.81768530001864,j,1.63684709998779,0.1442786999978125,256.817890300008,256.81795769999735,None,,,,,,,,,,,,,,,,,00045,001,2026-01-24_11h29.01.648,MST_task,2024.2.0,59.97785618144234,2026-01-24 11h29.09.405451 +0530,
,Objects\120a.jpg,28,0,29,,,,,,,f,0.9052515999646857,0.1125272000208497,None,,,,,,29,0,28,256.83414900000207,,,,,,,,,,,,,,,,,,,,,,,256.81825210002717,256.83414900000207,257.31751169997733,,,,,,,,,,,,,,257.34730169997783,,,,,,,,,,257.34337710001273,257.34730169997783,257.34730169997783,257.34730169997783,260.33455680002226,f,0.9052515999646857,0.1125272000208497,260.3347570000333,260.33482300001197,None,,,,,,,,,,,,,,,,,00045,001,2026-01-24_11h29.01.648,MST_task,2024.2.0,59.97785618144234,2026-01-24 11h29.09.405451 +0530,
,Objects\020a.jpg,29,0,30,,,,,,,f,1.0636818999773823,0.14362119999714196,None,,,,,,30,0,29,260.35086800000863,,,,,,,,,,,,,,,,,,,,,,,260.3351156000281,260.35086800000863,260.83459849999053,,,,,,,,,,,,,,260.8613546999986,,,,,,,,,,260.85870430001523,260.8613546999986,260.8613546999986,260.8613546999986,263.85116989997914,f,1.0636818999773823,0.14362119999714196,263.85138439998263,263.8514535999857,None,,,,,,,,,,,,,,,,,00045,001,2026-01-24_11h29.01.648,MST_task,2024.2.0,59.97785618144234,2026-01-24 11h29.09.405451 +0530,
,Objects\073a.jpg,30,0,31,,,,,,,f,0.7751636999892071,0.14451290003489703,None,,,,,,31,0,30,263.8673979000305,,,,,,,,,,,,,,,,,,,,,,,263.85182779998286,263.8673979000305,264.35103409999283,,,,,,,,,,,,,,264.3736427000258,,,,,,,,,,264.3708233999787,264.3736427000258,264.3736427000258,264.3736427000258,267.3677827999927,f,0.7751636999892071,0.14451290003489703,267.3679794999771,267.36804530001245,None,,,,,,,,,,,,,,,,,00045,001,2026-01-24_11h29.01.648,MST_task,2024.2.0,59.97785618144234,2026-01-24 11h29.09.405451 +0530,
,Objects\096a.jpg,31,0,32,,,,,,,f,1.146207499958109,0.16043670004000887,None,,,,,,32,0,31,267.3840971000027,,,,,,,,,,,,,,,,,,,,,,,267.36841300001834,267.3840971000027,267.86749370000325,,,,,,,,,,,,,,267.8905555999954,,,,,,,,,,267.887756799988,267.8905555999954,267.8905555999954,267.8905555999954,270.88427520002006,f,1.146207499958109,0.16043670004000887,270.8844745000242,270.88454020000063,None,,,,,,,,,,,,,,,,,00045,001,2026-01-24_11h29.01.648,MST_task,2024.2.0,59.97785618144234,2026-01-24 11h29.09.405451 +0530,
,Objects\093a.jpg,32,0,33,,,,,,,j,0.793425899988506,0.12010850000660866,None,,,,,,33,0,32,270.9005819000304,,,,,,,,,,,,,,,,,,,,,,,270.88483430002816,270.9005819000304,271.38464110001223,,,,,,,,,,,,,,271.41114959999686,,,,,,,,,,271.4085342999897,271.41114959999686,271.41114959999686,271.41114959999686,274.40105049998965,j,0.793425899988506,0.12010850000660866,274.4012516000075,274.40131779998774,None,,,,,,,,,,,,,,,,,00045,001,2026-01-24_11h29.01.648,MST_task,2024.2.0,59.97785618144234,2026-01-24 11h29.09.405451 +0530,
,Objects\166a.jpg,33,0,34,,,,,,,f,1.452277900010813,0.10436669999035075,None,,,,,,34,0,33,274.41740099998424,,,,,,,,,,,,,,,,,,,,,,,274.4016086999909,274.41740099998424,274.90118819999043,,,,,,,,,,,,,,274.9283319999813,,,,,,,,,,274.92564989998937,274.9283319999813,274.9283319999813,274.9283319999813,277.9177740000305,f,1.452277900010813,0.10436669999035075,277.9179762999993,277.91804289998254,None,,,,,,,,,,,,,,,,,00045,001,2026-01-24_11h29.01.648,MST_task,2024.2.0,59.97785618144234,2026-01-24 11h29.09.405451 +0530,
,Objects\106a.jpg,34,0,35,,,,,,,f,1.1943199000088498,0.1206188999931328,None,,,,,,35,0,34,277.9341149000102,,,,,,,,,,,,,,,,,,,,,,,277.9184150000219,277.9341149000102,278.41764060000423,,,,,,,,,,,,,,278.44239869999,,,,,,,,,,278.4394118000055,278.44239869999,278.44239869999,278.44239869999,281.4343802999938,f,1.1943199000088498,0.1206188999931328,281.4345811000094,281.4346480999957,None,,,,,,,,,,,,,,,,,00045,001,2026-01-24_11h29.01.648,MST_task,2024.2.0,59.97785618144234,2026-01-24 11h29.09.405451 +0530,
,Scenes\122a.jpg,35,0,36,,,,,,,f,0.8128635000321083,0.11237930000061169,None,,,,,,36,0,35,281.45066440000664,,,,,,,,,,,,,,,,,,,,,,,281.43501479999395,281.45066440000664,281.9344394999789,,,,,,,,,,,,,,281.96808810002403,,,,,,,,,,281.9653209000244,281.96808810002403,281.96808810002403,281.96808810002403,284.93524790002266,f,0.8128635000321083,0.11237930000061169,284.93547090003267,284.93552910001017,None,,,,,,,,,,,,,,,,,00045,001,2026-01-24_11h29.01.648,MST_task,2024.2.0,59.97785618144234,2026-01-24 11h29.09.405451 +0530,
,Scenes\073a.jpg,36,0,37,,,,,,,j,0.8313242000294849,0.13634089997503906,None,,,,,,37,0,36,284.9507994999876,,,,,,,,,,,,,,,,,,,,,,,284.93585280003026,284.9507994999876,285.4344477999839,,,,,,,,,,,,,,285.4611720999819,,,,,,,,,,285.45855450001545,285.4611720999819,285.4611720999819,285.4611720999819,288.45157789997756,j,0.8313242000294849,0.13634089997503906,288.45177769998554,288.45184320001863,None,,,,,,,,,,,,,,,,,00045,001,2026-01-24_11h29.01.648,MST_task,2024.2.0,59.97785618144234,2026-01-24 11h29.09.405451 +0530,
,Scenes\093a.jpg,37,0,38,,,,,,,f,1.0447224999661557,0.15147580002667382,None,,,,,,38,0,37,288.4673858000315,,,,,,,,,,,,,,,,,,,,,,,288.45221000001766,288.4673858000315,288.9512311000144,,,,,,,,,,,,,,288.98443640000187,,,,,,,,,,288.9815452999901,288.98443640000187,288.98443640000187,288.98443640000187,291.96791160001885,f,1.0447224999661557,0.15147580002667382,291.96811620000517,291.96818349999376,None,,,,,,,,,,,,,,,,,00045,001,2026-01-24_11h29.01.648,MST_task,2024.2.0,59.97785618144234,2026-01-24 11h29.09.405451 +0530,
,Scenes\170a.jpg,38,0,39,,,,,,,j,0.7155089000007138,0.09660659998189658,None,,,,,,39,0,38,291.9841133999871,,,,,,,,,,,,,,,,,,,,,,,291.9685541000217,291.9841133999871,292.4678457999835,,,,,,,,,,,,,,292.5049336000229,,,,,,,,,,292.50237340002786,292.5049336000229,292.5049336000229,292.5049336000229,295.4845188999898,j,0.7155089000007138,0.09660659998189658,295.4847510000109,295.48481860000174,None,,,,,,,,,,,,,,,,,00045,001,2026-01-24_11h29.01.648,MST_task,2024.2.0,59.97785618144234,2026-01-24 11h29.09.405451 +0530,
,Scenes\187a.jpg,39,0,40,,,,,,,j,0.7172075000125915,0.09665329998824745,None,,,,,,40,0,39,295.5008059000247,,,,,,,,,,,,,,,,,,,,,,,295.4851224999875,295.5008059000247,295.98456429998623,,,,,,,,,,,,,,296.0154099999927,,,,,,,,,,296.0125893999939,296.0154099999927,296.0154099999927,296.0154099999927,299.0021838999819,j,0.7172075000125915,0.09665329998824745,299.00239670003066,299.0024611999979,None,,,,,,,,,,,,,,,,,00045,001,2026-01-24_11h29.01.648,MST_task,2024.2.0,59.97785618144234,2026-01-24 11h29.09.405451 +0530,
,Scenes\091a.jpg,40,0,41,,,,,,,j,0.707275299995672,0.12045980000402778,None,,,,,,41,0,40,299.0173910000012,,,,,,,,,,,,,,,,,,,,,,,299.0027654999867,299.0173910000012,299.5006967000081,,,,,,,,,,,,,,299.5295641000266,,,,,,,,,,299.5265238999855,299.5295641000266,299.5295641000266,299.5295641000266,302.51779479999095,j,0.707275299995672,0.12045980000402778,302.51799010002287,302.5180399999954,None,,,,,,,,,,,,,,,,,00045,001,2026-01-24_11h29.01.648,MST_task,2024.2.0,59.97785618144234,2026-01-24 11h29.09.405451 +0530,
,Scenes\157a.jpg,41,0,42,,,,,,,j,0.8239126999978907,0.1365292000118643,None,,,,,,42,0,41,302.5341236999957,,,,,,,,,,,,,,,,,,,,,,,302.518424400012,302.5341236999957,303.01757259998703,,,,,,,,,,,,,,303.05287549999775,,,,,,,,,,303.05021810001926,303.05287549999775,303.05287549999775,303.05287549999775,306.0345213999972,j,0.8239126999978907,0.1365292000118643,306.03471889998764,306.0348024999839,None,,,,,,,,,,,,,,,,,00045,001,2026-01-24_11h29.01.648,MST_task,2024.2.0,59.97785618144234,2026-01-24 11h29.09.405451 +0530,
,Objects\030a.jpg,42,0,43,,,,,,,f,0.8184758999850601,0.14494040003046393,None,,,,,,43,0,42,306.05080959998304,,,,,,,,,,,,,,,,,,,,,,,306.03517059999285,306.05080959998304,306.53449270001147,,,,,,,,,,,,,,306.5620459999773,,,,,,,,,,306.5593191999942,306.5620459999773,306.5620459999773,306.5620459999773,309.5513117000228,f,0.8184758999850601,0.14494040003046393,309.5515112000285,309.5515799000277,None,,,,,,,,,,,,,,,,,00045,001,2026-01-24_11h29.01.648,MST_task,2024.2.0,59.97785618144234,2026-01-24 11h29.09.405451 +0530,
,Objects\071a.jpg,43,0,44,,,,,,,f,0.7945717999828048,0.16083329997491091,None,,,,,,44,0,43,309.56738880003104,,,,,,,,,,,,,,,,,,,,,,,309.5519434000016,309.56738880003104,310.0513596999808,,,,,,,,,,,,,,310.0738635000307,,,,,,,,,,310.0715269999928,310.0738635000307,310.0738635000307,310.0738635000307,313.06763220002176,f,0.7945717999828048,0.16083329997491091,313.06783220003126,313.0678975000046,None,,,,,,,,,,,,,,,,,00045,001,2026-01-24_11h29.01.648,MST_task,2024.2.0,59.97785618144234,2026-01-24 11h29.09.405451 +0530,
,Objects\033a.jpg,44,0,45,,,,,,,f,0.7482956000021659,0.12890459998743609,None,,,,,,45,0,44,313.08386680000694,,,,,,,,,,,,,,,,,,,,,,,313.0682630999945,313.08386680000694,313.5678212000057,,,,,,,,,,,,,,313.5920721000293,,,,,,,,,,313.589919799997,313.5920721000293,313.5920721000293,313.5920721000293,316.5845186000224,f,0.7482956000021659,0.12890459998743609,316.5847353999852,316.5848039999837,None,,,,,,,,,,,,,,,,,00045,001,2026-01-24_11h29.01.648,MST_task,2024.2.0,59.97785618144234,2026-01-24 11h29.09.405451 +0530,
,Objects\027a.jpg,45,0,46,,,,,,,f,0.8058394999825396,0.12012510001659393,None,,,,,,46,0,45,316.60080640000524,,,,,,,,,,,,,,,,,,,,,,,316.5851103999885,316.60080640000524,317.084525400016,,,,,,,,,,,,,,317.11114709998947,,,,,,,,,,317.10834799997974,317.11114709998947,317.11114709998947,317.11114709998947,320.10110780003015,f,0.8058394999825396,0.12012510001659393,320.10131400002865,320.1013791000005,None,,,,,,,,,,,,,,,,,00045,001,2026-01-24_11h29.01.648,MST_task,2024.2.0,59.97785618144234,2026-01-24 11h29.09.405451 +0530,
,Objects\023a.jpg,46,0,47,,,,,,,f,0.8753109999815933,0.10418779996689409,None,,,,,,47,0,46,320.117416699999,,,,,,,,,,,,,,,,,,,,,,,320.1016744999797,320.117416699999,320.60102860000916,,,,,,,,,,,,,,320.6251866000239,,,,,,,,,,320.62303930002963,320.6251866000239,320.6251866000239,320.6251866000239,323.6177903999924,f,0.8753109999815933,0.10418779996689409,323.61799639998935,323.6180633000331,None,,,,,,,,,,,,,,,,,00045,001,2026-01-24_11h29.01.648,MST_task,2024.2.0,59.97785618144234,2026-01-24 11h29.09.405451 +0530,
,Objects\097a.jpg,47,0,48,,,,,,,j,1.1108407999854535,0.144836799998302,None,,,,,,48,0,47,323.634166200005,,,,,,,,,,,,,,,,,,,,,,,323.61835710000014,323.634166200005,324.1177992000012,,,,,,,,,,,,,,324.14160339999944,,,,,,,,,,324.1393112000078,324.14160339999944,324.14160339999944,324.14160339999944,327.13450500002364,j,1.1108407999854535,0.144836799998302,327.13471010001376,327.1347773000016,None,,,,,,,,,,,,,,,,,00045,001,2026-01-24_11h29.01.648,MST_task,2024.2.0,59.97785618144234,2026-01-24 11h29.09.405451 +0530,
,Objects\044a.jpg,48,0,49,,,,,,,j,2.2601310000172816,0.11167169996770099,None,,,,,,49,0,48,327.15081949997693,,,,,,,,,,,,,,,,,,,,,,,327.13508089998504,327.15081949997693,327.63456209999276,,,,,,,,,,,,,,327.6567832999863,,,,,,,,,,327.65434000000823,327.6567832999863,327.6567832999863,327.6567832999863,330.65100439998787,j,2.2601310000172816,0.11167169996770099,330.6512110999902,330.65127560001565,None,,,,,,,,,,,,,,,,,00045,001,2026-01-24_11h29.01.648,MST_task,2024.2.0,59.97785618144234,2026-01-24 11h29.09.405451 +0530,
,Scenes\121a.jpg,49,0,50,,,,,,,j,0.8947331000235863,0.0886801999877207,None,,,,,,50,0,49,330.6670547000249,,,,,,,,,,,,,,,,,,,,,,,330.65157390001696,330.6670547000249,331.1511964999954,,,,,,,,,,,,,,331.18193080002675,,,,,,,,,,331.1791878999793,331.18193080002675,331.18193080002675,331.18193080002675,334.167834700027,j,0.8947331000235863,0.0886801999877207,334.168059299991,334.16813210002147,None,,,,,,,,,,,,,,,,,00045,001,2026-01-24_11h29.01.648,MST_task,2024.2.0,59.97785618144234,2026-01-24 11h29.09.405451 +0530,
,Scenes\087a.jpg,50,0,51,,,,,,,j,0.8057752000167966,0.09670809999806806,None,,,,,,51,0,50,334.1841399000259,,,,,,,,,,,,,,,,,,,,,,,334.16853419999825,334.1841399000259,334.66781700000865,,,,,,,,,,,,,,334.69478660001187,,,,,,,,,,334.6919868999976,334.69478660001187,334.69478660001187,334.69478660001187,337.6845433000126,j,0.8057752000167966,0.09670809999806806,337.6847433000221,337.68482580001,None,,,,,,,,,,,,,,,,,00045,001,2026-01-24_11h29.01.648,MST_task,2024.2.0,59.97785618144234,2026-01-24 11h29.09.405451 +0530,
,Scenes\014a.jpg,51,0,52,,,,,,,f,1.6959602999850176,0.14373660000273958,None,,,,,,52,0,51,337.7008130000322,,,,,,,,,,,,,,,,,,,,,,,337.68512239999836,337.7008130000322,338.184367800015,,,,,,,,,,,,,,338.21314250002615,,,,,,,,,,338.2105574000161,338.21314250002615,338.21314250002615,338.21314250002615,341.20093420002377,f,1.6959602999850176,0.14373660000273958,341.2011373999994,341.20120409998344,None,,,,,,,,,,,,,,,,,00045,001,2026-01-24_11h29.01.648,MST_task,2024.2.0,59.97785618144234,2026-01-24 11h29.09.405451 +0530,
,Scenes\145a.jpg,52,0,53,,,,,,,j,0.7067852999898605,0.10358520003501326,None,,,,,,53,0,52,341.21727640001336,,,,,,,,,,,,,,,,,,,,,,,341.2013934000279,341.21727640001336,341.70143020001706,,,,,,,,,,,,,,,,,,,,,,,,341.7354597999947,341.7383120000013,341.7383120000013,341.7383120000013,344.7176365000196,j,0.7067852999898605,0.10358520003501326,344.7178522000322,344.71791750000557,None,,,,,,,,,,,,,,,,,00045,001,2026-01-24_11h29.01.648,MST_task,2024.2.0,59.97785618144234,2026-01-24 11h29.09.405451 +0530,
,Scenes\016a.jpg,53,0,54,,,,,,,j,0.8055549000273459,0.09534709999570623,None,,,,,,54,0,53,344.73413240001537,,,,,,,,,,,,,,,,,,,,,,,344.7182893999852,344.73413240001537,345.2177929999889,,,,,,,,,,,,,,345.2399599000346,,,,,,,,,,345.23720329999924,345.2399599000346,345.2399599000346,345.2399599000346,348.2345204000012,j,0.8055549000273459,0.09534709999570623,348.23472050001146,348.234787399997,None,,,,,,,,,,,,,,,,,00045,001,2026-01-24_11h29.01.648,MST_task,2024.2.0,59.97785618144234,2026-01-24 11h29.09.405451 +0530,
,Scenes\061a.jpg,54,0,55,,,,,,,j,0.8441263000131585,0.12880669999867678,None,,,,,,55,0,54,348.25079830002505,,,,,,,,,,,,,,,,,,,,,,,348.23515130003216,348.25079830002505,348.73457510001026,,,,,,,,,,,,,,348.76034939999226,,,,,,,,,,348.7579012999777,348.76034939999226,348.76034939999226,348.76034939999226,351.7512005000026,j,0.8441263000131585,0.12880669999867678,351.75140290003037,351.7514708000235,None,,,,,,,,,,,,,,,,,00045,001,2026-01-24_11h29.01.648,MST_task,2024.2.0,59.97785618144234,2026-01-24 11h29.09.405451 +0530,
,Scenes\007a.jpg,55,0,56,,,,,,,f,1.1160653000115417,0.14348749996861443,None,,,,,,56,0,55,351.7674031999777,,,,,,,,,,,,,,,,,,,,,,,351.7518297000206,351.7674031999777,352.25120920001063,,,,,,,,,,,,,,352.28103280003415,,,,,,,,,,352.2784424999845,352.28103280003415,352.28103280003415,352.28103280003415,355.2678369000205,f,1.1160653000115417,0.14348749996861443,355.2680511000217,355.26812389999395,None,,,,,,,,,,,,,,,,,00045,001,2026-01-24_11h29.01.648,MST_task,2024.2.0,59.97785618144234,2026-01-24 11h29.09.405451 +0530,
,Objects\068a.jpg,56,0,57,,,,,,,j,0.9537376000080258,0.15994630003115162,None,,,,,,57,0,56,355.28416290000314,,,,,,,,,,,,,,,,,,,,,,,355.2684900999884,355.28416290000314,355.76781029999256,,,,,,,,,,,,,,355.79509770002915,,,,,,,,,,355.79149309999775,355.79509770002915,355.79509770002915,355.79509770002915,358.7845649999799,j,0.9537376000080258,0.15994630003115162,358.7847676000092,358.78483319998486,None,,,,,,,,,,,,,,,,,00045,001,2026-01-24_11h29.01.648,MST_task,2024.2.0,59.97785618144234,2026-01-24 11h29.09.405451 +0530,
,Objects\072a.jpg,57,0,58,,,,,,,f,0.9853145999950357,0.14416989998426288,None,,,,,,58,0,57,358.8004953999771,,,,,,,,,,,,,,,,,,,,,,,358.7851214000257,358.8004953999771,359.2845420999802,,,,,,,,,,,,,,359.3071032000007,,,,,,,,,,359.3043529000133,359.3071032000007,359.3071032000007,359.3071032000007,362.3011807000148,f,0.9853145999950357,0.14416989998426288,362.3013834999874,362.30145050003193,None,,,,,,,,,,,,,,,,,00045,001,2026-01-24_11h29.01.648,MST_task,2024.2.0,59.97785618144234,2026-01-24 11h29.09.405451 +0530,
,Objects\047a.jpg,58,0,59,,,,,,,f,0.9780713999643922,0.12012130004586652,None,,,,,,59,0,58,362.3174028000212,,,,,,,,,,,,,,,,,,,,,,,362.30174359999364,362.3174028000212,362.80107450002106,,,,,,,,,,,,,,362.8269481000025,,,,,,,,,,362.82472590002,362.8269481000025,362.8269481000025,362.8269481000025,365.81814789999044,f,0.9780713999643922,0.12012130004586652,365.8183525999775,365.81841980002355,None,,,,,,,,,,,,,,,,,00045,001,2026-01-24_11h29.01.648,MST_task,2024.2.0,59.97785618144234,2026-01-24 11h29.09.405451 +0530,
,Objects\048a.jpg,59,0,60,,,,,,,j,0.7758224999997765,0.10370560002047569,None,,,,,,60,0,59,365.8340659000096,,,,,,,,,,,,,,,,,,,,,,,365.8187948000268,365.8340659000096,366.31781229999615,,,,,,,,,,,,,,366.34102699998766,,,,,,,,,,366.33838520001154,366.34102699998766,366.34102699998766,366.34102699998766,369.33455109997885,j,0.7758224999997765,0.10370560002047569,369.33476019999944,369.33483050001087,None,,,,,,,,,,,,,,,,,00045,001,2026-01-24_11h29.01.648,MST_task,2024.2.0,59.97785618144234,2026-01-24 11h29.09.405451 +0530,
,Objects\111a.jpg,60,0,61,,,,,,,f,0.9710083000245504,0.1439469000324607,None,,,,,,61,0,60,369.350821,,,,,,,,,,,,,,,,,,,,,,,369.3351434000069,369.350821,369.8345446999883,,,,,,,,,,,,,,369.85807479999494,,,,,,,,,,369.85533689998556,369.85807479999494,369.85807479999494,369.85807479999494,372.8510438000085,f,0.9710083000245504,0.1439469000324607,372.8512408999959,372.85130490001757,None,,,,,,,,,,,,,,,,,00045,001,2026-01-24_11h29.01.648,MST_task,2024.2.0,59.97785618144234,2026-01-24 11h29.09.405451 +0530,
,Objects\032a.jpg,61,0,62,,,,,,,j,0.7327559000113979,0.11971500003710389,None,,,,,,62,0,61,372.86707739997655,,,,,,,,,,,,,,,,,,,,,,,372.851666499977,372.86707739997655,373.35093730001245,,,,,,,,,,,,,,373.3762810000335,,,,,,,,,,373.37414349999744,373.3762810000335,373.3762810000335,373.3762810000335,376.3679436999955,j,0.7327559000113979,0.11971500003710389,376.3681376000168,376.3682039999985,None,,,,,,,,,,,,,,,,,00045,001,2026-01-24_11h29.01.648,MST_task,2024.2.0,59.97785618144234,2026-01-24 11h29.09.405451 +0530,
,Objects\094a.jpg,62,0,63,,,,,,,f,1.0479376000002958,0.1363003000151366,None,,,,,,63,0,62,376.3841543000308,,,,,,,,,,,,,,,,,,,,,,,376.36849080002867,376.3841543000308,376.86786470003426,,,,,,,,,,,,,,376.8924569999799,,,,,,,,,,376.89029270003084,376.8924569999799,376.8924569999799,376.8924569999799,379.88457140000537,f,1.0479376000002958,0.1363003000151366,379.8847818999784,379.8848549000104,None,,,,,,,,,,,,,,,,,00045,001,2026-01-24_11h29.01.648,MST_task,2024.2.0,59.97785618144234,2026-01-24 11h29.09.405451 +0530,
,Scenes\031a.jpg,63,0,64,,,,,,,f,1.9133705000276677,0.14328919997205958,None,,,,,,64,0,63,379.9008361999877,,,,,,,,,,,,,,,,,,,,,,,379.88525039999513,379.9008361999877,380.3841291000135,,,,,,,,,,,,,,380.41992020001635,,,,,,,,,,380.41730660002213,380.41992020001635,380.41992020001635,380.41992020001635,383.3858114000177,f,1.9133705000276677,0.14328919997205958,383.38601379998727,383.38607960002264,None,,,,,,,,,,,,,,,,,00045,001,2026-01-24_11h29.01.648,MST_task,2024.2.0,59.97785618144234,2026-01-24 11h29.09.405451 +0530,
,Scenes\010a.jpg,64,0,65,,,,,,,j,0.8271319000050426,0.12845749995904043,None,,,,,,65,0,64,383.40066400001524,,,,,,,,,,,,,,,,,,,,,,,383.3864473000285,383.40066400001524,383.8845273000188,,,,,,,,,,,,,,383.92128569999477,,,,,,,,,,383.91839549998986,383.92128569999477,383.92128569999477,383.92128569999477,386.9012092000339,j,0.8271319000050426,0.12845749995904043,386.90141190000577,386.90147709997837,None,,,,,,,,,,,,,,,,,00045,001,2026-01-24_11h29.01.648,MST_task,2024.2.0,59.97785618144234,2026-01-24 11h29.09.405451 +0530,
,Scenes\117a.jpg,65,0,66,,,,,,,j,0.7171445999993011,0.11953719996381551,None,,,,,,66,0,65,386.9180930000148,,,,,,,,,,,,,,,,,,,,,,,386.901842900028,386.9180930000148,387.4009156000102,,,,,,,,,,,,,,387.4318641999853,,,,,,,,,,387.42895289999433,387.4318641999853,387.4318641999853,387.4318641999853,390.41779989999486,j,0.7171445999993011,0.11953719996381551,390.4180016000173,390.41806739999447,None,,,,,,,,,,,,,,,,,00045,001,2026-01-24_11h29.01.648,MST_task,2024.2.0,59.97785618144234,2026-01-24 11h29.09.405451 +0530,
,Scenes\159a.jpg,66,0,67,,,,,,,j,0.6952400000300258,0.14409730001352727,None,,,,,,67,0,66,390.4341461000149,,,,,,,,,,,,,,,,,,,,,,,390.4184333999874,390.4341461000149,390.9175319999922,,,,,,,,,,,,,,390.9499126999872,,,,,,,,,,390.94693480001297,390.9499126999872,390.9499126999872,390.9499126999872,393.93469710001955,j,0.6952400000300258,0.14409730001352727,393.934892099991,393.9349616999971,None,,,,,,,,,,,,,,,,,00045,001,2026-01-24_11h29.01.648,MST_task,2024.2.0,59.97785618144234,2026-01-24 11h29.09.405451 +0530,
,Scenes\153a.jpg,67,0,68,,,,,,,j,0.7115585000137798,0.13625869998941198,None,,,,,,68,0,67,393.9518173999968,,,,,,,,,,,,,,,,,,,,,,,393.9353352999897,393.9518173999968,394.45105249999324,,,,,,,,,,,,,,,,,,,,,,,,394.4745542000164,394.4774132000166,394.4774132000166,394.4774132000166,397.4512109999778,j,0.7115585000137798,0.13625869998941198,397.45142170001054,397.4514894000022,None,,,,,,,,,,,,,,,,,00045,001,2026-01-24_11h29.01.648,MST_task,2024.2.0,59.97785618144234,2026-01-24 11h29.09.405451 +0530,
,Scenes\053a.jpg,68,0,69,,,,,,,j,0.934522699972149,0.13612859998829663,None,,,,,,69,0,68,397.467929299979,,,,,,,,,,,,,,,,,,,,,,,397.4518790000002,397.467929299979,397.95128839998506,,,,,,,,,,,,,,397.9745118999854,,,,,,,,,,397.9711621000315,397.9745118999854,397.9745118999854,397.9745118999854,400.96843790001003,j,0.934522699972149,0.13612859998829663,400.968727200001,400.9688232000335,None,,,,,,,,,,,,,,,,,00045,001,2026-01-24_11h29.01.648,MST_task,2024.2.0,59.97785618144234,2026-01-24 11h29.09.405451 +0530,
,Scenes\176a.jpg,69,0,70,,,,,,,j,0.9130232000024989,0.12765330000547692,None,,,,,,70,0,69,400.9841529999976,,,,,,,,,,,,,,,,,,,,,,,400.96930120000616,400.9841529999976,401.4674645999912,,,,,,,,,,,,,,401.49994369997876,,,,,,,,,,401.49731950002024,401.49994369997876,401.49994369997876,401.49994369997876,404.48463620000985,j,0.9130232000024989,0.12765330000547692,404.48483620001934,404.4849026000011,None,,,,,,,,,,,,,,,,,00045,001,2026-01-24_11h29.01.648,MST_task,2024.2.0,59.97785618144234,2026-01-24 11h29.09.405451 +0530,
,Objects\158a.jpg,70,0,71,,,,,,,f,0.6910098000080325,0.1439503000001423,None,,,,,,71,0,70,404.50091990001965,,,,,,,,,,,,,,,,,,,,,,,404.48520019999705,404.50091990001965,404.9845395000302,,,,,,,,,,,,,,405.0174919000128,,,,,,,,,,405.0122778000077,405.0174919000128,405.0174919000128,405.0174919000128,408.001220199978,f,0.6910098000080325,0.1439503000001423,408.0014170000213,408.00148079998326,None,,,,,,,,,,,,,,,,,00045,001,2026-01-24_11h29.01.648,MST_task,2024.2.0,59.97785618144234,2026-01-24 11h29.09.405451 +0530,
,Objects\190a.jpg,71,0,72,,,,,,,f,0.7791897000279278,0.14389259996823967,None,,,,,,72,0,71,408.0171792000183,,,,,,,,,,,,,,,,,,,,,,,408.0018427000032,408.0171792000183,408.5012457999983,,,,,,,,,,,,,,408.5211340999813,,,,,,,,,,408.5182160999975,408.5211340999813,408.5211340999813,408.5211340999813,411.51793580001686,f,0.7791897000279278,0.14389259996823967,411.5182029000134,411.51829520001775,None,,,,,,,,,,,,,,,,,00045,001,2026-01-24_11h29.01.648,MST_task,2024.2.0,59.97785618144234,2026-01-24 11h29.09.405451 +0530,
,Objects\108a.jpg,72,0,73,,,,,,,j,1.0846218000515364,0.1442469999892637,None,,,,,,73,0,72,411.53411320003215,,,,,,,,,,,,,,,,,,,,,,,411.51870890002465,411.53411320003215,412.0176117999945,,,,,,,,,,,,,,412.0403245000052,,,,,,,,,,412.03772969997954,412.0403245000052,412.0403245000052,412.0403245000052,415.0343552000122,j,1.0846218000515364,0.1442469999892637,415.0345531000057,415.0346190999844,None,,,,,,,,,,,,,,,,,00045,001,2026-01-24_11h29.01.648,MST_task,2024.2.0,59.97785618144234,2026-01-24 11h29.09.405451 +0530,
,Objects\082a.jpg,73,0,74,,,,,,,j,1.3912806000444107,0.11958030000096187,None,,,,,,74,0,73,415.05093379999744,,,,,,,,,,,,,,,,,,,,,,,415.0349840000272,415.05093379999744,415.5347579999943,,,,,,,,,,,,,,415.55757220002124,,,,,,,,,,415.5539523999905,415.55757220002124,415.55757220002124,415.55757220002124,418.55121290002717,j,1.3912806000444107,0.11958030000096187,418.55141319998074,418.5516108000302,None,,,,,,,,,,,,,,,,,00045,001,2026-01-24_11h29.01.648,MST_task,2024.2.0,59.97785618144234,2026-01-24 11h29.09.405451 +0530,
,Objects\046a.jpg,74,0,75,,,,,,,f,2.0879854999948293,0.14418329996988177,None,,,,,,75,0,74,418.56710159999784,,,,,,,,,,,,,,,,,,,,,,,418.5518570999848,418.56710159999784,419.0510918999789,,,,,,,,,,,,,,419.10102729999926,,,,,,,,,,419.09779269999126,419.10102729999926,419.10102729999926,419.10102729999926,422.06800480000675,f,2.0879854999948293,0.14418329996988177,422.0681977000204,422.0682625999907,None,,,,,,,,,,,,,,,,,00045,001,2026-01-24_11h29.01.648,MST_task,2024.2.0,59.97785618144234,2026-01-24 11h29.09.405451 +0530,
,Objects\016a.jpg,75,0,76,,,,,,,f,1.0269539000000805,0.18420750001678243,None,,,,,,76,0,75,422.0840765000321,,,,,,,,,,,,,,,,,,,,,,,422.0685498000239,422.0840765000321,422.5679377000197,,,,,,,,,,,,,,422.5934176000301,,,,,,,,,,422.5908142999979,422.5934176000301,422.5934176000301,422.5934176000301,425.5841317999875,f,1.0269539000000805,0.18420750001678243,425.58434080000734,425.58440599997994,None,,,,,,,,,,,,,,,,,00045,001,2026-01-24_11h29.01.648,MST_task,2024.2.0,59.97785618144234,2026-01-24 11h29.09.405451 +0530,
,Objects\060a.jpg,76,0,77,,,,,,,f,1.7245888999896124,0.12008929997682571,None,,,,,,77,0,76,425.60155100002885,,,,,,,,,,,,,,,,,,,,,,,425.5847704000189,425.60155100002885,426.08428619999904,,,,,,,,,,,,,,426.11178490001475,,,,,,,,,,426.10854310001014,426.11178490001475,426.11178490001475,426.11178490001475,429.1011193000013,f,1.7245888999896124,0.12008929997682571,429.10131790000014,429.10138409998035,None,,,,,,,,,,,,,,,,,00045,001,2026-01-24_11h29.01.648,MST_task,2024.2.0,59.97785618144234,2026-01-24 11h29.09.405451 +0530,
,Scenes\147a.jpg,77,0,78,,,,,,,j,0.6988484000321478,0.10380489996168762,None,,,,,,78,0,77,429.11746340000536,,,,,,,,,,,,,,,,,,,,,,,429.1016786000109,429.11746340000536,429.60120969999116,,,,,,,,,,,,,,429.63417410000693,,,,,,,,,,429.6316650999943,429.63417410000693,429.63417410000693,429.63417410000693,432.6178753999993,j,0.6988484000321478,0.10380489996168762,432.6180800999864,432.61814470001264,None,,,,,,,,,,,,,,,,,00045,001,2026-01-24_11h29.01.648,MST_task,2024.2.0,59.97785618144234,2026-01-24 11h29.09.405451 +0530,
,Scenes\058a.jpg,78,0,79,,,,,,,f,1.0207545000012033,0.10420020000310615,None,,,,,,79,0,78,432.6341004000278,,,,,,,,,,,,,,,,,,,,,,,432.6185069999774,432.6341004000278,433.1178633000236,,,,,,,,,,,,,,433.1522535000113,,,,,,,,,,433.14944489998743,433.1522535000113,433.1522535000113,433.1522535000113,436.1342955,f,1.0207545000012033,0.10420020000310615,436.134503600013,436.1345694999909,None,,,,,,,,,,,,,,,,,00045,001,2026-01-24_11h29.01.648,MST_task,2024.2.0,59.97785618144234,2026-01-24 11h29.09.405451 +0530,
,Scenes\019a.jpg,79,0,80,,,,,,,f,1.588458799989894,0.12822750001214445,None,,,,,,80,0,79,436.1509102000273,,,,,,,,,,,,,,,,,,,,,,,436.1347884000279,436.1509102000273,436.6352226000163,,,,,,,,,,,,,,,,,,,,,,,,436.6610618000268,436.6638926999876,436.6638926999876,436.6638926999876,439.6512434000033,f,1.588458799989894,0.12822750001214445,439.6514353000093,439.65150300000096,None,,,,,,,,,,,,,,,,,00045,001,2026-01-24_11h29.01.648,MST_task,2024.2.0,59.97785618144234,2026-01-24 11h29.09.405451 +0530,
,Scenes\054a.jpg,80,0,81,,,,,,,j,0.6455761999823153,0.1596676000044681,None,,,,,,81,0,80,439.66726180003025,,,,,,,,,,,,,,,,,,,,,,,439.6517903999775,439.66726180003025,440.15120550000574,,,,,,,,,,,,,,440.18342780001694,,,,,,,,,,440.18034510000143,440.18342780001694,440.18342780001694,440.18342780001694,443.1675852999906,j,0.6455761999823153,0.1596676000044681,443.16778730001533,443.1678514999803,None,,,,,,,,,,,,,,,,,00045,001,2026-01-24_11h29.01.648,MST_task,2024.2.0,59.97785618144234,2026-01-24 11h29.09.405451 +0530,
,Scenes\110a.jpg,81,0,82,,,,,,,j,0.6993484000558965,0.12802499998360872,None,,,,,,82,0,81,443.1839828999946,,,,,,,,,,,,,,,,,,,,,,,443.1682186999824,443.1839828999946,443.6675960000139,,,,,,,,,,,,,,443.69696149998344,,,,,,,,,,443.6942359000095,443.69696149998344,443.69696149998344,443.69696149998344,446.68453359999694,j,0.6993484000558965,0.12802499998360872,446.68473979999544,446.68480240000645,None,,,,,,,,,,,,,,,,,00045,001,2026-01-24_11h29.01.648,MST_task,2024.2.0,59.97785618144234,2026-01-24 11h29.09.405451 +0530,
,Scenes\032a.jpg,82,0,83,,,,,,,j,1.3690240000141785,0.14426349999848753,None,,,,,,83,0,82,446.7007955000154,,,,,,,,,,,,,,,,,,,,,,,446.68514730001334,446.7007955000154,447.1844144000206,,,,,,,,,,,,,,447.21941010002047,,,,,,,,,,447.2164064000244,447.21941010002047,447.21941010002047,447.21941010002047,450.2013562999782,j,1.3690240000141785,0.14426349999848753,450.2015530000208,450.2016176999896,None,,,,,,,,,,,,,,,,,00045,001,2026-01-24_11h29.01.648,MST_task,2024.2.0,59.97785618144234,2026-01-24 11h29.09.405451 +0530,
,Scenes\119a.jpg,83,0,84,,,,,,,j,1.235284700000193,0.1441847999813035,None,,,,,,84,0,83,450.21723040001234,,,,,,,,,,,,,,,,,,,,,,,450.20190470002126,450.21723040001234,450.7012056999956,,,,,,,,,,,,,,450.73728739999933,,,,,,,,,,450.73425540002063,450.73728739999933,450.73728739999933,450.73728739999933,453.7178678000346,j,1.235284700000193,0.1441847999813035,453.71805470000254,453.7181009000051,None,,,,,,,,,,,,,,,,,00045,001,2026-01-24_11h29.01.648,MST_task,2024.2.0,59.97785618144234,2026-01-24 11h29.09.405451 +0530,
,Objects\102a.jpg,84,0,85,,,,,,,f,0.8116214000037871,0.14389840001240373,None,,,,,,85,0,84,453.7340667999815,,,,,,,,,,,,,,,,,,,,,,,453.71836669999175,453.7340667999815,454.2179329000064,,,,,,,,,,,,,,454.2490029000328,,,,,,,,,,454.24506600003224,454.2490029000328,454.2490029000328,454.2490029000328,457.23426800000016,f,0.8116214000037871,0.14389840001240373,457.23446409997996,457.23452920001,None,,,,,,,,,,,,,,,,,00045,001,2026-01-24_11h29.01.648,MST_task,2024.2.0,59.97785618144234,2026-01-24 11h29.09.405451 +0530,
,Objects\064a.jpg,85,0,86,,,,,,,f,1.1599313000333495,0.13550169998779893,None,,,,,,86,0,85,457.2508109000046,,,,,,,,,,,,,,,,,,,,,,,457.2348179999972,457.2508109000046,457.73423770000227,,,,,,,,,,,,,,457.7570163999917,,,,,,,,,,457.7545435000211,457.7570163999917,457.7570163999917,457.7570163999917,460.751237199991,f,1.1599313000333495,0.13550169998779893,460.7514408000279,460.7515073000104,None,,,,,,,,,,,,,,,,,00045,001,2026-01-24_11h29.01.648,MST_task,2024.2.0,59.97785618144234,2026-01-24 11h29.09.405451 +0530,
,Objects\014a.jpg,86,0,87,,,,,,,f,0.9214149999897927,0.12777820002520457,None,,,,,,87,0,86,460.7673171000206,,,,,,,,,,,,,,,,,,,,,,,460.7518760000239,460.7673171000206,461.25120450003305,,,,,,,,,,,,,,461.2755581000238,,,,,,,,,,461.27270600001793,461.2755581000238,461.2755581000238,461.2755581000238,464.26790370000526,f,0.9214149999897927,0.12777820002520457,464.2681146999821,464.26818650000496,None,,,,,,,,,,,,,,,,,00045,001,2026-01-24_11h29.01.648,MST_task,2024.2.0,59.97785618144234,2026-01-24 11h29.09.405451 +0530,
,Objects\057a.jpg,87,0,88,,,,,,,f,0.7821702999644913,0.14413060003425926,None,,,,,,88,0,87,464.2840500000166,,,,,,,,,,,,,,,,,,,,,,,464.2686442999984,464.2840500000166,464.76857070002006,,,,,,,,,,,,,,,,,,,,,,,,464.78816150000785,464.79078550002305,464.79078550002305,464.79078550002305,467.78425129997777,f,0.7821702999644913,0.14413060003425926,467.78444980003405,467.7845187999774,None,,,,,,,,,,,,,,,,,00045,001,2026-01-24_11h29.01.648,MST_task,2024.2.0,59.97785618144234,2026-01-24 11h29.09.405451 +0530,
,Objects\089a.jpg,88,0,89,,,,,,,f,2.233353800023906,0.13608889997703955,None,,,,,,89,0,88,467.800659200002,,,,,,,,,,,,,,,,,,,,,,,467.7848113999935,467.800659200002,468.2841988999862,,,,,,,,,,,,,,468.3076353999786,,,,,,,,,,468.3043445000076,468.3076353999786,468.3076353999786,468.3076353999786,471.3008794999914,f,2.233353800023906,0.13608889997703955,471.30107839999255,471.301142900018,None,,,,,,,,,,,,,,,,,00045,001,2026-01-24_11h29.01.648,MST_task,2024.2.0,59.97785618144234,2026-01-24 11h29.09.405451 +0530,
,Objects\185a.jpg,89,0,90,,,,,,,f,1.4052784999948926,0.1446386000025086,None,,,,,,90,0,89,471.3174822999863,,,,,,,,,,,,,,,,,,,,,,,471.3015041000326,471.3174822999863,471.80123680003453,,,,,,,,,,,,,,471.8232230999856,,,,,,,,,,471.82037269999273,471.8232230999856,471.8232230999856,471.8232230999856,474.8178790999809,f,1.4052784999948926,0.1446386000025086,474.81808290001936,474.8181487999973,None,,,,,,,,,,,,,,,,,00045,001,2026-01-24_11h29.01.648,MST_task,2024.2.0,59.97785618144234,2026-01-24 11h29.09.405451 +0530,
,Objects\010a.jpg,90,0,91,,,,,,,f,0.8388205000082962,0.14383279997855425,None,,,,,,91,0,90,474.83409700001357,,,,,,,,,,,,,,,,,,,,,,,474.8185258000158,474.83409700001357,475.3179018999799,,,,,,,,,,,,,,475.34221869998146,,,,,,,,,,475.3398326000315,475.34221869998146,475.34221869998146,475.34221869998146,478.3340457000304,f,0.8388205000082962,0.14383279997855425,478.3342493000091,478.33431489998475,None,,,,,,,,,,,,,,,,,00045,001,2026-01-24_11h29.01.648,MST_task,2024.2.0,59.97785618144234,2026-01-24 11h29.09.405451 +0530,
,Scenes\025a.jpg,91,0,92,,,,,,,j,0.6410126999835484,0.11954340001102537,None,,,,,,92,0,91,478.35081829997944,,,,,,,,,,,,,,,,,,,,,,,478.33461610000813,478.35081829997944,478.8344961000257,,,,,,,,,,,,,,478.86862690001726,,,,,,,,,,478.8657492999919,478.86862690001726,478.86862690001726,478.86862690001726,481.8344778000028,j,0.6410126999835484,0.11954340001102537,481.834675399994,481.8347417000332,None,,,,,,,,,,,,,,,,,00045,001,2026-01-24_11h29.01.648,MST_task,2024.2.0,59.97785618144234,2026-01-24 11h29.09.405451 +0530,
,Scenes\131a.jpg,92,0,93,,,,,,,j,0.8284576999722049,0.10356570000294596,None,,,,,,93,0,92,481.850585600012,,,,,,,,,,,,,,,,,,,,,,,481.8350347999949,481.850585600012,482.33453430002555,,,,,,,,,,,,,,482.36853219999466,,,,,,,,,,482.3655196999898,482.36853219999466,482.36853219999466,482.36853219999466,485.3512175999931,j,0.8284576999722049,0.10356570000294596,485.3514181000064,485.3514825000311,None,,,,,,,,,,,,,,,,,00045,001,2026-01-24_11h29.01.648,MST_task,2024.2.0,59.97785618144234,2026-01-24 11h29.09.405451 +0530,
,Scenes\191a.jpg,93,0,94,,,,,,,j,0.981285999994725,0.12026429997058585,None,,,,,,94,0,93,485.36747930001,,,,,,,,,,,,,,,,,,,,,,,485.35177369997837,485.36747930001,485.8516462999978,,,,,,,,,,,,,,,,,,,,,,,,485.8765569999814,485.8793243999826,485.8793243999826,485.8793243999826,488.8679108999786,j,0.981285999994725,0.12026429997058585,488.86812370002735,488.86819330003345,None,,,,,,,,,,,,,,,,,00045,001,2026-01-24_11h29.01.648,MST_task,2024.2.0,59.97785618144234,2026-01-24 11h29.09.405451 +0530,
,Scenes\084a.jpg,94,0,95,,,,,,,j,1.4190031999605708,0.11232500005280599,None,,,,,,95,0,94,488.88407909998205,,,,,,,,,,,,,,,,,,,,,,,488.86853400000837,488.88407909998205,489.3678868000279,,,,,,,,,,,,,,489.40135579998605,,,,,,,,,,489.39811499998905,489.40135579998605,489.40135579998605,489.40135579998605,492.3843777999864,j,1.4190031999605708,0.11232500005280599,492.3845791000058,492.3846440000343,None,,,,,,,,,,,,,,,,,00045,001,2026-01-24_11h29.01.648,MST_task,2024.2.0,59.97785618144234,2026-01-24 11h29.09.405451 +0530,
,Scenes\060a.jpg,95,0,96,,,,,,,j,0.7184531000093557,0.1205813999986276,None,,,,,,96,0,95,492.4006092000054,,,,,,,,,,,,,,,,,,,,,,,492.3850886999862,492.4006092000054,492.88435230002506,,,,,,,,,,,,,,492.9421292000334,,,,,,,,,,492.9393466000329,492.9421292000334,492.9421292000334,492.9421292000334,495.9011484999792,j,0.7184531000093557,0.1205813999986276,495.9013427000027,495.9014088999829,None,,,,,,,,,,,,,,,,,00045,001,2026-01-24_11h29.01.648,MST_task,2024.2.0,59.97785618144234,2026-01-24 11h29.09.405451 +0530,
,Scenes\095a.jpg,96,0,97,,,,,,,f,1.3219140999717638,0.12026420002803206,None,,,,,,97,0,96,495.91751479997765,,,,,,,,,,,,,,,,,,,,,,,495.9017730000196,495.91751479997765,496.401815899997,,,,,,,,,,,,,,,,,,,,,,,,496.43133729998954,496.4346314999857,496.4346314999857,496.4346314999857,499.4178947000182,f,1.3219140999717638,0.12026420002803206,499.4181163000176,499.41818179999245,None,,,,,,,,,,,,,,,,,00045,001,2026-01-24_11h29.01.648,MST_task,2024.2.0,59.97785618144234,2026-01-24 11h29.09.405451 +0530,
,Scenes\086a.jpg,97,0,98,,,,,,,j,0.9030941000091843,0.16889319999609143,None,,,,,,98,0,97,499.43414259998826,,,,,,,,,,,,,,,,,,,,,,,499.41857019998133,499.43414259998826,499.9187782999943,,,,,,,,,,,,,,,,,,,,,,,,499.9535775000113,499.9571255000192,499.9571255000192,499.9571255000192,502.93454190000193,j,0.9030941000091843,0.16889319999609143,502.9347505000187,502.934817500005,None,,,,,,,,,,,,,,,,,00045,001,2026-01-24_11h29.01.648,MST_task,2024.2.0,59.97785618144234,2026-01-24 11h29.09.405451 +0530,
,Objects\003a.jpg,98,0,99,,,,,,,j,1.1937627000152133,0.14440320001449436,None,,,,,,99,0,98,502.9507537999889,,,,,,,,,,,,,,,,,,,,,,,502.9351267000311,502.9507537999889,503.434580000001,,,,,,,,,,,,,,503.4586367000011,,,,,,,,,,503.455558000016,503.4586367000011,503.4586367000011,503.4586367000011,506.4511383000063,j,1.1937627000152133,0.14440320001449436,506.4513370000059,506.45140150003135,None,,,,,,,,,,,,,,,,,00045,001,2026-01-24_11h29.01.648,MST_task,2024.2.0,59.97785618144234,2026-01-24 11h29.09.405451 +0530,
,Objects\103a.jpg,99,0,100,,,,,,,f,1.0197016999591142,0.12067870004102588,None,,,,,,100,0,99,506.46749870001804,,,,,,,,,,,,,,,,,,,,,,,506.4516911000246,506.46749870001804,506.9508642000146,,,,,,,,,,,,,,506.976727100031,,,,,,,,,,506.97415600001113,506.976727100031,506.976727100031,506.976727100031,509.96796229999745,f,1.0197016999591142,0.12067870004102588,509.9681792000192,509.96824509999715,None,,,,,,,,,,,,,,,,,00045,001,2026-01-24_11h29.01.648,MST_task,2024.2.0,59.97785618144234,2026-01-24 11h29.09.405451 +0530,
,Objects\085a.jpg,100,0,101,,,,,,,f,1.66435909998836,0.13754189998144284,None,,,,,,101,0,100,509.98398419999285,,,,,,,,,,,,,,,,,,,,,,,509.96861610002816,509.98398419999285,510.4680853000027,,,,,,,,,,,,,,510.49258010002086,,,,,,,,,,510.49040040001273,510.49258010002086,510.49258010002086,510.49258010002086,513.4842125999858,f,1.66435909998836,0.13754189998144284,513.4844022000325,513.4844685000135,None,,,,,,,,,,,,,,,,,00045,001,2026-01-24_11h29.01.648,MST_task,2024.2.0,59.97785618144234,2026-01-24 11h29.09.405451 +0530,
,Objects\138a.jpg,101,0,102,,,,,,,j,0.9819562999764457,0.13618450000649318,None,,,,,,102,0,101,513.5006132000126,,,,,,,,,,,,,,,,,,,,,,,513.4848285000189,513.5006132000126,513.9843908000039,,,,,,,,,,,,,,514.0069704999914,,,,,,,,,,514.0041870999848,514.0069704999914,514.0069704999914,514.0069704999914,517.0011324000079,j,0.9819562999764457,0.13618450000649318,517.0013274999801,517.0013928000117,None,,,,,,,,,,,,,,,,,00045,001,2026-01-24_11h29.01.648,MST_task,2024.2.0,59.97785618144234,2026-01-24 11h29.09.405451 +0530,
,Objects\129a.jpg,102,0,103,,,,,,,f,1.880780900013633,0.15284150000661612,None,,,,,,103,0,102,517.0174873999786,,,,,,,,,,,,,,,,,,,,,,,517.0017535000225,517.0174873999786,517.5008591000224,,,,,,,,,,,,,,517.5235197999864,,,,,,,,,,517.5212337999837,517.5235197999864,517.5235197999864,517.5235197999864,520.5176497999928,f,1.880780900013633,0.15284150000661612,520.5178577000042,520.5179399999906,None,,,,,,,,,,,,,,,,,00045,001,2026-01-24_11h29.01.648,MST_task,2024.2.0,59.97785618144234,2026-01-24 11h29.09.405451 +0530,
,Objects\034a.jpg,103,0,104,,,,,,,f,1.5320069000008516,0.14371269999537617,None,,,,,,104,0,103,520.5340318999952,,,,,,,,,,,,,,,,,,,,,,,520.5183126000338,520.5340318999952,521.0180236999877,,,,,,,,,,,,,,521.0409127000021,,,,,,,,,,521.0382203999907,521.0409127000021,521.0409127000021,521.0409127000021,524.0342523999861,f,1.5320069000008516,0.14371269999537617,524.0344484000234,524.0345138999983,None,,,,,,,,,,,,,,,,,00045,001,2026-01-24_11h29.01.648,MST_task,2024.2.0,59.97785618144234,2026-01-24 11h29.09.405451 +0530,
,Objects\081a.jpg,104,0,105,,,,,,,j,0.7783374999999069,0.1046523000113666,None,,,,,,105,0,104,524.051573499979,,,,,,,,,,,,,,,,,,,,,,,524.0348729999969,524.051573499979,524.5510329999961,,,,,,,,,,,,,,,,,,,,,,,,524.5752052000025,524.5779199000099,524.5779199000099,524.5779199000099,527.5511353000184,j,0.7783374999999069,0.1046523000113666,527.5513293999829,527.5513962000259,None,,,,,,,,,,,,,,,,,00045,001,2026-01-24_11h29.01.648,MST_task,2024.2.0,59.97785618144234,2026-01-24 11h29.09.405451 +0530,
,Scenes\134a.jpg,105,0,106,,,,,,,j,1.511854900047183,0.144404599966947,None,,,,,,106,0,105,527.5674918000004,,,,,,,,,,,,,,,,,,,,,,,527.5516864000238,527.5674918000004,528.0517336000339,,,,,,,,,,,,,,,,,,,,,,,,528.0818430000218,528.0848831000039,528.0848831000039,528.0848831000039,531.0680256999913,j,1.511854900047183,0.144404599966947,531.0682203000179,531.0682847999851,None,,,,,,,,,,,,,,,,,00045,001,2026-01-24_11h29.01.648,MST_task,2024.2.0,59.97785618144234,2026-01-24 11h29.09.405451 +0530,
,Scenes\082a.jpg,106,0,107,,,,,,,f,1.8491722999606282,0.1048892000108026,None,,,,,,107,0,106,531.083917299984,,,,,,,,,,,,,,,,,,,,,,,531.0686476000119,531.083917299984,531.5678788999794,,,,,,,,,,,,,,531.6030591999879,,,,,,,,,,531.6002780999988,531.6030591999879,531.6030591999879,531.6030591999879,534.5845669999835,f,1.8491722999606282,0.1048892000108026,534.5847973999917,534.5848639000324,None,,,,,,,,,,,,,,,,,00045,001,2026-01-24_11h29.01.648,MST_task,2024.2.0,59.97785618144234,2026-01-24 11h29.09.405451 +0530,
,Scenes\074a.jpg,107,0,108,,,,,,,j,2.45080799999414,0.10439619998214766,None,,,,,,108,0,107,534.6007835000055,,,,,,,,,,,,,,,,,,,,,,,534.5852258999948,534.6007835000055,535.0842784999986,,,,,,,,,,,,,,535.1136131000239,,,,,,,,,,535.111216499994,535.1136131000239,535.1136131000239,535.1136131000239,538.101125199988,j,2.45080799999414,0.10439619998214766,538.1013218000298,538.1013869000017,None,,,,,,,,,,,,,,,,,00045,001,2026-01-24_11h29.01.648,MST_task,2024.2.0,59.97785618144234,2026-01-24 11h29.09.405451 +0530,
,Scenes\183a.jpg,108,0,109,,,,,,,f,1.8923061999958009,0.12030839995713905,None,,,,,,109,0,108,538.1175050000311,,,,,,,,,,,,,,,,,,,,,,,538.1017589999828,538.1175050000311,538.6009469000273,,,,,,,,,,,,,,538.6321942000068,,,,,,,,,,538.6296842999873,538.6321942000068,538.6321942000068,538.6321942000068,541.6179813999915,f,1.8923061999958009,0.12030839995713905,541.618177300028,541.6182409999892,None,,,,,,,,,,,,,,,,,00045,001,2026-01-24_11h29.01.648,MST_task,2024.2.0,59.97785618144234,2026-01-24 11h29.09.405451 +0530,
,Scenes\129a.jpg,109,0,110,,,,,,,f,2.06735149997985,0.12801230000331998,None,,,,,,110,0,109,541.6341665000073,,,,,,,,,,,,,,,,,,,,,,,541.6186031000107,541.6341665000073,542.1179130999953,,,,,,,,,,,,,,542.1455757999793,,,,,,,,,,542.1428817000124,542.1455757999793,542.1455757999793,542.1455757999793,545.1342506000074,f,2.06735149997985,0.12801230000331998,545.1344448000309,545.1345106000081,None,,,,,,,,,,,,,,,,,00045,001,2026-01-24_11h29.01.648,MST_task,2024.2.0,59.97785618144234,2026-01-24 11h29.09.405451 +0530,
,Scenes\051a.jpg,110,0,111,,,,,,,j,0.9325798000209033,0.13658910000231117,None,,,,,,111,0,110,545.1507492000237,,,,,,,,,,,,,,,,,,,,,,,545.1348044000333,545.1507492000237,545.6345488000079,,,,,,,,,,,,,,545.6639579000184,,,,,,,,,,545.6612911000266,545.6639579000184,545.6639579000184,545.6639579000184,548.6349688000046,j,0.9325798000209033,0.13658910000231117,548.6351791999768,548.635245500016,None,,,,,,,,,,,,,,,,,00045,001,2026-01-24_11h29.01.648,MST_task,2024.2.0,59.97785618144234,2026-01-24 11h29.09.405451 +0530,
,Scenes\046a.jpg,111,0,112,,,,,,,j,1.194475800031796,0.1198930999962613,None,,,,,,112,0,111,548.6507605999941,,,,,,,,,,,,,,,,,,,,,,,548.6356189000071,548.6507605999941,549.1343973000185,,,,,,,,,,,,,,549.1704557000194,,,,,,,,,,549.1675358000211,549.1704557000194,549.1704557000194,549.1704557000194,552.1518770999974,j,1.194475800031796,0.1198930999962613,552.1520900999894,552.1521576999803,None,,,,,,,,,,,,,,,,,00045,001,2026-01-24_11h29.01.648,MST_task,2024.2.0,59.97785618144234,2026-01-24 11h29.09.405451 +0530,
,Objects\050a.jpg,112,0,113,,,,,,,f,1.077709000033792,0.16053539997665212,None,,,,,,113,0,112,552.1675068000332,,,,,,,,,,,,,,,,,,,,,,,552.1525211000117,552.1675068000332,552.6511879999889,,,,,,,,,,,,,,552.6785194000113,,,,,,,,,,552.6746948999935,552.6785194000113,552.6785194000113,552.6785194000113,555.667775799986,f,1.077709000033792,0.16053539997665212,555.6679699000088,555.6680380000034,None,,,,,,,,,,,,,,,,,00045,001,2026-01-24_11h29.01.648,MST_task,2024.2.0,59.97785618144234,2026-01-24 11h29.09.405451 +0530,
,Objects\147a.jpg,113,0,114,,,,,,,f,0.7784676000010222,0.16080329997930676,None,,,,,,114,0,113,555.684271599981,,,,,,,,,,,,,,,,,,,,,,,555.6683264999883,555.684271599981,556.1675998999854,,,,,,,,,,,,,,556.1938593999948,,,,,,,,,,556.1912948000245,556.1938593999948,556.1938593999948,556.1938593999948,559.1847457999829,f,0.7784676000010222,0.16080329997930676,559.1849425000255,559.1850088000065,None,,,,,,,,,,,,,,,,,00045,001,2026-01-24_11h29.01.648,MST_task,2024.2.0,59.97785618144234,2026-01-24 11h29.09.405451 +0530,
,Objects\118a.jpg,114,0,115,,,,,,,f,1.3317080000415444,0.12080209999112412,None,,,,,,115,0,114,559.2007684999844,,,,,,,,,,,,,,,,,,,,,,,559.1852957999799,559.2007684999844,559.6845408999943,,,,,,,,,,,,,,559.712570499978,,,,,,,,,,559.7091517000226,559.712570499978,559.712570499978,559.712570499978,562.7009729000274,f,1.3317080000415444,0.12080209999112412,562.7011713000247,562.7012396000209,None,,,,,,,,,,,,,,,,,00045,001,2026-01-24_11h29.01.648,MST_task,2024.2.0,59.97785618144234,2026-01-24 11h29.09.405451 +0530,
,Objects\159a.jpg,115,0,116,,,,,,,f,0.9887634000042453,0.12772260000929236,None,,,,,,116,0,115,562.7175165999797,,,,,,,,,,,,,,,,,,,,,,,562.7015346999979,562.7175165999797,563.2009156999993,,,,,,,,,,,,,,563.2241288999794,,,,,,,,,,563.2212867999915,563.2241288999794,563.2241288999794,563.2241288999794,566.2178480000002,f,0.9887634000042453,0.12772260000929236,566.2180593999801,566.2181283999817,None,,,,,,,,,,,,,,,,,00045,001,2026-01-24_11h29.01.648,MST_task,2024.2.0,59.97785618144234,2026-01-24 11h29.09.405451 +0530,
,Objects\146a.jpg,116,0,117,,,,,,,f,1.4365926000173204,0.12005219998536631,None,,,,,,117,0,116,566.2340928000049,,,,,,,,,,,,,,,,,,,,,,,566.2185846000211,566.2340928000049,566.7175814000075,,,,,,,,,,,,,,566.7439297999954,,,,,,,,,,566.7410009999876,566.7439297999954,566.7439297999954,566.7439297999954,569.734516400029,f,1.4365926000173204,0.12005219998536631,569.7347147000255,569.7347805000027,None,,,,,,,,,,,,,,,,,00045,001,2026-01-24_11h29.01.648,MST_task,2024.2.0,59.97785618144234,2026-01-24 11h29.09.405451 +0530,
,Objects\137a.jpg,117,0,118,,,,,,,f,1.6949195999768563,0.13549940002849326,None,,,,,,118,0,117,569.75077470002,,,,,,,,,,,,,,,,,,,,,,,569.7350689999876,569.75077470002,570.2345799999894,,,,,,,,,,,,,,570.2619693999877,,,,,,,,,,570.2590125999996,570.2619693999877,570.2619693999877,570.2619693999877,573.2505401999806,f,1.6949195999768563,0.13549940002849326,573.2506756000221,573.250716599985,None,,,,,,,,,,,,,,,,,00045,001,2026-01-24_11h29.01.648,MST_task,2024.2.0,59.97785618144234,2026-01-24 11h29.09.405451 +0530,
,Objects\054a.jpg,118,0,119,,,,,,,f,0.9303163000149652,0.127777999965474,None,,,,,,119,0,118,573.2675079000182,,,,,,,,,,,,,,,,,,,,,,,573.2509012999944,573.2675079000182,573.751057800022,,,,,,,,,,,,,,,,,,,,,,,,573.7759836000041,573.7786040999927,573.7786040999927,573.7786040999927,576.751150200027,f,0.9303163000149652,0.127777999965474,576.7513497000327,576.7514156000107,None,,,,,,,,,,,,,,,,,00045,001,2026-01-24_11h29.01.648,MST_task,2024.2.0,59.97785618144234,2026-01-24 11h29.09.405451 +0530,
,Scenes\141a.jpg,119,0,120,,,,,,,j,0.8353753000264987,0.12878179998369887,None,,,,,,120,0,119,576.7673502999824,,,,,,,,,,,,,,,,,,,,,,,576.7517708999803,576.7673502999824,577.2511904999847,,,,,,,,,,,,,,577.2809175000293,,,,,,,,,,577.2782998000039,577.2809175000293,577.2809175000293,577.2809175000293,580.2679011999862,j,0.8353753000264987,0.12878179998369887,580.2680961000151,580.2681616999907,None,,,,,,,,,,,,,,,,,00045,001,2026-01-24_11h29.01.648,MST_task,2024.2.0,59.97785618144234,2026-01-24 11h29.09.405451 +0530,
,Scenes\116a.jpg,120,0,121,,,,,,,j,0.892967400024645,0.14346270001260564,None,,,,,,121,0,120,580.2853977000341,,,,,,,,,,,,,,,,,,,,,,,580.2685234000091,580.2853977000341,580.7844204999856,,,,,,,,,,,,,,,,,,,,,,,,580.813275100023,580.8159681999823,580.8159681999823,580.8159681999823,583.7846123999916,j,0.892967400024645,0.14346270001260564,583.7848313000286,583.7849038999993,None,,,,,,,,,,,,,,,,,00045,001,2026-01-24_11h29.01.648,MST_task,2024.2.0,59.97785618144234,2026-01-24 11h29.09.405451 +0530,
,Scenes\150a.jpg,121,0,122,,,,,,,j,1.272354299959261,0.14419090002775192,None,,,,,,122,0,121,583.8007669000071,,,,,,,,,,,,,,,,,,,,,,,583.7852975000278,583.8007669000071,584.2844228000031,,,,,,,,,,,,,,584.3165908000083,,,,,,,,,,584.3136447999859,584.3165908000083,584.3165908000083,584.3165908000083,587.3011843999848,j,1.272354299959261,0.14419090002775192,587.3013794000144,587.3014459999977,None,,,,,,,,,,,,,,,,,00045,001,2026-01-24_11h29.01.648,MST_task,2024.2.0,59.97785618144234,2026-01-24 11h29.09.405451 +0530,
,Scenes\028a.jpg,122,0,123,,,,,,,j,1.6868395000346936,0.1117143000010401,None,,,,,,123,0,122,587.317927600001,,,,,,,,,,,,,,,,,,,,,,,587.3018111999845,587.317927600001,587.8012336000102,,,,,,,,,,,,,,587.8460714999819,,,,,,,,,,587.843245600001,587.8460714999819,587.8460714999819,587.8460714999819,590.8176435999922,j,1.6868395000346936,0.1117143000010401,590.8178378000157,590.8179025999852,None,,,,,,,,,,,,,,,,,00045,001,2026-01-24_11h29.01.648,MST_task,2024.2.0,59.97785618144234,2026-01-24 11h29.09.405451 +0530,
,Scenes\070a.jpg,123,0,124,,,,,,,f,1.6647989999619313,0.14442070003133267,None,,,,,,124,0,123,590.8341772999847,,,,,,,,,,,,,,,,,,,,,,,590.8182644000044,590.8341772999847,591.317578200018,,,,,,,,,,,,,,591.3476729000104,,,,,,,,,,591.3443743999815,591.3476729000104,591.3476729000104,591.3476729000104,594.3344187000184,f,1.6647989999619313,0.14442070003133267,594.3346121999784,594.3346765000024,None,,,,,,,,,,,,,,,,,00045,001,2026-01-24_11h29.01.648,MST_task,2024.2.0,59.97785618144234,2026-01-24 11h29.09.405451 +0530,
,Scenes\192a.jpg,124,0,125,,,,,,,j,1.3418020000099204,0.12846699997317046,None,,,,,,125,0,124,594.3505784000154,,,,,,,,,,,,,,,,,,,,,,,594.3350674000103,594.3505784000154,594.8344486000133,,,,,,,,,,,,,,594.8624548999942,,,,,,,,,,594.8592686000047,594.8624548999942,594.8624548999942,594.8624548999942,597.8511745000142,j,1.3418020000099204,0.12846699997317046,597.8513708999963,597.8514360000263,None,,,,,,,,,,,,,,,,,00045,001,2026-01-24_11h29.01.648,MST_task,2024.2.0,59.97785618144234,2026-01-24 11h29.09.405451 +0530,
,Scenes\101a.jpg,125,0,126,,,,,,,f,2.240517199970782,0.144297800026834,None,,,,,,126,0,125,597.8674924999941,,,,,,,,,,,,,,,,,,,,,,,597.8517274000333,597.8674924999941,598.3511801999994,,,,,,,,,,,,,,598.3797560000094,,,,,,,,,,598.3770114000072,598.3797560000094,598.3797560000094,598.3797560000094,601.3677126999828,f,2.240517199970782,0.144297800026834,601.3679116999847,601.3679769000155,None,,,,,,,,,,,,,,,,,00045,001,2026-01-24_11h29.01.648,MST_task,2024.2.0,59.97785618144234,2026-01-24 11h29.09.405451 +0530,
,Objects\149a.jpg,126,0,127,,,,,,,f,0.9606690999935381,0.14443610003218055,None,,,,,,127,0,126,601.3841738000046,,,,,,,,,,,,,,,,,,,,,,,601.3682735000039,601.3841738000046,601.8677471000119,,,,,,,,,,,,,,601.8915551999817,,,,,,,,,,601.8881855999934,601.8915551999817,601.8915551999817,601.8915551999817,604.8844626999926,f,0.9606690999935381,0.14443610003218055,604.884672300017,604.8847363999812,None,,,,,,,,,,,,,,,,,00045,001,2026-01-24_11h29.01.648,MST_task,2024.2.0,59.97785618144234,2026-01-24 11h29.09.405451 +0530,
,Objects\087a.jpg,127,0,128,,,,,,,j,2.833332200010773,0.10409849998541176,None,,,,,,128,0,127,604.9005138999783,,,,,,,,,,,,,,,,,,,,,,,604.8851200999925,604.9005138999783,605.3845707,,,,,,,,,,,,,,605.403092499997,,,,,,,,,,605.4010397000238,605.403092499997,605.403092499997,605.403092499997,608.4011600000085,j,2.833332200010773,0.10409849998541176,608.4013543000328,608.4014208000153,None,,,,,,,,,,,,,,,,,00045,001,2026-01-24_11h29.01.648,MST_task,2024.2.0,59.97785618144234,2026-01-24 11h29.09.405451 +0530,
,Objects\126a.jpg,128,0,129,,,,,,,f,1.736950499995146,0.11970889999065548,None,,,,,,129,0,128,608.4175074999803,,,,,,,,,,,,,,,,,,,,,,,608.4017892000265,608.4175074999803,608.9012505999999,,,,,,,,,,,,,,608.9239357000333,,,,,,,,,,608.9213994999882,608.9239357000333,608.9239357000333,608.9239357000333,611.9178680999903,f,1.736950499995146,0.11970889999065548,611.9180746999918,611.9181457000086,None,,,,,,,,,,,,,,,,,00045,001,2026-01-24_11h29.01.648,MST_task,2024.2.0,59.97785618144234,2026-01-24 11h29.09.405451 +0530,
,Objects\040a.jpg,129,0,130,,,,,,,f,0.7926993999863043,0.12037979997694492,None,,,,,,130,0,129,611.9341715000337,,,,,,,,,,,,,,,,,,,,,,,611.918461000023,611.9341715000337,612.4179162000073,,,,,,,,,,,,,,612.4439509999938,,,,,,,,,,612.4413565000286,612.4439509999938,612.4439509999938,612.4439509999938,615.4343134000083,f,0.7926993999863043,0.12037979997694492,615.4345123000094,615.4345758000272,None,,,,,,,,,,,,,,,,,00045,001,2026-01-24_11h29.01.648,MST_task,2024.2.0,59.97785618144234,2026-01-24 11h29.09.405451 +0530,
,Objects\088a.jpg,130,0,131,,,,,,,f,0.8030321999685839,0.14438409998547286,None,,,,,,131,0,130,615.451204699988,,,,,,,,,,,,,,,,,,,,,,,615.4348911999841,615.451204699988,615.9343339999905,,,,,,,,,,,,,,615.961620600021,,,,,,,,,,615.9589690000284,615.961620600021,615.961620600021,615.961620600021,618.935492300021,f,0.8030321999685839,0.14438409998547286,618.9357090999838,618.9357749000192,None,,,,,,,,,,,,,,,,,00045,001,2026-01-24_11h29.01.648,MST_task,2024.2.0,59.97785618144234,2026-01-24 11h29.09.405451 +0530,
,Objects\080a.jpg,131,0,132,,,,,,,f,1.465279299998656,0.12055120000150055,None,,,,,,132,0,131,618.9506895000231,,,,,,,,,,,,,,,,,,,,,,,618.9361282000318,618.9506895000231,619.4343879999942,,,,,,,,,,,,,,619.4592468999908,,,,,,,,,,619.4570043000276,619.4592468999908,619.4592468999908,619.4592468999908,622.4509607999935,f,1.465279299998656,0.12055120000150055,622.4511635000235,622.4512288999977,None,,,,,,,,,,,,,,,,,00045,001,2026-01-24_11h29.01.648,MST_task,2024.2.0,59.97785618144234,2026-01-24 11h29.09.405451 +0530,
,Objects\180a.jpg,132,0,133,,,,,,,f,1.981415599992033,0.1363116999855265,None,,,,,,133,0,132,622.46774990001,,,,,,,,,,,,,,,,,,,,,,,622.4515204000054,622.46774990001,622.9511699000141,,,,,,,,,,,,,,622.9747758000158,,,,,,,,,,622.9723034999915,622.9747758000158,622.9747758000158,622.9747758000158,625.9516574000008,f,1.981415599992033,0.1363116999855265,625.9518653000123,625.9519356000237,None,,,,,,,,,,,,,,,,,00045,001,2026-01-24_11h29.01.648,MST_task,2024.2.0,59.97785618144234,2026-01-24 11h29.09.405451 +0530,
,Scenes\043a.jpg,133,0,134,,,,,,,j,0.7424641000106931,0.08125059999292716,None,,,,,,134,0,133,625.9674965000013,,,,,,,,,,,,,,,,,,,,,,,625.9522405000171,625.9674965000013,626.4509207999799,,,,,,,,,,,,,,626.485560400004,,,,,,,,,,626.4828255000175,626.485560400004,626.485560400004,626.485560400004,629.4680017000064,j,0.7424641000106931,0.08125059999292716,629.4682009000098,629.4682659999817,None,,,,,,,,,,,,,,,,,00045,001,2026-01-24_11h29.01.648,MST_task,2024.2.0,59.97785618144234,2026-01-24 11h29.09.405451 +0530,
,Scenes\166a.jpg,134,0,135,,,,,,,j,0.81575069995597,0.11216220003552735,None,,,,,,135,0,134,629.4842737999861,,,,,,,,,,,,,,,,,,,,,,,629.4686318000313,629.4842737999861,629.9675620000344,,,,,,,,,,,,,,629.9970845999778,,,,,,,,,,629.9943535000202,629.9970845999778,629.9970845999778,629.9970845999778,632.9846579000005,j,0.81575069995597,0.11216220003552735,632.984861999983,632.9849290000275,None,,,,,,,,,,,,,,,,,00045,001,2026-01-24_11h29.01.648,MST_task,2024.2.0,59.97785618144234,2026-01-24 11h29.09.405451 +0530,
,Scenes\011a.jpg,135,0,136,,,,,,,j,1.3077788999653421,0.12015420000534505,None,,,,,,136,0,135,633.0006480999873,,,,,,,,,,,,,,,,,,,,,,,632.9852262000204,633.0006480999873,633.4844454000122,,,,,,,,,,,,,,633.5211001000134,,,,,,,,,,633.5180822000257,633.5211001000134,633.5211001000134,633.5211001000134,636.5014443999971,j,1.3077788999653421,0.12015420000534505,636.5016523000086,636.5017188999918,None,,,,,,,,,,,,,,,,,00045,001,2026-01-24_11h29.01.648,MST_task,2024.2.0,59.97785618144234,2026-01-24 11h29.09.405451 +0530,
,Scenes\012a.jpg,136,0,137,,,,,,,f,1.7927985999849625,0.19182750000618398,None,,,,,,137,0,136,636.5175098000327,,,,,,,,,,,,,,,,,,,,,,,636.5020891000167,636.5175098000327,637.0009726000135,,,,,,,,,,,,,,637.0357645000331,,,,,,,,,,637.0328468999942,637.0357645000331,637.0357645000331,637.0357645000331,640.0176481999806,f,1.7927985999849625,0.19182750000618398,640.017841199995,640.0179071000312,None,,,,,,,,,,,,,,,,,00045,001,2026-01-24_11h29.01.648,MST_task,2024.2.0,59.97785618144234,2026-01-24 11h29.09.405451 +0530,
,Scenes\146a.jpg,137,0,138,,,,,,,j,1.76823049999075,0.09636190003948286,None,,,,,,138,0,137,640.0342996999971,,,,,,,,,,,,,,,,,,,,,,,640.0182658000267,640.0342996999971,640.517807700031,,,,,,,,,,,,,,640.5481084000203,,,,,,,,,,640.5453813999775,640.5481084000203,640.5481084000203,640.5481084000203,643.5345089000184,j,1.76823049999075,0.09636190003948286,643.5347015000298,643.534768100013,None,,,,,,,,,,,,,,,,,00045,001,2026-01-24_11h29.01.648,MST_task,2024.2.0,59.97785618144234,2026-01-24 11h29.09.405451 +0530,
,Scenes\021a.jpg,138,0,139,,,,,,,j,1.6063119000173174,0.15264719998231158,None,,,,,,139,0,138,643.5507734999992,,,,,,,,,,,,,,,,,,,,,,,643.5351327999961,643.5507734999992,644.0345710000256,,,,,,,,,,,,,,644.0695413000067,,,,,,,,,,644.0666302000172,644.0695413000067,644.0695413000067,644.0695413000067,647.0513687999919,j,1.6063119000173174,0.15264719998231158,647.0515633000177,647.0516289999941,None,,,,,,,,,,,,,,,,,00045,001,2026-01-24_11h29.01.648,MST_task,2024.2.0,59.97785618144234,2026-01-24 11h29.09.405451 +0530,
,Scenes\034a.jpg,139,0,140,,,,,,,f,1.2618256999994628,0.12016779999248683,None,,,,,,140,0,139,647.0673223999911,,,,,,,,,,,,,,,,,,,,,,,647.0519248000346,647.0673223999911,647.5508132000105,,,,,,,,,,,,,,647.5830306999851,,,,,,,,,,647.5799600000028,647.5830306999851,647.5830306999851,647.5830306999851,650.5686803000281,f,1.2618256999994628,0.12016779999248683,650.5688304000068,650.5688663999899,None,,,,,,,,,,,,,,,,,00045,001,2026-01-24_11h29.01.648,MST_task,2024.2.0,59.97785618144234,2026-01-24 11h29.09.405451 +0530,
,Objects\150a.jpg,140,0,141,,,,,,,f,1.6937795999692753,0.12873830000171438,None,,,,,,141,0,140,650.5839431000059,,,,,,,,,,,,,,,,,,,,,,,650.5690768000204,650.5839431000059,651.067885800032,,,,,,,,,,,,,,651.0945675999974,,,,,,,,,,651.0913570999983,651.0945675999974,651.0945675999974,651.0945675999974,654.0843305999879,f,1.6937795999692753,0.12873830000171438,654.0845241000061,654.0845910999924,None,,,,,,,,,,,,,,,,,00045,001,2026-01-24_11h29.01.648,MST_task,2024.2.0,59.97785618144234,2026-01-24 11h29.09.405451 +0530,
,Objects\184a.jpg,141,0,142,,,,,,,j,2.4821175999823026,0.11216409999178723,None,,,,,,142,0,141,654.1007781000226,,,,,,,,,,,,,,,,,,,,,,,654.0848990000086,654.1007781000226,654.5845775000053,,,,,,,,,,,,,,654.6100800000131,,,,,,,,,,654.6073414999992,654.6100800000131,654.6100800000131,654.6100800000131,657.6017668999848,j,2.4821175999823026,0.11216409999178723,657.601971200027,657.6020370000042,None,,,,,,,,,,,,,,,,,00045,001,2026-01-24_11h29.01.648,MST_task,2024.2.0,59.97785618144234,2026-01-24 11h29.09.405451 +0530,
,Objects\186a.jpg,142,0,143,,,,,,,f,1.034794499981217,0.1436340999789536,None,,,,,,143,0,142,657.6172884000116,,,,,,,,,,,,,,,,,,,,,,,657.6024129000143,657.6172884000116,658.1011657000054,,,,,,,,,,,,,,658.1220212000189,,,,,,,,,,658.119660300028,658.1220212000189,658.1220212000189,658.1220212000189,661.1184565000003,f,1.034794499981217,0.1436340999789536,661.1186681999825,661.118735200027,None,,,,,,,,,,,,,,,,,00045,001,2026-01-24_11h29.01.648,MST_task,2024.2.0,59.97785618144234,2026-01-24 11h29.09.405451 +0530,
,Objects\153a.jpg,143,0,144,,,,,,,f,0.8575057999696583,0.14466719998745248,None,,,,,,144,0,143,661.1336618000059,,,,,,,,,,,,,,,,,,,,,,,661.118905899988,661.1336618000059,661.6180662999977,,,,,,,,,,,,,,661.6427541000303,,,,,,,,,,661.6401522000087,661.6427541000303,661.6427541000303,661.6427541000303,664.634726600023,f,0.8575057999696583,0.14466719998745248,664.6349291999941,664.634997199988,None,,,,,,,,,,,,,,,,,00045,001,2026-01-24_11h29.01.648,MST_task,2024.2.0,59.97785618144234,2026-01-24 11h29.09.405451 +0530,
,Objects\134a.jpg,144,0,145,,,,,,,f,1.7591799999936484,0.14478460000827909,None,,,,,,145,0,144,664.650429100031,,,,,,,,,,,,,,,,,,,,,,,664.6352851000265,664.650429100031,665.1343839000328,,,,,,,,,,,,,,665.1570510999882,,,,,,,,,,665.1542569000158,665.1570510999882,665.1570510999882,665.1570510999882,668.1509296000004,f,1.7591799999936484,0.14478460000827909,668.1511276999954,668.1511936000315,None,,,,,,,,,,,,,,,,,00045,001,2026-01-24_11h29.01.648,MST_task,2024.2.0,59.97785618144234,2026-01-24 11h29.09.405451 +0530,
,Objects\098a.jpg,145,0,146,,,,,,,j,2.45765900000697,0.11176209995755926,None,,,,,,146,0,145,668.167334400001,,,,,,,,,,,,,,,,,,,,,,,668.1516477999976,668.167334400001,668.6512211000081,,,,,,,,,,,,,,668.6751807000255,,,,,,,,,,668.6725597000332,668.6751807000255,668.6751807000255,668.6751807000255,671.6515052000177,j,2.45765900000697,0.11176209995755926,671.6517027000082,671.6517581000226,None,,,,,,,,,,,,,,,,,00045,001,2026-01-24_11h29.01.648,MST_task,2024.2.0,59.97785618144234,2026-01-24 11h29.09.405451 +0530,
,Objects\160a.jpg,146,0,147,,,,,,,f,2.5035633000079542,0.1041753999888897,None,,,,,,147,0,146,671.6674146000296,,,,,,,,,,,,,,,,,,,,,,,671.6520641000243,671.6674146000296,672.1511137000052,,,,,,,,,,,,,,672.1732793999836,,,,,,,,,,672.1705286999932,672.1732793999836,672.1732793999836,672.1732793999836,675.1678985999897,f,2.5035633000079542,0.1041753999888897,675.1680876000319,675.1681540000136,None,,,,,,,,,,,,,,,,,00045,001,2026-01-24_11h29.01.648,MST_task,2024.2.0,59.97785618144234,2026-01-24 11h29.09.405451 +0530,
,Scenes\044a.jpg,147,0,148,,,,,,,j,2.0244841999956407,0.10403319995384663,None,,,,,,148,0,147,675.1843085000291,,,,,,,,,,,,,,,,,,,,,,,675.1684391000308,675.1843085000291,675.667821799987,,,,,,,,,,,,,,675.6996731000254,,,,,,,,,,675.6969986000331,675.6996731000254,675.6996731000254,675.6996731000254,678.6845815000124,j,2.0244841999956407,0.10403319995384663,678.6847789000021,678.6848446999793,None,,,,,,,,,,,,,,,,,00045,001,2026-01-24_11h29.01.648,MST_task,2024.2.0,59.97785618144234,2026-01-24 11h29.09.405451 +0530,
,Scenes\068a.jpg,148,0,149,,,,,,,j,0.7776952999993227,0.11245620000408962,None,,,,,,149,0,148,678.7007765999879,,,,,,,,,,,,,,,,,,,,,,,678.6851337000262,678.7007765999879,679.1844658000045,,,,,,,,,,,,,,679.2188215000206,,,,,,,,,,679.2158500999794,679.2188215000206,679.2188215000206,679.2188215000206,682.2011905999971,j,0.7776952999993227,0.11245620000408962,682.2013852000237,682.2014513000031,None,,,,,,,,,,,,,,,,,00045,001,2026-01-24_11h29.01.648,MST_task,2024.2.0,59.97785618144234,2026-01-24 11h29.09.405451 +0530,
,Scenes\171a.jpg,149,0,150,,,,,,,f,1.143424200010486,0.12007339997217059,None,,,,,,150,0,149,682.2175386000308,,,,,,,,,,,,,,,,,,,,,,,682.2018198000151,682.2175386000308,682.7011487000273,,,,,,,,,,,,,,682.7408002000302,,,,,,,,,,682.7377670999849,682.7408002000302,682.7408002000302,682.7408002000302,685.7179204000277,f,1.143424200010486,0.12007339997217059,685.7181100000162,685.7181775000063,None,,,,,,,,,,,,,,,,,00045,001,2026-01-24_11h29.01.648,MST_task,2024.2.0,59.97785618144234,2026-01-24 11h29.09.405451 +0530,
,Scenes\009a.jpg,150,0,151,,,,,,,j,2.0135673999902792,0.08773960004327819,None,,,,,,151,0,150,685.7340128999786,,,,,,,,,,,,,,,,,,,,,,,685.7185420999886,685.7340128999786,686.2170886999811,,,,,,,,,,,,,,686.2472882000147,,,,,,,,,,686.2440408000257,686.2472882000147,686.2472882000147,686.2472882000147,689.2345173999784,j,2.0135673999902792,0.08773960004327819,689.2347123000072,689.2347789999912,None,,,,,,,,,,,,,,,,,00045,001,2026-01-24_11h29.01.648,MST_task,2024.2.0,59.97785618144234,2026-01-24 11h29.09.405451 +0530,
,Scenes\181a.jpg,151,0,152,,,,,,,f,0.9134783999761567,0.1127577000297606,None,,,,,,152,0,151,689.2504632000346,,,,,,,,,,,,,,,,,,,,,,,689.2350654000184,689.2504632000346,689.7347219000221,,,,,,,,,,,,,,689.7707935000071,,,,,,,,,,689.7678232000326,689.7707935000071,689.7707935000071,689.7707935000071,692.7511707000085,f,0.9134783999761567,0.1127577000297606,692.7513692000066,692.7514338000328,None,,,,,,,,,,,,,,,,,00045,001,2026-01-24_11h29.01.648,MST_task,2024.2.0,59.97785618144234,2026-01-24 11h29.09.405451 +0530,
,Scenes\189a.jpg,152,0,153,,,,,,,j,0.716028599999845,0.1201903999899514,None,,,,,,153,0,152,692.7672121999785,,,,,,,,,,,,,,,,,,,,,,,692.7517216000124,692.7672121999785,693.2512457999983,,,,,,,,,,,,,,693.2880986999953,,,,,,,,,,693.285092199978,693.2880986999953,693.2880986999953,693.2880986999953,696.2678886000067,j,0.716028599999845,0.1201903999899514,696.2680877000093,696.268153699988,None,,,,,,,,,,,,,,,,,00045,001,2026-01-24_11h29.01.648,MST_task,2024.2.0,59.97785618144234,2026-01-24 11h29.09.405451 +0530,
,Scenes\027a.jpg,153,0,154,,,,,,,f,0.894002899993211,0.12759340001503006,None,,,,,,154,0,153,696.283874100016,,,,,,,,,,,,,,,,,,,,,,,696.2684379999992,696.283874100016,696.7688635999803,,,,,,,,,,,,,,,,,,,,,,,,696.7960327999899,696.7988177000079,696.7988177000079,696.7988177000079,699.784574499994,f,0.894002899993211,0.12759340001503006,699.7847715999815,699.7848380000214,None,,,,,,,,,,,,,,,,,00045,001,2026-01-24_11h29.01.648,MST_task,2024.2.0,59.97785618144234,2026-01-24 11h29.09.405451 +0530,
,Objects\101a.jpg,154,0,155,,,,,,,f,1.9261900000274181,0.11990959994727746,None,,,,,,155,0,154,699.8007818000042,,,,,,,,,,,,,,,,,,,,,,,699.7851218000287,699.8007818000042,700.284282699984,,,,,,,,,,,,,,700.3108602000284,,,,,,,,,,700.3067443000036,700.3108602000284,700.3108602000284,700.3108602000284,703.301171900006,f,1.9261900000274181,0.11990959994727746,703.3013780000038,703.301444199984,None,,,,,,,,,,,,,,,,,00045,001,2026-01-24_11h29.01.648,MST_task,2024.2.0,59.97785618144234,2026-01-24 11h29.09.405451 +0530,
,Objects\173a.jpg,155,0,156,,,,,,,f,1.0996351999929175,0.09584030002588406,None,,,,,,156,0,155,703.3175143999979,,,,,,,,,,,,,,,,,,,,,,,703.3017380000092,703.3175143999979,703.8010691999807,,,,,,,,,,,,,,703.8251622000244,,,,,,,,,,703.8222070999909,703.8251622000244,703.8251622000244,703.8251622000244,706.8176639000303,f,1.0996351999929175,0.09584030002588406,706.8178734999965,706.8179385000258,None,,,,,,,,,,,,,,,,,00045,001,2026-01-24_11h29.01.648,MST_task,2024.2.0,59.97785618144234,2026-01-24 11h29.09.405451 +0530,
,Objects\091a.jpg,156,0,157,,,,,,,j,1.1961589999846183,0.12005100003443658,None,,,,,,157,0,156,706.8341784999939,,,,,,,,,,,,,,,,,,,,,,,706.818388500018,706.8341784999939,707.3180460000294,,,,,,,,,,,,,,707.3443573000259,,,,,,,,,,707.3414304000326,707.3443573000259,707.3443573000259,707.3443573000259,710.3345525999903,j,1.1961589999846183,0.12005100003443658,710.3347513999906,710.3348169000237,None,,,,,,,,,,,,,,,,,00045,001,2026-01-24_11h29.01.648,MST_task,2024.2.0,59.97785618144234,2026-01-24 11h29.09.405451 +0530,
,Objects\167a.jpg,157,0,158,,,,,,,f,2.1660553000401706,0.12026110000442713,None,,,,,,158,0,157,710.3506926000118,,,,,,,,,,,,,,,,,,,,,,,710.3352084999788,710.3506926000118,710.835072899994,,,,,,,,,,,,,,,,,,,,,,,,710.8592841000063,710.862106000015,710.862106000015,710.862106000015,713.8516625000047,f,2.1660553000401706,0.12026110000442713,713.8518636000226,713.8519287999952,None,,,,,,,,,,,,,,,,,00045,001,2026-01-24_11h29.01.648,MST_task,2024.2.0,59.97785618144234,2026-01-24 11h29.09.405451 +0530,
,Objects\136a.jpg,158,0,159,,,,,,,f,0.8955992000410333,0.13604059995850548,None,,,,,,159,0,158,713.8675192000228,,,,,,,,,,,,,,,,,,,,,,,713.8522155000246,713.8675192000228,714.3508809999912,,,,,,,,,,,,,,714.3726580999792,,,,,,,,,,714.3704251000308,714.3726580999792,714.3726580999792,714.3726580999792,717.3679022000288,f,0.8955992000410333,0.13604059995850548,717.3680997000192,717.3681663000025,None,,,,,,,,,,,,,,,,,00045,001,2026-01-24_11h29.01.648,MST_task,2024.2.0,59.97785618144234,2026-01-24 11h29.09.405451 +0530,
,Objects\189a.jpg,159,0,160,,,,,,,f,0.7415728000341915,0.11248869996052235,None,,,,,,160,0,159,717.3841801999952,,,,,,,,,,,,,,,,,,,,,,,717.3685279000201,717.3841801999952,717.8678841000074,,,,,,,,,,,,,,717.8949173000292,,,,,,,,,,717.8923092000186,717.8949173000292,717.8949173000292,717.8949173000292,720.8845703999978,f,0.7415728000341915,0.11248869996052235,720.8847652000259,720.8848323000129,None,,,,,,,,,,,,,,,,,00045,001,2026-01-24_11h29.01.648,MST_task,2024.2.0,59.97785618144234,2026-01-24 11h29.09.405451 +0530,
,Objects\052a.jpg,160,0,161,,,,,,,f,1.0136612000060268,0.12048510002205148,None,,,,,,161,0,160,720.9007881000289,,,,,,,,,,,,,,,,,,,,,,,720.8851932000252,720.9007881000289,721.3844849999878,,,,,,,,,,,,,,721.4068341000238,,,,,,,,,,721.4043553000083,721.4068341000238,721.4068341000238,721.4068341000238,724.4011701000272,f,1.0136612000060268,0.12048510002205148,724.4013740000082,724.4014396999846,None,,,,,,,,,,,,,,,,,00045,001,2026-01-24_11h29.01.648,MST_task,2024.2.0,59.97785618144234,2026-01-24 11h29.09.405451 +0530,
,Scenes\001a.jpg,161,0,162,,,,,,,f,1.0149751999997534,0.12016900000162423,None,,,,,,162,0,161,724.4175223999773,,,,,,,,,,,,,,,,,,,,,,,724.4017345000175,724.4175223999773,724.9010709000286,,,,,,,,,,,,,,724.9418028999935,,,,,,,,,,724.9389778000186,724.9418028999935,724.9418028999935,724.9418028999935,727.917780000018,f,1.0149751999997534,0.12016900000162423,727.9179750999901,727.9180425999803,None,,,,,,,,,,,,,,,,,00045,001,2026-01-24_11h29.01.648,MST_task,2024.2.0,59.97785618144234,2026-01-24 11h29.09.405451 +0530,
,Scenes\029a.jpg,162,0,163,,,,,,,j,1.2087406999780796,0.120191199996043,None,,,,,,163,0,162,727.9340099000256,,,,,,,,,,,,,,,,,,,,,,,727.918411599996,727.9340099000256,728.4175933999941,,,,,,,,,,,,,,728.45200629998,,,,,,,,,,728.4490228000213,728.45200629998,728.45200629998,728.45200629998,731.4349468,j,1.2087406999780796,0.120191199996043,731.4351406000205,731.4352057999931,None,,,,,,,,,,,,,,,,,00045,001,2026-01-24_11h29.01.648,MST_task,2024.2.0,59.97785618144234,2026-01-24 11h29.09.405451 +0530,
,Scenes\069a.jpg,163,0,164,,,,,,,j,0.9669402000145055,0.11218360002385452,None,,,,,,164,0,163,731.4507977000321,,,,,,,,,,,,,,,,,,,,,,,731.4355635999818,731.4507977000321,731.9342923000222,,,,,,,,,,,,,,731.9657947000233,,,,,,,,,,731.9629931999953,731.9657947000233,731.9657947000233,731.9657947000233,734.9510562000214,j,0.9669402000145055,0.11218360002385452,734.9512925000163,734.9513673000038,None,,,,,,,,,,,,,,,,,00045,001,2026-01-24_11h29.01.648,MST_task,2024.2.0,59.97785618144234,2026-01-24 11h29.09.405451 +0530,
,Scenes\120a.jpg,164,0,165,,,,,,,j,0.9591961000114679,0.12029679998522624,None,,,,,,165,0,164,734.967206900008,,,,,,,,,,,,,,,,,,,,,,,734.9517622999847,734.967206900008,735.4513196999906,,,,,,,,,,,,,,735.4849485000013,,,,,,,,,,735.481713599991,735.4849485000013,735.4849485000013,735.4849485000013,738.4676244999864,j,0.9591961000114679,0.12029679998522624,738.4678265000111,738.4678927999921,None,,,,,,,,,,,,,,,,,00045,001,2026-01-24_11h29.01.648,MST_task,2024.2.0,59.97785618144234,2026-01-24 11h29.09.405451 +0530,
,Scenes\179a.jpg,165,0,166,,,,,,,j,0.7874934999854304,0.14492509997216985,None,,,,,,166,0,165,738.4841902999906,,,,,,,,,,,,,,,,,,,,,,,738.4682572000311,738.4841902999906,738.9677304999786,,,,,,,,,,,,,,739.0006314999773,,,,,,,,,,738.9977206999902,739.0006314999773,739.0006314999773,739.0006314999773,741.9844078000169,j,0.7874934999854304,0.14492509997216985,741.9845998000237,741.9846650999971,None,,,,,,,,,,,,,,,,,00045,001,2026-01-24_11h29.01.648,MST_task,2024.2.0,59.97785618144234,2026-01-24 11h29.09.405451 +0530,
,Scenes\106a.jpg,166,0,167,,,,,,,j,0.7415639000246301,0.12017309997463599,None,,,,,,167,0,166,742.0006228000275,,,,,,,,,,,,,,,,,,,,,,,741.9849502000143,742.0006228000275,742.4845849000267,,,,,,,,,,,,,,742.5192031000042,,,,,,,,,,742.5162157000159,742.5192031000042,742.5192031000042,742.5192031000042,745.5011818999774,j,0.7415639000246301,0.12017309997463599,745.5013770000078,745.5014426999842,None,,,,,,,,,,,,,,,,,00045,001,2026-01-24_11h29.01.648,MST_task,2024.2.0,59.97785618144234,2026-01-24 11h29.09.405451 +0530,
,Scenes\140a.jpg,167,0,168,,,,,,,j,0.9840625999495387,0.09661860001506284,None,,,,,,168,0,167,745.517525000032,,,,,,,,,,,,,,,,,,,,,,,745.5018039999995,745.517525000032,746.0013665999868,,,,,,,,,,,,,,746.0282410000218,,,,,,,,,,746.0254701999947,746.0282410000218,746.0282410000218,746.0282410000218,749.017922100029,j,0.9840625999495387,0.09661860001506284,749.0181140999775,749.0181806000182,None,,,,,,,,,,,,,,,,,00045,001,2026-01-24_11h29.01.648,MST_task,2024.2.0,59.97785618144234,2026-01-24 11h29.09.405451 +0530,
,Objects\156a.jpg,168,0,169,,,,,,,j,1.1497304000076838,0.09622999996645376,None,,,,,,169,0,168,749.0340914999833,,,,,,,,,,,,,,,,,,,,,,,749.0185442999937,749.0340914999833,749.5177225000225,,,,,,,,,,,,,,749.542423899984,,,,,,,,,,749.5398396999808,749.542423899984,749.542423899984,749.542423899984,752.5185363999917,j,1.1497304000076838,0.09622999996645376,752.5187269999878,752.5187785000307,None,,,,,,,,,,,,,,,,,00045,001,2026-01-24_11h29.01.648,MST_task,2024.2.0,59.97785618144234,2026-01-24 11h29.09.405451 +0530,
,Objects\144a.jpg,169,0,170,,,,,,,f,2.184845000039786,0.12885559996357188,None,,,,,,170,0,169,752.5341658000252,,,,,,,,,,,,,,,,,,,,,,,752.5190110999974,752.5341658000252,753.0177684000228,,,,,,,,,,,,,,753.0432264999836,,,,,,,,,,753.0410330999875,753.0432264999836,753.0432264999836,753.0432264999836,756.0345947000314,f,2.184845000039786,0.12885559996357188,756.0348227000213,756.0348954999936,None,,,,,,,,,,,,,,,,,00045,001,2026-01-24_11h29.01.648,MST_task,2024.2.0,59.97785618144234,2026-01-24 11h29.09.405451 +0530,
,Objects\148a.jpg,170,0,171,,,,,,,j,1.5692531000240706,0.12051330000394955,None,,,,,,171,0,170,756.0507860999787,,,,,,,,,,,,,,,,,,,,,,,756.0352876000106,756.0507860999787,756.5342944000149,,,,,,,,,,,,,,756.5551556000137,,,,,,,,,,756.5526268000249,756.5551556000137,756.5551556000137,756.5551556000137,759.5512086999952,j,1.5692531000240706,0.12051330000394955,759.5514041000279,759.5514704000088,None,,,,,,,,,,,,,,,,,00045,001,2026-01-24_11h29.01.648,MST_task,2024.2.0,59.97785618144234,2026-01-24 11h29.09.405451 +0530,
,Objects\053a.jpg,171,0,172,,,,,,,f,1.6452787999878637,0.11186770000495017,None,,,,,,172,0,171,759.5675400000182,,,,,,,,,,,,,,,,,,,,,,,759.5517548000207,759.5675400000182,760.0518210000009,,,,,,,,,,,,,,,,,,,,,,,,760.0770657000248,760.0792534999782,760.0792534999782,760.0792534999782,763.0678949999856,f,1.6452787999878637,0.11186770000495017,763.0680875999969,763.0681537000346,None,,,,,,,,,,,,,,,,,00045,001,2026-01-24_11h29.01.648,MST_task,2024.2.0,59.97785618144234,2026-01-24 11h29.09.405451 +0530,
,Objects\077a.jpg,172,0,173,,,,,,,j,0.9998063000384718,0.1194458999671042,None,,,,,,173,0,172,763.0842290000292,,,,,,,,,,,,,,,,,,,,,,,763.0685762999929,763.0842290000292,763.5679036999936,,,,,,,,,,,,,,763.5889349000063,,,,,,,,,,763.5863522000145,763.5889349000063,763.5889349000063,763.5889349000063,766.5846652000328,j,0.9998063000384718,0.1194458999671042,766.5848579999874,766.584937800013,None,,,,,,,,,,,,,,,,,00045,001,2026-01-24_11h29.01.648,MST_task,2024.2.0,59.97785618144234,2026-01-24 11h29.09.405451 +0530,
,Objects\061a.jpg,173,0,174,,,,,,,j,1.508163999998942,0.1124405000009574,None,,,,,,174,0,173,766.6005746999872,,,,,,,,,,,,,,,,,,,,,,,766.5853143000277,766.6005746999872,767.0845901999855,,,,,,,,,,,,,,767.1123556999955,,,,,,,,,,767.1093281999929,767.1123556999955,767.1123556999955,767.1123556999955,770.1011111999978,j,1.508163999998942,0.1124405000009574,770.1013091999921,770.101375200029,None,,,,,,,,,,,,,,,,,00045,001,2026-01-24_11h29.01.648,MST_task,2024.2.0,59.97785618144234,2026-01-24 11h29.09.405451 +0530,
,Objects\143a.jpg,174,0,175,,,,,,,j,1.9434999999939464,0.12153840000974014,None,,,,,,175,0,174,770.1173802000121,,,,,,,,,,,,,,,,,,,,,,,770.1017396000098,770.1173802000121,770.6007403000258,,,,,,,,,,,,,,770.6205291000078,,,,,,,,,,770.618386999995,770.6205291000078,770.6205291000078,770.6205291000078,773.6181778000318,j,1.9434999999939464,0.12153840000974014,773.6183837000281,773.6184528000304,None,,,,,,,,,,,,,,,,,00045,001,2026-01-24_11h29.01.648,MST_task,2024.2.0,59.97785618144234,2026-01-24 11h29.09.405451 +0530,
,Scenes\107a.jpg,175,0,176,,,,,,,j,0.7531196999480017,0.07960430003004149,None,,,,,,176,0,175,773.6343174999929,,,,,,,,,,,,,,,,,,,,,,,773.6187607999891,773.6343174999929,774.1176474000094,,,,,,,,,,,,,,774.1555895999772,,,,,,,,,,774.1526809000061,774.1555895999772,774.1555895999772,774.1555895999772,777.1346133000334,j,0.7531196999480017,0.07960430003004149,777.1348215999897,777.1348912999965,None,,,,,,,,,,,,,,,,,00045,001,2026-01-24_11h29.01.648,MST_task,2024.2.0,59.97785618144234,2026-01-24 11h29.09.405451 +0530,
