thisN,thisTrialN,thisRepN,key_resp_3.keys,key_resp_3.rt,key_resp_3.duration,trials.thisRepN,trials.thisTrialN,trials.thisN,thisRow.t,notes,intro_page.started,text.started,key_resp.started,intro_page.stopped,key_resp.keys,key_resp.rt,key_resp.duration,instructions.started,text_2.started,key_resp_2.started,instructions.stopped,key_resp_2.keys,key_resp_2.rt,key_resp_2.duration,demo1.started,image_1.started,image_2.started,text_7.started,key_resp_6.started,text_9.started,demo1.stopped,key_resp_6.keys,key_resp_6.rt,key_resp_6.duration,demo2.started,image_5.started,image_6.started,text_11.started,text_12.started,key_resp_8.started,demo2.stopped,key_resp_8.keys,key_resp_8.rt,key_resp_8.duration,demo_conclusion.started,text_13.started,key_resp_9.started,demo_conclusion.stopped,key_resp_9.keys,key_resp_9.rt,key_resp_9.duration,start_test.started,text_6.started,key_resp_5.started,start_test.stopped,key_resp_5.keys,key_resp_5.rt,key_resp_5.duration,ISI.started,text_4.started,text_4.stopped,ISI.stopped,routine_1.started,image.started,text_3.started,key_resp_3.started,routine_1.stopped,image_path,position_of_stimuli,trials.key_resp_3.keys,trials.key_resp_3.rt,trials.key_resp_3.duration,End_page.started,text_5.started,key_resp_4.started,End_page.stopped,key_resp_4.keys,key_resp_4.rt,key_resp_4.duration,participant,session,date,expName,psychopyVersion,frameRate,expStart,
,,,,,,,,,,,0.001088600023649633,0.002753000007942319,0.002753000007942319,2.962733799999114,space,2.9460146999917924,None,,,,,,,,,,,,,,,,,,,,,,,,,,,,,,,,,,,,,,,,,,,,,,,,,,,,,,,,,,,,,,,00042,001,2026-01-23_22h06.21.633,MST_test,2024.2.0,59.88034710645725,2026-01-23 22h06.28.805125 +0530,
,,,,,,,,,,,,,,,,,,2.9628325000521727,2.975518000021111,2.975518000021111,16.257197300030384,space,13.276832500007004,None,,,,,,,,,,,,,,,,,,,,,,,,,,,,,,,,,,,,,,,,,,,,,,,,,,,,,,,,00042,001,2026-01-23_22h06.21.633,MST_test,2024.2.0,59.88034710645725,2026-01-23 22h06.28.805125 +0530,
,,,,,,,,,,,,,,,,,,,,,,,,,16.25729760003742,16.29935100005241,16.29935100005241,16.29935100005241,16.29935100005241,16.29935100005241,24.25708960002521,space,7.94474760000594,None,,,,,,,,,,,,,,,,,,,,,,,,,,,,,,,,,,,,,,,,,,,,,,00042,001,2026-01-23_22h06.21.633,MST_test,2024.2.0,59.88034710645725,2026-01-23 22h06.28.805125 +0530,
,,,,,,,,,,,,,,,,,,,,,,,,,,,,,,,,,,,24.257200000050943,24.27337200002512,24.27337200002512,24.27337200002512,24.27337200002512,24.27337200002512,26.824004200054333,space,2.5393154000048526,None,,,,,,,,,,,,,,,,,,,,,,,,,,,,,,,,,,,,00042,001,2026-01-23_22h06.21.633,MST_test,2024.2.0,59.88034710645725,2026-01-23 22h06.28.805125 +0530,
,,,,,,,,,,,,,,,,,,,,,,,,,,,,,,,,,,,,,,,,,,,,,26.824100400030147,26.839996599999722,26.839996599999722,49.673957900027744,space,22.82022190000862,None,,,,,,,,,,,,,,,,,,,,,,,,,,,,,00042,001,2026-01-23_22h06.21.633,MST_test,2024.2.0,59.88034710645725,2026-01-23 22h06.28.805125 +0530,
,,,,,,,,,,,,,,,,,,,,,,,,,,,,,,,,,,,,,,,,,,,,,,,,,,,,49.674059400043916,49.68999160005478,49.68999160005478,101.94095380004728,space,52.25006170000415,None,,,,,,,,,,,,,,,,,,,,,,00042,001,2026-01-23_22h06.21.633,MST_test,2024.2.0,59.88034710645725,2026-01-23 22h06.28.805125 +0530,
0,0,1,n,2.6444463999941945,None,1,0,0,101.95635300001595,,,,,,,,,,,,,,,,,,,,,,,,,,,,,,,,,,,,,,,,,,,,,,,,,,101.94784200005233,101.95635300001595,102.45621670002583,102.44035240000812,102.45323590002954,102.45621670002583,102.45621670002583,102.45621670002583,105.10727200005203,Foils\082a.jpg,none,n,2.6444463999941945,None,,,,,,,,00042,001,2026-01-23_22h06.21.633,MST_test,2024.2.0,59.88034710645725,2026-01-23 22h06.28.805125 +0530,
1,0,2,s,3.514571400010027,None,2,0,1,105.12353700003587,,,,,,,,,,,,,,,,,,,,,,,,,,,,,,,,,,,,,,,,,,,,,,,,,,105.10763140005292,105.12353700003587,,105.6080356000457,105.62337370001478,105.62571870000102,105.62571870000102,105.62571870000102,109.14078080002218,Scenes\092a.jpg,pre,s,3.514571400010027,None,,,,,,,,00042,001,2026-01-23_22h06.21.633,MST_test,2024.2.0,59.88034710645725,2026-01-23 22h06.28.805125 +0530,
2,0,3,s,2.2201240999856964,None,3,0,2,109.156650000019,,,,,,,,,,,,,,,,,,,,,,,,,,,,,,,,,,,,,,,,,,,,,,,,,,109.14113190001808,109.156650000019,109.68051610002294,109.63987660000566,109.6783217000193,109.68051610002294,109.68051610002294,109.68051610002294,111.90702480002074,Objects\073b.jpg,mid,s,2.2201240999856964,None,,,,,,,,00042,001,2026-01-23_22h06.21.633,MST_test,2024.2.0,59.88034710645725,2026-01-23 22h06.28.805125 +0530,
3,0,4,s,4.6156640000408515,None,4,0,3,111.92317980004009,,,,,,,,,,,,,,,,,,,,,,,,,,,,,,,,,,,,,,,,,,,,,,,,,,111.90737530001206,111.92317980004009,112.45257930003572,112.40668630000437,112.45005870005116,112.45257930003572,112.45257930003572,112.45257930003572,117.07353320001857,Scenes\083b.jpg,post,s,4.6156640000408515,None,,,,,,,,00042,001,2026-01-23_22h06.21.633,MST_test,2024.2.0,59.88034710645725,2026-01-23 22h06.28.805125 +0530,
4,0,5,o,1.6731895999982953,None,5,0,4,117.08973150001839,,,,,,,,,,,,,,,,,,,,,,,,,,,,,,,,,,,,,,,,,,,,,,,,,,117.0739259000402,117.08973150001839,117.61891230003675,117.57358550000936,117.61597360001178,117.61891230003675,117.61891230003675,117.61891230003675,119.30729570001131,Objects\044b.jpg,pre,o,1.6731895999982953,None,,,,,,,,00042,001,2026-01-23_22h06.21.633,MST_test,2024.2.0,59.88034710645725,2026-01-23 22h06.28.805125 +0530,
5,0,6,s,2.7499874000204727,None,6,0,5,119.32301520003239,,,,,,,,,,,,,,,,,,,,,,,,,,,,,,,,,,,,,,,,,,,,,,,,,,119.30767930002185,119.32301520003239,119.8546556000365,119.80703250004444,119.85201750003034,119.8546556000365,119.8546556000365,119.8546556000365,122.60704100003932,Scenes\078b.jpg,post,s,2.7499874000204727,None,,,,,,,,00042,001,2026-01-23_22h06.21.633,MST_test,2024.2.0,59.88034710645725,2026-01-23 22h06.28.805125 +0530,
6,0,7,s,7.960866699984763,None,7,0,6,122.62323930003913,,,,,,,,,,,,,,,,,,,,,,,,,,,,,,,,,,,,,,,,,,,,,,,,,,122.60739950003335,122.62323930003913,123.12343170004897,123.10679190000519,123.11544300004607,123.12343170004897,123.12343170004897,123.12343170004897,131.09052720002364,Objects\149a.jpg,post,s,7.960866699984763,None,,,,,,,,00042,001,2026-01-23_22h06.21.633,MST_test,2024.2.0,59.88034710645725,2026-01-23 22h06.28.805125 +0530,
7,0,8,o,1.8776295999996364,None,8,0,7,131.10662690002937,,,,,,,,,,,,,,,,,,,,,,,,,,,,,,,,,,,,,,,,,,,,,,,,,,131.09093180001946,131.10662690002937,131.60676590004005,131.5907268000301,131.59861980000278,131.60676590004005,131.60676590004005,131.60676590004005,133.49038410000503,Objects\076a.jpg,mid,o,1.8776295999996364,None,,,,,,,,00042,001,2026-01-23_22h06.21.633,MST_test,2024.2.0,59.88034710645725,2026-01-23 22h06.28.805125 +0530,
8,0,9,o,1.8454327000072226,None,9,0,8,133.5063124000444,,,,,,,,,,,,,,,,,,,,,,,,,,,,,,,,,,,,,,,,,,,,,,,,,,133.4907433000044,133.5063124000444,134.0071727000177,133.99035820004065,134.0021340000094,134.0071727000177,134.0071727000177,134.0071727000177,135.85729760001414,Scenes\039a.jpg,mid,o,1.8454327000072226,None,,,,,,,,00042,001,2026-01-23_22h06.21.633,MST_test,2024.2.0,59.88034710645725,2026-01-23 22h06.28.805125 +0530,
9,0,10,o,2.9588910999591462,None,10,0,9,135.87366430001566,,,,,,,,,,,,,,,,,,,,,,,,,,,,,,,,,,,,,,,,,,,,,,,,,,135.85768210003152,135.87366430001566,136.37374000001,136.35702360002324,136.36593620001804,136.37374000001,136.37374000001,136.37374000001,139.34074870002223,Objects\100a.jpg,mid,o,2.9588910999591462,None,,,,,,,,00042,001,2026-01-23_22h06.21.633,MST_test,2024.2.0,59.88034710645725,2026-01-23 22h06.28.805125 +0530,
10,0,11,o,4.70708999998169,None,11,0,10,139.35666140000103,,,,,,,,,,,,,,,,,,,,,,,,,,,,,,,,,,,,,,,,,,,,,,,,,,139.34110680001322,139.35666140000103,139.8568832000019,139.84075840003788,139.84916470001917,139.8568832000019,139.8568832000019,139.8568832000019,144.57353920000605,Objects\001b.jpg,post,o,4.70708999998169,None,,,,,,,,00042,001,2026-01-23_22h06.21.633,MST_test,2024.2.0,59.88034710645725,2026-01-23 22h06.28.805125 +0530,
11,0,12,s,1.6106153999571688,None,12,0,11,144.58998600003542,,,,,,,,,,,,,,,,,,,,,,,,,,,,,,,,,,,,,,,,,,,,,,,,,,144.57397150003817,144.58998600003542,145.0899369000108,145.07334930001525,145.0817834000336,145.0899369000108,145.0899369000108,145.0899369000108,146.70712100004312,Objects\142a.jpg,pre,s,1.6106153999571688,None,,,,,,,,00042,001,2026-01-23_22h06.21.633,MST_test,2024.2.0,59.88034710645725,2026-01-23 22h06.28.805125 +0530,
12,0,13,s,3.7087186999851838,None,13,0,12,146.7235654000542,,,,,,,,,,,,,,,,,,,,,,,,,,,,,,,,,,,,,,,,,,,,,,,,,,146.70746830001008,146.7235654000542,147.26398899999913,147.20694390003337,147.260699400038,147.26398899999913,147.26398899999913,147.26398899999913,150.97414900001604,Scenes\088b.jpg,pre,s,3.7087186999851838,None,,,,,,,,00042,001,2026-01-23_22h06.21.633,MST_test,2024.2.0,59.88034710645725,2026-01-23 22h06.28.805125 +0530,
13,0,14,s,3.4595552000100724,None,14,0,13,150.9897200000123,,,,,,,,,,,,,,,,,,,,,,,,,,,,,,,,,,,,,,,,,,,,,,,,,,150.97450300003402,150.9897200000123,151.49693600001046,151.47382630000357,151.4938307000557,151.49693600001046,151.49693600001046,151.49693600001046,154.95820030005416,Scenes\045a.jpg,pre,s,3.4595552000100724,None,,,,,,,,00042,001,2026-01-23_22h06.21.633,MST_test,2024.2.0,59.88034710645725,2026-01-23 22h06.28.805125 +0530,
14,0,15,s,5.474065400019754,None,15,0,14,154.97330890002195,,,,,,,,,,,,,,,,,,,,,,,,,,,,,,,,,,,,,,,,,,,,,,,,,,154.9585523000569,154.97330890002195,155.47394540003734,155.4570367000415,155.46865640004398,155.47394540003734,155.47394540003734,155.47394540003734,160.9572892000433,Objects\056a.jpg,post,s,5.474065400019754,None,,,,,,,,00042,001,2026-01-23_22h06.21.633,MST_test,2024.2.0,59.88034710645725,2026-01-23 22h06.28.805125 +0530,
15,0,16,o,2.443203300004825,None,16,0,15,160.97326470003463,,,,,,,,,,,,,,,,,,,,,,,,,,,,,,,,,,,,,,,,,,,,,,,,,,160.95763940003235,160.97326470003463,161.4733685000101,161.457074200036,161.4659431000473,161.4733685000101,161.4733685000101,161.4733685000101,163.9239438000368,Objects\125b.jpg,mid,o,2.443203300004825,None,,,,,,,,00042,001,2026-01-23_22h06.21.633,MST_test,2024.2.0,59.88034710645725,2026-01-23 22h06.28.805125 +0530,
16,0,17,n,2.020261500030756,None,17,0,16,163.94002810004167,,,,,,,,,,,,,,,,,,,,,,,,,,,,,,,,,,,,,,,,,,,,,,,,,,163.92429010005435,163.94002810004167,164.4398239000002,164.4234059000155,164.43028350005625,164.4398239000002,164.4398239000002,164.4398239000002,166.47394880000502,Foils\090a.jpg,none,n,2.020261500030756,None,,,,,,,,00042,001,2026-01-23_22h06.21.633,MST_test,2024.2.0,59.88034710645725,2026-01-23 22h06.28.805125 +0530,
17,0,18,n,0.990482900000643,None,18,0,17,166.4899019000004,,,,,,,,,,,,,,,,,,,,,,,,,,,,,,,,,,,,,,,,,,,,,,,,,,166.47429720003856,166.4899019000004,166.99011090002023,166.97370680002496,166.98043730005156,166.99011090002023,166.99011090002023,166.99011090002023,167.99055120005505,Foils\009a.jpg,none,n,0.990482900000643,None,,,,,,,,00042,001,2026-01-23_22h06.21.633,MST_test,2024.2.0,59.88034710645725,2026-01-23 22h06.28.805125 +0530,
18,0,19,o,1.7692565000033937,None,19,0,18,168.00676320004277,,,,,,,,,,,,,,,,,,,,,,,,,,,,,,,,,,,,,,,,,,,,,,,,,,167.99090180004714,168.00676320004277,168.50657960004173,168.49031730002025,168.49858370004222,168.50657960004173,168.50657960004173,168.50657960004173,170.2905453000567,Objects\150a.jpg,mid,o,1.7692565000033937,None,,,,,,,,00042,001,2026-01-23_22h06.21.633,MST_test,2024.2.0,59.88034710645725,2026-01-23 22h06.28.805125 +0530,
19,0,20,n,1.521791699982714,None,20,0,19,170.3063361000386,,,,,,,,,,,,,,,,,,,,,,,,,,,,,,,,,,,,,,,,,,,,,,,,,,170.29090920003364,170.3063361000386,170.82678140001372,170.79000890004681,170.8241836000234,170.82678140001372,170.82678140001372,170.82678140001372,172.35698290000437,Foils\074a.jpg,none,n,1.521791699982714,None,,,,,,,,00042,001,2026-01-23_22h06.21.633,MST_test,2024.2.0,59.88034710645725,2026-01-23 22h06.28.805125 +0530,
20,0,21,s,4.803159700008109,None,21,0,20,172.37315570004284,,,,,,,,,,,,,,,,,,,,,,,,,,,,,,,,,,,,,,,,,,,,,,,,,,172.35733350005466,172.37315570004284,172.97681930003455,172.856896900048,172.97419290000107,172.97681930003455,172.97681930003455,172.97681930003455,177.79032930004178,Scenes\030b.jpg,mid,s,4.803159700008109,None,,,,,,,,00042,001,2026-01-23_22h06.21.633,MST_test,2024.2.0,59.88034710645725,2026-01-23 22h06.28.805125 +0530,
21,0,22,n,5.9292399999685585,None,22,0,21,177.80655280000065,,,,,,,,,,,,,,,,,,,,,,,,,,,,,,,,,,,,,,,,,,,,,,,,,,177.79050780000398,177.80655280000065,178.30699540005298,178.29037620004965,178.29626720002852,178.30699540005298,178.30699540005298,178.30699540005298,184.24193260003813,Foils\018a.jpg,none,n,5.9292399999685585,None,,,,,,,,00042,001,2026-01-23_22h06.21.633,MST_test,2024.2.0,59.88034710645725,2026-01-23 22h06.28.805125 +0530,
22,0,23,s,3.2636625999584794,None,23,0,22,184.25634650001302,,,,,,,,,,,,,,,,,,,,,,,,,,,,,,,,,,,,,,,,,,,,,,,,,,184.24229250004282,184.25634650001302,184.75691130000632,184.7398887000163,184.74601610004902,184.75691130000632,184.75691130000632,184.75691130000632,188.02354970003944,Objects\007a.jpg,mid,s,3.2636625999584794,None,,,,,,,,00042,001,2026-01-23_22h06.21.633,MST_test,2024.2.0,59.88034710645725,2026-01-23 22h06.28.805125 +0530,
23,0,24,n,2.4877698999480344,None,24,0,23,188.03999070002465,,,,,,,,,,,,,,,,,,,,,,,,,,,,,,,,,,,,,,,,,,,,,,,,,,188.02390020003077,188.03999070002465,188.5402638000087,188.5235361000523,188.53231590002542,188.5402638000087,188.5402638000087,188.5402638000087,191.0405026000226,Objects\033b.jpg,mid,n,2.4877698999480344,None,,,,,,,,00042,001,2026-01-23_22h06.21.633,MST_test,2024.2.0,59.88034710645725,2026-01-23 22h06.28.805125 +0530,
24,0,25,s,5.111193599994294,None,25,0,24,191.0566489000339,,,,,,,,,,,,,,,,,,,,,,,,,,,,,,,,,,,,,,,,,,,,,,,,,,191.04085390002,191.0566489000339,191.5573167000548,191.54032030003145,191.5470988000161,191.5573167000548,191.5573167000548,191.5573167000548,196.67390770005295,Objects\085b.jpg,post,s,5.111193599994294,None,,,,,,,,00042,001,2026-01-23_22h06.21.633,MST_test,2024.2.0,59.88034710645725,2026-01-23 22h06.28.805125 +0530,
25,0,26,n,1.5335742000024766,None,26,0,25,196.6899778000079,,,,,,,,,,,,,,,,,,,,,,,,,,,,,,,,,,,,,,,,,,,,,,,,,,196.6743006000179,196.6899778000079,197.19041750003817,197.1739465999999,197.181901700038,197.19041750003817,197.19041750003817,197.19041750003817,198.74072950001573,Foils\scenes14.jpg,none,n,1.5335742000024766,None,,,,,,,,00042,001,2026-01-23_22h06.21.633,MST_test,2024.2.0,59.88034710645725,2026-01-23 22h06.28.805125 +0530,
26,0,27,o,3.231658700038679,None,27,0,26,198.75668040005257,,,,,,,,,,,,,,,,,,,,,,,,,,,,,,,,,,,,,,,,,,,,,,,,,,198.74089760001516,198.75668040005257,199.26025510003092,199.24008960003266,199.25648740003817,199.26025510003092,199.26025510003092,199.26025510003092,202.5072159000556,Scenes\171a.jpg,mid,o,3.231658700038679,None,,,,,,,,00042,001,2026-01-23_22h06.21.633,MST_test,2024.2.0,59.88034710645725,2026-01-23 22h06.28.805125 +0530,
27,0,28,n,1.1240542000159621,None,28,0,27,202.52282180002658,,,,,,,,,,,,,,,,,,,,,,,,,,,,,,,,,,,,,,,,,,,,,,,,,,202.50757520005573,202.52282180002658,203.0238572000526,203.0070309000439,203.01957750000292,203.0238572000526,203.0238572000526,203.0238572000526,204.15723440004513,Foils\scenes11.jpg,none,n,1.1240542000159621,None,,,,,,,,00042,001,2026-01-23_22h06.21.633,MST_test,2024.2.0,59.88034710645725,2026-01-23 22h06.28.805125 +0530,
28,0,29,n,2.338955400045961,None,29,0,28,204.17290960001992,,,,,,,,,,,,,,,,,,,,,,,,,,,,,,,,,,,,,,,,,,,,,,,,,,204.15758460003417,204.17290960001992,204.67355400003726,204.65706960001262,204.66494870005408,204.67355400003726,204.67355400003726,204.67355400003726,207.0238398000365,Foils\scenes2.jpg,none,n,2.338955400045961,None,,,,,,,,00042,001,2026-01-23_22h06.21.633,MST_test,2024.2.0,59.88034710645725,2026-01-23 22h06.28.805125 +0530,
29,0,30,n,1.6962110999738798,None,30,0,29,207.04002620000392,,,,,,,,,,,,,,,,,,,,,,,,,,,,,,,,,,,,,,,,,,,,,,,,,,207.02419140003622,207.04002620000392,207.54030430002604,207.5235353000462,207.52920650003944,207.54030430002604,207.54030430002604,207.54030430002604,209.24061900004745,Foils\scenes13.jpg,none,n,1.6962110999738798,None,,,,,,,,00042,001,2026-01-23_22h06.21.633,MST_test,2024.2.0,59.88034710645725,2026-01-23 22h06.28.805125 +0530,
30,0,31,o,1.6228686000104062,None,31,0,30,209.25643380003748,,,,,,,,,,,,,,,,,,,,,,,,,,,,,,,,,,,,,,,,,,,,,,,,,,209.24097060004715,209.25643380003748,209.7570185000077,209.74039700004505,209.75187670002924,209.7570185000077,209.7570185000077,209.7570185000077,211.39063570002327,Objects\152b.jpg,pre,o,1.6228686000104062,None,,,,,,,,00042,001,2026-01-23_22h06.21.633,MST_test,2024.2.0,59.88034710645725,2026-01-23 22h06.28.805125 +0530,
31,0,32,n,1.1058355999994092,None,32,0,31,211.40668510005344,,,,,,,,,,,,,,,,,,,,,,,,,,,,,,,,,,,,,,,,,,,,,,,,,,211.39099070004886,211.40668510005344,211.90667490003398,211.89029560005292,211.89676790003432,211.90667490003398,211.90667490003398,211.90667490003398,213.02388500003144,Foils\081a.jpg,none,n,1.1058355999994092,None,,,,,,,,00042,001,2026-01-23_22h06.21.633,MST_test,2024.2.0,59.88034710645725,2026-01-23 22h06.28.805125 +0530,
32,0,33,n,2.7846188000403345,None,33,0,32,213.0400004000403,,,,,,,,,,,,,,,,,,,,,,,,,,,,,,,,,,,,,,,,,,,,,,,,,,213.02423030004138,213.0400004000403,213.55529040005058,213.52364560001297,213.5532573000528,213.55529040005058,213.55529040005058,213.55529040005058,216.3573083000374,Objects\122b.jpg,post,n,2.7846188000403345,None,,,,,,,,00042,001,2026-01-23_22h06.21.633,MST_test,2024.2.0,59.88034710645725,2026-01-23 22h06.28.805125 +0530,
33,0,34,s,7.5790175999864005,None,34,0,33,216.37326040002517,,,,,,,,,,,,,,,,,,,,,,,,,,,,,,,,,,,,,,,,,,,,,,,,,,216.35761790000834,216.37326040002517,216.87354060000507,216.85703480005031,216.86500260001048,216.87354060000507,216.87354060000507,216.87354060000507,224.45749030000297,Objects\160a.jpg,mid,s,7.5790175999864005,None,,,,,,,,00042,001,2026-01-23_22h06.21.633,MST_test,2024.2.0,59.88034710645725,2026-01-23 22h06.28.805125 +0530,
34,0,35,s,10.106350099958945,None,35,0,34,224.47301490005339,,,,,,,,,,,,,,,,,,,,,,,,,,,,,,,,,,,,,,,,,,,,,,,,,,224.4578403000487,224.47301490005339,224.97824430000037,224.95704580005258,224.9757201000466,224.97824430000037,224.97824430000037,224.97824430000037,235.09050390002085,Scenes\130a.jpg,post,s,10.106350099958945,None,,,,,,,,00042,001,2026-01-23_22h06.21.633,MST_test,2024.2.0,59.88034710645725,2026-01-23 22h06.28.805125 +0530,
35,0,36,s,1.228542099997867,None,36,0,35,235.1066180000198,,,,,,,,,,,,,,,,,,,,,,,,,,,,,,,,,,,,,,,,,,,,,,,,,,235.0908913000021,235.1066180000198,235.60732390003977,235.5899682000163,235.60153000004357,235.60732390003977,235.60732390003977,235.60732390003977,236.84065930004,Objects\092a.jpg,mid,s,1.228542099997867,None,,,,,,,,00042,001,2026-01-23_22h06.21.633,MST_test,2024.2.0,59.88034710645725,2026-01-23 22h06.28.805125 +0530,
36,0,37,s,3.0121523000416346,None,37,0,36,236.85664720000932,,,,,,,,,,,,,,,,,,,,,,,,,,,,,,,,,,,,,,,,,,,,,,,,,,236.84101290005492,236.85664720000932,237.38440790004097,237.3403752000304,237.38179240003228,237.38440790004097,237.38440790004097,237.38440790004097,240.4070510000456,Scenes\037b.jpg,mid,s,3.0121523000416346,None,,,,,,,,00042,001,2026-01-23_22h06.21.633,MST_test,2024.2.0,59.88034710645725,2026-01-23 22h06.28.805125 +0530,
37,0,38,o,3.0559758999734186,None,38,0,37,240.42289840005105,,,,,,,,,,,,,,,,,,,,,,,,,,,,,,,,,,,,,,,,,,,,,,,,,,240.4074029000476,240.42289840005105,240.92384760000277,240.90710160002345,240.9160966000054,240.92384760000277,240.92384760000277,240.92384760000277,243.99067230004584,Objects\019a.jpg,mid,o,3.0559758999734186,None,,,,,,,,00042,001,2026-01-23_22h06.21.633,MST_test,2024.2.0,59.88034710645725,2026-01-23 22h06.28.805125 +0530,
38,0,39,o,2.105634600040503,None,39,0,38,244.00661750003928,,,,,,,,,,,,,,,,,,,,,,,,,,,,,,,,,,,,,,,,,,,,,,,,,,243.99102390004555,244.00661750003928,244.5068842000328,244.49018220003927,244.49713080003858,244.5068842000328,244.5068842000328,244.5068842000328,246.62391290004598,Objects\144a.jpg,mid,o,2.105634600040503,None,,,,,,,,00042,001,2026-01-23_22h06.21.633,MST_test,2024.2.0,59.88034710645725,2026-01-23 22h06.28.805125 +0530,
39,0,40,s,1.9773900000145659,None,40,0,39,246.63997760001803,,,,,,,,,,,,,,,,,,,,,,,,,,,,,,,,,,,,,,,,,,,,,,,,,,246.62426300003426,246.63997760001803,247.17850370000815,247.12338930001715,247.1757075000205,247.17850370000815,247.17850370000815,247.17850370000815,249.15730190003524,Objects\025b.jpg,pre,s,1.9773900000145659,None,,,,,,,,00042,001,2026-01-23_22h06.21.633,MST_test,2024.2.0,59.88034710645725,2026-01-23 22h06.28.805125 +0530,
40,0,41,s,3.7265716000110842,None,41,0,40,249.1729997000075,,,,,,,,,,,,,,,,,,,,,,,,,,,,,,,,,,,,,,,,,,,,,,,,,,249.1576823000214,249.1729997000075,249.677979900036,249.6570487000281,249.67568600003142,249.677979900036,249.677979900036,249.677979900036,253.4070803000359,Scenes\054a.jpg,pre,s,3.7265716000110842,None,,,,,,,,00042,001,2026-01-23_22h06.21.633,MST_test,2024.2.0,59.88034710645725,2026-01-23 22h06.28.805125 +0530,
41,0,42,n,1.0962307000299916,None,42,0,41,253.42331290000584,,,,,,,,,,,,,,,,,,,,,,,,,,,,,,,,,,,,,,,,,,,,,,,,,,253.40745270001935,253.42331290000584,253.92357810004614,253.90701200003969,253.91903080005432,253.92357810004614,253.92357810004614,253.92357810004614,255.02382750000106,Foils\020b.jpg,none,n,1.0962307000299916,None,,,,,,,,00042,001,2026-01-23_22h06.21.633,MST_test,2024.2.0,59.88034710645725,2026-01-23 22h06.28.805125 +0530,
42,0,43,s,2.911751900042873,None,43,0,42,255.04138390003936,,,,,,,,,,,,,,,,,,,,,,,,,,,,,,,,,,,,,,,,,,,,,,,,,,255.02419890003512,255.04138390003936,,255.5401696000481,255.5615686000092,255.56404140003724,255.56404140003724,255.56404140003724,258.4903847000096,Scenes\055b.jpg,pre,s,2.911751900042873,None,,,,,,,,00042,001,2026-01-23_22h06.21.633,MST_test,2024.2.0,59.88034710645725,2026-01-23 22h06.28.805125 +0530,
43,0,44,s,3.7325219999765977,None,44,0,43,258.5063191000372,,,,,,,,,,,,,,,,,,,,,,,,,,,,,,,,,,,,,,,,,,,,,,,,,,258.490738100023,258.5063191000372,259.0074801000301,258.9903094000183,258.99989850004204,259.0074801000301,259.0074801000301,259.0074801000301,262.7408145000227,Scenes\016b.jpg,pre,s,3.7325219999765977,None,,,,,,,,00042,001,2026-01-23_22h06.21.633,MST_test,2024.2.0,59.88034710645725,2026-01-23 22h06.28.805125 +0530,
44,0,45,n,1.5308903999975882,None,45,0,44,262.7566803000518,,,,,,,,,,,,,,,,,,,,,,,,,,,,,,,,,,,,,,,,,,,,,,,,,,262.741185800056,262.7566803000518,263.2571060000337,263.24032560002524,263.24734430003446,263.2571060000337,263.2571060000337,263.2571060000337,264.7902068000403,Foils\121a.jpg,none,n,1.5308903999975882,None,,,,,,,,00042,001,2026-01-23_22h06.21.633,MST_test,2024.2.0,59.88034710645725,2026-01-23 22h06.28.805125 +0530,
45,0,46,n,2.2656924000475556,None,46,0,45,264.8066507000476,,,,,,,,,,,,,,,,,,,,,,,,,,,,,,,,,,,,,,,,,,,,,,,,,,264.79055810003774,264.8066507000476,265.30690100003267,265.29032000002917,265.29899850004585,265.30690100003267,265.30690100003267,265.30690100003267,267.573926400044,Foils\057a.jpg,none,n,2.2656924000475556,None,,,,,,,,00042,001,2026-01-23_22h06.21.633,MST_test,2024.2.0,59.88034710645725,2026-01-23 22h06.28.805125 +0530,
46,0,47,s,4.0984041999909095,None,47,0,46,267.58975180005655,,,,,,,,,,,,,,,,,,,,,,,,,,,,,,,,,,,,,,,,,,,,,,,,,,267.5742915000301,267.58975180005655,268.12210810004035,268.07372160005616,268.11910320003517,268.12210810004035,268.12210810004035,268.12210810004035,272.223673600005,Scenes\100b.jpg,post,s,4.0984041999909095,None,,,,,,,,00042,001,2026-01-23_22h06.21.633,MST_test,2024.2.0,59.88034710645725,2026-01-23 22h06.28.805125 +0530,
47,0,48,n,2.8473162000300363,None,48,0,47,272.23987360001775,,,,,,,,,,,,,,,,,,,,,,,,,,,,,,,,,,,,,,,,,,,,,,,,,,272.22403150005266,272.23987360001775,272.74062390002655,272.7237119000056,272.731484500051,272.74062390002655,272.74062390002655,272.74062390002655,275.59039680002024,Objects\071b.jpg,pre,n,2.8473162000300363,None,,,,,,,,00042,001,2026-01-23_22h06.21.633,MST_test,2024.2.0,59.88034710645725,2026-01-23 22h06.28.805125 +0530,
48,0,49,s,1.57109899999341,None,49,0,48,275.60659050004324,,,,,,,,,,,,,,,,,,,,,,,,,,,,,,,,,,,,,,,,,,,,,,,,,,275.5907460000017,275.60659050004324,276.1293934000423,276.0903842000407,276.1266065000091,276.1293934000423,276.1293934000423,276.1293934000423,277.7068995000445,Objects\134b.jpg,post,s,1.57109899999341,None,,,,,,,,00042,001,2026-01-23_22h06.21.633,MST_test,2024.2.0,59.88034710645725,2026-01-23 22h06.28.805125 +0530,
49,0,50,n,2.699739800009411,None,50,0,49,277.72302590002073,,,,,,,,,,,,,,,,,,,,,,,,,,,,,,,,,,,,,,,,,,,,,,,,,,277.7072558000218,277.72302590002073,278.2322909000213,278.20697830000427,278.2296934000333,278.2322909000213,278.2322909000213,278.2322909000213,280.9416040000506,Scenes\025a.jpg,pre,n,2.699739800009411,None,,,,,,,,00042,001,2026-01-23_22h06.21.633,MST_test,2024.2.0,59.88034710645725,2026-01-23 22h06.28.805125 +0530,
50,0,51,s,1.803101199970115,None,51,0,50,280.95646090002265,,,,,,,,,,,,,,,,,,,,,,,,,,,,,,,,,,,,,,,,,,,,,,,,,,280.9419666000176,280.95646090002265,281.4568447000347,281.440412200056,281.4525106000365,281.4568447000347,281.4568447000347,281.4568447000347,283.2744893000345,Objects\026a.jpg,post,s,1.803101199970115,None,,,,,,,,00042,001,2026-01-23_22h06.21.633,MST_test,2024.2.0,59.88034710645725,2026-01-23 22h06.28.805125 +0530,
51,0,52,s,3.6542101000086404,None,52,0,51,283.28979770001024,,,,,,,,,,,,,,,,,,,,,,,,,,,,,,,,,,,,,,,,,,,,,,,,,,283.27484040003037,283.28979770001024,283.7902209000313,283.77374060003785,283.7800479000434,283.7902209000313,283.7902209000313,283.7902209000313,287.45730690000346,Objects\124a.jpg,post,s,3.6542101000086404,None,,,,,,,,00042,001,2026-01-23_22h06.21.633,MST_test,2024.2.0,59.88034710645725,2026-01-23 22h06.28.805125 +0530,
52,0,53,n,3.2975958000170067,None,53,0,52,287.4733580000466,,,,,,,,,,,,,,,,,,,,,,,,,,,,,,,,,,,,,,,,,,,,,,,,,,287.45767850003904,287.4733580000466,287.978239500022,287.9564158000285,287.9756295000552,287.978239500022,287.978239500022,287.978239500022,291.29067580000265,Scenes\052a.jpg,mid,n,3.2975958000170067,None,,,,,,,,00042,001,2026-01-23_22h06.21.633,MST_test,2024.2.0,59.88034710645725,2026-01-23 22h06.28.805125 +0530,
53,0,54,n,4.698925499978941,None,54,0,53,291.30659520003246,,,,,,,,,,,,,,,,,,,,,,,,,,,,,,,,,,,,,,,,,,,,,,,,,,291.29102640005294,291.30659520003246,291.8408724000328,291.79039170005126,291.8384220000007,291.8408724000328,291.8408724000328,291.8408724000328,296.540685200016,Objects\112b.jpg,mid,n,4.698925499978941,None,,,,,,,,00042,001,2026-01-23_22h06.21.633,MST_test,2024.2.0,59.88034710645725,2026-01-23 22h06.28.805125 +0530,
54,0,55,n,0.9949452000437304,None,55,0,54,296.556530700007,,,,,,,,,,,,,,,,,,,,,,,,,,,,,,,,,,,,,,,,,,,,,,,,,,296.54098879999947,296.556530700007,297.0570769000333,297.04043310001725,297.04779720003717,297.0570769000333,297.0570769000333,297.0570769000333,298.0571335000568,Foils\scenes5.jpg,none,n,0.9949452000437304,None,,,,,,,,00042,001,2026-01-23_22h06.21.633,MST_test,2024.2.0,59.88034710645725,2026-01-23 22h06.28.805125 +0530,
55,0,56,s,2.2312041000113823,None,56,0,55,298.07294670003466,,,,,,,,,,,,,,,,,,,,,,,,,,,,,,,,,,,,,,,,,,,,,,,,,,298.0574826000375,298.07294670003466,298.57323000003817,298.55676800000947,298.5654127000016,298.57323000003817,298.57323000003817,298.57323000003817,300.80707180005265,Objects\005a.jpg,post,s,2.2312041000113823,None,,,,,,,,00042,001,2026-01-23_22h06.21.633,MST_test,2024.2.0,59.88034710645725,2026-01-23 22h06.28.805125 +0530,
56,0,57,o,4.359161200001836,None,57,0,56,300.82325100002345,,,,,,,,,,,,,,,,,,,,,,,,,,,,,,,,,,,,,,,,,,,,,,,,,,300.8074222000432,300.82325100002345,301.32569700002205,301.3070626000408,301.3231006000424,301.32569700002205,301.32569700002205,301.32569700002205,305.6907566000009,Scenes\020a.jpg,pre,o,4.359161200001836,None,,,,,,,,00042,001,2026-01-23_22h06.21.633,MST_test,2024.2.0,59.88034710645725,2026-01-23 22h06.28.805125 +0530,
57,0,58,n,2.332995700009633,None,58,0,57,305.7063888000557,,,,,,,,,,,,,,,,,,,,,,,,,,,,,,,,,,,,,,,,,,,,,,,,,,305.69113710004603,305.7063888000557,306.2071953000268,306.1902386000147,306.2014386000228,306.2071953000268,306.2071953000268,306.2071953000268,308.55715050001163,Foils\049a.jpg,none,n,2.332995700009633,None,,,,,,,,00042,001,2026-01-23_22h06.21.633,MST_test,2024.2.0,59.88034710645725,2026-01-23 22h06.28.805125 +0530,
58,0,59,o,2.611099599977024,None,59,0,58,308.5732821000274,,,,,,,,,,,,,,,,,,,,,,,,,,,,,,,,,,,,,,,,,,,,,,,,,,308.55730160005623,308.5732821000274,309.07333770004334,309.0570632000454,309.0658521000296,309.07333770004334,309.07333770004334,309.07333770004334,311.69065170001704,Objects\010a.jpg,post,o,2.611099599977024,None,,,,,,,,00042,001,2026-01-23_22h06.21.633,MST_test,2024.2.0,59.88034710645725,2026-01-23 22h06.28.805125 +0530,
59,0,60,n,1.5489741999772377,None,60,0,59,311.70670249999966,,,,,,,,,,,,,,,,,,,,,,,,,,,,,,,,,,,,,,,,,,,,,,,,,,311.6910114000202,311.70670249999966,312.20710850000614,312.1903934000293,312.1984594000387,312.20710850000614,312.20710850000614,312.20710850000614,313.7571263000136,Foils\scenes6.jpg,none,n,1.5489741999772377,None,,,,,,,,00042,001,2026-01-23_22h06.21.633,MST_test,2024.2.0,59.88034710645725,2026-01-23 22h06.28.805125 +0530,
60,0,61,n,3.5058893999666907,None,61,0,60,313.77329430001555,,,,,,,,,,,,,,,,,,,,,,,,,,,,,,,,,,,,,,,,,,,,,,,,,,313.75729390000924,313.77329430001555,314.3142306000227,314.2570438000257,314.312018800003,314.3142306000227,314.3142306000227,314.3142306000227,317.8237761000055,Objects\067b.jpg,pre,n,3.5058893999666907,None,,,,,,,,00042,001,2026-01-23_22h06.21.633,MST_test,2024.2.0,59.88034710645725,2026-01-23 22h06.28.805125 +0530,
61,0,62,o,2.582618599990383,None,62,0,61,317.839947200031,,,,,,,,,,,,,,,,,,,,,,,,,,,,,,,,,,,,,,,,,,,,,,,,,,317.8242597000208,317.839947200031,318.37345730001107,318.3237251000246,318.37084780004807,318.37345730001107,318.37345730001107,318.37345730001107,320.9574980000034,Scenes\149b.jpg,post,o,2.582618599990383,None,,,,,,,,00042,001,2026-01-23_22h06.21.633,MST_test,2024.2.0,59.88034710645725,2026-01-23 22h06.28.805125 +0530,
62,0,63,o,1.7625298000057228,None,63,0,62,320.973794700054,,,,,,,,,,,,,,,,,,,,,,,,,,,,,,,,,,,,,,,,,,,,,,,,,,320.9578709000489,320.973794700054,321.4738982000272,321.4568225000403,321.4655966000282,321.4738982000272,321.4738982000272,321.4738982000272,323.2407047000015,Objects\038b.jpg,post,o,1.7625298000057228,None,,,,,,,,00042,001,2026-01-23_22h06.21.633,MST_test,2024.2.0,59.88034710645725,2026-01-23 22h06.28.805125 +0530,
63,0,64,n,3.082279899972491,None,64,0,63,323.25655730004655,,,,,,,,,,,,,,,,,,,,,,,,,,,,,,,,,,,,,,,,,,,,,,,,,,323.24108630005503,323.25655730004655,323.7617358000134,323.74038980004843,323.7587851000135,323.7617358000134,323.7617358000134,323.7617358000134,326.85715110000456,Foils\scenes28.jpg,none,n,3.082279899972491,None,,,,,,,,00042,001,2026-01-23_22h06.21.633,MST_test,2024.2.0,59.88034710645725,2026-01-23 22h06.28.805125 +0530,
64,0,65,s,3.9250716000096872,None,65,0,64,326.87319580005715,,,,,,,,,,,,,,,,,,,,,,,,,,,,,,,,,,,,,,,,,,,,,,,,,,326.85756410000613,326.87319580005715,327.3991226000362,327.3569963000482,327.3958166000084,327.3991226000362,327.3991226000362,327.3991226000362,331.34072620002553,Scenes\156b.jpg,mid,s,3.9250716000096872,None,,,,,,,,00042,001,2026-01-23_22h06.21.633,MST_test,2024.2.0,59.88034710645725,2026-01-23 22h06.28.805125 +0530,
65,0,66,s,2.3935648999758996,None,66,0,65,331.35661840002285,,,,,,,,,,,,,,,,,,,,,,,,,,,,,,,,,,,,,,,,,,,,,,,,,,331.34111190005206,331.35661840002285,331.8662729000207,331.8404577000183,331.86371010000585,331.8662729000207,331.8662729000207,331.8662729000207,334.27369770000223,Scenes\187a.jpg,mid,s,2.3935648999758996,None,,,,,,,,00042,001,2026-01-23_22h06.21.633,MST_test,2024.2.0,59.88034710645725,2026-01-23 22h06.28.805125 +0530,
66,0,67,o,1.5641641999827698,None,67,0,66,334.29001500003505,,,,,,,,,,,,,,,,,,,,,,,,,,,,,,,,,,,,,,,,,,,,,,,,,,334.27410380000947,334.29001500003505,334.80833830003394,334.7737500000512,334.80500220000977,334.80833830003394,334.80833830003394,334.80833830003394,336.3739428000408,Objects\161b.jpg,pre,o,1.5641641999827698,None,,,,,,,,00042,001,2026-01-23_22h06.21.633,MST_test,2024.2.0,59.88034710645725,2026-01-23 22h06.28.805125 +0530,
67,0,68,o,1.2828598999767564,None,68,0,67,336.3900010000216,,,,,,,,,,,,,,,,,,,,,,,,,,,,,,,,,,,,,,,,,,,,,,,,,,336.3743314000312,336.3900010000216,336.8971015000134,336.87361530005,336.89431460003834,336.8971015000134,336.8971015000134,336.8971015000134,338.1906808000058,Scenes\023a.jpg,pre,o,1.2828598999767564,None,,,,,,,,00042,001,2026-01-23_22h06.21.633,MST_test,2024.2.0,59.88034710645725,2026-01-23 22h06.28.805125 +0530,
68,0,69,s,2.7080202999641187,None,69,0,68,338.2065907000215,,,,,,,,,,,,,,,,,,,,,,,,,,,,,,,,,,,,,,,,,,,,,,,,,,338.1910373000428,338.2065907000215,338.7358446000144,338.69024080003146,338.73294050002005,338.7358446000144,338.7358446000144,338.7358446000144,341.457269800012,Scenes\131b.jpg,mid,s,2.7080202999641187,None,,,,,,,,00042,001,2026-01-23_22h06.21.633,MST_test,2024.2.0,59.88034710645725,2026-01-23 22h06.28.805125 +0530,
69,0,70,s,2.7868939000181854,None,70,0,69,341.4732932000188,,,,,,,,,,,,,,,,,,,,,,,,,,,,,,,,,,,,,,,,,,,,,,,,,,341.4576264000498,341.4732932000188,,341.9576610000222,341.9905617000186,341.9935668000253,341.9935668000253,341.9935668000253,344.79069650004385,Scenes\061b.jpg,mid,s,2.7868939000181854,None,,,,,,,,00042,001,2026-01-23_22h06.21.633,MST_test,2024.2.0,59.88034710645725,2026-01-23 22h06.28.805125 +0530,
70,0,71,n,2.3213959999848157,None,71,0,70,344.80659470002865,,,,,,,,,,,,,,,,,,,,,,,,,,,,,,,,,,,,,,,,,,,,,,,,,,344.7910862000426,344.80659470002865,345.3070065000211,345.29039920005016,345.29733720002696,345.3070065000211,345.3070065000211,345.3070065000211,347.64059130003443,Foils\scenes29.jpg,none,n,2.3213959999848157,None,,,,,,,,00042,001,2026-01-23_22h06.21.633,MST_test,2024.2.0,59.88034710645725,2026-01-23 22h06.28.805125 +0530,
71,0,72,s,5.143016899994109,None,72,0,71,347.6565977000282,,,,,,,,,,,,,,,,,,,,,,,,,,,,,,,,,,,,,,,,,,,,,,,,,,347.6409765999997,347.6565977000282,,348.141070600017,348.151524600049,348.15700230002403,348.15700230002403,348.15700230002403,353.30725650000386,Objects\157b.jpg,post,s,5.143016899994109,None,,,,,,,,00042,001,2026-01-23_22h06.21.633,MST_test,2024.2.0,59.88034710645725,2026-01-23 22h06.28.805125 +0530,
72,0,73,o,2.068892000010237,None,73,0,72,353.324250900012,,,,,,,,,,,,,,,,,,,,,,,,,,,,,,,,,,,,,,,,,,,,,,,,,,353.3076647000271,353.324250900012,353.85551540000597,353.8069982000161,353.852658000018,353.85551540000597,353.85551540000597,353.85551540000597,355.94063490000553,Scenes\060b.jpg,pre,o,2.068892000010237,None,,,,,,,,00042,001,2026-01-23_22h06.21.633,MST_test,2024.2.0,59.88034710645725,2026-01-23 22h06.28.805125 +0530,
73,0,74,o,1.8557475000270642,None,74,0,73,355.9566871999996,,,,,,,,,,,,,,,,,,,,,,,,,,,,,,,,,,,,,,,,,,,,,,,,,,355.94104030000744,355.9566871999996,356.460695900023,356.4404112000484,356.4579303000355,356.460695900023,356.460695900023,356.460695900023,358.3239134000032,Scenes\035a.jpg,post,o,1.8557475000270642,None,,,,,,,,00042,001,2026-01-23_22h06.21.633,MST_test,2024.2.0,59.88034710645725,2026-01-23 22h06.28.805125 +0530,
74,0,75,s,1.7558543999912217,None,75,0,74,358.3396663000458,,,,,,,,,,,,,,,,,,,,,,,,,,,,,,,,,,,,,,,,,,,,,,,,,,358.3242788000498,358.3396663000458,358.8405563000124,358.82355450000614,358.83357550000073,358.8405563000124,358.8405563000124,358.8405563000124,360.6074648000067,Objects\069b.jpg,pre,s,1.7558543999912217,None,,,,,,,,00042,001,2026-01-23_22h06.21.633,MST_test,2024.2.0,59.88034710645725,2026-01-23 22h06.28.805125 +0530,
75,0,76,s,3.3840318999718875,None,76,0,75,360.62312050000764,,,,,,,,,,,,,,,,,,,,,,,,,,,,,,,,,,,,,,,,,,,,,,,,,,360.6078504000325,360.62312050000764,361.12379290000536,361.10676770005375,361.11948720004875,361.12379290000536,361.12379290000536,361.12379290000536,364.52320660004625,Scenes\147a.jpg,post,s,3.3840318999718875,None,,,,,,,,00042,001,2026-01-23_22h06.21.633,MST_test,2024.2.0,59.88034710645725,2026-01-23 22h06.28.805125 +0530,
76,0,77,s,1.915942499996163,None,77,0,76,364.5394410000299,,,,,,,,,,,,,,,,,,,,,,,,,,,,,,,,,,,,,,,,,,,,,,,,,,364.5235117000411,364.5394410000299,,365.02351760002784,365.0294105000212,365.04018830001587,365.04018830001587,365.04018830001587,366.95746170001803,Objects\141a.jpg,post,s,1.915942499996163,None,,,,,,,,00042,001,2026-01-23_22h06.21.633,MST_test,2024.2.0,59.88034710645725,2026-01-23 22h06.28.805125 +0530,
77,0,78,s,1.6624943999922834,None,78,0,77,366.9732591000502,,,,,,,,,,,,,,,,,,,,,,,,,,,,,,,,,,,,,,,,,,,,,,,,,,366.9578170000459,366.9732591000502,367.5019237000379,367.457074200036,367.499129600008,367.5019237000379,367.5019237000379,367.5019237000379,369.17393170000287,Scenes\141b.jpg,pre,s,1.6624943999922834,None,,,,,,,,00042,001,2026-01-23_22h06.21.633,MST_test,2024.2.0,59.88034710645725,2026-01-23 22h06.28.805125 +0530,
78,0,79,n,1.9937869000132196,None,79,0,78,369.19001500000013,,,,,,,,,,,,,,,,,,,,,,,,,,,,,,,,,,,,,,,,,,,,,,,,,,369.17430330003845,369.19001500000013,369.6980690000346,369.67385360004846,369.6955746000167,369.6980690000346,369.6980690000346,369.6980690000346,371.70747660001507,Scenes\090a.jpg,post,n,1.9937869000132196,None,,,,,,,,00042,001,2026-01-23_22h06.21.633,MST_test,2024.2.0,59.88034710645725,2026-01-23 22h06.28.805125 +0530,
79,0,80,s,1.6601569000049494,None,80,0,79,371.72294050001074,,,,,,,,,,,,,,,,,,,,,,,,,,,,,,,,,,,,,,,,,,,,,,,,,,371.70783080003457,371.72294050001074,372.22383700002683,372.20680920005543,372.2151997000328,372.22383700002683,372.22383700002683,372.22383700002683,373.89059410005575,Objects\106a.jpg,mid,s,1.6601569000049494,None,,,,,,,,00042,001,2026-01-23_22h06.21.633,MST_test,2024.2.0,59.88034710645725,2026-01-23 22h06.28.805125 +0530,
80,0,81,n,2.3573021999909543,None,81,0,80,373.9066963000223,,,,,,,,,,,,,,,,,,,,,,,,,,,,,,,,,,,,,,,,,,,,,,,,,,373.89096410002094,373.9066963000223,374.4070619000122,374.39039490005234,374.39814300002763,374.4070619000122,374.4070619000122,374.4070619000122,376.77331810002215,Foils\scenes18.jpg,none,n,2.3573021999909543,None,,,,,,,,00042,001,2026-01-23_22h06.21.633,MST_test,2024.2.0,59.88034710645725,2026-01-23 22h06.28.805125 +0530,
81,0,82,s,1.1459945000242442,None,82,0,81,376.7897306000232,,,,,,,,,,,,,,,,,,,,,,,,,,,,,,,,,,,,,,,,,,,,,,,,,,376.77360140002565,376.7897306000232,377.2903719000169,377.2736279000528,377.2825185000547,377.2903719000169,377.2903719000169,377.2903719000169,378.44066750002094,Objects\068a.jpg,pre,s,1.1459945000242442,None,,,,,,,,00042,001,2026-01-23_22h06.21.633,MST_test,2024.2.0,59.88034710645725,2026-01-23 22h06.28.805125 +0530,
82,0,83,n,1.9807361999992281,None,83,0,82,378.4566633000504,,,,,,,,,,,,,,,,,,,,,,,,,,,,,,,,,,,,,,,,,,,,,,,,,,378.44101570005296,378.4566633000504,378.9590162000386,378.94041620002827,378.956367900013,378.9590162000386,378.9590162000386,378.9590162000386,380.9408348000143,Scenes\177a.jpg,post,n,1.9807361999992281,None,,,,,,,,00042,001,2026-01-23_22h06.21.633,MST_test,2024.2.0,59.88034710645725,2026-01-23 22h06.28.805125 +0530,
83,0,84,o,3.3471370000042953,None,84,0,83,380.9566647000029,,,,,,,,,,,,,,,,,,,,,,,,,,,,,,,,,,,,,,,,,,,,,,,,,,380.94119810004486,380.9566647000029,381.45726060000015,381.44040850002784,381.4492348000058,381.45726060000015,381.45726060000015,381.45726060000015,384.80708090000553,Objects\016a.jpg,mid,o,3.3471370000042953,None,,,,,,,,00042,001,2026-01-23_22h06.21.633,MST_test,2024.2.0,59.88034710645725,2026-01-23 22h06.28.805125 +0530,
84,0,85,n,2.5132167999981903,None,85,0,84,384.82328820001567,,,,,,,,,,,,,,,,,,,,,,,,,,,,,,,,,,,,,,,,,,,,,,,,,,384.80742910003755,384.82328820001567,385.32318010000745,385.30682910000905,385.31573370000115,385.32318010000745,385.32318010000745,385.32318010000745,387.8411319000297,Objects\065a.jpg,post,n,2.5132167999981903,None,,,,,,,,00042,001,2026-01-23_22h06.21.633,MST_test,2024.2.0,59.88034710645725,2026-01-23 22h06.28.805125 +0530,
85,0,86,n,2.1428206999553367,None,86,0,85,387.8563494000118,,,,,,,,,,,,,,,,,,,,,,,,,,,,,,,,,,,,,,,,,,,,,,,,,,387.8414769000374,387.8563494000118,388.357354900043,388.3404590000282,388.35521870001685,388.357354900043,388.357354900043,388.357354900043,390.5071113000158,Scenes\157a.jpg,pre,n,2.1428206999553367,None,,,,,,,,00042,001,2026-01-23_22h06.21.633,MST_test,2024.2.0,59.88034710645725,2026-01-23 22h06.28.805125 +0530,
86,0,87,n,2.420539899962023,None,87,0,86,390.52292850002414,,,,,,,,,,,,,,,,,,,,,,,,,,,,,,,,,,,,,,,,,,,,,,,,,,390.50732670002617,390.52292850002414,391.0238155000261,391.0070529000368,391.01564480003435,391.0238155000261,391.0238155000261,391.0238155000261,393.45733410003595,Foils\026a.jpg,none,n,2.420539899962023,None,,,,,,,,00042,001,2026-01-23_22h06.21.633,MST_test,2024.2.0,59.88034710645725,2026-01-23 22h06.28.805125 +0530,
87,0,88,o,1.6509602000005543,None,88,0,87,393.4732783000218,,,,,,,,,,,,,,,,,,,,,,,,,,,,,,,,,,,,,,,,,,,,,,,,,,393.45769430004293,393.4732783000218,393.9768696000101,393.95723630004795,393.9743662000401,393.9768696000101,393.9768696000101,393.9768696000101,395.6407016000012,Scenes\165a.jpg,pre,o,1.6509602000005543,None,,,,,,,,00042,001,2026-01-23_22h06.21.633,MST_test,2024.2.0,59.88034710645725,2026-01-23 22h06.28.805125 +0530,
88,0,89,s,3.0549420999595895,None,89,0,88,395.6566911000409,,,,,,,,,,,,,,,,,,,,,,,,,,,,,,,,,,,,,,,,,,,,,,,,,,395.64106370002264,395.6566911000409,396.1574583000038,396.1404291000217,396.15266130003147,396.1574583000038,396.1574583000038,396.1574583000038,399.2238575000083,Scenes\179b.jpg,post,s,3.0549420999595895,None,,,,,,,,00042,001,2026-01-23_22h06.21.633,MST_test,2024.2.0,59.88034710645725,2026-01-23 22h06.28.805125 +0530,
89,0,90,s,1.2884847999666817,None,90,0,89,399.2400367000373,,,,,,,,,,,,,,,,,,,,,,,,,,,,,,,,,,,,,,,,,,,,,,,,,,399.2242366000428,399.2400367000373,399.7558617000468,399.7237054000143,399.7534020000021,399.7558617000468,399.7558617000468,399.7558617000468,401.0574220000417,Objects\062b.jpg,mid,s,1.2884847999666817,None,,,,,,,,00042,001,2026-01-23_22h06.21.633,MST_test,2024.2.0,59.88034710645725,2026-01-23 22h06.28.805125 +0530,
90,0,91,s,1.4544108000118285,None,91,0,90,401.0732817000244,,,,,,,,,,,,,,,,,,,,,,,,,,,,,,,,,,,,,,,,,,,,,,,,,,401.0577686000033,401.0732817000244,401.5732912000385,401.5570719000534,401.5710031000199,401.5732912000385,401.5732912000385,401.5732912000385,403.04068930004723,Scenes\098b.jpg,post,s,1.4544108000118285,None,,,,,,,,00042,001,2026-01-23_22h06.21.633,MST_test,2024.2.0,59.88034710645725,2026-01-23 22h06.28.805125 +0530,
91,0,92,o,1.1252596999984235,None,92,0,91,403.056699400011,,,,,,,,,,,,,,,,,,,,,,,,,,,,,,,,,,,,,,,,,,,,,,,,,,403.0410364000127,403.056699400011,403.55910100002075,403.5400641000015,403.5552171000163,403.55910100002075,403.55910100002075,403.55910100002075,404.69039400003385,Scenes\150a.jpg,mid,o,1.1252596999984235,None,,,,,,,,00042,001,2026-01-23_22h06.21.633,MST_test,2024.2.0,59.88034710645725,2026-01-23 22h06.28.805125 +0530,
92,0,93,o,3.413133200025186,None,93,0,92,404.7066718999995,,,,,,,,,,,,,,,,,,,,,,,,,,,,,,,,,,,,,,,,,,,,,,,,,,404.69074150000233,404.7066718999995,405.2072245000163,405.1904215000104,405.20208220003406,405.2072245000163,405.2072245000163,405.2072245000163,408.6236490000156,Objects\108a.jpg,mid,o,3.413133200025186,None,,,,,,,,00042,001,2026-01-23_22h06.21.633,MST_test,2024.2.0,59.88034710645725,2026-01-23 22h06.28.805125 +0530,
93,0,94,o,1.407559700019192,None,94,0,93,408.64000890002353,,,,,,,,,,,,,,,,,,,,,,,,,,,,,,,,,,,,,,,,,,,,,,,,,,408.6240050000488,408.64000890002353,409.1402744000079,409.1236683000461,409.1297101000091,409.1402744000079,409.1402744000079,409.1402744000079,410.5571733000106,Objects\030a.jpg,pre,o,1.407559700019192,None,,,,,,,,00042,001,2026-01-23_22h06.21.633,MST_test,2024.2.0,59.88034710645725,2026-01-23 22h06.28.805125 +0530,
94,0,95,n,1.4552800999954343,None,95,0,94,410.5731678000302,,,,,,,,,,,,,,,,,,,,,,,,,,,,,,,,,,,,,,,,,,,,,,,,,,410.5576104000211,410.5731678000302,411.1095879000495,411.0571216000244,411.10693220002577,411.1095879000495,411.1095879000495,411.1095879000495,412.57393350003986,Scenes\132b.jpg,post,n,1.4552800999954343,None,,,,,,,,00042,001,2026-01-23_22h06.21.633,MST_test,2024.2.0,59.88034710645725,2026-01-23 22h06.28.805125 +0530,
95,0,96,o,1.1281567999976687,None,96,0,95,412.58993370004464,,,,,,,,,,,,,,,,,,,,,,,,,,,,,,,,,,,,,,,,,,,,,,,,,,412.5742801000015,412.58993370004464,413.09164800000144,413.07372960000066,413.0892701000557,413.09164800000144,413.09164800000144,413.09164800000144,414.22392360004596,Scenes\109a.jpg,post,o,1.1281567999976687,None,,,,,,,,00042,001,2026-01-23_22h06.21.633,MST_test,2024.2.0,59.88034710645725,2026-01-23 22h06.28.805125 +0530,
96,0,97,o,1.3423123999964446,None,97,0,96,414.23993260000134,,,,,,,,,,,,,,,,,,,,,,,,,,,,,,,,,,,,,,,,,,,,,,,,,,414.2243222000543,414.23993260000134,414.7415904000518,414.72373010002775,414.7324374000309,414.7415904000518,414.7415904000518,414.7415904000518,416.0904779000557,Objects\181a.jpg,post,o,1.3423123999964446,None,,,,,,,,00042,001,2026-01-23_22h06.21.633,MST_test,2024.2.0,59.88034710645725,2026-01-23 22h06.28.805125 +0530,
97,0,98,s,2.164314199995715,None,98,0,97,416.1066869000206,,,,,,,,,,,,,,,,,,,,,,,,,,,,,,,,,,,,,,,,,,,,,,,,,,416.0908518000506,416.1066869000206,416.60735500004375,416.59033340000315,416.598703100055,416.60735500004375,416.60735500004375,416.60735500004375,418.7736122000497,Objects\002b.jpg,pre,s,2.164314199995715,None,,,,,,,,00042,001,2026-01-23_22h06.21.633,MST_test,2024.2.0,59.88034710645725,2026-01-23 22h06.28.805125 +0530,
98,0,99,s,4.57604260003427,None,99,0,98,418.7899357000133,,,,,,,,,,,,,,,,,,,,,,,,,,,,,,,,,,,,,,,,,,,,,,,,,,418.773962700041,418.7899357000133,419.291963900032,419.2737395000295,419.28969580004923,419.291963900032,419.291963900032,419.291963900032,423.8739912000019,Scenes\068b.jpg,mid,s,4.57604260003427,None,,,,,,,,00042,001,2026-01-23_22h06.21.633,MST_test,2024.2.0,59.88034710645725,2026-01-23 22h06.28.805125 +0530,
99,0,100,n,4.075388199998997,None,100,0,99,423.88995810004417,,,,,,,,,,,,,,,,,,,,,,,,,,,,,,,,,,,,,,,,,,,,,,,,,,423.87433620000957,423.88995810004417,424.40033490001224,424.37373370002024,424.3978598000249,424.40033490001224,424.40033490001224,424.40033490001224,428.4906111000455,Objects\070b.jpg,post,n,4.075388199998997,None,,,,,,,,00042,001,2026-01-23_22h06.21.633,MST_test,2024.2.0,59.88034710645725,2026-01-23 22h06.28.805125 +0530,
100,0,101,s,2.5414293999783695,None,101,0,100,428.50669290003134,,,,,,,,,,,,,,,,,,,,,,,,,,,,,,,,,,,,,,,,,,,,,,,,,,428.4909603000269,428.50669290003134,429.006927600014,428.99039420002373,428.99979450000683,429.006927600014,429.006927600014,429.006927600014,431.5580605000141,Foils\065a.jpg,none,s,2.5414293999783695,None,,,,,,,,00042,001,2026-01-23_22h06.21.633,MST_test,2024.2.0,59.88034710645725,2026-01-23 22h06.28.805125 +0530,
101,0,102,s,1.2458793999976479,None,102,0,101,431.5733870000113,,,,,,,,,,,,,,,,,,,,,,,,,,,,,,,,,,,,,,,,,,,,,,,,,,431.5584297000314,431.5733870000113,432.09390100004384,432.0570629000431,432.09135200001765,432.09390100004384,432.09390100004384,432.09390100004384,433.3406401000102,Objects\170b.jpg,pre,s,1.2458793999976479,None,,,,,,,,00042,001,2026-01-23_22h06.21.633,MST_test,2024.2.0,59.88034710645725,2026-01-23 22h06.28.805125 +0530,
102,0,103,s,1.234333999978844,None,103,0,102,433.35668650001753,,,,,,,,,,,,,,,,,,,,,,,,,,,,,,,,,,,,,,,,,,,,,,,,,,433.34099240001524,433.35668650001753,433.857359000016,433.8404733000207,433.84842350002145,433.857359000016,433.857359000016,433.857359000016,435.1076403000043,Objects\166b.jpg,post,s,1.234333999978844,None,,,,,,,,00042,001,2026-01-23_22h06.21.633,MST_test,2024.2.0,59.88034710645725,2026-01-23 22h06.28.805125 +0530,
103,0,104,n,1.780312100017909,None,104,0,103,435.1233299000305,,,,,,,,,,,,,,,,,,,,,,,,,,,,,,,,,,,,,,,,,,,,,,,,,,435.10799020004924,435.1233299000305,435.623512900027,435.607056900044,435.61373340000864,435.623512900027,435.623512900027,435.623512900027,437.40780040004756,Foils\086a.jpg,none,n,1.780312100017909,None,,,,,,,,00042,001,2026-01-23_22h06.21.633,MST_test,2024.2.0,59.88034710645725,2026-01-23 22h06.28.805125 +0530,
104,0,105,s,1.0949709999840707,None,105,0,104,437.42315510002663,,,,,,,,,,,,,,,,,,,,,,,,,,,,,,,,,,,,,,,,,,,,,,,,,,437.4081533999997,437.42315510002663,437.9413915000041,437.90704960003495,437.9388630000176,437.9413915000041,437.9413915000041,437.9413915000041,439.04060000000754,Objects\003b.jpg,mid,s,1.0949709999840707,None,,,,,,,,00042,001,2026-01-23_22h06.21.633,MST_test,2024.2.0,59.88034710645725,2026-01-23 22h06.28.805125 +0530,
105,0,106,n,1.1594203000422567,None,106,0,105,439.0566844000132,,,,,,,,,,,,,,,,,,,,,,,,,,,,,,,,,,,,,,,,,,,,,,,,,,439.0409492000472,439.0566844000132,439.5569107000483,439.54035340005066,439.5481430000509,439.5569107000483,439.5569107000483,439.5569107000483,440.7240549000562,Foils\106a.jpg,none,n,1.1594203000422567,None,,,,,,,,00042,001,2026-01-23_22h06.21.633,MST_test,2024.2.0,59.88034710645725,2026-01-23 22h06.28.805125 +0530,
106,0,107,s,2.2601643999805674,None,107,0,106,440.739985799999,,,,,,,,,,,,,,,,,,,,,,,,,,,,,,,,,,,,,,,,,,,,,,,,,,440.724432100018,440.739985799999,441.24016470002243,441.2237395000411,441.2319419000414,441.24016470002243,441.24016470002243,441.24016470002243,443.5073243000079,Objects\154a.jpg,pre,s,2.2601643999805674,None,,,,,,,,00042,001,2026-01-23_22h06.21.633,MST_test,2024.2.0,59.88034710645725,2026-01-23 22h06.28.805125 +0530,
107,0,108,s,1.8528699000016786,None,108,0,107,443.52336750004906,,,,,,,,,,,,,,,,,,,,,,,,,,,,,,,,,,,,,,,,,,,,,,,,,,443.5076692000148,443.52336750004906,444.05482890002895,444.00708390004,444.0523942,444.05482890002895,444.05482890002895,444.05482890002895,445.9239973000367,Scenes\107b.jpg,post,s,1.8528699000016786,None,,,,,,,,00042,001,2026-01-23_22h06.21.633,MST_test,2024.2.0,59.88034710645725,2026-01-23 22h06.28.805125 +0530,
108,0,109,s,0.8350805999943987,None,109,0,108,445.9399380000541,,,,,,,,,,,,,,,,,,,,,,,,,,,,,,,,,,,,,,,,,,,,,,,,,,445.92434470000444,445.9399380000541,446.44053190003615,446.4237710000016,446.4298867000034,446.44053190003615,446.44053190003615,446.44053190003615,447.29053009999916,Scenes\066a.jpg,pre,s,0.8350805999943987,None,,,,,,,,00042,001,2026-01-23_22h06.21.633,MST_test,2024.2.0,59.88034710645725,2026-01-23 22h06.28.805125 +0530,
109,0,110,n,3.738809400005266,None,110,0,109,447.30654380004853,,,,,,,,,,,,,,,,,,,,,,,,,,,,,,,,,,,,,,,,,,,,,,,,,,447.29091740003787,447.30654380004853,447.80957970005693,447.7903826000402,447.80705680005485,447.80957970005693,447.80957970005693,447.80957970005693,451.557424300001,Scenes\170a.jpg,post,n,3.738809400005266,None,,,,,,,,00042,001,2026-01-23_22h06.21.633,MST_test,2024.2.0,59.88034710645725,2026-01-23 22h06.28.805125 +0530,
110,0,111,s,5.112013399950229,None,111,0,110,451.5733856000006,,,,,,,,,,,,,,,,,,,,,,,,,,,,,,,,,,,,,,,,,,,,,,,,,,451.55780010001035,451.5733856000006,452.07636560004903,452.05713960004505,452.07431570003973,452.07636560004903,452.07636560004903,452.07636560004903,457.1902960000443,Scenes\093b.jpg,mid,s,5.112013399950229,None,,,,,,,,00042,001,2026-01-23_22h06.21.633,MST_test,2024.2.0,59.88034710645725,2026-01-23 22h06.28.805125 +0530,
111,0,112,s,4.102126799989492,None,112,0,111,457.206632800051,,,,,,,,,,,,,,,,,,,,,,,,,,,,,,,,,,,,,,,,,,,,,,,,,,457.1906924000359,457.206632800051,457.7342430000426,457.6902335000341,457.73165980004705,457.7342430000426,457.7342430000426,457.7342430000426,461.8406988000497,Scenes\129b.jpg,mid,s,4.102126799989492,None,,,,,,,,00042,001,2026-01-23_22h06.21.633,MST_test,2024.2.0,59.88034710645725,2026-01-23 22h06.28.805125 +0530,
112,0,113,o,1.0704709000419825,None,113,0,112,461.8567171000177,,,,,,,,,,,,,,,,,,,,,,,,,,,,,,,,,,,,,,,,,,,,,,,,,,461.84096620004857,461.8567171000177,462.35721010004636,462.3403402000549,462.3499876000569,462.35721010004636,462.35721010004636,462.35721010004636,463.4405939000426,Objects\096a.jpg,pre,o,1.0704709000419825,None,,,,,,,,00042,001,2026-01-23_22h06.21.633,MST_test,2024.2.0,59.88034710645725,2026-01-23 22h06.28.805125 +0530,
113,0,114,n,6.0230278999661095,None,114,0,113,463.4566897000186,,,,,,,,,,,,,,,,,,,,,,,,,,,,,,,,,,,,,,,,,,,,,,,,,,463.4409380000434,463.4566897000186,463.9565927000367,463.94035620003706,463.94837100000586,463.9565927000367,463.9565927000367,463.9565927000367,469.9905581000494,Foils\042a.jpg,none,n,6.0230278999661095,None,,,,,,,,00042,001,2026-01-23_22h06.21.633,MST_test,2024.2.0,59.88034710645725,2026-01-23 22h06.28.805125 +0530,
114,0,115,s,3.287736300029792,None,115,0,114,470.0066928000306,,,,,,,,,,,,,,,,,,,,,,,,,,,,,,,,,,,,,,,,,,,,,,,,,,469.9907643000479,470.0066928000306,470.5325667000143,470.49037090002093,470.5300060000154,470.5325667000143,470.5325667000143,470.5325667000143,473.82371330005117,Objects\179b.jpg,pre,s,3.287736300029792,None,,,,,,,,00042,001,2026-01-23_22h06.21.633,MST_test,2024.2.0,59.88034710645725,2026-01-23 22h06.28.805125 +0530,
115,0,116,n,4.807339399994817,None,116,0,115,473.8398339000414,,,,,,,,,,,,,,,,,,,,,,,,,,,,,,,,,,,,,,,,,,,,,,,,,,473.82408100005705,473.8398339000414,474.3400851000333,474.3238599000033,474.33219210000243,474.3400851000333,474.3400851000333,474.3400851000333,479.1567325000069,Foils\scenes17.jpg,none,n,4.807339399994817,None,,,,,,,,00042,001,2026-01-23_22h06.21.633,MST_test,2024.2.0,59.88034710645725,2026-01-23 22h06.28.805125 +0530,
116,0,117,n,1.060853099974338,None,117,0,116,479.17279650003184,,,,,,,,,,,,,,,,,,,,,,,,,,,,,,,,,,,,,,,,,,,,,,,,,,479.15704290004214,479.17279650003184,,479.65696860000025,479.6926973000518,479.69485940004233,479.69485940004233,479.69485940004233,480.7571729000192,Scenes\028b.jpg,pre,n,1.060853099974338,None,,,,,,,,00042,001,2026-01-23_22h06.21.633,MST_test,2024.2.0,59.88034710645725,2026-01-23 22h06.28.805125 +0530,
117,0,118,s,2.0156849999912083,None,118,0,117,480.77336110000033,,,,,,,,,,,,,,,,,,,,,,,,,,,,,,,,,,,,,,,,,,,,,,,,,,480.75752750004176,480.77336110000033,481.2762090000324,481.2568570000003,481.27343220001785,481.2762090000324,481.2762090000324,481.2762090000324,483.3080168000306,Scenes\121a.jpg,pre,s,2.0156849999912083,None,,,,,,,,00042,001,2026-01-23_22h06.21.633,MST_test,2024.2.0,59.88034710645725,2026-01-23 22h06.28.805125 +0530,
118,0,119,o,2.8513023999985307,None,119,0,118,483.3233215000364,,,,,,,,,,,,,,,,,,,,,,,,,,,,,,,,,,,,,,,,,,,,,,,,,,483.30836520000594,483.3233215000364,483.8408572000335,483.8071131000179,483.83844860002864,483.8408572000335,483.8408572000335,483.8408572000335,486.708202800015,Objects\027b.jpg,mid,o,2.8513023999985307,None,,,,,,,,00042,001,2026-01-23_22h06.21.633,MST_test,2024.2.0,59.88034710645725,2026-01-23 22h06.28.805125 +0530,
119,0,120,s,1.6842014000285417,None,120,0,119,486.7233734000474,,,,,,,,,,,,,,,,,,,,,,,,,,,,,,,,,,,,,,,,,,,,,,,,,,486.7085847000126,486.7233734000474,487.2237628000439,487.2069531000452,487.2120756000513,487.2237628000439,487.2237628000439,487.2237628000439,488.92400810000254,Scenes\053b.jpg,mid,s,1.6842014000285417,None,,,,,,,,00042,001,2026-01-23_22h06.21.633,MST_test,2024.2.0,59.88034710645725,2026-01-23 22h06.28.805125 +0530,
120,0,121,o,1.2548533999943174,None,121,0,120,488.9399551000097,,,,,,,,,,,,,,,,,,,,,,,,,,,,,,,,,,,,,,,,,,,,,,,,,,488.9243603000068,488.9399551000097,489.445435600006,489.42343190003885,489.44289250002475,489.445435600006,489.445435600006,489.445435600006,490.7073308000108,Scenes\038a.jpg,post,o,1.2548533999943174,None,,,,,,,,00042,001,2026-01-23_22h06.21.633,MST_test,2024.2.0,59.88034710645725,2026-01-23 22h06.28.805125 +0530,
121,0,122,n,5.4043907999875955,None,122,0,121,490.7233750000014,,,,,,,,,,,,,,,,,,,,,,,,,,,,,,,,,,,,,,,,,,,,,,,,,,490.7076970000053,490.7233750000014,491.22401650005486,491.2070980000426,491.21972790005384,491.22401650005486,491.22401650005486,491.22401650005486,496.6406281000236,Objects\189a.jpg,mid,n,5.4043907999875955,None,,,,,,,,00042,001,2026-01-23_22h06.21.633,MST_test,2024.2.0,59.88034710645725,2026-01-23 22h06.28.805125 +0530,
122,0,123,o,1.5804012999869883,None,123,0,122,496.656695600017,,,,,,,,,,,,,,,,,,,,,,,,,,,,,,,,,,,,,,,,,,,,,,,,,,496.64101810002467,496.656695600017,497.159380600031,497.1405045000138,497.1570867000264,497.159380600031,497.159380600031,497.159380600031,498.7407617000281,Scenes\189a.jpg,mid,o,1.5804012999869883,None,,,,,,,,00042,001,2026-01-23_22h06.21.633,MST_test,2024.2.0,59.88034710645725,2026-01-23 22h06.28.805125 +0530,
123,0,124,s,4.957909699995071,None,124,0,123,498.75669670000207,,,,,,,,,,,,,,,,,,,,,,,,,,,,,,,,,,,,,,,,,,,,,,,,,,498.7411798000103,498.75669670000207,,499.24095170001965,499.29186019999906,499.2944983000052,499.2944983000052,499.2944983000052,504.25697050004965,Scenes\122b.jpg,mid,s,4.957909699995071,None,,,,,,,,00042,001,2026-01-23_22h06.21.633,MST_test,2024.2.0,59.88034710645725,2026-01-23 22h06.28.805125 +0530,
124,0,125,s,1.59055649995571,None,125,0,124,504.27335050003603,,,,,,,,,,,,,,,,,,,,,,,,,,,,,,,,,,,,,,,,,,,,,,,,,,504.2573357000365,504.27335050003603,504.7737237000256,504.75724190002074,504.76676900003804,504.7737237000256,504.7737237000256,504.7737237000256,506.37401570001384,Objects\127a.jpg,pre,s,1.59055649995571,None,,,,,,,,00042,001,2026-01-23_22h06.21.633,MST_test,2024.2.0,59.88034710645725,2026-01-23 22h06.28.805125 +0530,
125,0,126,s,0.9765889000263996,None,126,0,125,506.390042300045,,,,,,,,,,,,,,,,,,,,,,,,,,,,,,,,,,,,,,,,,,,,,,,,,,506.37437040003715,506.390042300045,506.8912922000163,506.8734877000097,506.8822161000571,506.8912922000163,506.8912922000163,506.8912922000163,507.87398830003804,Objects\169a.jpg,post,s,0.9765889000263996,None,,,,,,,,00042,001,2026-01-23_22h06.21.633,MST_test,2024.2.0,59.88034710645725,2026-01-23 22h06.28.805125 +0530,
126,0,127,o,2.429035599983763,None,127,0,126,507.8900165000232,,,,,,,,,,,,,,,,,,,,,,,,,,,,,,,,,,,,,,,,,,,,,,,,,,507.87433420005254,507.8900165000232,508.3905277000158,508.37374070001533,508.383431400056,508.3905277000158,508.3905277000158,508.3905277000158,510.82408930000383,Scenes\175a.jpg,post,o,2.429035599983763,None,,,,,,,,00042,001,2026-01-23_22h06.21.633,MST_test,2024.2.0,59.88034710645725,2026-01-23 22h06.28.805125 +0530,
127,0,128,s,4.736041099997237,None,128,0,127,510.84005790000083,,,,,,,,,,,,,,,,,,,,,,,,,,,,,,,,,,,,,,,,,,,,,,,,,,510.82440730003873,510.84005790000083,511.36386610002955,511.32372060004855,511.36130240000784,511.36386610002955,511.36386610002955,511.36386610002955,516.1073280000128,Objects\015b.jpg,mid,s,4.736041099997237,None,,,,,,,,00042,001,2026-01-23_22h06.21.633,MST_test,2024.2.0,59.88034710645725,2026-01-23 22h06.28.805125 +0530,
128,0,129,n,3.7992969999904744,None,129,0,128,516.1233565000002,,,,,,,,,,,,,,,,,,,,,,,,,,,,,,,,,,,,,,,,,,,,,,,,,,516.1077101000119,516.1233565000002,516.6525624000351,516.6069966000505,516.6496178000234,516.6525624000351,516.6525624000351,516.6525624000351,520.457136400044,Scenes\077b.jpg,post,n,3.7992969999904744,None,,,,,,,,00042,001,2026-01-23_22h06.21.633,MST_test,2024.2.0,59.88034710645725,2026-01-23 22h06.28.805125 +0530,
129,0,130,n,0.9658586999867111,None,130,0,129,520.4730683000525,,,,,,,,,,,,,,,,,,,,,,,,,,,,,,,,,,,,,,,,,,,,,,,,,,520.4575060000061,520.4730683000525,520.9737877000007,520.9566546000424,520.9673059000052,520.9737877000007,520.9737877000007,520.9737877000007,521.9416318000294,Foils\066a.jpg,none,n,0.9658586999867111,None,,,,,,,,00042,001,2026-01-23_22h06.21.633,MST_test,2024.2.0,59.88034710645725,2026-01-23 22h06.28.805125 +0530,
130,0,131,o,1.6642813999787904,None,131,0,130,521.9564874000498,,,,,,,,,,,,,,,,,,,,,,,,,,,,,,,,,,,,,,,,,,,,,,,,,,521.9419765000348,521.9564874000498,522.491883300012,522.4404168000328,522.4890331000206,522.491883300012,522.491883300012,522.491883300012,524.1576033000019,Scenes\019b.jpg,post,o,1.6642813999787904,None,,,,,,,,00042,001,2026-01-23_22h06.21.633,MST_test,2024.2.0,59.88034710645725,2026-01-23 22h06.28.805125 +0530,
131,0,132,o,4.183803700027056,None,132,0,131,524.1730869000312,,,,,,,,,,,,,,,,,,,,,,,,,,,,,,,,,,,,,,,,,,,,,,,,,,524.1579702000017,524.1730869000312,524.7165195000125,524.6570826000534,524.7138527000207,524.7165195000125,524.7165195000125,524.7165195000125,528.9069194000331,Scenes\161b.jpg,pre,o,4.183803700027056,None,,,,,,,,00042,001,2026-01-23_22h06.21.633,MST_test,2024.2.0,59.88034710645725,2026-01-23 22h06.28.805125 +0530,
132,0,133,n,3.0109744999790564,None,133,0,132,528.9232340000453,,,,,,,,,,,,,,,,,,,,,,,,,,,,,,,,,,,,,,,,,,,,,,,,,,528.9071599000017,528.9232340000453,529.4250690000481,529.4070074000047,529.4162170000491,529.4250690000481,529.4250690000481,529.4250690000481,532.4406075000297,Objects\176a.jpg,pre,n,3.0109744999790564,None,,,,,,,,00042,001,2026-01-23_22h06.21.633,MST_test,2024.2.0,59.88034710645725,2026-01-23 22h06.28.805125 +0530,
133,0,134,n,7.515764899959322,None,134,0,133,532.4568068000372,,,,,,,,,,,,,,,,,,,,,,,,,,,,,,,,,,,,,,,,,,,,,,,,,,532.4409771000501,532.4568068000372,532.9918846000219,532.9401492000325,532.987620400032,532.9918846000219,532.9918846000219,532.9918846000219,540.5238265000517,Scenes\182b.jpg,post,n,7.515764899959322,None,,,,,,,,00042,001,2026-01-23_22h06.21.633,MST_test,2024.2.0,59.88034710645725,2026-01-23 22h06.28.805125 +0530,
134,0,135,n,1.7711954999831505,None,135,0,134,540.5397824000102,,,,,,,,,,,,,,,,,,,,,,,,,,,,,,,,,,,,,,,,,,,,,,,,,,540.5241750000278,540.5397824000102,541.040387200017,541.0235370000009,541.0330600000452,541.040387200017,541.040387200017,541.040387200017,542.8237841000082,Objects\133b.jpg,pre,n,1.7711954999831505,None,,,,,,,,00042,001,2026-01-23_22h06.21.633,MST_test,2024.2.0,59.88034710645725,2026-01-23 22h06.28.805125 +0530,
135,0,136,n,1.1987614000099711,None,136,0,135,542.8398436000571,,,,,,,,,,,,,,,,,,,,,,,,,,,,,,,,,,,,,,,,,,,,,,,,,,542.8241459000274,542.8398436000571,543.3730679000146,543.3234011000022,543.3706927000312,543.3730679000146,543.3730679000146,543.3730679000146,544.5737843000097,Scenes\152b.jpg,pre,n,1.1987614000099711,None,,,,,,,,00042,001,2026-01-23_22h06.21.633,MST_test,2024.2.0,59.88034710645725,2026-01-23 22h06.28.805125 +0530,
136,0,137,n,1.0682480999967083,None,137,0,136,544.5900298000197,,,,,,,,,,,,,,,,,,,,,,,,,,,,,,,,,,,,,,,,,,,,,,,,,,544.5741323000402,544.5900298000197,545.1119793000398,545.0736763000023,545.1090321000083,545.1119793000398,545.1119793000398,545.1119793000398,546.1906618000357,Objects\021b.jpg,post,n,1.0682480999967083,None,,,,,,,,00042,001,2026-01-23_22h06.21.633,MST_test,2024.2.0,59.88034710645725,2026-01-23 22h06.28.805125 +0530,
137,0,138,o,1.3612412000074983,None,138,0,137,546.2066914000316,,,,,,,,,,,,,,,,,,,,,,,,,,,,,,,,,,,,,,,,,,,,,,,,,,546.1910249000066,546.2066914000316,546.7069298000424,546.6904307000223,546.6992601000238,546.7069298000424,546.7069298000424,546.7069298000424,548.0738325000275,Objects\118a.jpg,pre,o,1.3612412000074983,None,,,,,,,,00042,001,2026-01-23_22h06.21.633,MST_test,2024.2.0,59.88034710645725,2026-01-23 22h06.28.805125 +0530,
138,0,139,s,2.6442003000411205,None,139,0,138,548.0897227000096,,,,,,,,,,,,,,,,,,,,,,,,,,,,,,,,,,,,,,,,,,,,,,,,,,548.0742943000514,548.0897227000096,548.592282000056,548.573534300027,548.5900423000567,548.592282000056,548.592282000056,548.592282000056,551.2406949000433,Scenes\134b.jpg,pre,s,2.6442003000411205,None,,,,,,,,00042,001,2026-01-23_22h06.21.633,MST_test,2024.2.0,59.88034710645725,2026-01-23 22h06.28.805125 +0530,
139,0,140,o,2.6710150000290014,None,140,0,139,551.2564479000284,,,,,,,,,,,,,,,,,,,,,,,,,,,,,,,,,,,,,,,,,,,,,,,,,,551.241042300011,551.2564479000284,551.7572218000423,551.7404406000278,551.747553000052,551.7572218000423,551.7572218000423,551.7572218000423,554.440734600008,Objects\137a.jpg,pre,o,2.6710150000290014,None,,,,,,,,00042,001,2026-01-23_22h06.21.633,MST_test,2024.2.0,59.88034710645725,2026-01-23 22h06.28.805125 +0530,
140,0,141,s,2.5686440999852493,None,141,0,140,554.4567142000305,,,,,,,,,,,,,,,,,,,,,,,,,,,,,,,,,,,,,,,,,,,,,,,,,,554.4411179000163,554.4567142000305,554.9636686000158,554.9404437000048,554.9612955000484,554.9636686000158,554.9636686000158,554.9636686000158,557.5406851000153,Scenes\125a.jpg,mid,s,2.5686440999852493,None,,,,,,,,00042,001,2026-01-23_22h06.21.633,MST_test,2024.2.0,59.88034710645725,2026-01-23 22h06.28.805125 +0530,
141,0,142,n,0.9949528999859467,None,142,0,141,557.5567204000545,,,,,,,,,,,,,,,,,,,,,,,,,,,,,,,,,,,,,,,,,,,,,,,,,,557.5410272000008,557.5567204000545,558.0572932000505,558.0404483000166,558.0525393999997,558.0572932000505,558.0572932000505,558.0572932000505,559.057360100036,Scenes\123a.jpg,pre,n,0.9949528999859467,None,,,,,,,,00042,001,2026-01-23_22h06.21.633,MST_test,2024.2.0,59.88034710645725,2026-01-23 22h06.28.805125 +0530,
142,0,143,n,3.4860978000215255,None,143,0,142,559.0732930000522,,,,,,,,,,,,,,,,,,,,,,,,,,,,,,,,,,,,,,,,,,,,,,,,,,559.0577106000273,559.0732930000522,559.5738036000403,559.5570934000425,559.5639465000131,559.5738036000403,559.5738036000403,559.5738036000403,563.0741260000505,Foils\scenes16.jpg,none,n,3.4860978000215255,None,,,,,,,,00042,001,2026-01-23_22h06.21.633,MST_test,2024.2.0,59.88034710645725,2026-01-23 22h06.28.805125 +0530,
143,0,144,n,0.9099117000005208,None,144,0,143,563.0899483000394,,,,,,,,,,,,,,,,,,,,,,,,,,,,,,,,,,,,,,,,,,,,,,,,,,563.0744919000426,563.0899483000394,563.5903268000111,563.5734923000564,563.5822293000529,563.5903268000111,563.5903268000111,563.5903268000111,564.507456500025,Foils\scenes30.jpg,none,n,0.9099117000005208,None,,,,,,,,00042,001,2026-01-23_22h06.21.633,MST_test,2024.2.0,59.88034710645725,2026-01-23 22h06.28.805125 +0530,
144,0,145,s,3.3774173999554478,None,145,0,144,564.5232264000224,,,,,,,,,,,,,,,,,,,,,,,,,,,,,,,,,,,,,,,,,,,,,,,,,,564.5078051000019,564.5232264000224,565.0268200000282,565.0070833000354,565.0237993000192,565.0268200000282,565.0268200000282,565.0268200000282,568.4071704000235,Scenes\155b.jpg,mid,s,3.3774173999554478,None,,,,,,,,00042,001,2026-01-23_22h06.21.633,MST_test,2024.2.0,59.88034710645725,2026-01-23 22h06.28.805125 +0530,
145,0,146,s,1.709603999974206,None,146,0,145,568.4232791000395,,,,,,,,,,,,,,,,,,,,,,,,,,,,,,,,,,,,,,,,,,,,,,,,,,568.4075401000446,568.4232791000395,,568.9078418000136,568.931466100039,568.9340058000525,568.9340058000525,568.9340058000525,570.6573988000164,Scenes\106a.jpg,mid,s,1.709603999974206,None,,,,,,,,00042,001,2026-01-23_22h06.21.633,MST_test,2024.2.0,59.88034710645725,2026-01-23 22h06.28.805125 +0530,
146,0,147,s,4.327385200012941,None,147,0,146,570.6729865000234,,,,,,,,,,,,,,,,,,,,,,,,,,,,,,,,,,,,,,,,,,,,,,,,,,570.6577497000108,570.6729865000234,571.2044370000367,571.1569284000434,571.2018018000526,571.2044370000367,571.2044370000367,571.2044370000367,575.5406252000248,Scenes\102b.jpg,mid,s,4.327385200012941,None,,,,,,,,00042,001,2026-01-23_22h06.21.633,MST_test,2024.2.0,59.88034710645725,2026-01-23 22h06.28.805125 +0530,
147,0,148,n,1.3071647000033408,None,148,0,147,575.556510400027,,,,,,,,,,,,,,,,,,,,,,,,,,,,,,,,,,,,,,,,,,,,,,,,,,575.5410073000239,575.556510400027,576.0570605000248,576.0405092000146,576.0491537000053,576.0570605000248,576.0570605000248,576.0570605000248,577.374448000046,Foils\033a.jpg,none,n,1.3071647000033408,None,,,,,,,,00042,001,2026-01-23_22h06.21.633,MST_test,2024.2.0,59.88034710645725,2026-01-23 22h06.28.805125 +0530,
148,0,149,o,1.1772145999711938,None,149,0,148,577.3898318000138,,,,,,,,,,,,,,,,,,,,,,,,,,,,,,,,,,,,,,,,,,,,,,,,,,577.3749135000398,577.3898318000138,577.891019200033,577.8735441000317,577.8823084000032,577.891019200033,577.891019200033,577.891019200033,579.0739504000521,Objects\158a.jpg,post,o,1.1772145999711938,None,,,,,,,,00042,001,2026-01-23_22h06.21.633,MST_test,2024.2.0,59.88034710645725,2026-01-23 22h06.28.805125 +0530,
149,0,150,n,3.914527499990072,None,150,0,149,579.0900506000035,,,,,,,,,,,,,,,,,,,,,,,,,,,,,,,,,,,,,,,,,,,,,,,,,,579.0743003000389,579.0900506000035,579.5934290000005,579.5735504000331,579.5899602000136,579.5934290000005,579.5934290000005,579.5934290000005,583.5245747000445,Foils\scenes22.jpg,none,n,3.914527499990072,None,,,,,,,,00042,001,2026-01-23_22h06.21.633,MST_test,2024.2.0,59.88034710645725,2026-01-23 22h06.28.805125 +0530,
,,,,,,,,,,,,,,,,,,,,,,,,,,,,,,,,,,,,,,,,,,,,,,,,,,,,,,,,,,,,,,,,,,,,,,,,,583.5248363999999,583.5398011000361,583.5398011000361,585.4238536000485,space,1.871937700023409,None,00042,001,2026-01-23_22h06.21.633,MST_test,2024.2.0,59.88034710645725,2026-01-23 22h06.28.805125 +0530,
