Sl_no,image_path,thisN,thisTrialN,thisRepN,key_resp_5.keys,key_resp_7.keys,key_resp_7.rt,key_resp_7.duration,key_resp_5.rt,key_resp_5.duration,key_resp_9.keys,key_resp_9.rt,key_resp_9.duration,key_resp_8.keys,key_resp_8.rt,key_resp_8.duration,practice.thisRepN,practice.thisTrialN,practice.thisN,trials.thisRepN,trials.thisTrialN,trials.thisN,thisRow.t,notes,welcome_page.started,text.started,key_resp.started,welcome_page.stopped,key_resp.keys,key_resp.rt,key_resp.duration,instructions.started,ins.started,key_resp_2.started,instructions.stopped,key_resp_2.keys,key_resp_2.rt,key_resp_2.duration,objects_only_instruction.started,text_3.started,key_resp_3.started,objects_only_instruction.stopped,key_resp_3.keys,key_resp_3.rt,key_resp_3.duration,ISI.started,text_4.started,ISI.stopped,practice_block.started,image.started,text_5.started,key_resp_5.started,practice_block.stopped,practice.key_resp_5.keys,indoor_outdoor.started,text_7.started,key_resp_7.started,indoor_outdoor.stopped,practice.key_resp_7.keys,practice.key_resp_7.rt,practice.key_resp_7.duration,text_4.stopped,image.stopped,text_5.stopped,key_resp_5.stopped,practice.key_resp_5.rt,practice.key_resp_5.duration,practice_to_main.started,text_2.started,key_resp_4.started,practice_to_main.stopped,key_resp_4.keys,key_resp_4.rt,key_resp_4.duration,objects.started,image_2.started,text_9.started,key_resp_9.started,image_2.stopped,text_9.stopped,key_resp_9.stopped,objects.stopped,trials.key_resp_9.keys,trials.key_resp_9.rt,trials.key_resp_9.duration,encoding_task.started,encoding_task.stopped,trials.key_resp_8.keys,text_8.started,key_resp_8.started,trials.key_resp_8.rt,trials.key_resp_8.duration,end_experiment.started,text_6.started,key_resp_6.started,end_experiment.stopped,key_resp_6.keys,key_resp_6.rt,key_resp_6.duration,list_of_stimuli,encoding_task_accuracy,participant,session,date,expName,psychopyVersion,frameRate,expStart,
,,,,,,,,,,,,,,,,,,,,,,,,,0.0013702999567613006,0.003471999953035265,0.003471999953035265,18.609411599987652,space,18.600109299994074,None,,,,,,,,,,,,,,,,,,,,,,,,,,,,,,,,,,,,,,,,,,,,,,,,,,,,,,,,,,,,,,,,,,,,,,,00041,001,2026-01-23_18h51.27.276,MST_task,2024.2.0,59.84687577421824,2026-01-23 18h51.59.042180 +0530,
,,,,,,,,,,,,,,,,,,,,,,,,,,,,,,,,18.60945469996659,18.622677400009707,18.622677400009707,48.98716299998341,space,30.349199399992358,None,,,,,,,,,,,,,,,,,,,,,,,,,,,,,,,,,,,,,,,,,,,,,,,,,,,,,,,,,,,,,,,,00041,001,2026-01-23_18h51.27.276,MST_task,2024.2.0,59.84687577421824,2026-01-23 18h51.59.042180 +0530,
,,,,,,,,,,,,,,,,,,,,,,,,,,,,,,,,,,,,,,,48.987232899991795,49.00428719999036,49.00428719999036,121.73781199997757,space,72.72798969998257,None,,,,,,,,,,,,,,,,,,,,,,,,,,,,,,,,,,,,,,,,,,,,,,,,,,,,,,,,,00041,001,2026-01-23_18h51.27.276,MST_task,2024.2.0,59.84687577421824,2026-01-23 18h51.59.042180 +0530,
1,practice_images/013a.jpg,0,0,1,None,j,1.0215463999775238,None,,,,,,,,,1,0,0,,,,121.75382250000257,,,,,,,,,,,,,,,,,,,,,,,121.74888709996594,121.75382250000257,122.23812880000332,122.25763169996208,122.29004180000629,122.29004180000629,122.29004180000629,125.25423629995203,None,125.26152870000806,125.2704729999532,125.2704729999532,126.30409439996583,j,1.0215463999775238,None,,,,,,,,,,,,,,,,,,,,,,,,,,,,,,,,,,,,,,,,,00041,001,2026-01-23_18h51.27.276,MST_task,2024.2.0,59.84687577421824,2026-01-23 18h51.59.042180 +0530,
2,practice_images/031a.jpg,1,1,1,f,None,,,1.702647399972193,0.17683650000253692,,,,,,,1,1,1,,,,126.3204662000062,,,,,,,,,,,,,,,,,,,,,,,126.30442860000767,126.3204662000062,126.80421259999275,126.80944689997705,126.82066759996815,126.82066759996815,126.82066759996815,129.80402529996354,f,129.80421799997566,,,129.8042831000057,None,,,126.82066759996815,129.8204826999572,129.8204826999572,129.8204826999572,1.702647399972193,0.17683650000253692,,,,,,,,,,,,,,,,,,,,,,,,,,,,,,,,,,,00041,001,2026-01-23_18h51.27.276,MST_task,2024.2.0,59.84687577421824,2026-01-23 18h51.59.042180 +0530,
9,practice_images/180a.jpg,2,2,1,f,None,,,1.1787021000054665,0.17636149999452755,,,,,,,1,2,2,,,,129.8204826999572,,,,,,,,,,,,,,,,,,,,,,,129.80455419997452,129.8204826999572,130.30419609998353,130.3095725000021,130.32063909998396,130.32063909998396,130.32063909998396,133.30433789995732,f,133.30453089997172,,,133.3045971999527,None,,,130.32063909998396,133.3205173999886,133.3205173999886,133.3205173999886,1.1787021000054665,0.17636149999452755,,,,,,,,,,,,,,,,,,,,,,,,,,,,,,,,,,,00041,001,2026-01-23_18h51.27.276,MST_task,2024.2.0,59.84687577421824,2026-01-23 18h51.59.042180 +0530,
5,practice_images/139a.jpg,3,3,1,j,None,,,1.6390912999631837,0.07982770004309714,,,,,,,1,3,3,,,,133.3205173999886,,,,,,,,,,,,,,,,,,,,,,,133.3048654999584,133.3205173999886,133.80477319995407,133.81021450000117,133.8204901999561,133.8204901999561,133.8204901999561,136.80432219995419,j,136.80449959996622,,,136.80456349998713,None,,,133.8204901999561,136.82028139999602,136.82028139999602,136.82028139999602,1.6390912999631837,0.07982770004309714,,,,,,,,,,,,,,,,,,,,,,,,,,,,,,,,,,,00041,001,2026-01-23_18h51.27.276,MST_task,2024.2.0,59.84687577421824,2026-01-23 18h51.59.042180 +0530,
3,practice_images/037a.jpg,4,4,1,f,None,,,1.6984437000355683,0.20017299999017268,,,,,,,1,4,4,,,,136.82028139999602,,,,,,,,,,,,,,,,,,,,,,,136.80483149999054,136.82028139999602,137.30419709999114,137.30985339998733,137.3214653999894,137.3214653999894,137.3214653999894,140.30438429996138,f,140.30456419999246,,,140.30462889996124,None,,,137.3214653999894,140.32028669997817,140.32028669997817,140.32028669997817,1.6984437000355683,0.20017299999017268,,,,,,,,,,,,,,,,,,,,,,,,,,,,,,,,,,,00041,001,2026-01-23_18h51.27.276,MST_task,2024.2.0,59.84687577421824,2026-01-23 18h51.59.042180 +0530,
6,practice_images/158a.jpg,5,5,1,j,None,,,0.8712572000222281,0.16745469998568296,,,,,,,1,5,5,,,,140.32028669997817,,,,,,,,,,,,,,,,,,,,,,,140.30489959998522,140.32028669997817,140.8041919999523,140.80962079996243,140.8206811999553,140.8206811999553,140.8206811999553,143.80447159998585,j,143.80463879997842,,,143.8046975999605,None,,,140.8206811999553,143.82052760000806,143.82052760000806,143.82052760000806,0.8712572000222281,0.16745469998568296,,,,,,,,,,,,,,,,,,,,,,,,,,,,,,,,,,,00041,001,2026-01-23_18h51.27.276,MST_task,2024.2.0,59.84687577421824,2026-01-23 18h51.59.042180 +0530,
7,practice_images/166a.jpg,6,6,1,f,None,,,1.4754059999831952,0.23200240003643557,,,,,,,1,6,6,,,,143.82052760000806,,,,,,,,,,,,,,,,,,,,,,,143.8049614999909,143.82052760000806,144.30420279997634,144.30938709998736,144.32033379998757,144.32033379998757,144.32033379998757,147.30455699999584,f,147.3047341000056,,,147.30479829997057,None,,,144.32033379998757,147.3201235999586,147.3201235999586,147.3201235999586,1.4754059999831952,0.23200240003643557,,,,,,,,,,,,,,,,,,,,,,,,,,,,,,,,,,,00041,001,2026-01-23_18h51.27.276,MST_task,2024.2.0,59.84687577421824,2026-01-23 18h51.59.042180 +0530,
10,practice_images/182a.jpg,7,7,1,f,None,,,0.9990077999536879,0.19209970004158095,,,,,,,1,7,7,,,,147.3201235999586,,,,,,,,,,,,,,,,,,,,,,,147.30508209997788,147.3201235999586,147.80420229997253,147.8092376999557,147.8206438999623,147.8206438999623,147.8206438999623,150.80436169996392,f,150.8045412999927,,,150.80460430000676,None,,,147.8206438999623,150.82033909996971,150.82033909996971,150.82033909996971,0.9990077999536879,0.19209970004158095,,,,,,,,,,,,,,,,,,,,,,,,,,,,,,,,,,,00041,001,2026-01-23_18h51.27.276,MST_task,2024.2.0,59.84687577421824,2026-01-23 18h51.59.042180 +0530,
8,practice_images/178a.jpg,8,8,1,j,None,,,1.7786429999978282,0.19217170000774786,,,,,,,1,8,8,,,,150.82033909996971,,,,,,,,,,,,,,,,,,,,,,,150.80488079995848,150.82033909996971,151.30471850000322,151.30967619997682,151.32066530000884,151.32066530000884,151.32066530000884,154.30425069999183,j,154.3044292999548,,,154.3044936999795,None,,,151.32066530000884,154.32030219997978,154.32030219997978,154.32030219997978,1.7786429999978282,0.19217170000774786,,,,,,,,,,,,,,,,,,,,,,,,,,,,,,,,,,,00041,001,2026-01-23_18h51.27.276,MST_task,2024.2.0,59.84687577421824,2026-01-23 18h51.59.042180 +0530,
4,practice_images/002b.jpg,9,9,1,f,None,,,2.4547069999971427,0.2001204999978654,,,,,,,1,9,9,,,,154.32030219997978,,,,,,,,,,,,,,,,,,,,,,,154.3048814999638,154.32030219997978,154.80424149997998,154.8102818999905,154.82091589999618,154.82091589999618,154.82091589999618,157.80437969998457,f,157.80455419997452,,,157.80461819999618,None,,,154.82091589999618,157.82027869997546,157.82027869997546,157.82027869997546,2.4547069999971427,0.2001204999978654,,,,,,,,,,,,,,,,,,,,,,,,,,,,,,,,,,,00041,001,2026-01-23_18h51.27.276,MST_task,2024.2.0,59.84687577421824,2026-01-23 18h51.59.042180 +0530,
,,,,,,,,,,,,,,,,,,,,,,,,,,,,,,,,,,,,,,,,,,,,,,,,,,,,,,,,,,,,,,,,,,,,157.80480119999265,157.82027869997546,157.82027869997546,166.82107669999823,space,8.991662799962796,None,,,,,,,,,,,,,,,,,,,,,,,,,,,,00041,001,2026-01-23_18h51.27.276,MST_task,2024.2.0,59.84687577421824,2026-01-23 18h51.59.042180 +0530,
,Objects\169a.jpg,0,0,1,,,,,,,j,2.042047399969306,0.14409290003823116,None,,,,,,1,0,0,166.83745140000246,,,,,,,,,,,,,,,,,,,,,,,166.82422690000385,166.83745140000246,167.3207833999768,,,,,,,,,,,,,,167.3373560999753,,,,,,,,,,,,,167.33151029999135,167.3373560999753,167.3373560999753,167.3373560999753,170.3370414999663,170.3370414999663,170.3370414999663,170.32151199999498,j,2.042047399969306,0.14409290003823116,170.32777329999954,170.32781339995563,None,,,,,,,,,,,,,,00041,001,2026-01-23_18h51.27.276,MST_task,2024.2.0,59.84687577421824,2026-01-23 18h51.59.042180 +0530,
,Objects\001a.jpg,1,0,2,,,,,,,f,1.5023641999578103,0.16775770002277568,None,,,,,,2,0,1,170.3370414999663,,,,,,,,,,,,,,,,,,,,,,,170.32797119999304,170.3370414999663,170.82088909996673,,,,,,,,,,,,,,170.83732960000634,,,,,,,,,,,,,170.8294749999768,170.83732960000634,170.83732960000634,170.83732960000634,173.83684959996026,173.83684959996026,173.83684959996026,173.8216584000038,f,1.5023641999578103,0.16775770002277568,173.82185879995814,173.82191759999841,None,,,,,,,,,,,,,,00041,001,2026-01-23_18h51.27.276,MST_task,2024.2.0,59.84687577421824,2026-01-23 18h51.59.042180 +0530,
,Objects\049a.jpg,2,0,3,,,,,,,f,1.8905651000095531,0.2158140999963507,None,,,,,,3,0,2,173.83684959996026,,,,,,,,,,,,,,,,,,,,,,,173.82221189996926,173.83684959996026,174.32137620000867,,,,,,,,,,,,,,174.33737709996058,,,,,,,,,,,,,174.3295921999961,174.33737709996058,174.33737709996058,174.33737709996058,177.33700769999996,177.33700769999996,177.33700769999996,177.32164889998967,f,1.8905651000095531,0.2158140999963507,177.3218421000056,177.32190479995916,None,,,,,,,,,,,,,,00041,001,2026-01-23_18h51.27.276,MST_task,2024.2.0,59.84687577421824,2026-01-23 18h51.59.042180 +0530,
,Objects\186a.jpg,3,0,4,,,,,,,f,2.0625039000296965,0.2079824999673292,None,,,,,,4,0,3,177.33700769999996,,,,,,,,,,,,,,,,,,,,,,,177.322207899997,177.33700769999996,177.82072919997154,,,,,,,,,,,,,,177.83707389998017,,,,,,,,,,,,,177.82963659998495,177.83707389998017,177.83707389998017,177.83707389998017,180.8370737999794,180.8370737999794,180.8370737999794,180.82171990000643,f,2.0625039000296965,0.2079824999673292,180.8219310999848,180.82199209998362,None,,,,,,,,,,,,,,00041,001,2026-01-23_18h51.27.276,MST_task,2024.2.0,59.84687577421824,2026-01-23 18h51.59.042180 +0530,
,Objects\168a.jpg,4,0,5,,,,,,,None,,,j,0.11512450000736862,None,,,,5,0,4,180.8370737999794,,,,,,,,,,,,,,,,,,,,,,,180.82230749999871,180.8370737999794,181.32086079998408,,,,,,,,,,,,,,181.33735240000533,,,,,,,,,,,,,181.32873329997528,181.33735240000533,181.33735240000533,181.33735240000533,184.33682709996356,184.33682709996356,184.33682709996356,184.32140660000732,None,,,184.32158950000303,184.45405469997786,j,184.33682709996356,184.33682709996356,0.11512450000736862,None,,,,,,,,,,00041,001,2026-01-23_18h51.27.276,MST_task,2024.2.0,59.84687577421824,2026-01-23 18h51.59.042180 +0530,
,Objects\184a.jpg,5,0,6,,,,,,,j,1.5524810000206344,0.17687030002707615,None,,,,,,6,0,5,184.47047409997322,,,,,,,,,,,,,,,,,,,,,,,184.45450289995642,184.47047409997322,184.9542007999844,,,,,,,,,,,,,,184.97074069996597,,,,,,,,,,,,,184.96259519999148,184.97074069996597,184.97074069996597,184.97074069996597,187.9702479999978,187.9702479999978,187.9702479999978,187.95501129998593,j,1.5524810000206344,0.17687030002707615,187.95521049998933,187.95527199999196,None,,,,,,,,,,,,,,00041,001,2026-01-23_18h51.27.276,MST_task,2024.2.0,59.84687577421824,2026-01-23 18h51.59.042180 +0530,
,Objects\165a.jpg,6,0,7,,,,,,,f,1.6055130999884568,0.14377210004022345,None,,,,,,7,0,6,187.9702479999978,,,,,,,,,,,,,,,,,,,,,,,187.95564559998456,187.9702479999978,188.45408239995595,,,,,,,,,,,,,,188.47038479999173,,,,,,,,,,,,,188.46242870000424,188.47038479999173,188.47038479999173,188.47038479999173,191.47036579996347,191.47036579996347,191.47036579996347,191.45498509996105,f,1.6055130999884568,0.14377210004022345,191.45518220000667,191.45524099998875,None,,,,,,,,,,,,,,00041,001,2026-01-23_18h51.27.276,MST_task,2024.2.0,59.84687577421824,2026-01-23 18h51.59.042180 +0530,
,Scenes\010a.jpg,7,0,8,,,,,,,j,1.26840150001226,0.12795120000373572,None,,,,,,8,0,7,191.47036579996347,,,,,,,,,,,,,,,,,,,,,,,191.455615999992,191.47036579996347,191.954949499981,,,,,,,,,,,,,,191.97512259997893,,,,,,,,,,,,,191.97246809996432,191.97512259997893,191.97512259997893,191.97512259997893,,,,194.97087149997242,j,1.26840150001226,0.12795120000373572,194.97106650000205,194.97113219997846,None,,,,,,,,,,,,,,00041,001,2026-01-23_18h51.27.276,MST_task,2024.2.0,59.84687577421824,2026-01-23 18h51.59.042180 +0530,
,Scenes\094a.jpg,8,0,9,,,,,,,f,1.8439515000209212,0.18419770000036806,None,,,,,,9,0,8,194.98708019999322,,,,,,,,,,,,,,,,,,,,,,,194.9714973999653,194.98708019999322,195.47057909995783,,,,,,,,,,,,,,195.48797889996786,,,,,,,,,,,,,195.48537349997787,195.48797889996786,195.48797889996786,195.48797889996786,198.48675149999326,198.48675149999326,198.48675149999326,198.47169459995348,f,1.8439515000209212,0.18419770000036806,198.4718911999953,198.47195099998498,None,,,,,,,,,,,,,,00041,001,2026-01-23_18h51.27.276,MST_task,2024.2.0,59.84687577421824,2026-01-23 18h51.59.042180 +0530,
,Scenes\149a.jpg,9,0,10,,,,,,,j,1.4857555000344291,0.1194965000031516,None,,,,,,10,0,9,198.48675149999326,,,,,,,,,,,,,,,,,,,,,,,198.47224969998933,198.48675149999326,198.97161989996675,,,,,,,,,,,,,,198.99024579999968,,,,,,,,,,,,,198.987957299978,198.99024579999968,198.99024579999968,198.99024579999968,,,,201.98746529995697,j,1.4857555000344291,0.1194965000031516,201.9876857000054,201.98775299999397,None,,,,,,,,,,,,,,00041,001,2026-01-23_18h51.27.276,MST_task,2024.2.0,59.84687577421824,2026-01-23 18h51.59.042180 +0530,
,Scenes\150a.jpg,10,0,11,,,,,,,j,1.153514500008896,0.11157200002344325,None,,,,,,11,0,10,202.00382300000638,,,,,,,,,,,,,,,,,,,,,,,201.9880791999749,202.00382300000638,202.48802669998258,,,,,,,,,,,,,,202.50639289995888,,,,,,,,,,,,,202.50375499995425,202.50639289995888,202.50639289995888,202.50639289995888,,,,205.5041946999845,j,1.153514500008896,0.11157200002344325,205.5043985999655,205.5044627999887,None,,,,,,,,,,,,,,00041,001,2026-01-23_18h51.27.276,MST_task,2024.2.0,59.84687577421824,2026-01-23 18h51.59.042180 +0530,
,Scenes\115a.jpg,11,0,12,,,,,,,j,1.3793095999862999,0.11206499999389052,None,,,,,,12,0,11,205.52046799997333,,,,,,,,,,,,,,,,,,,,,,,205.50482699996792,205.52046799997333,206.00451179995434,,,,,,,,,,,,,,206.04076279996661,,,,,,,,,,,,,206.03801249997923,206.04076279996661,206.04076279996661,206.04076279996661,,,,209.0208602999919,j,1.3793095999862999,0.11206499999389052,209.02105729997857,209.02112339995801,None,,,,,,,,,,,,,,00041,001,2026-01-23_18h51.27.276,MST_task,2024.2.0,59.84687577421824,2026-01-23 18h51.59.042180 +0530,
,Scenes\139a.jpg,12,0,13,,,,,,,j,1.5927014999906532,0.10376760002691299,None,,,,,,13,0,12,209.03677030000836,,,,,,,,,,,,,,,,,,,,,,,209.02141699998174,209.03677030000836,209.52068349998444,,,,,,,,,,,,,,209.53921909997007,,,,,,,,,,,,,209.53625379997538,209.53921909997007,209.53921909997007,209.53921909997007,,,,212.5372764999629,j,1.5927014999906532,0.10376760002691299,212.53747719997773,212.5375429999549,None,,,,,,,,,,,,,,00041,001,2026-01-23_18h51.27.276,MST_task,2024.2.0,59.84687577421824,2026-01-23 18h51.59.042180 +0530,
,Scenes\038a.jpg,13,0,14,,,,,,,j,1.0546233999775723,0.09575750003568828,None,,,,,,14,0,13,212.5546527999686,,,,,,,,,,,,,,,,,,,,,,,212.53790989995468,212.5546527999686,213.05390840000473,,,,,,,,,,,,,,,,,,,,,,,,,,,213.0743889999576,213.07730929995887,213.07730929995887,213.07730929995887,,,,216.05420839996077,j,1.0546233999775723,0.09575750003568828,216.05441409995547,216.05448009999236,None,,,,,,,,,,,,,,00041,001,2026-01-23_18h51.27.276,MST_task,2024.2.0,59.84687577421824,2026-01-23 18h51.59.042180 +0530,
,Objects\110a.jpg,14,0,15,,,,,,,f,1.8092686999589205,0.19997680000960827,None,,,,,,15,0,14,216.07047689997125,,,,,,,,,,,,,,,,,,,,,,,216.05484309996245,216.07047689997125,216.55421239999123,,,,,,,,,,,,,,216.5703222999582,,,,,,,,,,,,,216.56777739996323,216.5703222999582,216.5703222999582,216.5703222999582,219.570495699998,219.570495699998,219.570495699998,219.55508829996688,f,1.8092686999589205,0.19997680000960827,219.55528209998738,219.55534199997783,None,,,,,,,,,,,,,,00041,001,2026-01-23_18h51.27.276,MST_task,2024.2.0,59.84687577421824,2026-01-23 18h51.59.042180 +0530,
,Objects\041a.jpg,15,0,16,,,,,,,j,2.149522399995476,0.1034537999657914,None,,,,,,16,0,15,219.570495699998,,,,,,,,,,,,,,,,,,,,,,,219.5556426999974,219.570495699998,220.05421420000494,,,,,,,,,,,,,,220.07041220000247,,,,,,,,,,,,,220.06312359997537,220.07041220000247,220.07041220000247,220.07041220000247,223.07047769997735,223.07047769997735,223.07047769997735,223.0550155999954,j,2.149522399995476,0.1034537999657914,223.0552126999828,223.0552737999824,None,,,,,,,,,,,,,,00041,001,2026-01-23_18h51.27.276,MST_task,2024.2.0,59.84687577421824,2026-01-23 18h51.59.042180 +0530,
,Objects\076a.jpg,16,0,17,,,,,,,j,1.7287537000374869,0.09614039998268709,None,,,,,,17,0,16,223.07047769997735,,,,,,,,,,,,,,,,,,,,,,,223.05564189999131,223.07047769997735,223.55423979996704,,,,,,,,,,,,,,223.57072079996578,,,,,,,,,,,,,223.56353509996552,223.57072079996578,223.57072079996578,223.57072079996578,226.57047799997963,226.57047799997963,226.57047799997963,226.55477639997844,j,1.7287537000374869,0.09614039998268709,226.55497409997042,226.5550341999624,None,,,,,,,,,,,,,,00041,001,2026-01-23_18h51.27.276,MST_task,2024.2.0,59.84687577421824,2026-01-23 18h51.59.042180 +0530,
,Objects\056a.jpg,17,0,18,,,,,,,j,2.029335000028368,0.19204789999639615,None,,,,,,18,0,17,226.57047799997963,,,,,,,,,,,,,,,,,,,,,,,226.55540139996447,226.57047799997963,227.05421189998742,,,,,,,,,,,,,,227.07069809996756,,,,,,,,,,,,,227.05931459995918,227.07069809996756,227.07069809996756,227.07069809996756,230.07082229998196,230.07082229998196,230.07082229998196,230.05506169999717,j,2.029335000028368,0.19204789999639615,230.05525609996403,230.05531470000278,None,,,,,,,,,,,,,,00041,001,2026-01-23_18h51.27.276,MST_task,2024.2.0,59.84687577421824,2026-01-23 18h51.59.042180 +0530,
,Objects\171a.jpg,18,0,19,,,,,,,f,1.1368787999963388,0.1687720000045374,None,,,,,,19,0,18,230.07082229998196,,,,,,,,,,,,,,,,,,,,,,,230.05561389995273,230.07082229998196,230.55421889998252,,,,,,,,,,,,,,230.57041609997395,,,,,,,,,,,,,230.55976879998343,230.57041609997395,230.57041609997395,230.57041609997395,233.57047179999063,233.57047179999063,233.57047179999063,233.55500409996603,f,1.1368787999963388,0.1687720000045374,233.55520090000937,233.5552616000059,None,,,,,,,,,,,,,,00041,001,2026-01-23_18h51.27.276,MST_task,2024.2.0,59.84687577421824,2026-01-23 18h51.59.042180 +0530,
,Objects\037a.jpg,19,0,20,,,,,,,f,1.9564322999794967,0.1683648000471294,None,,,,,,20,0,19,233.57047179999063,,,,,,,,,,,,,,,,,,,,,,,233.5556299999589,233.57047179999063,234.05423589999555,,,,,,,,,,,,,,234.07089059997816,,,,,,,,,,,,,234.06380020000506,234.07089059997816,234.07089059997816,234.07089059997816,237.07080059999134,237.07080059999134,237.07080059999134,237.05501099996036,f,1.9564322999794967,0.1683648000471294,237.05521419999423,237.05527479999,None,,,,,,,,,,,,,,00041,001,2026-01-23_18h51.27.276,MST_task,2024.2.0,59.84687577421824,2026-01-23 18h51.59.042180 +0530,
,Objects\024a.jpg,20,0,21,,,,,,,f,1.9845362000050955,0.22486719995504245,None,,,,,,21,0,20,237.07080059999134,,,,,,,,,,,,,,,,,,,,,,,237.05565209995257,237.07080059999134,237.5542359999963,,,,,,,,,,,,,,237.5706736999564,,,,,,,,,,,,,237.56379949999973,237.5706736999564,237.5706736999564,237.5706736999564,240.57021430000896,240.57021430000896,240.57021430000896,240.55495469999732,f,1.9845362000050955,0.22486719995504245,240.55514989997027,240.55521049996605,None,,,,,,,,,,,,,,00041,001,2026-01-23_18h51.27.276,MST_task,2024.2.0,59.84687577421824,2026-01-23 18h51.59.042180 +0530,
,Scenes\021a.jpg,21,0,22,,,,,,,j,2.035756599972956,0.16894760000286624,None,,,,,,22,0,21,240.57021430000896,,,,,,,,,,,,,,,,,,,,,,,240.55558280000696,240.57021430000896,241.0539032999659,,,,,,,,,,,,,,241.07139689999167,,,,,,,,,,,,,241.06858379999176,241.07139689999167,241.07139689999167,241.07139689999167,244.070149999985,244.070149999985,244.070149999985,244.05579219997162,j,2.035756599972956,0.16894760000286624,244.0559914999758,244.0560522999731,None,,,,,,,,,,,,,,00041,001,2026-01-23_18h51.27.276,MST_task,2024.2.0,59.84687577421824,2026-01-23 18h51.59.042180 +0530,
,Scenes\129a.jpg,22,0,23,,,,,,,j,1.8324569999822415,0.12001450004754588,None,,,,,,23,0,22,244.070149999985,,,,,,,,,,,,,,,,,,,,,,,244.05635199998505,244.070149999985,244.55393039999763,,,,,,,,,,,,,,244.57093529996928,,,,,,,,,,,,,244.5675588999875,244.57093529996928,244.57093529996928,244.57093529996928,247.57051729998784,247.57051729998784,247.57051729998784,247.55503039999167,j,1.8324569999822415,0.12001450004754588,247.5552279999829,247.55528759997105,None,,,,,,,,,,,,,,00041,001,2026-01-23_18h51.27.276,MST_task,2024.2.0,59.84687577421824,2026-01-23 18h51.59.042180 +0530,
,Scenes\034a.jpg,23,0,24,,,,,,,j,2.6172390999854542,0.15218370000366122,None,,,,,,24,0,23,247.57051729998784,,,,,,,,,,,,,,,,,,,,,,,247.55558069999097,247.57051729998784,248.05424409999978,,,,,,,,,,,,,,248.08225809998112,,,,,,,,,,,,,248.07926109997788,248.08225809998112,248.08225809998112,248.08225809998112,,,,251.0708415999543,j,2.6172390999854542,0.15218370000366122,251.07105079997564,251.07111630000873,None,,,,,,,,,,,,,,00041,001,2026-01-23_18h51.27.276,MST_task,2024.2.0,59.84687577421824,2026-01-23 18h51.59.042180 +0530,
,Scenes\155a.jpg,24,0,25,,,,,,,j,1.65916159999324,0.09618430002592504,None,,,,,,25,0,24,251.08710599999176,,,,,,,,,,,,,,,,,,,,,,,251.07148769998457,251.08710599999176,251.5709271999658,,,,,,,,,,,,,,251.5927147999755,,,,,,,,,,,,,251.5895237000077,251.5927147999755,251.5927147999755,251.5927147999755,,,,254.58740209997632,j,1.65916159999324,0.09618430002592504,254.58760839997558,254.58767539996188,None,,,,,,,,,,,,,,00041,001,2026-01-23_18h51.27.276,MST_task,2024.2.0,59.84687577421824,2026-01-23 18h51.59.042180 +0530,
,Scenes\109a.jpg,25,0,26,,,,,,,j,1.7218386000022292,0.1680218999972567,None,,,,,,26,0,25,254.6039779999992,,,,,,,,,,,,,,,,,,,,,,,254.58806159999222,254.6039779999992,255.08749030000763,,,,,,,,,,,,,,255.1056368999998,,,,,,,,,,,,,255.10315300000366,255.1056368999998,255.1056368999998,255.1056368999998,,,,258.10421610000776,j,1.7218386000022292,0.1680218999972567,258.1044175999705,258.1044845999568,None,,,,,,,,,,,,,,00041,001,2026-01-23_18h51.27.276,MST_task,2024.2.0,59.84687577421824,2026-01-23 18h51.59.042180 +0530,
,Scenes\187a.jpg,26,0,27,,,,,,,j,1.006508800026495,0.19279349996941164,None,,,,,,27,0,26,258.12050499999896,,,,,,,,,,,,,,,,,,,,,,,258.104775899963,258.12050499999896,258.6040493999608,,,,,,,,,,,,,,258.62090989999706,,,,,,,,,,,,,258.6168798999861,258.62090989999706,258.62090989999706,258.62090989999706,261.6209505999577,261.6209505999577,261.6209505999577,261.60513489996083,j,1.006508800026495,0.19279349996941164,261.60528129996965,261.6053230999969,None,,,,,,,,,,,,,,00041,001,2026-01-23_18h51.27.276,MST_task,2024.2.0,59.84687577421824,2026-01-23 18h51.59.042180 +0530,
,Scenes\097a.jpg,27,0,28,,,,,,,j,1.818260400032159,0.20867329998873174,None,,,,,,28,0,27,261.6209505999577,,,,,,,,,,,,,,,,,,,,,,,261.60552679997636,261.6209505999577,262.1042158000055,,,,,,,,,,,,,,262.1210993999848,,,,,,,,,,,,,262.11289379996015,262.1210993999848,262.1210993999848,262.1210993999848,265.12076269998215,265.12076269998215,265.12076269998215,265.1050653999555,j,1.818260400032159,0.20867329998873174,265.10526629997185,265.10532759997295,None,,,,,,,,,,,,,,00041,001,2026-01-23_18h51.27.276,MST_task,2024.2.0,59.84687577421824,2026-01-23 18h51.59.042180 +0530,
,Objects\098a.jpg,28,0,29,,,,,,,f,2.318425700010266,0.1680968999862671,None,,,,,,29,0,28,265.12076269998215,,,,,,,,,,,,,,,,,,,,,,,265.1057012999663,265.12076269998215,265.6042219999945,,,,,,,,,,,,,,265.6209109000047,,,,,,,,,,,,,265.6148739999626,265.6209109000047,265.6209109000047,265.6209109000047,268.6211578999646,268.6211578999646,268.6211578999646,268.60510169999907,f,2.318425700010266,0.1680968999862671,268.6053062999854,268.60536589997355,None,,,,,,,,,,,,,,00041,001,2026-01-23_18h51.27.276,MST_task,2024.2.0,59.84687577421824,2026-01-23 18h51.59.042180 +0530,
,Objects\114a.jpg,29,0,30,,,,,,,f,1.3228967000031844,0.24035909998929128,None,,,,,,30,0,29,268.6211578999646,,,,,,,,,,,,,,,,,,,,,,,268.605746599962,268.6211578999646,269.10494489996927,,,,,,,,,,,,,,269.12077479995787,,,,,,,,,,,,,269.11226949997945,269.12077479995787,269.12077479995787,269.12077479995787,272.120786399988,272.120786399988,272.120786399988,272.1050208999659,f,1.3228967000031844,0.24035909998929128,272.10521869995864,272.1052767999936,None,,,,,,,,,,,,,,00041,001,2026-01-23_18h51.27.276,MST_task,2024.2.0,59.84687577421824,2026-01-23 18h51.59.042180 +0530,
,Objects\187a.jpg,30,0,31,,,,,,,f,1.65460859995801,0.1926563000306487,None,,,,,,31,0,30,272.120786399988,,,,,,,,,,,,,,,,,,,,,,,272.10557469999185,272.120786399988,272.60422099998686,,,,,,,,,,,,,,272.6207876999979,,,,,,,,,,,,,272.61068379995413,272.6207876999979,272.6207876999979,272.6207876999979,275.6203317999607,275.6203317999607,275.6203317999607,275.60483239998575,f,1.65460859995801,0.1926563000306487,275.605029999977,275.6050877000089,None,,,,,,,,,,,,,,00041,001,2026-01-23_18h51.27.276,MST_task,2024.2.0,59.84687577421824,2026-01-23 18h51.59.042180 +0530,
,Objects\016a.jpg,31,0,32,,,,,,,f,2.002188699960243,0.19251030002487823,None,,,,,,32,0,31,275.6203317999607,,,,,,,,,,,,,,,,,,,,,,,275.60546369996155,275.6203317999607,276.1044338999782,,,,,,,,,,,,,,276.1209586999612,,,,,,,,,,,,,276.11369899997953,276.1209586999612,276.1209586999612,276.1209586999612,279.1209646000061,279.1209646000061,279.1209646000061,279.10506989998976,f,2.002188699960243,0.19251030002487823,279.10527279996313,279.1053319000057,None,,,,,,,,,,,,,,00041,001,2026-01-23_18h51.27.276,MST_task,2024.2.0,59.84687577421824,2026-01-23 18h51.59.042180 +0530,
,Objects\191a.jpg,32,0,33,,,,,,,j,1.5268349000252783,0.15208579995669425,None,,,,,,33,0,32,279.1209646000061,,,,,,,,,,,,,,,,,,,,,,,279.1057095999713,279.1209646000061,279.60445669997716,,,,,,,,,,,,,,279.6205195999937,,,,,,,,,,,,,279.61314219998894,279.6205195999937,279.6205195999937,279.6205195999937,282.6202036999748,282.6202036999748,282.6202036999748,282.6048316999804,j,1.5268349000252783,0.15208579995669425,282.6050379999797,282.6050986999762,None,,,,,,,,,,,,,,00041,001,2026-01-23_18h51.27.276,MST_task,2024.2.0,59.84687577421824,2026-01-23 18h51.59.042180 +0530,
,Objects\055a.jpg,33,0,34,,,,,,,f,2.3229598000179976,0.19372979999752715,None,,,,,,34,0,33,282.6202036999748,,,,,,,,,,,,,,,,,,,,,,,282.60548209998524,282.6202036999748,283.10407619999023,,,,,,,,,,,,,,283.12091529997997,,,,,,,,,,,,,283.11237839999376,283.12091529997997,283.12091529997997,283.12091529997997,286.120817499992,286.120817499992,286.120817499992,286.1046844999655,f,2.3229598000179976,0.19372979999752715,286.10488619998796,286.1049463999807,None,,,,,,,,,,,,,,00041,001,2026-01-23_18h51.27.276,MST_task,2024.2.0,59.84687577421824,2026-01-23 18h51.59.042180 +0530,
,Objects\064a.jpg,34,0,35,,,,,,,None,,,f,0.1506364000379108,None,,,,35,0,34,286.120817499992,,,,,,,,,,,,,,,,,,,,,,,286.10525179997785,286.120817499992,286.6044237999595,,,,,,,,,,,,,,286.6206816000049,,,,,,,,,,,,,286.61231319996295,286.6206816000049,286.6206816000049,286.6206816000049,289.6204913999536,289.6204913999536,289.6204913999536,289.6050686999806,None,,,289.6052518999786,289.78723259997787,f,289.6204913999536,289.6204913999536,0.1506364000379108,None,,,,,,,,,,00041,001,2026-01-23_18h51.27.276,MST_task,2024.2.0,59.84687577421824,2026-01-23 18h51.59.042180 +0530,
,Scenes\120a.jpg,35,0,36,,,,,,,j,1.858556499995757,0.16780340002151206,None,,,,,,36,0,35,289.8038693999988,,,,,,,,,,,,,,,,,,,,,,,289.78768149996176,289.8038693999988,290.2874914999702,,,,,,,,,,,,,,290.3130090999766,,,,,,,,,,,,,290.31019429996377,290.3130090999766,290.3130090999766,290.3130090999766,,,,293.2875832999707,j,1.858556499995757,0.16780340002151206,293.2877807999612,293.28784760000417,None,,,,,,,,,,,,,,00041,001,2026-01-23_18h51.27.276,MST_task,2024.2.0,59.84687577421824,2026-01-23 18h51.59.042180 +0530,
,Scenes\027a.jpg,36,0,37,,,,,,,f,2.2313376999809407,0.16797469998709857,None,,,,,,37,0,36,293.3038281999761,,,,,,,,,,,,,,,,,,,,,,,293.2882174999686,293.3038281999761,293.7871521000052,,,,,,,,,,,,,,293.80418589996407,,,,,,,,,,,,,293.801315299992,293.80418589996407,293.80418589996407,293.80418589996407,296.80405999999493,296.80405999999493,296.80405999999493,296.7881555999629,f,2.2313376999809407,0.16797469998709857,296.78835399996024,296.7884140999522,None,,,,,,,,,,,,,,00041,001,2026-01-23_18h51.27.276,MST_task,2024.2.0,59.84687577421824,2026-01-23 18h51.59.042180 +0530,
,Scenes\162a.jpg,37,0,38,,,,,,,j,1.3030846000183374,0.20888609997928143,None,,,,,,38,0,37,296.80405999999493,,,,,,,,,,,,,,,,,,,,,,,296.788716799987,296.80405999999493,297.287504399952,,,,,,,,,,,,,,297.3081562999869,,,,,,,,,,,,,297.30504030000884,297.3081562999869,297.3081562999869,297.3081562999869,,,,300.30423789995257,j,1.3030846000183374,0.20888609997928143,300.3044432000024,300.3045081999735,None,,,,,,,,,,,,,,00041,001,2026-01-23_18h51.27.276,MST_task,2024.2.0,59.84687577421824,2026-01-23 18h51.59.042180 +0530,
,Scenes\087a.jpg,38,0,39,,,,,,,j,1.7023988000000827,0.1598975999513641,None,,,,,,39,0,38,300.32049759995425,,,,,,,,,,,,,,,,,,,,,,,300.3048714000033,300.32049759995425,300.8038119999692,,,,,,,,,,,,,,300.8210943999584,,,,,,,,,,,,,300.8156219999655,300.8210943999584,300.8210943999584,300.8210943999584,303.82024849997833,303.82024849997833,303.82024849997833,303.8052273999783,j,1.7023988000000827,0.1598975999513641,303.80543839995516,303.80549919995246,None,,,,,,,,,,,,,,00041,001,2026-01-23_18h51.27.276,MST_task,2024.2.0,59.84687577421824,2026-01-23 18h51.59.042180 +0530,
,Scenes\133a.jpg,39,0,40,,,,,,,j,0.9597335000289604,0.16808099998161197,None,,,,,,40,0,39,303.82024849997833,,,,,,,,,,,,,,,,,,,,,,,303.80579989997204,303.82024849997833,304.30496400000993,,,,,,,,,,,,,,304.3241232999717,,,,,,,,,,,,,304.3215205000015,304.3241232999717,304.3241232999717,304.3241232999717,,,,307.3213141000015,j,0.9597335000289604,0.16808099998161197,307.32151699997485,307.3215830999543,None,,,,,,,,,,,,,,00041,001,2026-01-23_18h51.27.276,MST_task,2024.2.0,59.84687577421824,2026-01-23 18h51.59.042180 +0530,
,Scenes\152a.jpg,40,0,41,,,,,,,j,1.3938737999997102,0.17678620002698153,None,,,,,,41,0,40,307.3370931999525,,,,,,,,,,,,,,,,,,,,,,,307.32195089996094,307.3370931999525,307.8208974999725,,,,,,,,,,,,,,307.84135100001004,,,,,,,,,,,,,307.83824049995746,307.84135100001004,307.84135100001004,307.84135100001004,,,,310.8374802999897,j,1.3938737999997102,0.17678620002698153,310.8376806000015,310.83774609997636,None,,,,,,,,,,,,,,00041,001,2026-01-23_18h51.27.276,MST_task,2024.2.0,59.84687577421824,2026-01-23 18h51.59.042180 +0530,
,Scenes\143a.jpg,41,0,42,,,,,,,j,1.902099700004328,0.15269660000922158,None,,,,,,42,0,41,310.8536632999894,,,,,,,,,,,,,,,,,,,,,,,310.83811199996853,310.8536632999894,311.3375086999731,,,,,,,,,,,,,,311.3653342999751,,,,,,,,,,,,,311.36255309998523,311.3653342999751,311.3653342999751,311.3653342999751,,,,314.33816729998216,j,1.902099700004328,0.15269660000922158,314.33837199996924,314.33843669999624,None,,,,,,,,,,,,,,00041,001,2026-01-23_18h51.27.276,MST_task,2024.2.0,59.84687577421824,2026-01-23 18h51.59.042180 +0530,
,Objects\068a.jpg,42,0,43,,,,,,,j,1.3166608000174165,0.20003780000843108,None,,,,,,43,0,42,314.3538236999884,,,,,,,,,,,,,,,,,,,,,,,314.3388054999523,314.3538236999884,314.8374965999974,,,,,,,,,,,,,,314.8547959999996,,,,,,,,,,,,,314.8494153000065,314.8547959999996,314.8547959999996,314.8547959999996,,,,317.8539168999996,j,1.3166608000174165,0.20003780000843108,317.8541212999844,317.85418739996385,None,,,,,,,,,,,,,,00041,001,2026-01-23_18h51.27.276,MST_task,2024.2.0,59.84687577421824,2026-01-23 18h51.59.042180 +0530,
,Objects\067a.jpg,43,0,44,,,,,,,j,2.0813400000333786,0.13587259995983914,None,,,,,,44,0,43,317.8704679000075,,,,,,,,,,,,,,,,,,,,,,,317.8544808999868,317.8704679000075,318.3542337999679,,,,,,,,,,,,,,318.37049389997264,,,,,,,,,,,,,318.363106899953,318.37049389997264,318.37049389997264,318.37049389997264,321.3702134999912,321.3702134999912,321.3702134999912,321.35445290000644,j,2.0813400000333786,0.13587259995983914,321.3546051000012,321.3546466999687,None,,,,,,,,,,,,,,00041,001,2026-01-23_18h51.27.276,MST_task,2024.2.0,59.84687577421824,2026-01-23 18h51.59.042180 +0530,
,Objects\004a.jpg,44,0,45,,,,,,,f,2.5814153000246733,0.21577889996115118,None,,,,,,45,0,44,321.3702134999912,,,,,,,,,,,,,,,,,,,,,,,321.35485080000944,321.3702134999912,321.85406369995326,,,,,,,,,,,,,,321.87043099995935,,,,,,,,,,,,,321.8627903999877,321.87043099995935,321.87043099995935,321.87043099995935,324.87016369996127,324.87016369996127,324.87016369996127,324.8546247999766,f,2.5814153000246733,0.21577889996115118,324.854821899964,324.85488159995293,None,,,,,,,,,,,,,,00041,001,2026-01-23_18h51.27.276,MST_task,2024.2.0,59.84687577421824,2026-01-23 18h51.59.042180 +0530,
,Objects\172a.jpg,45,0,46,,,,,,,j,1.8007335999864154,0.15985330002149567,None,,,,,,46,0,45,324.87016369996127,,,,,,,,,,,,,,,,,,,,,,,324.85516749997623,324.87016369996127,325.35494779999135,,,,,,,,,,,,,,325.3707384999725,,,,,,,,,,,,,325.3636253000004,325.3707384999725,325.3707384999725,325.3707384999725,328.3704918999574,328.3704918999574,328.3704918999574,328.35499619995244,j,1.8007335999864154,0.15985330002149567,328.3551977999741,328.3552558000083,None,,,,,,,,,,,,,,00041,001,2026-01-23_18h51.27.276,MST_task,2024.2.0,59.84687577421824,2026-01-23 18h51.59.042180 +0530,
,Objects\093a.jpg,46,0,47,,,,,,,j,2.276096999994479,0.09688939998159185,None,,,,,,47,0,46,328.3704918999574,,,,,,,,,,,,,,,,,,,,,,,328.35562689998187,328.3704918999574,328.854222199996,,,,,,,,,,,,,,328.87113169999793,,,,,,,,,,,,,328.86269529996207,328.87113169999793,328.87113169999793,328.87113169999793,331.8704937999719,331.8704937999719,331.8704937999719,331.8547476999811,j,2.276096999994479,0.09688939998159185,331.8549365999643,331.8549878000049,None,,,,,,,,,,,,,,00041,001,2026-01-23_18h51.27.276,MST_task,2024.2.0,59.84687577421824,2026-01-23 18h51.59.042180 +0530,
,Objects\123a.jpg,47,0,48,,,,,,,j,2.2167244000011124,0.13605440000537783,None,,,,,,48,0,47,331.8704937999719,,,,,,,,,,,,,,,,,,,,,,,331.85523779998766,331.8704937999719,332.35400859999936,,,,,,,,,,,,,,332.37051410001004,,,,,,,,,,,,,332.36243019998074,332.37051410001004,332.37051410001004,332.37051410001004,335.37050889997045,335.37050889997045,335.37050889997045,335.35508979996666,j,2.2167244000011124,0.13605440000537783,335.3552896999754,335.35534959996585,None,,,,,,,,,,,,,,00041,001,2026-01-23_18h51.27.276,MST_task,2024.2.0,59.84687577421824,2026-01-23 18h51.59.042180 +0530,
,Objects\029a.jpg,48,0,49,,,,,,,f,1.8125506999786012,0.1926456000073813,None,,,,,,49,0,48,335.37050889997045,,,,,,,,,,,,,,,,,,,,,,,335.35564949997934,335.37050889997045,335.85421869996935,,,,,,,,,,,,,,335.8707762999693,,,,,,,,,,,,,335.86241389997303,335.8707762999693,335.8707762999693,335.8707762999693,338.8705312999664,338.8705312999664,338.8705312999664,338.85502489999635,f,1.8125506999786012,0.1926456000073813,338.85522389999824,338.85528279998107,None,,,,,,,,,,,,,,00041,001,2026-01-23_18h51.27.276,MST_task,2024.2.0,59.84687577421824,2026-01-23 18h51.59.042180 +0530,
,Scenes\050a.jpg,49,0,50,,,,,,,j,1.4741467999992892,0.11218339996412396,None,,,,,,50,0,49,338.8705312999664,,,,,,,,,,,,,,,,,,,,,,,338.85565569996834,338.8705312999664,339.3540578999673,,,,,,,,,,,,,,339.37764709995827,,,,,,,,,,,,,339.37444799998775,339.37764709995827,339.37764709995827,339.37764709995827,,,,342.370894599997,j,1.4741467999992892,0.11218339996412396,342.3710978999734,342.3711638999521,None,,,,,,,,,,,,,,00041,001,2026-01-23_18h51.27.276,MST_task,2024.2.0,59.84687577421824,2026-01-23 18h51.59.042180 +0530,
,Scenes\002a.jpg,50,0,51,,,,,,,j,1.4879268999793567,0.18373769999016076,None,,,,,,51,0,50,342.38709889998427,,,,,,,,,,,,,,,,,,,,,,,342.3715302000055,342.38709889998427,342.8709009999875,,,,,,,,,,,,,,342.8918988999794,,,,,,,,,,,,,342.88908729999093,342.8918988999794,342.8918988999794,342.8918988999794,,,,345.8872562999604,j,1.4879268999793567,0.18373769999016076,345.88743609999074,345.8874997999519,None,,,,,,,,,,,,,,00041,001,2026-01-23_18h51.27.276,MST_task,2024.2.0,59.84687577421824,2026-01-23 18h51.59.042180 +0530,
,Scenes\090a.jpg,51,0,52,,,,,,,j,0.9461406999616884,0.16083350003464147,None,,,,,,52,0,51,345.90324859996326,,,,,,,,,,,,,,,,,,,,,,,345.88784179999493,345.90324859996326,346.3874977999949,,,,,,,,,,,,,,346.4090043999604,,,,,,,,,,,,,346.405962299963,346.4090043999604,346.4090043999604,346.4090043999604,,,,349.4042284999741,j,0.9461406999616884,0.16083350003464147,349.4044333999627,349.40449879999505,None,,,,,,,,,,,,,,00041,001,2026-01-23_18h51.27.276,MST_task,2024.2.0,59.84687577421824,2026-01-23 18h51.59.042180 +0530,
,Scenes\074a.jpg,52,0,53,,,,,,,j,1.119353600020986,0.17692950001219288,None,,,,,,53,0,52,349.4205005999538,,,,,,,,,,,,,,,,,,,,,,,349.40486469998723,349.4205005999538,349.90415059996303,,,,,,,,,,,,,,349.92408019996947,,,,,,,,,,,,,349.921268599981,349.92408019996947,349.92408019996947,349.92408019996947,,,,352.90496239997447,j,1.119353600020986,0.17692950001219288,352.90516550000757,352.9052302999771,None,,,,,,,,,,,,,,00041,001,2026-01-23_18h51.27.276,MST_task,2024.2.0,59.84687577421824,2026-01-23 18h51.59.042180 +0530,
,Scenes\134a.jpg,53,0,54,,,,,,,j,1.5135111000272445,0.12001600000075996,None,,,,,,54,0,53,352.92047539999476,,,,,,,,,,,,,,,,,,,,,,,352.90560329996515,352.92047539999476,353.40427579998504,,,,,,,,,,,,,,353.42600929999026,,,,,,,,,,,,,353.42330279998714,353.42600929999026,353.42600929999026,353.42600929999026,,,,356.4208790999837,j,1.5135111000272445,0.12001600000075996,356.42108010000084,356.4211455999757,None,,,,,,,,,,,,,,00041,001,2026-01-23_18h51.27.276,MST_task,2024.2.0,59.84687577421824,2026-01-23 18h51.59.042180 +0530,
,Scenes\072a.jpg,54,0,55,,,,,,,j,0.9411797000211664,0.21618829999351874,None,,,,,,55,0,54,356.43713400000706,,,,,,,,,,,,,,,,,,,,,,,356.4215183999622,356.43713400000706,356.9213701999979,,,,,,,,,,,,,,356.94216239999514,,,,,,,,,,,,,356.93940769997425,356.94216239999514,356.94216239999514,356.94216239999514,,,,359.9378494999837,j,0.9411797000211664,0.21618829999351874,359.9380642999895,359.9381366999587,None,,,,,,,,,,,,,,00041,001,2026-01-23_18h51.27.276,MST_task,2024.2.0,59.84687577421824,2026-01-23 18h51.59.042180 +0530,
,Scenes\035a.jpg,55,0,56,,,,,,,j,2.256941600004211,0.12098639999749139,None,,,,,,56,0,55,359.9538569999859,,,,,,,,,,,,,,,,,,,,,,,359.93853429995943,359.9538569999859,360.43715989997145,,,,,,,,,,,,,,360.45810719998553,,,,,,,,,,,,,360.45534549996955,360.45810719998553,360.45810719998553,360.45810719998553,,,,363.45390359999146,j,2.256941600004211,0.12098639999749139,363.45410879998235,363.4541737999534,None,,,,,,,,,,,,,,00041,001,2026-01-23_18h51.27.276,MST_task,2024.2.0,59.84687577421824,2026-01-23 18h51.59.042180 +0530,
,Objects\132a.jpg,56,0,57,,,,,,,f,1.2698238999582827,0.20017389999702573,None,,,,,,57,0,56,363.470503599965,,,,,,,,,,,,,,,,,,,,,,,363.4544679999817,363.470503599965,363.9542364999652,,,,,,,,,,,,,,363.9819791999762,,,,,,,,,,,,,363.9790943999542,363.9819791999762,363.9819791999762,363.9819791999762,,,,366.97049079998396,f,1.2698238999582827,0.20017389999702573,366.97069339995505,366.9707586999866,None,,,,,,,,,,,,,,00041,001,2026-01-23_18h51.27.276,MST_task,2024.2.0,59.84687577421824,2026-01-23 18h51.59.042180 +0530,
,Objects\025a.jpg,57,0,58,,,,,,,None,,,f,0.10843560000648722,None,,,,58,0,57,366.9871218999615,,,,,,,,,,,,,,,,,,,,,,,366.97112499998184,366.9871218999615,367.47090199997183,,,,,,,,,,,,,,367.4873536999803,,,,,,,,,,,,,367.4798174999887,367.4873536999803,367.4873536999803,367.4873536999803,370.48713059996953,370.48713059996953,370.48713059996953,370.4717504999717,None,,,370.47193269996205,370.60436589998426,f,370.48713059996953,370.48713059996953,0.10843560000648722,None,,,,,,,,,,00041,001,2026-01-23_18h51.27.276,MST_task,2024.2.0,59.84687577421824,2026-01-23 18h51.59.042180 +0530,
,Objects\046a.jpg,58,0,59,,,,,,,f,2.3710290000308305,0.20014979998813942,None,,,,,,59,0,58,370.6207358999527,,,,,,,,,,,,,,,,,,,,,,,370.6048885000055,370.6207358999527,371.10390439996263,,,,,,,,,,,,,,371.120738299971,,,,,,,,,,,,,371.110547499964,371.120738299971,371.120738299971,371.120738299971,374.1211387999938,374.1211387999938,374.1211387999938,374.105009299994,f,2.3710290000308305,0.20014979998813942,374.1052001999924,374.10526089998893,None,,,,,,,,,,,,,,00041,001,2026-01-23_18h51.27.276,MST_task,2024.2.0,59.84687577421824,2026-01-23 18h51.59.042180 +0530,
,Objects\153a.jpg,59,0,60,,,,,,,f,1.5423855999833904,0.18494050001027063,None,,,,,,60,0,59,374.1211387999938,,,,,,,,,,,,,,,,,,,,,,,374.1055563999689,374.1211387999938,374.6042474999558,,,,,,,,,,,,,,374.6206295999582,,,,,,,,,,,,,374.6128188999719,374.6206295999582,374.6206295999582,374.6206295999582,377.62042609998025,377.62042609998025,377.62042609998025,377.60492660000455,f,1.5423855999833904,0.18494050001027063,377.60517289995914,377.6052436999744,None,,,,,,,,,,,,,,00041,001,2026-01-23_18h51.27.276,MST_task,2024.2.0,59.84687577421824,2026-01-23 18h51.59.042180 +0530,
,Objects\160a.jpg,60,0,61,,,,,,,j,2.0270734999794513,0.15948010003194213,None,,,,,,61,0,60,377.62042609998025,,,,,,,,,,,,,,,,,,,,,,,377.60560569999507,377.62042609998025,378.1039355999674,,,,,,,,,,,,,,378.1207164999796,,,,,,,,,,,,,378.1129842000082,378.1207164999796,378.1207164999796,378.1207164999796,381.1205045999959,381.1205045999959,381.1205045999959,381.1051334000076,j,2.0270734999794513,0.15948010003194213,381.1053416999639,381.105402999965,None,,,,,,,,,,,,,,00041,001,2026-01-23_18h51.27.276,MST_task,2024.2.0,59.84687577421824,2026-01-23 18h51.59.042180 +0530,
,Objects\117a.jpg,61,0,62,,,,,,,None,,,j,0.4549957999843173,None,,,,62,0,61,381.1205045999959,,,,,,,,,,,,,,,,,,,,,,,381.1057198999915,381.1205045999959,381.60423369996715,,,,,,,,,,,,,,381.6207263999968,,,,,,,,,,,,,381.6136289999704,381.6207263999968,381.6207263999968,381.6207263999968,384.62021269998513,384.62021269998513,384.62021269998513,384.6050352999591,None,,,384.6052234999952,385.0876186999958,j,384.62021269998513,384.62021269998513,0.4549957999843173,None,,,,,,,,,,00041,001,2026-01-23_18h51.27.276,MST_task,2024.2.0,59.84687577421824,2026-01-23 18h51.59.042180 +0530,
,Objects\133a.jpg,62,0,63,,,,,,,j,2.6158712999895215,0.18460690003121272,None,,,,,,63,0,62,385.10382469999604,,,,,,,,,,,,,,,,,,,,,,,385.08796029997757,385.10382469999604,385.58720720000565,,,,,,,,,,,,,,385.60397080000257,,,,,,,,,,,,,385.59656139998697,385.60397080000257,385.60397080000257,385.60397080000257,388.6038997999858,388.6038997999858,388.6038997999858,388.5879593999707,j,2.6158712999895215,0.18460690003121272,388.58816009998554,388.58821929997066,None,,,,,,,,,,,,,,00041,001,2026-01-23_18h51.27.276,MST_task,2024.2.0,59.84687577421824,2026-01-23 18h51.59.042180 +0530,
,Scenes\159a.jpg,63,0,64,,,,,,,j,1.4070066999993287,0.1202107000281103,None,,,,,,64,0,63,388.6038997999858,,,,,,,,,,,,,,,,,,,,,,,388.5885225000093,388.6038997999858,389.08749050000915,,,,,,,,,,,,,,389.10880230000475,,,,,,,,,,,,,389.1062313999864,389.10880230000475,389.10880230000475,389.10880230000475,,,,392.1042725999723,j,1.4070066999993287,0.1202107000281103,392.1044682000065,392.1045328999753,None,,,,,,,,,,,,,,00041,001,2026-01-23_18h51.27.276,MST_task,2024.2.0,59.84687577421824,2026-01-23 18h51.59.042180 +0530,
,Scenes\103a.jpg,64,0,65,,,,,,,j,1.8823316000052728,0.1125707000028342,None,,,,,,65,0,64,392.1209519999684,,,,,,,,,,,,,,,,,,,,,,,392.1049061999656,392.1209519999684,392.6042550999555,,,,,,,,,,,,,,392.62476829998195,,,,,,,,,,,,,392.6220039000036,392.62476829998195,392.62476829998195,392.62476829998195,,,,395.6208881000057,j,1.8823316000052728,0.1125707000028342,395.62108349998016,395.62114899995504,None,,,,,,,,,,,,,,00041,001,2026-01-23_18h51.27.276,MST_task,2024.2.0,59.84687577421824,2026-01-23 18h51.59.042180 +0530,
,Scenes\070a.jpg,65,0,66,,,,,,,f,2.3908821999793872,0.15174659999320284,None,,,,,,66,0,65,395.63710279995576,,,,,,,,,,,,,,,,,,,,,,,395.62151609995635,395.63710279995576,396.1210227999836,,,,,,,,,,,,,,396.1409750999883,,,,,,,,,,,,,396.1386343999766,396.1409750999883,396.1409750999883,396.1409750999883,,,,399.13721919996897,f,2.3908821999793872,0.15174659999320284,399.1374174999655,399.1374822999933,None,,,,,,,,,,,,,,00041,001,2026-01-23_18h51.27.276,MST_task,2024.2.0,59.84687577421824,2026-01-23 18h51.59.042180 +0530,
,Scenes\076a.jpg,66,0,67,,,,,,,j,1.014609100006055,0.14402680000057444,None,,,,,,67,0,66,399.1534636999713,,,,,,,,,,,,,,,,,,,,,,,399.13785359996837,399.1534636999713,399.6375207999954,,,,,,,,,,,,,,399.66061719995923,,,,,,,,,,,,,399.657618199999,399.66061719995923,399.66061719995923,399.66061719995923,,,,402.6542466999963,j,1.014609100006055,0.14402680000057444,402.6544478999567,402.65451279998524,None,,,,,,,,,,,,,,00041,001,2026-01-23_18h51.27.276,MST_task,2024.2.0,59.84687577421824,2026-01-23 18h51.59.042180 +0530,
,Scenes\008a.jpg,67,0,68,,,,,,,j,1.6404896000167355,0.11146139999618754,None,,,,,,68,0,67,402.67050519998884,,,,,,,,,,,,,,,,,,,,,,,402.6548890999984,402.67050519998884,403.1542311999947,,,,,,,,,,,,,,403.17128209996736,,,,,,,,,,,,,403.1663925999892,403.17128209996736,403.17128209996736,403.17128209996736,406.1705345999799,406.1705345999799,406.1705345999799,406.15495619998546,j,1.6404896000167355,0.11146139999618754,406.1551671999623,406.1552223999752,None,,,,,,,,,,,,,,00041,001,2026-01-23_18h51.27.276,MST_task,2024.2.0,59.84687577421824,2026-01-23 18h51.59.042180 +0530,
,Scenes\174a.jpg,68,0,69,,,,,,,j,2.9501225000130944,None,None,,,,,,69,0,68,406.1705345999799,,,,,,,,,,,,,,,,,,,,,,,406.15551720000803,406.1705345999799,406.6542367999791,,,,,,,,,,,,,,406.68561069999123,,,,,,,,,,,,,406.68043690000195,406.68561069999123,406.68561069999123,406.68561069999123,,,,409.6709399999818,j,2.9501225000130944,None,409.6711427999544,409.67121199995745,None,,,,,,,,,,,,,,00041,001,2026-01-23_18h51.27.276,MST_task,2024.2.0,59.84687577421824,2026-01-23 18h51.59.042180 +0530,
,Scenes\110a.jpg,69,0,70,,,,,,,j,1.623659899982158,0.07264009997015819,None,,,,,,70,0,69,409.686897699954,,,,,,,,,,,,,,,,,,,,,,,409.6715070999926,409.686897699954,410.170579299971,,,,,,,,,,,,,,410.18767969997134,,,,,,,,,,,,,410.182924099965,410.18767969997134,410.18767969997134,410.18767969997134,413.1870965999551,413.1870965999551,413.1870965999551,413.17177989997435,j,1.623659899982158,0.07264009997015819,413.17189449997386,413.17192759999307,None,,,,,,,,,,,,,,00041,001,2026-01-23_18h51.27.276,MST_task,2024.2.0,59.84687577421824,2026-01-23 18h51.59.042180 +0530,
,Objects\090a.jpg,70,0,71,,,,,,,j,1.9474657000391744,0.08807009999873117,None,,,,,,71,0,70,413.1870965999551,,,,,,,,,,,,,,,,,,,,,,,413.17212770000333,413.1870965999551,413.6709039999987,,,,,,,,,,,,,,413.6877689999528,,,,,,,,,,,,,413.6817251999746,413.6877689999528,413.6877689999528,413.6877689999528,416.68674149998697,416.68674149998697,416.68674149998697,416.67172659997595,j,1.9474657000391744,0.08807009999873117,416.67191549995914,416.6719758999534,None,,,,,,,,,,,,,,00041,001,2026-01-23_18h51.27.276,MST_task,2024.2.0,59.84687577421824,2026-01-23 18h51.59.042180 +0530,
,Objects\079a.jpg,71,0,72,,,,,,,f,2.35177740000654,0.21615599998040125,None,,,,,,72,0,71,416.68674149998697,,,,,,,,,,,,,,,,,,,,,,,416.6722669999581,416.68674149998697,417.17076929996256,,,,,,,,,,,,,,417.1872916999855,,,,,,,,,,,,,417.178236000007,417.1872916999855,417.1872916999855,417.1872916999855,420.18712079996476,420.18712079996476,420.18712079996476,420.17155379999895,f,2.35177740000654,0.21615599998040125,420.1716763000004,420.1717111999751,None,,,,,,,,,,,,,,00041,001,2026-01-23_18h51.27.276,MST_task,2024.2.0,59.84687577421824,2026-01-23 18h51.59.042180 +0530,
,Objects\174a.jpg,72,0,73,,,,,,,f,0.9408080999855883,0.22376110003096983,None,,,,,,73,0,72,420.18712079996476,,,,,,,,,,,,,,,,,,,,,,,420.17193099996075,420.18712079996476,420.6709463999723,,,,,,,,,,,,,,420.6869265999994,,,,,,,,,,,,,420.67900219996227,420.6869265999994,420.6869265999994,420.6869265999994,423.68713559996104,423.68713559996104,423.68713559996104,423.67176359996665,f,0.9408080999855883,0.22376110003096983,423.67195739998715,423.6720174999791,None,,,,,,,,,,,,,,00041,001,2026-01-23_18h51.27.276,MST_task,2024.2.0,59.84687577421824,2026-01-23 18h51.59.042180 +0530,
,Objects\007a.jpg,73,0,74,,,,,,,f,1.538722500030417,0.23969319998286664,None,,,,,,74,0,73,423.68713559996104,,,,,,,,,,,,,,,,,,,,,,,423.67238969996106,423.68713559996104,424.1709039999987,,,,,,,,,,,,,,424.1930227999692,,,,,,,,,,,,,424.19085419998737,424.1930227999692,424.1930227999692,424.1930227999692,,,,427.18750369996997,f,1.538722500030417,0.23969319998286664,427.18765169999097,427.1876983999973,None,,,,,,,,,,,,,,00041,001,2026-01-23_18h51.27.276,MST_task,2024.2.0,59.84687577421824,2026-01-23 18h51.59.042180 +0530,
,Objects\003a.jpg,74,0,75,,,,,,,f,2.1470270000281744,0.232288500003051,None,,,,,,75,0,74,427.2038478999748,,,,,,,,,,,,,,,,,,,,,,,427.1879089999711,427.2038478999748,427.68750349996844,,,,,,,,,,,,,,427.7040866999887,,,,,,,,,,,,,427.69724369997857,427.7040866999887,427.7040866999887,427.7040866999887,,,,430.68791619996773,f,2.1470270000281744,0.232288500003051,430.6881165999803,430.6881813000073,None,,,,,,,,,,,,,,00041,001,2026-01-23_18h51.27.276,MST_task,2024.2.0,59.84687577421824,2026-01-23 18h51.59.042180 +0530,
,Objects\180a.jpg,75,0,76,,,,,,,f,1.2311877000029199,0.2253264999599196,None,,,,,,76,0,75,430.703841199982,,,,,,,,,,,,,,,,,,,,,,,430.6884740999667,430.703841199982,431.18729619996157,,,,,,,,,,,,,,431.20416369999293,,,,,,,,,,,,,431.19634829997085,431.20416369999293,431.20416369999293,431.20416369999293,434.2035024999641,434.2035024999641,434.2035024999641,434.18791719997535,f,1.2311877000029199,0.2253264999599196,434.1881172999856,434.18817669997225,None,,,,,,,,,,,,,,00041,001,2026-01-23_18h51.27.276,MST_task,2024.2.0,59.84687577421824,2026-01-23 18h51.59.042180 +0530,
,Objects\065a.jpg,76,0,77,,,,,,,f,1.3078390999580733,0.2239494000095874,None,,,,,,77,0,76,434.2035024999641,,,,,,,,,,,,,,,,,,,,,,,434.18847269995604,434.2035024999641,434.68816819996573,,,,,,,,,,,,,,434.70392349996837,,,,,,,,,,,,,434.69701869995333,434.70392349996837,434.70392349996837,434.70392349996837,437.7039094999782,437.7039094999782,437.7039094999782,437.68806149996817,f,1.3078390999580733,0.2239494000095874,437.68826490000356,437.6883231999818,None,,,,,,,,,,,,,,00041,001,2026-01-23_18h51.27.276,MST_task,2024.2.0,59.84687577421824,2026-01-23 18h51.59.042180 +0530,
,Scenes\166a.jpg,77,0,78,,,,,,,j,1.0789023999823257,0.21664820000296459,None,,,,,,78,0,77,437.7039094999782,,,,,,,,,,,,,,,,,,,,,,,437.68870549998246,437.7039094999782,438.18750399997225,,,,,,,,,,,,,,438.2043445999734,,,,,,,,,,,,,438.19773640000494,438.2043445999734,438.2043445999734,438.2043445999734,441.20371939998586,441.20371939998586,441.20371939998586,441.1881878999993,j,1.0789023999823257,0.21664820000296459,441.1883489000029,441.18839219998335,None,,,,,,,,,,,,,,00041,001,2026-01-23_18h51.27.276,MST_task,2024.2.0,59.84687577421824,2026-01-23 18h51.59.042180 +0530,
,Scenes\004a.jpg,78,0,79,,,,,,,j,1.50445090001449,0.10479729995131493,None,,,,,,79,0,78,441.20371939998586,,,,,,,,,,,,,,,,,,,,,,,441.1886132999789,441.20371939998586,441.6875105999643,,,,,,,,,,,,,,441.7066896999604,,,,,,,,,,,,,441.7036657999852,441.7066896999604,441.7066896999604,441.7066896999604,,,,444.70459189999383,j,1.50445090001449,0.10479729995131493,444.7047925000079,444.70485939999344,None,,,,,,,,,,,,,,00041,001,2026-01-23_18h51.27.276,MST_task,2024.2.0,59.84687577421824,2026-01-23 18h51.59.042180 +0530,
,Scenes\137a.jpg,79,0,80,,,,,,,j,2.1262023000163026,0.09636979998322204,None,,,,,,80,0,79,444.7208903999999,,,,,,,,,,,,,,,,,,,,,,,444.70522750000237,444.7208903999999,445.2042555999942,,,,,,,,,,,,,,445.2208618999575,,,,,,,,,,,,,445.21782909997273,445.2208618999575,445.2208618999575,445.2208618999575,448.2205252999556,448.2205252999556,448.2205252999556,448.20509329997003,j,2.1262023000163026,0.09636979998322204,448.2053173999884,448.2053849999793,None,,,,,,,,,,,,,,00041,001,2026-01-23_18h51.27.276,MST_task,2024.2.0,59.84687577421824,2026-01-23 18h51.59.042180 +0530,
,Scenes\122a.jpg,80,0,81,,,,,,,f,2.104391200002283,0.15934690000722185,None,,,,,,81,0,80,448.2205252999556,,,,,,,,,,,,,,,,,,,,,,,448.2057707000058,448.2205252999556,448.7039228999638,,,,,,,,,,,,,,448.72356059995946,,,,,,,,,,,,,448.720924299967,448.72356059995946,448.72356059995946,448.72356059995946,,,,451.72074600000633,f,2.104391200002283,0.15934690000722185,451.7209565999801,451.7210225999588,None,,,,,,,,,,,,,,00041,001,2026-01-23_18h51.27.276,MST_task,2024.2.0,59.84687577421824,2026-01-23 18h51.59.042180 +0530,
,Scenes\063a.jpg,81,0,82,,,,,,,j,1.2508537000394426,0.14420260000042617,None,,,,,,82,0,81,451.73715589998756,,,,,,,,,,,,,,,,,,,,,,,451.72140159999253,451.73715589998756,452.2209384999587,,,,,,,,,,,,,,452.2403539000079,,,,,,,,,,,,,452.2373338000034,452.2403539000079,452.2403539000079,452.2403539000079,,,,455.22209860000294,j,1.2508537000394426,0.14420260000042617,455.2222965999972,455.2223619999713,None,,,,,,,,,,,,,,00041,001,2026-01-23_18h51.27.276,MST_task,2024.2.0,59.84687577421824,2026-01-23 18h51.59.042180 +0530,
,Scenes\012a.jpg,82,0,83,,,,,,,j,1.9169931000215001,0.10425229999236763,None,,,,,,83,0,82,455.237113799958,,,,,,,,,,,,,,,,,,,,,,,455.22272959997645,455.237113799958,455.7209057,,,,,,,,,,,,,,455.7500734999776,,,,,,,,,,,,,455.7472652999568,455.7500734999776,455.7500734999776,455.7500734999776,,,,458.73750990000553,j,1.9169931000215001,0.10425229999236763,458.73771039996063,458.737776199996,None,,,,,,,,,,,,,,00041,001,2026-01-23_18h51.27.276,MST_task,2024.2.0,59.84687577421824,2026-01-23 18h51.59.042180 +0530,
,Scenes\124a.jpg,83,0,84,,,,,,,j,2.548966000031214,0.11238040000898764,None,,,,,,84,0,83,458.753544999985,,,,,,,,,,,,,,,,,,,,,,,458.7381514000008,458.753544999985,459.23751289997017,,,,,,,,,,,,,,459.2541462999652,,,,,,,,,,,,,459.25077679997776,459.2541462999652,459.2541462999652,459.2541462999652,462.25355480000144,462.25355480000144,462.25355480000144,462.23830209998414,j,2.548966000031214,0.11238040000898764,462.2384928999818,462.23855169996386,None,,,,,,,,,,,,,,00041,001,2026-01-23_18h51.27.276,MST_task,2024.2.0,59.84687577421824,2026-01-23 18h51.59.042180 +0530,
,Objects\121a.jpg,84,0,85,,,,,,,f,1.5132681000395678,0.23950039996998385,None,,,,,,85,0,84,462.25355480000144,,,,,,,,,,,,,,,,,,,,,,,462.2389230999979,462.25355480000144,462.73735750000924,,,,,,,,,,,,,,462.7544115000055,,,,,,,,,,,,,462.74641959997825,462.7544115000055,462.7544115000055,462.7544115000055,465.75387660000706,465.75387660000706,465.75387660000706,465.7383425000007,f,1.5132681000395678,0.23950039996998385,465.73850029997993,465.73854579997715,None,,,,,,,,,,,,,,00041,001,2026-01-23_18h51.27.276,MST_task,2024.2.0,59.84687577421824,2026-01-23 18h51.59.042180 +0530,
,Objects\162a.jpg,85,0,86,,,,,,,f,1.5338070000289008,0.19246039999416098,None,,,,,,86,0,85,465.75387660000706,,,,,,,,,,,,,,,,,,,,,,,465.73877739999443,465.75387660000706,466.2379200999858,,,,,,,,,,,,,,466.2613334999769,,,,,,,,,,,,,466.25864879996516,466.2613334999769,466.2613334999769,466.2613334999769,,,,469.2539731999859,f,1.5338070000289008,0.19246039999416098,469.2541701999726,469.25423550000414,None,,,,,,,,,,,,,,00041,001,2026-01-23_18h51.27.276,MST_task,2024.2.0,59.84687577421824,2026-01-23 18h51.59.042180 +0530,
,Objects\087a.jpg,86,0,87,,,,,,,j,1.6967773999786004,0.15200980001827702,None,,,,,,87,0,86,469.27053270000033,,,,,,,,,,,,,,,,,,,,,,,469.2545286999666,469.27053270000033,469.75423859996954,,,,,,,,,,,,,,469.7708990999963,,,,,,,,,,,,,469.76247620000504,469.7708990999963,469.7708990999963,469.7708990999963,472.77036679995945,472.77036679995945,472.77036679995945,472.755096399982,j,1.6967773999786004,0.15200980001827702,472.75530319998506,472.7553635999793,None,,,,,,,,,,,,,,00041,001,2026-01-23_18h51.27.276,MST_task,2024.2.0,59.84687577421824,2026-01-23 18h51.59.042180 +0530,
,Objects\080a.jpg,87,0,88,,,,,,,f,1.252267199975904,0.20882510003866628,None,,,,,,88,0,87,472.77036679995945,,,,,,,,,,,,,,,,,,,,,,,472.75574930000585,472.77036679995945,473.2548655999708,,,,,,,,,,,,,,473.270752499986,,,,,,,,,,,,,473.26378269999987,473.270752499986,473.270752499986,473.270752499986,476.27026329998625,476.27026329998625,476.27026329998625,476.2545957999537,f,1.252267199975904,0.20882510003866628,476.2547886999673,476.2548433999764,None,,,,,,,,,,,,,,00041,001,2026-01-23_18h51.27.276,MST_task,2024.2.0,59.84687577421824,2026-01-23 18h51.59.042180 +0530,
,Objects\006a.jpg,88,0,89,,,,,,,None,,,f,2.152495699992869,None,,,,89,0,88,476.27026329998625,,,,,,,,,,,,,,,,,,,,,,,476.2551089999615,476.27026329998625,476.7539209999959,,,,,,,,,,,,,,476.77058539999416,,,,,,,,,,,,,476.76264329999685,476.77058539999416,476.77058539999416,476.77058539999416,479.77051969995955,479.77051969995955,479.77051969995955,479.7550124999834,None,,,479.75519299996085,481.93767349998234,f,479.77051969995955,479.77051969995955,2.152495699992869,None,,,,,,,,,,00041,001,2026-01-23_18h51.27.276,MST_task,2024.2.0,59.84687577421824,2026-01-23 18h51.59.042180 +0530,
,Objects\126a.jpg,89,0,90,,,,,,,j,1.8369548000046052,0.10419029998593032,None,,,,,,90,0,89,481.9538561999798,,,,,,,,,,,,,,,,,,,,,,,481.9380125000025,481.9538561999798,482.436887799995,,,,,,,,,,,,,,482.45403819996864,,,,,,,,,,,,,482.44479079998564,482.45403819996864,482.45403819996864,482.45403819996864,485.45371229999,485.45371229999,485.45371229999,485.43846749997465,j,1.8369548000046052,0.10419029998593032,485.43867109995335,485.43873449997045,None,,,,,,,,,,,,,,00041,001,2026-01-23_18h51.27.276,MST_task,2024.2.0,59.84687577421824,2026-01-23 18h51.59.042180 +0530,
,Objects\096a.jpg,90,0,91,,,,,,,f,2.5929336000117473,0.16009999997913837,None,,,,,,91,0,90,485.45371229999,,,,,,,,,,,,,,,,,,,,,,,485.43902170000365,485.45371229999,485.9375125999795,,,,,,,,,,,,,,485.95412919996306,,,,,,,,,,,,,485.94596719997935,485.95412919996306,485.95412919996306,485.95412919996306,488.9537451000069,488.9537451000069,488.9537451000069,488.93843539996305,f,2.5929336000117473,0.16009999997913837,488.9386399000068,488.9387131999829,None,,,,,,,,,,,,,,00041,001,2026-01-23_18h51.27.276,MST_task,2024.2.0,59.84687577421824,2026-01-23 18h51.59.042180 +0530,
,Scenes\014a.jpg,91,0,92,,,,,,,j,2.396901700005401,0.120457399985753,None,,,,,,92,0,91,488.9537451000069,,,,,,,,,,,,,,,,,,,,,,,488.93901729997015,488.9537451000069,489.4374681999907,,,,,,,,,,,,,,489.4543383999844,,,,,,,,,,,,,489.44928100000834,489.4543383999844,489.4543383999844,489.4543383999844,492.4543396999943,492.4543396999943,492.4543396999943,492.4381780999829,j,2.396901700005401,0.120457399985753,492.43837950000307,492.4384381999844,None,,,,,,,,,,,,,,00041,001,2026-01-23_18h51.27.276,MST_task,2024.2.0,59.84687577421824,2026-01-23 18h51.59.042180 +0530,
,Scenes\121a.jpg,92,0,93,,,,,,,j,2.7823168000322767,0.1288479999639094,None,,,,,,93,0,92,492.4543396999943,,,,,,,,,,,,,,,,,,,,,,,492.43873759999406,492.4543396999943,492.9375288999872,,,,,,,,,,,,,,492.9566935999901,,,,,,,,,,,,,492.9537939999718,492.9566935999901,492.9566935999901,492.9566935999901,,,,495.9541761999717,j,2.7823168000322767,0.1288479999639094,495.9543908999767,495.9544543999946,None,,,,,,,,,,,,,,00041,001,2026-01-23_18h51.27.276,MST_task,2024.2.0,59.84687577421824,2026-01-23 18h51.59.042180 +0530,
,Scenes\140a.jpg,93,0,94,,,,,,,None,,,j,1.46150029997807,None,,,,94,0,93,495.9703238999937,,,,,,,,,,,,,,,,,,,,,,,495.9548270999803,495.9703238999937,496.4539070999599,,,,,,,,,,,,,,496.4707447999972,,,,,,,,,,,,,496.4677243999904,496.4707447999972,496.4707447999972,496.4707447999972,499.4705297999899,499.4705297999899,499.4705297999899,499.4548894999898,None,,,499.4550641999813,500.9376500999788,j,499.4705297999899,499.4705297999899,1.46150029997807,None,,,,,,,,,,00041,001,2026-01-23_18h51.27.276,MST_task,2024.2.0,59.84687577421824,2026-01-23 18h51.59.042180 +0530,
,Scenes\112a.jpg,94,0,95,,,,,,,None,,,j,1.1733169999788515,None,,,,95,0,94,500.9535617000074,,,,,,,,,,,,,,,,,,,,,,,500.9381052000099,500.9535617000074,501.4372006999911,,,,,,,,,,,,,,501.4743929999531,,,,,,,,,,,,,501.4711480999831,501.4743929999531,501.4743929999531,501.4743929999531,,,,504.4542950000032,None,,,504.4544772999943,505.65439579996746,j,504.4703532999847,504.4703532999847,1.1733169999788515,None,,,,,,,,,,00041,001,2026-01-23_18h51.27.276,MST_task,2024.2.0,59.84687577421824,2026-01-23 18h51.59.042180 +0530,
,Scenes\084a.jpg,95,0,96,,,,,,,j,2.269827099982649,0.0957732000388205,None,,,,,,96,0,95,505.6706235999591,,,,,,,,,,,,,,,,,,,,,,,505.6547389999614,505.6706235999591,506.15444600000046,,,,,,,,,,,,,,506.17387249995954,,,,,,,,,,,,,506.17111060000025,506.17387249995954,506.17387249995954,506.17387249995954,,,,509.170831299969,j,2.269827099982649,0.0957732000388205,509.17105189996073,509.1711187000037,None,,,,,,,,,,,,,,00041,001,2026-01-23_18h51.27.276,MST_task,2024.2.0,59.84687577421824,2026-01-23 18h51.59.042180 +0530,
,Scenes\175a.jpg,96,0,97,,,,,,,j,1.2279007000033744,0.10424979997333139,None,,,,,,97,0,96,509.18711900000926,,,,,,,,,,,,,,,,,,,,,,,509.1714951999602,509.18711900000926,509.6706767999567,,,,,,,,,,,,,,509.68775569996797,,,,,,,,,,,,,509.6805414999835,509.68775569996797,509.68775569996797,509.68775569996797,512.6869020999875,512.6869020999875,512.6869020999875,512.6717767000082,j,1.2279007000033744,0.10424979997333139,512.671970299969,512.6720296999556,None,,,,,,,,,,,,,,00041,001,2026-01-23_18h51.27.276,MST_task,2024.2.0,59.84687577421824,2026-01-23 18h51.59.042180 +0530,
,Scenes\130a.jpg,97,0,98,,,,,,,j,1.6225765999988653,0.1121487999917008,None,,,,,,98,0,97,512.6869020999875,,,,,,,,,,,,,,,,,,,,,,,512.6723278999561,512.6869020999875,513.17063529999,,,,,,,,,,,,,,513.1886405999539,,,,,,,,,,,,,513.1858501000097,513.1886405999539,513.1886405999539,513.1886405999539,,,,516.1875621000072,j,1.6225765999988653,0.1121487999917008,516.1877612000098,516.1878255999763,None,,,,,,,,,,,,,,00041,001,2026-01-23_18h51.27.276,MST_task,2024.2.0,59.84687577421824,2026-01-23 18h51.59.042180 +0530,
,Objects\038a.jpg,98,0,99,,,,,,,f,1.3867634999915026,0.15161220001755282,None,,,,,,99,0,98,516.2038314999663,,,,,,,,,,,,,,,,,,,,,,,516.1880858999793,516.2038314999663,516.6874581999728,,,,,,,,,,,,,,516.704297499964,,,,,,,,,,,,,516.6960311000003,516.704297499964,516.704297499964,516.704297499964,519.7038605999551,519.7038605999551,519.7038605999551,519.6883030000026,f,1.3867634999915026,0.15161220001755282,519.6884952999535,519.6885547999991,None,,,,,,,,,,,,,,00041,001,2026-01-23_18h51.27.276,MST_task,2024.2.0,59.84687577421824,2026-01-23 18h51.59.042180 +0530,
,Objects\103a.jpg,99,0,100,,,,,,,f,2.4310665000230074,0.25554909999482334,None,,,,,,100,0,99,519.7038605999551,,,,,,,,,,,,,,,,,,,,,,,519.6889187999768,519.7038605999551,520.1880671999534,,,,,,,,,,,,,,520.2046174999559,,,,,,,,,,,,,520.1948058999842,520.2046174999559,520.2046174999559,520.2046174999559,523.203580899979,523.203580899979,523.203580899979,523.1883486000006,f,2.4310665000230074,0.25554909999482334,523.1885470999987,523.1886073999922,None,,,,,,,,,,,,,,00041,001,2026-01-23_18h51.27.276,MST_task,2024.2.0,59.84687577421824,2026-01-23 18h51.59.042180 +0530,
,Objects\030a.jpg,100,0,101,,,,,,,f,1.0432236000197008,0.20840309996856377,None,,,,,,101,0,100,523.203580899979,,,,,,,,,,,,,,,,,,,,,,,523.1889858999639,523.203580899979,523.6870089999866,,,,,,,,,,,,,,523.7037927999627,,,,,,,,,,,,,523.6958363999729,523.7037927999627,523.7037927999627,523.7037927999627,526.7037507999921,526.7037507999921,526.7037507999921,526.688303700008,f,1.0432236000197008,0.20840309996856377,526.6885011999984,526.6885573999607,None,,,,,,,,,,,,,,00041,001,2026-01-23_18h51.27.276,MST_task,2024.2.0,59.84687577421824,2026-01-23 18h51.59.042180 +0530,
,Objects\050a.jpg,101,0,102,,,,,,,f,1.327115899999626,0.24788780004018918,None,,,,,,102,0,101,526.7037507999921,,,,,,,,,,,,,,,,,,,,,,,526.688926199975,526.7037507999921,527.1877075000084,,,,,,,,,,,,,,527.2039358000038,,,,,,,,,,,,,527.1964368000044,527.2039358000038,527.2039358000038,527.2039358000038,530.2039810999995,530.2039810999995,530.2039810999995,530.1881005999749,f,1.327115899999626,0.24788780004018918,530.1882985999691,530.188357899955,None,,,,,,,,,,,,,,00041,001,2026-01-23_18h51.27.276,MST_task,2024.2.0,59.84687577421824,2026-01-23 18h51.59.042180 +0530,
,Objects\127a.jpg,102,0,103,,,,,,,f,1.250360300007742,0.16050739999627694,None,,,,,,103,0,102,530.2039810999995,,,,,,,,,,,,,,,,,,,,,,,530.1886566999601,530.2039810999995,530.6875283999834,,,,,,,,,,,,,,530.7044720999547,,,,,,,,,,,,,530.6957582999603,530.7044720999547,530.7044720999547,530.7044720999547,533.7040818999521,533.7040818999521,533.7040818999521,533.6883193999529,f,1.250360300007742,0.16050739999627694,533.6885170000023,533.6885755999829,None,,,,,,,,,,,,,,00041,001,2026-01-23_18h51.27.276,MST_task,2024.2.0,59.84687577421824,2026-01-23 18h51.59.042180 +0530,
,Objects\011a.jpg,103,0,104,,,,,,,f,2.407652899972163,0.1917315000318922,None,,,,,,104,0,103,533.7040818999521,,,,,,,,,,,,,,,,,,,,,,,533.6888710999629,533.7040818999521,534.1875120999757,,,,,,,,,,,,,,534.2040180999902,,,,,,,,,,,,,534.1950473999605,534.2040180999902,534.2040180999902,534.2040180999902,537.2041908999672,537.2041908999672,537.2041908999672,537.1884378999821,f,2.407652899972163,0.1917315000318922,537.1886377999908,537.1886958999676,None,,,,,,,,,,,,,,00041,001,2026-01-23_18h51.27.276,MST_task,2024.2.0,59.84687577421824,2026-01-23 18h51.59.042180 +0530,
,Objects\157a.jpg,104,0,105,,,,,,,f,0.9950951000209898,0.20793189998948947,None,,,,,,105,0,104,537.2041908999672,,,,,,,,,,,,,,,,,,,,,,,537.1889923999552,537.2041908999672,537.6875304999994,,,,,,,,,,,,,,537.704078699986,,,,,,,,,,,,,537.6959657999687,537.704078699986,537.704078699986,537.704078699986,540.7037867999752,540.7037867999752,540.7037867999752,540.6883214999689,f,0.9950951000209898,0.20793189998948947,540.6885201999685,540.6885798999574,None,,,,,,,,,,,,,,00041,001,2026-01-23_18h51.27.276,MST_task,2024.2.0,59.84687577421824,2026-01-23 18h51.59.042180 +0530,
,Scenes\026a.jpg,105,0,106,,,,,,,j,1.452729200012982,0.13674009998794645,None,,,,,,106,0,105,540.7037867999752,,,,,,,,,,,,,,,,,,,,,,,540.6889552999637,540.7037867999752,541.1878593000001,,,,,,,,,,,,,,541.206363699981,,,,,,,,,,,,,541.2034949999652,541.206363699981,541.206363699981,541.206363699981,,,,544.2042440999649,j,1.452729200012982,0.13674009998794645,544.2044467999949,544.2045126999728,None,,,,,,,,,,,,,,00041,001,2026-01-23_18h51.27.276,MST_task,2024.2.0,59.84687577421824,2026-01-23 18h51.59.042180 +0530,
,Scenes\052a.jpg,106,0,107,,,,,,,None,,,j,2.338468100002501,None,,,,107,0,106,544.2203820999712,,,,,,,,,,,,,,,,,,,,,,,544.2048033999745,544.2203820999712,544.704076999973,,,,,,,,,,,,,,544.7232260999735,,,,,,,,,,,,,544.7204039999633,544.7232260999735,544.7232260999735,544.7232260999735,,,,547.7209062000038,None,,,547.7210868999828,550.0877073999727,j,547.7371574999997,547.7371574999997,2.338468100002501,None,,,,,,,,,,00041,001,2026-01-23_18h51.27.276,MST_task,2024.2.0,59.84687577421824,2026-01-23 18h51.59.042180 +0530,
,Scenes\179a.jpg,107,0,108,,,,,,,None,,,j,0.7040681999642402,None,,,,108,0,107,550.1046093999757,,,,,,,,,,,,,,,,,,,,,,,550.0880785000045,550.1046093999757,550.5874524999526,,,,,,,,,,,,,,550.6042100999621,,,,,,,,,,,,,550.6015696999966,550.6042100999621,550.6042100999621,550.6042100999621,553.6035662000068,553.6035662000068,553.6035662000068,553.5879822999705,None,,,553.5881632000091,554.3210502999718,j,553.6035662000068,553.6035662000068,0.7040681999642402,None,,,,,,,,,,00041,001,2026-01-23_18h51.27.276,MST_task,2024.2.0,59.84687577421824,2026-01-23 18h51.59.042180 +0530,
,Scenes\007a.jpg,108,0,109,,,,,,,f,1.9660840999567881,0.11262470000656322,None,,,,,,109,0,108,554.3371176999644,,,,,,,,,,,,,,,,,,,,,,,554.3214091999689,554.3371176999644,554.8208291999763,,,,,,,,,,,,,,554.8371122999815,,,,,,,,,,,,,554.8339569999953,554.8371122999815,554.8371122999815,554.8371122999815,,,,557.8219834999763,f,1.9660840999567881,0.11262470000656322,557.8221944999532,557.8222630000091,None,,,,,,,,,,,,,,00041,001,2026-01-23_18h51.27.276,MST_task,2024.2.0,59.84687577421824,2026-01-23 18h51.59.042180 +0530,
,Scenes\042a.jpg,109,0,110,,,,,,,j,1.889316199987661,0.128102199989371,None,,,,,,110,0,109,557.8369521999848,,,,,,,,,,,,,,,,,,,,,,,557.8225550999632,557.8369521999848,558.3209257999551,,,,,,,,,,,,,,558.3377301999717,,,,,,,,,,,,,558.3304980999674,558.3377301999717,558.3377301999717,558.3377301999717,561.3368406000081,561.3368406000081,561.3368406000081,561.3218633999932,j,1.889316199987661,0.128102199989371,561.3220547999954,561.3221124999691,None,,,,,,,,,,,,,,00041,001,2026-01-23_18h51.27.276,MST_task,2024.2.0,59.84687577421824,2026-01-23 18h51.59.042180 +0530,
,Scenes\178a.jpg,110,0,111,,,,,,,j,1.169047600007616,0.09565699996892363,None,,,,,,111,0,110,561.3368406000081,,,,,,,,,,,,,,,,,,,,,,,561.3224083999521,561.3368406000081,561.8208892999683,,,,,,,,,,,,,,561.8506589999888,,,,,,,,,,,,,561.8479699000018,561.8506589999888,561.8506589999888,561.8506589999888,,,,564.8376958000008,j,1.169047600007616,0.09565699996892363,564.8378913999768,564.8379557000007,None,,,,,,,,,,,,,,00041,001,2026-01-23_18h51.27.276,MST_task,2024.2.0,59.84687577421824,2026-01-23 18h51.59.042180 +0530,
,Scenes\163a.jpg,111,0,112,,,,,,,j,1.3449281000066549,0.064045500010252,None,,,,,,112,0,111,564.853880599956,,,,,,,,,,,,,,,,,,,,,,,564.8382487999625,564.853880599956,565.3374736999976,,,,,,,,,,,,,,565.354155399953,,,,,,,,,,,,,565.3498376999632,565.354155399953,565.354155399953,565.354155399953,568.3538727999548,568.3538727999548,568.3538727999548,568.3385038999841,j,1.3449281000066549,0.064045500010252,568.338722299959,568.3387812000001,None,,,,,,,,,,,,,,00041,001,2026-01-23_18h51.27.276,MST_task,2024.2.0,59.84687577421824,2026-01-23 18h51.59.042180 +0530,
,Objects\108a.jpg,112,0,113,,,,,,,f,2.9488772000186145,None,None,,,,,,113,0,112,568.3538727999548,,,,,,,,,,,,,,,,,,,,,,,568.3391490000067,568.3538727999548,568.8372359999921,,,,,,,,,,,,,,568.854419899988,,,,,,,,,,,,,568.8465825999738,568.854419899988,568.854419899988,568.854419899988,571.8542584999814,571.8542584999814,571.8542584999814,571.8383127999841,f,2.9488772000186145,None,571.8385141000035,571.8385735999909,None,,,,,,,,,,,,,,00041,001,2026-01-23_18h51.27.276,MST_task,2024.2.0,59.84687577421824,2026-01-23 18h51.59.042180 +0530,
,Objects\145a.jpg,113,0,114,,,,,,,f,1.3293705999967642,0.2078857999877073,None,,,,,,114,0,113,571.8542584999814,,,,,,,,,,,,,,,,,,,,,,,571.8389554999885,571.8542584999814,572.3374073999585,,,,,,,,,,,,,,572.3537746999646,,,,,,,,,,,,,572.345822800009,572.3537746999646,572.3537746999646,572.3537746999646,575.3534672999522,575.3534672999522,575.3534672999522,575.3383256999659,f,1.3293705999967642,0.2078857999877073,575.3385205999948,575.3385783999693,None,,,,,,,,,,,,,,00041,001,2026-01-23_18h51.27.276,MST_task,2024.2.0,59.84687577421824,2026-01-23 18h51.59.042180 +0530,
,Objects\081a.jpg,114,0,115,,,,,,,f,2.500891500036232,0.17684089997783303,None,,,,,,115,0,114,575.3534672999522,,,,,,,,,,,,,,,,,,,,,,,575.338959799963,575.3534672999522,575.8375571999932,,,,,,,,,,,,,,575.8540763999918,,,,,,,,,,,,,575.8476006999845,575.8540763999918,575.8540763999918,575.8540763999918,578.8538622999913,578.8538622999913,578.8538622999913,578.8383160000085,f,2.500891500036232,0.17684089997783303,578.8384975999943,578.838553199952,None,,,,,,,,,,,,,,00041,001,2026-01-23_18h51.27.276,MST_task,2024.2.0,59.84687577421824,2026-01-23 18h51.59.042180 +0530,
,Objects\143a.jpg,115,0,116,,,,,,,None,,,f,0.21734380000270903,None,,,,116,0,115,578.8538622999913,,,,,,,,,,,,,,,,,,,,,,,578.8388356000069,578.8538622999913,579.337860199972,,,,,,,,,,,,,,579.3544797999784,,,,,,,,,,,,,579.3462583000073,579.3544797999784,579.3544797999784,579.3544797999784,582.3538703999948,582.3538703999948,582.3538703999948,582.3382993999985,None,,,582.3384853999596,582.5880703000003,f,582.3538703999948,582.3538703999948,0.21734380000270903,None,,,,,,,,,,00041,001,2026-01-23_18h51.27.276,MST_task,2024.2.0,59.84687577421824,2026-01-23 18h51.59.042180 +0530,
,Objects\019a.jpg,116,0,117,,,,,,,f,1.0277431999566033,0.1682378000114113,None,,,,,,117,0,116,582.6038537999848,,,,,,,,,,,,,,,,,,,,,,,582.5884063999983,582.6038537999848,583.0874050999992,,,,,,,,,,,,,,583.1038205999648,,,,,,,,,,,,,583.0941553000011,583.1038205999648,583.1038205999648,583.1038205999648,586.1038620999898,586.1038620999898,586.1038620999898,586.088572299981,f,1.0277431999566033,0.1682378000114113,586.0887766999658,586.0888380999677,None,,,,,,,,,,,,,,00041,001,2026-01-23_18h51.27.276,MST_task,2024.2.0,59.84687577421824,2026-01-23 18h51.59.042180 +0530,
,Objects\035a.jpg,117,0,118,,,,,,,f,0.8797049999702722,0.17588660004548728,None,,,,,,118,0,117,586.1038620999898,,,,,,,,,,,,,,,,,,,,,,,586.089140600001,586.1038620999898,586.588232799957,,,,,,,,,,,,,,586.6041787999566,,,,,,,,,,,,,586.5966545999981,586.6041787999566,586.6041787999566,586.6041787999566,589.6038241999922,589.6038241999922,589.6038241999922,589.5883396999561,f,0.8797049999702722,0.17588660004548728,589.588551599998,589.5886128999991,None,,,,,,,,,,,,,,00041,001,2026-01-23_18h51.27.276,MST_task,2024.2.0,59.84687577421824,2026-01-23 18h51.59.042180 +0530,
,Objects\183a.jpg,118,0,119,,,,,,,f,1.1714543999987654,0.16749810002511367,None,,,,,,119,0,118,589.6038241999922,,,,,,,,,,,,,,,,,,,,,,,589.5889094999875,589.6038241999922,590.0875288999523,,,,,,,,,,,,,,590.1041300999932,,,,,,,,,,,,,590.0965268999571,590.1041300999932,590.1041300999932,590.1041300999932,593.1038855999941,593.1038855999941,593.1038855999941,593.088378299959,f,1.1714543999987654,0.16749810002511367,593.0885766999563,593.0886362000019,None,,,,,,,,,,,,,,00041,001,2026-01-23_18h51.27.276,MST_task,2024.2.0,59.84687577421824,2026-01-23 18h51.59.042180 +0530,
,Scenes\107a.jpg,119,0,120,,,,,,,j,1.2549696000060067,0.12022530002286658,None,,,,,,120,0,119,593.1038855999941,,,,,,,,,,,,,,,,,,,,,,,593.0890197999543,593.1038855999941,593.5875268999953,,,,,,,,,,,,,,593.6041820999817,,,,,,,,,,,,,593.6016431999742,593.6041820999817,593.6041820999817,593.6041820999817,596.6035511000082,596.6035511000082,596.6035511000082,596.5881875999621,j,1.2549696000060067,0.12022530002286658,596.5883827999933,596.5884439999936,None,,,,,,,,,,,,,,00041,001,2026-01-23_18h51.27.276,MST_task,2024.2.0,59.84687577421824,2026-01-23 18h51.59.042180 +0530,
,Scenes\136a.jpg,120,0,121,,,,,,,None,,,j,0.09912490000715479,None,,,,121,0,120,596.6035511000082,,,,,,,,,,,,,,,,,,,,,,,596.588740999985,596.6035511000082,597.0882665999816,,,,,,,,,,,,,,597.1049552999903,,,,,,,,,,,,,597.1011003999738,597.1049552999903,597.1049552999903,597.1049552999903,,,,600.104359799996,None,,,600.1045397999696,600.2210362000042,j,600.1201206999831,600.1201206999831,0.09912490000715479,None,,,,,,,,,,00041,001,2026-01-23_18h51.27.276,MST_task,2024.2.0,59.84687577421824,2026-01-23 18h51.59.042180 +0530,
,Scenes\105a.jpg,121,0,122,,,,,,,j,1.5348412999883294,0.1521919000078924,None,,,,,,122,0,121,600.2371409999905,,,,,,,,,,,,,,,,,,,,,,,600.2214899999672,600.2371409999905,600.7207613000064,,,,,,,,,,,,,,600.7407751999563,,,,,,,,,,,,,600.7381139000063,600.7407751999563,600.7407751999563,600.7407751999563,,,,603.7373044999549,j,1.5348412999883294,0.1521919000078924,603.7375024000066,603.7375694999937,None,,,,,,,,,,,,,,00041,001,2026-01-23_18h51.27.276,MST_task,2024.2.0,59.84687577421824,2026-01-23 18h51.59.042180 +0530,
,Scenes\016a.jpg,122,0,123,,,,,,,j,1.0928993999841623,0.1200486000161618,None,,,,,,123,0,122,603.7538696999545,,,,,,,,,,,,,,,,,,,,,,,603.7379311999539,603.7538696999545,604.2369476999738,,,,,,,,,,,,,,604.2544518999639,,,,,,,,,,,,,604.247432300006,604.2544518999639,604.2544518999639,604.2544518999639,,,,607.2383044000017,j,1.0928993999841623,0.1200486000161618,607.2385149999755,607.2385808999534,None,,,,,,,,,,,,,,00041,001,2026-01-23_18h51.27.276,MST_task,2024.2.0,59.84687577421824,2026-01-23 18h51.59.042180 +0530,
,Scenes\066a.jpg,123,0,124,,,,,,,j,2.5934183000354096,0.14415879995794967,None,,,,,,124,0,123,607.2535512999748,,,,,,,,,,,,,,,,,,,,,,,607.2389597999863,607.2535512999748,607.7373563000001,,,,,,,,,,,,,,607.7541771999677,,,,,,,,,,,,,607.7475709999562,607.7541771999677,607.7541771999677,607.7541771999677,610.7538685000036,610.7538685000036,610.7538685000036,610.7384209999582,j,2.5934183000354096,0.14415879995794967,610.7386136999703,610.7386716000037,None,,,,,,,,,,,,,,00041,001,2026-01-23_18h51.27.276,MST_task,2024.2.0,59.84687577421824,2026-01-23 18h51.59.042180 +0530,
,Scenes\183a.jpg,124,0,125,,,,,,,f,1.9694049999816343,0.15264320001006126,None,,,,,,125,0,124,610.7538685000036,,,,,,,,,,,,,,,,,,,,,,,610.7390478999587,610.7538685000036,611.2375480000046,,,,,,,,,,,,,,611.2577565999818,,,,,,,,,,,,,611.2552758000093,611.2577565999818,611.2577565999818,611.2577565999818,,,,614.2537706999574,f,1.9694049999816343,0.15264320001006126,614.2540328999748,614.2541271999944,None,,,,,,,,,,,,,,00041,001,2026-01-23_18h51.27.276,MST_task,2024.2.0,59.84687577421824,2026-01-23 18h51.59.042180 +0530,
,Scenes\131a.jpg,125,0,126,,,,,,,j,1.6328695999691263,0.11835780000546947,None,,,,,,126,0,125,614.2704285999644,,,,,,,,,,,,,,,,,,,,,,,614.2546381999855,614.2704285999644,614.7535011,,,,,,,,,,,,,,614.7719052999746,,,,,,,,,,,,,614.7692779999925,614.7719052999746,614.7719052999746,614.7719052999746,,,,617.7709140999941,j,1.6328695999691263,0.11835780000546947,617.7711147000082,617.7711798999808,None,,,,,,,,,,,,,,00041,001,2026-01-23_18h51.27.276,MST_task,2024.2.0,59.84687577421824,2026-01-23 18h51.59.042180 +0530,
,Objects\059a.jpg,126,0,127,,,,,,,None,,,f,0.2846377000096254,None,,,,127,0,126,617.7873871999909,,,,,,,,,,,,,,,,,,,,,,,617.7714792999905,617.7873871999909,618.2709280999843,,,,,,,,,,,,,,618.2877365999739,,,,,,,,,,,,,618.2805605999893,618.2877365999739,618.2877365999739,618.2877365999739,621.2868055999861,621.2868055999861,621.2868055999861,621.2715961000067,None,,,621.2717776999925,621.5876768999733,f,621.2868055999861,621.2868055999861,0.2846377000096254,None,,,,,,,,,,00041,001,2026-01-23_18h51.27.276,MST_task,2024.2.0,59.84687577421824,2026-01-23 18h51.59.042180 +0530,
,Objects\085a.jpg,127,0,128,,,,,,,f,1.2350205999682657,0.17660770000657067,None,,,,,,128,0,127,621.6038735999609,,,,,,,,,,,,,,,,,,,,,,,621.5881250000093,621.6038735999609,622.0880926999962,,,,,,,,,,,,,,,,,,,,,,,,,,,622.0970942999702,622.1041168000083,622.1041168000083,622.1041168000083,625.1046255999827,625.1046255999827,625.1046255999827,625.0883407999645,f,1.2350205999682657,0.17660770000657067,625.0885340999812,625.0885947999777,None,,,,,,,,,,,,,,00041,001,2026-01-23_18h51.27.276,MST_task,2024.2.0,59.84687577421824,2026-01-23 18h51.59.042180 +0530,
,Objects\173a.jpg,128,0,129,,,,,,,f,0.8873792999656871,0.21548830001847818,None,,,,,,129,0,128,625.1046255999827,,,,,,,,,,,,,,,,,,,,,,,625.0889595999615,625.1046255999827,625.5874633999774,,,,,,,,,,,,,,625.6041432999773,,,,,,,,,,,,,625.5962374999654,625.6041432999773,625.6041432999773,625.6041432999773,628.6038776999922,628.6038776999922,628.6038776999922,628.5883985999972,f,0.8873792999656871,0.21548830001847818,628.5885891999933,628.5886462999624,None,,,,,,,,,,,,,,00041,001,2026-01-23_18h51.27.276,MST_task,2024.2.0,59.84687577421824,2026-01-23 18h51.59.042180 +0530,
,Objects\043a.jpg,129,0,130,,,,,,,None,,,f,1.2513279999839142,None,,,,130,0,129,628.6038776999922,,,,,,,,,,,,,,,,,,,,,,,628.5890339000034,628.6038776999922,629.0874178999802,,,,,,,,,,,,,,629.1040213999804,,,,,,,,,,,,,629.0960080999648,629.1040213999804,629.1040213999804,629.1040213999804,632.1036525999662,632.1036525999662,632.1036525999662,632.0883200999815,None,,,632.0884987000027,633.3710646999534,f,632.1036525999662,632.1036525999662,1.2513279999839142,None,,,,,,,,,,00041,001,2026-01-23_18h51.27.276,MST_task,2024.2.0,59.84687577421824,2026-01-23 18h51.59.042180 +0530,
,Objects\060a.jpg,130,0,131,,,,,,,f,2.9399748999858275,None,None,,,,,,131,0,130,633.387130499992,,,,,,,,,,,,,,,,,,,,,,,633.3713997000013,633.387130499992,633.8711630000034,,,,,,,,,,,,,,633.8955854999949,,,,,,,,,,,,,633.8933655999717,633.8955854999949,633.8955854999949,633.8955854999949,,,,636.8713014999521,f,2.9399748999858275,None,636.8715033999761,636.8715687000076,None,,,,,,,,,,,,,,00041,001,2026-01-23_18h51.27.276,MST_task,2024.2.0,59.84687577421824,2026-01-23 18h51.59.042180 +0530,
,Objects\139a.jpg,131,0,132,,,,,,,None,,,f,1.8088166000088677,None,,,,132,0,131,636.8873496999731,,,,,,,,,,,,,,,,,,,,,,,636.8718561999849,636.8873496999731,637.3706328999833,,,,,,,,,,,,,,637.387050899968,,,,,,,,,,,,,637.3797868999536,637.387050899968,637.387050899968,637.387050899968,640.3868541999836,640.3868541999836,640.3868541999836,640.372060899972,None,,,640.3722406000015,642.2040824999567,f,640.3868541999836,640.3868541999836,1.8088166000088677,None,,,,,,,,,,00041,001,2026-01-23_18h51.27.276,MST_task,2024.2.0,59.84687577421824,2026-01-23 18h51.59.042180 +0530,
,Objects\142a.jpg,132,0,133,,,,,,,f,0.9230136000551283,0.19202899996889755,None,,,,,,133,0,132,642.2202910999767,,,,,,,,,,,,,,,,,,,,,,,642.2044308999903,642.2202910999767,642.7042735999567,,,,,,,,,,,,,,642.7285400999826,,,,,,,,,,,,,642.7258834000095,642.7285400999826,642.7285400999826,642.7285400999826,,,,645.7206960999756,f,0.9230136000551283,0.19202899996889755,645.7208978999988,645.7209673000034,None,,,,,,,,,,,,,,00041,001,2026-01-23_18h51.27.276,MST_task,2024.2.0,59.84687577421824,2026-01-23 18h51.59.042180 +0530,
,Scenes\181a.jpg,133,0,134,,,,,,,f,1.139952400000766,0.2156779000069946,None,,,,,,134,0,133,645.7369592000032,,,,,,,,,,,,,,,,,,,,,,,645.7213322999887,645.7369592000032,646.220764299971,,,,,,,,,,,,,,646.2396491999971,,,,,,,,,,,,,646.2370249999803,646.2396491999971,646.2396491999971,646.2396491999971,,,,649.237546999997,f,1.139952400000766,0.2156779000069946,649.2377403999562,649.2378062999924,None,,,,,,,,,,,,,,00041,001,2026-01-23_18h51.27.276,MST_task,2024.2.0,59.84687577421824,2026-01-23 18h51.59.042180 +0530,
,Scenes\153a.jpg,134,0,135,,,,,,,j,0.9747684999601915,0.14505849999841303,None,,,,,,135,0,134,649.2538724999758,,,,,,,,,,,,,,,,,,,,,,,649.2380986000062,649.2538724999758,649.737296999956,,,,,,,,,,,,,,649.7641013999819,,,,,,,,,,,,,649.7614091999712,649.7641013999819,649.7641013999819,649.7641013999819,,,,652.7542115999968,j,0.9747684999601915,0.14505849999841303,652.7544101999956,652.7544728000066,None,,,,,,,,,,,,,,00041,001,2026-01-23_18h51.27.276,MST_task,2024.2.0,59.84687577421824,2026-01-23 18h51.59.042180 +0530,
,Scenes\093a.jpg,135,0,136,,,,,,,f,1.5301455999724567,0.18385779997333884,None,,,,,,136,0,135,652.7701911999611,,,,,,,,,,,,,,,,,,,,,,,652.754838199995,652.7701911999611,653.2542766999686,,,,,,,,,,,,,,653.2732287999825,,,,,,,,,,,,,653.2705332000041,653.2732287999825,653.2732287999825,653.2732287999825,,,,656.2709551999578,f,1.5301455999724567,0.18385779997333884,656.2711638999754,656.2712284000008,None,,,,,,,,,,,,,,00041,001,2026-01-23_18h51.27.276,MST_task,2024.2.0,59.84687577421824,2026-01-23 18h51.59.042180 +0530,
,Scenes\053a.jpg,136,0,137,,,,,,,j,2.303913299983833,0.12824749998981133,None,,,,,,137,0,136,656.2871552999713,,,,,,,,,,,,,,,,,,,,,,,656.2716100999969,656.2871552999713,656.7715300999698,,,,,,,,,,,,,,,,,,,,,,,,,,,656.7792317999993,656.7876533999806,656.7876533999806,656.7876533999806,659.7873815000057,659.7873815000057,659.7873815000057,659.7718981999788,j,2.303913299983833,0.12824749998981133,659.7720923000015,659.772152599995,None,,,,,,,,,,,,,,00041,001,2026-01-23_18h51.27.276,MST_task,2024.2.0,59.84687577421824,2026-01-23 18h51.59.042180 +0530,
,Scenes\126a.jpg,137,0,138,,,,,,,j,2.0753925999742933,0.11217440001200885,None,,,,,,138,0,137,659.7873815000057,,,,,,,,,,,,,,,,,,,,,,,659.7725399999763,659.7873815000057,660.2709491999703,,,,,,,,,,,,,,660.2881766000064,,,,,,,,,,,,,660.2857640999719,660.2881766000064,660.2881766000064,660.2881766000064,663.2871326999739,663.2871326999739,663.2871326999739,663.2717746999697,j,2.0753925999742933,0.11217440001200885,663.2719707000069,663.2720301999943,None,,,,,,,,,,,,,,00041,001,2026-01-23_18h51.27.276,MST_task,2024.2.0,59.84687577421824,2026-01-23 18h51.59.042180 +0530,
,Scenes\089a.jpg,138,0,139,,,,,,,j,2.5975861999904737,0.08010970003670081,None,,,,,,139,0,138,663.2871326999739,,,,,,,,,,,,,,,,,,,,,,,663.2724008999649,663.2871326999739,663.770740399952,,,,,,,,,,,,,,663.7893942999654,,,,,,,,,,,,,663.7866036999621,663.7893942999654,663.7893942999654,663.7893942999654,,,,666.7875480999937,j,2.5975861999904737,0.08010970003670081,666.787740300002,666.7878063999815,None,,,,,,,,,,,,,,00041,001,2026-01-23_18h51.27.276,MST_task,2024.2.0,59.84687577421824,2026-01-23 18h51.59.042180 +0530,
,Scenes\060a.jpg,139,0,140,,,,,,,j,0.9536353000439703,0.10352050000801682,None,,,,,,140,0,139,666.8038857000065,,,,,,,,,,,,,,,,,,,,,,,666.7880963999778,666.8038857000065,667.2873218999594,,,,,,,,,,,,,,667.3059136999655,,,,,,,,,,,,,667.3030115999863,667.3059136999655,667.3059136999655,667.3059136999655,,,,670.3041861999664,j,0.9536353000439703,0.10352050000801682,670.3043999999645,670.3044650999946,None,,,,,,,,,,,,,,00041,001,2026-01-23_18h51.27.276,MST_task,2024.2.0,59.84687577421824,2026-01-23 18h51.59.042180 +0530,
,Objects\045a.jpg,140,0,141,,,,,,,f,0.9017373999813572,0.11988380004186183,None,,,,,,141,0,140,670.3204499999993,,,,,,,,,,,,,,,,,,,,,,,670.3048243999947,670.3204499999993,670.8044694999699,,,,,,,,,,,,,,670.8213665999938,,,,,,,,,,,,,670.8176612000098,670.8213665999938,670.8213665999938,670.8213665999938,673.8209555000067,673.8209555000067,673.8209555000067,673.8050629000063,f,0.9017373999813572,0.11988380004186183,673.8052631999599,673.8053215999971,None,,,,,,,,,,,,,,00041,001,2026-01-23_18h51.27.276,MST_task,2024.2.0,59.84687577421824,2026-01-23 18h51.59.042180 +0530,
,Objects\122a.jpg,141,0,142,,,,,,,f,1.4825602999771945,0.19239199999719858,None,,,,,,142,0,141,673.8209555000067,,,,,,,,,,,,,,,,,,,,,,,673.805702099984,673.8209555000067,674.3042723999824,,,,,,,,,,,,,,674.3207611999824,,,,,,,,,,,,,674.312274499971,674.3207611999824,674.3207611999824,674.3207611999824,677.3205962000065,677.3205962000065,677.3205962000065,677.3058306999737,f,1.4825602999771945,0.19239199999719858,677.3060168999946,677.3060745999683,None,,,,,,,,,,,,,,00041,001,2026-01-23_18h51.27.276,MST_task,2024.2.0,59.84687577421824,2026-01-23 18h51.59.042180 +0530,
,Objects\119a.jpg,142,0,143,,,,,,,f,2.766162699961569,None,None,,,,,,143,0,142,677.3205962000065,,,,,,,,,,,,,,,,,,,,,,,677.306368599995,677.3205962000065,677.8042784999707,,,,,,,,,,,,,,677.8207809999585,,,,,,,,,,,,,677.8130077999667,677.8207809999585,677.8207809999585,677.8207809999585,680.8205462999758,680.8205462999758,680.8205462999758,680.8052419999731,f,2.766162699961569,None,680.8054333999753,680.8054908000049,None,,,,,,,,,,,,,,00041,001,2026-01-23_18h51.27.276,MST_task,2024.2.0,59.84687577421824,2026-01-23 18h51.59.042180 +0530,
,Objects\147a.jpg,143,0,144,,,,,,,f,1.7626125999959186,0.19258309999713674,None,,,,,,144,0,143,680.8205462999758,,,,,,,,,,,,,,,,,,,,,,,680.8058425000054,680.8205462999758,681.3042633999721,,,,,,,,,,,,,,681.3208553000004,,,,,,,,,,,,,681.3132397999871,681.3208553000004,681.3208553000004,681.3208553000004,684.3210069999914,684.3210069999914,684.3210069999914,684.3050395000027,f,1.7626125999959186,0.19258309999713674,684.3052381000016,684.3052967999829,None,,,,,,,,,,,,,,00041,001,2026-01-23_18h51.27.276,MST_task,2024.2.0,59.84687577421824,2026-01-23 18h51.59.042180 +0530,
,Objects\170a.jpg,144,0,145,,,,,,,None,,,f,1.6944952000048943,None,,,,145,0,144,684.3210069999914,,,,,,,,,,,,,,,,,,,,,,,684.3055920999614,684.3210069999914,684.8042636999744,,,,,,,,,,,,,,684.8208036999567,,,,,,,,,,,,,684.8134899999714,684.8208036999567,684.8208036999567,684.8208036999567,687.8205445999629,687.8205445999629,687.8205445999629,687.8050668999786,None,,,687.805254100007,689.5210712999688,f,687.8205445999629,687.8205445999629,1.6944952000048943,None,,,,,,,,,,00041,001,2026-01-23_18h51.27.276,MST_task,2024.2.0,59.84687577421824,2026-01-23 18h51.59.042180 +0530,
,Objects\020a.jpg,145,0,146,,,,,,,f,2.606312700023409,0.1920846999855712,None,,,,,,146,0,145,689.5368294999935,,,,,,,,,,,,,,,,,,,,,,,689.5214491999941,689.5368294999935,690.0206879999605,,,,,,,,,,,,,,690.0372107999865,,,,,,,,,,,,,690.0293909999891,690.0372107999865,690.0372107999865,690.0372107999865,,,,693.0216218999703,f,2.606312700023409,0.1920846999855712,693.0218467999948,693.0219070999883,None,,,,,,,,,,,,,,00041,001,2026-01-23_18h51.27.276,MST_task,2024.2.0,59.84687577421824,2026-01-23 18h51.59.042180 +0530,
,Objects\032a.jpg,146,0,147,,,,,,,j,2.9143269999767654,None,None,,,,,,147,0,146,693.0369118999806,,,,,,,,,,,,,,,,,,,,,,,693.0222500999807,693.0369118999806,693.5206418999587,,,,,,,,,,,,,,693.5371980000054,,,,,,,,,,,,,693.5294616000028,693.5371980000054,693.5371980000054,693.5371980000054,696.5369830999989,696.5369830999989,696.5369830999989,696.5218010999961,j,2.9143269999767654,None,696.5219980999827,696.5220562999602,None,,,,,,,,,,,,,,00041,001,2026-01-23_18h51.27.276,MST_task,2024.2.0,59.84687577421824,2026-01-23 18h51.59.042180 +0530,
,Scenes\075a.jpg,147,0,148,,,,,,,j,1.2219282999867573,0.12051550002070144,None,,,,,,148,0,147,696.5369830999989,,,,,,,,,,,,,,,,,,,,,,,696.5224390999647,696.5369830999989,697.0216469999868,,,,,,,,,,,,,,697.0372673000093,,,,,,,,,,,,,697.0346263999818,697.0372673000093,697.0372673000093,697.0372673000093,700.0371706999722,700.0371706999722,700.0371706999722,700.0216054999619,j,1.2219282999867573,0.12051550002070144,700.0218015999999,700.0218626999995,None,,,,,,,,,,,,,,00041,001,2026-01-23_18h51.27.276,MST_task,2024.2.0,59.84687577421824,2026-01-23 18h51.59.042180 +0530,
,Scenes\009a.jpg,148,0,149,,,,,,,f,2.4139677999773994,0.19218330003786832,None,,,,,,149,0,148,700.0371706999722,,,,,,,,,,,,,,,,,,,,,,,700.0222293999977,700.0371706999722,700.5208742999821,,,,,,,,,,,,,,700.5409588000039,,,,,,,,,,,,,700.5381976999925,700.5409588000039,700.5409588000039,700.5409588000039,,,,703.5371321999701,f,2.4139677999773994,0.19218330003786832,703.5373296999605,703.5373965000035,None,,,,,,,,,,,,,,00041,001,2026-01-23_18h51.27.276,MST_task,2024.2.0,59.84687577421824,2026-01-23 18h51.59.042180 +0530,
,Scenes\172a.jpg,149,0,150,,,,,,,j,0.9572293999954127,0.11955609999131411,None,,,,,,150,0,149,703.5538760999916,,,,,,,,,,,,,,,,,,,,,,,703.5376981999725,703.5538760999916,704.037589399959,,,,,,,,,,,,,,704.0542486999766,,,,,,,,,,,,,704.0512721999548,704.0542486999766,704.0542486999766,704.0542486999766,707.0538822999806,707.0538822999806,707.0538822999806,707.0383537999587,j,0.9572293999954127,0.11955609999131411,707.0385508000036,707.038608599978,None,,,,,,,,,,,,,,00041,001,2026-01-23_18h51.27.276,MST_task,2024.2.0,59.84687577421824,2026-01-23 18h51.59.042180 +0530,
,Scenes\078a.jpg,150,0,151,,,,,,,None,,,j,1.344702300033532,None,,,,151,0,150,707.0538822999806,,,,,,,,,,,,,,,,,,,,,,,707.0389069999801,707.0538822999806,707.5375347000081,,,,,,,,,,,,,,707.5560791000025,,,,,,,,,,,,,707.5533966000075,707.5560791000025,707.5560791000025,707.5560791000025,,,,710.5540856999578,None,,,710.5542782999692,711.920802299981,j,710.5704506000038,710.5704506000038,1.344702300033532,None,,,,,,,,,,00041,001,2026-01-23_18h51.27.276,MST_task,2024.2.0,59.84687577421824,2026-01-23 18h51.59.042180 +0530,
,Scenes\165a.jpg,151,0,152,,,,,,,None,,,f,0.8534034000476822,None,,,,152,0,151,711.9369673999608,,,,,,,,,,,,,,,,,,,,,,,711.9212580999592,711.9369673999608,712.420931599976,,,,,,,,,,,,,,712.4483290999779,,,,,,,,,,,,,712.4455903999624,712.4483290999779,712.4483290999779,712.4483290999779,,,,715.4372066999786,None,,,715.4373876999598,716.3207503999583,f,715.4535971999867,715.4535971999867,0.8534034000476822,None,,,,,,,,,,00041,001,2026-01-23_18h51.27.276,MST_task,2024.2.0,59.84687577421824,2026-01-23 18h51.59.042180 +0530,
,Scenes\106a.jpg,152,0,153,,,,,,,j,2.0696482000057586,0.12064679997274652,None,,,,,,153,0,152,716.3371422999771,,,,,,,,,,,,,,,,,,,,,,,716.3210869999602,716.3371422999771,716.8200577999814,,,,,,,,,,,,,,716.8371805999777,,,,,,,,,,,,,716.8317668999662,716.8371805999777,716.8371805999777,716.8371805999777,719.8369763999945,719.8369763999945,719.8369763999945,719.8215841999627,j,2.0696482000057586,0.12064679997274652,719.821797499957,719.8218731000088,None,,,,,,,,,,,,,,00041,001,2026-01-23_18h51.27.276,MST_task,2024.2.0,59.84687577421824,2026-01-23 18h51.59.042180 +0530,
,Scenes\077a.jpg,153,0,154,,,,,,,j,1.8818629000452347,0.07997129997238517,None,,,,,,154,0,153,719.8369763999945,,,,,,,,,,,,,,,,,,,,,,,719.8222572999657,719.8369763999945,720.3209585999721,,,,,,,,,,,,,,720.3377912999713,,,,,,,,,,,,,720.3313584999996,720.3377912999713,720.3377912999713,720.3377912999713,723.336940899957,723.336940899957,723.336940899957,723.3215478999773,j,1.8818629000452347,0.07997129997238517,723.3217414999963,723.3217993999715,None,,,,,,,,,,,,,,00041,001,2026-01-23_18h51.27.276,MST_task,2024.2.0,59.84687577421824,2026-01-23 18h51.59.042180 +0530,
,Objects\061a.jpg,154,0,155,,,,,,,j,2.5557437999523245,0.12037540000164881,None,,,,,,155,0,154,723.336940899957,,,,,,,,,,,,,,,,,,,,,,,723.322093499999,723.336940899957,723.8209372999845,,,,,,,,,,,,,,723.8473620999721,,,,,,,,,,,,,723.84404180001,723.8473620999721,723.8473620999721,723.8473620999721,,,,726.8379656999605,j,2.5557437999523245,0.12037540000164881,726.8381625000038,726.8382268999703,None,,,,,,,,,,,,,,00041,001,2026-01-23_18h51.27.276,MST_task,2024.2.0,59.84687577421824,2026-01-23 18h51.59.042180 +0530,
,Objects\039a.jpg,155,0,156,,,,,,,j,2.5766125000081956,0.11229710001498461,None,,,,,,156,0,155,726.8538013999932,,,,,,,,,,,,,,,,,,,,,,,726.8386118999915,726.8538013999932,727.3375404999824,,,,,,,,,,,,,,727.3547420999967,,,,,,,,,,,,,727.3462043000036,727.3547420999967,727.3547420999967,727.3547420999967,730.3538840999827,730.3538840999827,730.3538840999827,730.338396999985,j,2.5766125000081956,0.11229710001498461,730.3385874999803,730.3386608999572,None,,,,,,,,,,,,,,00041,001,2026-01-23_18h51.27.276,MST_task,2024.2.0,59.84687577421824,2026-01-23 18h51.59.042180 +0530,
,Objects\069a.jpg,156,0,157,,,,,,,j,1.7413721000193618,0.09543369995662943,None,,,,,,157,0,156,730.3538840999827,,,,,,,,,,,,,,,,,,,,,,,730.3390328999958,730.3538840999827,730.8375585000031,,,,,,,,,,,,,,730.8541318000061,,,,,,,,,,,,,730.8470540999551,730.8541318000061,730.8541318000061,730.8541318000061,733.8546468999702,733.8546468999702,733.8546468999702,733.8381006999989,j,1.7413721000193618,0.09543369995662943,733.8382934999536,733.8383522999939,None,,,,,,,,,,,,,,00041,001,2026-01-23_18h51.27.276,MST_task,2024.2.0,59.84687577421824,2026-01-23 18h51.59.042180 +0530,
,Objects\158a.jpg,157,0,158,,,,,,,f,2.4893686999566853,0.17621639999561012,None,,,,,,158,0,157,733.8546468999702,,,,,,,,,,,,,,,,,,,,,,,733.8387302999618,733.8546468999702,734.3375498999958,,,,,,,,,,,,,,734.35413469997,,,,,,,,,,,,,734.347305000003,734.35413469997,734.35413469997,734.35413469997,737.3539076999878,737.3539076999878,737.3539076999878,737.338396999985,f,2.4893686999566853,0.17621639999561012,737.3385902000009,737.3386486999807,None,,,,,,,,,,,,,,00041,001,2026-01-23_18h51.27.276,MST_task,2024.2.0,59.84687577421824,2026-01-23 18h51.59.042180 +0530,
,Objects\010a.jpg,158,0,159,,,,,,,f,1.677103399997577,0.17591839999658987,None,,,,,,159,0,158,737.3539076999878,,,,,,,,,,,,,,,,,,,,,,,737.3390221999725,737.3539076999878,737.8374447999522,,,,,,,,,,,,,,737.8539625999983,,,,,,,,,,,,,737.8469305000035,737.8539625999983,737.8539625999983,737.8539625999983,740.8536518999608,740.8536518999608,740.8536518999608,740.8380567999557,f,1.677103399997577,0.17591839999658987,740.8382486999617,740.8383063999936,None,,,,,,,,,,,,,,00041,001,2026-01-23_18h51.27.276,MST_task,2024.2.0,59.84687577421824,2026-01-23 18h51.59.042180 +0530,
,Objects\062a.jpg,159,0,160,,,,,,,f,1.0168392999912612,0.16809920000378042,None,,,,,,160,0,159,740.8536518999608,,,,,,,,,,,,,,,,,,,,,,,740.8385963999899,740.8536518999608,741.3383953999728,,,,,,,,,,,,,,741.3540913999896,,,,,,,,,,,,,741.3449569999939,741.3540913999896,741.3540913999896,741.3540913999896,744.3545927999658,744.3545927999658,744.3545927999658,744.3381571999635,f,1.0168392999912612,0.16809920000378042,744.338353500003,744.3384120999835,None,,,,,,,,,,,,,,00041,001,2026-01-23_18h51.27.276,MST_task,2024.2.0,59.84687577421824,2026-01-23 18h51.59.042180 +0530,
,Objects\051a.jpg,160,0,161,,,,,,,None,,,j,1.0455716000287794,None,,,,161,0,160,744.3545927999658,,,,,,,,,,,,,,,,,,,,,,,744.3387140999548,744.3545927999658,744.8375415999908,,,,,,,,,,,,,,744.8541266999673,,,,,,,,,,,,,744.8455414999626,744.8541266999673,744.8541266999673,744.8541266999673,747.8538954999531,747.8538954999531,747.8538954999531,747.8383446999942,None,,,747.838522200007,748.9043697000016,j,747.8538954999531,747.8538954999531,1.0455716000287794,None,,,,,,,,,,00041,001,2026-01-23_18h51.27.276,MST_task,2024.2.0,59.84687577421824,2026-01-23 18h51.59.042180 +0530,
,Scenes\108a.jpg,161,0,162,,,,,,,j,1.4640395000460558,0.12021299998741597,None,,,,,,162,0,161,748.9203125999775,,,,,,,,,,,,,,,,,,,,,,,748.9047635999741,748.9203125999775,749.4042843999923,,,,,,,,,,,,,,749.4274063999765,,,,,,,,,,,,,749.4246046000044,749.4274063999765,749.4274063999765,749.4274063999765,,,,752.4212363999686,j,1.4640395000460558,0.12021299998741597,752.4214324000059,752.4214985999861,None,,,,,,,,,,,,,,00041,001,2026-01-23_18h51.27.276,MST_task,2024.2.0,59.84687577421824,2026-01-23 18h51.59.042180 +0530,
,Scenes\190a.jpg,162,0,163,,,,,,,j,0.8459920000168495,0.09554029995342717,None,,,,,,163,0,162,752.4371487000026,,,,,,,,,,,,,,,,,,,,,,,752.4217851999565,752.4371487000026,752.9209184999927,,,,,,,,,,,,,,752.949494600005,,,,,,,,,,,,,752.9465393999708,752.949494600005,752.949494600005,752.949494600005,,,,755.9373017000034,j,0.8459920000168495,0.09554029995342717,755.937514099991,755.9375818999833,None,,,,,,,,,,,,,,00041,001,2026-01-23_18h51.27.276,MST_task,2024.2.0,59.84687577421824,2026-01-23 18h51.59.042180 +0530,
,Scenes\125a.jpg,163,0,164,,,,,,,j,0.7293871999718249,0.11270890000741929,None,,,,,,164,0,163,755.9538947999827,,,,,,,,,,,,,,,,,,,,,,,755.93788459996,755.9538947999827,756.4375480999588,,,,,,,,,,,,,,756.4575543999672,,,,,,,,,,,,,756.4548587999889,756.4575543999672,756.4575543999672,756.4575543999672,,,,759.4539633999811,j,0.7293871999718249,0.11270890000741929,759.4541585999541,759.4542227999773,None,,,,,,,,,,,,,,00041,001,2026-01-23_18h51.27.276,MST_task,2024.2.0,59.84687577421824,2026-01-23 18h51.59.042180 +0530,
