thisN,thisTrialN,thisRepN,key_resp_3.keys,key_resp_3.rt,key_resp_3.duration,trials.thisRepN,trials.thisTrialN,trials.thisN,thisRow.t,notes,intro_page.started,text.started,key_resp.started,intro_page.stopped,key_resp.keys,key_resp.rt,key_resp.duration,instructions.started,text_2.started,key_resp_2.started,instructions.stopped,key_resp_2.keys,key_resp_2.rt,key_resp_2.duration,demo1.started,image_1.started,image_2.started,text_7.started,key_resp_6.started,text_9.started,demo1.stopped,key_resp_6.keys,key_resp_6.rt,key_resp_6.duration,demo2.started,image_5.started,image_6.started,text_11.started,text_12.started,key_resp_8.started,demo2.stopped,key_resp_8.keys,key_resp_8.rt,key_resp_8.duration,demo_conclusion.started,text_13.started,key_resp_9.started,demo_conclusion.stopped,key_resp_9.keys,key_resp_9.rt,key_resp_9.duration,start_test.started,text_6.started,key_resp_5.started,start_test.stopped,key_resp_5.keys,key_resp_5.rt,key_resp_5.duration,ISI.started,text_4.started,text_4.stopped,ISI.stopped,routine_1.started,image.started,text_3.started,key_resp_3.started,routine_1.stopped,image_path,position_of_stimuli,trials.key_resp_3.keys,trials.key_resp_3.rt,trials.key_resp_3.duration,End_page.started,text_5.started,key_resp_4.started,End_page.stopped,key_resp_4.keys,key_resp_4.rt,key_resp_4.duration,participant,session,date,expName,psychopyVersion,frameRate,expStart,
,,,,,,,,,,,0.0011149999918416142,0.002678199962247163,0.002678199962247163,4.3742549999733455,space,4.349316600011662,None,,,,,,,,,,,,,,,,,,,,,,,,,,,,,,,,,,,,,,,,,,,,,,,,,,,,,,,,,,,,,,,00040,001,2026-01-23_17h44.12.035,MST_test,2024.2.0,60.038676902631224,2026-01-23 17h44.18.007629 +0530,
,,,,,,,,,,,,,,,,,,4.37432629999239,4.385109299968462,4.385109299968462,15.017332599963993,space,10.623492100043222,None,,,,,,,,,,,,,,,,,,,,,,,,,,,,,,,,,,,,,,,,,,,,,,,,,,,,,,,,00040,001,2026-01-23_17h44.12.035,MST_test,2024.2.0,60.038676902631224,2026-01-23 17h44.18.007629 +0530,
,,,,,,,,,,,,,,,,,,,,,,,,,15.017430899955798,15.05645109998295,15.05645109998295,15.05645109998295,15.05645109998295,15.05645109998295,19.400886499963235,space,4.343659200007096,None,,,,,,,,,,,,,,,,,,,,,,,,,,,,,,,,,,,,,,,,,,,,,,00040,001,2026-01-23_17h44.12.035,MST_test,2024.2.0,60.038676902631224,2026-01-23 17h44.18.007629 +0530,
,,,,,,,,,,,,,,,,,,,,,,,,,,,,,,,,,,,19.400999499950558,19.417668899986893,19.417668899986893,19.417668899986893,19.417668899986893,19.417668899986893,21.767609799979255,space,2.334454399999231,None,,,,,,,,,,,,,,,,,,,,,,,,,,,,,,,,,,,,00040,001,2026-01-23_17h44.12.035,MST_test,2024.2.0,60.038676902631224,2026-01-23 17h44.18.007629 +0530,
,,,,,,,,,,,,,,,,,,,,,,,,,,,,,,,,,,,,,,,,,,,,,21.76770739996573,21.783357599982992,21.783357599982992,34.96733239997411,space,13.168721800029743,None,,,,,,,,,,,,,,,,,,,,,,,,,,,,,00040,001,2026-01-23_17h44.12.035,MST_test,2024.2.0,60.038676902631224,2026-01-23 17h44.18.007629 +0530,
,,,,,,,,,,,,,,,,,,,,,,,,,,,,,,,,,,,,,,,,,,,,,,,,,,,,34.967432699981146,34.98337099998025,34.98337099998025,117.88388119998854,space,82.89735409995774,None,,,,,,,,,,,,,,,,,,,,,,00040,001,2026-01-23_17h44.12.035,MST_test,2024.2.0,60.038676902631224,2026-01-23 17h44.18.007629 +0530,
0,0,1,s,3.4327619000105187,None,1,0,0,117.89999069995247,,,,,,,,,,,,,,,,,,,,,,,,,,,,,,,,,,,,,,,,,,,,,,,,,,117.89432739996118,117.89999069995247,118.3997776999604,118.3840517999488,118.3974400999723,118.3997776999604,118.3997776999604,118.3997776999604,121.83386630000314,Objects\120a.jpg,post,s,3.4327619000105187,None,,,,,,,,00040,001,2026-01-23_17h44.12.035,MST_test,2024.2.0,60.038676902631224,2026-01-23 17h44.18.007629 +0530,
1,0,2,s,2.609206199995242,None,2,0,1,121.84998279996216,,,,,,,,,,,,,,,,,,,,,,,,,,,,,,,,,,,,,,,,,,,,,,,,,,121.83423539996147,121.84998279996216,122.36768369999481,122.33373769995524,122.36532399995485,122.36768369999481,122.36768369999481,122.36768369999481,124.98372959997505,Objects\030b.jpg,mid,s,2.609206199995242,None,,,,,,,,00040,001,2026-01-23_17h44.12.035,MST_test,2024.2.0,60.038676902631224,2026-01-23 17h44.18.007629 +0530,
2,0,3,o,1.9875175000051968,None,3,0,2,125.00007199996617,,,,,,,,,,,,,,,,,,,,,,,,,,,,,,,,,,,,,,,,,,,,,,,,,,124.98408899997594,125.00007199996617,125.50068810000084,125.4837454999797,125.49222259997623,125.50068810000084,125.50068810000084,125.50068810000084,127.50073289999273,Objects\073a.jpg,mid,o,1.9875175000051968,None,,,,,,,,00040,001,2026-01-23_17h44.12.035,MST_test,2024.2.0,60.038676902631224,2026-01-23 17h44.18.007629 +0530,
3,0,4,o,1.4551914000185207,None,4,0,3,127.51678689999972,,,,,,,,,,,,,,,,,,,,,,,,,,,,,,,,,,,,,,,,,,,,,,,,,,127.50108839996392,127.51678689999972,128.01728749996983,128.0004886999959,128.01487579999957,128.01728749996983,128.01728749996983,128.01728749996983,129.48402189998887,Scenes\030a.jpg,pre,o,1.4551914000185207,None,,,,,,,,00040,001,2026-01-23_17h44.12.035,MST_test,2024.2.0,60.038676902631224,2026-01-23 17h44.18.007629 +0530,
4,0,5,s,2.176303000014741,None,5,0,4,129.50010159995873,,,,,,,,,,,,,,,,,,,,,,,,,,,,,,,,,,,,,,,,,,,,,,,,,,129.48437520000152,129.50010159995873,130.01621390000219,129.98374779999722,130.01394449995132,130.01621390000219,130.01621390000219,130.01621390000219,132.20048099994892,Objects\079b.jpg,mid,s,2.176303000014741,None,,,,,,,,00040,001,2026-01-23_17h44.12.035,MST_test,2024.2.0,60.038676902631224,2026-01-23 17h44.18.007629 +0530,
5,0,6,n,1.670480300032068,None,6,0,5,132.21678039996186,,,,,,,,,,,,,,,,,,,,,,,,,,,,,,,,,,,,,,,,,,,,,,,,,,132.2008432999719,132.21678039996186,132.73023599997396,132.70049229997676,132.72755319997668,132.73023599997396,132.73023599997396,132.73023599997396,134.40173879999202,Foils\scenes30.jpg,none,n,1.670480300032068,None,,,,,,,,00040,001,2026-01-23_17h44.12.035,MST_test,2024.2.0,60.038676902631224,2026-01-23 17h44.18.007629 +0530,
6,0,7,s,1.8321979999891482,None,7,0,6,134.41684159997385,,,,,,,,,,,,,,,,,,,,,,,,,,,,,,,,,,,,,,,,,,,,,,,,,,134.40211149997776,134.41684159997385,134.9441142999567,134.90122159995371,134.94174949999433,134.9441142999567,134.9441142999567,134.9441142999567,136.78433249995578,Scenes\021b.jpg,post,s,1.8321979999891482,None,,,,,,,,00040,001,2026-01-23_17h44.12.035,MST_test,2024.2.0,60.038676902631224,2026-01-23 17h44.18.007629 +0530,
7,0,8,s,1.972492200031411,None,8,0,7,136.8001072999905,,,,,,,,,,,,,,,,,,,,,,,,,,,,,,,,,,,,,,,,,,,,,,,,,,136.78469419997418,136.8001072999905,137.32402050000383,137.28416599996854,137.3213186999783,137.32402050000383,137.32402050000383,137.32402050000383,139.3007519999519,Objects\095b.jpg,post,s,1.972492200031411,None,,,,,,,,00040,001,2026-01-23_17h44.12.035,MST_test,2024.2.0,60.038676902631224,2026-01-23 17h44.18.007629 +0530,
8,0,9,n,1.9659199999878183,None,9,0,8,139.31678779999493,,,,,,,,,,,,,,,,,,,,,,,,,,,,,,,,,,,,,,,,,,,,,,,,,,139.30111439997563,139.31678779999493,139.83400239999173,139.80050539999502,139.83191099995747,139.83400239999173,139.83400239999173,139.83400239999173,141.80091079999693,Foils\081a.jpg,none,n,1.9659199999878183,None,,,,,,,,00040,001,2026-01-23_17h44.12.035,MST_test,2024.2.0,60.038676902631224,2026-01-23 17h44.18.007629 +0530,
9,0,10,n,2.0429923000046983,None,10,0,9,141.81753369997023,,,,,,,,,,,,,,,,,,,,,,,,,,,,,,,,,,,,,,,,,,,,,,,,,,141.8013723999611,141.81753369997023,142.3169932999881,142.30027159996098,142.31420949997846,142.3169932999881,142.3169932999881,142.3169932999881,144.36789349996252,Scenes\184a.jpg,mid,n,2.0429923000046983,None,,,,,,,,00040,001,2026-01-23_17h44.12.035,MST_test,2024.2.0,60.038676902631224,2026-01-23 17h44.18.007629 +0530,
10,0,11,n,1.3241088000359014,None,11,0,10,144.38335409999127,,,,,,,,,,,,,,,,,,,,,,,,,,,,,,,,,,,,,,,,,,,,,,,,,,144.36824379995232,144.38335409999127,144.908440899977,144.86677589995088,144.90575189999072,144.908440899977,144.908440899977,144.908440899977,146.23394039995037,Scenes\134b.jpg,post,n,1.3241088000359014,None,,,,,,,,00040,001,2026-01-23_17h44.12.035,MST_test,2024.2.0,60.038676902631224,2026-01-23 17h44.18.007629 +0530,
11,0,12,n,1.7930739999865182,None,12,0,11,146.2500682999962,,,,,,,,,,,,,,,,,,,,,,,,,,,,,,,,,,,,,,,,,,,,,,,,,,146.23430109996116,146.2500682999962,146.7508074999787,146.73373769997852,146.74698649998754,146.7508074999787,146.7508074999787,146.7508074999787,148.5504179999698,Scenes\172a.jpg,pre,n,1.7930739999865182,None,,,,,,,,00040,001,2026-01-23_17h44.12.035,MST_test,2024.2.0,60.038676902631224,2026-01-23 17h44.18.007629 +0530,
12,0,13,s,1.2248078000266105,None,13,0,12,148.56676099996548,,,,,,,,,,,,,,,,,,,,,,,,,,,,,,,,,,,,,,,,,,,,,,,,,,148.55077489995165,148.56676099996548,149.11912259995006,149.05027529998915,149.11663859995315,149.11912259995006,149.11912259995006,149.11912259995006,150.35146149998764,Scenes\160b.jpg,mid,s,1.2248078000266105,None,,,,,,,,00040,001,2026-01-23_17h44.12.035,MST_test,2024.2.0,60.038676902631224,2026-01-23 17h44.18.007629 +0530,
13,0,14,o,1.6469541999977082,None,14,0,13,150.36669369996525,,,,,,,,,,,,,,,,,,,,,,,,,,,,,,,,,,,,,,,,,,,,,,,,,,150.35181540000485,150.36669369996525,150.9049970000051,150.85048639995512,150.90244469995378,150.9049970000051,150.9049970000051,150.9049970000051,152.5680902999593,Objects\052b.jpg,post,o,1.6469541999977082,None,,,,,,,,00040,001,2026-01-23_17h44.12.035,MST_test,2024.2.0,60.038676902631224,2026-01-23 17h44.18.007629 +0530,
14,0,15,s,1.401068800012581,None,15,0,14,152.58335499995155,,,,,,,,,,,,,,,,,,,,,,,,,,,,,,,,,,,,,,,,,,,,,,,,,,152.56844719999935,152.58335499995155,153.08677779999562,153.06717149994802,153.08439429994905,153.08677779999562,153.08677779999562,153.08677779999562,154.500791199971,Scenes\167a.jpg,mid,s,1.401068800012581,None,,,,,,,,00040,001,2026-01-23_17h44.12.035,MST_test,2024.2.0,60.038676902631224,2026-01-23 17h44.18.007629 +0530,
15,0,16,n,3.879313600016758,None,16,0,15,154.51700209995033,,,,,,,,,,,,,,,,,,,,,,,,,,,,,,,,,,,,,,,,,,,,,,,,,,154.5011463999981,154.51700209995033,155.0170298999874,155.00024299998768,155.01211169996532,155.0170298999874,155.0170298999874,155.0170298999874,158.90077089995611,Foils\106a.jpg,none,n,3.879313600016758,None,,,,,,,,00040,001,2026-01-23_17h44.12.035,MST_test,2024.2.0,60.038676902631224,2026-01-23 17h44.18.007629 +0530,
16,0,17,s,1.2925157999852672,None,17,0,16,158.91677569999592,,,,,,,,,,,,,,,,,,,,,,,,,,,,,,,,,,,,,,,,,,,,,,,,,,158.90113509999355,158.91677569999592,159.41998179996153,159.4005688999896,159.41733709996333,159.41998179996153,159.41998179996153,159.41998179996153,160.717425299983,Scenes\013a.jpg,pre,s,1.2925157999852672,None,,,,,,,,00040,001,2026-01-23_17h44.12.035,MST_test,2024.2.0,60.038676902631224,2026-01-23 17h44.18.007629 +0530,
17,0,18,o,2.006394999974873,None,18,0,17,160.73337339999853,,,,,,,,,,,,,,,,,,,,,,,,,,,,,,,,,,,,,,,,,,,,,,,,,,160.71778189996257,160.73337339999853,161.23405609995825,161.21715739998035,161.2279096999555,161.23405609995825,161.23405609995825,161.23405609995825,163.25077709998004,Scenes\037a.jpg,pre,o,2.006394999974873,None,,,,,,,,00040,001,2026-01-23_17h44.12.035,MST_test,2024.2.0,60.038676902631224,2026-01-23 17h44.18.007629 +0530,
18,0,19,s,2.15651430003345,None,19,0,18,163.26676009997027,,,,,,,,,,,,,,,,,,,,,,,,,,,,,,,,,,,,,,,,,,,,,,,,,,163.25112989998888,163.26676009997027,163.77193259994965,163.75059199996758,163.76940709998598,163.77193259994965,163.77193259994965,163.77193259994965,165.93404059996828,Scenes\071a.jpg,pre,s,2.15651430003345,None,,,,,,,,00040,001,2026-01-23_17h44.12.035,MST_test,2024.2.0,60.038676902631224,2026-01-23 17h44.18.007629 +0530,
19,0,20,o,3.1100531999836676,None,20,0,19,165.95009719999507,,,,,,,,,,,,,,,,,,,,,,,,,,,,,,,,,,,,,,,,,,,,,,,,,,165.9343975999509,165.95009719999507,166.45039679994807,166.43346039997414,166.44449809996877,166.45039679994807,166.45039679994807,166.45039679994807,169.56713809998473,Objects\115a.jpg,post,o,3.1100531999836676,None,,,,,,,,00040,001,2026-01-23_17h44.12.035,MST_test,2024.2.0,60.038676902631224,2026-01-23 17h44.18.007629 +0530,
20,0,21,o,1.4683314000139944,None,21,0,20,169.5833747999859,,,,,,,,,,,,,,,,,,,,,,,,,,,,,,,,,,,,,,,,,,,,,,,,,,169.567492400005,169.5833747999859,170.08356099994853,170.06712169997627,170.07683569996152,170.08356099994853,170.08356099994853,170.08356099994853,171.56742320000194,Objects\160a.jpg,pre,o,1.4683314000139944,None,,,,,,,,00040,001,2026-01-23_17h44.12.035,MST_test,2024.2.0,60.038676902631224,2026-01-23 17h44.18.007629 +0530,
21,0,22,n,1.412047799967695,None,22,0,21,171.58335779997287,,,,,,,,,,,,,,,,,,,,,,,,,,,,,,,,,,,,,,,,,,,,,,,,,,171.56778479996137,171.58335779997287,172.09980629995698,172.06687519996194,172.09680119995028,172.09980629995698,172.09980629995698,172.09980629995698,173.51769639999839,Foils\113a.jpg,none,n,1.412047799967695,None,,,,,,,,00040,001,2026-01-23_17h44.12.035,MST_test,2024.2.0,60.038676902631224,2026-01-23 17h44.18.007629 +0530,
22,0,23,n,2.090606799989473,None,23,0,22,173.53335250000237,,,,,,,,,,,,,,,,,,,,,,,,,,,,,,,,,,,,,,,,,,,,,,,,,,173.51805139996577,173.53335250000237,174.06129409995629,174.0170585999731,174.0587005999987,174.06129409995629,174.06129409995629,174.06129409995629,176.16724979999708,Scenes\116b.jpg,pre,n,2.090606799989473,None,,,,,,,,00040,001,2026-01-23_17h44.12.035,MST_test,2024.2.0,60.038676902631224,2026-01-23 17h44.18.007629 +0530,
23,0,24,o,1.2838576000067405,None,24,0,23,176.18335589999333,,,,,,,,,,,,,,,,,,,,,,,,,,,,,,,,,,,,,,,,,,,,,,,,,,176.16760309995152,176.18335589999333,176.68389210000169,176.6669811999891,176.67534869996598,176.68389210000169,176.68389210000169,176.68389210000169,177.98419990000548,Objects\049a.jpg,post,o,1.2838576000067405,None,,,,,,,,00040,001,2026-01-23_17h44.12.035,MST_test,2024.2.0,60.038676902631224,2026-01-23 17h44.18.007629 +0530,
24,0,25,o,1.155121500021778,None,25,0,24,178.00056279997807,,,,,,,,,,,,,,,,,,,,,,,,,,,,,,,,,,,,,,,,,,,,,,,,,,177.9845899999491,178.00056279997807,,178.50015789997997,178.50780999998096,178.5166295999661,178.5166295999661,178.5166295999661,179.68394550000085,Objects\047a.jpg,pre,o,1.155121500021778,None,,,,,,,,00040,001,2026-01-23_17h44.12.035,MST_test,2024.2.0,60.038676902631224,2026-01-23 17h44.18.007629 +0530,
25,0,26,s,1.7863355999579653,None,26,0,25,179.69992149999598,,,,,,,,,,,,,,,,,,,,,,,,,,,,,,,,,,,,,,,,,,,,,,,,,,179.68430019996595,179.69992149999598,180.21357899997383,180.18376639997587,180.210812299978,180.21357899997383,180.21357899997383,180.21357899997383,182.00072479998926,Foils\scenes19.jpg,none,s,1.7863355999579653,None,,,,,,,,00040,001,2026-01-23_17h44.12.035,MST_test,2024.2.0,60.038676902631224,2026-01-23 17h44.18.007629 +0530,
26,0,27,n,2.0275325999828056,None,27,0,26,182.01676349999616,,,,,,,,,,,,,,,,,,,,,,,,,,,,,,,,,,,,,,,,,,,,,,,,,,182.00107969995588,182.01676349999616,182.51691479998408,182.50031350000063,182.50871449999977,182.51691479998408,182.51691479998408,182.51691479998408,184.55131399998209,Foils\101b.jpg,none,n,2.0275325999828056,None,,,,,,,,00040,001,2026-01-23_17h44.12.035,MST_test,2024.2.0,60.038676902631224,2026-01-23 17h44.18.007629 +0530,
27,0,28,s,1.5092427000054158,None,28,0,27,184.56676749995677,,,,,,,,,,,,,,,,,,,,,,,,,,,,,,,,,,,,,,,,,,,,,,,,,,184.55167009995785,184.56676749995677,185.09922889998415,185.05051719996845,185.09670039999764,185.09922889998415,185.09922889998415,185.09922889998415,186.6179874999798,Objects\178b.jpg,mid,s,1.5092427000054158,None,,,,,,,,00040,001,2026-01-23_17h44.12.035,MST_test,2024.2.0,60.038676902631224,2026-01-23 17h44.18.007629 +0530,
28,0,29,o,2.4909234999795444,None,29,0,28,186.6334385999944,,,,,,,,,,,,,,,,,,,,,,,,,,,,,,,,,,,,,,,,,,,,,,,,,,186.61834689998068,186.6334385999944,187.1334895999753,187.11706089996733,187.12567019998096,187.1334895999753,187.1334895999753,187.1334895999753,189.6341046000016,Objects\099a.jpg,mid,o,2.4909234999795444,None,,,,,,,,00040,001,2026-01-23_17h44.12.035,MST_test,2024.2.0,60.038676902631224,2026-01-23 17h44.18.007629 +0530,
29,0,30,s,3.128937400004361,None,30,0,29,189.65001629997278,,,,,,,,,,,,,,,,,,,,,,,,,,,,,,,,,,,,,,,,,,,,,,,,,,189.63445879996289,189.65001629997278,190.18283740000334,190.13370219996432,190.17989509995095,190.18283740000334,190.18283740000334,190.18283740000334,193.31737629999407,Scenes\126b.jpg,post,s,3.128937400004361,None,,,,,,,,00040,001,2026-01-23_17h44.12.035,MST_test,2024.2.0,60.038676902631224,2026-01-23 17h44.18.007629 +0530,
30,0,31,n,2.710870500013698,None,31,0,30,193.33345829998143,,,,,,,,,,,,,,,,,,,,,,,,,,,,,,,,,,,,,,,,,,,,,,,,,,193.31773289997363,193.33345829998143,193.8568707999657,193.817098599975,193.85436479997588,193.8568707999657,193.8568707999657,193.8568707999657,196.58408639999107,Foils\050a.jpg,none,n,2.710870500013698,None,,,,,,,,00040,001,2026-01-23_17h44.12.035,MST_test,2024.2.0,60.038676902631224,2026-01-23 17h44.18.007629 +0530,
31,0,32,n,2.3722226000390947,None,32,0,31,196.6001032999484,,,,,,,,,,,,,,,,,,,,,,,,,,,,,,,,,,,,,,,,,,,,,,,,,,196.5844475000049,196.6001032999484,197.10016799997538,197.08403209998505,197.09308699995745,197.10016799997538,197.10016799997538,197.10016799997538,199.48411839996697,Foils\057a.jpg,none,n,2.3722226000390947,None,,,,,,,,00040,001,2026-01-23_17h44.12.035,MST_test,2024.2.0,60.038676902631224,2026-01-23 17h44.18.007629 +0530,
32,0,33,o,1.5352661999640986,None,33,0,32,199.49994839995634,,,,,,,,,,,,,,,,,,,,,,,,,,,,,,,,,,,,,,,,,,,,,,,,,,199.48455449996982,199.49994839995634,200.00043630000437,199.98383799998555,199.9912071999861,200.00043630000437,200.00043630000437,200.00043630000437,201.55075890000444,Scenes\053a.jpg,post,o,1.5352661999640986,None,,,,,,,,00040,001,2026-01-23_17h44.12.035,MST_test,2024.2.0,60.038676902631224,2026-01-23 17h44.18.007629 +0530,
33,0,34,n,1.309303100046236,None,34,0,33,201.56668789999094,,,,,,,,,,,,,,,,,,,,,,,,,,,,,,,,,,,,,,,,,,,,,,,,,,201.5511172999977,201.56668789999094,202.06710509996628,202.05051199998707,202.0587150999927,202.06710509996628,202.06710509996628,202.06710509996628,203.38450970000122,Foils\042a.jpg,none,n,1.309303100046236,None,,,,,,,,00040,001,2026-01-23_17h44.12.035,MST_test,2024.2.0,60.038676902631224,2026-01-23 17h44.18.007629 +0530,
34,0,35,o,1.7960406999918632,None,35,0,34,203.4008580999798,,,,,,,,,,,,,,,,,,,,,,,,,,,,,,,,,,,,,,,,,,,,,,,,,,203.3848747999873,203.4008580999798,203.90036099997815,203.88458379998337,203.89303949999157,203.90036099997815,203.90036099997815,203.90036099997815,205.70074379997095,Objects\117a.jpg,post,o,1.7960406999918632,None,,,,,,,,00040,001,2026-01-23_17h44.12.035,MST_test,2024.2.0,60.038676902631224,2026-01-23 17h44.18.007629 +0530,
35,0,36,n,1.4591059999656864,None,36,0,35,205.71687479998218,,,,,,,,,,,,,,,,,,,,,,,,,,,,,,,,,,,,,,,,,,,,,,,,,,205.70109669998055,205.71687479998218,206.236647099955,206.2005278999568,206.23398059996543,206.236647099955,206.236647099955,206.236647099955,207.70105059997877,Foils\097a.jpg,none,n,1.4591059999656864,None,,,,,,,,00040,001,2026-01-23_17h44.12.035,MST_test,2024.2.0,60.038676902631224,2026-01-23 17h44.18.007629 +0530,
36,0,37,o,2.0604501999914646,None,37,0,36,207.7169075999991,,,,,,,,,,,,,,,,,,,,,,,,,,,,,,,,,,,,,,,,,,,,,,,,,,207.70140429999446,207.7169075999991,208.22001319995616,208.20028950000415,208.21757519996027,208.22001319995616,208.22001319995616,208.22001319995616,210.2837691999739,Scenes\004a.jpg,pre,o,2.0604501999914646,None,,,,,,,,00040,001,2026-01-23_17h44.12.035,MST_test,2024.2.0,60.038676902631224,2026-01-23 17h44.18.007629 +0530,
37,0,38,s,1.1820540000335313,None,38,0,37,210.30010039999615,,,,,,,,,,,,,,,,,,,,,,,,,,,,,,,,,,,,,,,,,,,,,,,,,,210.2841238999972,210.30010039999615,,210.78404259996023,210.83135920000495,210.83402949996525,210.83402949996525,210.83402949996525,212.0175860999734,Objects\036b.jpg,pre,s,1.1820540000335313,None,,,,,,,,00040,001,2026-01-23_17h44.12.035,MST_test,2024.2.0,60.038676902631224,2026-01-23 17h44.18.007629 +0530,
38,0,39,n,4.4454074000241235,None,39,0,38,212.03307720000157,,,,,,,,,,,,,,,,,,,,,,,,,,,,,,,,,,,,,,,,,,,,,,,,,,212.01795139996102,212.03307720000157,212.56304369994905,212.5171669999836,212.56045429996448,212.56304369994905,212.56304369994905,212.56304369994905,217.0172598999925,Scenes\145b.jpg,post,n,4.4454074000241235,None,,,,,,,,00040,001,2026-01-23_17h44.12.035,MST_test,2024.2.0,60.038676902631224,2026-01-23 17h44.18.007629 +0530,
39,0,40,s,1.5458392000291497,None,40,0,39,217.03310649999185,,,,,,,,,,,,,,,,,,,,,,,,,,,,,,,,,,,,,,,,,,,,,,,,,,217.0176375999581,217.03310649999185,217.53393509995658,217.51717259996803,217.5265918999794,217.53393509995658,217.53393509995658,217.53393509995658,219.0840083999792,Objects\089b.jpg,pre,s,1.5458392000291497,None,,,,,,,,00040,001,2026-01-23_17h44.12.035,MST_test,2024.2.0,60.038676902631224,2026-01-23 17h44.18.007629 +0530,
40,0,41,o,1.825689900026191,None,41,0,40,219.1001089999918,,,,,,,,,,,,,,,,,,,,,,,,,,,,,,,,,,,,,,,,,,,,,,,,,,219.0843871999532,219.1001089999918,219.6062239999883,219.58419069997035,219.6038115999545,219.6062239999883,219.6062239999883,219.6062239999883,221.4336640999536,Scenes\067a.jpg,mid,o,1.825689900026191,None,,,,,,,,00040,001,2026-01-23_17h44.12.035,MST_test,2024.2.0,60.038676902631224,2026-01-23 17h44.18.007629 +0530,
41,0,42,n,1.8335407999693416,None,42,0,41,221.45045609999215,,,,,,,,,,,,,,,,,,,,,,,,,,,,,,,,,,,,,,,,,,,,,,,,,,221.43401539995102,221.45045609999215,221.95058989996323,221.93362169998,221.93980479997117,221.95058989996323,221.95058989996323,221.95058989996323,223.80076249997364,Foils\scenes6.jpg,none,n,1.8335407999693416,None,,,,,,,,00040,001,2026-01-23_17h44.12.035,MST_test,2024.2.0,60.038676902631224,2026-01-23 17h44.18.007629 +0530,
42,0,43,o,1.099134900025092,None,43,0,42,223.81674089998705,,,,,,,,,,,,,,,,,,,,,,,,,,,,,,,,,,,,,,,,,,,,,,,,,,223.80111899995245,223.81674089998705,224.3169182999991,224.30027559999144,224.31220159999793,224.3169182999991,224.3169182999991,224.3169182999991,225.41751329996623,Scenes\008b.jpg,mid,o,1.099134900025092,None,,,,,,,,00040,001,2026-01-23_17h44.12.035,MST_test,2024.2.0,60.038676902631224,2026-01-23 17h44.18.007629 +0530,
43,0,44,s,2.4797857999801636,None,44,0,43,225.43357529997593,,,,,,,,,,,,,,,,,,,,,,,,,,,,,,,,,,,,,,,,,,,,,,,,,,225.4178820999805,225.43357529997593,225.93614679999882,225.91718539997237,225.93385939998552,225.93614679999882,225.93614679999882,225.93614679999882,228.41732369997771,Scenes\093b.jpg,mid,s,2.4797857999801636,None,,,,,,,,00040,001,2026-01-23_17h44.12.035,MST_test,2024.2.0,60.038676902631224,2026-01-23 17h44.18.007629 +0530,
44,0,45,o,2.780126500001643,None,45,0,44,228.433377999987,,,,,,,,,,,,,,,,,,,,,,,,,,,,,,,,,,,,,,,,,,,,,,,,,,228.4176804999588,228.433377999987,228.94794179999735,228.91717430000426,228.94423349999124,228.94794179999735,228.94794179999735,228.94794179999735,231.73404559999472,Foils\082a.jpg,none,o,2.780126500001643,None,,,,,,,,00040,001,2026-01-23_17h44.12.035,MST_test,2024.2.0,60.038676902631224,2026-01-23 17h44.18.007629 +0530,
45,0,46,o,1.8214313000207767,None,46,0,45,231.75011289998656,,,,,,,,,,,,,,,,,,,,,,,,,,,,,,,,,,,,,,,,,,,,,,,,,,231.7343966999906,231.75011289998656,232.2503753999481,232.23376159998588,232.24235839996254,232.2503753999481,232.2503753999481,232.2503753999481,234.0840223999694,Objects\024a.jpg,mid,o,1.8214313000207767,None,,,,,,,,00040,001,2026-01-23_17h44.12.035,MST_test,2024.2.0,60.038676902631224,2026-01-23 17h44.18.007629 +0530,
46,0,47,s,1.2435194999561645,None,47,0,46,234.10010939999484,,,,,,,,,,,,,,,,,,,,,,,,,,,,,,,,,,,,,,,,,,,,,,,,,,234.0843757999828,234.10010939999484,234.60452189994976,234.58376309997402,234.60194959997898,234.60452189994976,234.60452189994976,234.60452189994976,235.85078109998722,Foils\scenes22.jpg,none,s,1.2435194999561645,None,,,,,,,,00040,001,2026-01-23_17h44.12.035,MST_test,2024.2.0,60.038676902631224,2026-01-23 17h44.18.007629 +0530,
47,0,48,s,1.1929215000127442,None,48,0,47,235.86646649998147,,,,,,,,,,,,,,,,,,,,,,,,,,,,,,,,,,,,,,,,,,,,,,,,,,235.85114679997787,235.86646649998147,236.36746749997837,236.35034139995696,236.35950560000492,236.36746749997837,236.36746749997837,236.36746749997837,237.56742169999052,Objects\071a.jpg,post,s,1.1929215000127442,None,,,,,,,,00040,001,2026-01-23_17h44.12.035,MST_test,2024.2.0,60.038676902631224,2026-01-23 17h44.18.007629 +0530,
48,0,49,s,1.5565782999619842,None,49,0,48,237.58336569997482,,,,,,,,,,,,,,,,,,,,,,,,,,,,,,,,,,,,,,,,,,,,,,,,,,237.56777999998303,237.58336569997482,238.08341809996637,238.0671841999865,238.07574089994887,238.08341809996637,238.08341809996637,238.08341809996637,239.6507566999644,Objects\082a.jpg,mid,s,1.5565782999619842,None,,,,,,,,00040,001,2026-01-23_17h44.12.035,MST_test,2024.2.0,60.038676902631224,2026-01-23 17h44.18.007629 +0530,
49,0,50,s,1.1445650000241585,None,50,0,49,239.66752989997622,,,,,,,,,,,,,,,,,,,,,,,,,,,,,,,,,,,,,,,,,,,,,,,,,,239.65110789996106,239.66752989997622,240.18384709995007,240.1506293999846,240.18108529999154,240.18384709995007,240.18384709995007,240.18384709995007,241.33413410000503,Objects\118b.jpg,mid,s,1.1445650000241585,None,,,,,,,,00040,001,2026-01-23_17h44.12.035,MST_test,2024.2.0,60.038676902631224,2026-01-23 17h44.18.007629 +0530,
50,0,51,n,1.9733887000475079,None,51,0,50,241.3508593000006,,,,,,,,,,,,,,,,,,,,,,,,,,,,,,,,,,,,,,,,,,,,,,,,,,241.3344898999785,241.3508593000006,241.86658149998402,241.83377149997978,241.86427909997292,241.86658149998402,241.86658149998402,241.86658149998402,243.85098289995221,Objects\131b.jpg,mid,n,1.9733887000475079,None,,,,,,,,00040,001,2026-01-23_17h44.12.035,MST_test,2024.2.0,60.038676902631224,2026-01-23 17h44.18.007629 +0530,
51,0,52,o,2.249017799971625,None,52,0,51,243.86681229999522,,,,,,,,,,,,,,,,,,,,,,,,,,,,,,,,,,,,,,,,,,,,,,,,,,243.8514167999965,243.86681229999522,244.39073179999832,244.35024810000323,244.38834029994905,244.39073179999832,244.39073179999832,244.39073179999832,246.65058269997826,Scenes\143b.jpg,mid,o,2.249017799971625,None,,,,,,,,00040,001,2026-01-23_17h44.12.035,MST_test,2024.2.0,60.038676902631224,2026-01-23 17h44.18.007629 +0530,
52,0,53,n,2.6246808000141755,None,53,0,52,246.66681159997825,,,,,,,,,,,,,,,,,,,,,,,,,,,,,,,,,,,,,,,,,,,,,,,,,,246.6509558999678,246.66681159997825,247.1673617999768,247.1502094999887,247.1617662999779,247.1673617999768,247.1673617999768,247.1673617999768,249.80063009995501,Objects\139b.jpg,mid,n,2.6246808000141755,None,,,,,,,,00040,001,2026-01-23_17h44.12.035,MST_test,2024.2.0,60.038676902631224,2026-01-23 17h44.18.007629 +0530,
53,0,54,s,1.1034950999892317,None,54,0,53,249.81678429996828,,,,,,,,,,,,,,,,,,,,,,,,,,,,,,,,,,,,,,,,,,,,,,,,,,249.8009853999829,249.81678429996828,250.32859960000496,250.30017800000496,250.32615589996567,250.32859960000496,250.32859960000496,250.32859960000496,251.43377799994778,Objects\069b.jpg,mid,s,1.1034950999892317,None,,,,,,,,00040,001,2026-01-23_17h44.12.035,MST_test,2024.2.0,60.038676902631224,2026-01-23 17h44.18.007629 +0530,
54,0,55,o,2.097522799973376,None,55,0,54,251.4501367000048,,,,,,,,,,,,,,,,,,,,,,,,,,,,,,,,,,,,,,,,,,,,,,,,,,251.4341499999864,251.4501367000048,251.95087609998882,251.9336151999887,251.94267249997938,251.95087609998882,251.95087609998882,251.95087609998882,254.05040469998494,Objects\116a.jpg,post,o,2.097522799973376,None,,,,,,,,00040,001,2026-01-23_17h44.12.035,MST_test,2024.2.0,60.038676902631224,2026-01-23 17h44.18.007629 +0530,
55,0,56,n,2.1962924000108615,None,56,0,55,254.06677320000017,,,,,,,,,,,,,,,,,,,,,,,,,,,,,,,,,,,,,,,,,,,,,,,,,,254.05077019997407,254.06677320000017,254.58773239998845,254.5503542999504,254.58528999995906,254.58773239998845,254.58773239998845,254.58773239998845,256.80076089996146,Scenes\139b.jpg,mid,n,2.1962924000108615,None,,,,,,,,00040,001,2026-01-23_17h44.12.035,MST_test,2024.2.0,60.038676902631224,2026-01-23 17h44.18.007629 +0530,
56,0,57,s,1.4076477999915369,None,57,0,56,256.8167836999637,,,,,,,,,,,,,,,,,,,,,,,,,,,,,,,,,,,,,,,,,,,,,,,,,,256.8011372999754,256.8167836999637,257.33625949994894,257.30053139996016,257.3337429999956,257.33625949994894,257.33625949994894,257.33625949994894,258.75071089999983,Objects\182b.jpg,mid,s,1.4076477999915369,None,,,,,,,,00040,001,2026-01-23_17h44.12.035,MST_test,2024.2.0,60.038676902631224,2026-01-23 17h44.18.007629 +0530,
57,0,58,s,2.1937072000000626,None,58,0,57,258.7667819999624,,,,,,,,,,,,,,,,,,,,,,,,,,,,,,,,,,,,,,,,,,,,,,,,,,258.75106349994894,258.7667819999624,259.27070130000357,259.2505130999489,259.26790059998166,259.27070130000357,259.27070130000357,259.27070130000357,261.4672811999917,Scenes\161a.jpg,post,s,2.1937072000000626,None,,,,,,,,00040,001,2026-01-23_17h44.12.035,MST_test,2024.2.0,60.038676902631224,2026-01-23 17h44.18.007629 +0530,
58,0,59,n,2.454546599998139,None,59,0,58,261.4833837999613,,,,,,,,,,,,,,,,,,,,,,,,,,,,,,,,,,,,,,,,,,,,,,,,,,261.467693899991,261.4833837999613,262.00923409999814,261.96717089996673,262.0066112999921,262.00923409999814,262.00923409999814,262.00923409999814,264.4670635999646,Scenes\188b.jpg,post,n,2.454546599998139,None,,,,,,,,00040,001,2026-01-23_17h44.12.035,MST_test,2024.2.0,60.038676902631224,2026-01-23 17h44.18.007629 +0530,
59,0,60,n,1.0671505999634974,None,60,0,59,264.48315499996534,,,,,,,,,,,,,,,,,,,,,,,,,,,,,,,,,,,,,,,,,,,,,,,,,,264.4674218999571,264.48315499996534,264.99645559996134,264.96665159997065,264.99378159997286,264.99645559996134,264.99645559996134,264.99645559996134,266.0674530999968,Foils\scenes7.jpg,none,n,1.0671505999634974,None,,,,,,,,00040,001,2026-01-23_17h44.12.035,MST_test,2024.2.0,60.038676902631224,2026-01-23 17h44.18.007629 +0530,
60,0,61,n,1.104612499999348,None,61,0,60,266.08337700000266,,,,,,,,,,,,,,,,,,,,,,,,,,,,,,,,,,,,,,,,,,,,,,,,,,266.06782959995326,266.08337700000266,266.58374699996784,266.5677399999695,266.5766123999492,266.58374699996784,266.58374699996784,266.58374699996784,267.7007870999514,Objects\084b.jpg,post,n,1.104612499999348,None,,,,,,,,00040,001,2026-01-23_17h44.12.035,MST_test,2024.2.0,60.038676902631224,2026-01-23 17h44.18.007629 +0530,
61,0,62,s,1.2340902999858372,None,62,0,61,267.71677060000366,,,,,,,,,,,,,,,,,,,,,,,,,,,,,,,,,,,,,,,,,,,,,,,,,,267.70114149997244,267.71677060000366,268.22230369999306,268.20037509995745,268.2199481999851,268.22230369999306,268.22230369999306,268.22230369999306,269.46743789996253,Scenes\102a.jpg,post,s,1.2340902999858372,None,,,,,,,,00040,001,2026-01-23_17h44.12.035,MST_test,2024.2.0,60.038676902631224,2026-01-23 17h44.18.007629 +0530,
62,0,63,s,2.1917332999873906,None,63,0,62,269.48336809995817,,,,,,,,,,,,,,,,,,,,,,,,,,,,,,,,,,,,,,,,,,,,,,,,,,269.46780990000116,269.48336809995817,269.98398449999513,269.96708629996283,269.9764993999852,269.98398449999513,269.98398449999513,269.98398449999513,272.184414999967,Objects\133a.jpg,mid,s,2.1917332999873906,None,,,,,,,,00040,001,2026-01-23_17h44.12.035,MST_test,2024.2.0,60.038676902631224,2026-01-23 17h44.18.007629 +0530,
63,0,64,o,1.9400118999765255,None,64,0,63,272.2001214000047,,,,,,,,,,,,,,,,,,,,,,,,,,,,,,,,,,,,,,,,,,,,,,,,,,272.18478630000027,272.2001214000047,272.7003283999511,272.6837708999519,272.6931424999493,272.7003283999511,272.7003283999511,272.7003283999511,274.6507797999657,Objects\019a.jpg,pre,o,1.9400118999765255,None,,,,,,,,00040,001,2026-01-23_17h44.12.035,MST_test,2024.2.0,60.038676902631224,2026-01-23 17h44.18.007629 +0530,
64,0,65,o,1.2573316000052728,None,65,0,64,274.6667852999526,,,,,,,,,,,,,,,,,,,,,,,,,,,,,,,,,,,,,,,,,,,,,,,,,,274.6511644999846,274.6667852999526,275.1670098999748,275.1504648999544,275.15902439999627,275.1670098999748,275.1670098999748,275.1670098999748,276.4340192999807,Objects\008a.jpg,mid,o,1.2573316000052728,None,,,,,,,,00040,001,2026-01-23_17h44.12.035,MST_test,2024.2.0,60.038676902631224,2026-01-23 17h44.18.007629 +0530,
65,0,66,o,0.8098042999627069,None,66,0,65,276.4501190999872,,,,,,,,,,,,,,,,,,,,,,,,,,,,,,,,,,,,,,,,,,,,,,,,,,276.4343748999527,276.4501190999872,276.95054900000105,276.93361999996705,276.94198569998844,276.95054900000105,276.95054900000105,276.95054900000105,277.76752880000276,Objects\136a.jpg,pre,o,0.8098042999627069,None,,,,,,,,00040,001,2026-01-23_17h44.12.035,MST_test,2024.2.0,60.038676902631224,2026-01-23 17h44.18.007629 +0530,
66,0,67,s,1.7468783000367694,None,67,0,66,277.78337659995304,,,,,,,,,,,,,,,,,,,,,,,,,,,,,,,,,,,,,,,,,,,,,,,,,,277.76790469995467,277.78337659995304,278.3013088000007,278.2672010999522,278.29856019996805,278.3013088000007,278.3013088000007,278.3013088000007,280.05044109997107,Objects\097b.jpg,pre,s,1.7468783000367694,None,,,,,,,,00040,001,2026-01-23_17h44.12.035,MST_test,2024.2.0,60.038676902631224,2026-01-23 17h44.18.007629 +0530,
67,0,68,s,3.48931650002487,None,68,0,67,280.0667541999719,,,,,,,,,,,,,,,,,,,,,,,,,,,,,,,,,,,,,,,,,,,,,,,,,,280.05079299997305,280.0667541999719,280.56690539995907,280.5506474999711,280.5606679999619,280.56690539995907,280.56690539995907,280.56690539995907,284.0674516999861,Foils\002a.jpg,none,s,3.48931650002487,None,,,,,,,,00040,001,2026-01-23_17h44.12.035,MST_test,2024.2.0,60.038676902631224,2026-01-23 17h44.18.007629 +0530,
68,0,69,n,1.8892933999886736,None,69,0,68,284.0833959999727,,,,,,,,,,,,,,,,,,,,,,,,,,,,,,,,,,,,,,,,,,,,,,,,,,284.0678270999924,284.0833959999727,284.6066699999501,284.5670687999809,284.60412189998897,284.6066699999501,284.6066699999501,284.6066699999501,286.50078969995957,Scenes\179b.jpg,pre,n,1.8892933999886736,None,,,,,,,,00040,001,2026-01-23_17h44.12.035,MST_test,2024.2.0,60.038676902631224,2026-01-23 17h44.18.007629 +0530,
69,0,70,n,1.1762886000215076,None,70,0,69,286.5167799000046,,,,,,,,,,,,,,,,,,,,,,,,,,,,,,,,,,,,,,,,,,,,,,,,,,286.5011515999795,286.5167799000046,287.0320672999951,287.0005994999665,287.02920699998504,287.0320672999951,287.0320672999951,287.0320672999951,288.2170977999922,Foils\090a.jpg,none,n,1.1762886000215076,None,,,,,,,,00040,001,2026-01-23_17h44.12.035,MST_test,2024.2.0,60.038676902631224,2026-01-23 17h44.18.007629 +0530,
70,0,71,o,1.5811559000285342,None,71,0,70,288.2333705999772,,,,,,,,,,,,,,,,,,,,,,,,,,,,,,,,,,,,,,,,,,,,,,,,,,288.2174734,288.2333705999772,288.73856029997114,288.71697189996485,288.73601209995104,288.73856029997114,288.73856029997114,288.73856029997114,290.3340375999687,Scenes\171a.jpg,pre,o,1.5811559000285342,None,,,,,,,,00040,001,2026-01-23_17h44.12.035,MST_test,2024.2.0,60.038676902631224,2026-01-23 17h44.18.007629 +0530,
71,0,72,o,2.327328799990937,None,72,0,71,290.34993500000564,,,,,,,,,,,,,,,,,,,,,,,,,,,,,,,,,,,,,,,,,,,,,,,,,,290.33439409994753,290.34993500000564,290.8645618999726,290.83377599995583,290.86208920000354,290.8645618999726,290.8645618999726,290.8645618999726,293.20051169994986,Objects\041b.jpg,post,o,2.327328799990937,None,,,,,,,,00040,001,2026-01-23_17h44.12.035,MST_test,2024.2.0,60.038676902631224,2026-01-23 17h44.18.007629 +0530,
72,0,73,o,1.235108500055503,None,73,0,72,293.2167771999957,,,,,,,,,,,,,,,,,,,,,,,,,,,,,,,,,,,,,,,,,,,,,,,,,,293.20086569996784,293.2167771999957,293.7168473000056,293.7007250000024,293.70955339999637,293.7168473000056,293.7168473000056,293.7168473000056,294.96725909999805,Objects\002b.jpg,post,o,1.235108500055503,None,,,,,,,,00040,001,2026-01-23_17h44.12.035,MST_test,2024.2.0,60.038676902631224,2026-01-23 17h44.18.007629 +0530,
73,0,74,o,6.016943999973591,None,74,0,73,294.98350449994905,,,,,,,,,,,,,,,,,,,,,,,,,,,,,,,,,,,,,,,,,,,,,,,,,,294.96761219995096,294.98350449994905,295.53496159997303,295.4668912999914,295.5324172999826,295.53496159997303,295.53496159997303,295.53496159997303,301.5674716999638,Scenes\047b.jpg,mid,o,6.016943999973591,None,,,,,,,,00040,001,2026-01-23_17h44.12.035,MST_test,2024.2.0,60.038676902631224,2026-01-23 17h44.18.007629 +0530,
74,0,75,n,1.3159329000045545,None,75,0,74,301.58323759998893,,,,,,,,,,,,,,,,,,,,,,,,,,,,,,,,,,,,,,,,,,,,,,,,,,301.5678532999591,301.58323759998893,302.0841856999905,302.06704130000435,302.0796544000041,302.0841856999905,302.0841856999905,302.0841856999905,303.40080809994834,Scenes\162a.jpg,post,n,1.3159329000045545,None,,,,,,,,00040,001,2026-01-23_17h44.12.035,MST_test,2024.2.0,60.038676902631224,2026-01-23 17h44.18.007629 +0530,
75,0,76,o,1.3226823000004515,None,76,0,75,303.4167123999796,,,,,,,,,,,,,,,,,,,,,,,,,,,,,,,,,,,,,,,,,,,,,,,,,,303.4012441999512,303.4167123999796,303.91702609998174,303.9003142999718,303.9073190999916,303.91702609998174,303.91702609998174,303.91702609998174,305.2507598999655,Objects\031a.jpg,mid,o,1.3226823000004515,None,,,,,,,,00040,001,2026-01-23_17h44.12.035,MST_test,2024.2.0,60.038676902631224,2026-01-23 17h44.18.007629 +0530,
76,0,77,s,0.9130409999634139,None,77,0,76,305.26672439998947,,,,,,,,,,,,,,,,,,,,,,,,,,,,,,,,,,,,,,,,,,,,,,,,,,305.25111419998575,305.26672439998947,305.76730109995697,305.7506436999538,305.75688949995674,305.76730109995697,305.76730109995697,305.76730109995697,306.6850034999661,Foils\018a.jpg,none,s,0.9130409999634139,None,,,,,,,,00040,001,2026-01-23_17h44.12.035,MST_test,2024.2.0,60.038676902631224,2026-01-23 17h44.18.007629 +0530,
77,0,78,o,1.3516031000181101,None,78,0,77,306.700340099982,,,,,,,,,,,,,,,,,,,,,,,,,,,,,,,,,,,,,,,,,,,,,,,,,,306.68536409997614,306.700340099982,307.20033629995305,307.18352510000113,307.19011399999727,307.20033629995305,307.20033629995305,307.20033629995305,308.56695069995476,Objects\067a.jpg,pre,o,1.3516031000181101,None,,,,,,,,00040,001,2026-01-23_17h44.12.035,MST_test,2024.2.0,60.038676902631224,2026-01-23 17h44.18.007629 +0530,
78,0,79,n,2.396749700012151,None,79,0,78,308.58312089997344,,,,,,,,,,,,,,,,,,,,,,,,,,,,,,,,,,,,,,,,,,,,,,,,,,308.56730259995675,308.58312089997344,309.0910654999898,309.06694989994867,309.0883296999964,309.0910654999898,309.0910654999898,309.0910654999898,311.500789099955,Foils\scenes28.jpg,none,n,2.396749700012151,None,,,,,,,,00040,001,2026-01-23_17h44.12.035,MST_test,2024.2.0,60.038676902631224,2026-01-23 17h44.18.007629 +0530,
79,0,80,s,1.3077988000004552,None,80,0,79,311.51670889998786,,,,,,,,,,,,,,,,,,,,,,,,,,,,,,,,,,,,,,,,,,,,,,,,,,311.5011489999597,311.51670889998786,312.0278916999814,312.00018509995425,312.0250961999991,312.0278916999814,312.0278916999814,312.0278916999814,313.35060720000183,Objects\037b.jpg,post,s,1.3077988000004552,None,,,,,,,,00040,001,2026-01-23_17h44.12.035,MST_test,2024.2.0,60.038676902631224,2026-01-23 17h44.18.007629 +0530,
80,0,81,n,2.0042516000103205,None,81,0,80,313.3674461999908,,,,,,,,,,,,,,,,,,,,,,,,,,,,,,,,,,,,,,,,,,,,,,,,,,313.3509613999631,313.3674461999908,,313.85161519999383,313.8811108999653,313.88414949999424,313.88414949999424,313.88414949999424,315.90074859996093,Foils\scenes2.jpg,none,n,2.0042516000103205,None,,,,,,,,00040,001,2026-01-23_17h44.12.035,MST_test,2024.2.0,60.038676902631224,2026-01-23 17h44.18.007629 +0530,
81,0,82,n,0.8349796999827959,None,82,0,81,315.9171817000024,,,,,,,,,,,,,,,,,,,,,,,,,,,,,,,,,,,,,,,,,,,,,,,,,,315.90109959995607,315.9171817000024,316.4373636999517,316.4002252999926,316.4348311999929,316.4373636999517,316.4373636999517,316.4373636999517,317.28409969998756,Foils\049a.jpg,none,n,0.8349796999827959,None,,,,,,,,00040,001,2026-01-23_17h44.12.035,MST_test,2024.2.0,60.038676902631224,2026-01-23 17h44.18.007629 +0530,
82,0,83,s,1.5576341000269167,None,83,0,82,317.3001128999749,,,,,,,,,,,,,,,,,,,,,,,,,,,,,,,,,,,,,,,,,,,,,,,,,,317.28445340000326,317.3001128999749,317.8186930999509,317.78376829996705,317.81601029995363,317.8186930999509,317.8186930999509,317.8186930999509,319.3841063999571,Objects\035b.jpg,post,s,1.5576341000269167,None,,,,,,,,00040,001,2026-01-23_17h44.12.035,MST_test,2024.2.0,60.038676902631224,2026-01-23 17h44.18.007629 +0530,
83,0,84,s,1.4297243999899365,None,84,0,83,319.40010049997363,,,,,,,,,,,,,,,,,,,,,,,,,,,,,,,,,,,,,,,,,,,,,,,,,,319.3845031999517,319.40010049997363,319.93017199996393,319.88399079994997,319.92768659995636,319.93017199996393,319.93017199996393,319.93017199996393,321.3672188000055,Scenes\151b.jpg,mid,s,1.4297243999899365,None,,,,,,,,00040,001,2026-01-23_17h44.12.035,MST_test,2024.2.0,60.038676902631224,2026-01-23 17h44.18.007629 +0530,
84,0,85,o,1.6199669999768957,None,85,0,84,321.38327829999616,,,,,,,,,,,,,,,,,,,,,,,,,,,,,,,,,,,,,,,,,,,,,,,,,,321.3675635999534,321.38327829999616,321.8837330999668,321.8671481999918,321.8805957000004,321.8837330999668,321.8837330999668,321.8837330999668,323.51735059998464,Scenes\169a.jpg,mid,o,1.6199669999768957,None,,,,,,,,00040,001,2026-01-23_17h44.12.035,MST_test,2024.2.0,60.038676902631224,2026-01-23 17h44.18.007629 +0530,
85,0,86,s,2.269206800032407,None,86,0,85,323.5331376999966,,,,,,,,,,,,,,,,,,,,,,,,,,,,,,,,,,,,,,,,,,,,,,,,,,323.5177407999872,323.5331376999966,324.1628783000051,324.017124499951,324.16030409996165,324.1628783000051,324.1628783000051,324.1628783000051,326.43403889995534,Scenes\027b.jpg,pre,s,2.269206800032407,None,,,,,,,,00040,001,2026-01-23_17h44.12.035,MST_test,2024.2.0,60.038676902631224,2026-01-23 17h44.18.007629 +0530,
86,0,87,n,2.1698375000269152,None,87,0,86,326.44978629995603,,,,,,,,,,,,,,,,,,,,,,,,,,,,,,,,,,,,,,,,,,,,,,,,,,326.4344123000046,326.44978629995603,326.94987339997897,326.93384949996835,326.9445756999776,326.94987339997897,326.94987339997897,326.94987339997897,329.13405939994846,Foils\scenes13.jpg,none,n,2.1698375000269152,None,,,,,,,,00040,001,2026-01-23_17h44.12.035,MST_test,2024.2.0,60.038676902631224,2026-01-23 17h44.18.007629 +0530,
87,0,88,o,1.58552049996797,None,88,0,87,329.14991959999315,,,,,,,,,,,,,,,,,,,,,,,,,,,,,,,,,,,,,,,,,,,,,,,,,,329.1344162999885,329.14991959999315,329.68616299994756,329.63364049996017,329.68383890000405,329.68616299994756,329.68616299994756,329.68616299994756,331.283780800004,Scenes\026b.jpg,pre,o,1.58552049996797,None,,,,,,,,00040,001,2026-01-23_17h44.12.035,MST_test,2024.2.0,60.038676902631224,2026-01-23 17h44.18.007629 +0530,
88,0,89,s,1.0615736999898218,None,89,0,88,331.30006649997085,,,,,,,,,,,,,,,,,,,,,,,,,,,,,,,,,,,,,,,,,,,,,,,,,,331.28413589997217,331.30006649997085,,331.7840331000043,331.7997172999894,331.802825199964,331.802825199964,331.802825199964,332.86781219998375,Scenes\150b.jpg,post,s,1.0615736999898218,None,,,,,,,,00040,001,2026-01-23_17h44.12.035,MST_test,2024.2.0,60.038676902631224,2026-01-23 17h44.18.007629 +0530,
89,0,90,o,1.5696895000291988,None,90,0,89,332.88335899997037,,,,,,,,,,,,,,,,,,,,,,,,,,,,,,,,,,,,,,,,,,,,,,,,,,332.86817229998996,332.88335899997037,333.42207069997676,333.36681449995376,333.41853450000053,333.42207069997676,333.42207069997676,333.42207069997676,335.0004674999509,Scenes\094b.jpg,mid,o,1.5696895000291988,None,,,,,,,,00040,001,2026-01-23_17h44.12.035,MST_test,2024.2.0,60.038676902631224,2026-01-23 17h44.18.007629 +0530,
90,0,91,o,1.0187415999826044,None,91,0,90,335.0166932999855,,,,,,,,,,,,,,,,,,,,,,,,,,,,,,,,,,,,,,,,,,,,,,,,,,335.00082049996126,335.0166932999855,335.5169234999921,335.50040999997873,335.5035330999526,335.5169234999921,335.5169234999921,335.5169234999921,336.55047399998875,Objects\110a.jpg,post,o,1.0187415999826044,None,,,,,,,,00040,001,2026-01-23_17h44.12.035,MST_test,2024.2.0,60.038676902631224,2026-01-23 17h44.18.007629 +0530,
91,0,92,o,0.7431890000007115,None,92,0,91,336.5664941999712,,,,,,,,,,,,,,,,,,,,,,,,,,,,,,,,,,,,,,,,,,,,,,,,,,336.5508223999641,336.5664941999712,337.08847550000064,337.05050789995585,337.0856507999706,337.08847550000064,337.08847550000064,337.08847550000064,337.8338767999667,Objects\135b.jpg,post,o,0.7431890000007115,None,,,,,,,,00040,001,2026-01-23_17h44.12.035,MST_test,2024.2.0,60.038676902631224,2026-01-23 17h44.18.007629 +0530,
92,0,93,s,1.3155010999762453,None,93,0,92,337.85005299997283,,,,,,,,,,,,,,,,,,,,,,,,,,,,,,,,,,,,,,,,,,,,,,,,,,337.8342277999618,337.85005299997283,338.3649642999517,338.3335528000025,338.3626349999686,338.3649642999517,338.3649642999517,338.3649642999517,339.6838992999983,Objects\068b.jpg,pre,s,1.3155010999762453,None,,,,,,,,00040,001,2026-01-23_17h44.12.035,MST_test,2024.2.0,60.038676902631224,2026-01-23 17h44.18.007629 +0530,
93,0,94,s,1.6648293000180274,None,94,0,93,339.69972419994883,,,,,,,,,,,,,,,,,,,,,,,,,,,,,,,,,,,,,,,,,,,,,,,,,,339.6842565999832,339.69972419994883,340.2475097999559,340.1838629999547,340.2448172000004,340.2475097999559,340.2475097999559,340.2475097999559,341.91763479996007,Objects\011b.jpg,pre,s,1.6648293000180274,None,,,,,,,,00040,001,2026-01-23_17h44.12.035,MST_test,2024.2.0,60.038676902631224,2026-01-23 17h44.18.007629 +0530,
94,0,95,n,1.2180600999854505,None,95,0,94,341.9334656999563,,,,,,,,,,,,,,,,,,,,,,,,,,,,,,,,,,,,,,,,,,,,,,,,,,341.91798849997576,341.9334656999563,342.53386349999346,342.4169273999869,342.52973419998307,342.53386349999346,342.53386349999346,342.53386349999346,343.76737639994826,Foils\scenes25.jpg,none,n,1.2180600999854505,None,,,,,,,,00040,001,2026-01-23_17h44.12.035,MST_test,2024.2.0,60.038676902631224,2026-01-23 17h44.18.007629 +0530,
95,0,96,o,1.0662812999798916,None,96,0,95,343.7834550999687,,,,,,,,,,,,,,,,,,,,,,,,,,,,,,,,,,,,,,,,,,,,,,,,,,343.7677550999797,343.7834550999687,344.2940765999956,344.26694800000405,344.2922050000052,344.2940765999956,344.2940765999956,344.2940765999956,345.36725819995627,Scenes\022a.jpg,pre,o,1.0662812999798916,None,,,,,,,,00040,001,2026-01-23_17h44.12.035,MST_test,2024.2.0,60.038676902631224,2026-01-23 17h44.18.007629 +0530,
96,0,97,o,1.0514445999870077,None,97,0,96,345.3832954999525,,,,,,,,,,,,,,,,,,,,,,,,,,,,,,,,,,,,,,,,,,,,,,,,,,345.36761239997577,345.3832954999525,,345.8679457999533,345.878082399955,345.8841870999895,345.8841870999895,345.8841870999895,346.9507030999521,Objects\045a.jpg,pre,o,1.0514445999870077,None,,,,,,,,00040,001,2026-01-23_17h44.12.035,MST_test,2024.2.0,60.038676902631224,2026-01-23 17h44.18.007629 +0530,
97,0,98,s,1.1338207999942824,None,98,0,97,346.9675152999698,,,,,,,,,,,,,,,,,,,,,,,,,,,,,,,,,,,,,,,,,,,,,,,,,,346.95105009997496,346.9675152999698,347.4745210999972,347.4502527999575,347.47212829999626,347.4745210999972,347.4745210999972,347.4745210999972,348.6174515999737,Scenes\046a.jpg,post,s,1.1338207999942824,None,,,,,,,,00040,001,2026-01-23_17h44.12.035,MST_test,2024.2.0,60.038676902631224,2026-01-23 17h44.18.007629 +0530,
98,0,99,s,1.4608774000080302,None,99,0,98,348.63345809996827,,,,,,,,,,,,,,,,,,,,,,,,,,,,,,,,,,,,,,,,,,,,,,,,,,348.61780499998713,348.63345809996827,,349.11786060000304,349.16832879994763,349.1710167999845,349.1710167999845,349.1710167999845,350.633791500004,Objects\094b.jpg,pre,s,1.4608774000080302,None,,,,,,,,00040,001,2026-01-23_17h44.12.035,MST_test,2024.2.0,60.038676902631224,2026-01-23 17h44.18.007629 +0530,
99,0,100,o,1.326618299994152,None,100,0,99,350.64988569996785,,,,,,,,,,,,,,,,,,,,,,,,,,,,,,,,,,,,,,,,,,,,,,,,,,350.6341431000037,350.64988569996785,351.1537418999942,351.1338644999778,351.1514937999891,351.1537418999942,351.1537418999942,351.1537418999942,352.48388979997253,Scenes\165a.jpg,mid,o,1.326618299994152,None,,,,,,,,00040,001,2026-01-23_17h44.12.035,MST_test,2024.2.0,60.038676902631224,2026-01-23 17h44.18.007629 +0530,
100,0,101,o,0.9911782999988645,None,101,0,100,352.50013469997793,,,,,,,,,,,,,,,,,,,,,,,,,,,,,,,,,,,,,,,,,,,,,,,,,,352.48424779996276,352.50013469997793,353.00050490000285,352.98357280000346,352.9925300999894,353.00050490000285,353.00050490000285,353.00050490000285,354.00049969996326,Objects\130a.jpg,pre,o,0.9911782999988645,None,,,,,,,,00040,001,2026-01-23_17h44.12.035,MST_test,2024.2.0,60.038676902631224,2026-01-23 17h44.18.007629 +0530,
101,0,102,n,1.3024669000296853,None,102,0,101,354.0162994999555,,,,,,,,,,,,,,,,,,,,,,,,,,,,,,,,,,,,,,,,,,,,,,,,,,354.0008477999945,354.0162994999555,354.5378288999782,354.5004006999661,354.53454319998855,354.5378288999782,354.5378288999782,354.5378288999782,355.8507855999633,Foils\scenes17.jpg,none,n,1.3024669000296853,None,,,,,,,,00040,001,2026-01-23_17h44.12.035,MST_test,2024.2.0,60.038676902631224,2026-01-23 17h44.18.007629 +0530,
102,0,103,o,1.0467312000109814,None,103,0,102,355.8667196999886,,,,,,,,,,,,,,,,,,,,,,,,,,,,,,,,,,,,,,,,,,,,,,,,,,355.8511370999622,355.8667196999886,356.36955499998294,356.3505420999718,356.36743109999225,356.36955499998294,356.36955499998294,356.36955499998294,357.4179780999548,Scenes\072a.jpg,mid,o,1.0467312000109814,None,,,,,,,,00040,001,2026-01-23_17h44.12.035,MST_test,2024.2.0,60.038676902631224,2026-01-23 17h44.18.007629 +0530,
103,0,104,n,1.1699125000159256,None,104,0,103,357.43346239998937,,,,,,,,,,,,,,,,,,,,,,,,,,,,,,,,,,,,,,,,,,,,,,,,,,357.41839549998986,357.43346239998937,357.9338790999609,357.91716029995587,357.9243739999947,357.9338790999609,357.9338790999609,357.9338790999609,359.11724949994823,Foils\scenes5.jpg,none,n,1.1699125000159256,None,,,,,,,,00040,001,2026-01-23_17h44.12.035,MST_test,2024.2.0,60.038676902631224,2026-01-23 17h44.18.007629 +0530,
104,0,105,s,0.8377558999927714,None,105,0,104,359.1336654999759,,,,,,,,,,,,,,,,,,,,,,,,,,,,,,,,,,,,,,,,,,,,,,,,,,359.1176000999985,359.1336654999759,359.63382479996653,359.6171279999544,359.6279677999555,359.63382479996653,359.63382479996653,359.63382479996653,360.48481469997205,Objects\051a.jpg,post,s,0.8377558999927714,None,,,,,,,,00040,001,2026-01-23_17h44.12.035,MST_test,2024.2.0,60.038676902631224,2026-01-23 17h44.18.007629 +0530,
105,0,106,n,1.2715607000282034,None,106,0,105,360.50011419999646,,,,,,,,,,,,,,,,,,,,,,,,,,,,,,,,,,,,,,,,,,,,,,,,,,360.48518289998174,360.50011419999646,361.00010809995,360.9836305999779,360.99188909999793,361.00010809995,361.00010809995,361.00010809995,362.283795299998,Foils\105a.jpg,none,n,1.2715607000282034,None,,,,,,,,00040,001,2026-01-23_17h44.12.035,MST_test,2024.2.0,60.038676902631224,2026-01-23 17h44.18.007629 +0530,
106,0,107,s,1.0090770000242628,None,107,0,106,362.29979099996854,,,,,,,,,,,,,,,,,,,,,,,,,,,,,,,,,,,,,,,,,,,,,,,,,,362.28414760000305,362.29979099996854,362.81523099995684,362.78384409996215,362.81265379994875,362.81523099995684,362.81523099995684,362.81523099995684,363.8341476999922,Objects\146b.jpg,pre,s,1.0090770000242628,None,,,,,,,,00040,001,2026-01-23_17h44.12.035,MST_test,2024.2.0,60.038676902631224,2026-01-23 17h44.18.007629 +0530,
107,0,108,n,1.7061162000172772,None,108,0,107,363.85012459999416,,,,,,,,,,,,,,,,,,,,,,,,,,,,,,,,,,,,,,,,,,,,,,,,,,363.83451409998816,363.85012459999416,364.38976150000235,364.33298690000083,364.38722489995416,364.38976150000235,364.38976150000235,364.38976150000235,366.1007757000043,Scenes\073b.jpg,post,n,1.7061162000172772,None,,,,,,,,00040,001,2026-01-23_17h44.12.035,MST_test,2024.2.0,60.038676902631224,2026-01-23 17h44.18.007629 +0530,
108,0,109,o,1.0466575000318699,None,109,0,108,366.11735289997887,,,,,,,,,,,,,,,,,,,,,,,,,,,,,,,,,,,,,,,,,,,,,,,,,,366.1011228999705,366.11735289997887,366.6333228999865,366.6004256999586,366.6308257000055,366.6333228999865,366.6333228999865,366.6333228999865,367.6840702999616,Objects\125b.jpg,pre,o,1.0466575000318699,None,,,,,,,,00040,001,2026-01-23_17h44.12.035,MST_test,2024.2.0,60.038676902631224,2026-01-23 17h44.18.007629 +0530,
109,0,110,s,1.1349307999480516,None,110,0,109,367.6998869999661,,,,,,,,,,,,,,,,,,,,,,,,,,,,,,,,,,,,,,,,,,,,,,,,,,367.6844606999657,367.6998869999661,368.20068349997746,368.1836180999526,368.1981662999606,368.20068349997746,368.20068349997746,368.20068349997746,369.350974699948,Scenes\152a.jpg,mid,s,1.1349307999480516,None,,,,,,,,00040,001,2026-01-23_17h44.12.035,MST_test,2024.2.0,60.038676902631224,2026-01-23 17h44.18.007629 +0530,
110,0,111,o,0.9091810000245459,None,111,0,110,369.3668267999892,,,,,,,,,,,,,,,,,,,,,,,,,,,,,,,,,,,,,,,,,,,,,,,,,,369.351331199985,369.3668267999892,369.86768339999253,369.8503722999594,369.86519959999714,369.86768339999253,369.86768339999253,369.86768339999253,370.78455459995894,Scenes\133a.jpg,post,o,0.9091810000245459,None,,,,,,,,00040,001,2026-01-23_17h44.12.035,MST_test,2024.2.0,60.038676902631224,2026-01-23 17h44.18.007629 +0530,
111,0,112,o,1.0029915000195615,None,112,0,111,370.79980539996177,,,,,,,,,,,,,,,,,,,,,,,,,,,,,,,,,,,,,,,,,,,,,,,,,,370.78492899995763,370.79980539996177,371.3007170999772,371.28379669995047,371.2921870999853,371.3007170999772,371.3007170999772,371.3007170999772,372.31751139997505,Objects\010a.jpg,pre,o,1.0029915000195615,None,,,,,,,,00040,001,2026-01-23_17h44.12.035,MST_test,2024.2.0,60.038676902631224,2026-01-23 17h44.18.007629 +0530,
112,0,113,s,0.8594344999874011,None,113,0,112,372.3332003999967,,,,,,,,,,,,,,,,,,,,,,,,,,,,,,,,,,,,,,,,,,,,,,,,,,372.31785910000326,372.3332003999967,372.8364072999684,372.8170452999766,372.83407839998836,372.8364072999684,372.8364072999684,372.8364072999684,373.7004691999755,Scenes\181a.jpg,pre,s,0.8594344999874011,None,,,,,,,,00040,001,2026-01-23_17h44.12.035,MST_test,2024.2.0,60.038676902631224,2026-01-23 17h44.18.007629 +0530,
113,0,114,n,1.1431861999444664,None,114,0,113,373.7167993999901,,,,,,,,,,,,,,,,,,,,,,,,,,,,,,,,,,,,,,,,,,,,,,,,,,373.7008373999852,373.7167993999901,374.2409035000019,374.2005283999606,374.2381707999739,374.2409035000019,374.2409035000019,374.2409035000019,375.4005356999696,Scenes\173b.jpg,post,n,1.1431861999444664,None,,,,,,,,00040,001,2026-01-23_17h44.12.035,MST_test,2024.2.0,60.038676902631224,2026-01-23 17h44.18.007629 +0530,
114,0,115,n,1.2024680000031367,None,115,0,114,375.416828299989,,,,,,,,,,,,,,,,,,,,,,,,,,,,,,,,,,,,,,,,,,,,,,,,,,375.40086140000494,375.416828299989,375.9331442999537,375.9007879999699,375.93066219997127,375.9331442999537,375.9331442999537,375.9331442999537,377.1508045999799,Scenes\085b.jpg,post,n,1.2024680000031367,None,,,,,,,,00040,001,2026-01-23_17h44.12.035,MST_test,2024.2.0,60.038676902631224,2026-01-23 17h44.18.007629 +0530,
115,0,116,s,1.7605623999843374,None,116,0,115,377.16717719996814,,,,,,,,,,,,,,,,,,,,,,,,,,,,,,,,,,,,,,,,,,,,,,,,,,377.151161399961,377.16717719996814,377.6711262000026,377.65057419997174,377.6685423000017,377.6711262000026,377.6711262000026,377.6711262000026,379.43369919998804,Scenes\109a.jpg,mid,s,1.7605623999843374,None,,,,,,,,00040,001,2026-01-23_17h44.12.035,MST_test,2024.2.0,60.038676902631224,2026-01-23 17h44.18.007629 +0530,
116,0,117,s,1.0734662999748252,None,117,0,116,379.45035649999045,,,,,,,,,,,,,,,,,,,,,,,,,,,,,,,,,,,,,,,,,,,,,,,,,,379.43404969997937,379.45035649999045,379.9504289999604,379.9336576999631,379.9433769999887,379.9504289999604,379.9504289999604,379.9504289999604,381.03403449995676,Objects\025a.jpg,post,s,1.0734662999748252,None,,,,,,,,00040,001,2026-01-23_17h44.12.035,MST_test,2024.2.0,60.038676902631224,2026-01-23 17h44.18.007629 +0530,
117,0,118,o,4.095287100004498,None,118,0,117,381.05000990000553,,,,,,,,,,,,,,,,,,,,,,,,,,,,,,,,,,,,,,,,,,,,,,,,,,381.0344009999535,381.05000990000553,381.5527541000047,381.53380889998516,381.5500458999886,381.5527541000047,381.5527541000047,381.5527541000047,385.65052369999466,Scenes\159b.jpg,pre,o,4.095287100004498,None,,,,,,,,00040,001,2026-01-23_17h44.12.035,MST_test,2024.2.0,60.038676902631224,2026-01-23 17h44.18.007629 +0530,
118,0,119,s,1.3610846000374295,None,119,0,118,385.6670704999706,,,,,,,,,,,,,,,,,,,,,,,,,,,,,,,,,,,,,,,,,,,,,,,,,,385.6508798999712,385.6670704999706,386.2149609999615,386.15060699998867,386.2128175999969,386.2149609999615,386.2149609999615,386.2149609999615,387.5847817999893,Scenes\189b.jpg,mid,s,1.3610846000374295,None,,,,,,,,00040,001,2026-01-23_17h44.12.035,MST_test,2024.2.0,60.038676902631224,2026-01-23 17h44.18.007629 +0530,
119,0,120,n,3.3877550999750383,None,120,0,119,387.60012849996565,,,,,,,,,,,,,,,,,,,,,,,,,,,,,,,,,,,,,,,,,,,,,,,,,,387.58513449999737,387.60012849996565,388.10048709996045,388.0841423999518,388.0960085999686,388.10048709996045,388.10048709996045,388.10048709996045,391.50059909996344,Scenes\061a.jpg,pre,n,3.3877550999750383,None,,,,,,,,00040,001,2026-01-23_17h44.12.035,MST_test,2024.2.0,60.038676902631224,2026-01-23 17h44.18.007629 +0530,
120,0,121,s,3.052352599974256,None,121,0,120,391.51662039995426,,,,,,,,,,,,,,,,,,,,,,,,,,,,,,,,,,,,,,,,,,,,,,,,,,391.5009491999517,391.51662039995426,392.0439172000042,392.00030459999107,392.040953299962,392.0439172000042,392.0439172000042,392.0439172000042,395.1007094999659,Objects\042b.jpg,mid,s,3.052352599974256,None,,,,,,,,00040,001,2026-01-23_17h44.12.035,MST_test,2024.2.0,60.038676902631224,2026-01-23 17h44.18.007629 +0530,
121,0,122,s,1.0550321000046097,None,122,0,121,395.1169885999989,,,,,,,,,,,,,,,,,,,,,,,,,,,,,,,,,,,,,,,,,,,,,,,,,,395.1010727999965,395.1169885999989,395.6169972999487,395.6004563999595,395.6087990999804,395.6169972999487,395.6169972999487,395.6169972999487,396.6842643999844,Objects\013a.jpg,post,s,1.0550321000046097,None,,,,,,,,00040,001,2026-01-23_17h44.12.035,MST_test,2024.2.0,60.038676902631224,2026-01-23 17h44.18.007629 +0530,
122,0,123,s,1.5624132999801077,None,123,0,122,396.69989669998176,,,,,,,,,,,,,,,,,,,,,,,,,,,,,,,,,,,,,,,,,,,,,,,,,,396.6846127999597,396.69989669998176,397.2775354000041,397.1837077999953,397.2754717999487,397.2775354000041,397.2775354000041,397.2775354000041,398.8507089999621,Objects\103b.jpg,pre,s,1.5624132999801077,None,,,,,,,,00040,001,2026-01-23_17h44.12.035,MST_test,2024.2.0,60.038676902631224,2026-01-23 17h44.18.007629 +0530,
123,0,124,o,1.361167699971702,None,124,0,123,398.8665761000011,,,,,,,,,,,,,,,,,,,,,,,,,,,,,,,,,,,,,,,,,,,,,,,,,,398.85106610000366,398.8665761000011,399.36708959995303,399.35046099999454,399.36298949999036,399.36708959995303,399.36708959995303,399.36708959995303,400.734116299951,Scenes\129a.jpg,post,o,1.361167699971702,None,,,,,,,,00040,001,2026-01-23_17h44.12.035,MST_test,2024.2.0,60.038676902631224,2026-01-23 17h44.18.007629 +0530,
124,0,125,n,1.3083014999865554,None,125,0,124,400.7500555999577,,,,,,,,,,,,,,,,,,,,,,,,,,,,,,,,,,,,,,,,,,,,,,,,,,400.7344641999807,400.7500555999577,401.2519546999829,401.2335627999855,401.24955039995257,401.2519546999829,401.2519546999829,401.2519546999829,402.56789690000005,Scenes\092a.jpg,post,n,1.3083014999865554,None,,,,,,,,00040,001,2026-01-23_17h44.12.035,MST_test,2024.2.0,60.038676902631224,2026-01-23 17h44.18.007629 +0530,
125,0,126,s,1.074103599996306,None,126,0,125,402.58342249999987,,,,,,,,,,,,,,,,,,,,,,,,,,,,,,,,,,,,,,,,,,,,,,,,,,402.5682508999598,402.58342249999987,403.1097044000053,403.0672399000032,403.1069736999925,403.1097044000053,403.1097044000053,403.1097044000053,404.20057849999284,Scenes\095b.jpg,post,s,1.074103599996306,None,,,,,,,,00040,001,2026-01-23_17h44.12.035,MST_test,2024.2.0,60.038676902631224,2026-01-23 17h44.18.007629 +0530,
126,0,127,n,0.914197999984026,None,127,0,126,404.2170337999705,,,,,,,,,,,,,,,,,,,,,,,,,,,,,,,,,,,,,,,,,,,,,,,,,,404.20093039999483,404.2170337999705,404.71739179996075,404.7004835999687,404.7109997999505,404.71739179996075,404.71739179996075,404.71739179996075,405.6338960999856,Scenes\155b.jpg,pre,n,0.914197999984026,None,,,,,,,,00040,001,2026-01-23_17h44.12.035,MST_test,2024.2.0,60.038676902631224,2026-01-23 17h44.18.007629 +0530,
127,0,128,n,1.0792436000192538,None,128,0,127,405.6495934999548,,,,,,,,,,,,,,,,,,,,,,,,,,,,,,,,,,,,,,,,,,,,,,,,,,405.63425909995567,405.6495934999548,406.15244219999295,406.1338346999837,406.1495673999889,406.15244219999295,406.15244219999295,406.15244219999295,407.23412859998643,Scenes\121b.jpg,pre,n,1.0792436000192538,None,,,,,,,,00040,001,2026-01-23_17h44.12.035,MST_test,2024.2.0,60.038676902631224,2026-01-23 17h44.18.007629 +0530,
128,0,129,o,1.481097400013823,None,129,0,128,407.2500322999549,,,,,,,,,,,,,,,,,,,,,,,,,,,,,,,,,,,,,,,,,,,,,,,,,,407.2344846999622,407.2500322999549,407.75059700000565,407.73383669997565,407.7417056999984,407.75059700000565,407.75059700000565,407.75059700000565,409.2337720999494,Objects\186a.jpg,post,o,1.481097400013823,None,,,,,,,,00040,001,2026-01-23_17h44.12.035,MST_test,2024.2.0,60.038676902631224,2026-01-23 17h44.18.007629 +0530,
129,0,130,o,1.5887620999710634,None,130,0,129,409.2500729999738,,,,,,,,,,,,,,,,,,,,,,,,,,,,,,,,,,,,,,,,,,,,,,,,,,409.23414019995835,409.2500729999738,409.7551472999621,409.7338618999929,409.7525057999883,409.7551472999621,409.7551472999621,409.7551472999621,411.3511397999828,Scenes\012a.jpg,mid,o,1.5887620999710634,None,,,,,,,,00040,001,2026-01-23_17h44.12.035,MST_test,2024.2.0,60.038676902631224,2026-01-23 17h44.18.007629 +0530,
130,0,131,s,0.8051403999561444,None,131,0,130,411.3668034999864,,,,,,,,,,,,,,,,,,,,,,,,,,,,,,,,,,,,,,,,,,,,,,,,,,411.3514937,411.3668034999864,411.86710039997706,411.85000019997824,411.8584468999761,411.86710039997706,411.86710039997706,411.86710039997706,412.684600699984,Objects\152a.jpg,mid,s,0.8051403999561444,None,,,,,,,,00040,001,2026-01-23_17h44.12.035,MST_test,2024.2.0,60.038676902631224,2026-01-23 17h44.18.007629 +0530,
131,0,132,s,4.582101000007242,None,132,0,131,412.69970289996127,,,,,,,,,,,,,,,,,,,,,,,,,,,,,,,,,,,,,,,,,,,,,,,,,,412.6849520999822,412.69970289996127,413.2422183000017,413.1838633999578,413.23956019995967,413.2422183000017,413.2422183000017,413.2422183000017,417.8340120999492,Scenes\038b.jpg,pre,s,4.582101000007242,None,,,,,,,,00040,001,2026-01-23_17h44.12.035,MST_test,2024.2.0,60.038676902631224,2026-01-23 17h44.18.007629 +0530,
132,0,133,n,2.208759100001771,None,133,0,132,417.8498815999483,,,,,,,,,,,,,,,,,,,,,,,,,,,,,,,,,,,,,,,,,,,,,,,,,,417.8343998999917,417.8498815999483,418.3514827999752,418.33353509998415,418.3407922000042,418.3514827999752,418.3514827999752,418.3514827999752,420.56771729997126,Foils\scenes14.jpg,none,n,2.208759100001771,None,,,,,,,,00040,001,2026-01-23_17h44.12.035,MST_test,2024.2.0,60.038676902631224,2026-01-23 17h44.18.007629 +0530,
133,0,134,o,1.1816254000295885,None,134,0,133,420.58340649999445,,,,,,,,,,,,,,,,,,,,,,,,,,,,,,,,,,,,,,,,,,,,,,,,,,420.56806510000024,420.58340649999445,421.09004799998365,421.06679549999535,421.0870655999752,421.09004799998365,421.09004799998365,421.09004799998365,422.28412299999036,Scenes\023b.jpg,pre,o,1.1816254000295885,None,,,,,,,,00040,001,2026-01-23_17h44.12.035,MST_test,2024.2.0,60.038676902631224,2026-01-23 17h44.18.007629 +0530,
134,0,135,s,1.783390700002201,None,135,0,134,422.3000094000017,,,,,,,,,,,,,,,,,,,,,,,,,,,,,,,,,,,,,,,,,,,,,,,,,,422.28447439998854,422.3000094000017,422.81627369998023,422.78389169997536,422.8127609999501,422.81627369998023,422.81627369998023,422.81627369998023,424.6006344999769,Foils\scenes4.jpg,none,s,1.783390700002201,None,,,,,,,,00040,001,2026-01-23_17h44.12.035,MST_test,2024.2.0,60.038676902631224,2026-01-23 17h44.18.007629 +0530,
135,0,136,s,2.802275899972301,None,136,0,135,424.6171458999743,,,,,,,,,,,,,,,,,,,,,,,,,,,,,,,,,,,,,,,,,,,,,,,,,,424.6009849999682,424.6171458999743,425.1333140999777,425.10026039998047,425.1304223999614,425.1333140999777,425.1333140999777,425.1333140999777,427.9508629000047,Objects\151b.jpg,pre,s,2.802275899972301,None,,,,,,,,00040,001,2026-01-23_17h44.12.035,MST_test,2024.2.0,60.038676902631224,2026-01-23 17h44.18.007629 +0530,
136,0,137,n,2.8066858999663964,None,137,0,136,427.96660629997496,,,,,,,,,,,,,,,,,,,,,,,,,,,,,,,,,,,,,,,,,,,,,,,,,,427.9512346999836,427.96660629997496,428.5129117000033,428.4510274999775,428.5103283999488,428.5129117000033,428.5129117000033,428.5129117000033,431.3340934999869,Scenes\084b.jpg,post,n,2.8066858999663964,None,,,,,,,,00040,001,2026-01-23_17h44.12.035,MST_test,2024.2.0,60.038676902631224,2026-01-23 17h44.18.007629 +0530,
137,0,138,n,0.9012585000018589,None,138,0,137,431.35017769999104,,,,,,,,,,,,,,,,,,,,,,,,,,,,,,,,,,,,,,,,,,,,,,,,,,431.33446189999813,431.35017769999104,431.8664741999819,431.83374649996404,431.86380120000103,431.8664741999819,431.8664741999819,431.8664741999819,432.78381749999244,Scenes\051b.jpg,mid,n,0.9012585000018589,None,,,,,,,,00040,001,2026-01-23_17h44.12.035,MST_test,2024.2.0,60.038676902631224,2026-01-23 17h44.18.007629 +0530,
138,0,139,s,2.0272404000279494,None,139,0,138,432.8000823999755,,,,,,,,,,,,,,,,,,,,,,,,,,,,,,,,,,,,,,,,,,,,,,,,,,432.7841693999944,432.8000823999755,,433.28413669997826,433.29341159999603,433.30103749997215,433.30103749997215,433.30103749997215,435.33392779994756,Objects\122a.jpg,pre,s,2.0272404000279494,None,,,,,,,,00040,001,2026-01-23_17h44.12.035,MST_test,2024.2.0,60.038676902631224,2026-01-23 17h44.18.007629 +0530,
139,0,140,s,0.7811836000182666,None,140,0,139,435.3501319999923,,,,,,,,,,,,,,,,,,,,,,,,,,,,,,,,,,,,,,,,,,,,,,,,,,435.33427609998034,435.3501319999923,435.85040039999876,435.8338434000034,435.84162569994805,435.85040039999876,435.85040039999876,435.85040039999876,436.6337689999491,Objects\155a.jpg,mid,s,0.7811836000182666,None,,,,,,,,00040,001,2026-01-23_17h44.12.035,MST_test,2024.2.0,60.038676902631224,2026-01-23 17h44.18.007629 +0530,
140,0,141,s,0.9445308999856934,None,141,0,140,436.6496966999839,,,,,,,,,,,,,,,,,,,,,,,,,,,,,,,,,,,,,,,,,,,,,,,,,,436.6340175999794,436.6496966999839,437.1674589999602,437.133810099971,437.16434229997685,437.1674589999602,437.1674589999602,437.1674589999602,438.11745689995587,Foils\scenes8.jpg,none,s,0.9445308999856934,None,,,,,,,,00040,001,2026-01-23_17h44.12.035,MST_test,2024.2.0,60.038676902631224,2026-01-23 17h44.18.007629 +0530,
141,0,142,o,1.1424926000181586,None,142,0,141,438.1331857999903,,,,,,,,,,,,,,,,,,,,,,,,,,,,,,,,,,,,,,,,,,,,,,,,,,438.11780749994796,438.1331857999903,438.6336489999667,438.61730479996186,438.6261750999838,438.6336489999667,438.6336489999667,438.6336489999667,439.7840687999851,Objects\113a.jpg,mid,o,1.1424926000181586,None,,,,,,,,00040,001,2026-01-23_17h44.12.035,MST_test,2024.2.0,60.038676902631224,2026-01-23 17h44.18.007629 +0530,
142,0,143,s,2.1055804999778047,None,143,0,142,439.8009157999768,,,,,,,,,,,,,,,,,,,,,,,,,,,,,,,,,,,,,,,,,,,,,,,,,,439.7844196999795,439.8009157999768,440.3106904999586,440.2837725999998,440.30850619997364,440.3106904999586,440.3106904999586,440.3106904999586,442.4176911999821,Objects\153b.jpg,pre,s,2.1055804999778047,None,,,,,,,,00040,001,2026-01-23_17h44.12.035,MST_test,2024.2.0,60.038676902631224,2026-01-23 17h44.18.007629 +0530,
143,0,144,s,1.0424663000158034,None,144,0,143,442.4337437999784,,,,,,,,,,,,,,,,,,,,,,,,,,,,,,,,,,,,,,,,,,,,,,,,,,442.41804209997645,442.4337437999784,442.93348629999673,442.9168083999539,442.9240572999697,442.93348629999673,442.93348629999673,442.93348629999673,443.98404549999395,Objects\154a.jpg,mid,s,1.0424663000158034,None,,,,,,,,00040,001,2026-01-23_17h44.12.035,MST_test,2024.2.0,60.038676902631224,2026-01-23 17h44.18.007629 +0530,
144,0,145,o,2.705796900030691,None,145,0,144,444.0004886999959,,,,,,,,,,,,,,,,,,,,,,,,,,,,,,,,,,,,,,,,,,,,,,,,,,443.98439579998376,444.0004886999959,444.5020239999867,444.4834526999621,444.4997825999744,444.5020239999867,444.5020239999867,444.5020239999867,447.2173636999796,Scenes\127a.jpg,pre,o,2.705796900030691,None,,,,,,,,00040,001,2026-01-23_17h44.12.035,MST_test,2024.2.0,60.038676902631224,2026-01-23 17h44.18.007629 +0530,
145,0,146,s,1.4254330999683589,None,146,0,145,447.23327659995994,,,,,,,,,,,,,,,,,,,,,,,,,,,,,,,,,,,,,,,,,,,,,,,,,,447.21771259995876,447.23327659995994,,447.71782019996317,447.72987509996165,447.7340370999882,447.7340370999882,447.7340370999882,449.16677670000354,Foils\026a.jpg,none,s,1.4254330999683589,None,,,,,,,,00040,001,2026-01-23_17h44.12.035,MST_test,2024.2.0,60.038676902631224,2026-01-23 17h44.18.007629 +0530,
146,0,147,n,0.867615700000897,None,147,0,146,449.182769899955,,,,,,,,,,,,,,,,,,,,,,,,,,,,,,,,,,,,,,,,,,,,,,,,,,449.16709829994943,449.182769899955,,449.667051299999,449.673255599977,449.68393699999433,449.68393699999433,449.68393699999433,450.56751299998723,Foils\086a.jpg,none,n,0.867615700000897,None,,,,,,,,00040,001,2026-01-23_17h44.12.035,MST_test,2024.2.0,60.038676902631224,2026-01-23 17h44.18.007629 +0530,
147,0,148,o,1.4127072000410408,None,148,0,147,450.5834627999575,,,,,,,,,,,,,,,,,,,,,,,,,,,,,,,,,,,,,,,,,,,,,,,,,,450.5679321999778,450.5834627999575,451.10689189995173,451.06680689996574,451.1043039999786,451.10689189995173,451.10689189995173,451.10689189995173,452.5338881999487,Scenes\018b.jpg,mid,o,1.4127072000410408,None,,,,,,,,00040,001,2026-01-23_17h44.12.035,MST_test,2024.2.0,60.038676902631224,2026-01-23 17h44.18.007629 +0530,
148,0,149,o,0.9530267000081949,None,149,0,148,452.5501410999568,,,,,,,,,,,,,,,,,,,,,,,,,,,,,,,,,,,,,,,,,,,,,,,,,,452.53424409998115,452.5501410999568,453.0550173999509,453.0341143999831,453.0524142999784,453.0550173999509,453.0550173999509,453.0550173999509,454.0175285000005,Scenes\090a.jpg,post,o,0.9530267000081949,None,,,,,,,,00040,001,2026-01-23_17h44.12.035,MST_test,2024.2.0,60.038676902631224,2026-01-23 17h44.18.007629 +0530,
149,0,150,s,1.8298577000387013,None,150,0,149,454.0334015999688,,,,,,,,,,,,,,,,,,,,,,,,,,,,,,,,,,,,,,,,,,,,,,,,,,454.01797689998057,454.0334015999688,454.5538616999984,454.51720149995526,454.5511579999584,454.5538616999984,454.5538616999984,454.5538616999984,456.40063779999036,Objects\183b.jpg,post,s,1.8298577000387013,None,,,,,,,,00040,001,2026-01-23_17h44.12.035,MST_test,2024.2.0,60.038676902631224,2026-01-23 17h44.18.007629 +0530,
,,,,,,,,,,,,,,,,,,,,,,,,,,,,,,,,,,,,,,,,,,,,,,,,,,,,,,,,,,,,,,,,,,,,,,,,,456.40086959995097,456.41733629995724,456.41733629995724,457.98381319997134,space,1.550357400032226,None,00040,001,2026-01-23_17h44.12.035,MST_test,2024.2.0,60.038676902631224,2026-01-23 17h44.18.007629 +0530,
