Sl_no,image_path,thisN,thisTrialN,thisRepN,key_resp_5.keys,key_resp_7.keys,key_resp_7.rt,key_resp_7.duration,key_resp_5.rt,key_resp_5.duration,key_resp_9.keys,key_resp_9.rt,key_resp_9.duration,key_resp_8.keys,key_resp_8.rt,key_resp_8.duration,practice.thisRepN,practice.thisTrialN,practice.thisN,trials.thisRepN,trials.thisTrialN,trials.thisN,thisRow.t,notes,welcome_page.started,text.started,key_resp.started,welcome_page.stopped,key_resp.keys,key_resp.rt,key_resp.duration,instructions.started,ins.started,key_resp_2.started,instructions.stopped,key_resp_2.keys,key_resp_2.rt,key_resp_2.duration,objects_only_instruction.started,text_3.started,key_resp_3.started,objects_only_instruction.stopped,key_resp_3.keys,key_resp_3.rt,key_resp_3.duration,ISI.started,text_4.started,ISI.stopped,practice_block.started,image.started,text_5.started,key_resp_5.started,practice_block.stopped,practice.key_resp_5.keys,indoor_outdoor.started,text_7.started,key_resp_7.started,indoor_outdoor.stopped,practice.key_resp_7.keys,practice.key_resp_7.rt,practice.key_resp_7.duration,text_4.stopped,image.stopped,text_5.stopped,key_resp_5.stopped,practice.key_resp_5.rt,practice.key_resp_5.duration,practice_to_main.started,text_2.started,key_resp_4.started,practice_to_main.stopped,key_resp_4.keys,key_resp_4.rt,key_resp_4.duration,objects.started,image_2.started,text_9.started,key_resp_9.started,objects.stopped,trials.key_resp_9.keys,trials.key_resp_9.rt,trials.key_resp_9.duration,encoding_task.started,encoding_task.stopped,trials.key_resp_8.keys,text_8.started,key_resp_8.started,trials.key_resp_8.rt,trials.key_resp_8.duration,image_2.stopped,text_9.stopped,key_resp_9.stopped,end_experiment.started,text_6.started,key_resp_6.started,end_experiment.stopped,key_resp_6.keys,key_resp_6.rt,key_resp_6.duration,list_of_stimuli,encoding_task_accuracy,participant,session,date,expName,psychopyVersion,frameRate,expStart,
,,,,,,,,,,,,,,,,,,,,,,,,,0.0013533999999708612,0.0035752000000002226,0.0035752000000002226,12.438122999999905,space,12.350794000000064,None,,,,,,,,,,,,,,,,,,,,,,,,,,,,,,,,,,,,,,,,,,,,,,,,,,,,,,,,,,,,,,,,,,,,,,,00048,001,2026-01-24_15h11.48.563,MST_task,2024.2.0,59.88153038028976,2026-01-24 15h11.55.342861 +0530,
,,,,,,,,,,,,,,,,,,,,,,,,,,,,,,,,12.438175399999977,12.450335399999972,12.450335399999972,34.922737499999926,space,22.47200010000006,None,,,,,,,,,,,,,,,,,,,,,,,,,,,,,,,,,,,,,,,,,,,,,,,,,,,,,,,,,,,,,,,,00048,001,2026-01-24_15h11.48.563,MST_task,2024.2.0,59.88153038028976,2026-01-24 15h11.55.342861 +0530,
,,,,,,,,,,,,,,,,,,,,,,,,,,,,,,,,,,,,,,,34.92278390000001,34.94385829999999,34.94385829999999,58.60586689999991,space,23.65805409999996,None,,,,,,,,,,,,,,,,,,,,,,,,,,,,,,,,,,,,,,,,,,,,,,,,,,,,,,,,,00048,001,2026-01-24_15h11.48.563,MST_task,2024.2.0,59.88153038028976,2026-01-24 15h11.55.342861 +0530,
6,practice_images/158a.jpg,0,0,1,None,j,0.47160170000006474,None,,,,,,,,,1,0,0,,,,58.63179949999994,,,,,,,,,,,,,,,,,,,,,,,58.62923779999994,58.63179949999994,59.122332400000005,59.1511921,59.18623339999999,59.18623339999999,59.18623339999999,62.10626179999997,None,62.11228879999999,62.12260709999998,62.12260709999998,62.60638019999999,j,0.47160170000006474,None,,,,,,,,,,,,,,,,,,,,,,,,,,,,,,,,,,,,,,,,,00048,001,2026-01-24_15h11.48.563,MST_task,2024.2.0,59.88153038028976,2026-01-24 15h11.55.342861 +0530,
5,practice_images/139a.jpg,1,1,1,j,None,,,2.087253500000088,0.16802039999993212,,,,,,,1,1,1,,,,62.622523,,,,,,,,,,,,,,,,,,,,,,,62.60667019999994,62.622523,63.1059894,63.119596,63.12309929999992,63.12309929999992,63.12309929999992,66.10646069999996,j,66.10664989999998,,,66.10672949999991,None,,,63.12309929999992,66.12249099999997,66.12249099999997,66.12249099999997,2.087253500000088,0.16802039999993212,,,,,,,,,,,,,,,,,,,,,,,,,,,,,,,,,,,00048,001,2026-01-24_15h11.48.563,MST_task,2024.2.0,59.88153038028976,2026-01-24 15h11.55.342861 +0530,
7,practice_images/166a.jpg,2,2,1,f,None,,,2.4489785000000666,0.20016479999992498,,,,,,,1,2,2,,,,66.12249099999997,,,,,,,,,,,,,,,,,,,,,,,66.10700969999994,66.12249099999997,66.60619599999995,66.62200459999997,66.62522159999992,66.62522159999992,66.62522159999992,69.62294469999995,f,69.62315530000001,,,69.6232248,None,,,66.62522159999992,,,,2.4489785000000666,0.20016479999992498,,,,,,,,,,,,,,,,,,,,,,,,,,,,,,,,,,,00048,001,2026-01-24_15h11.48.563,MST_task,2024.2.0,59.88153038028976,2026-01-24 15h11.55.342861 +0530,
2,practice_images/031a.jpg,3,3,1,f,None,,,2.0987052000000403,0.1925499999999829,,,,,,,1,3,3,,,,69.63914409999995,,,,,,,,,,,,,,,,,,,,,,,69.62349759999995,69.63914409999995,70.12276609999992,70.14055079999991,70.14354270000001,70.14354270000001,70.14354270000001,73.13943159999997,f,73.13963939999996,,,73.13971319999996,None,,,70.14354270000001,,,,2.0987052000000403,0.1925499999999829,,,,,,,,,,,,,,,,,,,,,,,,,,,,,,,,,,,00048,001,2026-01-24_15h11.48.563,MST_task,2024.2.0,59.88153038028976,2026-01-24 15h11.55.342861 +0530,
1,practice_images/013a.jpg,4,4,1,j,None,,,2.2246658000000252,0.21625779999999395,,,,,,,1,4,4,,,,73.15581869999994,,,,,,,,,,,,,,,,,,,,,,,73.1400114999999,73.15581869999994,73.63984469999991,73.6544715,73.65751579999994,73.65751579999994,73.65751579999994,76.65622369999994,j,76.65646449999997,,,76.65653139999995,None,,,,,,,2.2246658000000252,0.21625779999999395,,,,,,,,,,,,,,,,,,,,,,,,,,,,,,,,,,,00048,001,2026-01-24_15h11.48.563,MST_task,2024.2.0,59.88153038028976,2026-01-24 15h11.55.342861 +0530,
3,practice_images/037a.jpg,5,5,1,f,None,,,2.5938856000000214,0.22450460000004568,,,,,,,1,5,5,,,,76.67233829999998,,,,,,,,,,,,,,,,,,,,,,,76.65681739999991,76.67233829999998,77.15629589999992,77.17275999999993,77.17599429999996,77.17599429999996,77.17599429999996,80.17242669999996,f,80.17257439999992,,,80.17263129999992,None,,,77.17599429999996,,,,2.5938856000000214,0.22450460000004568,,,,,,,,,,,,,,,,,,,,,,,,,,,,,,,,,,,00048,001,2026-01-24_15h11.48.563,MST_task,2024.2.0,59.88153038028976,2026-01-24 15h11.55.342861 +0530,
10,practice_images/182a.jpg,6,6,1,f,None,,,1.5129617000000053,0.40816719999997986,,,,,,,1,6,6,,,,80.18903619999992,,,,,,,,,,,,,,,,,,,,,,,80.17285289999995,80.18903619999992,80.67274759999998,80.68500319999998,80.6892092999999,80.6892092999999,80.6892092999999,83.67270009999993,f,83.67282919999991,,,83.67287539999995,None,,,80.6892092999999,83.68871259999992,83.68871259999992,83.68871259999992,1.5129617000000053,0.40816719999997986,,,,,,,,,,,,,,,,,,,,,,,,,,,,,,,,,,,00048,001,2026-01-24_15h11.48.563,MST_task,2024.2.0,59.88153038028976,2026-01-24 15h11.55.342861 +0530,
4,practice_images/002b.jpg,7,7,1,None,f,0.23665389999996478,None,,,,,,,,,1,7,7,,,,83.68871259999992,,,,,,,,,,,,,,,,,,,,,,,83.67307669999991,83.68871259999992,84.17233699999997,84.19021729999997,84.19301819999998,84.19301819999998,84.19301819999998,87.18935079999994,None,87.18952869999998,87.20551569999998,87.20551569999998,87.45638039999994,f,0.23665389999996478,None,84.19301819999998,,,,,,,,,,,,,,,,,,,,,,,,,,,,,,,,,,,,,,,,00048,001,2026-01-24_15h11.48.563,MST_task,2024.2.0,59.88153038028976,2026-01-24 15h11.55.342861 +0530,
8,practice_images/178a.jpg,8,8,1,j,None,,,2.4827293000000736,0.12822799999992185,,,,,,,1,8,8,,,,87.47253779999994,,,,,,,,,,,,,,,,,,,,,,,87.45671959999993,87.47253779999994,87.95622159999994,87.97187499999995,87.97528909999994,87.97528909999994,87.97528909999994,90.9728854,j,90.97308969999995,,,90.97316209999997,None,,,87.97528909999994,,,,2.4827293000000736,0.12822799999992185,,,,,,,,,,,,,,,,,,,,,,,,,,,,,,,,,,,00048,001,2026-01-24_15h11.48.563,MST_task,2024.2.0,59.88153038028976,2026-01-24 15h11.55.342861 +0530,
9,practice_images/180a.jpg,9,9,1,f,None,,,2.6947957999999517,None,,,,,,,1,9,9,,,,90.98910660000001,,,,,,,,,,,,,,,,,,,,,,,90.97343919999992,90.98910660000001,91.47294599999998,91.48901509999996,91.4914695,91.4914695,91.4914695,94.48947019999991,f,94.48965369999996,,,94.48971069999993,None,,,91.4914695,,,,2.6947957999999517,None,,,,,,,,,,,,,,,,,,,,,,,,,,,,,,,,,,,00048,001,2026-01-24_15h11.48.563,MST_task,2024.2.0,59.88153038028976,2026-01-24 15h11.55.342861 +0530,
,,,,,,,,,,,,,,,,,,,,,,,,,,,,,,,,,,,,,,,,,,,,,,,,,,,,,,,,,,,,,,,,,,,,94.48985579999999,94.50577069999997,94.50577069999997,107.02269409999997,space,12.51209920000008,None,,,,,,,,,,,,,,,,,,,,,,,,,,,,00048,001,2026-01-24_15h11.48.563,MST_task,2024.2.0,59.88153038028976,2026-01-24 15h11.55.342861 +0530,
,Scenes\168a.jpg,0,0,1,,,,,,,j,1.7356519999999591,0.28030730000000403,None,,,,,,1,0,0,107.0387316,,,,,,,,,,,,,,,,,,,,,,,107.0253017,107.0387316,107.52296719999993,,,,,,,,,,,,,,107.56243109999991,,,,,,,,,,,,,107.55868239999995,107.56243109999991,107.56243109999991,107.56243109999991,110.53910229999997,j,1.7356519999999591,0.28030730000000403,110.54344779999997,110.54348359999994,None,,,,,,,,,,,,,,,,,00048,001,2026-01-24_15h11.48.563,MST_task,2024.2.0,59.88153038028976,2026-01-24 15h11.55.342861 +0530,
,Scenes\005a.jpg,1,0,2,,,,,,,None,,,f,0.026077399999962836,None,,,,2,0,1,110.55573229999993,,,,,,,,,,,,,,,,,,,,,,,110.54360629999996,110.55573229999993,111.03930449999996,,,,,,,,,,,,,,111.31092699999999,,,,,,,,,,,,,111.30784889999995,111.31092699999999,111.31092699999999,111.31092699999999,114.05588809999995,None,,,114.05603299999996,114.10660699999994,f,114.07212870000001,114.07212870000001,0.026077399999962836,None,,,,,,,,,,,,,00048,001,2026-01-24_15h11.48.563,MST_task,2024.2.0,59.88153038028976,2026-01-24 15h11.55.342861 +0530,
,Scenes\136a.jpg,2,0,3,,,,,,,None,,,j,1.147187400000007,None,,,,3,0,2,114.12226939999994,,,,,,,,,,,,,,,,,,,,,,,114.10671309999998,114.12226939999994,114.60615069999994,,,,,,,,,,,,,,114.62662749999993,,,,,,,,,,,,,114.62395849999996,114.62662749999993,114.62662749999993,114.62662749999993,117.622837,None,,,117.62305299999991,118.78965289999996,j,117.6390308,117.6390308,1.147187400000007,None,,,,,,,,,,,,,00048,001,2026-01-24_15h11.48.563,MST_task,2024.2.0,59.88153038028976,2026-01-24 15h11.55.342861 +0530,
,Scenes\156a.jpg,3,0,4,,,,,,,None,,,j,0.7598527000000104,None,,,,4,0,3,118.80580449999991,,,,,,,,,,,,,,,,,,,,,,,118.7901005,118.80580449999991,119.28944989999991,,,,,,,,,,,,,,119.31925669999998,,,,,,,,,,,,,119.31635940000001,119.31925669999998,119.31925669999998,119.31925669999998,122.30600779999997,None,,,122.3061553,123.08935479999991,j,122.32212779999998,122.32212779999998,0.7598527000000104,None,,,,,,,,,,,,,00048,001,2026-01-24_15h11.48.563,MST_task,2024.2.0,59.88153038028976,2026-01-24 15h11.55.342861 +0530,
,Scenes\035a.jpg,4,0,5,,,,,,,None,,,j,0.5639311999999563,None,,,,5,0,4,123.10550269999999,,,,,,,,,,,,,,,,,,,,,,,123.08969409999997,123.10550269999999,123.5889886,,,,,,,,,,,,,,123.61978079999994,,,,,,,,,,,,,123.61758889999999,123.61978079999994,123.61978079999994,123.61978079999994,126.60633599999994,None,,,126.6064973,127.18953199999999,j,126.62226869999995,126.62226869999995,0.5639311999999563,None,,,,,,,,,,,,,00048,001,2026-01-24_15h11.48.563,MST_task,2024.2.0,59.88153038028976,2026-01-24 15h11.55.342861 +0530,
,Scenes\108a.jpg,5,0,6,,,,,,,None,,,j,0.5358035000000427,None,,,,6,0,5,127.20579599999996,,,,,,,,,,,,,,,,,,,,,,,127.18979819999993,127.20579599999996,127.68918659999997,,,,,,,,,,,,,,127.71945429999994,,,,,,,,,,,,,127.71681009999998,127.71945429999994,127.71945429999994,127.71945429999994,130.7069586,None,,,130.70713449999994,131.27274979999993,j,130.72223129999998,130.72223129999998,0.5358035000000427,None,,,,,,,,,,,,,00048,001,2026-01-24_15h11.48.563,MST_task,2024.2.0,59.88153038028976,2026-01-24 15h11.55.342861 +0530,
,Scenes\145a.jpg,6,0,7,,,,,,,None,,,j,0.5174649999999019,None,,,,7,0,6,131.28906869999992,,,,,,,,,,,,,,,,,,,,,,,131.27308489999996,131.28906869999992,131.77268229999993,,,,,,,,,,,,,,131.80526959999997,,,,,,,,,,,,,131.8022231,131.80526959999997,131.80526959999997,131.80526959999997,134.77295099999992,None,,,134.7730368,135.32290089999992,j,134.78907099999992,134.78907099999992,0.5174649999999019,None,,,,,,,,,,,,,00048,001,2026-01-24_15h11.48.563,MST_task,2024.2.0,59.88153038028976,2026-01-24 15h11.55.342861 +0530,
,Objects\031a.jpg,7,0,8,,,,,,,f,2.420180999999957,0.18439009999997324,None,,,,,,8,0,7,135.33898709999994,,,,,,,,,,,,,,,,,,,,,,,135.3232524,135.33898709999994,135.8226871999999,,,,,,,,,,,,,,135.85385889999998,,,,,,,,,,,,,135.85177609999994,135.85385889999998,135.85385889999998,135.85385889999998,138.83944359999998,f,2.420180999999957,0.18439009999997324,138.83961969999996,138.83967619999999,None,,,,,,,,,,,,,,,,,00048,001,2026-01-24_15h11.48.563,MST_task,2024.2.0,59.88153038028976,2026-01-24 15h11.55.342861 +0530,
,Objects\047a.jpg,8,0,9,,,,,,,f,1.5053237999999283,0.1842176999999765,None,,,,,,9,0,8,138.8556261,,,,,,,,,,,,,,,,,,,,,,,138.83990859999994,138.8556261,139.3394882,,,,,,,,,,,,,,139.3606006,,,,,,,,,,,,,139.3583544999999,139.3606006,139.3606006,139.3606006,142.3561783,f,1.5053237999999283,0.1842176999999765,142.3563929999999,142.35645809999994,None,,,,,,,,,,,,,,,,,00048,001,2026-01-24_15h11.48.563,MST_task,2024.2.0,59.88153038028976,2026-01-24 15h11.55.342861 +0530,
,Objects\048a.jpg,9,0,10,,,,,,,j,1.6134823999999526,0.15183950000005098,None,,,,,,10,0,9,142.3722437,,,,,,,,,,,,,,,,,,,,,,,142.35683459999996,142.3722437,142.8560124999999,,,,,,,,,,,,,,142.87680239999997,,,,,,,,,,,,,142.87402399999996,142.87680239999997,142.87680239999997,142.87680239999997,145.87277029999996,j,1.6134823999999526,0.15183950000005098,145.87298269999997,145.8730486999999,None,,,,,,,,,,,,,,,,,00048,001,2026-01-24_15h11.48.563,MST_task,2024.2.0,59.88153038028976,2026-01-24 15h11.55.342861 +0530,
,Objects\178a.jpg,10,0,11,,,,,,,j,1.3579270000000179,0.14434810000000198,None,,,,,,11,0,10,145.88896379999994,,,,,,,,,,,,,,,,,,,,,,,145.8733562,145.88896379999994,146.3726474,,,,,,,,,,,,,,146.39587669999992,,,,,,,,,,,,,146.3934410999999,146.39587669999992,146.39587669999992,146.39587669999992,149.38961139999992,j,1.3579270000000179,0.14434810000000198,149.3898188999999,149.38988189999998,None,,,,,,,,,,,,,,,,,00048,001,2026-01-24_15h11.48.563,MST_task,2024.2.0,59.88153038028976,2026-01-24 15h11.55.342861 +0530,
,Objects\071a.jpg,11,0,12,,,,,,,j,2.5339647999999215,0.143716100000006,None,,,,,,12,0,11,149.40577529999996,,,,,,,,,,,,,,,,,,,,,,,149.39017709999996,149.40577529999996,149.88941749999992,,,,,,,,,,,,,,149.90821589999996,,,,,,,,,,,,,149.90559369999994,149.90821589999996,149.90821589999996,149.90821589999996,152.90565419999996,j,2.5339647999999215,0.143716100000006,152.90575689999991,152.90578059999996,None,,,,,,,,,,,,,,,,,00048,001,2026-01-24_15h11.48.563,MST_task,2024.2.0,59.88153038028976,2026-01-24 15h11.55.342861 +0530,
,Objects\078a.jpg,12,0,13,,,,,,,j,1.3978328000000602,0.1678689000000304,None,,,,,,13,0,12,152.9219084,,,,,,,,,,,,,,,,,,,,,,,152.9060566999999,152.9219084,153.40599029999998,,,,,,,,,,,,,,,,,,,,,,,,,,,153.42545329999996,153.4283413999999,153.4283413999999,153.4283413999999,156.4063526,j,1.3978328000000602,0.1678689000000304,156.4065319,156.4065903999999,None,,,,,,,,,,,,,,,,,00048,001,2026-01-24_15h11.48.563,MST_task,2024.2.0,59.88153038028976,2026-01-24 15h11.55.342861 +0530,
,Objects\133a.jpg,13,0,14,,,,,,,f,2.206138600000031,0.152036599999974,None,,,,,,14,0,13,156.42215099999999,,,,,,,,,,,,,,,,,,,,,,,156.4068436,156.42215099999999,156.9059125,,,,,,,,,,,,,,156.9320239,,,,,,,,,,,,,156.9295459,156.9320239,156.9320239,156.9320239,159.9226314,f,2.206138600000031,0.152036599999974,159.92280949999997,159.9228647,None,,,,,,,,,,,,,,,,,00048,001,2026-01-24_15h11.48.563,MST_task,2024.2.0,59.88153038028976,2026-01-24 15h11.55.342861 +0530,
,Scenes\054a.jpg,14,0,15,,,,,,,j,1.0810218000000305,0.20016959999998107,None,,,,,,15,0,14,159.9391511,,,,,,,,,,,,,,,,,,,,,,,159.92311239999992,159.9391511,160.4223331999999,,,,,,,,,,,,,,160.4569818,,,,,,,,,,,,,160.45393549999994,160.4569818,160.4569818,160.4569818,163.43959529999995,j,1.0810218000000305,0.20016959999998107,163.4397975999999,163.43986009999992,None,,,,,,,,,,,,,,,,,00048,001,2026-01-24_15h11.48.563,MST_task,2024.2.0,59.88153038028976,2026-01-24 15h11.55.342861 +0530,
,Scenes\151a.jpg,15,0,16,,,,,,,j,0.7244971999999734,0.1280748000000358,None,,,,,,16,0,15,163.4556523,,,,,,,,,,,,,,,,,,,,,,,163.44013459999996,163.4556523,163.9397381,,,,,,,,,,,,,,163.96529969999995,,,,,,,,,,,,,163.96229819999996,163.96529969999995,163.96529969999995,163.96529969999995,166.95614239999998,j,0.7244971999999734,0.1280748000000358,166.95634229999996,166.9564072999999,None,,,,,,,,,,,,,,,,,00048,001,2026-01-24_15h11.48.563,MST_task,2024.2.0,59.88153038028976,2026-01-24 15h11.55.342861 +0530,
,Scenes\102a.jpg,16,0,17,,,,,,,j,2.410137899999995,0.12820729999998548,None,,,,,,17,0,16,166.97242719999997,,,,,,,,,,,,,,,,,,,,,,,166.95670069999994,166.97242719999997,167.45570799999996,,,,,,,,,,,,,,167.48784769999997,,,,,,,,,,,,,167.48526819999995,167.48784769999997,167.48784769999997,167.48784769999997,170.4728285,j,2.410137899999995,0.12820729999998548,170.47305529999994,170.47312109999996,None,,,,,,,,,,,,,,,,,00048,001,2026-01-24_15h11.48.563,MST_task,2024.2.0,59.88153038028976,2026-01-24 15h11.55.342861 +0530,
,Scenes\188a.jpg,17,0,18,,,,,,,None,,,j,0.9485538000000133,None,,,,18,0,17,170.4891308,,,,,,,,,,,,,,,,,,,,,,,170.47349099999997,170.4891308,170.972716,,,,,,,,,,,,,,171.00439889999996,,,,,,,,,,,,,171.0015697,171.00439889999996,171.00439889999996,171.00439889999996,173.98961379999992,None,,,173.98980829999994,174.95622279999998,j,174.0057683,174.0057683,0.9485538000000133,None,,,,,,,,,,,,,00048,001,2026-01-24_15h11.48.563,MST_task,2024.2.0,59.88153038028976,2026-01-24 15h11.55.342861 +0530,
,Scenes\144a.jpg,18,0,19,,,,,,,None,,,j,0.40079790000004323,None,,,,19,0,18,174.9723798,,,,,,,,,,,,,,,,,,,,,,,174.95658329999992,174.9723798,175.4561564999999,,,,,,,,,,,,,,175.49386349999997,,,,,,,,,,,,,175.49069139999995,175.49386349999997,175.49386349999997,175.49386349999997,178.47316059999991,None,,,178.4733476,178.90625739999996,j,178.4891215,178.4891215,0.40079790000004323,None,,,,,,,,,,,,,00048,001,2026-01-24_15h11.48.563,MST_task,2024.2.0,59.88153038028976,2026-01-24 15h11.55.342861 +0530,
,Scenes\106a.jpg,19,0,20,,,,,,,None,,,j,0.31467350000002625,None,,,,20,0,19,178.92281219999995,,,,,,,,,,,,,,,,,,,,,,,178.90670969999996,178.92281219999995,179.4062801,,,,,,,,,,,,,,179.44043739999995,,,,,,,,,,,,,179.43730729999993,179.44043739999995,179.44043739999995,179.44043739999995,182.4228157,None,,,182.4229977,182.75615779999998,j,182.43920909999997,182.43920909999997,0.31467350000002625,None,,,,,,,,,,,,,00048,001,2026-01-24_15h11.48.563,MST_task,2024.2.0,59.88153038028976,2026-01-24 15h11.55.342861 +0530,
,Scenes\185a.jpg,20,0,21,,,,,,,j,1.444158899999934,0.14414690000000974,None,,,,,,21,0,20,182.77230889999998,,,,,,,,,,,,,,,,,,,,,,,182.7565336,182.77230889999998,183.25613539999995,,,,,,,,,,,,,,183.28581369999995,,,,,,,,,,,,,183.28278669999997,183.28581369999995,183.28581369999995,183.28581369999995,186.2727794,j,1.444158899999934,0.14414690000000974,186.27297999999996,186.2730459999999,None,,,,,,,,,,,,,,,,,00048,001,2026-01-24_15h11.48.563,MST_task,2024.2.0,59.88153038028976,2026-01-24 15h11.55.342861 +0530,
,Objects\081a.jpg,21,0,22,,,,,,,j,1.2442353999999796,0.312684900000022,None,,,,,,22,0,21,186.2891813,,,,,,,,,,,,,,,,,,,,,,,186.27333869999995,186.2891813,186.77278479999995,,,,,,,,,,,,,,186.79784529999995,,,,,,,,,,,,,186.79485849999992,186.79784529999995,186.79784529999995,186.79784529999995,189.78952589999994,j,1.2442353999999796,0.312684900000022,189.7897261999999,189.78978959999995,None,,,,,,,,,,,,,,,,,00048,001,2026-01-24_15h11.48.563,MST_task,2024.2.0,59.88153038028976,2026-01-24 15h11.55.342861 +0530,
,Objects\109a.jpg,22,0,23,,,,,,,f,1.1417665999999826,0.24834309999994275,None,,,,,,23,0,22,189.8058737,,,,,,,,,,,,,,,,,,,,,,,189.79008049999993,189.8058737,190.28903119999995,,,,,,,,,,,,,,190.30839519999995,,,,,,,,,,,,,190.30593279999994,190.30839519999995,190.30839519999995,190.30839519999995,193.30617499999994,f,1.1417665999999826,0.24834309999994275,193.30637519999993,193.3064379,None,,,,,,,,,,,,,,,,,00048,001,2026-01-24_15h11.48.563,MST_task,2024.2.0,59.88153038028976,2026-01-24 15h11.55.342861 +0530,
,Objects\120a.jpg,23,0,24,,,,,,,f,1.1281069000000343,0.14430379999998877,None,,,,,,24,0,23,193.32243499999993,,,,,,,,,,,,,,,,,,,,,,,193.30680769999992,193.32243499999993,193.80616729999997,,,,,,,,,,,,,,193.82585089999998,,,,,,,,,,,,,193.8230984999999,193.82585089999998,193.82585089999998,193.82585089999998,196.82270649999998,f,1.1281069000000343,0.14430379999998877,196.82292499999994,196.82298939999998,None,,,,,,,,,,,,,,,,,00048,001,2026-01-24_15h11.48.563,MST_task,2024.2.0,59.88153038028976,2026-01-24 15h11.55.342861 +0530,
,Objects\102a.jpg,24,0,25,,,,,,,f,2.269581099999982,0.12802110000006905,None,,,,,,25,0,24,196.83909459999995,,,,,,,,,,,,,,,,,,,,,,,196.82328499999994,196.83909459999995,197.32275499999992,,,,,,,,,,,,,,197.34839079999995,,,,,,,,,,,,,197.34472159999996,197.34839079999995,197.34839079999995,197.34839079999995,200.33956009999997,f,2.269581099999982,0.12802110000006905,200.33976819999998,200.33983209999997,None,,,,,,,,,,,,,,,,,00048,001,2026-01-24_15h11.48.563,MST_task,2024.2.0,59.88153038028976,2026-01-24 15h11.55.342861 +0530,
,Objects\018a.jpg,25,0,26,,,,,,,None,,,f,0.5456376999999293,None,,,,26,0,25,200.35577209999997,,,,,,,,,,,,,,,,,,,,,,,200.3401298,200.35577209999997,200.8395605999999,,,,,,,,,,,,,,200.862757,,,,,,,,,,,,,200.85965549999992,200.862757,200.862757,200.862757,203.85624629999995,None,,,203.8564278,204.42281789999993,f,203.87246429999993,203.87246429999993,0.5456376999999293,None,,,,,,,,,,,,,00048,001,2026-01-24_15h11.48.563,MST_task,2024.2.0,59.88153038028976,2026-01-24 15h11.55.342861 +0530,
,Objects\051a.jpg,26,0,27,,,,,,,None,,,f,0.45401330000004236,None,,,,27,0,26,204.43921719999992,,,,,,,,,,,,,,,,,,,,,,,204.42315669999994,204.43921719999992,204.9229156,,,,,,,,,,,,,,204.9483631999999,,,,,,,,,,,,,204.9453643999999,204.9483631999999,204.9483631999999,204.9483631999999,207.9393897,None,,,207.9395735999999,208.422817,f,207.95581259999994,207.95581259999994,0.45401330000004236,None,,,,,,,,,,,,,00048,001,2026-01-24_15h11.48.563,MST_task,2024.2.0,59.88153038028976,2026-01-24 15h11.55.342861 +0530,
,Objects\161a.jpg,27,0,28,,,,,,,None,,,j,0.4620354999999563,None,,,,28,0,27,208.4391147,,,,,,,,,,,,,,,,,,,,,,,208.42315689999998,208.4391147,208.92262929999993,,,,,,,,,,,,,,208.94534049999993,,,,,,,,,,,,,208.94277879999993,208.94534049999993,208.94534049999993,208.94534049999993,211.93959129999996,None,,,211.93977759999996,212.4229360999999,j,211.95590549999997,211.95590549999997,0.4620354999999563,None,,,,,,,,,,,,,00048,001,2026-01-24_15h11.48.563,MST_task,2024.2.0,59.88153038028976,2026-01-24 15h11.55.342861 +0530,
,Scenes\079a.jpg,28,0,29,,,,,,,None,,,j,0.35828490000005786,None,,,,29,0,28,212.43904379999992,,,,,,,,,,,,,,,,,,,,,,,212.42327109999997,212.43904379999992,212.92273109999996,,,,,,,,,,,,,,212.94669999999996,,,,,,,,,,,,,212.94415429999992,212.94669999999996,212.94669999999996,212.94669999999996,215.93942319999996,None,,,215.939614,216.32282149999992,j,215.95578719999992,215.95578719999992,0.35828490000005786,None,,,,,,,,,,,,,00048,001,2026-01-24_15h11.48.563,MST_task,2024.2.0,59.88153038028976,2026-01-24 15h11.55.342861 +0530,
,Scenes\051a.jpg,29,0,30,,,,,,,None,,,j,0.4425112999999783,None,,,,30,0,29,216.3391767999999,,,,,,,,,,,,,,,,,,,,,,,216.32328639999992,216.3391767999999,216.82261819999997,,,,,,,,,,,,,,216.8481918,,,,,,,,,,,,,216.84575989999996,216.8481918,216.8481918,216.8481918,219.83955029999993,None,,,219.83972429999994,220.30630399999995,j,219.85556039999994,219.85556039999994,0.4425112999999783,None,,,,,,,,,,,,,00048,001,2026-01-24_15h11.48.563,MST_task,2024.2.0,59.88153038028976,2026-01-24 15h11.55.342861 +0530,
,Scenes\143a.jpg,30,0,31,,,,,,,None,,,j,0.45071789999997236,None,,,,31,0,30,220.32228499999997,,,,,,,,,,,,,,,,,,,,,,,220.30677049999997,220.32228499999997,220.80629769999996,,,,,,,,,,,,,,220.8397192,,,,,,,,,,,,,220.8363822,220.8397192,220.8397192,220.8397192,223.82283099999995,None,,,223.82301799999993,224.3063879,j,223.83918699999992,223.83918699999992,0.45071789999997236,None,,,,,,,,,,,,,00048,001,2026-01-24_15h11.48.563,MST_task,2024.2.0,59.88153038028976,2026-01-24 15h11.55.342861 +0530,
,Scenes\164a.jpg,31,0,32,,,,,,,None,,,j,0.4356565000000501,None,,,,32,0,31,224.32238959999995,,,,,,,,,,,,,,,,,,,,,,,224.3068384999999,224.32238959999995,224.80577599999992,,,,,,,,,,,,,,224.82984629999999,,,,,,,,,,,,,224.82711629999994,224.82984629999999,224.82984629999999,224.82984629999999,227.82237799999996,None,,,227.8225210999999,228.2897054,j,227.8388228,227.8388228,0.4356565000000501,None,,,,,,,,,,,,,00048,001,2026-01-24_15h11.48.563,MST_task,2024.2.0,59.88153038028976,2026-01-24 15h11.55.342861 +0530,
,Scenes\078a.jpg,32,0,33,,,,,,,None,,,j,0.5477416000001085,None,,,,33,0,32,228.30593149999993,,,,,,,,,,,,,,,,,,,,,,,228.29004429999998,228.30593149999993,228.7895451999999,,,,,,,,,,,,,,228.8223529999999,,,,,,,,,,,,,228.8195409,228.8223529999999,228.8223529999999,228.8223529999999,231.8062756999999,None,,,231.80649529999994,232.37286059999997,j,231.82239789999994,231.82239789999994,0.5477416000001085,None,,,,,,,,,,,,,00048,001,2026-01-24_15h11.48.563,MST_task,2024.2.0,59.88153038028976,2026-01-24 15h11.55.342861 +0530,
,Scenes\169a.jpg,33,0,34,,,,,,,None,,,j,0.3682805000000826,None,,,,34,0,33,232.38911639999992,,,,,,,,,,,,,,,,,,,,,,,232.3733201,232.38911639999992,232.8727209,,,,,,,,,,,,,,232.89977879999992,,,,,,,,,,,,,232.8968711,232.89977879999992,232.89977879999992,232.89977879999992,235.88963219999994,None,,,235.88981339999998,236.2896824999999,j,235.90573789999996,235.90573789999996,0.3682805000000826,None,,,,,,,,,,,,,00048,001,2026-01-24_15h11.48.563,MST_task,2024.2.0,59.88153038028976,2026-01-24 15h11.55.342861 +0530,
,Scenes\009a.jpg,34,0,35,,,,,,,j,2.223542099999918,0.1443255000000363,None,,,,,,35,0,34,236.3057096,,,,,,,,,,,,,,,,,,,,,,,236.29001959999994,236.3057096,236.7892559999999,,,,,,,,,,,,,,236.81831149999994,,,,,,,,,,,,,236.81525609999994,236.81831149999994,236.81831149999994,236.81831149999994,239.8062946,j,2.223542099999918,0.1443255000000363,239.80649559999995,239.80656019999992,None,,,,,,,,,,,,,,,,,00048,001,2026-01-24_15h11.48.563,MST_task,2024.2.0,59.88153038028976,2026-01-24 15h11.55.342861 +0530,
,Objects\177a.jpg,35,0,36,,,,,,,j,1.1679555000000619,0.16811039999993227,None,,,,,,36,0,35,239.82244509999998,,,,,,,,,,,,,,,,,,,,,,,239.80684869999993,239.82244509999998,240.30632329999992,,,,,,,,,,,,,,240.3298962,,,,,,,,,,,,,240.32633099999998,240.3298962,240.3298962,240.3298962,243.3229632,j,1.1679555000000619,0.16811039999993227,243.32317139999998,243.32323539999993,None,,,,,,,,,,,,,,,,,00048,001,2026-01-24_15h11.48.563,MST_task,2024.2.0,59.88153038028976,2026-01-24 15h11.55.342861 +0530,
,Objects\168a.jpg,36,0,37,,,,,,,f,2.4195720000000165,0.1681085999999823,None,,,,,,37,0,36,243.33907569999997,,,,,,,,,,,,,,,,,,,,,,,243.32367209999995,243.33907569999997,243.8226752999999,,,,,,,,,,,,,,243.84643689999996,,,,,,,,,,,,,243.8441795,243.84643689999996,243.84643689999996,243.84643689999996,246.83957209999994,f,2.4195720000000165,0.1681085999999823,246.8397837,246.83984899999996,None,,,,,,,,,,,,,,,,,00048,001,2026-01-24_15h11.48.563,MST_task,2024.2.0,59.88153038028976,2026-01-24 15h11.55.342861 +0530,
,Objects\072a.jpg,37,0,38,,,,,,,f,1.2696064000000433,0.26470129999995606,None,,,,,,38,0,37,246.8559191999999,,,,,,,,,,,,,,,,,,,,,,,246.84021929999994,246.8559191999999,247.3392377,,,,,,,,,,,,,,247.35606539999992,,,,,,,,,,,,,247.35336689999997,247.35606539999992,247.35606539999992,247.35606539999992,250.34029779999992,f,1.2696064000000433,0.26470129999995606,250.34046679999994,250.34050129999991,None,,,,,250.35597229999996,250.35597229999996,250.35597229999996,,,,,,,,,,00048,001,2026-01-24_15h11.48.563,MST_task,2024.2.0,59.88153038028976,2026-01-24 15h11.55.342861 +0530,
,Objects\086a.jpg,38,0,39,,,,,,,None,,,j,0.5937271000000237,None,,,,39,0,38,250.35597229999996,,,,,,,,,,,,,,,,,,,,,,,250.3406726999999,250.35597229999996,250.83947379999995,,,,,,,,,,,,,,250.86400989999993,,,,,,,,,,,,,250.8608802,250.86400989999993,250.86400989999993,250.86400989999993,253.85608989999992,None,,,253.85627409999995,254.47348249999993,j,253.87243339999998,253.87243339999998,0.5937271000000237,None,,,,,,,,,,,,,00048,001,2026-01-24_15h11.48.563,MST_task,2024.2.0,59.88153038028976,2026-01-24 15h11.55.342861 +0530,
,Objects\141a.jpg,39,0,40,,,,,,,j,2.622872099999995,0.19210320000001957,None,,,,,,40,0,39,254.48939209999992,,,,,,,,,,,,,,,,,,,,,,,254.4739455,254.48939209999992,254.97285599999998,,,,,,,,,,,,,,254.99516619999997,,,,,,,,,,,,,254.99255489999996,254.99516619999997,254.99516619999997,254.99516619999997,257.9894539999999,j,2.622872099999995,0.19210320000001957,257.98966039999993,257.9897271,None,,,,,,,,,,,,,,,,,00048,001,2026-01-24_15h11.48.563,MST_task,2024.2.0,59.88153038028976,2026-01-24 15h11.55.342861 +0530,
,Objects\052a.jpg,40,0,41,,,,,,,None,,,j,0.2720207999999502,None,,,,41,0,40,258.00576549999994,,,,,,,,,,,,,,,,,,,,,,,257.9899707999999,258.00576549999994,258.48983499999997,,,,,,,,,,,,,,258.5131116,,,,,,,,,,,,,258.5103653,258.5131116,258.5131116,258.5131116,261.5064047999999,None,,,261.5065896,261.8063827,j,261.5224366,261.5224366,0.2720207999999502,None,,,,,,,,,,,,,00048,001,2026-01-24_15h11.48.563,MST_task,2024.2.0,59.88153038028976,2026-01-24 15h11.55.342861 +0530,
,Objects\021a.jpg,41,0,42,,,,,,,f,2.185388699999976,0.16036510000003545,None,,,,,,42,0,41,261.8224193,,,,,,,,,,,,,,,,,,,,,,,261.80672649999997,261.8224193,262.3057238,,,,,,,,,,,,,,262.3284577999999,,,,,,,,,,,,,262.3256695,262.3284577999999,262.3284577999999,262.3284577999999,265.32285249999995,f,2.185388699999976,0.16036510000003545,265.3230588,265.3231235999999,None,,,,,,,,,,,,,,,,,00048,001,2026-01-24_15h11.48.563,MST_task,2024.2.0,59.88153038028976,2026-01-24 15h11.55.342861 +0530,
,Scenes\031a.jpg,42,0,43,,,,,,,None,,,j,0.514261900000065,None,,,,43,0,42,265.3392308,,,,,,,,,,,,,,,,,,,,,,,265.3234183999999,265.3392308,265.82288759999994,,,,,,,,,,,,,,265.8597990999999,,,,,,,,,,,,,265.85666889999993,265.8597990999999,265.8597990999999,265.8597990999999,268.8396666,None,,,268.83986059999995,269.3728438999999,j,268.85575599999993,268.85575599999993,0.514261900000065,None,,,,,,,,,,,,,00048,001,2026-01-24_15h11.48.563,MST_task,2024.2.0,59.88153038028976,2026-01-24 15h11.55.342861 +0530,
,Scenes\082a.jpg,43,0,44,,,,,,,None,,,j,0.3685673999999608,None,,,,44,0,43,269.3891047999999,,,,,,,,,,,,,,,,,,,,,,,269.37330099999997,269.3891047999999,269.87282589999995,,,,,,,,,,,,,,269.9089348,,,,,,,,,,,,,269.9059135,269.9089348,269.9089348,269.9089348,272.8896086,None,,,272.8897922,273.2900734,j,272.90593509999997,272.90593509999997,0.3685673999999608,None,,,,,,,,,,,,,00048,001,2026-01-24_15h11.48.563,MST_task,2024.2.0,59.88153038028976,2026-01-24 15h11.55.342861 +0530,
,Scenes\006a.jpg,44,0,45,,,,,,,None,,,j,1.13945590000003,None,,,,45,0,44,273.30571869999994,,,,,,,,,,,,,,,,,,,,,,,273.29052509999997,273.30571869999994,273.78942299999994,,,,,,,,,,,,,,273.8192720999999,,,,,,,,,,,,,273.8162446,273.8192720999999,273.8192720999999,273.8192720999999,276.80631429999994,None,,,276.80649959999994,277.9724629,j,276.8223254999999,276.8223254999999,1.13945590000003,None,,,,,,,,,,,,,00048,001,2026-01-24_15h11.48.563,MST_task,2024.2.0,59.88153038028976,2026-01-24 15h11.55.342861 +0530,
,Scenes\118a.jpg,45,0,46,,,,,,,j,2.2266270999999733,0.41644270000006145,None,,,,,,46,0,45,277.9890908,,,,,,,,,,,,,,,,,,,,,,,277.9725923,277.9890908,278.47263539999994,,,,,,,,,,,,,,278.49524009999993,,,,,,,,,,,,,278.49275279999995,278.49524009999993,278.49524009999993,278.49524009999993,281.47274659999994,j,2.2266270999999733,0.41644270000006145,281.4729383,281.4729997999999,None,,,,,,,,,,,,,,,,,00048,001,2026-01-24_15h11.48.563,MST_task,2024.2.0,59.88153038028976,2026-01-24 15h11.55.342861 +0530,
,Scenes\076a.jpg,46,0,47,,,,,,,j,0.6451399000000038,0.3041405000000168,None,,,,,,47,0,46,281.4889862,,,,,,,,,,,,,,,,,,,,,,,281.47334639999997,281.4889862,281.972585,,,,,,,,,,,,,,282.0048193,,,,,,,,,,,,,282.00184379999996,282.0048193,282.0048193,282.0048193,284.9896586,j,0.6451399000000038,0.3041405000000168,284.9898599999999,284.9899267999999,None,,,,,,,,,,,,,,,,,00048,001,2026-01-24_15h11.48.563,MST_task,2024.2.0,59.88153038028976,2026-01-24 15h11.55.342861 +0530,
,Scenes\186a.jpg,47,0,48,,,,,,,j,1.1946250999999393,0.16021260000002258,None,,,,,,48,0,47,285.0060694,,,,,,,,,,,,,,,,,,,,,,,284.99029929999995,285.0060694,285.4896179,,,,,,,,,,,,,,285.5191129,,,,,,,,,,,,,285.5163352999999,285.5191129,285.5191129,285.5191129,288.5061727,j,1.1946250999999393,0.16021260000002258,288.5063781,288.50644239999997,None,,,,,,,,,,,,,,,,,00048,001,2026-01-24_15h11.48.563,MST_task,2024.2.0,59.88153038028976,2026-01-24 15h11.55.342861 +0530,
,Scenes\192a.jpg,48,0,49,,,,,,,j,1.1164651999999933,0.23205609999990884,None,,,,,,49,0,48,288.52222959999995,,,,,,,,,,,,,,,,,,,,,,,288.50675,288.52222959999995,289.0066296,,,,,,,,,,,,,,289.0293203,,,,,,,,,,,,,289.02701419999994,289.0293203,289.0293203,289.0293203,292.0227941999999,j,1.1164651999999933,0.23205609999990884,292.0229890999999,292.0230537,None,,,,,,,,,,,,,,,,,00048,001,2026-01-24_15h11.48.563,MST_task,2024.2.0,59.88153038028976,2026-01-24 15h11.55.342861 +0530,
,Objects\067a.jpg,49,0,50,,,,,,,None,,,j,1.1743068999999196,None,,,,50,0,49,292.03888159999997,,,,,,,,,,,,,,,,,,,,,,,292.0233356,292.03888159999997,292.5224538,,,,,,,,,,,,,,292.5458457,,,,,,,,,,,,,292.54321329999993,292.5458457,292.5458457,292.5458457,295.5394778,None,,,295.5396612999999,296.7397459,j,295.5557577999999,295.5557577999999,1.1743068999999196,None,,,,,,,,,,,,,00048,001,2026-01-24_15h11.48.563,MST_task,2024.2.0,59.88153038028976,2026-01-24 15h11.55.342861 +0530,
,Objects\088a.jpg,50,0,51,,,,,,,f,2.714212800000041,0.18406259999994745,None,,,,,,51,0,50,296.75579389999996,,,,,,,,,,,,,,,,,,,,,,,296.74008719999995,296.75579389999996,297.23918189999995,,,,,,,,,,,,,,297.2558886999999,,,,,,,,,,,,,297.25282259999994,297.2558886999999,297.2558886999999,297.2558886999999,300.24021559999994,f,2.714212800000041,0.18406259999994745,300.2404204999999,300.24047799999994,None,,,,,300.25574929999993,300.25574929999993,300.25574929999993,,,,,,,,,,00048,001,2026-01-24_15h11.48.563,MST_task,2024.2.0,59.88153038028976,2026-01-24 15h11.55.342861 +0530,
,Objects\066a.jpg,51,0,52,,,,,,,j,1.6561877999999979,0.20766909999997551,None,,,,,,52,0,51,300.25574929999993,,,,,,,,,,,,,,,,,,,,,,,300.2408422,300.25574929999993,300.73961199999997,,,,,,,,,,,,,,300.76972479999995,,,,,,,,,,,,,300.7670824999999,300.76972479999995,300.76972479999995,300.76972479999995,303.7561674,j,1.6561877999999979,0.20766909999997551,303.7563702,303.75643489999993,None,,,,,,,,,,,,,,,,,00048,001,2026-01-24_15h11.48.563,MST_task,2024.2.0,59.88153038028976,2026-01-24 15h11.55.342861 +0530,
,Objects\179a.jpg,52,0,53,,,,,,,f,1.2697733999999627,0.14378399999998237,None,,,,,,53,0,52,303.77233909999995,,,,,,,,,,,,,,,,,,,,,,,303.75672439999994,303.77233909999995,304.25618829999996,,,,,,,,,,,,,,304.27634979999993,,,,,,,,,,,,,304.2742849,304.27634979999993,304.27634979999993,304.27634979999993,307.2567717999999,f,1.2697733999999627,0.14378399999998237,307.2569603999999,307.2570207,None,,,,,,,,,,,,,,,,,00048,001,2026-01-24_15h11.48.563,MST_task,2024.2.0,59.88153038028976,2026-01-24 15h11.55.342861 +0530,
,Objects\121a.jpg,53,0,54,,,,,,,f,1.9255689999999959,0.17573249999998097,None,,,,,,54,0,53,307.2726389999999,,,,,,,,,,,,,,,,,,,,,,,307.2573864,307.2726389999999,307.7557526999999,,,,,,,,,,,,,,307.77244989999997,,,,,,,,,,,,,307.76707049999993,307.77244989999997,307.77244989999997,307.77244989999997,310.7570254,f,1.9255689999999959,0.17573249999998097,310.75725149999994,310.75730899999996,None,,,,,310.7723444999999,310.7723444999999,310.7723444999999,,,,,,,,,,00048,001,2026-01-24_15h11.48.563,MST_task,2024.2.0,59.88153038028976,2026-01-24 15h11.55.342861 +0530,
,Objects\038a.jpg,54,0,55,,,,,,,f,2.747032099999956,0.16818220000004658,None,,,,,,55,0,54,310.7723444999999,,,,,,,,,,,,,,,,,,,,,,,310.757607,310.7723444999999,311.25635239999997,,,,,,,,,,,,,,311.2785268,,,,,,,,,,,,,311.2759327,311.2785268,311.2785268,311.2785268,314.27271369999994,f,2.747032099999956,0.16818220000004658,314.2729304999999,314.2729486999999,None,,,,,,,,,,,,,,,,,00048,001,2026-01-24_15h11.48.563,MST_task,2024.2.0,59.88153038028976,2026-01-24 15h11.55.342861 +0530,
,Objects\094a.jpg,55,0,56,,,,,,,f,1.4910209999999324,0.20792610000000877,None,,,,,,56,0,55,314.2889776999999,,,,,,,,,,,,,,,,,,,,,,,314.2730717999999,314.2889776999999,314.7728433,,,,,,,,,,,,,,314.7990788999999,,,,,,,,,,,,,314.7956244999999,314.7990788999999,314.7990788999999,314.7990788999999,317.7895735999999,f,1.4910209999999324,0.20792610000000877,317.789761,317.7898005999999,None,,,,,,,,,,,,,,,,,00048,001,2026-01-24_15h11.48.563,MST_task,2024.2.0,59.88153038028976,2026-01-24 15h11.55.342861 +0530,
,Scenes\072a.jpg,56,0,57,,,,,,,None,,,f,0.2395394000000124,None,,,,57,0,56,317.80581899999993,,,,,,,,,,,,,,,,,,,,,,,317.7900171,317.80581899999993,318.2897704999999,,,,,,,,,,,,,,318.3261321,,,,,,,,,,,,,318.32337229999996,318.3261321,318.3261321,318.3261321,321.30624249999994,None,,,321.3064370999999,321.57299179999995,f,321.3223132999999,321.3223132999999,0.2395394000000124,None,,,,,,,,,,,,,00048,001,2026-01-24_15h11.48.563,MST_task,2024.2.0,59.88153038028976,2026-01-24 15h11.55.342861 +0530,
,Scenes\162a.jpg,57,0,58,,,,,,,None,,,j,0.4319984999999633,None,,,,58,0,57,321.58911449999994,,,,,,,,,,,,,,,,,,,,,,,321.5734645,321.58911449999994,322.07340409999995,,,,,,,,,,,,,,322.1050563,,,,,,,,,,,,,322.1021334999999,322.1050563,322.1050563,322.1050563,325.08979339999996,None,,,325.0899727,325.5395407,j,325.1058313,325.1058313,0.4319984999999633,None,,,,,,,,,,,,,00048,001,2026-01-24_15h11.48.563,MST_task,2024.2.0,59.88153038028976,2026-01-24 15h11.55.342861 +0530,
,Scenes\062a.jpg,58,0,59,,,,,,,None,,,j,0.5456126999999924,None,,,,59,0,58,325.5559715999999,,,,,,,,,,,,,,,,,,,,,,,325.5399179,325.5559715999999,326.0395701,,,,,,,,,,,,,,326.0767475,,,,,,,,,,,,,326.0735492,326.0767475,326.0767475,326.0767475,329.0562907,None,,,329.0564756,329.62289839999994,j,329.07238829999994,329.07238829999994,0.5456126999999924,None,,,,,,,,,,,,,00048,001,2026-01-24_15h11.48.563,MST_task,2024.2.0,59.88153038028976,2026-01-24 15h11.55.342861 +0530,
,Scenes\184a.jpg,59,0,60,,,,,,,None,,,j,0.6143531999999823,None,,,,60,0,59,329.6392009,,,,,,,,,,,,,,,,,,,,,,,329.6233451999999,329.6392009,330.1229060999999,,,,,,,,,,,,,,330.1507842,,,,,,,,,,,,,330.1479842,330.1507842,330.1507842,330.1507842,333.1396446,None,,,333.1398360999999,333.7729681999999,j,333.15575739999997,333.15575739999997,0.6143531999999823,None,,,,,,,,,,,,,00048,001,2026-01-24_15h11.48.563,MST_task,2024.2.0,59.88153038028976,2026-01-24 15h11.55.342861 +0530,
,Scenes\150a.jpg,60,0,61,,,,,,,None,,,j,0.4080337000000327,None,,,,61,0,60,333.7889732,,,,,,,,,,,,,,,,,,,,,,,333.77331589999994,333.7889732,334.2722334,,,,,,,,,,,,,,334.2992238999999,,,,,,,,,,,,,334.29652709999993,334.2992238999999,334.2992238999999,334.2992238999999,337.28971179999996,None,,,337.2898345,337.72279089999995,j,337.305744,337.305744,0.4080337000000327,None,,,,,,,,,,,,,00048,001,2026-01-24_15h11.48.563,MST_task,2024.2.0,59.88153038028976,2026-01-24 15h11.55.342861 +0530,
,Scenes\010a.jpg,61,0,62,,,,,,,None,,,j,0.42613919999996597,None,,,,62,0,61,337.7390947,,,,,,,,,,,,,,,,,,,,,,,337.72324259999994,337.7390947,338.22268699999995,,,,,,,,,,,,,,338.2542980999999,,,,,,,,,,,,,338.2512585999999,338.2542980999999,338.2542980999999,338.2542980999999,341.23955049999995,None,,,341.239731,341.6896736,j,341.25585639999997,341.25585639999997,0.42613919999996597,None,,,,,,,,,,,,,00048,001,2026-01-24_15h11.48.563,MST_task,2024.2.0,59.88153038028976,2026-01-24 15h11.55.342861 +0530,
,Scenes\104a.jpg,62,0,63,,,,,,,None,,,j,0.3714368999999351,None,,,,63,0,62,341.7061917,,,,,,,,,,,,,,,,,,,,,,,341.69060509999997,341.7061917,342.1901471,,,,,,,,,,,,,,342.2279863,,,,,,,,,,,,,342.22495419999996,342.2279863,342.2279863,342.2279863,345.2063582999999,None,,,345.2065374,345.60639749999996,j,345.2224476,345.2224476,0.3714368999999351,None,,,,,,,,,,,,,00048,001,2026-01-24_15h11.48.563,MST_task,2024.2.0,59.88153038028976,2026-01-24 15h11.55.342861 +0530,
,Objects\101a.jpg,63,0,64,,,,,,,None,,,f,1.7428916999999728,None,,,,64,0,63,345.62228029999994,,,,,,,,,,,,,,,,,,,,,,,345.60673299999996,345.62228029999994,346.10623599999997,,,,,,,,,,,,,,346.12794729999996,,,,,,,,,,,,,346.1253165999999,346.12794729999996,346.12794729999996,346.12794729999996,349.1227808,None,,,349.12288079999996,350.8897549999999,f,349.1389882,349.1389882,1.7428916999999728,None,,,,,,,,,,,,,00048,001,2026-01-24_15h11.48.563,MST_task,2024.2.0,59.88153038028976,2026-01-24 15h11.55.342861 +0530,
,Objects\055a.jpg,64,0,65,,,,,,,None,,,f,0.38009729999998854,None,,,,65,0,64,350.90575519999993,,,,,,,,,,,,,,,,,,,,,,,350.8900864,350.90575519999993,351.3891797,,,,,,,,,,,,,,351.40588349999996,,,,,,,,,,,,,351.40354019999995,351.40588349999996,351.40588349999996,351.40588349999996,354.39037989999997,None,,,354.3905643999999,354.7896581,f,354.4059156999999,354.4059156999999,0.38009729999998854,None,354.4059156999999,354.4059156999999,354.4059156999999,,,,,,,,,,00048,001,2026-01-24_15h11.48.563,MST_task,2024.2.0,59.88153038028976,2026-01-24 15h11.55.342861 +0530,
,Objects\026a.jpg,65,0,66,,,,,,,None,,,f,1.3357254000000012,None,,,,66,0,65,354.8057189,,,,,,,,,,,,,,,,,,,,,,,354.789996,354.8057189,355.2893312,,,,,,,,,,,,,,355.3077423,,,,,,,,,,,,,355.3056295,355.3077423,355.3077423,355.3077423,358.2899092,None,,,358.29016219999994,359.65632229999994,f,358.30605389999994,358.30605389999994,1.3357254000000012,None,,,,,,,,,,,,,00048,001,2026-01-24_15h11.48.563,MST_task,2024.2.0,59.88153038028976,2026-01-24 15h11.55.342861 +0530,
,Objects\020a.jpg,66,0,67,,,,,,,None,,,f,0.41269339999996646,None,,,,67,0,66,359.6724574,,,,,,,,,,,,,,,,,,,,,,,359.65678479999997,359.6724574,360.1562067,,,,,,,,,,,,,,360.1780918999999,,,,,,,,,,,,,360.1756041,360.1780918999999,360.1780918999999,360.1780918999999,363.1727363,None,,,363.17291579999994,363.6063411,f,363.189116,363.189116,0.41269339999996646,None,,,,,,,,,,,,,00048,001,2026-01-24_15h11.48.563,MST_task,2024.2.0,59.88153038028976,2026-01-24 15h11.55.342861 +0530,
,Objects\030a.jpg,67,0,68,,,,,,,None,,,f,0.3986409999999978,None,,,,68,0,67,363.6222983,,,,,,,,,,,,,,,,,,,,,,,363.60676479999995,363.6222983,364.10626619999994,,,,,,,,,,,,,,364.13010739999993,,,,,,,,,,,,,364.12718599999994,364.13010739999993,364.13010739999993,364.13010739999993,367.1228464999999,None,,,367.1230269,367.5398497,f,367.1392211,367.1392211,0.3986409999999978,None,,,,,,,,,,,,,00048,001,2026-01-24_15h11.48.563,MST_task,2024.2.0,59.88153038028976,2026-01-24 15h11.55.342861 +0530,
,Objects\076a.jpg,68,0,69,,,,,,,j,1.9229789999999412,0.14396290000001954,None,,,,,,69,0,68,367.55584669999996,,,,,,,,,,,,,,,,,,,,,,,367.54031539999994,367.55584669999996,368.0395675,,,,,,,,,,,,,,368.0630698,,,,,,,,,,,,,368.06093409999994,368.0630698,368.0630698,368.0630698,371.0561945999999,j,1.9229789999999412,0.14396290000001954,371.05639629999996,371.0564611,None,,,,,,,,,,,,,,,,,00048,001,2026-01-24_15h11.48.563,MST_task,2024.2.0,59.88153038028976,2026-01-24 15h11.55.342861 +0530,
,Objects\063a.jpg,69,0,70,,,,,,,None,,,f,0.316444600000068,None,,,,70,0,69,371.0724485999999,,,,,,,,,,,,,,,,,,,,,,,371.056836,371.0724485999999,371.55619609999997,,,,,,,,,,,,,,371.5794634,,,,,,,,,,,,,371.5767470999999,371.5794634,371.5794634,371.5794634,374.5723175999999,None,,,374.57240319999994,374.9224567,f,374.5898115,374.5898115,0.316444600000068,None,,,,,,,,,,,,,00048,001,2026-01-24_15h11.48.563,MST_task,2024.2.0,59.88153038028976,2026-01-24 15h11.55.342861 +0530,
,Scenes\166a.jpg,70,0,71,,,,,,,None,,,j,1.0990891000000147,None,,,,71,0,70,374.93898649999994,,,,,,,,,,,,,,,,,,,,,,,374.9226291,374.93898649999994,375.422868,,,,,,,,,,,,,,,,,,,,,,,,,,,375.45554029999994,375.45926369999995,375.45926369999995,375.45926369999995,378.42276889999994,None,,,378.42285329999993,379.53962979999994,j,378.43884919999994,378.43884919999994,1.0990891000000147,None,,,,,,,,,,,,,00048,001,2026-01-24_15h11.48.563,MST_task,2024.2.0,59.88153038028976,2026-01-24 15h11.55.342861 +0530,
,Scenes\171a.jpg,71,0,72,,,,,,,None,,,f,0.777701499999921,None,,,,72,0,71,379.5556974,,,,,,,,,,,,,,,,,,,,,,,379.5399824,379.5556974,380.0394314,,,,,,,,,,,,,,380.07000859999994,,,,,,,,,,,,,380.06696669999997,380.07000859999994,380.07000859999994,380.07000859999994,383.0562361,None,,,383.056335,383.85634319999997,f,383.0723284999999,383.0723284999999,0.777701499999921,None,,,,,,,,,,,,,00048,001,2026-01-24_15h11.48.563,MST_task,2024.2.0,59.88153038028976,2026-01-24 15h11.55.342861 +0530,
,Scenes\084a.jpg,72,0,73,,,,,,,None,,,j,0.3724953999999343,None,,,,73,0,72,383.87221,,,,,,,,,,,,,,,,,,,,,,,383.8566776,383.87221,384.3558372,,,,,,,,,,,,,,384.3864906,,,,,,,,,,,,,384.3836937,384.3864906,384.3864906,384.3864906,387.3728046,None,,,387.37298499999997,387.77290729999993,j,387.3892449,387.3892449,0.3724953999999343,None,,,,,,,,,,,,,00048,001,2026-01-24_15h11.48.563,MST_task,2024.2.0,59.88153038028976,2026-01-24 15h11.55.342861 +0530,
,Scenes\158a.jpg,73,0,74,,,,,,,None,,,j,0.3600161000000526,None,,,,74,0,73,387.7890772999999,,,,,,,,,,,,,,,,,,,,,,,387.77336249999996,387.7890772999999,388.2724334999999,,,,,,,,,,,,,,388.3041202999999,,,,,,,,,,,,,388.3012764,388.3041202999999,388.3041202999999,388.3041202999999,391.28968799999996,None,,,391.28989939999997,391.6728409,j,391.3057071999999,391.3057071999999,0.3600161000000526,None,,,,,,,,,,,,,00048,001,2026-01-24_15h11.48.563,MST_task,2024.2.0,59.88153038028976,2026-01-24 15h11.55.342861 +0530,
,Scenes\061a.jpg,74,0,75,,,,,,,j,2.2715733999999657,0.12016930000004322,None,,,,,,75,0,74,391.6890881999999,,,,,,,,,,,,,,,,,,,,,,,391.67317649999995,391.6890881999999,392.1725116,,,,,,,,,,,,,,392.1941862,,,,,,,,,,,,,392.19127719999994,392.1941862,392.1941862,392.1941862,395.1895354999999,j,2.2715733999999657,0.12016930000004322,395.18970679999995,395.18976169999996,None,,,,,,,,,,,,,,,,,00048,001,2026-01-24_15h11.48.563,MST_task,2024.2.0,59.88153038028976,2026-01-24 15h11.55.342861 +0530,
,Scenes\037a.jpg,75,0,76,,,,,,,j,0.7131661999999324,0.2400539000000208,None,,,,,,76,0,75,395.20573939999997,,,,,,,,,,,,,,,,,,,,,,,395.1900637,395.20573939999997,395.6894572,,,,,,,,,,,,,,395.7124983,,,,,,,,,,,,,395.7096742,395.7124983,395.7124983,395.7124983,398.7060745,j,0.7131661999999324,0.2400539000000208,398.7062618,398.7063241999999,None,,,,,,,,,,,,,,,,,00048,001,2026-01-24_15h11.48.563,MST_task,2024.2.0,59.88153038028976,2026-01-24 15h11.55.342861 +0530,
,Scenes\059a.jpg,76,0,77,,,,,,,j,2.7982805000000326,None,None,,,,,,77,0,76,398.7221821999999,,,,,,,,,,,,,,,,,,,,,,,398.7066347,398.7221821999999,399.2062216999999,,,,,,,,,,,,,,399.2432999,,,,,,,,,,,,,399.239954,399.2432999,399.2432999,399.2432999,402.22290999999996,j,2.7982805000000326,None,402.22309989999997,402.2231624,None,,,,,,,,,,,,,,,,,00048,001,2026-01-24_15h11.48.563,MST_task,2024.2.0,59.88153038028976,2026-01-24 15h11.55.342861 +0530,
,Objects\077a.jpg,77,0,78,,,,,,,None,,,j,0.6458996999999727,None,,,,78,0,77,402.2390697999999,,,,,,,,,,,,,,,,,,,,,,,402.22354499999994,402.2390697999999,402.72254869999995,,,,,,,,,,,,,,402.7552056999999,,,,,,,,,,,,,402.7525213,402.7552056999999,402.7552056999999,402.7552056999999,405.73983939999994,None,,,405.7400174999999,406.4066504,j,405.7560664,405.7560664,0.6458996999999727,None,,,,,,,,,,,,,00048,001,2026-01-24_15h11.48.563,MST_task,2024.2.0,59.88153038028976,2026-01-24 15h11.55.342861 +0530,
,Objects\184a.jpg,78,0,79,,,,,,,None,,,j,1.1101617999999007,None,,,,79,0,78,406.4223665999999,,,,,,,,,,,,,,,,,,,,,,,406.4071031,406.4223665999999,406.9062011,,,,,,,,,,,,,,406.9262746999999,,,,,,,,,,,,,406.92334329999994,406.9262746999999,406.9262746999999,406.9262746999999,409.92291049999994,None,,,409.9230861,411.0560241999999,j,409.93947589999993,409.93947589999993,1.1101617999999007,None,,,,,,,,,,,,,00048,001,2026-01-24_15h11.48.563,MST_task,2024.2.0,59.88153038028976,2026-01-24 15h11.55.342861 +0530,
,Objects\024a.jpg,79,0,80,,,,,,,None,,,f,0.38890680000008615,None,,,,80,0,79,411.0722622999999,,,,,,,,,,,,,,,,,,,,,,,411.0564144,411.0722622999999,411.55623649999995,,,,,,,,,,,,,,411.59933839999997,,,,,,,,,,,,,411.59627379999995,411.59933839999997,411.59933839999997,411.59933839999997,414.5732787999999,None,,,414.5734536,414.9899733,f,414.5891790999999,414.5891790999999,0.38890680000008615,None,,,,,,,,,,,,,00048,001,2026-01-24_15h11.48.563,MST_task,2024.2.0,59.88153038028976,2026-01-24 15h11.55.342861 +0530,
,Objects\108a.jpg,80,0,81,,,,,,,None,,,f,1.199744399999986,None,,,,81,0,80,415.00586009999995,,,,,,,,,,,,,,,,,,,,,,,414.9904207999999,415.00586009999995,415.48962159999996,,,,,,,,,,,,,,415.5121886999999,,,,,,,,,,,,,415.50938329999997,415.5121886999999,415.5121886999999,415.5121886999999,418.50568169999997,None,,,418.5057521,419.72285839999995,f,418.5220075,418.5220075,1.199744399999986,None,,,,,,,,,,,,,00048,001,2026-01-24_15h11.48.563,MST_task,2024.2.0,59.88153038028976,2026-01-24 15h11.55.342861 +0530,
,Objects\134a.jpg,81,0,82,,,,,,,None,,,f,0.47394600000006903,None,,,,82,0,81,419.7391452999999,,,,,,,,,,,,,,,,,,,,,,,419.72327369999994,419.7391452999999,420.22282369999994,,,,,,,,,,,,,,420.3085172,,,,,,,,,,,,,420.30561049999994,420.3085172,420.3085172,420.3085172,423.2395404,None,,,423.2397348999999,423.7391935999999,f,423.2557218999999,423.2557218999999,0.47394600000006903,None,,,,,,,,,,,,,00048,001,2026-01-24_15h11.48.563,MST_task,2024.2.0,59.88153038028976,2026-01-24 15h11.55.342861 +0530,
,Objects\007a.jpg,82,0,83,,,,,,,None,,,f,0.5858979000000772,None,,,,83,0,82,423.75580849999994,,,,,,,,,,,,,,,,,,,,,,,423.7395577,423.75580849999994,424.23944689999996,,,,,,,,,,,,,,424.2688460999999,,,,,,,,,,,,,424.2655643999999,424.2688460999999,424.2688460999999,424.2688460999999,427.2395244999999,None,,,427.23971629999994,427.85646039999995,f,427.255813,427.255813,0.5858979000000772,None,,,,,,,,,,,,,00048,001,2026-01-24_15h11.48.563,MST_task,2024.2.0,59.88153038028976,2026-01-24 15h11.55.342861 +0530,
,Objects\056a.jpg,83,0,84,,,,,,,None,,,j,0.05244020000009186,None,,,,84,0,83,427.87231429999997,,,,,,,,,,,,,,,,,,,,,,,427.8567918,427.87231429999997,428.3563251999999,,,,,,,,,,,,,,428.85135619999994,,,,,,,,,,,,,428.84920439999996,428.85135619999994,428.85135619999994,428.85135619999994,431.37263559999997,None,,,431.3728133999999,431.4565007,j,431.3893704999999,431.3893704999999,0.05244020000009186,None,,,,,,,,,,,,,00048,001,2026-01-24_15h11.48.563,MST_task,2024.2.0,59.88153038028976,2026-01-24 15h11.55.342861 +0530,
,Scenes\001a.jpg,84,0,85,,,,,,,f,2.7207262000000583,0.13586429999998018,None,,,,,,85,0,84,431.4722860999999,,,,,,,,,,,,,,,,,,,,,,,431.45683699999995,431.4722860999999,431.95624569999995,,,,,,,,,,,,,,432.01719519999995,,,,,,,,,,,,,432.0142254,432.01719519999995,432.01719519999995,432.01719519999995,434.9728121999999,f,2.7207262000000583,0.13586429999998018,434.9730305999999,434.9730969,None,,,,,,,,,,,,,,,,,00048,001,2026-01-24_15h11.48.563,MST_task,2024.2.0,59.88153038028976,2026-01-24 15h11.55.342861 +0530,
,Scenes\165a.jpg,85,0,86,,,,,,,None,,,j,0.8880355999999665,None,,,,86,0,85,434.9890792,,,,,,,,,,,,,,,,,,,,,,,434.9734664,434.9890792,435.4728139,,,,,,,,,,,,,,435.5159864,,,,,,,,,,,,,435.5130125999999,435.5159864,435.5159864,435.5159864,438.4896938999999,None,,,438.4898809,439.40626139999995,j,438.50582039999995,438.50582039999995,0.8880355999999665,None,,,,,,,,,,,,,00048,001,2026-01-24_15h11.48.563,MST_task,2024.2.0,59.88153038028976,2026-01-24 15h11.55.342861 +0530,
,Scenes\055a.jpg,86,0,87,,,,,,,j,2.38771040000006,0.0800921999999673,None,,,,,,87,0,86,439.4225283999999,,,,,,,,,,,,,,,,,,,,,,,439.40659099999993,439.4225283999999,439.9062149,,,,,,,,,,,,,,439.93409099999997,,,,,,,,,,,,,439.93174369999997,439.93409099999997,439.93409099999997,439.93409099999997,442.92296869999996,j,2.38771040000006,0.0800921999999673,442.9231471999999,442.923181,None,,,,,,,,,,,,,,,,,00048,001,2026-01-24_15h11.48.563,MST_task,2024.2.0,59.88153038028976,2026-01-24 15h11.55.342861 +0530,
,Scenes\126a.jpg,87,0,88,,,,,,,None,,,j,0.8661167999999861,None,,,,88,0,87,442.9390237,,,,,,,,,,,,,,,,,,,,,,,442.92333899999994,442.9390237,443.4228859,,,,,,,,,,,,,,443.45748849999995,,,,,,,,,,,,,443.45465909999996,443.45748849999995,443.45748849999995,443.45748849999995,446.4395586999999,None,,,446.4397556,447.32308809999995,j,446.455875,446.455875,0.8661167999999861,None,,,,,,,,,,,,,00048,001,2026-01-24_15h11.48.563,MST_task,2024.2.0,59.88153038028976,2026-01-24 15h11.55.342861 +0530,
,Scenes\115a.jpg,88,0,89,,,,,,,None,,,j,0.8580753999999615,None,,,,89,0,88,447.3390823,,,,,,,,,,,,,,,,,,,,,,,447.3235423,447.3390823,447.8230239999999,,,,,,,,,,,,,,447.8543341999999,,,,,,,,,,,,,447.85078609999994,447.8543341999999,447.8543341999999,447.8543341999999,450.8398612,None,,,450.8400418,451.7230311999999,j,450.8557030999999,450.8557030999999,0.8580753999999615,None,,,,,,,,,,,,,00048,001,2026-01-24_15h11.48.563,MST_task,2024.2.0,59.88153038028976,2026-01-24 15h11.55.342861 +0530,
,Scenes\093a.jpg,89,0,90,,,,,,,None,,,f,0.7058570000000373,None,,,,90,0,89,451.73912069999994,,,,,,,,,,,,,,,,,,,,,,,451.72336069999994,451.73912069999994,452.22286169999995,,,,,,,,,,,,,,452.96519739999997,,,,,,,,,,,,,452.96278829999994,452.96519739999997,452.96519739999997,452.96519739999997,455.2397006,None,,,455.2397851999999,455.9731799,f,455.2559556,455.2559556,0.7058570000000373,None,,,,,,,,,,,,,00048,001,2026-01-24_15h11.48.563,MST_task,2024.2.0,59.88153038028976,2026-01-24 15h11.55.342861 +0530,
,Scenes\011a.jpg,90,0,91,,,,,,,None,,,j,0.6798337999999831,None,,,,91,0,90,455.9892003,,,,,,,,,,,,,,,,,,,,,,,455.9733357,455.9892003,456.4726902,,,,,,,,,,,,,,456.50616319999995,,,,,,,,,,,,,456.50267929999995,456.50616319999995,456.50616319999995,456.50616319999995,459.48949459999994,None,,,459.4896768,460.18955329999994,j,459.5060333,459.5060333,0.6798337999999831,None,,,,,,,,,,,,,00048,001,2026-01-24_15h11.48.563,MST_task,2024.2.0,59.88153038028976,2026-01-24 15h11.55.342861 +0530,
,Objects\011a.jpg,91,0,92,,,,,,,None,,,f,0.4232254000000921,None,,,,92,0,91,460.2056061999999,,,,,,,,,,,,,,,,,,,,,,,460.1896909999999,460.2056061999999,460.6893372999999,,,,,,,,,,,,,,460.7164563,,,,,,,,,,,,,460.71309999999994,460.7164563,460.7164563,460.7164563,463.70614950000004,None,,,463.7063278999999,464.1564191,f,463.72253780000005,463.72253780000005,0.4232254000000921,None,,,,,,,,,,,,,00048,001,2026-01-24_15h11.48.563,MST_task,2024.2.0,59.88153038028976,2026-01-24 15h11.55.342861 +0530,
,Objects\107a.jpg,92,0,93,,,,,,,None,,,f,0.7850055999999768,None,,,,93,0,92,464.1725403999999,,,,,,,,,,,,,,,,,,,,,,,464.15675050000004,464.1725403999999,464.6563034999999,,,,,,,,,,,,,,464.6784155,,,,,,,,,,,,,464.67564659999994,464.6784155,464.6784155,464.6784155,467.67283040000007,None,,,467.6729272,468.48968919999993,f,467.68898119999994,467.68898119999994,0.7850055999999768,None,,,,,,,,,,,,,00048,001,2026-01-24_15h11.48.563,MST_task,2024.2.0,59.88153038028976,2026-01-24 15h11.55.342861 +0530,
,Objects\138a.jpg,93,0,94,,,,,,,None,,,j,0.6752407999999832,None,,,,94,0,93,468.50577139999996,,,,,,,,,,,,,,,,,,,,,,,468.4901431999999,468.50577139999996,468.9892061999999,,,,,,,,,,,,,,469.0143174,,,,,,,,,,,,,469.01151419999997,469.0143174,469.0143174,469.0143174,472.00629260000005,None,,,472.0064697999999,472.70669610000004,j,472.0225129999999,472.0225129999999,0.6752407999999832,None,,,,,,,,,,,,,00048,001,2026-01-24_15h11.48.563,MST_task,2024.2.0,59.88153038028976,2026-01-24 15h11.55.342861 +0530,
,Objects\146a.jpg,94,0,95,,,,,,,None,,,f,0.7627016000001277,None,,,,95,0,94,472.72235980000005,,,,,,,,,,,,,,,,,,,,,,,472.70714610000005,472.72235980000005,473.20642840000005,,,,,,,,,,,,,,473.22860420000006,,,,,,,,,,,,,473.2258127,473.22860420000006,473.22860420000006,473.22860420000006,476.2228725,None,,,476.2230508,477.00668440000004,f,476.2391448999999,476.2391448999999,0.7627016000001277,None,,,,,,,,,,,,,00048,001,2026-01-24_15h11.48.563,MST_task,2024.2.0,59.88153038028976,2026-01-24 15h11.55.342861 +0530,
,Objects\190a.jpg,95,0,96,,,,,,,None,,,f,0.6303892999999334,None,,,,96,0,95,477.02245659999994,,,,,,,,,,,,,,,,,,,,,,,477.0070171,477.02245659999994,477.50627459999987,,,,,,,,,,,,,,477.52906899999994,,,,,,,,,,,,,477.5256448,477.52906899999994,477.52906899999994,477.52906899999994,480.5228347,None,,,480.52301579999994,481.17270499999995,f,480.53901010000004,480.53901010000004,0.6303892999999334,None,,,,,,,,,,,,,00048,001,2026-01-24_15h11.48.563,MST_task,2024.2.0,59.88153038028976,2026-01-24 15h11.55.342861 +0530,
,Objects\080a.jpg,96,0,97,,,,,,,None,,,f,0.27264710000008563,None,,,,97,0,96,481.1889695,,,,,,,,,,,,,,,,,,,,,,,481.1729831,481.1889695,481.67274999999995,,,,,,,,,,,,,,481.6893496,,,,,,,,,,,,,481.68512669999996,481.6893496,481.6893496,481.6893496,484.6730482999999,None,,,484.67323799999986,484.97298709999995,f,484.68904670000006,484.68904670000006,0.27264710000008563,None,,,,,,,,,,,,,00048,001,2026-01-24_15h11.48.563,MST_task,2024.2.0,59.88153038028976,2026-01-24 15h11.55.342861 +0530,
,Objects\099a.jpg,97,0,98,,,,,,,None,,,j,0.45591840000020056,None,,,,98,0,97,484.98914939999986,,,,,,,,,,,,,,,,,,,,,,,484.9732603,484.98914939999986,485.4730090999999,,,,,,,,,,,,,,485.49726829999986,,,,,,,,,,,,,485.4945032999999,485.49726829999986,485.49726829999986,485.49726829999986,488.4895681999999,None,,,488.48974929999986,488.97298879999994,j,488.5058176,488.5058176,0.45591840000020056,None,,,,,,,,,,,,,00048,001,2026-01-24_15h11.48.563,MST_task,2024.2.0,59.88153038028976,2026-01-24 15h11.55.342861 +0530,
,Scenes\177a.jpg,98,0,99,,,,,,,None,,,j,1.0317462000000432,None,,,,99,0,98,488.98907080000004,,,,,,,,,,,,,,,,,,,,,,,488.9733183999999,488.98907080000004,489.4729989,,,,,,,,,,,,,,489.6548931,,,,,,,,,,,,,489.65152579999994,489.6548931,489.6548931,489.6548931,492.4895790999999,None,,,492.48975889999997,493.5392898,j,492.50585009999986,492.50585009999986,1.0317462000000432,None,,,,,,,,,,,,,00048,001,2026-01-24_15h11.48.563,MST_task,2024.2.0,59.88153038028976,2026-01-24 15h11.55.342861 +0530,
,Scenes\066a.jpg,99,0,100,,,,,,,None,,,j,0.49046550000002753,None,,,,100,0,99,493.55573549999986,,,,,,,,,,,,,,,,,,,,,,,493.53958539999985,493.55573549999986,494.0393299,,,,,,,,,,,,,,494.06218749999994,,,,,,,,,,,,,494.05895570000007,494.06218749999994,494.06218749999994,494.06218749999994,497.03949220000004,None,,,497.03968110000005,497.5564265999999,j,497.0557724,497.0557724,0.49046550000002753,None,,,,,,,,,,,,,00048,001,2026-01-24_15h11.48.563,MST_task,2024.2.0,59.88153038028976,2026-01-24 15h11.55.342861 +0530,
,Scenes\080a.jpg,100,0,101,,,,,,,None,,,j,0.3366659000000709,None,,,,101,0,100,497.57234629999994,,,,,,,,,,,,,,,,,,,,,,,497.55696420000004,497.57234629999994,498.05652799999984,,,,,,,,,,,,,,498.089371,,,,,,,,,,,,,498.0866589,498.089371,498.089371,498.089371,501.0732567,None,,,501.0734534999999,501.43952620000005,j,501.0891288,501.0891288,0.3366659000000709,None,,,,,,,,,,,,,00048,001,2026-01-24_15h11.48.563,MST_task,2024.2.0,59.88153038028976,2026-01-24 15h11.55.342861 +0530,
,Scenes\085a.jpg,101,0,102,,,,,,,None,,,j,0.6931985999999597,None,,,,102,0,101,501.45596409999985,,,,,,,,,,,,,,,,,,,,,,,501.43999770000005,501.45596409999985,501.93961190000005,,,,,,,,,,,,,,501.9812462,,,,,,,,,,,,,501.9780748999999,501.9812462,501.9812462,501.9812462,504.9561535,None,,,504.95629659999986,505.6730284,j,504.97268399999984,504.97268399999984,0.6931985999999597,None,,,,,,,,,,,,,00048,001,2026-01-24_15h11.48.563,MST_task,2024.2.0,59.88153038028976,2026-01-24 15h11.55.342861 +0530,
,Scenes\155a.jpg,102,0,103,,,,,,,None,,,j,0.7881806999998844,None,,,,103,0,102,505.68911149999985,,,,,,,,,,,,,,,,,,,,,,,505.67347300000006,505.68911149999985,506.17289529999994,,,,,,,,,,,,,,506.20616240000004,,,,,,,,,,,,,506.20328059999997,506.20616240000004,506.20616240000004,506.20616240000004,509.1895055,None,,,509.18966109999997,510.0060979,j,509.20547579999993,509.20547579999993,0.7881806999998844,None,,,,,,,,,,,,,00048,001,2026-01-24_15h11.48.563,MST_task,2024.2.0,59.88153038028976,2026-01-24 15h11.55.342861 +0530,
,Scenes\173a.jpg,103,0,104,,,,,,,None,,,j,0.43915870000000723,None,,,,104,0,103,510.02228939999986,,,,,,,,,,,,,,,,,,,,,,,510.00651100000005,510.02228939999986,510.50596199999995,,,,,,,,,,,,,,510.52717860000007,,,,,,,,,,,,,510.52335500000004,510.52717860000007,510.52717860000007,510.52717860000007,513.5064058999999,None,,,513.5065735999999,513.9729046,j,513.5226101999999,513.5226101999999,0.43915870000000723,None,,,,,,,,,,,,,00048,001,2026-01-24_15h11.48.563,MST_task,2024.2.0,59.88153038028976,2026-01-24 15h11.55.342861 +0530,
,Scenes\180a.jpg,104,0,105,,,,,,,None,,,j,0.4639792000000398,None,,,,105,0,104,513.9891943999999,,,,,,,,,,,,,,,,,,,,,,,513.9731202,513.9891943999999,514.4725498999999,,,,,,,,,,,,,,514.497672,,,,,,,,,,,,,514.4949835,514.497672,514.497672,514.497672,517.4895265,None,,,517.4897042999999,517.9730102999999,j,517.5057956,517.5057956,0.4639792000000398,None,,,,,,,,,,,,,00048,001,2026-01-24_15h11.48.563,MST_task,2024.2.0,59.88153038028976,2026-01-24 15h11.55.342861 +0530,
,Objects\180a.jpg,105,0,106,,,,,,,None,,,f,0.5525481999998192,None,,,,106,0,105,517.9891043999999,,,,,,,,,,,,,,,,,,,,,,,517.9733475999999,517.9891043999999,518.4728955999999,,,,,,,,,,,,,,518.4897613999999,,,,,,,,,,,,,518.4864906999999,518.4897613999999,518.4897613999999,518.4897613999999,521.4738990999999,None,,,521.4740929,522.0562668999999,f,521.4891279999999,521.4891279999999,0.5525481999998192,None,521.4891279999999,521.4891279999999,521.4891279999999,,,,,,,,,,00048,001,2026-01-24_15h11.48.563,MST_task,2024.2.0,59.88153038028976,2026-01-24 15h11.55.342861 +0530,
,Objects\173a.jpg,106,0,107,,,,,,,None,,,f,0.5084931999999753,None,,,,107,0,106,522.0723573999999,,,,,,,,,,,,,,,,,,,,,,,522.0565646999999,522.0723573999999,522.5562037,,,,,,,,,,,,,,522.5823619,,,,,,,,,,,,,522.5797765,522.5823619,522.5823619,522.5823619,525.5728892,None,,,525.5730346,526.1063365,f,525.5891234000001,525.5891234000001,0.5084931999999753,None,,,,,,,,,,,,,00048,001,2026-01-24_15h11.48.563,MST_task,2024.2.0,59.88153038028976,2026-01-24 15h11.55.342861 +0530,
,Objects\028a.jpg,107,0,108,,,,,,,None,,,f,0.5791036000000531,None,,,,108,0,107,526.1224275,,,,,,,,,,,,,,,,,,,,,,,526.1067787,526.1224275,526.6062915,,,,,,,,,,,,,,526.6252916999999,,,,,,,,,,,,,526.6226763,526.6252916999999,526.6252916999999,526.6252916999999,529.6229900999999,None,,,529.6231676,530.2229898,f,529.6389557,529.6389557,0.5791036000000531,None,,,,,,,,,,,,,00048,001,2026-01-24_15h11.48.563,MST_task,2024.2.0,59.88153038028976,2026-01-24 15h11.55.342861 +0530,
,Objects\054a.jpg,108,0,109,,,,,,,None,,,f,0.6140692999999828,None,,,,109,0,108,530.2389943000001,,,,,,,,,,,,,,,,,,,,,,,530.2233375000001,530.2389943000001,530.7228832000001,,,,,,,,,,,,,,530.7446199999999,,,,,,,,,,,,,530.7425381,530.7446199999999,530.7446199999999,530.7446199999999,533.7393637999999,None,,,533.739515,534.3727403,f,533.7558267,533.7558267,0.6140692999999828,None,,,,,,,,,,,,,00048,001,2026-01-24_15h11.48.563,MST_task,2024.2.0,59.88153038028976,2026-01-24 15h11.55.342861 +0530,
,Objects\136a.jpg,109,0,110,,,,,,,None,,,f,0.3593455999998696,None,,,,110,0,109,534.3890045999999,,,,,,,,,,,,,,,,,,,,,,,534.3731627,534.3890045999999,534.8728940999999,,,,,,,,,,,,,,534.896724,,,,,,,,,,,,,534.8941379,534.896724,534.896724,534.896724,537.8898049,None,,,537.8899859,538.2725681,f,537.905939,537.905939,0.3593455999998696,None,,,,,,,,,,,,,00048,001,2026-01-24_15h11.48.563,MST_task,2024.2.0,59.88153038028976,2026-01-24 15h11.55.342861 +0530,
,Objects\181a.jpg,110,0,111,,,,,,,j,2.930971200000158,None,None,,,,,,111,0,110,538.2889530999998,,,,,,,,,,,,,,,,,,,,,,,538.2727198,538.2889530999998,538.7726498,,,,,,,,,,,,,,538.7906773,,,,,,,,,,,,,538.7878008999999,538.7906773,538.7906773,538.7906773,541.7729763,j,2.930971200000158,None,541.7730962,541.7731254,None,,,,,,,,,,,,,,,,,00048,001,2026-01-24_15h11.48.563,MST_task,2024.2.0,59.88153038028976,2026-01-24 15h11.55.342861 +0530,
,Objects\016a.jpg,111,0,112,,,,,,,f,1.009924399999818,0.3042264000000614,None,,,,,,112,0,111,541.7888667,,,,,,,,,,,,,,,,,,,,,,,541.7732271,541.7888667,542.2729419,,,,,,,,,,,,,,542.2957242,,,,,,,,,,,,,542.2929162,542.2957242,542.2957242,542.2957242,545.2892652,f,1.009924399999818,0.3042264000000614,545.2894463999999,545.2895039999999,None,,,,,,,,,,,,,,,,,00048,001,2026-01-24_15h11.48.563,MST_task,2024.2.0,59.88153038028976,2026-01-24 15h11.55.342861 +0530,
,Scenes\098a.jpg,112,0,113,,,,,,,f,2.366004399999838,0.20817140000008294,None,,,,,,113,0,112,545.3055784999999,,,,,,,,,,,,,,,,,,,,,,,545.2897166,545.3055784999999,545.7893254999999,,,,,,,,,,,,,,545.8118205999999,,,,,,,,,,,,,545.8092886,545.8118205999999,545.8118205999999,545.8118205999999,548.8063227,f,2.366004399999838,0.20817140000008294,548.8065208,548.806585,None,,,,,,,,,,,,,,,,,00048,001,2026-01-24_15h11.48.563,MST_task,2024.2.0,59.88153038028976,2026-01-24 15h11.55.342861 +0530,
,Scenes\088a.jpg,113,0,114,,,,,,,j,1.1867573000001812,0.19990119999988565,None,,,,,,114,0,113,548.8224255,,,,,,,,,,,,,,,,,,,,,,,548.8068988999999,548.8224255,549.3062461,,,,,,,,,,,,,,549.3431355999999,,,,,,,,,,,,,549.3402259,549.3431355999999,549.3431355999999,549.3431355999999,552.3229323,j,1.1867573000001812,0.19990119999988565,552.3231229999999,552.3231839999999,None,,,,,,,,,,,,,,,,,00048,001,2026-01-24_15h11.48.563,MST_task,2024.2.0,59.88153038028976,2026-01-24 15h11.55.342861 +0530,
,Scenes\178a.jpg,114,0,115,,,,,,,j,0.9790682000000288,0.18410999999991873,None,,,,,,115,0,114,552.3387865,,,,,,,,,,,,,,,,,,,,,,,552.3234434999999,552.3387865,552.8227781999999,,,,,,,,,,,,,,552.8465787999999,,,,,,,,,,,,,552.8433705999998,552.8465787999999,552.8465787999999,552.8465787999999,555.8395602999999,j,0.9790682000000288,0.18410999999991873,555.8397141999999,555.8397626999999,None,,,,,,,,,,,,,,,,,00048,001,2026-01-24_15h11.48.563,MST_task,2024.2.0,59.88153038028976,2026-01-24 15h11.55.342861 +0530,
,Scenes\138a.jpg,115,0,116,,,,,,,j,1.5882047000000057,0.21548519999987548,None,,,,,,116,0,115,555.8560898000001,,,,,,,,,,,,,,,,,,,,,,,555.8399856999999,555.8560898000001,556.3388745,,,,,,,,,,,,,,556.3656292000001,,,,,,,,,,,,,556.3628916999999,556.3656292000001,556.3656292000001,556.3656292000001,559.3399271999999,j,1.5882047000000057,0.21548519999987548,559.3401289999999,559.3401931999999,None,,,,,,,,,,,,,,,,,00048,001,2026-01-24_15h11.48.563,MST_task,2024.2.0,59.88153038028976,2026-01-24 15h11.55.342861 +0530,
,Scenes\046a.jpg,116,0,117,,,,,,,j,1.4233781999998882,0.16803589999994983,None,,,,,,117,0,116,559.3557289999999,,,,,,,,,,,,,,,,,,,,,,,559.3405558,559.3557289999999,559.8388714999999,,,,,,,,,,,,,,559.8663744999999,,,,,,,,,,,,,559.8634437999999,559.8663744999999,559.8663744999999,559.8663744999999,562.8562947999999,j,1.4233781999998882,0.16803589999994983,562.8565034000001,562.8565696000001,None,,,,,,,,,,,,,,,,,00048,001,2026-01-24_15h11.48.563,MST_task,2024.2.0,59.88153038028976,2026-01-24 15h11.55.342861 +0530,
,Scenes\019a.jpg,117,0,118,,,,,,,j,2.3426766000000043,0.2243722999999136,None,,,,,,118,0,117,562.8723344999999,,,,,,,,,,,,,,,,,,,,,,,562.8569591999999,562.8723344999999,563.3560324,,,,,,,,,,,,,,563.3869775000001,,,,,,,,,,,,,563.3835798,563.3869775000001,563.3869775000001,563.3869775000001,566.3728282,j,2.3426766000000043,0.2243722999999136,566.3730226999999,566.3730856,None,,,,,,,,,,,,,,,,,00048,001,2026-01-24_15h11.48.563,MST_task,2024.2.0,59.88153038028976,2026-01-24 15h11.55.342861 +0530,
,Scenes\090a.jpg,118,0,119,,,,,,,j,2.3089379000000463,0.1441231000001153,None,,,,,,119,0,118,566.3890154999999,,,,,,,,,,,,,,,,,,,,,,,566.3733752,566.3890154999999,566.8728959,,,,,,,,,,,,,,566.9086245999999,,,,,,,,,,,,,566.9055561999999,566.9086245999999,566.9086245999999,566.9086245999999,569.8894275999999,j,2.3089379000000463,0.1441231000001153,569.8896276,569.8896921,None,,,,,,,,,,,,,,,,,00048,001,2026-01-24_15h11.48.563,MST_task,2024.2.0,59.88153038028976,2026-01-24 15h11.55.342861 +0530,
,Objects\097a.jpg,119,0,120,,,,,,,j,1.5060688000000937,0.17607169999996586,None,,,,,,120,0,119,569.9062199,,,,,,,,,,,,,,,,,,,,,,,569.8900598999999,569.9062199,570.3897188999999,,,,,,,,,,,,,,570.4158683,,,,,,,,,,,,,570.4112114,570.4158683,570.4158683,570.4158683,573.4056937999999,j,1.5060688000000937,0.17607169999996586,573.4057740000001,573.4057969,None,,,,,,,,,,,,,,,,,00048,001,2026-01-24_15h11.48.563,MST_task,2024.2.0,59.88153038028976,2026-01-24 15h11.55.342861 +0530,
,Objects\111a.jpg,120,0,121,,,,,,,f,1.6496652000000722,0.16015479999987292,None,,,,,,121,0,120,573.4221938999999,,,,,,,,,,,,,,,,,,,,,,,573.4059087,573.4221938999999,573.9059705,,,,,,,,,,,,,,,,,,,,,,,,,,,573.925172,573.9277331999999,573.9277331999999,573.9277331999999,576.9059133999999,f,1.6496652000000722,0.16015479999987292,576.906082,576.9061400999999,None,,,,,,,,,,,,,,,,,00048,001,2026-01-24_15h11.48.563,MST_task,2024.2.0,59.88153038028976,2026-01-24 15h11.55.342861 +0530,
,Objects\029a.jpg,121,0,122,,,,,,,j,2.517627000000175,0.23978219999980865,None,,,,,,122,0,121,576.9222519,,,,,,,,,,,,,,,,,,,,,,,576.9064584999999,576.9222519,577.4055954,,,,,,,,,,,,,,577.4279976,,,,,,,,,,,,,577.4252157999999,577.4279976,577.4279976,577.4279976,580.4223751,j,2.517627000000175,0.23978219999980865,580.4224471,580.4224818,None,,,,,,,,,,,,,,,,,00048,001,2026-01-24_15h11.48.563,MST_task,2024.2.0,59.88153038028976,2026-01-24 15h11.55.342861 +0530,
,Objects\040a.jpg,122,0,123,,,,,,,f,1.0193183999999746,0.2240907000000334,None,,,,,,123,0,122,580.4388055,,,,,,,,,,,,,,,,,,,,,,,580.4226165999999,580.4388055,580.9224861999999,,,,,,,,,,,,,,580.9420034,,,,,,,,,,,,,580.9393874,580.9420034,580.9420034,580.9420034,583.9227409999999,f,1.0193183999999746,0.2240907000000334,583.9229215,583.9229802,None,,,,,,,,,,,,,,,,,00048,001,2026-01-24_15h11.48.563,MST_task,2024.2.0,59.88153038028976,2026-01-24 15h11.55.342861 +0530,
,Objects\169a.jpg,123,0,124,,,,,,,j,2.0719066999999995,0.20753079999985857,None,,,,,,124,0,123,583.9390037000001,,,,,,,,,,,,,,,,,,,,,,,583.9232053000001,583.9390037000001,584.4222474000001,,,,,,,,,,,,,,584.4419711999999,,,,,,,,,,,,,584.4396717,584.4419711999999,584.4419711999999,584.4419711999999,587.4390134999999,j,2.0719066999999995,0.20753079999985857,587.4391544999999,587.4391972999999,None,,,,,,,,,,,,,,,,,00048,001,2026-01-24_15h11.48.563,MST_task,2024.2.0,59.88153038028976,2026-01-24 15h11.55.342861 +0530,
,Objects\176a.jpg,124,0,125,,,,,,,f,2.8381051999999727,None,None,,,,,,125,0,124,587.4556559999999,,,,,,,,,,,,,,,,,,,,,,,587.439406,587.4556559999999,587.9391461999999,,,,,,,,,,,,,,587.9635189999999,,,,,,,,,,,,,587.9608303999998,587.9635189999999,587.9635189999999,587.9635189999999,590.9394433,f,2.8381051999999727,None,590.939642,590.9397042999999,None,,,,,,,,,,,,,,,,,00048,001,2026-01-24_15h11.48.563,MST_task,2024.2.0,59.88153038028976,2026-01-24 15h11.55.342861 +0530,
,Objects\112a.jpg,125,0,126,,,,,,,f,1.8453205999999227,0.1837502000000768,None,,,,,,126,0,125,590.9559141,,,,,,,,,,,,,,,,,,,,,,,590.9400671999999,590.9559141,591.4392856,,,,,,,,,,,,,,591.4605211999999,,,,,,,,,,,,,591.4577380000001,591.4605211999999,591.4605211999999,591.4605211999999,594.4560818999998,f,1.8453205999999227,0.1837502000000768,594.4562747999998,594.456302,None,,,,,,,,,,,,,,,,,00048,001,2026-01-24_15h11.48.563,MST_task,2024.2.0,59.88153038028976,2026-01-24 15h11.55.342861 +0530,
,Scenes\175a.jpg,126,0,127,,,,,,,j,0.9174803999999313,0.1520311000001584,None,,,,,,127,0,126,594.4728608,,,,,,,,,,,,,,,,,,,,,,,594.4564413,594.4728608,594.9565476,,,,,,,,,,,,,,,,,,,,,,,,,,,594.9774416,594.9800662,594.9800662,594.9800662,597.9727078999999,j,0.9174803999999313,0.1520311000001584,597.9728854999998,597.9729465,None,,,,,,,,,,,,,,,,,00048,001,2026-01-24_15h11.48.563,MST_task,2024.2.0,59.88153038028976,2026-01-24 15h11.55.342861 +0530,
,Scenes\170a.jpg,127,0,128,,,,,,,j,1.5745285000000422,0.14406170000006568,None,,,,,,128,0,127,597.9889111,,,,,,,,,,,,,,,,,,,,,,,597.9730924999999,597.9889111,598.4726507,,,,,,,,,,,,,,598.4992863999998,,,,,,,,,,,,,598.4966013000001,598.4992863999998,598.4992863999998,598.4992863999998,601.4895641,j,1.5745285000000422,0.14406170000006568,601.4897794999999,601.4898158999999,None,,,,,,,,,,,,,,,,,00048,001,2026-01-24_15h11.48.563,MST_task,2024.2.0,59.88153038028976,2026-01-24 15h11.55.342861 +0530,
,Scenes\071a.jpg,128,0,129,,,,,,,j,2.429542099999935,0.20799160000001393,None,,,,,,129,0,128,601.5056726999999,,,,,,,,,,,,,,,,,,,,,,,601.4899906,601.5056726999999,601.9891230000001,,,,,,,,,,,,,,602.0201431,,,,,,,,,,,,,602.0171075000001,602.0201431,602.0201431,602.0201431,605.0062274,j,2.429542099999935,0.20799160000001393,605.0064301,605.0064941,None,,,,,,,,,,,,,,,,,00048,001,2026-01-24_15h11.48.563,MST_task,2024.2.0,59.88153038028976,2026-01-24 15h11.55.342861 +0530,
,Scenes\063a.jpg,129,0,130,,,,,,,j,1.8430598999998438,0.2242760999999973,None,,,,,,130,0,129,605.0225029000001,,,,,,,,,,,,,,,,,,,,,,,605.0067879999999,605.0225029000001,605.5060851000001,,,,,,,,,,,,,,605.5346617999999,,,,,,,,,,,,,605.5317544,605.5346617999999,605.5346617999999,605.5346617999999,608.5231251999999,j,1.8430598999998438,0.2242760999999973,608.5233238999999,608.5233857999999,None,,,,,,,,,,,,,,,,,00048,001,2026-01-24_15h11.48.563,MST_task,2024.2.0,59.88153038028976,2026-01-24 15h11.55.342861 +0530,
,Scenes\041a.jpg,130,0,131,,,,,,,j,1.731101899999885,0.17601170000011734,None,,,,,,131,0,130,608.5391233999999,,,,,,,,,,,,,,,,,,,,,,,608.5236719,608.5391233999999,609.0228947999999,,,,,,,,,,,,,,609.0548245999998,,,,,,,,,,,,,609.0521286000001,609.0548245999998,609.0548245999998,609.0548245999998,612.0401059999999,j,1.731101899999885,0.17601170000011734,612.040303,612.0403686,None,,,,,,,,,,,,,,,,,00048,001,2026-01-24_15h11.48.563,MST_task,2024.2.0,59.88153038028976,2026-01-24 15h11.55.342861 +0530,
,Scenes\073a.jpg,131,0,132,,,,,,,None,,,j,0.3251273000000765,None,,,,132,0,131,612.0559083999999,,,,,,,,,,,,,,,,,,,,,,,612.0406638,612.0559083999999,612.5395533999999,,,,,,,,,,,,,,612.5715708,,,,,,,,,,,,,612.5685934999999,612.5715708,612.5715708,612.5715708,615.5564331,None,,,615.5566188,615.9062058,j,615.5723833,615.5723833,0.3251273000000765,None,,,,,,,,,,,,,00048,001,2026-01-24_15h11.48.563,MST_task,2024.2.0,59.88153038028976,2026-01-24 15h11.55.342861 +0530,
,Scenes\119a.jpg,132,0,133,,,,,,,None,,,j,0.3065137999999479,None,,,,133,0,132,615.9224297999999,,,,,,,,,,,,,,,,,,,,,,,615.9065493999999,615.9224297999999,616.4061135,,,,,,,,,,,,,,616.4401115999999,,,,,,,,,,,,,616.4369853000001,616.4401115999999,616.4401115999999,616.4401115999999,619.4229968,None,,,619.4231924999999,619.755967,j,619.4390450999999,619.4390450999999,0.3065137999999479,None,,,,,,,,,,,,,00048,001,2026-01-24_15h11.48.563,MST_task,2024.2.0,59.88153038028976,2026-01-24 15h11.55.342861 +0530,
,Objects\186a.jpg,133,0,134,,,,,,,None,,,f,0.42497069999990345,None,,,,134,0,133,619.7724048,,,,,,,,,,,,,,,,,,,,,,,619.7563857,619.7724048,620.2561616,,,,,,,,,,,,,,620.2812907999999,,,,,,,,,,,,,620.2783731,620.2812907999999,620.2812907999999,620.2812907999999,623.2723762999999,None,,,623.2724567999999,623.7231084999999,f,623.2887854999999,623.2887854999999,0.42497069999990345,None,,,,,,,,,,,,,00048,001,2026-01-24_15h11.48.563,MST_task,2024.2.0,59.88153038028976,2026-01-24 15h11.55.342861 +0530,
,Objects\032a.jpg,134,0,135,,,,,,,None,,,j,0.6574339000001146,None,,,,135,0,134,623.7391465999999,,,,,,,,,,,,,,,,,,,,,,,623.7234371,623.7391465999999,624.2229107999999,,,,,,,,,,,,,,624.2430474999999,,,,,,,,,,,,,624.2399825999998,624.2430474999999,624.2430474999999,624.2430474999999,627.2393798999999,None,,,627.2395503,627.9223895999999,j,627.2558262999999,627.2558262999999,0.6574339000001146,None,,,,,,,,,,,,,00048,001,2026-01-24_15h11.48.563,MST_task,2024.2.0,59.88153038028976,2026-01-24 15h11.55.342861 +0530,
,Objects\166a.jpg,135,0,136,,,,,,,None,,,f,1.2265067000000727,None,,,,136,0,135,627.9387359,,,,,,,,,,,,,,,,,,,,,,,627.9225686,627.9387359,628.4226735,,,,,,,,,,,,,,628.4406389000001,,,,,,,,,,,,,628.4379873999999,628.4406389000001,628.4406389000001,628.4406389000001,631.4229017999999,None,,,631.4230806,632.6729071,f,631.4392175,631.4392175,1.2265067000000727,None,,,,,,,,,,,,,00048,001,2026-01-24_15h11.48.563,MST_task,2024.2.0,59.88153038028976,2026-01-24 15h11.55.342861 +0530,
,Objects\036a.jpg,136,0,137,,,,,,,None,,,f,2.176608299999998,None,,,,137,0,136,632.6890073,,,,,,,,,,,,,,,,,,,,,,,632.6733554,632.6890073,633.1731238,,,,,,,,,,,,,,638.6730711,,,,,,,,,,,,,638.6709005,,,,638.6709361999999,None,,,638.6709887,640.8560906,f,638.6730711,638.6730711,2.176608299999998,None,,,,,,,,,,,,,00048,001,2026-01-24_15h11.48.563,MST_task,2024.2.0,59.88153038028976,2026-01-24 15h11.55.342861 +0530,
,Objects\145a.jpg,137,0,138,,,,,,,None,,,j,0.3565060999999332,None,,,,138,0,137,640.8726686,,,,,,,,,,,,,,,,,,,,,,,640.8561949,640.8726686,641.3560316,,,,,,,,,,,,,,641.3768843,,,,,,,,,,,,,641.3744253,641.3768843,641.3768843,641.3768843,644.3729142,None,,,644.3731006,644.7563398,j,644.3892229999999,644.3892229999999,0.3565060999999332,None,,,,,,,,,,,,,00048,001,2026-01-24_15h11.48.563,MST_task,2024.2.0,59.88153038028976,2026-01-24 15h11.55.342861 +0530,
,Objects\004a.jpg,138,0,139,,,,,,,None,,,j,0.40088969999987967,None,,,,139,0,138,644.7725386,,,,,,,,,,,,,,,,,,,,,,,644.756787,644.7725386,645.2562263,,,,,,,,,,,,,,645.27773,,,,,,,,,,,,,645.2749532999999,645.27773,645.27773,645.27773,648.2728966,None,,,648.2730758,648.7062000999999,j,648.2890735999999,648.2890735999999,0.40088969999987967,None,,,,,,,,,,,,,00048,001,2026-01-24_15h11.48.563,MST_task,2024.2.0,59.88153038028976,2026-01-24 15h11.55.342861 +0530,
,Objects\060a.jpg,139,0,140,,,,,,,None,,,j,0.674411100000043,None,,,,140,0,139,648.7224922,,,,,,,,,,,,,,,,,,,,,,,648.7065295,648.7224922,649.2062156,,,,,,,,,,,,,,649.2291969999999,,,,,,,,,,,,,649.2265261999999,649.2291969999999,649.2291969999999,649.2291969999999,652.2225874999999,None,,,652.2226638,652.9223314999999,j,652.2389699,652.2389699,0.674411100000043,None,,,,,,,,,,,,,00048,001,2026-01-24_15h11.48.563,MST_task,2024.2.0,59.88153038028976,2026-01-24 15h11.55.342861 +0530,
,Scenes\092a.jpg,140,0,141,,,,,,,None,,,j,0.6425742999999784,None,,,,141,0,140,652.9389816,,,,,,,,,,,,,,,,,,,,,,,652.9224594,652.9389816,653.4222944999999,,,,,,,,,,,,,,653.4500186,,,,,,,,,,,,,653.4472489,653.4500186,653.4500186,653.4500186,656.4228287999999,None,,,656.4229516999999,657.0891770999999,j,656.4388134999999,656.4388134999999,0.6425742999999784,None,,,,,,,,,,,,,00048,001,2026-01-24_15h11.48.563,MST_task,2024.2.0,59.88153038028976,2026-01-24 15h11.55.342861 +0530,
,Scenes\042a.jpg,141,0,142,,,,,,,j,2.222744700000021,0.14521549999994932,None,,,,,,142,0,141,657.1054437999999,,,,,,,,,,,,,,,,,,,,,,,657.0892939,657.1054437999999,657.5892589999999,,,,,,,,,,,,,,657.6106127999999,,,,,,,,,,,,,657.6077201999999,657.6106127999999,657.6106127999999,657.6106127999999,660.5895888999999,j,2.222744700000021,0.14521549999994932,660.5897929,660.5898577999999,None,,,,,,,,,,,,,,,,,00048,001,2026-01-24_15h11.48.563,MST_task,2024.2.0,59.88153038028976,2026-01-24 15h11.55.342861 +0530,
,Scenes\131a.jpg,142,0,143,,,,,,,None,,,j,0.911341400000083,None,,,,143,0,142,660.605746,,,,,,,,,,,,,,,,,,,,,,,660.5901483,660.605746,661.0896504,,,,,,,,,,,,,,661.1196766999999,,,,,,,,,,,,,661.1170674999998,661.1196766999999,661.1196766999999,661.1196766999999,664.1061783999999,None,,,664.1063563,665.0397226,j,664.1224402,664.1224402,0.911341400000083,None,,,,,,,,,,,,,00048,001,2026-01-24_15h11.48.563,MST_task,2024.2.0,59.88153038028976,2026-01-24 15h11.55.342861 +0530,
,Scenes\127a.jpg,143,0,144,,,,,,,None,,,j,0.4053415999999288,None,,,,144,0,143,665.0556764999999,,,,,,,,,,,,,,,,,,,,,,,665.0400629000001,665.0556764999999,665.5395684,,,,,,,,,,,,,,665.5691496,,,,,,,,,,,,,665.5662413999999,665.5691496,665.5691496,665.5691496,668.5561657999999,None,,,668.5563259,668.9895841,j,668.5725069999999,668.5725069999999,0.4053415999999288,None,,,,,,,,,,,,,00048,001,2026-01-24_15h11.48.563,MST_task,2024.2.0,59.88153038028976,2026-01-24 15h11.55.342861 +0530,
,Scenes\124a.jpg,144,0,145,,,,,,,None,,,j,0.40670939999995426,None,,,,145,0,144,669.0057938999998,,,,,,,,,,,,,,,,,,,,,,,668.9897922999999,669.0057938999998,669.4895008999999,,,,,,,,,,,,,,670.4110111999998,,,,,,,,,,,,,670.4075765,670.4110111999998,670.4110111999998,670.4110111999998,672.5062476,None,,,672.5064261999999,672.9388485,j,672.5225731999999,672.5225731999999,0.40670939999995426,None,,,,,,,,,,,,,00048,001,2026-01-24_15h11.48.563,MST_task,2024.2.0,59.88153038028976,2026-01-24 15h11.55.342861 +0530,
,Scenes\029a.jpg,145,0,146,,,,,,,None,,,j,0.4733272000000852,None,,,,146,0,145,672.9555848,,,,,,,,,,,,,,,,,,,,,,,672.939034,672.9555848,673.4391386,,,,,,,,,,,,,,,,,,,,,,,,,,,673.4675826999999,673.4705921,673.4705921,673.4705921,676.4394422999999,None,,,676.4396058,676.9387783,j,676.4556445999999,676.4556445999999,0.4733272000000852,None,,,,,,,,,,,,,00048,001,2026-01-24_15h11.48.563,MST_task,2024.2.0,59.88153038028976,2026-01-24 15h11.55.342861 +0530,
,Scenes\160a.jpg,146,0,147,,,,,,,None,,,j,0.4091863999999532,None,,,,147,0,146,676.9556264,,,,,,,,,,,,,,,,,,,,,,,676.9389237,676.9556264,677.4391977999999,,,,,,,,,,,,,,,,,,,,,,,,,,,677.4656711,677.4685032,677.4685032,677.4685032,680.4394737999999,None,,,680.4396532999999,680.8728312999999,j,680.4562401999999,680.4562401999999,0.4091863999999532,None,,,,,,,,,,,,,00048,001,2026-01-24_15h11.48.563,MST_task,2024.2.0,59.88153038028976,2026-01-24 15h11.55.342861 +0530,
,Objects\100a.jpg,147,0,148,,,,,,,None,,,j,0.3642870999999559,None,,,,148,0,147,680.8890288999999,,,,,,,,,,,,,,,,,,,,,,,680.8729871,680.8890288999999,681.3728463,,,,,,,,,,,,,,681.4904569999999,,,,,,,,,,,,,681.4870767,681.4904569999999,681.4904569999999,681.4904569999999,684.3895683999999,None,,,684.3897248999999,684.7728373999998,j,684.4056355999999,684.4056355999999,0.3642870999999559,None,,,,,,,,,,,,,00048,001,2026-01-24_15h11.48.563,MST_task,2024.2.0,59.88153038028976,2026-01-24 15h11.55.342861 +0530,
,Objects\096a.jpg,148,0,149,,,,,,,None,,,f,0.32787839999991775,None,,,,149,0,148,684.7892099999999,,,,,,,,,,,,,,,,,,,,,,,684.7731641999999,684.7892099999999,685.2725935999999,,,,,,,,,,,,,,685.2918129,,,,,,,,,,,,,685.2893111999999,685.2918129,685.2918129,685.2918129,688.2892588,None,,,688.2893979999999,688.6393903000001,f,688.3055353,688.3055353,0.32787839999991775,None,,,,,,,,,,,,,00048,001,2026-01-24_15h11.48.563,MST_task,2024.2.0,59.88153038028976,2026-01-24 15h11.55.342861 +0530,
,Objects\132a.jpg,149,0,150,,,,,,,None,,,f,0.5012604999999439,None,,,,150,0,149,688.6557774,,,,,,,,,,,,,,,,,,,,,,,688.639531,688.6557774,689.1393200999998,,,,,,,,,,,,,,689.1586892,,,,,,,,,,,,,689.1561735999999,689.1586892,689.1586892,689.1586892,692.1395662,None,,,692.1397628,692.6727547999999,f,692.1559316999999,692.1559316999999,0.5012604999999439,None,,,,,,,,,,,,,00048,001,2026-01-24_15h11.48.563,MST_task,2024.2.0,59.88153038028976,2026-01-24 15h11.55.342861 +0530,
,Objects\172a.jpg,150,0,151,,,,,,,None,,,j,1.2915317999998024,None,,,,151,0,150,692.6892627,,,,,,,,,,,,,,,,,,,,,,,692.673186,692.6892627,693.1722915999999,,,,,,,,,,,,,,693.1957373999999,,,,,,,,,,,,,693.1930608999999,693.1957373999999,693.1957373999999,693.1957373999999,696.1894044000001,None,,,696.1895783999998,697.5057491,j,696.2056465999999,696.2056465999999,1.2915317999998024,None,,,,,,,,,,,,,00048,001,2026-01-24_15h11.48.563,MST_task,2024.2.0,59.88153038028976,2026-01-24 15h11.55.342861 +0530,
,Objects\128a.jpg,151,0,152,,,,,,,None,,,f,0.37085610000008273,None,,,,152,0,151,697.5221406999999,,,,,,,,,,,,,,,,,,,,,,,697.5060332,697.5221406999999,698.0059922,,,,,,,,,,,,,,,,,,,,,,,,,,,698.0273445999999,698.0299700999999,698.0299700999999,698.0299700999999,701.0223000999999,None,,,701.0224522999999,701.4223568,f,701.0388631999999,701.0388631999999,0.37085610000008273,None,,,,,,,,,,,,,00048,001,2026-01-24_15h11.48.563,MST_task,2024.2.0,59.88153038028976,2026-01-24 15h11.55.342861 +0530,
,Objects\079a.jpg,152,0,153,,,,,,,None,,,f,0.5505266999998639,None,,,,153,0,152,701.4388867,,,,,,,,,,,,,,,,,,,,,,,701.4224884,701.4388867,701.9220803999999,,,,,,,,,,,,,,701.9415025000001,,,,,,,,,,,,,701.9393668,701.9415025000001,701.9415025000001,701.9415025000001,704.9231115,None,,,704.9232789999999,705.5061604999999,f,704.9389064,704.9389064,0.5505266999998639,None,,,,,,,,,,,,,00048,001,2026-01-24_15h11.48.563,MST_task,2024.2.0,59.88153038028976,2026-01-24 15h11.55.342861 +0530,
,Objects\089a.jpg,153,0,154,,,,,,,None,,,f,0.3220890000000054,None,,,,154,0,153,705.5225539999999,,,,,,,,,,,,,,,,,,,,,,,705.5065030999999,705.5225539999999,706.0060065999999,,,,,,,,,,,,,,706.0261352999999,,,,,,,,,,,,,706.0231421999999,706.0261352999999,706.0261352999999,706.0261352999999,709.0225971,None,,,709.0227651,709.3725806,f,709.0392790999999,709.0392790999999,0.3220890000000054,None,,,,,,,,,,,,,00048,001,2026-01-24_15h11.48.563,MST_task,2024.2.0,59.88153038028976,2026-01-24 15h11.55.342861 +0530,
,Scenes\114a.jpg,154,0,155,,,,,,,None,,,f,0.367801899999904,None,,,,155,0,154,709.3888657,,,,,,,,,,,,,,,,,,,,,,,709.3729320999998,709.3888657,709.8724238,,,,,,,,,,,,,,709.9077451,,,,,,,,,,,,,709.9051787999999,709.9077451,709.9077451,709.9077451,712.8892169000001,None,,,712.8892983999999,713.289387,f,712.9055913,712.9055913,0.367801899999904,None,,,,,,,,,,,,,00048,001,2026-01-24_15h11.48.563,MST_task,2024.2.0,59.88153038028976,2026-01-24 15h11.55.342861 +0530,
,Scenes\024a.jpg,155,0,156,,,,,,,None,,,j,0.963302499999827,None,,,,156,0,155,713.3058856,,,,,,,,,,,,,,,,,,,,,,,713.2897831999999,713.3058856,713.7889902,,,,,,,,,,,,,,713.8142628,,,,,,,,,,,,,713.8113068999999,713.8142628,713.8142628,713.8142628,716.8057425,None,,,716.8058409999999,717.7893038,j,716.8220742999999,716.8220742999999,0.963302499999827,None,,,,,,,,,,,,,00048,001,2026-01-24_15h11.48.563,MST_task,2024.2.0,59.88153038028976,2026-01-24 15h11.55.342861 +0530,
,Scenes\111a.jpg,156,0,157,,,,,,,None,,,j,0.6389660999998341,None,,,,157,0,156,717.8058438999999,,,,,,,,,,,,,,,,,,,,,,,717.7896499999999,717.8058438999999,718.2890731999998,,,,,,,,,,,,,,718.3334285999999,,,,,,,,,,,,,718.3304607999999,718.3334285999999,718.3334285999999,718.3334285999999,721.3059189,None,,,721.3060681,721.9721348,j,721.3222394,721.3222394,0.6389660999998341,None,,,,,,,,,,,,,00048,001,2026-01-24_15h11.48.563,MST_task,2024.2.0,59.88153038028976,2026-01-24 15h11.55.342861 +0530,
,Scenes\129a.jpg,157,0,158,,,,,,,None,,,j,0.4165596000000278,None,,,,158,0,157,721.9889000000001,,,,,,,,,,,,,,,,,,,,,,,721.9722586,721.9889000000001,722.4724850999999,,,,,,,,,,,,,,,,,,,,,,,,,,,722.4983588999999,722.5013672,722.5013672,722.5013672,725.4728155999999,None,,,725.472982,725.9062191,j,725.4888793999999,725.4888793999999,0.4165596000000278,None,,,,,,,,,,,,,00048,001,2026-01-24_15h11.48.563,MST_task,2024.2.0,59.88153038028976,2026-01-24 15h11.55.342861 +0530,
,Scenes\020a.jpg,158,0,159,,,,,,,None,,,j,1.2663815000000795,None,,,,159,0,158,725.9222594999999,,,,,,,,,,,,,,,,,,,,,,,725.9064255000001,725.9222594999999,726.4060158,,,,,,,,,,,,,,726.4413649999999,,,,,,,,,,,,,726.4387138,726.4413649999999,726.4413649999999,726.4413649999999,729.422382,None,,,729.4224741,730.705997,j,729.4389282,729.4389282,1.2663815000000795,None,,,,,,,,,,,,,00048,001,2026-01-24_15h11.48.563,MST_task,2024.2.0,59.88153038028976,2026-01-24 15h11.55.342861 +0530,
,Scenes\065a.jpg,159,0,160,,,,,,,None,,,j,0.402334799999835,None,,,,160,0,159,730.7221574999999,,,,,,,,,,,,,,,,,,,,,,,730.7063329,730.7221574999999,731.2058279,,,,,,,,,,,,,,731.2396558,,,,,,,,,,,,,731.2363014,731.2396558,731.2396558,731.2396558,734.2223707,None,,,734.2224964,734.6557281999999,j,734.2388524999999,734.2388524999999,0.402334799999835,None,,,,,,,,,,,,,00048,001,2026-01-24_15h11.48.563,MST_task,2024.2.0,59.88153038028976,2026-01-24 15h11.55.342861 +0530,
,Scenes\014a.jpg,160,0,161,,,,,,,None,,,j,5.1008983000001535,None,,,,161,0,160,734.6719624,,,,,,,,,,,,,,,,,,,,,,,734.6559049,734.6719624,735.1557581,,,,,,,,,,,,,,735.1804874,,,,,,,,,,,,,735.1780186999999,735.1804874,735.1804874,735.1804874,738.1562873,None,,,738.1564292,743.2891216,j,738.1725372999999,738.1725372999999,5.1008983000001535,None,,,,,,,,,,,,,00048,001,2026-01-24_15h11.48.563,MST_task,2024.2.0,59.88153038028976,2026-01-24 15h11.55.342861 +0530,
,Objects\151a.jpg,161,0,162,,,,,,,f,1.468367599999965,0.2000789999999597,None,,,,,,162,0,161,743.3054712999999,,,,,,,,,,,,,,,,,,,,,,,743.2893448,743.3054712999999,743.7890831,,,,,,,,,,,,,,743.8128047,,,,,,,,,,,,,743.8100832,743.8128047,743.8128047,743.8128047,746.8056647999999,f,1.468367599999965,0.2000789999999597,746.8057544999999,746.8058036,None,,,,,,,,,,,,,,,,,00048,001,2026-01-24_15h11.48.563,MST_task,2024.2.0,59.88153038028976,2026-01-24 15h11.55.342861 +0530,
,Objects\127a.jpg,162,0,163,,,,,,,None,,,f,0.9511659999998301,None,,,,163,0,162,746.8219968999999,,,,,,,,,,,,,,,,,,,,,,,746.8060218,746.8219968999999,747.3058421999999,,,,,,,,,,,,,,747.3223753,,,,,,,,,,,,,747.3200749999999,747.3223753,747.3223753,747.3223753,750.3064683,None,,,750.3065945999999,751.2890236999999,f,750.3220919,750.3220919,0.9511659999998301,None,750.3220919,750.3220919,750.3220919,,,,,,,,,,00048,001,2026-01-24_15h11.48.563,MST_task,2024.2.0,59.88153038028976,2026-01-24 15h11.55.342861 +0530,
,Objects\093a.jpg,163,0,164,,,,,,,None,,,j,0.34755440000003546,None,,,,164,0,163,751.3054984999999,,,,,,,,,,,,,,,,,,,,,,,751.2891471999999,751.3054984999999,751.7890961,,,,,,,,,,,,,,751.8104437,,,,,,,,,,,,,751.8077235999999,751.8104437,751.8104437,751.8104437,754.7893313,None,,,754.789493,755.1559345999999,j,754.805582,754.805582,0.34755440000003546,None,,,,,,,,,,,,,00048,001,2026-01-24_15h11.48.563,MST_task,2024.2.0,59.88153038028976,2026-01-24 15h11.55.342861 +0530,
,Objects\164a.jpg,164,0,165,,,,,,,None,,,j,0.48816290000013396,None,,,,165,0,164,755.1720382999999,,,,,,,,,,,,,,,,,,,,,,,755.1561910999999,755.1720382999999,755.6561843,,,,,,,,,,,,,,755.6790277,,,,,,,,,,,,,755.6760755999999,755.6790277,755.6790277,755.6790277,758.6726524999999,None,,,758.6727232999999,759.1893218,j,758.6890665999999,758.6890665999999,0.48816290000013396,None,,,,,,,,,,,,,00048,001,2026-01-24_15h11.48.563,MST_task,2024.2.0,59.88153038028976,2026-01-24 15h11.55.342861 +0530,
,Objects\013a.jpg,165,0,166,,,,,,,None,,,j,0.5432835999999952,None,,,,166,0,165,759.2055407,,,,,,,,,,,,,,,,,,,,,,,759.1896583,759.2055407,759.6893648999999,,,,,,,,,,,,,,759.7059242999999,,,,,,,,,,,,,759.7033185999999,759.7059242999999,759.7059242999999,759.7059242999999,762.6897495999999,None,,,762.6899297999998,763.2562000999999,j,762.7060910999999,762.7060910999999,0.5432835999999952,None,,,,,,,,,,,,,00048,001,2026-01-24_15h11.48.563,MST_task,2024.2.0,59.88153038028976,2026-01-24 15h11.55.342861 +0530,
,Objects\171a.jpg,166,0,167,,,,,,,None,,,j,0.500457200000028,None,,,,167,0,166,763.2719236,,,,,,,,,,,,,,,,,,,,,,,763.2565193,763.2719236,763.7559870999999,,,,,,,,,,,,,,763.7738486000001,,,,,,,,,,,,,763.7716952000001,763.7738486000001,763.7738486000001,763.7738486000001,766.7728419,None,,,766.7730228999999,767.3061233999999,j,766.7892959999999,766.7892959999999,0.500457200000028,None,,,,,,,,,,,,,00048,001,2026-01-24_15h11.48.563,MST_task,2024.2.0,59.88153038028976,2026-01-24 15h11.55.342861 +0530,
,Objects\160a.jpg,167,0,168,,,,,,,None,,,f,0.8348389999998744,None,,,,168,0,167,767.3222114,,,,,,,,,,,,,,,,,,,,,,,767.3064247,767.3222114,767.8056701999999,,,,,,,,,,,,,,767.8236525,,,,,,,,,,,,,767.8208070000001,767.8236525,767.8236525,767.8236525,770.8065279999998,None,,,770.8067065999999,771.6722155999998,f,770.8223430999999,770.8223430999999,0.8348389999998744,None,,,,,,,,,,,,,00048,001,2026-01-24_15h11.48.563,MST_task,2024.2.0,59.88153038028976,2026-01-24 15h11.55.342861 +0530,
,Scenes\034a.jpg,168,0,169,,,,,,,None,,,j,0.5163207999999031,None,,,,169,0,168,771.6888394,,,,,,,,,,,,,,,,,,,,,,,771.6723173,771.6888394,772.1723752999999,,,,,,,,,,,,,,772.2041847999999,,,,,,,,,,,,,772.2009292999999,772.2041847999999,772.2041847999999,772.2041847999999,775.1729376000001,None,,,775.1731276999999,775.7063756999999,j,775.1890997,775.1890997,0.5163207999999031,None,,,,,,,,,,,,,00048,001,2026-01-24_15h11.48.563,MST_task,2024.2.0,59.88153038028976,2026-01-24 15h11.55.342861 +0530,
,Scenes\053a.jpg,169,0,170,,,,,,,None,,,j,0.2984299000002011,None,,,,170,0,169,775.7223352999999,,,,,,,,,,,,,,,,,,,,,,,775.706745,775.7223352999999,776.2067133999999,,,,,,,,,,,,,,776.2326857999999,,,,,,,,,,,,,776.2287818,776.2326857999999,776.2326857999999,776.2326857999999,779.2224153,None,,,779.2224902999999,779.5393171999999,j,779.2388796,779.2388796,0.2984299000002011,None,,,,,,,,,,,,,00048,001,2026-01-24_15h11.48.563,MST_task,2024.2.0,59.88153038028976,2026-01-24 15h11.55.342861 +0530,
,Scenes\022a.jpg,170,0,171,,,,,,,None,,,j,0.8250198000000637,None,,,,171,0,170,779.5555339,,,,,,,,,,,,,,,,,,,,,,,779.5396738,779.5555339,780.0393698,,,,,,,,,,,,,,780.0626955999999,,,,,,,,,,,,,780.0600586,780.0626955999999,780.0626955999999,780.0626955999999,783.0560484999999,None,,,783.0561915999999,783.9057020999999,j,783.0721027,783.0721027,0.8250198000000637,None,,,,,,,,,,,,,00048,001,2026-01-24_15h11.48.563,MST_task,2024.2.0,59.88153038028976,2026-01-24 15h11.55.342861 +0530,
,Scenes\075a.jpg,171,0,172,,,,,,,j,2.8987293000000136,None,None,,,,,,172,0,171,783.9221049,,,,,,,,,,,,,,,,,,,,,,,783.9058677999999,783.9221049,784.4058754,,,,,,,,,,,,,,,,,,,,,,,,,,,784.4277778000001,784.4304539,784.4304539,784.4304539,787.4223374000001,j,2.8987293000000136,None,787.4225412999999,787.4226036,None,,,,,,,,,,,,,,,,,00048,001,2026-01-24_15h11.48.563,MST_task,2024.2.0,59.88153038028976,2026-01-24 15h11.55.342861 +0530,
,Scenes\120a.jpg,172,0,173,,,,,,,None,,,j,0.33413160000009157,None,,,,173,0,172,787.4389082999999,,,,,,,,,,,,,,,,,,,,,,,787.4228948,787.4389082999999,787.9225242,,,,,,,,,,,,,,787.9500535,,,,,,,,,,,,,787.9469534,787.9500535,787.9500535,787.9500535,790.9230278,None,,,790.9232106,791.2897591999999,j,790.9392436999999,790.9392436999999,0.33413160000009157,None,,,,,,,,,,,,,00048,001,2026-01-24_15h11.48.563,MST_task,2024.2.0,59.88153038028976,2026-01-24 15h11.55.342861 +0530,
,Scenes\003a.jpg,173,0,174,,,,,,,None,,,j,0.4588330000001406,None,,,,174,0,173,791.3059002999998,,,,,,,,,,,,,,,,,,,,,,,791.2902194000001,791.3059002999998,791.7895707,,,,,,,,,,,,,,791.8250811999999,,,,,,,,,,,,,791.8222535,791.8250811999999,791.8250811999999,791.8250811999999,794.8063136999999,None,,,794.8064956999999,795.2901219999999,j,794.8223972999999,794.8223972999999,0.4588330000001406,None,,,,,,,,,,,,,00048,001,2026-01-24_15h11.48.563,MST_task,2024.2.0,59.88153038028976,2026-01-24 15h11.55.342861 +0530,
,Scenes\176a.jpg,174,0,175,,,,,,,None,,,j,0.4513904000000366,None,,,,175,0,174,795.3058572,,,,,,,,,,,,,,,,,,,,,,,795.2905639,795.3058572,795.7894655,,,,,,,,,,,,,,795.8147342,,,,,,,,,,,,,795.8114272,795.8147342,795.8147342,795.8147342,798.8058103999999,None,,,798.8059215000001,799.2899904999999,j,798.8219952,798.8219952,0.4513904000000366,None,,,,,,,,,,,,,00048,001,2026-01-24_15h11.48.563,MST_task,2024.2.0,59.88153038028976,2026-01-24 15h11.55.342861 +0530,
,Objects\098a.jpg,175,0,176,,,,,,,None,,,f,0.35535349999986465,None,,,,176,0,175,799.305797,,,,,,,,,,,,,,,,,,,,,,,799.2903246999999,799.305797,799.7898482999999,,,,,,,,,,,,,,799.8176985999999,,,,,,,,,,,,,799.8140544999999,799.8176985999999,799.8176985999999,799.8176985999999,802.8072405,None,,,802.8074247,803.1897861,f,802.8224327,802.8224327,0.35535349999986465,None,,,,,,,,,,,,,00048,001,2026-01-24_15h11.48.563,MST_task,2024.2.0,59.88153038028976,2026-01-24 15h11.55.342861 +0530,
,Objects\049a.jpg,176,0,177,,,,,,,None,,,f,0.3355128999999124,None,,,,177,0,176,803.2058657,,,,,,,,,,,,,,,,,,,,,,,803.1902989999999,803.2058657,803.6896769,,,,,,,,,,,,,,803.7150641000001,,,,,,,,,,,,,803.7120132,803.7150641000001,803.7150641000001,803.7150641000001,806.706117,None,,,806.7063008,807.0730535,f,806.7220812999999,806.7220812999999,0.3355128999999124,None,,,,,,,,,,,,,00048,001,2026-01-24_15h11.48.563,MST_task,2024.2.0,59.88153038028976,2026-01-24 15h11.55.342861 +0530,
,Objects\017a.jpg,177,0,178,,,,,,,None,,,f,0.3955940000000737,None,,,,178,0,177,807.0892157999999,,,,,,,,,,,,,,,,,,,,,,,807.0733817999999,807.0892157999999,807.5728494,,,,,,,,,,,,,,807.5975223,,,,,,,,,,,,,807.5945078,807.5975223,807.5975223,807.5975223,810.5895659,None,,,810.5897464,811.0058205999999,f,810.6057145,810.6057145,0.3955940000000737,None,,,,,,,,,,,,,00048,001,2026-01-24_15h11.48.563,MST_task,2024.2.0,59.88153038028976,2026-01-24 15h11.55.342861 +0530,
,Objects\023a.jpg,178,0,179,,,,,,,None,,,f,1.4388854999999694,None,,,,179,0,178,811.0222853,,,,,,,,,,,,,,,,,,,,,,,811.0059249999999,811.0222853,811.5061739,,,,,,,,,,,,,,,,,,,,,,,,,,,811.5216364999999,811.5239961,811.5239961,811.5239961,814.5063149999999,None,,,814.5064952,815.9729551,f,814.5226384999999,814.5226384999999,1.4388854999999694,None,,,,,,,,,,,,,00048,001,2026-01-24_15h11.48.563,MST_task,2024.2.0,59.88153038028976,2026-01-24 15h11.55.342861 +0530,
,Objects\182a.jpg,179,0,180,,,,,,,None,,,f,0.33557760000007875,None,,,,180,0,179,815.9895658999999,,,,,,,,,,,,,,,,,,,,,,,815.9732908999999,815.9895658999999,816.4726444,,,,,,,,,,,,,,816.4969487999999,,,,,,,,,,,,,816.4943664,816.4969487999999,816.4969487999999,816.4969487999999,819.4897816,None,,,819.4899917,819.8564013999999,f,819.5057744000001,819.5057744000001,0.33557760000007875,None,,,,,,,,,,,,,00048,001,2026-01-24_15h11.48.563,MST_task,2024.2.0,59.88153038028976,2026-01-24 15h11.55.342861 +0530,
,Objects\137a.jpg,180,0,181,,,,,,,None,,,f,0.4119419999999536,None,,,,181,0,180,819.8723877,,,,,,,,,,,,,,,,,,,,,,,819.8567369,819.8723877,820.3562967999999,,,,,,,,,,,,,,820.3786068,,,,,,,,,,,,,820.3762988999999,820.3786068,820.3786068,820.3786068,823.3728587999999,None,,,823.3730536,823.8058521,f,823.3892344999999,823.3892344999999,0.4119419999999536,None,,,,,,,,,,,,,00048,001,2026-01-24_15h11.48.563,MST_task,2024.2.0,59.88153038028976,2026-01-24 15h11.55.342861 +0530,
,Objects\091a.jpg,181,0,182,,,,,,,None,,,j,0.2942290999999386,None,,,,182,0,181,823.8225754,,,,,,,,,,,,,,,,,,,,,,,823.8060045,823.8225754,824.3059538999998,,,,,,,,,,,,,,824.3255414,,,,,,,,,,,,,824.3231003999999,824.3255414,824.3255414,824.3255414,827.3227912,None,,,827.3229819999999,827.6397456,j,827.3391661,827.3391661,0.2942290999999386,None,,,,,,,,,,,,,00048,001,2026-01-24_15h11.48.563,MST_task,2024.2.0,59.88153038028976,2026-01-24 15h11.55.342861 +0530,
,Scenes\157a.jpg,182,0,183,,,,,,,None,,,j,0.3808060999999725,None,,,,183,0,182,827.6558138,,,,,,,,,,,,,,,,,,,,,,,827.6401927,827.6558138,828.1399954999999,,,,,,,,,,,,,,828.1692774,,,,,,,,,,,,,828.1667674999999,828.1692774,828.1692774,828.1692774,831.1564008,None,,,831.1565800999999,831.5563643,j,831.1726653999999,831.1726653999999,0.3808060999999725,None,,,,,,,,,,,,,00048,001,2026-01-24_15h11.48.563,MST_task,2024.2.0,59.88153038028976,2026-01-24 15h11.55.342861 +0530,
,Scenes\050a.jpg,183,0,184,,,,,,,None,,,j,0.5683162000000266,None,,,,184,0,183,831.5724083999999,,,,,,,,,,,,,,,,,,,,,,,831.5568134999999,831.5724083999999,832.0564807999999,,,,,,,,,,,,,,832.0849859,,,,,,,,,,,,,832.0818208000001,832.0849859,832.0849859,832.0849859,835.0732077,None,,,835.0733978999999,835.673061,j,835.0891830999999,835.0891830999999,0.5683162000000266,None,,,,,,,,,,,,,00048,001,2026-01-24_15h11.48.563,MST_task,2024.2.0,59.88153038028976,2026-01-24 15h11.55.342861 +0530,
,Scenes\018a.jpg,184,0,185,,,,,,,f,2.464995700000145,0.16796849999991537,None,,,,,,185,0,184,835.6892680999999,,,,,,,,,,,,,,,,,,,,,,,835.6735712,835.6892680999999,836.1732175,,,,,,,,,,,,,,836.200728,,,,,,,,,,,,,836.1979755,836.200728,836.200728,836.200728,839.1895927,f,2.464995700000145,0.16796849999991537,839.1897947,839.1898592,None,,,,,,,,,,,,,,,,,00048,001,2026-01-24_15h11.48.563,MST_task,2024.2.0,59.88153038028976,2026-01-24 15h11.55.342861 +0530,
