thisN,thisTrialN,thisRepN,key_resp_3.keys,key_resp_3.rt,key_resp_3.duration,trials.thisRepN,trials.thisTrialN,trials.thisN,thisRow.t,notes,intro_page.started,text.started,key_resp.started,intro_page.stopped,key_resp.keys,key_resp.rt,key_resp.duration,instructions.started,text_2.started,key_resp_2.started,instructions.stopped,key_resp_2.keys,key_resp_2.rt,key_resp_2.duration,demo1.started,image_1.started,image_2.started,text_7.started,key_resp_6.started,text_9.started,demo1.stopped,key_resp_6.keys,key_resp_6.rt,key_resp_6.duration,demo2.started,image_5.started,image_6.started,text_11.started,text_12.started,key_resp_8.started,demo2.stopped,key_resp_8.keys,key_resp_8.rt,key_resp_8.duration,demo_conclusion.started,text_13.started,key_resp_9.started,demo_conclusion.stopped,key_resp_9.keys,key_resp_9.rt,key_resp_9.duration,start_test.started,text_6.started,key_resp_5.started,start_test.stopped,key_resp_5.keys,key_resp_5.rt,key_resp_5.duration,ISI.started,text_4.started,text_4.stopped,ISI.stopped,routine_1.started,image.started,text_3.started,key_resp_3.started,routine_1.stopped,image_path,position_of_stimuli,trials.key_resp_3.keys,trials.key_resp_3.rt,trials.key_resp_3.duration,End_page.started,text_5.started,key_resp_4.started,End_page.stopped,key_resp_4.keys,key_resp_4.rt,key_resp_4.duration,participant,session,date,expName,psychopyVersion,frameRate,expStart,
,,,,,,,,,,,0.0013519999920390546,0.003123100002994761,0.003123100002994761,4.738403800001834,space,4.669147300010081,None,,,,,,,,,,,,,,,,,,,,,,,,,,,,,,,,,,,,,,,,,,,,,,,,,,,,,,,,,,,,,,,00043,001,2026-01-23_22h08.45.877,MST_test,2024.2.0,60.45437508742572,2026-01-23 22h08.57.139485 +0530,
,,,,,,,,,,,,,,,,,,4.738451499986695,4.748544299975038,4.748544299975038,14.969632499996806,space,10.219221600011224,None,,,,,,,,,,,,,,,,,,,,,,,,,,,,,,,,,,,,,,,,,,,,,,,,,,,,,,,,00043,001,2026-01-23_22h08.45.877,MST_test,2024.2.0,60.45437508742572,2026-01-23 22h08.57.139485 +0530,
,,,,,,,,,,,,,,,,,,,,,,,,,14.969668899982935,14.98586859999341,14.98586859999341,14.98586859999341,14.98586859999341,14.98586859999341,26.10297389997868,space,11.102973100001691,None,,,,,,,,,,,,,,,,,,,,,,,,,,,,,,,,,,,,,,,,,,,,,,00043,001,2026-01-23_22h08.45.877,MST_test,2024.2.0,60.45437508742572,2026-01-23 22h08.57.139485 +0530,
,,,,,,,,,,,,,,,,,,,,,,,,,,,,,,,,,,,26.103012999985367,26.119541399995796,26.119541399995796,26.119541399995796,26.119541399995796,26.119541399995796,28.452821499988204,space,2.3196669000026304,None,,,,,,,,,,,,,,,,,,,,,,,,,,,,,,,,,,,,00043,001,2026-01-23_22h08.45.877,MST_test,2024.2.0,60.45437508742572,2026-01-23 22h08.57.139485 +0530,
,,,,,,,,,,,,,,,,,,,,,,,,,,,,,,,,,,,,,,,,,,,,,28.45286279998254,28.46834459999809,28.46834459999809,42.83582869998645,space,14.35500690000481,None,,,,,,,,,,,,,,,,,,,,,,,,,,,,,00043,001,2026-01-23_22h08.45.877,MST_test,2024.2.0,60.45437508742572,2026-01-23 22h08.57.139485 +0530,
,,,,,,,,,,,,,,,,,,,,,,,,,,,,,,,,,,,,,,,,,,,,,,,,,,,,42.835865399974864,42.85284419998061,42.85284419998061,99.40308910000022,space,56.53859690000536,None,,,,,,,,,,,,,,,,,,,,,,00043,001,2026-01-23_22h08.45.877,MST_test,2024.2.0,60.45437508742572,2026-01-23 22h08.57.139485 +0530,
0,0,1,n,6.044757499999832,None,1,0,0,99.41882110000006,,,,,,,,,,,,,,,,,,,,,,,,,,,,,,,,,,,,,,,,,,,,,,,,,,99.40769609998097,99.41882110000006,99.92229409998981,99.90204239997547,99.91890150000108,99.92229409998981,99.92229409998981,99.92229409998981,105.96941900000093,Objects\016a.jpg,pre,n,6.044757499999832,None,,,,,,,,00043,001,2026-01-23_22h08.45.877,MST_test,2024.2.0,60.45437508742572,2026-01-23 22h08.57.139485 +0530,
1,0,2,n,2.134663200005889,None,2,0,1,105.98516369998106,,,,,,,,,,,,,,,,,,,,,,,,,,,,,,,,,,,,,,,,,,,,,,,,,,105.9695341999759,105.98516369998106,106.48836459999438,106.46866449998925,106.485466299986,106.48836459999438,106.48836459999438,106.48836459999438,108.63638260000153,Scenes\111b.jpg,pre,n,2.134663200005889,None,,,,,,,,00043,001,2026-01-23_22h08.45.877,MST_test,2024.2.0,60.45437508742572,2026-01-23 22h08.57.139485 +0530,
2,0,3,n,1.4941459999827202,None,3,0,2,108.65167609998025,,,,,,,,,,,,,,,,,,,,,,,,,,,,,,,,,,,,,,,,,,,,,,,,,,108.63650100000086,108.65167609998025,109.16278479999164,109.13541999997688,109.1602789000026,109.16278479999164,109.16278479999164,109.16278479999164,110.670796099992,Scenes\047a.jpg,pre,n,1.4941459999827202,None,,,,,,,,00043,001,2026-01-23_22h08.45.877,MST_test,2024.2.0,60.45437508742572,2026-01-23 22h08.57.139485 +0530,
3,0,4,n,0.7024570000066888,None,4,0,3,110.68516979998094,,,,,,,,,,,,,,,,,,,,,,,,,,,,,,,,,,,,,,,,,,,,,,,,,,110.67093849999947,110.68516979998094,111.18514489999507,111.1690579999995,111.18201560000307,111.18514489999507,111.18514489999507,111.18514489999507,111.90306229999987,Objects\189a.jpg,mid,n,0.7024570000066888,None,,,,,,,,00043,001,2026-01-23_22h08.45.877,MST_test,2024.2.0,60.45437508742572,2026-01-23 22h08.57.139485 +0530,
4,0,5,n,1.5733349000220187,None,5,0,4,111.91841389998444,,,,,,,,,,,,,,,,,,,,,,,,,,,,,,,,,,,,,,,,,,,,,,,,,,111.90318439999828,111.91841389998444,112.41864049999276,112.40191429998958,112.41400599997723,112.41864049999276,112.41864049999276,112.41864049999276,114.00264089999837,Foils\scenes11.jpg,none,n,1.5733349000220187,None,,,,,,,,00043,001,2026-01-23_22h08.45.877,MST_test,2024.2.0,60.45437508742572,2026-01-23 22h08.57.139485 +0530,
5,0,6,n,1.0442212999914773,None,6,0,5,114.01830779999727,,,,,,,,,,,,,,,,,,,,,,,,,,,,,,,,,,,,,,,,,,,,,,,,,,114.00275600000168,114.01830779999727,114.52343279999332,114.50205249999999,114.52096049999818,114.52343279999332,114.52343279999332,114.52343279999332,115.56915609998396,Scenes\134a.jpg,mid,n,1.0442212999914773,None,,,,,,,,00043,001,2026-01-23_22h08.45.877,MST_test,2024.2.0,60.45437508742572,2026-01-23 22h08.57.139485 +0530,
6,0,7,n,1.2096454000275116,None,7,0,6,115.58503309998196,,,,,,,,,,,,,,,,,,,,,,,,,,,,,,,,,,,,,,,,,,,,,,,,,,115.56927049998194,115.58503309998196,116.08546079997905,116.06890869999188,116.08011009998154,116.08546079997905,116.08546079997905,116.08546079997905,117.30274539999664,Objects\068b.jpg,pre,n,1.2096454000275116,None,,,,,,,,00043,001,2026-01-23_22h08.45.877,MST_test,2024.2.0,60.45437508742572,2026-01-23 22h08.57.139485 +0530,
7,0,8,n,1.1906929000106174,None,8,0,7,117.31920919998083,,,,,,,,,,,,,,,,,,,,,,,,,,,,,,,,,,,,,,,,,,,,,,,,,,117.30285149998963,117.31920919998083,117.82517749999533,117.80226460000267,117.8228487999877,117.82517749999533,117.82517749999533,117.82517749999533,119.01938719997997,Scenes\106a.jpg,pre,n,1.1906929000106174,None,,,,,,,,00043,001,2026-01-23_22h08.45.877,MST_test,2024.2.0,60.45437508742572,2026-01-23 22h08.57.139485 +0530,
8,0,9,n,0.6879024999798276,None,9,0,8,119.03501749999123,,,,,,,,,,,,,,,,,,,,,,,,,,,,,,,,,,,,,,,,,,,,,,,,,,119.01950319999014,119.03501749999123,119.5355375999934,119.51903559998027,119.53040999997756,119.5355375999934,119.5355375999934,119.5355375999934,120.23643530000118,Objects\110b.jpg,pre,n,0.6879024999798276,None,,,,,,,,00043,001,2026-01-23_22h08.45.877,MST_test,2024.2.0,60.45437508742572,2026-01-23 22h08.57.139485 +0530,
9,0,10,n,2.759611399989808,None,10,0,9,120.25163069998962,,,,,,,,,,,,,,,,,,,,,,,,,,,,,,,,,,,,,,,,,,,,,,,,,,120.23656109999865,120.25163069998962,120.75217269998393,120.73611169998185,120.74849339999491,120.75217269998393,120.75217269998393,120.75217269998393,123.51945199997863,Scenes\098a.jpg,pre,n,2.759611399989808,None,,,,,,,,00043,001,2026-01-23_22h08.45.877,MST_test,2024.2.0,60.45437508742572,2026-01-23 22h08.57.139485 +0530,
10,0,11,n,1.489086200017482,None,11,0,10,123.53512819999014,,,,,,,,,,,,,,,,,,,,,,,,,,,,,,,,,,,,,,,,,,,,,,,,,,123.51956389998668,123.53512819999014,124.03855549998116,124.01872559997719,124.03531139998813,124.03855549998116,124.03855549998116,124.03855549998116,125.53575640000054,Scenes\186b.jpg,post,n,1.489086200017482,None,,,,,,,,00043,001,2026-01-23_22h08.45.877,MST_test,2024.2.0,60.45437508742572,2026-01-23 22h08.57.139485 +0530,
11,0,12,n,0.5537304000172298,None,12,0,11,125.5525177999807,,,,,,,,,,,,,,,,,,,,,,,,,,,,,,,,,,,,,,,,,,,,,,,,,,125.53586569998879,125.5525177999807,126.05342169999494,126.03556859999662,126.04623849998461,126.05342169999494,126.05342169999494,126.05342169999494,126.61959930000012,Foils\121a.jpg,none,n,0.5537304000172298,None,,,,,,,,00043,001,2026-01-23_22h08.45.877,MST_test,2024.2.0,60.45437508742572,2026-01-23 22h08.57.139485 +0530,
12,0,13,n,3.461851200001547,None,13,0,12,126.63579489997937,,,,,,,,,,,,,,,,,,,,,,,,,,,,,,,,,,,,,,,,,,,,,,,,,,126.61971800000174,126.63579489997937,127.13764249999076,127.11896880000131,127.13434819999384,127.13764249999076,127.13764249999076,127.13764249999076,130.60273679997772,Scenes\177a.jpg,mid,n,3.461851200001547,None,,,,,,,,00043,001,2026-01-23_22h08.45.877,MST_test,2024.2.0,60.45437508742572,2026-01-23 22h08.57.139485 +0530,
13,0,14,n,0.5842062000010628,None,14,0,13,130.61838379999972,,,,,,,,,,,,,,,,,,,,,,,,,,,,,,,,,,,,,,,,,,,,,,,,,,130.60285389999626,130.61838379999972,131.11949899999308,131.10209309999482,131.11260510000284,131.11949899999308,131.11949899999308,131.11949899999308,131.7193574999983,Objects\158b.jpg,pre,n,0.5842062000010628,None,,,,,,,,00043,001,2026-01-23_22h08.45.877,MST_test,2024.2.0,60.45437508742572,2026-01-23 22h08.57.139485 +0530,
14,0,15,n,0.6192940000037197,None,15,0,14,131.73519069998292,,,,,,,,,,,,,,,,,,,,,,,,,,,,,,,,,,,,,,,,,,,,,,,,,,131.71946699998807,131.73519069998292,132.23591529999976,132.2185204999987,132.23334919998888,132.23591529999976,132.23591529999976,132.23591529999976,132.86937020000187,Scenes\138b.jpg,pre,n,0.6192940000037197,None,,,,,,,,00043,001,2026-01-23_22h08.45.877,MST_test,2024.2.0,60.45437508742572,2026-01-23 22h08.57.139485 +0530,
15,0,16,n,0.9505709999939427,None,16,0,15,132.88521489998675,,,,,,,,,,,,,,,,,,,,,,,,,,,,,,,,,,,,,,,,,,,,,,,,,,132.8695084999781,132.88521489998675,133.39247569997679,133.36924999998882,133.38981860000058,133.39247569997679,133.39247569997679,133.39247569997679,134.35310459998436,Scenes\189b.jpg,post,n,0.9505709999939427,None,,,,,,,,00043,001,2026-01-23_22h08.45.877,MST_test,2024.2.0,60.45437508742572,2026-01-23 22h08.57.139485 +0530,
16,0,17,n,0.7707462999969721,None,17,0,16,134.36852519999957,,,,,,,,,,,,,,,,,,,,,,,,,,,,,,,,,,,,,,,,,,,,,,,,,,134.3532229999837,134.36852519999957,134.8688329999859,134.85189099999843,134.866031499987,134.8688329999859,134.8688329999859,134.8688329999859,135.65278889998444,Scenes\163b.jpg,post,n,0.7707462999969721,None,,,,,,,,00043,001,2026-01-23_22h08.45.877,MST_test,2024.2.0,60.45437508742572,2026-01-23 22h08.57.139485 +0530,
17,0,18,n,1.0305918999947608,None,18,0,17,135.6685510999814,,,,,,,,,,,,,,,,,,,,,,,,,,,,,,,,,,,,,,,,,,,,,,,,,,135.65290819999063,135.6685510999814,136.1690607999917,136.15234639999107,136.16335779998917,136.1690607999917,136.1690607999917,136.1690607999917,137.20270080000046,Foils\086a.jpg,none,n,1.0305918999947608,None,,,,,,,,00043,001,2026-01-23_22h08.45.877,MST_test,2024.2.0,60.45437508742572,2026-01-23 22h08.57.139485 +0530,
18,0,19,n,0.600761000008788,None,19,0,18,137.2192658999993,,,,,,,,,,,,,,,,,,,,,,,,,,,,,,,,,,,,,,,,,,,,,,,,,,137.20280939998338,137.2192658999993,137.71860829999787,137.70218159997603,137.71474509997643,137.71860829999787,137.71860829999787,137.71860829999787,138.33588559998316,Scenes\123a.jpg,mid,n,0.600761000008788,None,,,,,,,,00043,001,2026-01-23_22h08.45.877,MST_test,2024.2.0,60.45437508742572,2026-01-23 22h08.57.139485 +0530,
19,0,20,n,0.6423417000041809,None,20,0,19,138.35202349998872,,,,,,,,,,,,,,,,,,,,,,,,,,,,,,,,,,,,,,,,,,,,,,,,,,138.33599529997446,138.35202349998872,138.85307899999316,138.83560689998558,138.8461894999782,138.85307899999316,138.85307899999316,138.85307899999316,139.50371520000044,Foils\scenes18.jpg,none,n,0.6423417000041809,None,,,,,,,,00043,001,2026-01-23_22h08.45.877,MST_test,2024.2.0,60.45437508742572,2026-01-23 22h08.57.139485 +0530,
20,0,21,n,1.1802082000067458,None,21,0,20,139.51835829997435,,,,,,,,,,,,,,,,,,,,,,,,,,,,,,,,,,,,,,,,,,,,,,,,,,139.50383029997465,139.51835829997435,140.0190758999961,140.00223109999206,140.0129101999919,140.0190758999961,140.0190758999961,140.0190758999961,141.2025971999974,Objects\112b.jpg,pre,n,1.1802082000067458,None,,,,,,,,00043,001,2026-01-23_22h08.45.877,MST_test,2024.2.0,60.45437508742572,2026-01-23 22h08.57.139485 +0530,
21,0,22,n,0.8796816999965813,None,22,0,21,141.2186249999795,,,,,,,,,,,,,,,,,,,,,,,,,,,,,,,,,,,,,,,,,,,,,,,,,,141.20270599998184,141.2186249999795,141.72004329998163,141.7021743999794,141.71780809998745,141.72004329998163,141.72004329998163,141.72004329998163,142.602499599976,Scenes\164a.jpg,mid,n,0.8796816999965813,None,,,,,,,,00043,001,2026-01-23_22h08.45.877,MST_test,2024.2.0,60.45437508742572,2026-01-23 22h08.57.139485 +0530,
22,0,23,n,1.2427105999959167,None,23,0,22,142.6187232999946,,,,,,,,,,,,,,,,,,,,,,,,,,,,,,,,,,,,,,,,,,,,,,,,,,142.6026101000025,142.6187232999946,143.12542389999726,143.10237209999468,143.12246649997542,143.12542389999726,143.12542389999726,143.12542389999726,144.3692280999967,Scenes\076b.jpg,pre,n,1.2427105999959167,None,,,,,,,,00043,001,2026-01-23_22h08.45.877,MST_test,2024.2.0,60.45437508742572,2026-01-23 22h08.57.139485 +0530,
23,0,24,n,0.6100813999946695,None,24,0,23,144.3849451999995,,,,,,,,,,,,,,,,,,,,,,,,,,,,,,,,,,,,,,,,,,,,,,,,,,144.36934749997454,144.3849451999995,144.8861373999971,144.86864159998368,144.87915189997875,144.8861373999971,144.8861373999971,144.8861373999971,145.50239129998954,Objects\173a.jpg,mid,n,0.6100813999946695,None,,,,,,,,00043,001,2026-01-23_22h08.45.877,MST_test,2024.2.0,60.45437508742572,2026-01-23 22h08.57.139485 +0530,
24,0,25,n,0.5034277999948245,None,25,0,24,145.51886240000022,,,,,,,,,,,,,,,,,,,,,,,,,,,,,,,,,,,,,,,,,,,,,,,,,,145.50250829997822,145.51886240000022,146.03177069997764,146.00264579997747,146.02930709999055,146.03177069997764,146.03177069997764,146.03177069997764,146.5362754999951,Foils\scenes28.jpg,none,n,0.5034277999948245,None,,,,,,,,00043,001,2026-01-23_22h08.45.877,MST_test,2024.2.0,60.45437508742572,2026-01-23 22h08.57.139485 +0530,
25,0,26,n,0.6020698999927845,None,26,0,25,146.5516908999998,,,,,,,,,,,,,,,,,,,,,,,,,,,,,,,,,,,,,,,,,,,,,,,,,,146.53638579999097,146.5516908999998,147.05308059998788,147.03576699999394,147.0466961999773,147.05308059998788,147.05308059998788,147.05308059998788,147.66971999997622,Objects\001b.jpg,pre,n,0.6020698999927845,None,,,,,,,,00043,001,2026-01-23_22h08.45.877,MST_test,2024.2.0,60.45437508742572,2026-01-23 22h08.57.139485 +0530,
26,0,27,n,0.8226065999770071,None,27,0,26,147.68508049999946,,,,,,,,,,,,,,,,,,,,,,,,,,,,,,,,,,,,,,,,,,,,,,,,,,147.6698400999885,147.68508049999946,148.1854637999786,148.16900929997792,148.17871009997907,148.1854637999786,148.1854637999786,148.1854637999786,149.01928690000204,Objects\089a.jpg,post,n,0.8226065999770071,None,,,,,,,,00043,001,2026-01-23_22h08.45.877,MST_test,2024.2.0,60.45437508742572,2026-01-23 22h08.57.139485 +0530,
27,0,28,n,0.5997419999912381,None,28,0,27,149.03499619997456,,,,,,,,,,,,,,,,,,,,,,,,,,,,,,,,,,,,,,,,,,,,,,,,,,149.01942409999901,149.03499619997456,149.53584919997957,149.51880169997457,149.53087180000148,149.53584919997957,149.53584919997957,149.53584919997957,150.15277309998055,Scenes\014a.jpg,mid,n,0.5997419999912381,None,,,,,,,,00043,001,2026-01-23_22h08.45.877,MST_test,2024.2.0,60.45437508742572,2026-01-23 22h08.57.139485 +0530,
28,0,29,n,0.737520799972117,None,29,0,28,150.1683350999956,,,,,,,,,,,,,,,,,,,,,,,,,,,,,,,,,,,,,,,,,,,,,,,,,,150.15288099998725,150.1683350999956,150.67036309998366,150.6519160999742,150.66228099999717,150.67036309998366,150.67036309998366,150.67036309998366,151.41957479997654,Objects\014a.jpg,mid,n,0.737520799972117,None,,,,,,,,00043,001,2026-01-23_22h08.45.877,MST_test,2024.2.0,60.45437508742572,2026-01-23 22h08.57.139485 +0530,
29,0,30,n,0.535843699995894,None,30,0,29,151.43498169997474,,,,,,,,,,,,,,,,,,,,,,,,,,,,,,,,,,,,,,,,,,,,,,,,,,151.4196791999857,151.43498169997474,151.9351602999959,151.91873449998093,151.92896499999915,151.9351602999959,151.9351602999959,151.9351602999959,152.48552819999168,Objects\007b.jpg,post,n,0.535843699995894,None,,,,,,,,00043,001,2026-01-23_22h08.45.877,MST_test,2024.2.0,60.45437508742572,2026-01-23 22h08.57.139485 +0530,
30,0,31,n,0.4622572000080254,None,31,0,30,152.50258529998246,,,,,,,,,,,,,,,,,,,,,,,,,,,,,,,,,,,,,,,,,,,,,,,,,,152.4856447999773,152.50258529998246,,152.98579069998232,152.99681909999344,153.0018568999949,153.0018568999949,153.0018568999949,153.46978970000055,Foils\033a.jpg,none,n,0.4622572000080254,None,,,,,,,,00043,001,2026-01-23_22h08.45.877,MST_test,2024.2.0,60.45437508742572,2026-01-23 22h08.57.139485 +0530,
31,0,32,n,0.6056396000203677,None,32,0,31,153.48520199998165,,,,,,,,,,,,,,,,,,,,,,,,,,,,,,,,,,,,,,,,,,,,,,,,,,153.46990759999608,153.48520199998165,153.98614999998244,153.96905600000173,153.9836036999768,153.98614999998244,153.98614999998244,153.98614999998244,154.6023875999963,Scenes\065a.jpg,pre,n,0.6056396000203677,None,,,,,,,,00043,001,2026-01-23_22h08.45.877,MST_test,2024.2.0,60.45437508742572,2026-01-23 22h08.57.139485 +0530,
32,0,33,n,3.688252099993406,None,33,0,32,154.6184885999828,,,,,,,,,,,,,,,,,,,,,,,,,,,,,,,,,,,,,,,,,,,,,,,,,,154.60250419998192,154.6184885999828,155.119537999999,155.1019699999888,155.1128344000026,155.119537999999,155.119537999999,155.119537999999,158.8195541999885,Objects\018b.jpg,post,n,3.688252099993406,None,,,,,,,,00043,001,2026-01-23_22h08.45.877,MST_test,2024.2.0,60.45437508742572,2026-01-23 22h08.57.139485 +0530,
33,0,34,n,0.8143851999775507,None,34,0,33,158.83498259997577,,,,,,,,,,,,,,,,,,,,,,,,,,,,,,,,,,,,,,,,,,,,,,,,,,158.81966469998588,158.83498259997577,159.33708309999201,159.3188485999999,159.33441959999618,159.33708309999201,159.33708309999201,159.33708309999201,160.15307169998414,Scenes\126a.jpg,mid,n,0.8143851999775507,None,,,,,,,,00043,001,2026-01-23_22h08.45.877,MST_test,2024.2.0,60.45437508742572,2026-01-23 22h08.57.139485 +0530,
34,0,35,n,0.5265096999937668,None,35,0,34,160.168417399982,,,,,,,,,,,,,,,,,,,,,,,,,,,,,,,,,,,,,,,,,,,,,,,,,,160.1531866999867,160.168417399982,160.68122810000204,160.65254589999677,160.67858539998997,160.68122810000204,160.68122810000204,160.68122810000204,161.21940109998104,Scenes\025b.jpg,post,n,0.5265096999937668,None,,,,,,,,00043,001,2026-01-23_22h08.45.877,MST_test,2024.2.0,60.45437508742572,2026-01-23 22h08.57.139485 +0530,
35,0,36,n,0.9050295999913942,None,36,0,35,161.23498259999906,,,,,,,,,,,,,,,,,,,,,,,,,,,,,,,,,,,,,,,,,,,,,,,,,,161.21951499997522,161.23498259999906,161.74239669999224,161.7188544999808,161.7395611999964,161.74239669999224,161.74239669999224,161.74239669999224,162.65293069998734,Scenes\004b.jpg,mid,n,0.9050295999913942,None,,,,,,,,00043,001,2026-01-23_22h08.45.877,MST_test,2024.2.0,60.45437508742572,2026-01-23 22h08.57.139485 +0530,
36,0,37,n,0.6944972000201233,None,37,0,36,162.66836179999518,,,,,,,,,,,,,,,,,,,,,,,,,,,,,,,,,,,,,,,,,,,,,,,,,,162.65305829999852,162.66836179999518,163.16893189999973,163.15193149997503,163.16240569998627,163.16893189999973,163.16893189999973,163.16893189999973,163.86961369999335,Objects\080b.jpg,post,n,0.6944972000201233,None,,,,,,,,00043,001,2026-01-23_22h08.45.877,MST_test,2024.2.0,60.45437508742572,2026-01-23 22h08.57.139485 +0530,
37,0,38,n,1.966000400017947,None,38,0,37,163.8852162999974,,,,,,,,,,,,,,,,,,,,,,,,,,,,,,,,,,,,,,,,,,,,,,,,,,163.86972960000276,163.8852162999974,164.38563179998891,164.36887029997888,164.37864839998656,164.38563179998891,164.38563179998891,164.38563179998891,166.3527210999746,Objects\011a.jpg,pre,n,1.966000400017947,None,,,,,,,,00043,001,2026-01-23_22h08.45.877,MST_test,2024.2.0,60.45437508742572,2026-01-23 22h08.57.139485 +0530,
38,0,39,n,0.7615869000146631,None,39,0,38,166.36850039998535,,,,,,,,,,,,,,,,,,,,,,,,,,,,,,,,,,,,,,,,,,,,,,,,,,166.35284659999888,166.36850039998535,166.86990559997503,166.85241279998445,166.8635117999802,166.86990559997503,166.86990559997503,166.86990559997503,167.63582669998868,Foils\057a.jpg,none,n,0.7615869000146631,None,,,,,,,,00043,001,2026-01-23_22h08.45.877,MST_test,2024.2.0,60.45437508742572,2026-01-23 22h08.57.139485 +0530,
39,0,40,n,0.9603023999952711,None,40,0,39,167.6524826999812,,,,,,,,,,,,,,,,,,,,,,,,,,,,,,,,,,,,,,,,,,,,,,,,,,167.63594419998117,167.6524826999812,168.1588053999876,168.13585709998733,168.15645729997777,168.1588053999876,168.1588053999876,168.1588053999876,169.1359717999876,Scenes\167a.jpg,mid,n,0.9603023999952711,None,,,,,,,,00043,001,2026-01-23_22h08.45.877,MST_test,2024.2.0,60.45437508742572,2026-01-23 22h08.57.139485 +0530,
40,0,41,n,1.0989595999999437,None,41,0,40,169.15179389997502,,,,,,,,,,,,,,,,,,,,,,,,,,,,,,,,,,,,,,,,,,,,,,,,,,169.13608810000005,169.15179389997502,169.65207329997793,169.63589879998472,169.6463347999961,169.65207329997793,169.65207329997793,169.65207329997793,170.75323339999886,Objects\169b.jpg,pre,n,1.0989595999999437,None,,,,,,,,00043,001,2026-01-23_22h08.45.877,MST_test,2024.2.0,60.45437508742572,2026-01-23 22h08.57.139485 +0530,
41,0,42,n,0.5707906999741681,None,42,0,41,170.76844879999408,,,,,,,,,,,,,,,,,,,,,,,,,,,,,,,,,,,,,,,,,,,,,,,,,,170.75336639999296,170.76844879999408,171.26863909998792,171.25216439997894,171.2637165999913,171.26863909998792,171.26863909998792,171.26863909998792,171.85244099999545,Foils\017a.jpg,none,n,0.5707906999741681,None,,,,,,,,00043,001,2026-01-23_22h08.45.877,MST_test,2024.2.0,60.45437508742572,2026-01-23 22h08.57.139485 +0530,
42,0,43,n,2.046593999984907,None,43,0,42,171.86838949998491,,,,,,,,,,,,,,,,,,,,,,,,,,,,,,,,,,,,,,,,,,,,,,,,,,171.85255799998413,171.86838949998491,172.36875839999993,172.352052000002,172.36202909998246,172.36875839999993,172.36875839999993,172.36875839999993,174.41946720000124,Objects\010a.jpg,pre,n,2.046593999984907,None,,,,,,,,00043,001,2026-01-23_22h08.45.877,MST_test,2024.2.0,60.45437508742572,2026-01-23 22h08.57.139485 +0530,
43,0,44,n,0.9037187999929301,None,44,0,43,174.4350560999883,,,,,,,,,,,,,,,,,,,,,,,,,,,,,,,,,,,,,,,,,,,,,,,,,,174.4195780000009,174.4350560999883,174.93610589997843,174.9192866999947,174.92908859997988,174.93610589997843,174.93610589997843,174.93610589997843,175.8526007999899,Objects\017a.jpg,mid,n,0.9037187999929301,None,,,,,,,,00043,001,2026-01-23_22h08.45.877,MST_test,2024.2.0,60.45437508742572,2026-01-23 22h08.57.139485 +0530,
44,0,45,n,0.7751777000084985,None,45,0,44,175.86876640000264,,,,,,,,,,,,,,,,,,,,,,,,,,,,,,,,,,,,,,,,,,,,,,,,,,175.85271189999185,175.86876640000264,176.36868749998393,176.3520329000021,176.36277909998898,176.36868749998393,176.36868749998393,176.36868749998393,177.15296379997744,Objects\053b.jpg,mid,n,0.7751777000084985,None,,,,,,,,00043,001,2026-01-23_22h08.45.877,MST_test,2024.2.0,60.45437508742572,2026-01-23 22h08.57.139485 +0530,
45,0,46,o,7.794258000008995,None,46,0,45,177.1683668999758,,,,,,,,,,,,,,,,,,,,,,,,,,,,,,,,,,,,,,,,,,,,,,,,,,177.15309439998236,177.1683668999758,177.66898299998138,177.6525418999954,177.66268729997682,177.66898299998138,177.66898299998138,177.66898299998138,185.4698562999838,Objects\056a.jpg,post,o,7.794258000008995,None,,,,,,,,00043,001,2026-01-23_22h08.45.877,MST_test,2024.2.0,60.45437508742572,2026-01-23 22h08.57.139485 +0530,
46,0,47,o,1.3744424000033177,None,47,0,46,185.4849689999828,,,,,,,,,,,,,,,,,,,,,,,,,,,,,,,,,,,,,,,,,,,,,,,,,,185.46997009997722,185.4849689999828,185.9853460000013,185.9690866000019,185.9811118999787,185.9853460000013,185.9853460000013,185.9853460000013,187.3696448999981,Objects\030a.jpg,pre,o,1.3744424000033177,None,,,,,,,,00043,001,2026-01-23_22h08.45.877,MST_test,2024.2.0,60.45437508742572,2026-01-23 22h08.57.139485 +0530,
47,0,48,o,1.0582921000022907,None,48,0,47,187.38553179998416,,,,,,,,,,,,,,,,,,,,,,,,,,,,,,,,,,,,,,,,,,,,,,,,,,187.36976199998753,187.38553179998416,187.8853399999789,187.86940279998817,187.87965749998693,187.8853399999789,187.8853399999789,187.8853399999789,188.9524792000011,Objects\029b.jpg,post,o,1.0582921000022907,None,,,,,,,,00043,001,2026-01-23_22h08.45.877,MST_test,2024.2.0,60.45437508742572,2026-01-23 22h08.57.139485 +0530,
48,0,49,o,2.450750699994387,None,49,0,48,188.96868929997436,,,,,,,,,,,,,,,,,,,,,,,,,,,,,,,,,,,,,,,,,,,,,,,,,,188.95259619998978,188.96868929997436,189.46873219998088,189.45234199997503,189.46231659999467,189.46873219998088,189.46873219998088,189.46873219998088,191.93580959999235,Objects\160b.jpg,mid,o,2.450750699994387,None,,,,,,,,00043,001,2026-01-23_22h08.45.877,MST_test,2024.2.0,60.45437508742572,2026-01-23 22h08.57.139485 +0530,
49,0,50,n,5.211692299984861,None,50,0,49,191.9518010999891,,,,,,,,,,,,,,,,,,,,,,,,,,,,,,,,,,,,,,,,,,,,,,,,,,191.93591719999677,191.9518010999891,192.45187029999215,192.43578770000022,192.44697550000274,192.45187029999215,192.45187029999215,192.45187029999215,197.66920849998132,Foils\026a.jpg,none,n,5.211692299984861,None,,,,,,,,00043,001,2026-01-23_22h08.45.877,MST_test,2024.2.0,60.45437508742572,2026-01-23 22h08.57.139485 +0530,
50,0,51,n,8.20634100001189,None,51,0,50,197.6854122999939,,,,,,,,,,,,,,,,,,,,,,,,,,,,,,,,,,,,,,,,,,,,,,,,,,197.6693249999953,197.6854122999939,198.18542949997936,198.1689236999955,198.1800108999887,198.18542949997936,198.18542949997936,198.18542949997936,206.40237799999886,Foils\010a.jpg,none,n,8.20634100001189,None,,,,,,,,00043,001,2026-01-23_22h08.45.877,MST_test,2024.2.0,60.45437508742572,2026-01-23 22h08.57.139485 +0530,
51,0,52,n,1.4777292000071611,None,52,0,51,206.41822789999424,,,,,,,,,,,,,,,,,,,,,,,,,,,,,,,,,,,,,,,,,,,,,,,,,,206.402485300001,206.41822789999424,206.92179029999534,206.90187739999965,206.91933319999953,206.92179029999534,206.92179029999534,206.92179029999534,208.40215159999207,Foils\scenes27.jpg,none,n,1.4777292000071611,None,,,,,,,,00043,001,2026-01-23_22h08.45.877,MST_test,2024.2.0,60.45437508742572,2026-01-23 22h08.57.139485 +0530,
52,0,53,n,5.176564100023825,None,53,0,52,208.41824909998104,,,,,,,,,,,,,,,,,,,,,,,,,,,,,,,,,,,,,,,,,,,,,,,,,,208.40226319999783,208.41824909998104,208.91894849998062,208.90247199998703,208.9147008,208.91894849998062,208.91894849998062,208.91894849998062,214.10235669999383,Objects\104b.jpg,mid,n,5.176564100023825,None,,,,,,,,00043,001,2026-01-23_22h08.45.877,MST_test,2024.2.0,60.45437508742572,2026-01-23 22h08.57.139485 +0530,
53,0,54,n,2.3874318999878597,None,54,0,53,214.11874700000044,,,,,,,,,,,,,,,,,,,,,,,,,,,,,,,,,,,,,,,,,,,,,,,,,,214.10247849998996,214.11874700000044,214.62014949999866,214.60226039998815,214.61765199998626,214.62014949999866,214.62014949999866,214.62014949999866,217.01931329999934,Scenes\173b.jpg,mid,n,2.3874318999878597,None,,,,,,,,00043,001,2026-01-23_22h08.45.877,MST_test,2024.2.0,60.45437508742572,2026-01-23 22h08.57.139485 +0530,
54,0,55,s,2.5996676000067964,None,55,0,54,217.0352149999817,,,,,,,,,,,,,,,,,,,,,,,,,,,,,,,,,,,,,,,,,,,,,,,,,,217.01943169999868,217.0352149999817,217.5440395999758,217.51924229998258,217.54135309997946,217.5440395999758,217.5440395999758,217.5440395999758,220.15261399999144,Scenes\081b.jpg,pre,s,2.5996676000067964,None,,,,,,,,00043,001,2026-01-23_22h08.45.877,MST_test,2024.2.0,60.45437508742572,2026-01-23 22h08.57.139485 +0530,
55,0,56,n,2.8851977000012994,None,56,0,55,220.16862759998185,,,,,,,,,,,,,,,,,,,,,,,,,,,,,,,,,,,,,,,,,,,,,,,,,,220.15272519999417,220.16862759998185,220.6752342999971,220.65221579998615,220.67286399999284,220.6752342999971,220.6752342999971,220.6752342999971,223.56929249997484,Scenes\003a.jpg,pre,n,2.8851977000012994,None,,,,,,,,00043,001,2026-01-23_22h08.45.877,MST_test,2024.2.0,60.45437508742572,2026-01-23 22h08.57.139485 +0530,
56,0,57,s,4.225976900022943,None,57,0,56,223.58492029999616,,,,,,,,,,,,,,,,,,,,,,,,,,,,,,,,,,,,,,,,,,,,,,,,,,223.56940649999888,223.58492029999616,224.0858189999999,224.06844799997634,224.0822870999982,224.0858189999999,224.0858189999999,224.0858189999999,228.31926209997619,Scenes\140b.jpg,post,s,4.225976900022943,None,,,,,,,,00043,001,2026-01-23_22h08.45.877,MST_test,2024.2.0,60.45437508742572,2026-01-23 22h08.57.139485 +0530,
57,0,58,n,4.6356518999964464,None,58,0,57,228.33494599998812,,,,,,,,,,,,,,,,,,,,,,,,,,,,,,,,,,,,,,,,,,,,,,,,,,228.31937869999092,228.33494599998812,228.83595159999095,228.81940829998348,228.83048039997811,228.83595159999095,228.83595159999095,228.83595159999095,233.4859922999749,Foils\009a.jpg,none,n,4.6356518999964464,None,,,,,,,,00043,001,2026-01-23_22h08.45.877,MST_test,2024.2.0,60.45437508742572,2026-01-23 22h08.57.139485 +0530,
58,0,59,o,2.7015239000029396,None,59,0,58,233.50167959998362,,,,,,,,,,,,,,,,,,,,,,,,,,,,,,,,,,,,,,,,,,,,,,,,,,233.48611559998244,233.50167959998362,234.00202279997757,233.9862923999899,233.99695279999287,234.00202279997757,234.00202279997757,234.00202279997757,236.71912949997932,Objects\144a.jpg,mid,o,2.7015239000029396,None,,,,,,,,00043,001,2026-01-23_22h08.45.877,MST_test,2024.2.0,60.45437508742572,2026-01-23 22h08.57.139485 +0530,
59,0,60,o,1.0760279999813065,None,60,0,59,236.73516609999933,,,,,,,,,,,,,,,,,,,,,,,,,,,,,,,,,,,,,,,,,,,,,,,,,,236.71923570000217,236.73516609999933,237.23526789998868,237.21875949998503,237.22856589997537,237.23526789998868,237.23526789998868,237.23526789998868,238.31896259999485,Objects\165a.jpg,pre,o,1.0760279999813065,None,,,,,,,,00043,001,2026-01-23_22h08.45.877,MST_test,2024.2.0,60.45437508742572,2026-01-23 22h08.57.139485 +0530,
60,0,61,o,1.5008391999872401,None,61,0,60,238.3349664999987,,,,,,,,,,,,,,,,,,,,,,,,,,,,,,,,,,,,,,,,,,,,,,,,,,238.31908049999038,238.3349664999987,238.83535889998893,238.81932509999024,238.8292465999839,238.83535889998893,238.83535889998893,238.83535889998893,240.33676159998868,Objects\040a.jpg,mid,o,1.5008391999872401,None,,,,,,,,00043,001,2026-01-23_22h08.45.877,MST_test,2024.2.0,60.45437508742572,2026-01-23 22h08.57.139485 +0530,
61,0,62,s,3.6637585000135005,None,62,0,61,240.35143169999355,,,,,,,,,,,,,,,,,,,,,,,,,,,,,,,,,,,,,,,,,,,,,,,,,,240.33688019998954,240.35143169999355,240.85590149997734,240.83595099998638,240.85358139997697,240.85590149997734,240.85590149997734,240.85590149997734,244.53578629999538,Scenes\166b.jpg,mid,s,3.6637585000135005,None,,,,,,,,00043,001,2026-01-23_22h08.45.877,MST_test,2024.2.0,60.45437508742572,2026-01-23 22h08.57.139485 +0530,
62,0,63,n,1.3470756000024267,None,63,0,62,244.5517142000026,,,,,,,,,,,,,,,,,,,,,,,,,,,,,,,,,,,,,,,,,,,,,,,,,,244.5358992999827,244.5517142000026,245.0520864999853,245.03533159999643,245.04645850000088,245.0520864999853,245.0520864999853,245.0520864999853,246.402365499991,Foils\020b.jpg,none,n,1.3470756000024267,None,,,,,,,,00043,001,2026-01-23_22h08.45.877,MST_test,2024.2.0,60.45437508742572,2026-01-23 22h08.57.139485 +0530,
63,0,64,n,3.9371917999815196,None,64,0,63,246.4186173999915,,,,,,,,,,,,,,,,,,,,,,,,,,,,,,,,,,,,,,,,,,,,,,,,,,246.40249419998145,246.4186173999915,246.91870359997847,246.90194679997512,246.91205499999342,246.91870359997847,246.91870359997847,246.91870359997847,250.8690761999751,Foils\058a.jpg,none,n,3.9371917999815196,None,,,,,,,,00043,001,2026-01-23_22h08.45.877,MST_test,2024.2.0,60.45437508742572,2026-01-23 22h08.57.139485 +0530,
64,0,65,n,1.0381134000199381,None,65,0,64,250.88552619999973,,,,,,,,,,,,,,,,,,,,,,,,,,,,,,,,,,,,,,,,,,,,,,,,,,250.8691881999839,250.88552619999973,251.38529449998168,251.36884169999394,251.3792645999929,251.38529449998168,251.38529449998168,251.38529449998168,252.43562589999055,Foils\081a.jpg,none,n,1.0381134000199381,None,,,,,,,,00043,001,2026-01-23_22h08.45.877,MST_test,2024.2.0,60.45437508742572,2026-01-23 22h08.57.139485 +0530,
65,0,66,n,0.9678881999861915,None,66,0,65,252.4523147,,,,,,,,,,,,,,,,,,,,,,,,,,,,,,,,,,,,,,,,,,,,,,,,,,252.43574029998854,252.4523147,,252.9357183999964,252.94608669998706,252.9521187999926,252.9521187999926,252.9521187999926,253.9363315999799,Foils\042a.jpg,none,n,0.9678881999861915,None,,,,,,,,00043,001,2026-01-23_22h08.45.877,MST_test,2024.2.0,60.45437508742572,2026-01-23 22h08.57.139485 +0530,
66,0,67,o,1.5704096999834292,None,67,0,66,253.95142599998508,,,,,,,,,,,,,,,,,,,,,,,,,,,,,,,,,,,,,,,,,,,,,,,,,,253.93644009999116,253.95142599998508,254.4532874999859,254.43558910000138,254.45077889997629,254.4532874999859,254.4532874999859,254.4532874999859,256.03625979999197,Scenes\044a.jpg,post,o,1.5704096999834292,None,,,,,,,,00043,001,2026-01-23_22h08.45.877,MST_test,2024.2.0,60.45437508742572,2026-01-23 22h08.57.139485 +0530,
67,0,68,n,3.3363005999999586,None,68,0,67,256.0517596999998,,,,,,,,,,,,,,,,,,,,,,,,,,,,,,,,,,,,,,,,,,,,,,,,,,256.036366299988,256.0517596999998,256.5594751999888,256.535894599976,256.55660559999524,256.5594751999888,256.5594751999888,256.5594751999888,259.90262949999305,Scenes\175b.jpg,mid,n,3.3363005999999586,None,,,,,,,,00043,001,2026-01-23_22h08.45.877,MST_test,2024.2.0,60.45437508742572,2026-01-23 22h08.57.139485 +0530,
68,0,69,o,2.0208290000155102,None,69,0,68,259.91826509998646,,,,,,,,,,,,,,,,,,,,,,,,,,,,,,,,,,,,,,,,,,,,,,,,,,259.90277259997674,259.91826509998646,260.42670119999093,260.4023636999773,260.42316379997646,260.42670119999093,260.42670119999093,260.42670119999093,262.4537422999856,Scenes\015b.jpg,pre,o,2.0208290000155102,None,,,,,,,,00043,001,2026-01-23_22h08.45.877,MST_test,2024.2.0,60.45437508742572,2026-01-23 22h08.57.139485 +0530,
69,0,70,n,1.7268719999992754,None,70,0,69,262.46924710000167,,,,,,,,,,,,,,,,,,,,,,,,,,,,,,,,,,,,,,,,,,,,,,,,,,262.45385140000144,262.46924710000167,262.9692992999917,262.9524403999967,262.96276349999243,262.9692992999917,262.9692992999917,262.9692992999917,264.7031459999853,Foils\scenes20.jpg,none,n,1.7268719999992754,None,,,,,,,,00043,001,2026-01-23_22h08.45.877,MST_test,2024.2.0,60.45437508742572,2026-01-23 22h08.57.139485 +0530,
70,0,71,n,2.029161899990868,None,71,0,70,264.71891440000036,,,,,,,,,,,,,,,,,,,,,,,,,,,,,,,,,,,,,,,,,,,,,,,,,,264.70325500000035,264.71891440000036,265.21902540000156,265.2017150000029,265.21171669999603,265.21902540000156,265.21902540000156,265.21902540000156,267.25269839999964,Objects\134a.jpg,post,n,2.029161899990868,None,,,,,,,,00043,001,2026-01-23_22h08.45.877,MST_test,2024.2.0,60.45437508742572,2026-01-23 22h08.57.139485 +0530,
71,0,72,s,2.767112100002123,None,72,0,71,267.2692046999873,,,,,,,,,,,,,,,,,,,,,,,,,,,,,,,,,,,,,,,,,,,,,,,,,,267.25282019999577,267.2692046999873,267.76859140000306,267.7520404999959,267.762668499985,267.76859140000306,267.76859140000306,267.76859140000306,270.552415299986,Objects\094b.jpg,post,s,2.767112100002123,None,,,,,,,,00043,001,2026-01-23_22h08.45.877,MST_test,2024.2.0,60.45437508742572,2026-01-23 22h08.57.139485 +0530,
72,0,73,s,1.9219176000042353,None,73,0,72,270.5686677999911,,,,,,,,,,,,,,,,,,,,,,,,,,,,,,,,,,,,,,,,,,,,,,,,,,270.55253919999814,270.5686677999911,271.0694472999894,271.05252029999974,271.06702679998125,271.0694472999894,271.0694472999894,271.0694472999894,273.0022880999895,Scenes\172a.jpg,post,s,1.9219176000042353,None,,,,,,,,00043,001,2026-01-23_22h08.45.877,MST_test,2024.2.0,60.45437508742572,2026-01-23 22h08.57.139485 +0530,
73,0,74,s,1.3360083999868948,None,74,0,73,273.0186080999847,,,,,,,,,,,,,,,,,,,,,,,,,,,,,,,,,,,,,,,,,,,,,,,,,,273.00240339999436,273.0186080999847,273.51906639998197,273.50238999997964,273.5126327999751,273.51906639998197,273.51906639998197,273.51906639998197,274.8693612999923,Objects\149a.jpg,mid,s,1.3360083999868948,None,,,,,,,,00043,001,2026-01-23_22h08.45.877,MST_test,2024.2.0,60.45437508742572,2026-01-23 22h08.57.139485 +0530,
74,0,75,o,1.3683485000219662,None,75,0,74,274.88503819998004,,,,,,,,,,,,,,,,,,,,,,,,,,,,,,,,,,,,,,,,,,,,,,,,,,274.86947549998877,274.88503819998004,275.39124629998696,275.36861399997724,275.38847019997775,275.39124629998696,275.39124629998696,275.39124629998696,276.7693692999892,Scenes\170a.jpg,mid,o,1.3683485000219662,None,,,,,,,,00043,001,2026-01-23_22h08.45.877,MST_test,2024.2.0,60.45437508742572,2026-01-23 22h08.57.139485 +0530,
75,0,76,o,1.4174278000136837,None,76,0,75,276.78473519999534,,,,,,,,,,,,,,,,,,,,,,,,,,,,,,,,,,,,,,,,,,,,,,,,,,276.76946619999944,276.78473519999534,277.28562489998876,277.26872719998937,277.27938809999614,277.28562489998876,277.28562489998876,277.28562489998876,278.7193846000009,Objects\013a.jpg,post,o,1.4174278000136837,None,,,,,,,,00043,001,2026-01-23_22h08.45.877,MST_test,2024.2.0,60.45437508742572,2026-01-23 22h08.57.139485 +0530,
76,0,77,n,8.068055299983826,None,77,0,76,278.7355228999804,,,,,,,,,,,,,,,,,,,,,,,,,,,,,,,,,,,,,,,,,,,,,,,,,,278.71949499999755,278.7355228999804,279.2351793999842,279.21898919998785,279.22923889997764,279.2351793999842,279.2351793999842,279.2351793999842,287.31930360000115,Foils\113a.jpg,none,n,8.068055299983826,None,,,,,,,,00043,001,2026-01-23_22h08.45.877,MST_test,2024.2.0,60.45437508742572,2026-01-23 22h08.57.139485 +0530,
77,0,78,s,2.1355590000166558,None,78,0,77,287.33524549999856,,,,,,,,,,,,,,,,,,,,,,,,,,,,,,,,,,,,,,,,,,,,,,,,,,287.3194125999871,287.33524549999856,287.83941799998865,287.818747399986,287.83691919999546,287.83941799998865,287.83941799998865,287.83941799998865,289.9864484999853,Scenes\013a.jpg,pre,s,2.1355590000166558,None,,,,,,,,00043,001,2026-01-23_22h08.45.877,MST_test,2024.2.0,60.45437508742572,2026-01-23 22h08.57.139485 +0530,
78,0,79,s,1.2251961999863852,None,79,0,78,290.0015566999791,,,,,,,,,,,,,,,,,,,,,,,,,,,,,,,,,,,,,,,,,,,,,,,,,,289.986553499999,290.0015566999791,290.5023416999902,290.48590629998944,290.49761599997873,290.5023416999902,290.5023416999902,290.5023416999902,291.7361184999754,Objects\145a.jpg,post,s,1.2251961999863852,None,,,,,,,,00043,001,2026-01-23_22h08.45.877,MST_test,2024.2.0,60.45437508742572,2026-01-23 22h08.57.139485 +0530,
79,0,80,s,2.358297400001902,None,80,0,79,291.75161330000265,,,,,,,,,,,,,,,,,,,,,,,,,,,,,,,,,,,,,,,,,,,,,,,,,,291.7362377999816,291.75161330000265,292.2574764000019,292.23554719999083,292.25426190000144,292.2574764000019,292.2574764000019,292.2574764000019,294.6193662000005,Scenes\143a.jpg,pre,s,2.358297400001902,None,,,,,,,,00043,001,2026-01-23_22h08.45.877,MST_test,2024.2.0,60.45437508742572,2026-01-23 22h08.57.139485 +0530,
80,0,81,o,1.5729138999886345,None,81,0,80,294.63533499999903,,,,,,,,,,,,,,,,,,,,,,,,,,,,,,,,,,,,,,,,,,,,,,,,,,294.6194857999799,294.63533499999903,295.1391010999796,295.11913869998534,295.136259699997,295.1391010999796,295.1391010999796,295.1391010999796,296.71948229998816,Scenes\039b.jpg,post,o,1.5729138999886345,None,,,,,,,,00043,001,2026-01-23_22h08.45.877,MST_test,2024.2.0,60.45437508742572,2026-01-23 22h08.57.139485 +0530,
81,0,82,n,2.370875699998578,None,82,0,81,296.7354522999958,,,,,,,,,,,,,,,,,,,,,,,,,,,,,,,,,,,,,,,,,,,,,,,,,,296.7195866999973,296.7354522999958,297.23702939998475,297.2190130999952,297.2343196999864,297.23702939998475,297.23702939998475,297.23702939998475,299.6192226999847,Scenes\169b.jpg,mid,n,2.370875699998578,None,,,,,,,,00043,001,2026-01-23_22h08.45.877,MST_test,2024.2.0,60.45437508742572,2026-01-23 22h08.57.139485 +0530,
82,0,83,s,2.5038554000202566,None,83,0,82,299.6351031999802,,,,,,,,,,,,,,,,,,,,,,,,,,,,,,,,,,,,,,,,,,,,,,,,,,299.6193423999939,299.6351031999802,300.1354119000025,300.1187643999874,300.1294363999914,300.1354119000025,300.1354119000025,300.1354119000025,302.6527558999951,Foils\scenes1.jpg,none,s,2.5038554000202566,None,,,,,,,,00043,001,2026-01-23_22h08.45.877,MST_test,2024.2.0,60.45437508742572,2026-01-23 22h08.57.139485 +0530,
83,0,84,s,5.758392799994908,None,84,0,83,302.6683304999897,,,,,,,,,,,,,,,,,,,,,,,,,,,,,,,,,,,,,,,,,,,,,,,,,,302.65286780000315,302.6683304999897,303.1689190999896,303.1520687000011,303.1644049999886,303.1689190999896,303.1689190999896,303.1689190999896,308.9360747000028,Objects\036b.jpg,post,s,5.758392799994908,None,,,,,,,,00043,001,2026-01-23_22h08.45.877,MST_test,2024.2.0,60.45437508742572,2026-01-23 22h08.57.139485 +0530,
84,0,85,o,1.323321300005773,None,85,0,84,308.9520258999837,,,,,,,,,,,,,,,,,,,,,,,,,,,,,,,,,,,,,,,,,,,,,,,,,,308.9362140999874,308.9520258999837,309.4517493000021,309.4358221000002,309.4463343999814,309.4517493000021,309.4517493000021,309.4517493000021,310.7863761999761,Objects\003b.jpg,mid,o,1.323321300005773,None,,,,,,,,00043,001,2026-01-23_22h08.45.877,MST_test,2024.2.0,60.45437508742572,2026-01-23 22h08.57.139485 +0530,
85,0,86,o,3.0093333999975584,None,86,0,85,310.80169549997663,,,,,,,,,,,,,,,,,,,,,,,,,,,,,,,,,,,,,,,,,,,,,,,,,,310.7864909999771,310.80169549997663,311.30195619998267,311.2853131000011,311.29583139999886,311.30195619998267,311.30195619998267,311.30195619998267,314.31958899999154,Objects\102b.jpg,pre,o,3.0093333999975584,None,,,,,,,,00043,001,2026-01-23_22h08.45.877,MST_test,2024.2.0,60.45437508742572,2026-01-23 22h08.57.139485 +0530,
86,0,87,n,1.9483985000115354,None,87,0,86,314.33540149999317,,,,,,,,,,,,,,,,,,,,,,,,,,,,,,,,,,,,,,,,,,,,,,,,,,314.3197007999988,314.33540149999317,314.8506923999812,314.81874029999017,314.84771789997467,314.8506923999812,314.8506923999812,314.8506923999812,316.80264469998656,Foils\scenes23.jpg,none,n,1.9483985000115354,None,,,,,,,,00043,001,2026-01-23_22h08.45.877,MST_test,2024.2.0,60.45437508742572,2026-01-23 22h08.57.139485 +0530,
87,0,88,s,2.7207027999975253,None,88,0,87,316.8184658999962,,,,,,,,,,,,,,,,,,,,,,,,,,,,,,,,,,,,,,,,,,,,,,,,,,316.8027521999902,316.8184658999962,317.3188865999982,317.3021979999903,317.31694679998327,317.3188865999982,317.3188865999982,317.3188865999982,320.0524899000011,Objects\162a.jpg,mid,s,2.7207027999975253,None,,,,,,,,00043,001,2026-01-23_22h08.45.877,MST_test,2024.2.0,60.45437508742572,2026-01-23 22h08.57.139485 +0530,
88,0,89,n,2.1940471999987494,None,89,0,88,320.06877419998636,,,,,,,,,,,,,,,,,,,,,,,,,,,,,,,,,,,,,,,,,,,,,,,,,,320.0526028999884,320.06877419998636,320.57381709999754,320.55194199999096,320.571389299992,320.57381709999754,320.57381709999754,320.57381709999754,322.770268399996,Foils\scenes22.jpg,none,n,2.1940471999987494,None,,,,,,,,00043,001,2026-01-23_22h08.45.877,MST_test,2024.2.0,60.45437508742572,2026-01-23 22h08.57.139485 +0530,
89,0,90,s,1.6739295999868773,None,90,0,89,322.7855166999798,,,,,,,,,,,,,,,,,,,,,,,,,,,,,,,,,,,,,,,,,,,,,,,,,,322.77039209997747,322.7855166999798,323.2858102999744,323.27026540000224,323.2805315000005,323.2858102999744,323.2858102999744,323.2858102999744,324.96926939999685,Objects\153a.jpg,pre,s,1.6739295999868773,None,,,,,,,,00043,001,2026-01-23_22h08.45.877,MST_test,2024.2.0,60.45437508742572,2026-01-23 22h08.57.139485 +0530,
90,0,91,o,1.2339807999960613,None,91,0,90,324.9856043999898,,,,,,,,,,,,,,,,,,,,,,,,,,,,,,,,,,,,,,,,,,,,,,,,,,324.96938379999483,324.9856043999898,325.4852893999778,325.4687874999945,325.47862859998713,325.4852893999778,325.4852893999778,325.4852893999778,326.7198386999953,Objects\041a.jpg,post,o,1.2339807999960613,None,,,,,,,,00043,001,2026-01-23_22h08.45.877,MST_test,2024.2.0,60.45437508742572,2026-01-23 22h08.57.139485 +0530,
91,0,92,n,1.4120427999878302,None,92,0,91,326.7353726000001,,,,,,,,,,,,,,,,,,,,,,,,,,,,,,,,,,,,,,,,,,,,,,,,,,326.7199464000005,326.7353726000001,327.23556039997493,327.2187517999846,327.23003109998535,327.23556039997493,327.23556039997493,327.23556039997493,328.6526642999961,Scenes\033a.jpg,pre,n,1.4120427999878302,None,,,,,,,,00043,001,2026-01-23_22h08.45.877,MST_test,2024.2.0,60.45437508742572,2026-01-23 22h08.57.139485 +0530,
92,0,93,n,2.638272700016387,None,93,0,92,328.6685738999804,,,,,,,,,,,,,,,,,,,,,,,,,,,,,,,,,,,,,,,,,,,,,,,,,,328.65277590000187,328.6685738999804,329.16969459998654,329.15204429998994,329.16289829998277,329.16969459998654,329.16969459998654,329.16969459998654,331.81944120000117,Foils\018a.jpg,none,n,2.638272700016387,None,,,,,,,,00043,001,2026-01-23_22h08.45.877,MST_test,2024.2.0,60.45437508742572,2026-01-23 22h08.57.139485 +0530,
93,0,94,o,1.2151820000144653,None,94,0,93,331.83530059998157,,,,,,,,,,,,,,,,,,,,,,,,,,,,,,,,,,,,,,,,,,,,,,,,,,331.81955580000067,331.83530059998157,332.3363881999976,332.31931419999455,332.3337638999801,332.3363881999976,332.3363881999976,332.3363881999976,333.5532748999831,Scenes\075a.jpg,pre,o,1.2151820000144653,None,,,,,,,,00043,001,2026-01-23_22h08.45.877,MST_test,2024.2.0,60.45437508742572,2026-01-23 22h08.57.139485 +0530,
94,0,95,s,1.7790525000018533,None,95,0,94,333.5682780999923,,,,,,,,,,,,,,,,,,,,,,,,,,,,,,,,,,,,,,,,,,,,,,,,,,333.55339349998394,333.5682780999923,334.0685373999877,334.05226080000284,334.06325690000085,334.0685373999877,334.0685373999877,334.0685373999877,335.85248989998945,Scenes\016a.jpg,post,s,1.7790525000018533,None,,,,,,,,00043,001,2026-01-23_22h08.45.877,MST_test,2024.2.0,60.45437508742572,2026-01-23 22h08.57.139485 +0530,
95,0,96,o,2.0221487999951933,None,96,0,95,335.8687379999901,,,,,,,,,,,,,,,,,,,,,,,,,,,,,,,,,,,,,,,,,,,,,,,,,,335.8526094999979,335.8687379999901,336.36907059999066,336.351831899985,336.3620152999938,336.36907059999066,336.36907059999066,336.36907059999066,338.40274829999544,Objects\170a.jpg,post,o,2.0221487999951933,None,,,,,,,,00043,001,2026-01-23_22h08.45.877,MST_test,2024.2.0,60.45437508742572,2026-01-23 22h08.57.139485 +0530,
96,0,97,n,3.240417699998943,None,97,0,96,338.41845269998885,,,,,,,,,,,,,,,,,,,,,,,,,,,,,,,,,,,,,,,,,,,,,,,,,,338.40286370000103,338.41845269998885,338.919255899993,338.9023939999752,338.9143899999908,338.919255899993,338.919255899993,338.919255899993,342.1689862999774,Scenes\036b.jpg,post,n,3.240417699998943,None,,,,,,,,00043,001,2026-01-23_22h08.45.877,MST_test,2024.2.0,60.45437508742572,2026-01-23 22h08.57.139485 +0530,
97,0,98,o,1.0984860000025947,None,98,0,97,342.1852583999862,,,,,,,,,,,,,,,,,,,,,,,,,,,,,,,,,,,,,,,,,,,,,,,,,,342.1691004000022,342.1852583999862,342.68547820000094,342.66914349998115,342.6801161999756,342.68547820000094,342.68547820000094,342.68547820000094,343.78577339998446,Objects\159a.jpg,post,o,1.0984860000025947,None,,,,,,,,00043,001,2026-01-23_22h08.45.877,MST_test,2024.2.0,60.45437508742572,2026-01-23 22h08.57.139485 +0530,
98,0,99,o,1.6815329999953974,None,99,0,98,343.80154359998414,,,,,,,,,,,,,,,,,,,,,,,,,,,,,,,,,,,,,,,,,,,,,,,,,,343.7859166999988,343.80154359998414,344.30223799997475,344.2855236999749,344.29568189999554,344.30223799997475,344.30223799997475,344.30223799997475,345.98631819998263,Objects\054a.jpg,pre,o,1.6815329999953974,None,,,,,,,,00043,001,2026-01-23_22h08.45.877,MST_test,2024.2.0,60.45437508742572,2026-01-23 22h08.57.139485 +0530,
99,0,100,s,8.687376899993978,None,100,0,99,346.0015468999918,,,,,,,,,,,,,,,,,,,,,,,,,,,,,,,,,,,,,,,,,,,,,,,,,,345.9864255999855,346.0015468999918,346.5044308999786,346.48590030000196,346.5017370999849,346.5044308999786,346.5044308999786,346.5044308999786,355.20236840000143,Scenes\077b.jpg,mid,s,8.687376899993978,None,,,,,,,,00043,001,2026-01-23_22h08.45.877,MST_test,2024.2.0,60.45437508742572,2026-01-23 22h08.57.139485 +0530,
100,0,101,o,1.2173689999908675,None,101,0,100,355.21866809998755,,,,,,,,,,,,,,,,,,,,,,,,,,,,,,,,,,,,,,,,,,,,,,,,,,355.2024951999774,355.21866809998755,355.7261896999844,355.7020929999999,355.72309799998766,355.7261896999844,355.7261896999844,355.7261896999844,356.95331859998987,Scenes\086a.jpg,mid,o,1.2173689999908675,None,,,,,,,,00043,001,2026-01-23_22h08.45.877,MST_test,2024.2.0,60.45437508742572,2026-01-23 22h08.57.139485 +0530,
101,0,102,s,1.8823518000135664,None,102,0,101,356.96896619998734,,,,,,,,,,,,,,,,,,,,,,,,,,,,,,,,,,,,,,,,,,,,,,,,,,356.95342889998574,356.96896619998734,357.4692919999943,357.4521226999932,357.4657651000016,357.4692919999943,357.4692919999943,357.4692919999943,359.3526778999949,Scenes\162a.jpg,mid,s,1.8823518000135664,None,,,,,,,,00043,001,2026-01-23_22h08.45.877,MST_test,2024.2.0,60.45437508742572,2026-01-23 22h08.57.139485 +0530,
102,0,103,s,1.4267557999992277,None,103,0,102,359.36877469997853,,,,,,,,,,,,,,,,,,,,,,,,,,,,,,,,,,,,,,,,,,,,,,,,,,359.35278169999947,359.36877469997853,359.86838629998965,359.8522376999899,359.8654345999821,359.86838629998965,359.86838629998965,359.86838629998965,361.3023734999879,Scenes\147a.jpg,post,s,1.4267557999992277,None,,,,,,,,00043,001,2026-01-23_22h08.45.877,MST_test,2024.2.0,60.45437508742572,2026-01-23 22h08.57.139485 +0530,
103,0,104,n,1.6434552000137046,None,104,0,103,361.3183893999958,,,,,,,,,,,,,,,,,,,,,,,,,,,,,,,,,,,,,,,,,,,,,,,,,,361.30249750000075,361.3183893999958,361.8195252000005,361.8019288999785,361.81455439998535,361.8195252000005,361.8195252000005,361.8195252000005,363.46949940000195,Objects\009b.jpg,pre,n,1.6434552000137046,None,,,,,,,,00043,001,2026-01-23_22h08.45.877,MST_test,2024.2.0,60.45437508742572,2026-01-23 22h08.57.139485 +0530,
104,0,105,s,1.3178801000176463,None,105,0,104,363.485088299989,,,,,,,,,,,,,,,,,,,,,,,,,,,,,,,,,,,,,,,,,,,,,,,,,,363.4696073999803,363.485088299989,363.9934251999948,363.96957469999325,363.9907008000009,363.9934251999948,363.9934251999948,363.9934251999948,365.31934369998635,Scenes\171b.jpg,mid,s,1.3178801000176463,None,,,,,,,,00043,001,2026-01-23_22h08.45.877,MST_test,2024.2.0,60.45437508742572,2026-01-23 22h08.57.139485 +0530,
105,0,106,n,1.2442518000025302,None,106,0,105,365.3349827999773,,,,,,,,,,,,,,,,,,,,,,,,,,,,,,,,,,,,,,,,,,,,,,,,,,365.31946009999956,365.3349827999773,365.8353384999791,365.81915919997846,365.82955999998376,365.8353384999791,365.8353384999791,365.8353384999791,367.0863441999827,Foils\074a.jpg,none,n,1.2442518000025302,None,,,,,,,,00043,001,2026-01-23_22h08.45.877,MST_test,2024.2.0,60.45437508742572,2026-01-23 22h08.57.139485 +0530,
106,0,107,s,1.5014670999953523,None,107,0,106,367.10183659999166,,,,,,,,,,,,,,,,,,,,,,,,,,,,,,,,,,,,,,,,,,,,,,,,,,367.0864556999877,367.10183659999166,367.60964809998404,367.58559269999387,367.606578899984,367.60964809998404,367.60964809998404,367.60964809998404,369.1190987000009,Scenes\130a.jpg,post,s,1.5014670999953523,None,,,,,,,,00043,001,2026-01-23_22h08.45.877,MST_test,2024.2.0,60.45437508742572,2026-01-23 22h08.57.139485 +0530,
107,0,108,n,1.4691619000223,None,108,0,107,369.1350569999777,,,,,,,,,,,,,,,,,,,,,,,,,,,,,,,,,,,,,,,,,,,,,,,,,,369.1192076999869,369.1350569999777,369.6422851999814,369.61896299998625,369.6396360999788,369.6422851999814,369.6422851999814,369.6422851999814,371.119208899996,Scenes\035a.jpg,post,n,1.4691619000223,None,,,,,,,,00043,001,2026-01-23_22h08.45.877,MST_test,2024.2.0,60.45437508742572,2026-01-23 22h08.57.139485 +0530,
108,0,109,o,1.171509799984051,None,109,0,108,371.1350553999946,,,,,,,,,,,,,,,,,,,,,,,,,,,,,,,,,,,,,,,,,,,,,,,,,,371.11932420000085,371.1350553999946,371.6356380999787,371.6186052999983,371.6289104000025,371.6356380999787,371.6356380999787,371.6356380999787,372.8198725999973,Objects\078a.jpg,mid,o,1.171509799984051,None,,,,,,,,00043,001,2026-01-23_22h08.45.877,MST_test,2024.2.0,60.45437508742572,2026-01-23 22h08.57.139485 +0530,
109,0,110,s,1.4957973000127822,None,110,0,109,372.83548429998336,,,,,,,,,,,,,,,,,,,,,,,,,,,,,,,,,,,,,,,,,,,,,,,,,,372.81998269999167,372.83548429998336,373.33624730000156,373.3186853999796,373.3305362999963,373.33624730000156,373.33624730000156,373.33624730000156,374.8357429000025,Scenes\087b.jpg,pre,s,1.4957973000127822,None,,,,,,,,00043,001,2026-01-23_22h08.45.877,MST_test,2024.2.0,60.45437508742572,2026-01-23 22h08.57.139485 +0530,
110,0,111,o,2.455006799980765,None,111,0,110,374.85199749999447,,,,,,,,,,,,,,,,,,,,,,,,,,,,,,,,,,,,,,,,,,,,,,,,,,374.83584759998485,374.85199749999447,375.3519585999893,375.33550839999225,375.34700829998474,375.3519585999893,375.3519585999893,375.3519585999893,377.8194302999764,Scenes\008b.jpg,pre,o,2.455006799980765,None,,,,,,,,00043,001,2026-01-23_22h08.45.877,MST_test,2024.2.0,60.45437508742572,2026-01-23 22h08.57.139485 +0530,
111,0,112,s,1.328061499982141,None,112,0,111,377.8351313000021,,,,,,,,,,,,,,,,,,,,,,,,,,,,,,,,,,,,,,,,,,,,,,,,,,377.81954159997986,377.8351313000021,378.3355610999861,378.3188120999839,378.3295704999764,378.3355610999861,378.3355610999861,378.3355610999861,379.6695225999865,Objects\108b.jpg,mid,s,1.328061499982141,None,,,,,,,,00043,001,2026-01-23_22h08.45.877,MST_test,2024.2.0,60.45437508742572,2026-01-23 22h08.57.139485 +0530,
112,0,113,s,2.192627500015078,None,113,0,112,379.6849522999837,,,,,,,,,,,,,,,,,,,,,,,,,,,,,,,,,,,,,,,,,,,,,,,,,,379.6696300999902,379.6849522999837,380.19071939997957,380.1689674999798,380.1883581999864,380.19071939997957,380.19071939997957,380.19071939997957,382.3862439999939,Scenes\082b.jpg,post,s,2.192627500015078,None,,,,,,,,00043,001,2026-01-23_22h08.45.877,MST_test,2024.2.0,60.45437508742572,2026-01-23 22h08.57.139485 +0530,
113,0,114,o,1.5676313000149094,None,114,0,113,382.4015075999778,,,,,,,,,,,,,,,,,,,,,,,,,,,,,,,,,,,,,,,,,,,,,,,,,,382.38635559999966,382.4015075999778,382.90401239998755,382.88552919999347,382.90144659997895,382.90401239998755,382.90401239998755,382.90401239998755,384.48565839999355,Scenes\191b.jpg,pre,o,1.5676313000149094,None,,,,,,,,00043,001,2026-01-23_22h08.45.877,MST_test,2024.2.0,60.45437508742572,2026-01-23 22h08.57.139485 +0530,
114,0,115,n,2.4455780000134837,None,115,0,114,384.501577899995,,,,,,,,,,,,,,,,,,,,,,,,,,,,,,,,,,,,,,,,,,,,,,,,,,384.4857793999836,384.501577899995,385.00226889998885,384.985563299997,384.9951703999832,385.00226889998885,385.00226889998885,385.00226889998885,387.45271219999995,Foils\scenes5.jpg,none,n,2.4455780000134837,None,,,,,,,,00043,001,2026-01-23_22h08.45.877,MST_test,2024.2.0,60.45437508742572,2026-01-23 22h08.57.139485 +0530,
115,0,116,s,1.9667377999867313,None,116,0,115,387.468572999991,,,,,,,,,,,,,,,,,,,,,,,,,,,,,,,,,,,,,,,,,,,,,,,,,,387.45283100000233,387.468572999991,387.96862129998044,387.95215359999565,387.96265969998785,387.96862129998044,387.96862129998044,387.96862129998044,389.93618809999316,Objects\163b.jpg,pre,s,1.9667377999867313,None,,,,,,,,00043,001,2026-01-23_22h08.45.877,MST_test,2024.2.0,60.45437508742572,2026-01-23 22h08.57.139485 +0530,
116,0,117,s,2.379481999989366,None,117,0,116,389.9518652999832,,,,,,,,,,,,,,,,,,,,,,,,,,,,,,,,,,,,,,,,,,,,,,,,,,389.9363434999832,389.9518652999832,390.4525226999831,390.4352811999852,390.4455871999962,390.4525226999831,390.4525226999831,390.4525226999831,392.8357926000026,Objects\116b.jpg,mid,s,2.379481999989366,None,,,,,,,,00043,001,2026-01-23_22h08.45.877,MST_test,2024.2.0,60.45437508742572,2026-01-23 22h08.57.139485 +0530,
117,0,118,o,1.516782399994554,None,118,0,117,392.8519262999762,,,,,,,,,,,,,,,,,,,,,,,,,,,,,,,,,,,,,,,,,,,,,,,,,,392.8359007999825,392.8519262999762,393.35457519997726,393.33522099998663,393.3524700999842,393.35457519997726,393.35457519997726,393.35457519997726,394.88597629999276,Scenes\101a.jpg,post,o,1.516782399994554,None,,,,,,,,00043,001,2026-01-23_22h08.45.877,MST_test,2024.2.0,60.45437508742572,2026-01-23 22h08.57.139485 +0530,
118,0,119,o,2.404603100003442,None,119,0,118,394.90232009999454,,,,,,,,,,,,,,,,,,,,,,,,,,,,,,,,,,,,,,,,,,,,,,,,,,394.88609849999193,394.90232009999454,395.40266829999746,395.385902399983,395.3963331999839,395.40266829999746,395.40266829999746,395.40266829999746,397.8194185999746,Objects\061a.jpg,post,o,2.404603100003442,None,,,,,,,,00043,001,2026-01-23_22h08.45.877,MST_test,2024.2.0,60.45437508742572,2026-01-23 22h08.57.139485 +0530,
119,0,120,n,1.2479309999907855,None,120,0,119,397.8354448999744,,,,,,,,,,,,,,,,,,,,,,,,,,,,,,,,,,,,,,,,,,,,,,,,,,397.8195272999874,397.8354448999744,398.3358773999789,398.3190806999919,398.3292785999947,398.3358773999789,398.3358773999789,398.3358773999789,399.5861914999841,Foils\scenes14.jpg,none,n,1.2479309999907855,None,,,,,,,,00043,001,2026-01-23_22h08.45.877,MST_test,2024.2.0,60.45437508742572,2026-01-23 22h08.57.139485 +0530,
120,0,121,o,1.03381230001105,None,121,0,120,399.6021197999944,,,,,,,,,,,,,,,,,,,,,,,,,,,,,,,,,,,,,,,,,,,,,,,,,,399.58631069998955,399.6021197999944,400.10172739997506,400.08566389998305,400.096181699977,400.10172739997506,400.10172739997506,400.10172739997506,401.1365712999832,Objects\042a.jpg,post,o,1.03381230001105,None,,,,,,,,00043,001,2026-01-23_22h08.45.877,MST_test,2024.2.0,60.45437508742572,2026-01-23 22h08.57.139485 +0530,
121,0,122,o,3.429962100024568,None,122,0,121,401.1515004999819,,,,,,,,,,,,,,,,,,,,,,,,,,,,,,,,,,,,,,,,,,,,,,,,,,401.1366868999903,401.1515004999819,401.6569927999808,401.6355269999767,401.6538029999938,401.6569927999808,401.6569927999808,401.6569927999808,405.10256229998777,Scenes\149b.jpg,mid,o,3.429962100024568,None,,,,,,,,00043,001,2026-01-23_22h08.45.877,MST_test,2024.2.0,60.45437508742572,2026-01-23 22h08.57.139485 +0530,
122,0,123,o,4.5802319000067655,None,123,0,122,405.1182753999892,,,,,,,,,,,,,,,,,,,,,,,,,,,,,,,,,,,,,,,,,,,,,,,,,,405.10267130000284,405.1182753999892,405.6191009999893,405.6023437999829,405.61255309998523,405.6191009999893,405.6191009999893,405.6191009999893,410.20261129998835,Objects\005a.jpg,pre,o,4.5802319000067655,None,,,,,,,,00043,001,2026-01-23_22h08.45.877,MST_test,2024.2.0,60.45437508742572,2026-01-23 22h08.57.139485 +0530,
123,0,124,s,1.16014069999801,None,124,0,123,410.2183584999875,,,,,,,,,,,,,,,,,,,,,,,,,,,,,,,,,,,,,,,,,,,,,,,,,,410.2027221999888,410.2183584999875,410.718721799989,410.70247699998436,410.7129798999813,410.718721799989,410.718721799989,410.718721799989,411.8859205999761,Objects\037b.jpg,mid,s,1.16014069999801,None,,,,,,,,00043,001,2026-01-23_22h08.45.877,MST_test,2024.2.0,60.45437508742572,2026-01-23 22h08.57.139485 +0530,
124,0,125,s,1.5092197000049055,None,125,0,124,411.9016619999893,,,,,,,,,,,,,,,,,,,,,,,,,,,,,,,,,,,,,,,,,,,,,,,,,,411.8860328999872,411.9016619999893,412.40185979998205,412.38523299997905,412.3959925999807,412.40185979998205,412.40185979998205,412.40185979998205,413.91916889999993,Objects\100b.jpg,post,s,1.5092197000049055,None,,,,,,,,00043,001,2026-01-23_22h08.45.877,MST_test,2024.2.0,60.45437508742572,2026-01-23 22h08.57.139485 +0530,
125,0,126,n,1.4438388000125997,None,126,0,125,413.9352089999884,,,,,,,,,,,,,,,,,,,,,,,,,,,,,,,,,,,,,,,,,,,,,,,,,,413.91928449997795,413.9352089999884,414.43537389999256,414.41878799998085,414.4293578999932,414.43537389999256,414.43537389999256,414.43537389999256,415.88586999999825,Foils\049a.jpg,none,n,1.4438388000125997,None,,,,,,,,00043,001,2026-01-23_22h08.45.877,MST_test,2024.2.0,60.45437508742572,2026-01-23 22h08.57.139485 +0530,
126,0,127,o,2.461263899982441,None,127,0,126,415.9020001000026,,,,,,,,,,,,,,,,,,,,,,,,,,,,,,,,,,,,,,,,,,,,,,,,,,415.88598199997796,415.9020001000026,416.40210089998436,416.3854532999976,416.3993055000028,416.40210089998436,416.40210089998436,416.40210089998436,418.86935339999036,Scenes\018a.jpg,post,o,2.461263899982441,None,,,,,,,,00043,001,2026-01-23_22h08.45.877,MST_test,2024.2.0,60.45437508742572,2026-01-23 22h08.57.139485 +0530,
127,0,128,s,5.9338190999988,None,128,0,127,418.88499469999806,,,,,,,,,,,,,,,,,,,,,,,,,,,,,,,,,,,,,,,,,,,,,,,,,,418.8694856999791,418.88499469999806,419.385514900001,419.3689162999799,419.3791439999768,419.385514900001,419.385514900001,419.385514900001,425.33586159997503,Objects\069a.jpg,pre,s,5.9338190999988,None,,,,,,,,00043,001,2026-01-23_22h08.45.877,MST_test,2024.2.0,60.45437508742572,2026-01-23 22h08.57.139485 +0530,
128,0,129,n,2.1314150000107475,None,129,0,128,425.3516161000007,,,,,,,,,,,,,,,,,,,,,,,,,,,,,,,,,,,,,,,,,,,,,,,,,,425.3359836000018,425.3516161000007,425.85176059999503,425.8354437999951,425.84716069998103,425.85176059999503,425.85176059999503,425.85176059999503,427.98595619999105,Foils\scenes30.jpg,none,n,2.1314150000107475,None,,,,,,,,00043,001,2026-01-23_22h08.45.877,MST_test,2024.2.0,60.45437508742572,2026-01-23 22h08.57.139485 +0530,
129,0,130,s,1.152647499984596,None,130,0,129,428.001605700003,,,,,,,,,,,,,,,,,,,,,,,,,,,,,,,,,,,,,,,,,,,,,,,,,,427.9860747999919,428.001605700003,428.5023704999767,428.4853092999838,428.5002503999858,428.5023704999767,428.5023704999767,428.5023704999767,429.669304799987,Scenes\179b.jpg,post,s,1.152647499984596,None,,,,,,,,00043,001,2026-01-23_22h08.45.877,MST_test,2024.2.0,60.45437508742572,2026-01-23 22h08.57.139485 +0530,
130,0,131,s,1.4127576000173576,None,131,0,130,429.6854063999781,,,,,,,,,,,,,,,,,,,,,,,,,,,,,,,,,,,,,,,,,,,,,,,,,,429.66941099998076,429.6854063999781,430.19442129999516,430.16952149997815,430.1915433999966,430.19442129999516,430.19442129999516,430.19442129999516,431.61908849998144,Scenes\012a.jpg,pre,s,1.4127576000173576,None,,,,,,,,00043,001,2026-01-23_22h08.45.877,MST_test,2024.2.0,60.45437508742572,2026-01-23 22h08.57.139485 +0530,
131,0,132,o,1.168014900002163,None,132,0,131,431.6350913999777,,,,,,,,,,,,,,,,,,,,,,,,,,,,,,,,,,,,,,,,,,,,,,,,,,431.6192029999802,431.6350913999777,432.13588859999436,432.11867499997607,432.13315849998617,432.13588859999436,432.13588859999436,432.13588859999436,433.3193609000009,Objects\070b.jpg,post,o,1.168014900002163,None,,,,,,,,00043,001,2026-01-23_22h08.45.877,MST_test,2024.2.0,60.45437508742572,2026-01-23 22h08.57.139485 +0530,
132,0,133,o,2.2757951999956276,None,133,0,132,433.3350000999926,,,,,,,,,,,,,,,,,,,,,,,,,,,,,,,,,,,,,,,,,,,,,,,,,,433.31947409998975,433.3350000999926,433.83513639998273,433.8188334000006,433.8292051999888,433.83513639998273,433.83513639998273,433.83513639998273,436.11972289998084,Objects\166b.jpg,pre,o,2.2757951999956276,None,,,,,,,,00043,001,2026-01-23_22h08.45.877,MST_test,2024.2.0,60.45437508742572,2026-01-23 22h08.57.139485 +0530,
133,0,134,o,0.8994359000062104,None,134,0,133,436.13513749997946,,,,,,,,,,,,,,,,,,,,,,,,,,,,,,,,,,,,,,,,,,,,,,,,,,436.11991049998323,436.13513749997946,436.63563019997673,436.61890249999124,436.6288037999766,436.63563019997673,436.63563019997673,436.63563019997673,437.5358470999927,Objects\028b.jpg,mid,o,0.8994359000062104,None,,,,,,,,00043,001,2026-01-23_22h08.45.877,MST_test,2024.2.0,60.45437508742572,2026-01-23 22h08.57.139485 +0530,
134,0,135,s,2.04333100002259,None,135,0,134,437.5518633000029,,,,,,,,,,,,,,,,,,,,,,,,,,,,,,,,,,,,,,,,,,,,,,,,,,437.53595629998017,437.5518633000029,438.0520460999978,438.03513279999606,438.04540089998045,438.0520460999978,438.0520460999978,438.0520460999978,440.102224000002,Objects\179b.jpg,mid,s,2.04333100002259,None,,,,,,,,00043,001,2026-01-23_22h08.45.877,MST_test,2024.2.0,60.45437508742572,2026-01-23 22h08.57.139485 +0530,
135,0,136,s,1.1872582000214607,None,136,0,135,440.118192599999,,,,,,,,,,,,,,,,,,,,,,,,,,,,,,,,,,,,,,,,,,,,,,,,,,440.102339199977,440.118192599999,440.61980279997806,440.60212199998205,440.617491299985,440.61980279997806,440.61980279997806,440.61980279997806,441.81895689998055,Scenes\095b.jpg,post,s,1.1872582000214607,None,,,,,,,,00043,001,2026-01-23_22h08.45.877,MST_test,2024.2.0,60.45437508742572,2026-01-23 22h08.57.139485 +0530,
136,0,137,n,1.3817811000044458,None,137,0,136,441.8350825999805,,,,,,,,,,,,,,,,,,,,,,,,,,,,,,,,,,,,,,,,,,,,,,,,,,441.8190668000025,441.8350825999805,442.3380876999872,442.31855359999463,442.33578549997765,442.3380876999872,442.3380876999872,442.3380876999872,443.73595929998555,Scenes\133a.jpg,post,n,1.3817811000044458,None,,,,,,,,00043,001,2026-01-23_22h08.45.877,MST_test,2024.2.0,60.45437508742572,2026-01-23 22h08.57.139485 +0530,
137,0,138,o,2.057128999993438,None,138,0,137,443.75182159998803,,,,,,,,,,,,,,,,,,,,,,,,,,,,,,,,,,,,,,,,,,,,,,,,,,443.7360739999858,443.75182159998803,444.2626837999851,444.2353179999918,444.259816899983,444.2626837999851,444.2626837999851,444.2626837999851,446.33553369998117,Scenes\020a.jpg,mid,o,2.057128999993438,None,,,,,,,,00043,001,2026-01-23_22h08.45.877,MST_test,2024.2.0,60.45437508742572,2026-01-23 22h08.57.139485 +0530,
138,0,139,s,1.7141656999883708,None,139,0,138,446.35147929997765,,,,,,,,,,,,,,,,,,,,,,,,,,,,,,,,,,,,,,,,,,,,,,,,,,446.33564239999396,446.35147929997765,446.85268909999286,446.83540749998065,446.84661969999433,446.85268909999286,446.85268909999286,446.85268909999286,448.5696629000013,Objects\090b.jpg,pre,s,1.7141656999883708,None,,,,,,,,00043,001,2026-01-23_22h08.45.877,MST_test,2024.2.0,60.45437508742572,2026-01-23 22h08.57.139485 +0530,
139,0,140,n,0.9702174999983981,None,140,0,139,448.58501549999346,,,,,,,,,,,,,,,,,,,,,,,,,,,,,,,,,,,,,,,,,,,,,,,,,,448.5697778999747,448.58501549999346,449.08533089997945,449.06866269998136,449.07901439999114,449.08533089997945,449.08533089997945,449.08533089997945,450.0695052999945,Objects\130b.jpg,mid,n,0.9702174999983981,None,,,,,,,,00043,001,2026-01-23_22h08.45.877,MST_test,2024.2.0,60.45437508742572,2026-01-23 22h08.57.139485 +0530,
140,0,141,n,1.2499560999858659,None,141,0,140,450.0847848999838,,,,,,,,,,,,,,,,,,,,,,,,,,,,,,,,,,,,,,,,,,,,,,,,,,450.0696157999919,450.0847848999838,450.5890590999916,450.56859419998364,450.5862264999887,450.5890590999916,450.5890590999916,450.5890590999916,451.85281739998027,Scenes\068a.jpg,pre,n,1.2499560999858659,None,,,,,,,,00043,001,2026-01-23_22h08.45.877,MST_test,2024.2.0,60.45437508742572,2026-01-23 22h08.57.139485 +0530,
141,0,142,s,1.7458809000090696,None,142,0,141,451.8686034999846,,,,,,,,,,,,,,,,,,,,,,,,,,,,,,,,,,,,,,,,,,,,,,,,,,451.85292429997935,451.8686034999846,452.37300249998225,452.35206899998593,452.36944889998995,452.37300249998225,452.37300249998225,452.37300249998225,454.1197444999998,Scenes\083b.jpg,mid,s,1.7458809000090696,None,,,,,,,,00043,001,2026-01-23_22h08.45.877,MST_test,2024.2.0,60.45437508742572,2026-01-23 22h08.57.139485 +0530,
142,0,143,s,1.616704199986998,None,143,0,142,454.1350110999774,,,,,,,,,,,,,,,,,,,,,,,,,,,,,,,,,,,,,,,,,,,,,,,,,,454.1198714999773,454.1350110999774,454.6384166999778,454.61852779999026,454.6363771999895,454.6384166999778,454.6384166999778,454.6384166999778,456.26977479999186,Scenes\021b.jpg,post,s,1.616704199986998,None,,,,,,,,00043,001,2026-01-23_22h08.45.877,MST_test,2024.2.0,60.45437508742572,2026-01-23 22h08.57.139485 +0530,
143,0,144,s,1.142352899973048,None,144,0,143,456.2849901999871,,,,,,,,,,,,,,,,,,,,,,,,,,,,,,,,,,,,,,,,,,,,,,,,,,456.2698879999807,456.2849901999871,456.78549999999814,456.76855419998174,456.7792499999923,456.78549999999814,456.78549999999814,456.78549999999814,457.9355678999855,Objects\135b.jpg,post,s,1.142352899973048,None,,,,,,,,00043,001,2026-01-23_22h08.45.877,MST_test,2024.2.0,60.45437508742572,2026-01-23 22h08.57.139485 +0530,
144,0,145,n,1.1799844999914058,None,145,0,144,457.9512676000013,,,,,,,,,,,,,,,,,,,,,,,,,,,,,,,,,,,,,,,,,,,,,,,,,,457.9356841999979,457.9512676000013,458.4517404999933,458.4352775999869,458.445973599999,458.4517404999933,458.4517404999933,458.4517404999933,459.6365502999979,Foils\097a.jpg,none,n,1.1799844999914058,None,,,,,,,,00043,001,2026-01-23_22h08.45.877,MST_test,2024.2.0,60.45437508742572,2026-01-23 22h08.57.139485 +0530,
145,0,146,s,1.1749173999996856,None,146,0,145,459.6517910999828,,,,,,,,,,,,,,,,,,,,,,,,,,,,,,,,,,,,,,,,,,,,,,,,,,459.63665569998557,459.6517910999828,460.15293429998565,460.13571989999036,460.15057189998333,460.15293429998565,460.15293429998565,460.15293429998565,461.33607789999223,Scenes\024b.jpg,pre,s,1.1749173999996856,None,,,,,,,,00043,001,2026-01-23_22h08.45.877,MST_test,2024.2.0,60.45437508742572,2026-01-23 22h08.57.139485 +0530,
146,0,147,n,1.2852767999866046,None,147,0,146,461.3513875999779,,,,,,,,,,,,,,,,,,,,,,,,,,,,,,,,,,,,,,,,,,,,,,,,,,461.3361852999951,461.3513875999779,462.1777488999942,461.8351736999757,462.17303219999303,462.1777488999942,462.1777488999942,462.1777488999942,463.46940189998713,Foils\scenes26.jpg,none,n,1.2852767999866046,None,,,,,,,,00043,001,2026-01-23_22h08.45.877,MST_test,2024.2.0,60.45437508742572,2026-01-23 22h08.57.139485 +0530,
147,0,148,o,1.2860682999889832,None,148,0,147,463.48501309999847,,,,,,,,,,,,,,,,,,,,,,,,,,,,,,,,,,,,,,,,,,,,,,,,,,463.4695214999956,463.48501309999847,464.01020509999944,463.9692801999918,464.0073358999798,464.01020509999944,464.01020509999944,464.01020509999944,465.30243699997663,Objects\072a.jpg,post,o,1.2860682999889832,None,,,,,,,,00043,001,2026-01-23_22h08.45.877,MST_test,2024.2.0,60.45437508742572,2026-01-23 22h08.57.139485 +0530,
148,0,149,n,2.892385299986927,None,149,0,148,465.318349499983,,,,,,,,,,,,,,,,,,,,,,,,,,,,,,,,,,,,,,,,,,,,,,,,,,465.30253989997436,465.318349499983,465.8187074000016,465.80242559997714,465.81387859999086,465.8187074000016,465.8187074000016,465.8187074000016,468.718970499991,Foils\098a.jpg,none,n,2.892385299986927,None,,,,,,,,00043,001,2026-01-23_22h08.45.877,MST_test,2024.2.0,60.45437508742572,2026-01-23 22h08.57.139485 +0530,
149,0,150,s,1.3484642999828793,None,150,0,149,468.7353521999903,,,,,,,,,,,,,,,,,,,,,,,,,,,,,,,,,,,,,,,,,,,,,,,,,,468.71909369999776,468.7353521999903,469.23526749998564,469.21853459998965,469.2291659999755,469.23526749998564,469.23526749998564,469.23526749998564,470.5861617999908,Objects\132b.jpg,mid,s,1.3484642999828793,None,,,,,,,,00043,001,2026-01-23_22h08.45.877,MST_test,2024.2.0,60.45437508742572,2026-01-23 22h08.57.139485 +0530,
,,,,,,,,,,,,,,,,,,,,,,,,,,,,,,,,,,,,,,,,,,,,,,,,,,,,,,,,,,,,,,,,,,,,,,,,,470.58624659999623,470.60199439999997,470.60199439999997,476.6690122,space,6.05357700001332,None,00043,001,2026-01-23_22h08.45.877,MST_test,2024.2.0,60.45437508742572,2026-01-23 22h08.57.139485 +0530,
