Sl_no,image_path,thisN,thisTrialN,thisRepN,key_resp_5.keys,key_resp_5.rt,key_resp_5.duration,key_resp_7.keys,key_resp_9.keys,key_resp_9.rt,key_resp_9.duration,key_resp_8.keys,key_resp_8.rt,key_resp_8.duration,practice.thisRepN,practice.thisTrialN,practice.thisN,trials.thisRepN,trials.thisTrialN,trials.thisN,thisRow.t,notes,welcome_page.started,text.started,key_resp.started,welcome_page.stopped,key_resp.keys,key_resp.rt,key_resp.duration,instructions.started,ins.started,key_resp_2.started,instructions.stopped,key_resp_2.keys,key_resp_2.rt,key_resp_2.duration,objects_only_instruction.started,text_3.started,key_resp_3.started,objects_only_instruction.stopped,key_resp_3.keys,key_resp_3.rt,key_resp_3.duration,ISI.started,text_4.started,text_4.stopped,ISI.stopped,practice_block.started,image.started,text_5.started,key_resp_5.started,practice_block.stopped,practice.key_resp_5.keys,practice.key_resp_5.rt,practice.key_resp_5.duration,indoor_outdoor.started,indoor_outdoor.stopped,practice.key_resp_7.keys,image.stopped,text_5.stopped,key_resp_5.stopped,practice_to_main.started,text_2.started,key_resp_4.started,practice_to_main.stopped,key_resp_4.keys,key_resp_4.rt,key_resp_4.duration,objects.started,image_2.started,text_9.started,key_resp_9.started,objects.stopped,trials.key_resp_9.keys,trials.key_resp_9.rt,trials.key_resp_9.duration,encoding_task.started,encoding_task.stopped,trials.key_resp_8.keys,image_2.stopped,text_9.stopped,key_resp_9.stopped,text_8.started,key_resp_8.started,trials.key_resp_8.rt,trials.key_resp_8.duration,end_experiment.started,text_6.started,key_resp_6.started,end_experiment.stopped,key_resp_6.keys,key_resp_6.rt,key_resp_6.duration,list_of_stimuli,encoding_task_accuracy,participant,session,date,expName,psychopyVersion,frameRate,expStart,
,,,,,,,,,,,,,,,,,,,,,,,0.0013566999696195126,0.003456599952187389,0.003456599952187389,1455.52147529996,space,1455.5112601,None,,,,,,,,,,,,,,,,,,,,,,,,,,,,,,,,,,,,,,,,,,,,,,,,,,,,,,,,,,,,,,,,,,,00042,001,2026-01-23_21h18.31.909,MST_task,2024.2.0,59.864753550383604,2026-01-23 21h18.39.136309 +0530,
,,,,,,,,,,,,,,,,,,,,,,,,,,,,,,1455.5215870999964,1455.5370110999793,1455.5370110999793,1476.4486434999853,space,20.89734429999953,None,,,,,,,,,,,,,,,,,,,,,,,,,,,,,,,,,,,,,,,,,,,,,,,,,,,,,,,,,,,,00042,001,2026-01-23_21h18.31.909,MST_task,2024.2.0,59.864753550383604,2026-01-23 21h18.39.136309 +0530,
,,,,,,,,,,,,,,,,,,,,,,,,,,,,,,,,,,,,,1476.4487601,1476.4724291999592,1476.4724291999592,1504.4318872999866,space,27.94673700002022,None,,,,,,,,,,,,,,,,,,,,,,,,,,,,,,,,,,,,,,,,,,,,,,,,,,,,,00042,001,2026-01-23_21h18.31.909,MST_task,2024.2.0,59.864753550383604,2026-01-23 21h18.39.136309 +0530,
1,practice_images/013a.jpg,0,0,1,f,1.3249740999890491,0.12073289998807013,None,,,,,,,1,0,0,,,,1504.447984199971,,,,,,,,,,,,,,,,,,,,,,,1504.442851300002,1504.447984199971,1504.9814241999993,1504.9314669999876,1504.9500709999702,1504.9814241999993,1504.9814241999993,1504.9814241999993,1507.9483116999618,f,1.3249740999890491,0.12073289998807013,1507.9556475999998,1507.9557118999655,None,,,,,,,,,,,,,,,,,,,,,,,,,,,,,,,,,,,,,,00042,001,2026-01-23_21h18.31.909,MST_task,2024.2.0,59.864753550383604,2026-01-23 21h18.39.136309 +0530,
7,practice_images/166a.jpg,1,1,1,f,1.073627400037367,0.20847529999446124,None,,,,,,,1,1,1,,,,1507.964716699964,,,,,,,,,,,,,,,,,,,,,,,1507.9558979999856,1507.964716699964,1508.4646825999953,1508.4482275999617,1508.4539022999816,1508.4646825999953,1508.4646825999953,1508.4646825999953,1511.448503499967,f,1.073627400037367,0.20847529999446124,1511.4486976999906,1511.448762999964,None,1511.4653998999856,1511.4653998999856,1511.4653998999856,,,,,,,,,,,,,,,,,,,,,,,,,,,,,,,,,,,00042,001,2026-01-23_21h18.31.909,MST_task,2024.2.0,59.864753550383604,2026-01-23 21h18.39.136309 +0530,
3,practice_images/037a.jpg,2,2,1,f,0.9017978999763727,0.19179730000905693,None,,,,,,,1,2,2,,,,1511.4653998999856,,,,,,,,,,,,,,,,,,,,,,,1511.4490331999841,1511.4653998999856,1511.9646696999553,1511.9481741999625,1511.9534890999785,1511.9646696999553,1511.9646696999553,1511.9646696999553,1514.9490067999577,f,0.9017978999763727,0.19179730000905693,1514.949215999979,1514.9492880000034,None,,,,,,,,,,,,,,,,,,,,,,,,,,,,,,,,,,,,,,00042,001,2026-01-23_21h18.31.909,MST_task,2024.2.0,59.864753550383604,2026-01-23 21h18.39.136309 +0530,
5,practice_images/139a.jpg,3,3,1,f,1.1450086000259034,0.22466579999309033,None,,,,,,,1,3,3,,,,1514.9643994999933,,,,,,,,,,,,,,,,,,,,,,,1514.9495669999742,1514.9643994999933,1515.4649103999836,1515.4488378999522,1515.4534828999895,1515.4649103999836,1515.4649103999836,1515.4649103999836,1518.4482909999788,f,1.1450086000259034,0.22466579999309033,1518.4484677999862,1518.4485343999695,None,1518.4643507999717,1518.4643507999717,1518.4643507999717,,,,,,,,,,,,,,,,,,,,,,,,,,,,,,,,,,,00042,001,2026-01-23_21h18.31.909,MST_task,2024.2.0,59.864753550383604,2026-01-23 21h18.39.136309 +0530,
6,practice_images/158a.jpg,4,4,1,j,1.157576900033746,0.14469290000852197,None,,,,,,,1,4,4,,,,1518.4643507999717,,,,,,,,,,,,,,,,,,,,,,,1518.4488028999767,1518.4643507999717,1518.9646642999724,1518.9481486000004,1518.9534558999585,1518.9646642999724,1518.9646642999724,1518.9646642999724,1521.948728599993,j,1.157576900033746,0.14469290000852197,1521.9489348999923,1521.9490241999738,None,,,,,,,,,,,,,,,,,,,,,,,,,,,,,,,,,,,,,,00042,001,2026-01-23_21h18.31.909,MST_task,2024.2.0,59.864753550383604,2026-01-23 21h18.39.136309 +0530,
10,practice_images/182a.jpg,5,5,1,f,0.9454045000020415,0.20027380000101402,None,,,,,,,1,5,5,,,,1521.9646732999827,,,,,,,,,,,,,,,,,,,,,,,1521.9493147999747,1521.9646732999827,1522.4648763999576,1522.4481719999458,1522.4536594999954,1522.4648763999576,1522.4648763999576,1522.4648763999576,1525.4481588999624,f,0.9454045000020415,0.20027380000101402,1525.448332400003,1525.4483988999855,None,1525.464379299956,1525.464379299956,1525.464379299956,,,,,,,,,,,,,,,,,,,,,,,,,,,,,,,,,,,00042,001,2026-01-23_21h18.31.909,MST_task,2024.2.0,59.864753550383604,2026-01-23 21h18.39.136309 +0530,
9,practice_images/180a.jpg,6,6,1,f,1.2613102999748662,0.16778199997497723,None,,,,,,,1,6,6,,,,1525.464379299956,,,,,,,,,,,,,,,,,,,,,,,1525.4486699999543,1525.464379299956,1525.9656154999975,1525.9483471999993,1525.9537007999606,1525.9656154999975,1525.9656154999975,1525.9656154999975,1528.9485071999952,f,1.2613102999748662,0.16778199997497723,1528.948687599972,1528.9487529000035,None,1528.9644278999767,1528.9644278999767,1528.9644278999767,,,,,,,,,,,,,,,,,,,,,,,,,,,,,,,,,,,00042,001,2026-01-23_21h18.31.909,MST_task,2024.2.0,59.864753550383604,2026-01-23 21h18.39.136309 +0530,
8,practice_images/178a.jpg,7,7,1,j,1.1296352000208572,0.14400359999854118,None,,,,,,,1,7,7,,,,1528.9644278999767,,,,,,,,,,,,,,,,,,,,,,,1528.9490204999456,1528.9644278999767,,1529.44890139997,1529.4544808999635,1529.4648750999477,1529.4648750999477,1529.4648750999477,1532.4486399999587,j,1.1296352000208572,0.14400359999854118,1532.4488222999498,1532.448883999954,None,1532.464501099952,1532.464501099952,1532.464501099952,,,,,,,,,,,,,,,,,,,,,,,,,,,,,,,,,,,00042,001,2026-01-23_21h18.31.909,MST_task,2024.2.0,59.864753550383604,2026-01-23 21h18.39.136309 +0530,
4,practice_images/002b.jpg,8,8,1,f,1.5903979999711737,0.15124680002918467,None,,,,,,,1,8,8,,,,1532.464501099952,,,,,,,,,,,,,,,,,,,,,,,1532.449165799946,1532.464501099952,1532.9648854999687,1532.9482024000026,1532.9542876999476,1532.9648854999687,1532.9648854999687,1532.9648854999687,1535.9484878999647,f,1.5903979999711737,0.15124680002918467,1535.948669299949,1535.9487374000018,None,1535.964671499969,1535.964671499969,1535.964671499969,,,,,,,,,,,,,,,,,,,,,,,,,,,,,,,,,,,00042,001,2026-01-23_21h18.31.909,MST_task,2024.2.0,59.864753550383604,2026-01-23 21h18.39.136309 +0530,
2,practice_images/031a.jpg,9,9,1,f,1.0888469999772497,0.19250519998604432,None,,,,,,,1,9,9,,,,1535.964671499969,,,,,,,,,,,,,,,,,,,,,,,1535.949006299954,1535.964671499969,1536.4657588999835,1536.4483344999608,1536.4537547999644,1536.4657588999835,1536.4657588999835,1536.4657588999835,1539.4658113999758,f,1.0888469999772497,0.19250519998604432,1539.4660012999666,1539.4660724999849,None,,,,,,,,,,,,,,,,,,,,,,,,,,,,,,,,,,,,,,00042,001,2026-01-23_21h18.31.909,MST_task,2024.2.0,59.864753550383604,2026-01-23 21h18.39.136309 +0530,
,,,,,,,,,,,,,,,,,,,,,,,,,,,,,,,,,,,,,,,,,,,,,,,,,,,,,,,,,,,,,,1539.466256499989,1539.4814596999786,1539.4814596999786,1549.4319472999778,space,9.94547470001271,None,,,,,,,,,,,,,,,,,,,,,,,,,,,,00042,001,2026-01-23_21h18.31.909,MST_task,2024.2.0,59.864753550383604,2026-01-23 21h18.39.136309 +0530,
,Scenes\147a.jpg,0,0,1,,,,,j,0.9260114999487996,0.1919706000480801,None,,,,,,1,0,0,1549.4479532999685,,,,,,,,,,,,,,,,,,,,,,,1549.435066999984,1549.4479532999685,1549.9643121999688,1549.9314942999627,,,,,,,,,,,,,,,,,,,,,,1549.9602193000028,1549.9643121999688,1549.9643121999688,1549.9643121999688,1552.9485794999637,j,0.9260114999487996,0.1919706000480801,1552.954903099977,1552.9549397999654,None,,,,,,,,,,,,,,,,,00042,001,2026-01-23_21h18.31.909,MST_task,2024.2.0,59.864753550383604,2026-01-23 21h18.39.136309 +0530,
,Scenes\186a.jpg,1,0,2,,,,,j,1.4816208999836817,0.19170050002867356,None,,,,,,2,0,1,1552.9647043999867,,,,,,,,,,,,,,,,,,,,,,,1552.9551055999473,1552.9647043999867,1553.465284899983,1553.4483801999595,,,,,,,,,,,,,,,,,,,,,,1553.4588183999876,1553.465284899983,1553.465284899983,1553.465284899983,1556.4488932999666,j,1.4816208999836817,0.19170050002867356,1556.449084599968,1556.4491509999498,None,1556.4643690999947,1556.4643690999947,1556.4643690999947,,,,,,,,,,,,,,00042,001,2026-01-23_21h18.31.909,MST_task,2024.2.0,59.864753550383604,2026-01-23 21h18.39.136309 +0530,
,Scenes\184a.jpg,2,0,3,,,,,j,1.5970959000405855,0.1847694999887608,None,,,,,,3,0,2,1556.4643690999947,,,,,,,,,,,,,,,,,,,,,,,1556.4494350999594,1556.4643690999947,1556.965306899976,1556.9484935999499,,,,,,,,,,,,,,,,,,,,,,1556.9626031999942,1556.965306899976,1556.965306899976,1556.965306899976,1559.9494606999797,j,1.5970959000405855,0.1847694999887608,1559.949656199955,1559.9497193999705,None,1559.9646957999794,1559.9646957999794,1559.9646957999794,,,,,,,,,,,,,,00042,001,2026-01-23_21h18.31.909,MST_task,2024.2.0,59.864753550383604,2026-01-23 21h18.39.136309 +0530,
,Scenes\187a.jpg,3,0,4,,,,,j,0.9201395999989472,0.22383989999070764,None,,,,,,4,0,3,1559.9646957999794,,,,,,,,,,,,,,,,,,,,,,,1559.9500313999597,1559.9646957999794,1560.4664559999947,1560.448020199954,,,,,,,,,,,,,,,,,,,,,,1560.4639644999988,1560.4664559999947,1560.4664559999947,1560.4664559999947,1563.4650419999962,j,0.9201395999989472,0.22383989999070764,1563.4652453999734,1563.465311799955,None,,,,,,,,,,,,,,,,,00042,001,2026-01-23_21h18.31.909,MST_task,2024.2.0,59.864753550383604,2026-01-23 21h18.39.136309 +0530,
,Scenes\091a.jpg,4,0,5,,,,,j,1.0770690999925137,0.17550760001176968,None,,,,,,5,0,4,1563.4812913999776,,,,,,,,,,,,,,,,,,,,,,,1563.4656018999522,1563.4812913999776,1563.9817617999506,1563.9651069999672,,,,,,,,,,,,,,,,,,,,,,1563.9778988999897,1563.9817617999506,1563.9817617999506,1563.9817617999506,1566.9657807999756,j,1.0770690999925137,0.17550760001176968,1566.965985799965,1566.9660555999726,None,,,,,,,,,,,,,,,,,00042,001,2026-01-23_21h18.31.909,MST_task,2024.2.0,59.864753550383604,2026-01-23 21h18.39.136309 +0530,
,Scenes\142a.jpg,5,0,6,,,,,j,1.0103742000064813,0.22450630000093952,None,,,,,,6,0,5,1566.9813680999796,,,,,,,,,,,,,,,,,,,,,,,1566.9664262000006,1566.9813680999796,1567.4881937999744,1567.4651126999524,,,,,,,,,,,,,,,,,,,,,,1567.485450999986,1567.4881937999744,1567.4881937999744,1567.4881937999744,1570.4816310000024,j,1.0103742000064813,0.22450630000093952,1570.4818302999483,1570.48189559998,None,,,,,,,,,,,,,,,,,00042,001,2026-01-23_21h18.31.909,MST_task,2024.2.0,59.864753550383604,2026-01-23 21h18.39.136309 +0530,
,Scenes\141a.jpg,6,0,7,,,,,j,0.9557656000251882,0.15256989997578785,None,,,,,,7,0,6,1570.497939999972,,,,,,,,,,,,,,,,,,,,,,,1570.4822613999713,1570.497939999972,1570.9986559999525,1570.9818114999798,,,,,,,,,,,,,,,,,,,,,,1570.9936708000023,1570.9986559999525,1570.9986559999525,1570.9986559999525,1573.9826011999976,j,0.9557656000251882,0.15256989997578785,1573.9828006000025,1573.9828643999645,None,1573.9982785999891,1573.9982785999891,1573.9982785999891,,,,,,,,,,,,,,00042,001,2026-01-23_21h18.31.909,MST_task,2024.2.0,59.864753550383604,2026-01-23 21h18.39.136309 +0530,
,Objects\124a.jpg,7,0,8,,,,,f,1.487755800015293,0.21617530001094565,None,,,,,,8,0,7,1573.9982785999891,,,,,,,,,,,,,,,,,,,,,,,1573.9832415999845,1573.9982785999891,1574.499166099995,1574.4815662999754,,,,,,,,,,,,,,,,,,,,,,1574.49586679996,1574.499166099995,1574.499166099995,1574.499166099995,1577.4985545999953,f,1.487755800015293,0.21617530001094565,1577.498757799971,1577.498828199983,None,,,,,,,,,,,,,,,,,00042,001,2026-01-23_21h18.31.909,MST_task,2024.2.0,59.864753550383604,2026-01-23 21h18.39.136309 +0530,
,Objects\075a.jpg,8,0,9,,,,,j,2.1473007000167854,0.18415950000053272,None,,,,,,9,0,8,1577.5155846999842,,,,,,,,,,,,,,,,,,,,,,,1577.4992253999808,1577.5155846999842,,1578.01493569999,,,,,,,,,,,,,,,,,,,,,,1578.0239147999673,1578.0315766999847,1578.0315766999847,1578.0315766999847,1581.015053399955,j,2.1473007000167854,0.18415950000053272,1581.0152613999671,1581.015328599955,None,,,,,,,,,,,,,,,,,00042,001,2026-01-23_21h18.31.909,MST_task,2024.2.0,59.864753550383604,2026-01-23 21h18.39.136309 +0530,
,Objects\094a.jpg,9,0,10,,,,,f,0.9421871000085957,0.2640256999875419,None,,,,,,10,0,9,1581.0313870999962,,,,,,,,,,,,,,,,,,,,,,,1581.0156898999703,1581.0313870999962,1581.5322820000001,1581.5149038999807,,,,,,,,,,,,,,,,,,,,,,1581.5243444999796,1581.5322820000001,1581.5322820000001,1581.5322820000001,1584.53174029995,f,0.9421871000085957,0.2640256999875419,1584.5319424999761,1584.532008799957,None,,,,,,,,,,,,,,,,,00042,001,2026-01-23_21h18.31.909,MST_task,2024.2.0,59.864753550383604,2026-01-23 21h18.39.136309 +0530,
,Objects\092a.jpg,10,0,11,,,,,f,1.770416599989403,0.1681700000190176,None,,,,,,11,0,10,1584.5486598999705,,,,,,,,,,,,,,,,,,,,,,,1584.5323730999953,1584.5486598999705,1585.0478465999477,1585.0316832999815,,,,,,,,,,,,,,,,,,,,,,1585.0407275999896,1585.0478465999477,1585.0478465999477,1585.0478465999477,1588.0325400999864,f,1.770416599989403,0.1681700000190176,1588.032737499976,1588.0328001999878,None,1588.0479570999742,1588.0479570999742,1588.0479570999742,,,,,,,,,,,,,,00042,001,2026-01-23_21h18.31.909,MST_task,2024.2.0,59.864753550383604,2026-01-23 21h18.39.136309 +0530,
,Objects\036a.jpg,11,0,12,,,,,f,0.9503394000348635,0.23244300001533702,None,,,,,,12,0,11,1588.0479570999742,,,,,,,,,,,,,,,,,,,,,,,1588.0331642999663,1588.0479570999742,1588.548203399987,1588.5315569999511,,,,,,,,,,,,,,,,,,,,,,1588.540668200003,1588.548203399987,1588.548203399987,1588.548203399987,1591.532224799972,f,0.9503394000348635,0.23244300001533702,1591.532424199977,1591.5324857999803,None,1591.5473986999714,1591.5473986999714,1591.5473986999714,,,,,,,,,,,,,,00042,001,2026-01-23_21h18.31.909,MST_task,2024.2.0,59.864753550383604,2026-01-23 21h18.39.136309 +0530,
,Objects\047a.jpg,12,0,13,,,,,f,0.8504246000084095,0.2002638999838382,None,,,,,,13,0,12,1591.5473986999714,,,,,,,,,,,,,,,,,,,,,,,1591.5327056999668,1591.5473986999714,1592.0481774999644,1592.031744899985,,,,,,,,,,,,,,,,,,,,,,1592.0396763999597,1592.0481774999644,1592.0481774999644,1592.0481774999644,1595.0333902999992,f,0.8504246000084095,0.2002638999838382,1595.0335966999992,1595.0336604999611,None,1595.0486719999462,1595.0486719999462,1595.0486719999462,,,,,,,,,,,,,,00042,001,2026-01-23_21h18.31.909,MST_task,2024.2.0,59.864753550383604,2026-01-23 21h18.39.136309 +0530,
,Objects\044a.jpg,13,0,14,,,,,f,2.7663380000158213,0.18427549995249137,None,,,,,,14,0,13,1595.0486719999462,,,,,,,,,,,,,,,,,,,,,,,1595.0340632000007,1595.0486719999462,1595.54799609998,1595.531641999958,,,,,,,,,,,,,,,,,,,,,,1595.5408859999734,1595.54799609998,1595.54799609998,1595.54799609998,1598.5326631999924,f,2.7663380000158213,0.18427549995249137,1598.5328702999977,1598.5329308999935,None,1598.5476327999495,1598.5476327999495,1598.5476327999495,,,,,,,,,,,,,,00042,001,2026-01-23_21h18.31.909,MST_task,2024.2.0,59.864753550383604,2026-01-23 21h18.39.136309 +0530,
,Scenes\182a.jpg,14,0,15,,,,,j,1.6900061999913305,0.16036609996808693,None,,,,,,15,0,14,1598.5476327999495,,,,,,,,,,,,,,,,,,,,,,,1598.5332316999556,1598.5476327999495,1599.0484740999527,1599.0316365999752,,,,,,,,,,,,,,,,,,,,,,1599.0448414999992,1599.0484740999527,1599.0484740999527,1599.0484740999527,1602.0323443999514,j,1.6900061999913305,0.16036609996808693,1602.0325435999548,1602.0326049999567,None,1602.048485599982,1602.048485599982,1602.048485599982,,,,,,,,,,,,,,00042,001,2026-01-23_21h18.31.909,MST_task,2024.2.0,59.864753550383604,2026-01-23 21h18.39.136309 +0530,
,Scenes\192a.jpg,15,0,16,,,,,j,1.526171199977398,0.14404159999685362,None,,,,,,16,0,15,1602.048485599982,,,,,,,,,,,,,,,,,,,,,,,1602.0329043999664,1602.048485599982,1602.5482444999507,1602.5316367999767,,,,,,,,,,,,,,,,,,,,,,1602.5449636999983,1602.5482444999507,1602.5482444999507,1602.5482444999507,1605.5326627999893,j,1.526171199977398,0.14404159999685362,1605.5328628999996,1605.5329225999885,None,1605.5479538999498,1605.5479538999498,1605.5479538999498,,,,,,,,,,,,,,00042,001,2026-01-23_21h18.31.909,MST_task,2024.2.0,59.864753550383604,2026-01-23 21h18.39.136309 +0530,
,Scenes\180a.jpg,16,0,17,,,,,j,1.5300810000044294,0.19231210002908483,None,,,,,,17,0,16,1605.5479538999498,,,,,,,,,,,,,,,,,,,,,,,1605.533224099956,1605.5479538999498,1606.0482059999486,1606.0314077999792,,,,,,,,,,,,,,,,,,,,,,1606.0428794999607,1606.0482059999486,1606.0482059999486,1606.0482059999486,1609.0325593999587,j,1.5300810000044294,0.19231210002908483,1609.032757799956,1609.0328191999579,None,1609.047796799976,1609.047796799976,1609.047796799976,,,,,,,,,,,,,,00042,001,2026-01-23_21h18.31.909,MST_task,2024.2.0,59.864753550383604,2026-01-23 21h18.39.136309 +0530,
,Scenes\037a.jpg,17,0,18,,,,,j,1.3656578999944031,0.15211600001202896,None,,,,,,18,0,17,1609.047796799976,,,,,,,,,,,,,,,,,,,,,,,1609.033114699996,1609.047796799976,1609.54858839995,1609.5317473999457,,,,,,,,,,,,,,,,,,,,,,1609.5398473999812,1609.54858839995,1609.54858839995,1609.54858839995,1612.5324157999712,j,1.3656578999944031,0.15211600001202896,1612.5326178999967,1612.5326693999814,None,1612.5478473999538,1612.5478473999538,1612.5478473999538,,,,,,,,,,,,,,00042,001,2026-01-23_21h18.31.909,MST_task,2024.2.0,59.864753550383604,2026-01-23 21h18.39.136309 +0530,
,Scenes\079a.jpg,18,0,19,,,,,j,0.961933400016278,0.1683568999869749,None,,,,,,19,0,18,1612.5478473999538,,,,,,,,,,,,,,,,,,,,,,,1612.5329255999532,1612.5478473999538,1613.0487865999457,1613.0315821999684,,,,,,,,,,,,,,,,,,,,,,1613.0462587999646,1613.0487865999457,1613.0487865999457,1613.0487865999457,1616.032395999995,j,0.961933400016278,0.1683568999869749,1616.0325979999616,1616.0326627999893,None,1616.047624400002,1616.047624400002,1616.047624400002,,,,,,,,,,,,,,00042,001,2026-01-23_21h18.31.909,MST_task,2024.2.0,59.864753550383604,2026-01-23 21h18.39.136309 +0530,
,Scenes\071a.jpg,19,0,20,,,,,j,1.8927670000120997,0.1926740999915637,None,,,,,,20,0,19,1616.047624400002,,,,,,,,,,,,,,,,,,,,,,,1616.0330319999484,1616.047624400002,1616.5574014000013,1616.5317465999979,,,,,,,,,,,,,,,,,,,,,,1616.5545811999473,1616.5574014000013,1616.5574014000013,1616.5574014000013,1619.5479849999538,j,1.8927670000120997,0.1926740999915637,1619.5482042999938,1619.5482697999687,None,,,,,,,,,,,,,,,,,00042,001,2026-01-23_21h18.31.909,MST_task,2024.2.0,59.864753550383604,2026-01-23 21h18.39.136309 +0530,
,Scenes\134a.jpg,20,0,21,,,,,j,1.1898042999673635,0.20756280003115535,None,,,,,,21,0,20,1619.5645512999617,,,,,,,,,,,,,,,,,,,,,,,1619.5485694999807,1619.5645512999617,1620.069037099951,1620.048336399952,,,,,,,,,,,,,,,,,,,,,,1620.066272499971,1620.069037099951,1620.069037099951,1620.069037099951,1623.0647224999848,j,1.1898042999673635,0.20756280003115535,1623.064922999998,1623.064990199986,None,,,,,,,,,,,,,,,,,00042,001,2026-01-23_21h18.31.909,MST_task,2024.2.0,59.864753550383604,2026-01-23 21h18.39.136309 +0530,
,Objects\166a.jpg,21,0,22,,,,,f,1.0280971000320278,0.19290119997458532,None,,,,,,22,0,21,1623.081510399992,,,,,,,,,,,,,,,,,,,,,,,1623.0653488999815,1623.081510399992,,1623.5652687999536,,,,,,,,,,,,,,,,,,,,,,1623.5741478999844,1623.5820648999652,1623.5820648999652,1623.5820648999652,1626.5656266000005,f,1.0280971000320278,0.19290119997458532,1626.565824899997,1626.5658860999974,None,1626.5820162000018,1626.5820162000018,1626.5820162000018,,,,,,,,,,,,,,00042,001,2026-01-23_21h18.31.909,MST_task,2024.2.0,59.864753550383604,2026-01-23 21h18.39.136309 +0530,
,Objects\017a.jpg,22,0,23,,,,,f,1.1213091000099666,0.1995689000468701,None,,,,,,23,0,22,1626.5820162000018,,,,,,,,,,,,,,,,,,,,,,,1626.5662562999642,1626.5820162000018,1627.0815367999603,1627.0650942999637,,,,,,,,,,,,,,,,,,,,,,1627.0738901000004,1627.0815367999603,1627.0815367999603,1627.0815367999603,1630.0658661999623,f,1.1213091000099666,0.1995689000468701,1630.0660557999508,1630.066115499998,None,1630.0816582999541,1630.0816582999541,1630.0816582999541,,,,,,,,,,,,,,00042,001,2026-01-23_21h18.31.909,MST_task,2024.2.0,59.864753550383604,2026-01-23 21h18.39.136309 +0530,
,Objects\159a.jpg,23,0,24,,,,,f,1.0517365999985486,0.17661539994878694,None,,,,,,24,0,23,1630.0816582999541,,,,,,,,,,,,,,,,,,,,,,,1630.0664067000034,1630.0816582999541,1630.5823982000002,1630.5647691999911,,,,,,,,,,,,,,,,,,,,,,1630.5742060999619,1630.5823982000002,1630.5823982000002,1630.5823982000002,1633.5658918999834,f,1.0517365999985486,0.17661539994878694,1633.5660910999868,1633.5661548999487,None,1633.5813820999465,1633.5813820999465,1633.5813820999465,,,,,,,,,,,,,,00042,001,2026-01-23_21h18.31.909,MST_task,2024.2.0,59.864753550383604,2026-01-23 21h18.39.136309 +0530,
,Objects\076a.jpg,24,0,25,,,,,j,1.6568574999691918,0.20012900000438094,None,,,,,,25,0,24,1633.5813820999465,,,,,,,,,,,,,,,,,,,,,,,1633.566523699963,1633.5813820999465,1634.0815666999551,1634.0651056999923,,,,,,,,,,,,,,,,,,,,,,1634.0737250999664,1634.0815666999551,1634.0815666999551,1634.0815666999551,1637.0659571999568,j,1.6568574999691918,0.20012900000438094,1637.0661513999803,1637.0662121999776,None,1637.0813772999682,1637.0813772999682,1637.0813772999682,,,,,,,,,,,,,,00042,001,2026-01-23_21h18.31.909,MST_task,2024.2.0,59.864753550383604,2026-01-23 21h18.39.136309 +0530,
,Objects\081a.jpg,25,0,26,,,,,f,1.6364761999575421,0.19251660001464188,None,,,,,,26,0,25,1637.0813772999682,,,,,,,,,,,,,,,,,,,,,,,1637.0665774999652,1637.0813772999682,1637.5816091999877,1637.5648108999594,,,,,,,,,,,,,,,,,,,,,,1637.5720521999756,1637.5816091999877,1637.5816091999877,1637.5816091999877,1640.5657470999868,f,1.6364761999575421,0.19251660001464188,1640.5659401000012,1640.56600349996,None,1640.5813667999464,1640.5813667999464,1640.5813667999464,,,,,,,,,,,,,,00042,001,2026-01-23_21h18.31.909,MST_task,2024.2.0,59.864753550383604,2026-01-23 21h18.39.136309 +0530,
,Objects\032a.jpg,26,0,27,,,,,j,1.2816259000101127,0.22371900000143796,None,,,,,,27,0,26,1640.5813667999464,,,,,,,,,,,,,,,,,,,,,,,1640.5663041999796,1640.5813667999464,1641.0812679999508,1641.064707499987,,,,,,,,,,,,,,,,,,,,,,1641.0733457999886,1641.0812679999508,1641.0812679999508,1641.0812679999508,1644.0660340999602,j,1.2816259000101127,0.22371900000143796,1644.066266299982,1644.0663281999878,None,1644.0817220999743,1644.0817220999743,1644.0817220999743,,,,,,,,,,,,,,00042,001,2026-01-23_21h18.31.909,MST_task,2024.2.0,59.864753550383604,2026-01-23 21h18.39.136309 +0530,
,Objects\002a.jpg,27,0,28,,,,,f,1.2836080999695696,0.2244090000167489,None,,,,,,28,0,27,1644.0817220999743,,,,,,,,,,,,,,,,,,,,,,,1644.0666901999502,1644.0817220999743,1644.5825691999635,1644.565524399979,,,,,,,,,,,,,,,,,,,,,,1644.5740847999696,1644.5825691999635,1644.5825691999635,1644.5825691999635,1647.565991999989,f,1.2836080999695696,0.2244090000167489,1647.5661899999832,1647.5662527999957,None,1647.581204099988,1647.581204099988,1647.581204099988,,,,,,,,,,,,,,00042,001,2026-01-23_21h18.31.909,MST_task,2024.2.0,59.864753550383604,2026-01-23 21h18.39.136309 +0530,
,Scenes\177a.jpg,28,0,29,,,,,j,0.9524898999952711,0.19241980003425851,None,,,,,,29,0,28,1647.581204099988,,,,,,,,,,,,,,,,,,,,,,,1647.5666225999594,1647.581204099988,1648.0816196999513,1648.0650984999957,,,,,,,,,,,,,,,,,,,,,,1648.0791371999658,1648.0816196999513,1648.0816196999513,1648.0816196999513,1651.0656278999522,j,0.9524898999952711,0.19241980003425851,1651.0658242999925,1651.0658847999875,None,1651.081372399989,1651.081372399989,1651.081372399989,,,,,,,,,,,,,,00042,001,2026-01-23_21h18.31.909,MST_task,2024.2.0,59.864753550383604,2026-01-23 21h18.39.136309 +0530,
,Scenes\050a.jpg,29,0,30,,,,,j,0.9371593999676406,0.15999730001203716,None,,,,,,30,0,29,1651.081372399989,,,,,,,,,,,,,,,,,,,,,,,1651.0661840999965,1651.081372399989,1651.5853623999865,1651.5659006999922,,,,,,,,,,,,,,,,,,,,,,1651.5821914999979,1651.5853623999865,1651.5853623999865,1651.5853623999865,1654.5815936999861,j,0.9371593999676406,0.15999730001203716,1654.5818004999892,1654.5818694999907,None,,,,,,,,,,,,,,,,,00042,001,2026-01-23_21h18.31.909,MST_task,2024.2.0,59.864753550383604,2026-01-23 21h18.39.136309 +0530,
,Scenes\044a.jpg,30,0,31,,,,,j,1.8079003999591805,0.11992690002080053,None,,,,,,31,0,30,1654.5979471000028,,,,,,,,,,,,,,,,,,,,,,,1654.5822377000004,1654.5979471000028,1655.0984216999495,1655.0817683999776,,,,,,,,,,,,,,,,,,,,,,1655.0948538999655,1655.0984216999495,1655.0984216999495,1655.0984216999495,1658.0825988999568,j,1.8079003999591805,0.11992690002080053,1658.0827988999663,1658.0828598999651,None,1658.0976212999667,1658.0976212999667,1658.0976212999667,,,,,,,,,,,,,,00042,001,2026-01-23_21h18.31.909,MST_task,2024.2.0,59.864753550383604,2026-01-23 21h18.39.136309 +0530,
,Scenes\052a.jpg,31,0,32,,,,,j,1.5241862999973819,0.18361280002864078,None,,,,,,32,0,31,1658.0976212999667,,,,,,,,,,,,,,,,,,,,,,,1658.0831559999497,1658.0976212999667,1658.6066486999625,1658.581564799999,,,,,,,,,,,,,,,,,,,,,,1658.6039815999684,1658.6066486999625,1658.6066486999625,1658.6066486999625,1661.5995838999515,j,1.5241862999973819,0.18361280002864078,1661.5997871999862,1661.5998669999535,None,,,,,,,,,,,,,,,,,00042,001,2026-01-23_21h18.31.909,MST_task,2024.2.0,59.864753550383604,2026-01-23 21h18.39.136309 +0530,
,Scenes\029a.jpg,32,0,33,,,,,j,1.7012795000337064,0.19217589998152107,None,,,,,,33,0,32,1661.6146231999737,,,,,,,,,,,,,,,,,,,,,,,1661.6001777999918,1661.6146231999737,1662.1169566999888,1662.0983541999594,,,,,,,,,,,,,,,,,,,,,,1662.1145717999898,1662.1169566999888,1662.1169566999888,1662.1169566999888,1665.1158587999525,j,1.7012795000337064,0.19217589998152107,1665.1160636999994,1665.1161299999803,None,,,,,,,,,,,,,,,,,00042,001,2026-01-23_21h18.31.909,MST_task,2024.2.0,59.864753550383604,2026-01-23 21h18.39.136309 +0530,
,Scenes\070a.jpg,33,0,34,,,,,j,1.4555313000455499,0.1846254999982193,None,,,,,,34,0,33,1665.131061299995,,,,,,,,,,,,,,,,,,,,,,,1665.1164996000007,1665.131061299995,1665.6348793999641,1665.6156089999713,,,,,,,,,,,,,,,,,,,,,,1665.6326736999908,1665.6348793999641,1665.6348793999641,1665.6348793999641,1668.6315716999816,j,1.4555313000455499,0.1846254999982193,1668.6317740999511,1668.6318401999888,None,,,,,,,,,,,,,,,,,00042,001,2026-01-23_21h18.31.909,MST_task,2024.2.0,59.864753550383604,2026-01-23 21h18.39.136309 +0530,
,Scenes\157a.jpg,34,0,35,,,,,j,1.580100399965886,0.16029319999506697,None,,,,,,35,0,34,1668.6479442999698,,,,,,,,,,,,,,,,,,,,,,,1668.6322036999627,1668.6479442999698,1669.1501643999945,1669.1315347999916,,,,,,,,,,,,,,,,,,,,,,1669.1475490999874,1669.1501643999945,1669.1501643999945,1669.1501643999945,1672.14797489997,j,1.580100399965886,0.16029319999506697,1672.148181699973,1672.1482505999738,None,,,,,,,,,,,,,,,,,00042,001,2026-01-23_21h18.31.909,MST_task,2024.2.0,59.864753550383604,2026-01-23 21h18.39.136309 +0530,
,Objects\038a.jpg,35,0,36,,,,,f,0.8249587999889627,0.1602520000305958,None,,,,,,36,0,35,1672.1649830999668,,,,,,,,,,,,,,,,,,,,,,,1672.1486191999866,1672.1649830999668,1672.665160399978,1672.648127399967,,,,,,,,,,,,,,,,,,,,,,1672.6592170999502,1672.665160399978,1672.665160399978,1672.665160399978,1675.6493406999507,f,0.8249587999889627,0.1602520000305958,1675.6495400999556,1675.6496005999506,None,1675.6646515999455,1675.6646515999455,1675.6646515999455,,,,,,,,,,,,,,00042,001,2026-01-23_21h18.31.909,MST_task,2024.2.0,59.864753550383604,2026-01-23 21h18.39.136309 +0530,
,Objects\060a.jpg,36,0,37,,,,,f,0.805594099976588,0.15967940003611147,None,,,,,,37,0,36,1675.6646515999455,,,,,,,,,,,,,,,,,,,,,,,1675.6500066999579,1675.6646515999455,1676.1652028999524,1676.1482283999794,,,,,,,,,,,,,,,,,,,,,,1676.157484699972,1676.1652028999524,1676.1652028999524,1676.1652028999524,1679.1494443999836,f,0.805594099976588,0.15967940003611147,1679.1496484999661,1679.1497327999678,None,1679.1643940999638,1679.1643940999638,1679.1643940999638,,,,,,,,,,,,,,00042,001,2026-01-23_21h18.31.909,MST_task,2024.2.0,59.864753550383604,2026-01-23 21h18.39.136309 +0530,
,Objects\054a.jpg,37,0,38,,,,,f,0.7611144999973476,0.21568310004658997,None,,,,,,38,0,37,1679.1643940999638,,,,,,,,,,,,,,,,,,,,,,,1679.1500336999889,1679.1643940999638,1679.665687599976,1679.6486828999477,,,,,,,,,,,,,,,,,,,,,,1679.6569074,1679.665687599976,1679.665687599976,1679.665687599976,1682.6491835999768,f,0.7611144999973476,0.21568310004658997,1682.6494015999488,1682.6494637999567,None,1682.665627499984,1682.665627499984,1682.665627499984,,,,,,,,,,,,,,00042,001,2026-01-23_21h18.31.909,MST_task,2024.2.0,59.864753550383604,2026-01-23 21h18.39.136309 +0530,
,Objects\027a.jpg,38,0,39,,,,,f,0.813377600046806,0.1601597999688238,None,,,,,,39,0,38,1682.665627499984,,,,,,,,,,,,,,,,,,,,,,,1682.6499376999564,1682.665627499984,1683.1649283999577,1683.1483672999893,,,,,,,,,,,,,,,,,,,,,,1683.1581734999781,1683.1649283999577,1683.1649283999577,1683.1649283999577,1686.1490014999872,f,0.813377600046806,0.1601597999688238,1686.1491064999718,1686.1491390999872,None,1686.1646343999892,1686.1646343999892,1686.1646343999892,,,,,,,,,,,,,,00042,001,2026-01-23_21h18.31.909,MST_task,2024.2.0,59.864753550383604,2026-01-23 21h18.39.136309 +0530,
,Objects\119a.jpg,39,0,40,,,,,f,2.1379967000102624,0.23968180001247674,None,,,,,,40,0,39,1686.1646343999892,,,,,,,,,,,,,,,,,,,,,,,1686.1492954999558,1686.1646343999892,1686.6648110999959,1686.648383199994,,,,,,,,,,,,,,,,,,,,,,1686.6548628999735,1686.6648110999959,1686.6648110999959,1686.6648110999959,1689.64921829995,f,2.1379967000102624,0.23968180001247674,1689.6494558999548,1689.6495252999594,None,1689.6647217999562,1689.6647217999562,1689.6647217999562,,,,,,,,,,,,,,00042,001,2026-01-23_21h18.31.909,MST_task,2024.2.0,59.864753550383604,2026-01-23 21h18.39.136309 +0530,
,Objects\083a.jpg,40,0,41,,,,,f,1.4936016999999993,0.14482210000278428,None,,,,,,41,0,40,1689.6647217999562,,,,,,,,,,,,,,,,,,,,,,,1689.6499985999544,1689.6647217999562,1690.164543699997,1690.148032899946,,,,,,,,,,,,,,,,,,,,,,1690.1571844999562,1690.164543699997,1690.164543699997,1690.164543699997,1693.1491555999964,f,1.4936016999999993,0.14482210000278428,1693.1493491999572,1693.1494127999758,None,1693.1654698999482,1693.1654698999482,1693.1654698999482,,,,,,,,,,,,,,00042,001,2026-01-23_21h18.31.909,MST_task,2024.2.0,59.864753550383604,2026-01-23 21h18.39.136309 +0530,
,Objects\118a.jpg,41,0,42,,,,,f,1.4900039000203833,0.16758379997918382,None,,,,,,42,0,41,1693.1654698999482,,,,,,,,,,,,,,,,,,,,,,,1693.1497142000007,1693.1654698999482,1693.664781999949,1693.6491069999756,,,,,,,,,,,,,,,,,,,,,,1693.6585545999696,1693.664781999949,1693.664781999949,1693.664781999949,1696.649142499955,f,1.4900039000203833,0.16758379997918382,1696.64937379997,1696.64944259997,None,1696.6649388999795,1696.6649388999795,1696.6649388999795,,,,,,,,,,,,,,00042,001,2026-01-23_21h18.31.909,MST_task,2024.2.0,59.864753550383604,2026-01-23 21h18.39.136309 +0530,
,Scenes\149a.jpg,42,0,43,,,,,f,1.7220542999566533,0.16801860003033653,None,,,,,,43,0,42,1696.6649388999795,,,,,,,,,,,,,,,,,,,,,,,1696.649799799954,1696.6649388999795,1697.176165199955,1697.1483585999813,,,,,,,,,,,,,,,,,,,,,,1697.1734292999608,1697.176165199955,1697.176165199955,1697.176165199955,1700.1650595999672,f,1.7220542999566533,0.16801860003033653,1700.165268199984,1700.1653358999756,None,,,,,,,,,,,,,,,,,00042,001,2026-01-23_21h18.31.909,MST_task,2024.2.0,59.864753550383604,2026-01-23 21h18.39.136309 +0530,
,Scenes\012a.jpg,43,0,44,,,,,f,2.5919554000138305,0.20753359998343512,None,,,,,,44,0,43,1700.1816875999793,,,,,,,,,,,,,,,,,,,,,,,1700.1656337999739,1700.1816875999793,,1700.6660673999577,,,,,,,,,,,,,,,,,,,,,,1700.680213899992,1700.6828931999626,1700.6828931999626,1700.6828931999626,1703.6815819999902,f,2.5919554000138305,0.20753359998343512,1703.681786399975,1703.6818541999673,None,,,,,,,,,,,,,,,,,00042,001,2026-01-23_21h18.31.909,MST_task,2024.2.0,59.864753550383604,2026-01-23 21h18.39.136309 +0530,
,Scenes\172a.jpg,44,0,45,,,,,j,1.397070100007113,0.21551390003878623,None,,,,,,45,0,44,1703.6973618999473,,,,,,,,,,,,,,,,,,,,,,,1703.682130799978,1703.6973618999473,,1704.1823064999771,,,,,,,,,,,,,,,,,,,,,,1704.2028909999644,1704.205732100003,1704.205732100003,1704.205732100003,1707.1985456999973,j,1.397070100007113,0.21551390003878623,1707.1987580999848,1707.198827699991,None,,,,,,,,,,,,,,,,,00042,001,2026-01-23_21h18.31.909,MST_task,2024.2.0,59.864753550383604,2026-01-23 21h18.39.136309 +0530,
,Scenes\093a.jpg,45,0,46,,,,,f,0.8601036999607459,0.21574120002333075,None,,,,,,46,0,45,1707.2142875999562,,,,,,,,,,,,,,,,,,,,,,,1707.19912569999,1707.2142875999562,1707.7184762999532,1707.698556999967,,,,,,,,,,,,,,,,,,,,,,1707.715807200002,1707.7184762999532,1707.7184762999532,1707.7184762999532,1710.7150963000022,f,0.8601036999607459,0.21574120002333075,1710.7152941999957,1710.7153600999736,None,,,,,,,,,,,,,,,,,00042,001,2026-01-23_21h18.31.909,MST_task,2024.2.0,59.864753550383604,2026-01-23 21h18.39.136309 +0530,
,Scenes\040a.jpg,46,0,47,,,,,f,1.1122670999611728,0.21678090002387762,None,,,,,,47,0,46,1710.7313652999583,,,,,,,,,,,,,,,,,,,,,,,1710.7157215999905,1710.7313652999583,1711.2339242000016,1711.2155910999863,,,,,,,,,,,,,,,,,,,,,,1711.2311861999915,1711.2339242000016,1711.2339242000016,1711.2339242000016,1714.232138799969,f,1.1122670999611728,0.21678090002387762,1714.2323442999623,1714.2324118999531,None,,,,,,,,,,,,,,,,,00042,001,2026-01-23_21h18.31.909,MST_task,2024.2.0,59.864753550383604,2026-01-23 21h18.39.136309 +0530,
,Scenes\032a.jpg,47,0,48,,,,,j,1.4692706000059843,0.1997737999772653,None,,,,,,48,0,47,1714.2479651999893,,,,,,,,,,,,,,,,,,,,,,,1714.2327777000028,1714.2479651999893,1714.7572753999848,1714.7316366999876,,,,,,,,,,,,,,,,,,,,,,1714.7544805999496,1714.7572753999848,1714.7572753999848,1714.7572753999848,1717.7485444999766,j,1.4692706000059843,0.1997737999772653,1717.74875899998,1717.7488242999534,None,,,,,,,,,,,,,,,,,00042,001,2026-01-23_21h18.31.909,MST_task,2024.2.0,59.864753550383604,2026-01-23 21h18.39.136309 +0530,
,Scenes\020a.jpg,48,0,49,,,,,f,1.8533574999892153,0.15926919999765232,None,,,,,,49,0,48,1717.7649736999883,,,,,,,,,,,,,,,,,,,,,,,1717.749123699963,1717.7649736999883,1718.2698031999753,1718.2483512999606,,,,,,,,,,,,,,,,,,,,,,1718.267394799972,1718.2698031999753,1718.2698031999753,1718.2698031999753,1721.2647278999793,f,1.8533574999892153,0.15926919999765232,1721.2649500999833,1721.2650162999635,None,,,,,,,,,,,,,,,,,00042,001,2026-01-23_21h18.31.909,MST_task,2024.2.0,59.864753550383604,2026-01-23 21h18.39.136309 +0530,
,Objects\056a.jpg,49,0,50,,,,,f,1.8606497999862768,0.19163090002257377,None,,,,,,50,0,49,1721.281368899974,,,,,,,,,,,,,,,,,,,,,,,1721.26538409997,1721.281368899974,1721.7821208999958,1721.7649520999985,,,,,,,,,,,,,,,,,,,,,,1721.7740534999757,1721.7821208999958,1721.7821208999958,1721.7821208999958,1724.7658780999482,f,1.8606497999862768,0.19163090002257377,1724.7660727999755,1724.766133099969,None,1724.7811670999508,1724.7811670999508,1724.7811670999508,,,,,,,,,,,,,,00042,001,2026-01-23_21h18.31.909,MST_task,2024.2.0,59.864753550383604,2026-01-23 21h18.39.136309 +0530,
,Objects\128a.jpg,50,0,51,,,,,f,1.7774315000278875,0.20747119997395203,None,,,,,,51,0,50,1724.7811670999508,,,,,,,,,,,,,,,,,,,,,,,1724.7664225999615,1724.7811670999508,1725.2813353999518,1725.2651031999849,,,,,,,,,,,,,,,,,,,,,,1725.2714930999791,1725.2813353999518,1725.2813353999518,1725.2813353999518,1728.2659555999562,f,1.7774315000278875,0.20747119997395203,1728.2661530999467,1728.266216399963,None,1728.2814175999956,1728.2814175999956,1728.2814175999956,,,,,,,,,,,,,,00042,001,2026-01-23_21h18.31.909,MST_task,2024.2.0,59.864753550383604,2026-01-23 21h18.39.136309 +0530,
,Objects\057a.jpg,51,0,52,,,,,f,1.516408700030297,0.17684549995465204,None,,,,,,52,0,51,1728.2814175999956,,,,,,,,,,,,,,,,,,,,,,,1728.266513199953,1728.2814175999956,1728.7816757999826,1728.7650196999894,,,,,,,,,,,,,,,,,,,,,,1728.7740720000002,1728.7816757999826,1728.7816757999826,1728.7816757999826,1731.7656343999552,f,1.516408700030297,0.17684549995465204,1731.765839599946,1731.7658994999947,None,1731.7813832999673,1731.7813832999673,1731.7813832999673,,,,,,,,,,,,,,00042,001,2026-01-23_21h18.31.909,MST_task,2024.2.0,59.864753550383604,2026-01-23 21h18.39.136309 +0530,
,Objects\160a.jpg,52,0,53,,,,,j,1.5999414999969304,0.20796119997976348,None,,,,,,53,0,52,1731.7813832999673,,,,,,,,,,,,,,,,,,,,,,,1731.7661998999538,1731.7813832999673,1732.2822084999643,1732.265486599994,,,,,,,,,,,,,,,,,,,,,,1732.2745037999703,1732.2822084999643,1732.2822084999643,1732.2822084999643,1735.2659149999963,j,1.5999414999969304,0.20796119997976348,1735.2661173999659,1735.2661800999776,None,1735.2811481999815,1735.2811481999815,1735.2811481999815,,,,,,,,,,,,,,00042,001,2026-01-23_21h18.31.909,MST_task,2024.2.0,59.864753550383604,2026-01-23 21h18.39.136309 +0530,
,Objects\121a.jpg,53,0,54,,,,,f,2.156840999959968,0.1601539000403136,None,,,,,,54,0,53,1735.2811481999815,,,,,,,,,,,,,,,,,,,,,,,1735.2664754999569,1735.2811481999815,1735.7813354999525,1735.765095699986,,,,,,,,,,,,,,,,,,,,,,1735.7743572999607,1735.7813354999525,1735.7813354999525,1735.7813354999525,1738.7659714999609,f,2.156840999959968,0.1601539000403136,1738.7661710999673,1738.766232199967,None,1738.7816889999667,1738.7816889999667,1738.7816889999667,,,,,,,,,,,,,,00042,001,2026-01-23_21h18.31.909,MST_task,2024.2.0,59.864753550383604,2026-01-23 21h18.39.136309 +0530,
,Objects\143a.jpg,54,0,55,,,,,f,1.9683839000063017,0.1682781000272371,None,,,,,,55,0,54,1738.7816889999667,,,,,,,,,,,,,,,,,,,,,,,1738.7665365999565,1738.7816889999667,1739.2816350999638,1739.2648586999858,,,,,,,,,,,,,,,,,,,,,,1739.273653399956,1739.2816350999638,1739.2816350999638,1739.2816350999638,1742.2659297999926,f,1.9683839000063017,0.1682781000272371,1742.2661257999716,1742.266187399975,None,1742.281044799951,1742.281044799951,1742.281044799951,,,,,,,,,,,,,,00042,001,2026-01-23_21h18.31.909,MST_task,2024.2.0,59.864753550383604,2026-01-23 21h18.39.136309 +0530,
,Objects\161a.jpg,55,0,56,,,,,j,1.5165465000318363,0.21623369998997077,None,,,,,,56,0,55,1742.281044799951,,,,,,,,,,,,,,,,,,,,,,,1742.266483699961,1742.281044799951,1742.7815977999708,1742.7653999999748,,,,,,,,,,,,,,,,,,,,,,1742.7745344999712,1742.7815977999708,1742.7815977999708,1742.7815977999708,1745.7659198999754,j,1.5165465000318363,0.21623369998997077,1745.7661183999735,1745.7661804999807,None,1745.7810814999975,1745.7810814999975,1745.7810814999975,,,,,,,,,,,,,,00042,001,2026-01-23_21h18.31.909,MST_task,2024.2.0,59.864753550383604,2026-01-23 21h18.39.136309 +0530,
,Scenes\078a.jpg,56,0,57,,,,,j,1.7421747999615036,0.19148740003583953,None,,,,,,57,0,56,1745.7810814999975,,,,,,,,,,,,,,,,,,,,,,,1745.7664723999915,1745.7810814999975,1746.2846041999874,1746.2648077999474,,,,,,,,,,,,,,,,,,,,,,1746.2819030999672,1746.2846041999874,1746.2846041999874,1746.2846041999874,1749.2820487999707,j,1.7421747999615036,0.19148740003583953,1749.2822490999824,1749.282317699981,None,,,,,,,,,,,,,,,,,00042,001,2026-01-23_21h18.31.909,MST_task,2024.2.0,59.864753550383604,2026-01-23 21h18.39.136309 +0530,
,Scenes\117a.jpg,57,0,58,,,,,j,1.9555616999859922,0.13646359997801483,None,,,,,,58,0,57,1749.2979688999476,,,,,,,,,,,,,,,,,,,,,,,1749.2826795,1749.2979688999476,1749.7988952999585,1749.7817374999868,,,,,,,,,,,,,,,,,,,,,,1749.7944043999887,1749.7988952999585,1749.7988952999585,1749.7988952999585,1752.7829510999727,j,1.9555616999859922,0.13646359997801483,1752.7831545999506,1752.7832156999502,None,1752.798236499948,1752.798236499948,1752.798236499948,,,,,,,,,,,,,,00042,001,2026-01-23_21h18.31.909,MST_task,2024.2.0,59.864753550383604,2026-01-23 21h18.39.136309 +0530,
,Scenes\043a.jpg,58,0,59,,,,,f,1.8309516999870539,0.22453310003038496,None,,,,,,59,0,58,1752.798236499948,,,,,,,,,,,,,,,,,,,,,,,1752.7835975999478,1752.798236499948,1753.2994967999985,1753.2816578999627,,,,,,,,,,,,,,,,,,,,,,1753.2968654999859,1753.2994967999985,1753.2994967999985,1753.2994967999985,1756.2831363999867,f,1.8309516999870539,0.22453310003038496,1756.283405299997,1756.283468199952,None,1756.2979819999891,1756.2979819999891,1756.2979819999891,,,,,,,,,,,,,,00042,001,2026-01-23_21h18.31.909,MST_task,2024.2.0,59.864753550383604,2026-01-23 21h18.39.136309 +0530,
,Scenes\122a.jpg,59,0,60,,,,,f,1.4566965000121854,0.19927059998735785,None,,,,,,60,0,59,1756.2979819999891,,,,,,,,,,,,,,,,,,,,,,,1756.2838509999565,1756.2979819999891,1756.8024074999848,1756.781336599961,,,,,,,,,,,,,,,,,,,,,,1756.7988442999776,1756.8024074999848,1756.8024074999848,1756.8024074999848,1759.7983593999525,f,1.4566965000121854,0.19927059998735785,1759.7985591999604,1759.7986256000004,None,,,,,,,,,,,,,,,,,00042,001,2026-01-23_21h18.31.909,MST_task,2024.2.0,59.864753550383604,2026-01-23 21h18.39.136309 +0530,
,Scenes\011a.jpg,60,0,61,,,,,j,1.057988100044895,0.16760049998993054,None,,,,,,61,0,60,1759.8148148999899,,,,,,,,,,,,,,,,,,,,,,,1759.7989865999552,1759.8148148999899,1760.3287352999905,1760.2986044999561,,,,,,,,,,,,,,,,,,,,,,1760.325736699975,1760.3287352999905,1760.3287352999905,1760.3287352999905,1763.315230899956,j,1.057988100044895,0.16760049998993054,1763.3154313999694,1763.3154970000032,None,,,,,,,,,,,,,,,,,00042,001,2026-01-23_21h18.31.909,MST_task,2024.2.0,59.864753550383604,2026-01-23 21h18.39.136309 +0530,
,Scenes\049a.jpg,61,0,62,,,,,j,2.3702135999919847,0.19298310001613572,None,,,,,,62,0,61,1763.3311038999818,,,,,,,,,,,,,,,,,,,,,,,1763.3158514999668,1763.3311038999818,1763.8317920999834,1763.8148163000005,,,,,,,,,,,,,,,,,,,,,,1763.8283801999642,1763.8317920999834,1763.8317920999834,1763.8317920999834,1766.815941299952,j,2.3702135999919847,0.19298310001613572,1766.8161334999604,1766.8161957999691,None,1766.8313617999665,1766.8313617999665,1766.8313617999665,,,,,,,,,,,,,,00042,001,2026-01-23_21h18.31.909,MST_task,2024.2.0,59.864753550383604,2026-01-23 21h18.39.136309 +0530,
,Scenes\121a.jpg,62,0,63,,,,,j,1.6199434000300243,0.19189479999477044,None,,,,,,63,0,62,1766.8313617999665,,,,,,,,,,,,,,,,,,,,,,,1766.8165546999662,1766.8313617999665,1767.3423890999984,1767.315139299957,,,,,,,,,,,,,,,,,,,,,,1767.3394760999945,1767.3423890999984,1767.3423890999984,1767.3423890999984,1770.3318052999675,j,1.6199434000300243,0.19189479999477044,1770.3320175999543,1770.3320866999566,None,,,,,,,,,,,,,,,,,00042,001,2026-01-23_21h18.31.909,MST_task,2024.2.0,59.864753550383604,2026-01-23 21h18.39.136309 +0530,
,Objects\158a.jpg,63,0,64,,,,,f,1.7537116999737918,0.20838630001526326,None,,,,,,64,0,63,1770.347781199962,,,,,,,,,,,,,,,,,,,,,,,1770.3324650999857,1770.347781199962,1770.848343699996,1770.8315936999861,,,,,,,,,,,,,,,,,,,,,,1770.8419657999766,1770.848343699996,1770.848343699996,1770.848343699996,1773.8323408999713,f,1.7537116999737918,0.20838630001526326,1773.8325264999876,1773.8325831999537,None,1773.8483698999626,1773.8483698999626,1773.8483698999626,,,,,,,,,,,,,,00042,001,2026-01-23_21h18.31.909,MST_task,2024.2.0,59.864753550383604,2026-01-23 21h18.39.136309 +0530,
,Objects\061a.jpg,64,0,65,,,,,f,1.6300929000135511,0.239861199981533,None,,,,,,65,0,64,1773.8483698999626,,,,,,,,,,,,,,,,,,,,,,,1773.8329209999647,1773.8483698999626,1774.3482169999625,1774.3318169999984,,,,,,,,,,,,,,,,,,,,,,1774.341334800003,1774.3482169999625,1774.3482169999625,1774.3482169999625,1777.332699099963,f,1.6300929000135511,0.239861199981533,1777.3329006999847,1777.332963599998,None,1777.3480064999894,1777.3480064999894,1777.3480064999894,,,,,,,,,,,,,,00042,001,2026-01-23_21h18.31.909,MST_task,2024.2.0,59.864753550383604,2026-01-23 21h18.39.136309 +0530,
,Objects\174a.jpg,65,0,66,,,,,f,1.969996900006663,0.1528616000432521,None,,,,,,66,0,65,1777.3480064999894,,,,,,,,,,,,,,,,,,,,,,,1777.3333375999937,1777.3480064999894,1777.8480507999775,1777.8318321999977,,,,,,,,,,,,,,,,,,,,,,1777.840138199972,1777.8480507999775,1777.8480507999775,1777.8480507999775,1780.8325626999722,f,1.969996900006663,0.1528616000432521,1780.8327534999698,1780.8328136999626,None,1780.8477324999985,1780.8477324999985,1780.8477324999985,,,,,,,,,,,,,,00042,001,2026-01-23_21h18.31.909,MST_task,2024.2.0,59.864753550383604,2026-01-23 21h18.39.136309 +0530,
,Objects\106a.jpg,66,0,67,,,,,f,0.7106484000105411,0.1841794000356458,None,,,,,,67,0,66,1780.8477324999985,,,,,,,,,,,,,,,,,,,,,,,1780.83318029996,1780.8477324999985,1781.3480491999653,1781.331503399997,,,,,,,,,,,,,,,,,,,,,,1781.3383398999576,1781.3480491999653,1781.3480491999653,1781.3480491999653,1784.3326813000022,f,0.7106484000105411,0.1841794000356458,1784.332871199993,1784.3329326999956,None,1784.3480213999865,1784.3480213999865,1784.3480213999865,,,,,,,,,,,,,,00042,001,2026-01-23_21h18.31.909,MST_task,2024.2.0,59.864753550383604,2026-01-23 21h18.39.136309 +0530,
,Objects\109a.jpg,67,0,68,,,,,f,0.8986998000182211,0.1762178000062704,None,,,,,,68,0,67,1784.3480213999865,,,,,,,,,,,,,,,,,,,,,,,1784.3332929000026,1784.3480213999865,1784.847967699985,1784.8315295999637,,,,,,,,,,,,,,,,,,,,,,1784.8399160999688,1784.847967699985,1784.847967699985,1784.847967699985,1787.832377099956,f,0.8986998000182211,0.1762178000062704,1787.8325828999514,1787.8326508000027,None,1787.848084199999,1787.848084199999,1787.848084199999,,,,,,,,,,,,,,00042,001,2026-01-23_21h18.31.909,MST_task,2024.2.0,59.864753550383604,2026-01-23 21h18.39.136309 +0530,
,Objects\099a.jpg,68,0,69,,,,,f,1.1738374000415206,0.16020789998583496,None,,,,,,69,0,68,1787.848084199999,,,,,,,,,,,,,,,,,,,,,,,1787.8330564999487,1787.848084199999,1788.3482516999939,1788.3316573999473,,,,,,,,,,,,,,,,,,,,,,1788.337459100003,1788.3482516999939,1788.3482516999939,1788.3482516999939,1791.3333503999747,f,1.1738374000415206,0.16020789998583496,1791.3335411999724,1791.3336010999628,None,1791.348005799984,1791.348005799984,1791.348005799984,,,,,,,,,,,,,,00042,001,2026-01-23_21h18.31.909,MST_task,2024.2.0,59.864753550383604,2026-01-23 21h18.39.136309 +0530,
,Objects\071a.jpg,69,0,70,,,,,f,2.25884500000393,0.15945879998616874,None,,,,,,70,0,69,1791.348005799984,,,,,,,,,,,,,,,,,,,,,,,1791.3338809999987,1791.348005799984,1791.8479110999615,1791.8324946999783,,,,,,,,,,,,,,,,,,,,,,1791.8391051999643,1791.8479110999615,1791.8479110999615,1791.8479110999615,1794.8326404999825,f,2.25884500000393,0.15945879998616874,1794.8328647000017,1794.8329244999913,None,1794.8478074999875,1794.8478074999875,1794.8478074999875,,,,,,,,,,,,,,00042,001,2026-01-23_21h18.31.909,MST_task,2024.2.0,59.864753550383604,2026-01-23 21h18.39.136309 +0530,
,Scenes\090a.jpg,70,0,71,,,,,f,2.0108188999583945,0.15197629999602214,None,,,,,,71,0,70,1794.8478074999875,,,,,,,,,,,,,,,,,,,,,,,1794.8333223999944,1794.8478074999875,1795.3515459999908,1795.3317696999875,,,,,,,,,,,,,,,,,,,,,,1795.3488878999487,1795.3515459999908,1795.3515459999908,1795.3515459999908,1798.3483849999611,f,2.0108188999583945,0.15197629999602214,1798.3485795999877,1798.348646199971,None,,,,,,,,,,,,,,,,,00042,001,2026-01-23_21h18.31.909,MST_task,2024.2.0,59.864753550383604,2026-01-23 21h18.39.136309 +0530,
,Scenes\003a.jpg,71,0,72,,,,,j,1.8602906999876723,0.12013890000525862,None,,,,,,72,0,71,1798.3647083999822,,,,,,,,,,,,,,,,,,,,,,,1798.3490113999578,1798.3647083999822,1798.8699081999948,1798.8483687999542,,,,,,,,,,,,,,,,,,,,,,1798.8671761999722,1798.8699081999948,1798.8699081999948,1798.8699081999948,1801.864934299956,j,1.8602906999876723,0.12013890000525862,1801.8651310999994,1801.865196699975,None,,,,,,,,,,,,,,,,,00042,001,2026-01-23_21h18.31.909,MST_task,2024.2.0,59.864753550383604,2026-01-23 21h18.39.136309 +0530,
,Scenes\069a.jpg,72,0,73,,,,,j,1.4068672999856062,0.17657200002577156,None,,,,,,73,0,72,1801.8813792999717,,,,,,,,,,,,,,,,,,,,,,,1801.8655659999931,1801.8813792999717,1802.387438799953,1802.36511959997,,,,,,,,,,,,,,,,,,,,,,1802.3843985999702,1802.387438799953,1802.387438799953,1802.387438799953,1805.3814687999547,j,1.4068672999856062,0.17657200002577156,1805.3816632999806,1805.3817292999593,None,,,,,,,,,,,,,,,,,00042,001,2026-01-23_21h18.31.909,MST_task,2024.2.0,59.864753550383604,2026-01-23 21h18.39.136309 +0530,
,Scenes\039a.jpg,73,0,74,,,,,j,1.0959067999501713,0.13671400002203882,None,,,,,,74,0,73,1805.3979438999668,,,,,,,,,,,,,,,,,,,,,,,1805.382091699983,1805.3979438999668,1805.8983331999625,1805.8817793999915,,,,,,,,,,,,,,,,,,,,,,1805.8939182999893,1805.8983331999625,1805.8983331999625,1805.8983331999625,1808.8822594999801,j,1.0959067999501713,0.13671400002203882,1808.8824460999458,1808.8825084999553,None,1808.8980819999706,1808.8980819999706,1808.8980819999706,,,,,,,,,,,,,,00042,001,2026-01-23_21h18.31.909,MST_task,2024.2.0,59.864753550383604,2026-01-23 21h18.39.136309 +0530,
,Scenes\124a.jpg,74,0,75,,,,,f,2.468151899985969,0.1372193000279367,None,,,,,,75,0,74,1808.8980819999706,,,,,,,,,,,,,,,,,,,,,,,1808.8828759999597,1808.8980819999706,1809.3979237999883,1809.3814336999785,,,,,,,,,,,,,,,,,,,,,,1809.3954039999517,1809.3979237999883,1809.3979237999883,1809.3979237999883,1812.3824380000005,f,2.468151899985969,0.1372193000279367,1812.3826310999575,1812.3826946999761,None,1812.397981099959,1812.397981099959,1812.397981099959,,,,,,,,,,,,,,00042,001,2026-01-23_21h18.31.909,MST_task,2024.2.0,59.864753550383604,2026-01-23 21h18.39.136309 +0530,
,Scenes\133a.jpg,75,0,76,,,,,j,0.9748742000083439,0.12798980000661686,None,,,,,,76,0,75,1812.397981099959,,,,,,,,,,,,,,,,,,,,,,,1812.383066499955,1812.397981099959,1812.8993476000032,1812.8817827999592,,,,,,,,,,,,,,,,,,,,,,1812.896983099985,1812.8993476000032,1812.8993476000032,1812.8993476000032,1815.8983745999867,j,0.9748742000083439,0.12798980000661686,1815.8985973999952,1815.898664599983,None,,,,,,,,,,,,,,,,,00042,001,2026-01-23_21h18.31.909,MST_task,2024.2.0,59.864753550383604,2026-01-23 21h18.39.136309 +0530,
,Scenes\028a.jpg,76,0,77,,,,,j,1.0112147000036202,0.1915088999667205,None,,,,,,77,0,76,1815.915058399958,,,,,,,,,,,,,,,,,,,,,,,1815.8990580999525,1815.915058399958,1816.4154700999497,1816.3981362999766,,,,,,,,,,,,,,,,,,,,,,1816.4119719999726,1816.4154700999497,1816.4154700999497,1816.4154700999497,1819.399322799989,j,1.0112147000036202,0.1915088999667205,1819.3995215999894,1819.3995831999928,None,1819.4147196999984,1819.4147196999984,1819.4147196999984,,,,,,,,,,,,,,00042,001,2026-01-23_21h18.31.909,MST_task,2024.2.0,59.864753550383604,2026-01-23 21h18.39.136309 +0530,
,Objects\010a.jpg,77,0,78,,,,,f,1.0629427999956533,0.1767593999975361,None,,,,,,78,0,77,1819.4147196999984,,,,,,,,,,,,,,,,,,,,,,,1819.3999511000002,1819.4147196999984,1819.9151970999665,1819.898779799987,,,,,,,,,,,,,,,,,,,,,,1819.9077394999913,1819.9151970999665,1819.9151970999665,1819.9151970999665,1822.8990236999816,f,1.0629427999956533,0.1767593999975361,1822.8992129999679,1822.8992739999667,None,1822.9144838999491,1822.9144838999491,1822.9144838999491,,,,,,,,,,,,,,00042,001,2026-01-23_21h18.31.909,MST_task,2024.2.0,59.864753550383604,2026-01-23 21h18.39.136309 +0530,
,Objects\087a.jpg,78,0,79,,,,,f,2.0597221999778412,0.20760160003555939,None,,,,,,79,0,78,1822.9144838999491,,,,,,,,,,,,,,,,,,,,,,,1822.8995708999573,1822.9144838999491,1823.4149603999685,1823.3985785999685,,,,,,,,,,,,,,,,,,,,,,1823.404837799957,1823.4149603999685,1823.4149603999685,1823.4149603999685,1826.3988795999903,f,2.0597221999778412,0.20760160003555939,1826.399079099996,1826.3991393999895,None,1826.4148394999793,1826.4148394999793,1826.4148394999793,,,,,,,,,,,,,,00042,001,2026-01-23_21h18.31.909,MST_task,2024.2.0,59.864753550383604,2026-01-23 21h18.39.136309 +0530,
,Objects\090a.jpg,79,0,80,,,,,j,1.2711129000526853,0.14436679997015744,None,,,,,,80,0,79,1826.4148394999793,,,,,,,,,,,,,,,,,,,,,,,1826.3995219999924,1826.4148394999793,1826.9149815999554,1826.898381499981,,,,,,,,,,,,,,,,,,,,,,1826.9076791999978,1826.9149815999554,1826.9149815999554,1826.9149815999554,1829.8993378999876,j,1.2711129000526853,0.14436679997015744,1829.8995331999613,1829.8995963999769,None,1829.9147192999953,1829.9147192999953,1829.9147192999953,,,,,,,,,,,,,,00042,001,2026-01-23_21h18.31.909,MST_task,2024.2.0,59.864753550383604,2026-01-23 21h18.39.136309 +0530,
,Objects\073a.jpg,80,0,81,,,,,f,0.8597397999837995,0.1915537000168115,None,,,,,,81,0,80,1829.9147192999953,,,,,,,,,,,,,,,,,,,,,,,1829.899893499969,1829.9147192999953,1830.4149034000002,1830.3980846999912,,,,,,,,,,,,,,,,,,,,,,1830.4072679999517,1830.4149034000002,1830.4149034000002,1830.4149034000002,1833.3990257999976,f,0.8597397999837995,0.1915537000168115,1833.39921959996,1833.3992809999618,None,1833.4146456999588,1833.4146456999588,1833.4146456999588,,,,,,,,,,,,,,00042,001,2026-01-23_21h18.31.909,MST_task,2024.2.0,59.864753550383604,2026-01-23 21h18.39.136309 +0530,
,Objects\187a.jpg,81,0,82,,,,,f,1.0878612999804318,0.19170550000853837,None,,,,,,82,0,81,1833.4146456999588,,,,,,,,,,,,,,,,,,,,,,,1833.3996395999566,1833.4146456999588,1833.9147588999476,1833.898208300001,,,,,,,,,,,,,,,,,,,,,,1833.907199499954,1833.9147588999476,1833.9147588999476,1833.9147588999476,1836.8988836999633,f,1.0878612999804318,0.19170550000853837,1836.8990754999686,1836.8991364999674,None,1836.9144083999563,1836.9144083999563,1836.9144083999563,,,,,,,,,,,,,,00042,001,2026-01-23_21h18.31.909,MST_task,2024.2.0,59.864753550383604,2026-01-23 21h18.39.136309 +0530,
,Objects\055a.jpg,82,0,83,,,,,f,1.5234259000280872,0.16843179997522384,None,,,,,,83,0,82,1836.9144083999563,,,,,,,,,,,,,,,,,,,,,,,1836.8995068999939,1836.9144083999563,1837.4145894999965,1837.3983985999948,,,,,,,,,,,,,,,,,,,,,,1837.4072615999612,1837.4145894999965,1837.4145894999965,1837.4145894999965,1840.3992776999949,f,1.5234259000280872,0.16843179997522384,1840.3994701999472,1840.399530499999,None,1840.4144666999928,1840.4144666999928,1840.4144666999928,,,,,,,,,,,,,,00042,001,2026-01-23_21h18.31.909,MST_task,2024.2.0,59.864753550383604,2026-01-23 21h18.39.136309 +0530,
,Objects\154a.jpg,83,0,84,,,,,f,1.9753603999852203,0.1279738000012003,None,,,,,,84,0,83,1840.4144666999928,,,,,,,,,,,,,,,,,,,,,,,1840.3998274999904,1840.4144666999928,1840.9148099999875,1840.8983891999815,,,,,,,,,,,,,,,,,,,,,,1840.9071665999945,1840.9148099999875,1840.9148099999875,1840.9148099999875,1843.8991691999836,f,1.9753603999852203,0.1279738000012003,1843.899359699979,1843.8994204999763,None,1843.9147323999787,1843.9147323999787,1843.9147323999787,,,,,,,,,,,,,,00042,001,2026-01-23_21h18.31.909,MST_task,2024.2.0,59.864753550383604,2026-01-23 21h18.39.136309 +0530,
,Scenes\170a.jpg,84,0,85,,,,,j,1.3995218999916688,0.17600710003171116,None,,,,,,85,0,84,1843.9147323999787,,,,,,,,,,,,,,,,,,,,,,,1843.8997900999966,1843.9147323999787,1844.4188033999526,1844.3985760999494,,,,,,,,,,,,,,,,,,,,,,1844.4162696999847,1844.4188033999526,1844.4188033999526,1844.4188033999526,1847.4151238999912,j,1.3995218999916688,0.17600710003171116,1847.4153206999763,1847.4153876999626,None,,,,,,,,,,,,,,,,,00042,001,2026-01-23_21h18.31.909,MST_task,2024.2.0,59.864753550383604,2026-01-23 21h18.39.136309 +0530,
,Scenes\080a.jpg,85,0,86,,,,,j,1.646569900040049,0.15987869998207316,None,,,,,,86,0,85,1847.4313850000035,,,,,,,,,,,,,,,,,,,,,,,1847.4156741999905,1847.4313850000035,1847.9318039999926,1847.9151161999907,,,,,,,,,,,,,,,,,,,,,,1847.928475499968,1847.9318039999926,1847.9318039999926,1847.9318039999926,1850.9157447000034,j,1.646569900040049,0.15987869998207316,1850.9159354000003,1850.9159957999946,None,1850.9311938000028,1850.9311938000028,1850.9311938000028,,,,,,,,,,,,,,00042,001,2026-01-23_21h18.31.909,MST_task,2024.2.0,59.864753550383604,2026-01-23 21h18.39.136309 +0530,
,Scenes\173a.jpg,86,0,87,,,,,j,0.9070193000370637,0.14361430000280961,None,,,,,,87,0,86,1850.9311938000028,,,,,,,,,,,,,,,,,,,,,,,1850.9163604999776,1850.9311938000028,1851.4316269999836,1851.415111499955,,,,,,,,,,,,,,,,,,,,,,1851.4277376999962,1851.4316269999836,1851.4316269999836,1851.4316269999836,1854.4161216999637,j,0.9070193000370637,0.14361430000280961,1854.416325099999,1854.4163919999846,None,1854.4314242999535,1854.4314242999535,1854.4314242999535,,,,,,,,,,,,,,00042,001,2026-01-23_21h18.31.909,MST_task,2024.2.0,59.864753550383604,2026-01-23 21h18.39.136309 +0530,
,Scenes\171a.jpg,87,0,88,,,,,f,1.5932903999928385,0.14407360000768676,None,,,,,,88,0,87,1854.4314242999535,,,,,,,,,,,,,,,,,,,,,,,1854.4167122999788,1854.4314242999535,1854.937423299998,1854.9151360999676,,,,,,,,,,,,,,,,,,,,,,1854.9343354000011,1854.937423299998,1854.937423299998,1854.937423299998,1857.9316936999676,f,1.5932903999928385,0.14407360000768676,1857.9319086999749,1857.9319798999932,None,,,,,,,,,,,,,,,,,00042,001,2026-01-23_21h18.31.909,MST_task,2024.2.0,59.864753550383604,2026-01-23 21h18.39.136309 +0530,
,Scenes\154a.jpg,88,0,89,,,,,j,2.8655186999822035,None,None,,,,,,89,0,88,1857.9476964999922,,,,,,,,,,,,,,,,,,,,,,,1857.9323771999916,1857.9476964999922,1858.448569799948,1858.4317844999605,,,,,,,,,,,,,,,,,,,,,,1858.44190049998,1858.448569799948,1858.448569799948,1858.448569799948,1861.4329093999695,j,2.8655186999822035,None,1861.4331129999482,1861.4331751999562,None,1861.448047599988,1861.448047599988,1861.448047599988,,,,,,,,,,,,,,00042,001,2026-01-23_21h18.31.909,MST_task,2024.2.0,59.864753550383604,2026-01-23 21h18.39.136309 +0530,
,Scenes\176a.jpg,89,0,90,,,,,j,1.1058711999794468,0.17586700001265854,None,,,,,,90,0,89,1861.448047599988,,,,,,,,,,,,,,,,,,,,,,,1861.433553299983,1861.448047599988,1861.9527599999565,1861.9315657999832,,,,,,,,,,,,,,,,,,,,,,1861.9500300999498,1861.9527599999565,1861.9527599999565,1861.9527599999565,1864.9483124999679,j,1.1058711999794468,0.17586700001265854,1864.9485159000033,1864.9485827999888,None,,,,,,,,,,,,,,,,,00042,001,2026-01-23_21h18.31.909,MST_task,2024.2.0,59.864753550383604,2026-01-23 21h18.39.136309 +0530,
,Scenes\055a.jpg,90,0,91,,,,,j,1.0567224000114948,0.14377010002499446,None,,,,,,91,0,90,1864.9645405999618,,,,,,,,,,,,,,,,,,,,,,,1864.9488695999607,1864.9645405999618,1865.4656995999976,1865.4483912999858,,,,,,,,,,,,,,,,,,,,,,1865.463458299986,1865.4656995999976,1865.4656995999976,1865.4656995999976,1868.4492707999889,j,1.0567224000114948,0.14377010002499446,1868.4494722999516,1868.449533099949,None,1868.4647320999647,1868.4647320999647,1868.4647320999647,,,,,,,,,,,,,,00042,001,2026-01-23_21h18.31.909,MST_task,2024.2.0,59.864753550383604,2026-01-23 21h18.39.136309 +0530,
,Objects\001a.jpg,91,0,92,,,,,f,1.957862799987197,0.19124040001770481,None,,,,,,92,0,91,1868.4647320999647,,,,,,,,,,,,,,,,,,,,,,,1868.4498292999924,1868.4647320999647,1868.9651656999486,1868.948273899965,,,,,,,,,,,,,,,,,,,,,,1868.9577943999902,1868.9651656999486,1868.9651656999486,1868.9651656999486,1871.9489143999526,f,1.957862799987197,0.19124040001770481,1871.9491106999922,1871.9491733000032,None,1871.9644118999713,1871.9644118999713,1871.9644118999713,,,,,,,,,,,,,,00042,001,2026-01-23_21h18.31.909,MST_task,2024.2.0,59.864753550383604,2026-01-23 21h18.39.136309 +0530,
,Objects\045a.jpg,92,0,93,,,,,f,1.3528163000009954,0.2001322999713011,None,,,,,,93,0,92,1871.9644118999713,,,,,,,,,,,,,,,,,,,,,,,1871.9494642999489,1871.9644118999713,1872.4651566999964,1872.44798909995,,,,,,,,,,,,,,,,,,,,,,1872.455773499969,1872.4651566999964,1872.4651566999964,1872.4651566999964,1875.4484538999968,f,1.3528163000009954,0.2001322999713011,1875.448516299948,1875.4485321999528,None,1875.464412899979,1875.464412899979,1875.464412899979,,,,,,,,,,,,,,00042,001,2026-01-23_21h18.31.909,MST_task,2024.2.0,59.864753550383604,2026-01-23 21h18.39.136309 +0530,
,Objects\188a.jpg,93,0,94,,,,,f,1.629613600031007,0.19152459996985272,None,,,,,,94,0,93,1875.464412899979,,,,,,,,,,,,,,,,,,,,,,,1875.4486382999457,1875.464412899979,1875.9650116999983,1875.9483897999744,,,,,,,,,,,,,,,,,,,,,,1875.957056699961,1875.9650116999983,1875.9650116999983,1875.9650116999983,1878.9492516999599,f,1.629613600031007,0.19152459996985272,1878.949443599966,1878.949504499964,None,1878.964751899999,1878.964751899999,1878.964751899999,,,,,,,,,,,,,,00042,001,2026-01-23_21h18.31.909,MST_task,2024.2.0,59.864753550383604,2026-01-23 21h18.39.136309 +0530,
,Objects\108a.jpg,94,0,95,,,,,f,2.0323574999929406,0.20021699997596443,None,,,,,,95,0,94,1878.964751899999,,,,,,,,,,,,,,,,,,,,,,,1878.9498755999957,1878.964751899999,1879.4657547999523,1879.4484004999977,,,,,,,,,,,,,,,,,,,,,,1879.4568789999466,1879.4657547999523,1879.4657547999523,1879.4657547999523,1882.4492026999942,f,2.0323574999929406,0.20021699997596443,1882.4493935999926,1882.4494565999485,None,1882.4644817999797,1882.4644817999797,1882.4644817999797,,,,,,,,,,,,,,00042,001,2026-01-23_21h18.31.909,MST_task,2024.2.0,59.864753550383604,2026-01-23 21h18.39.136309 +0530,
,Objects\023a.jpg,95,0,96,,,,,f,0.837669700034894,0.24784749996615574,None,,,,,,96,0,95,1882.4644817999797,,,,,,,,,,,,,,,,,,,,,,,1882.4498299999977,1882.4644817999797,1882.964949599991,1882.9484140999848,,,,,,,,,,,,,,,,,,,,,,1882.9571110999677,1882.964949599991,1882.964949599991,1882.964949599991,1885.9492118999478,f,0.837669700034894,0.24784749996615574,1885.9494048999622,1885.949465099955,None,1885.9645497999736,1885.9645497999736,1885.9645497999736,,,,,,,,,,,,,,00042,001,2026-01-23_21h18.31.909,MST_task,2024.2.0,59.864753550383604,2026-01-23 21h18.39.136309 +0530,
,Objects\126a.jpg,96,0,97,,,,,f,1.057722500001546,0.17621790000703186,None,,,,,,97,0,96,1885.9645497999736,,,,,,,,,,,,,,,,,,,,,,,1885.9497559999581,1885.9645497999736,1886.464897400001,1886.448088199948,,,,,,,,,,,,,,,,,,,,,,1886.4571940999595,1886.464897400001,1886.464897400001,1886.464897400001,1889.4490776999737,f,1.057722500001546,0.17621790000703186,1889.449271199992,1889.44933079998,None,1889.4645617999486,1889.4645617999486,1889.4645617999486,,,,,,,,,,,,,,00042,001,2026-01-23_21h18.31.909,MST_task,2024.2.0,59.864753550383604,2026-01-23 21h18.39.136309 +0530,
,Objects\025a.jpg,97,0,98,,,,,f,1.2298426000052132,0.19225329998880625,None,,,,,,98,0,97,1889.4645617999486,,,,,,,,,,,,,,,,,,,,,,,1889.4496172999498,1889.4645617999486,1889.9647948999773,1889.9481763999793,,,,,,,,,,,,,,,,,,,,,,1889.9562196999905,1889.9647948999773,1889.9647948999773,1889.9647948999773,1892.9491896999534,f,1.2298426000052132,0.19225329998880625,1892.9494018999976,1892.9494618999888,None,1892.9647519999999,1892.9647519999999,1892.9647519999999,,,,,,,,,,,,,,00042,001,2026-01-23_21h18.31.909,MST_task,2024.2.0,59.864753550383604,2026-01-23 21h18.39.136309 +0530,
,Scenes\019a.jpg,98,0,99,,,,,f,1.2882014999631792,0.24014920002082363,None,,,,,,99,0,98,1892.9647519999999,,,,,,,,,,,,,,,,,,,,,,,1892.9498440999887,1892.9647519999999,1893.4664961999515,1893.4480939999921,,,,,,,,,,,,,,,,,,,,,,1893.4639326999895,1893.4664961999515,1893.4664961999515,1893.4664961999515,1896.4650828999584,f,1.2882014999631792,0.24014920002082363,1896.4652961999527,1896.4653623999911,None,,,,,,,,,,,,,,,,,00042,001,2026-01-23_21h18.31.909,MST_task,2024.2.0,59.864753550383604,2026-01-23 21h18.39.136309 +0530,
,Scenes\103a.jpg,99,0,100,,,,,j,2.0654237999697216,0.21634199999971315,None,,,,,,100,0,99,1896.481414799986,,,,,,,,,,,,,,,,,,,,,,,1896.465660499991,1896.481414799986,1896.9845453999587,1896.9650383999688,,,,,,,,,,,,,,,,,,,,,,1896.98187899997,1896.9845453999587,1896.9845453999587,1896.9845453999587,1899.9818132999935,j,2.0654237999697216,0.21634199999971315,1899.982033599983,1899.9820990999578,None,,,,,,,,,,,,,,,,,00042,001,2026-01-23_21h18.31.909,MST_task,2024.2.0,59.864753550383604,2026-01-23 21h18.39.136309 +0530,
,Scenes\136a.jpg,100,0,101,,,,,j,2.3282746999757364,0.15965679998043925,None,,,,,,101,0,100,1899.9980494999909,,,,,,,,,,,,,,,,,,,,,,,1899.9824676999706,1899.9980494999909,1900.4983818999608,1900.481909199967,,,,,,,,,,,,,,,,,,,,,,1900.4948262999533,1900.4983818999608,1900.4983818999608,1900.4983818999608,1903.4826350999647,j,2.3282746999757364,0.15965679998043925,1903.4828306999989,1903.4828949999646,None,1903.4980588000035,1903.4980588000035,1903.4980588000035,,,,,,,,,,,,,,00042,001,2026-01-23_21h18.31.909,MST_task,2024.2.0,59.864753550383604,2026-01-23 21h18.39.136309 +0530,
,Scenes\131a.jpg,101,0,102,,,,,j,1.2346317999763414,0.21593240002403036,None,,,,,,102,0,101,1903.4980588000035,,,,,,,,,,,,,,,,,,,,,,,1903.4832809999934,1903.4980588000035,1904.00798699999,1903.9817792999675,,,,,,,,,,,,,,,,,,,,,,1904.0051117999828,1904.00798699999,1904.00798699999,1904.00798699999,1906.9983961999533,j,1.2346317999763414,0.21593240002403036,1906.998590299976,1906.9986573999631,None,,,,,,,,,,,,,,,,,00042,001,2026-01-23_21h18.31.909,MST_task,2024.2.0,59.864753550383604,2026-01-23 21h18.39.136309 +0530,
,Scenes\158a.jpg,102,0,103,,,,,j,1.1873374999850057,0.2325297999777831,None,,,,,,103,0,102,1907.0145411999547,,,,,,,,,,,,,,,,,,,,,,,1906.998965899984,1907.0145411999547,1907.5185969999875,1907.497887799982,,,,,,,,,,,,,,,,,,,,,,1907.515796099964,1907.5185969999875,1907.5185969999875,1907.5185969999875,1910.5147699999507,j,1.1873374999850057,0.2325297999777831,1910.5149710999685,1910.5150358999963,None,,,,,,,,,,,,,,,,,00042,001,2026-01-23_21h18.31.909,MST_task,2024.2.0,59.864753550383604,2026-01-23 21h18.39.136309 +0530,
,Scenes\008a.jpg,103,0,104,,,,,j,0.8592024999670684,0.21617120003793389,None,,,,,,104,0,103,1910.5314006999834,,,,,,,,,,,,,,,,,,,,,,,1910.5153209999553,1910.5314006999834,1911.0388474999927,1911.0151199999964,,,,,,,,,,,,,,,,,,,,,,1911.0358515999978,1911.0388474999927,1911.0388474999927,1911.0388474999927,1914.031607299985,j,0.8592024999670684,0.21617120003793389,1914.0318194999709,1914.0318835999933,None,,,,,,,,,,,,,,,,,00042,001,2026-01-23_21h18.31.909,MST_task,2024.2.0,59.864753550383604,2026-01-23 21h18.39.136309 +0530,
,Scenes\016a.jpg,104,0,105,,,,,j,1.1975386000121944,0.15179400000488386,None,,,,,,105,0,104,1914.0490630999557,,,,,,,,,,,,,,,,,,,,,,,1914.0321828000015,1914.0490630999557,,1914.5480426999857,,,,,,,,,,,,,,,,,,,,,,1914.5582043999457,1914.5650628999574,1914.5650628999574,1914.5650628999574,1917.5483973999508,j,1.1975386000121944,0.15179400000488386,1917.5485973999603,1917.5486640000017,None,,,,,,,,,,,,,,,,,00042,001,2026-01-23_21h18.31.909,MST_task,2024.2.0,59.864753550383604,2026-01-23 21h18.39.136309 +0530,
,Objects\005a.jpg,105,0,106,,,,,f,1.2329711000202224,0.24079529999289662,None,,,,,,106,0,105,1917.5647958999616,,,,,,,,,,,,,,,,,,,,,,,1917.5490196999745,1917.5647958999616,1918.065034899977,1918.0483825999545,,,,,,,,,,,,,,,,,,,,,,1918.0592865999788,1918.065034899977,1918.065034899977,1918.065034899977,1921.0491324999603,f,1.2329711000202224,0.24079529999289662,1921.049329499947,1921.0493922999594,None,1921.0649986999924,1921.0649986999924,1921.0649986999924,,,,,,,,,,,,,,00042,001,2026-01-23_21h18.31.909,MST_task,2024.2.0,59.864753550383604,2026-01-23 21h18.39.136309 +0530,
,Objects\013a.jpg,106,0,107,,,,,f,1.0689685000106692,0.21616660000290722,None,,,,,,107,0,106,1921.0649986999924,,,,,,,,,,,,,,,,,,,,,,,1921.0497694999794,1921.0649986999924,1921.564940799959,1921.5482139999513,,,,,,,,,,,,,,,,,,,,,,1921.5571480999934,1921.564940799959,1921.564940799959,1921.564940799959,1924.5489001999958,f,1.0689685000106692,0.21616660000290722,1924.54908659996,1924.5491480999626,None,1924.5647346999613,1924.5647346999613,1924.5647346999613,,,,,,,,,,,,,,00042,001,2026-01-23_21h18.31.909,MST_task,2024.2.0,59.864753550383604,2026-01-23 21h18.39.136309 +0530,
,Objects\114a.jpg,107,0,108,,,,,f,1.6095223000156693,0.18429800000740215,None,,,,,,108,0,107,1924.5647346999613,,,,,,,,,,,,,,,,,,,,,,,1924.5494387999643,1924.5647346999613,1925.064953699999,1925.048380799999,,,,,,,,,,,,,,,,,,,,,,1925.0567672000034,1925.064953699999,1925.064953699999,1925.064953699999,1928.048991299991,f,1.6095223000156693,0.18429800000740215,1928.0491848999518,1928.0492451000027,None,1928.0651165999589,1928.0651165999589,1928.0651165999589,,,,,,,,,,,,,,00042,001,2026-01-23_21h18.31.909,MST_task,2024.2.0,59.864753550383604,2026-01-23 21h18.39.136309 +0530,
,Objects\125a.jpg,108,0,109,,,,,f,2.309795100009069,0.19149439997272566,None,,,,,,109,0,108,1928.0651165999589,,,,,,,,,,,,,,,,,,,,,,,1928.0495359999477,1928.0651165999589,1928.564792499994,1928.5483811000013,,,,,,,,,,,,,,,,,,,,,,1928.5574160999968,1928.564792499994,1928.564792499994,1928.564792499994,1931.5492114999797,f,2.309795100009069,0.19149439997272566,1931.549411199987,1931.5494725999888,None,1931.5647412999533,1931.5647412999533,1931.5647412999533,,,,,,,,,,,,,,00042,001,2026-01-23_21h18.31.909,MST_task,2024.2.0,59.864753550383604,2026-01-23 21h18.39.136309 +0530,
,Objects\035a.jpg,109,0,110,,,,,f,0.7451547000091523,0.1682990999543108,None,,,,,,110,0,109,1931.5647412999533,,,,,,,,,,,,,,,,,,,,,,,1931.5498493999476,1931.5647412999533,1932.0648343999637,1932.0484678999637,,,,,,,,,,,,,,,,,,,,,,1932.0566676000017,1932.0648343999637,1932.0648343999637,1932.0648343999637,1935.0492127999896,f,0.7451547000091523,0.1682990999543108,1935.0494647999876,1935.0495253999834,None,1935.064731099992,1935.064731099992,1935.064731099992,,,,,,,,,,,,,,00042,001,2026-01-23_21h18.31.909,MST_task,2024.2.0,59.864753550383604,2026-01-23 21h18.39.136309 +0530,
,Objects\041a.jpg,110,0,111,,,,,f,1.333225499955006,0.16077750001568347,None,,,,,,111,0,110,1935.064731099992,,,,,,,,,,,,,,,,,,,,,,,1935.049818200001,1935.064731099992,1935.5647514999728,1935.5479980999953,,,,,,,,,,,,,,,,,,,,,,1935.554847099993,1935.5647514999728,1935.5647514999728,1935.5647514999728,1938.5491770999506,f,1.333225499955006,0.16077750001568347,1938.5493660999928,1938.549424799974,None,1938.565494599985,1938.565494599985,1938.565494599985,,,,,,,,,,,,,,00042,001,2026-01-23_21h18.31.909,MST_task,2024.2.0,59.864753550383604,2026-01-23 21h18.39.136309 +0530,
,Objects\067a.jpg,111,0,112,,,,,f,1.0577546000131406,0.1915760000119917,None,,,,,,112,0,111,1938.565494599985,,,,,,,,,,,,,,,,,,,,,,,1938.549789099954,1938.565494599985,1939.0648063999834,1939.048387399991,,,,,,,,,,,,,,,,,,,,,,1939.0574881999637,1939.0648063999834,1939.0648063999834,1939.0648063999834,1942.049595199991,f,1.0577546000131406,0.1915760000119917,1942.0497895999579,1942.0498497999506,None,1942.0654784999788,1942.0654784999788,1942.0654784999788,,,,,,,,,,,,,,00042,001,2026-01-23_21h18.31.909,MST_task,2024.2.0,59.864753550383604,2026-01-23 21h18.39.136309 +0530,
,Scenes\132a.jpg,112,0,113,,,,,j,1.2115856000455096,0.19264029996702448,None,,,,,,113,0,112,1942.0654784999788,,,,,,,,,,,,,,,,,,,,,,,1942.0501406999538,1942.0654784999788,,1942.5657957999501,,,,,,,,,,,,,,,,,,,,,,1942.5760248999577,1942.5826115999953,1942.5826115999953,1942.5826115999953,1945.5647980999784,j,1.2115856000455096,0.19264029996702448,1945.5649931999505,1945.5650603999966,None,,,,,,,,,,,,,,,,,00042,001,2026-01-23_21h18.31.909,MST_task,2024.2.0,59.864753550383604,2026-01-23 21h18.39.136309 +0530,
,Scenes\119a.jpg,113,0,114,,,,,j,0.7691197000094689,0.15224089997354895,None,,,,,,114,0,113,1945.581859799975,,,,,,,,,,,,,,,,,,,,,,,1945.56536399998,1945.581859799975,1946.0890010999865,1946.0651369999978,,,,,,,,,,,,,,,,,,,,,,1946.0861838999554,1946.0890010999865,1946.0890010999865,1946.0890010999865,1949.0660849999986,j,0.7691197000094689,0.15224089997354895,1949.0662876999704,1949.0663556999643,None,,,,,,,,,,,,,,,,,00042,001,2026-01-23_21h18.31.909,MST_task,2024.2.0,59.864753550383604,2026-01-23 21h18.39.136309 +0530,
,Scenes\114a.jpg,114,0,115,,,,,f,1.159389899985399,0.19283030001679435,None,,,,,,115,0,114,1949.0816995999776,,,,,,,,,,,,,,,,,,,,,,,1949.0667186999926,1949.0816995999776,1949.594607899955,1949.5651387999533,,,,,,,,,,,,,,,,,,,,,,1949.5917458999902,1949.594607899955,1949.594607899955,1949.594607899955,1952.5814958999981,f,1.159389899985399,0.19283030001679435,1952.581690299965,1952.5817558999988,None,,,,,,,,,,,,,,,,,00042,001,2026-01-23_21h18.31.909,MST_task,2024.2.0,59.864753550383604,2026-01-23 21h18.39.136309 +0530,
,Scenes\150a.jpg,115,0,116,,,,,f,0.8938555999775417,0.18453410000074655,None,,,,,,116,0,115,1952.5984100999776,,,,,,,,,,,,,,,,,,,,,,,1952.582121399988,1952.5984100999776,1953.100038399978,1953.081516199978,,,,,,,,,,,,,,,,,,,,,,1953.0973407999845,1953.100038399978,1953.100038399978,1953.100038399978,1956.0982054999913,f,0.8938555999775417,0.18453410000074655,1956.0983997999574,1956.0984682999551,None,,,,,,,,,,,,,,,,,00042,001,2026-01-23_21h18.31.909,MST_task,2024.2.0,59.864753550383604,2026-01-23 21h18.39.136309 +0530,
,Scenes\183a.jpg,116,0,117,,,,,f,1.5696206000284292,0.15971779997926205,None,,,,,,117,0,116,1956.1144076999626,,,,,,,,,,,,,,,,,,,,,,,1956.0988307999796,1956.1144076999626,1956.6249479999533,1956.5980589999817,,,,,,,,,,,,,,,,,,,,,,1956.622190999973,1956.6249479999533,1956.6249479999533,1956.6249479999533,1959.616048900003,f,1.5696206000284292,0.15971779997926205,1959.6162424999638,1959.616309099947,None,,,,,,,,,,,,,,,,,00042,001,2026-01-23_21h18.31.909,MST_task,2024.2.0,59.864753550383604,2026-01-23 21h18.39.136309 +0530,
,Scenes\115a.jpg,117,0,118,,,,,f,2.358548200048972,0.20790579996537417,None,,,,,,118,0,117,1959.631681400002,,,,,,,,,,,,,,,,,,,,,,,1959.6166724999784,1959.631681400002,1960.1317802999984,1960.115127099969,,,,,,,,,,,,,,,,,,,,,,1960.1295261999476,1960.1317802999984,1960.1317802999984,1960.1317802999984,1963.11605219997,f,2.358548200048972,0.20790579996537417,1963.1162467999966,1963.11630709999,None,1963.1315804999904,1963.1315804999904,1963.1315804999904,,,,,,,,,,,,,,00042,001,2026-01-23_21h18.31.909,MST_task,2024.2.0,59.864753550383604,2026-01-23 21h18.39.136309 +0530,
,Scenes\045a.jpg,118,0,119,,,,,f,2.3935192999779247,0.21589280001353472,None,,,,,,119,0,118,1963.1315804999904,,,,,,,,,,,,,,,,,,,,,,,1963.116611299978,1963.1315804999904,1963.6407055999734,1963.6151262999629,,,,,,,,,,,,,,,,,,,,,,1963.6375724999816,1963.6407055999734,1963.6407055999734,1963.6407055999734,1966.631819000002,f,2.3935192999779247,0.21589280001353472,1966.6320225999807,1966.6320886999601,None,,,,,,,,,,,,,,,,,00042,001,2026-01-23_21h18.31.909,MST_task,2024.2.0,59.864753550383604,2026-01-23 21h18.39.136309 +0530,
,Objects\181a.jpg,119,0,120,,,,,f,1.221257199998945,0.23150779999559745,None,,,,,,120,0,119,1966.6478729999508,,,,,,,,,,,,,,,,,,,,,,,1966.6323833999922,1966.6478729999508,1967.1492747999728,1967.1314748000004,,,,,,,,,,,,,,,,,,,,,,1967.1418763999827,1967.1492747999728,1967.1492747999728,1967.1492747999728,1970.1481701000012,f,1.221257199998945,0.23150779999559745,1970.148366999987,1970.1484325999627,None,,,,,,,,,,,,,,,,,00042,001,2026-01-23_21h18.31.909,MST_task,2024.2.0,59.864753550383604,2026-01-23 21h18.39.136309 +0530,
,Objects\098a.jpg,120,0,121,,,,,f,1.1055490999715403,0.1676123000215739,None,,,,,,121,0,120,1970.1644668999943,,,,,,,,,,,,,,,,,,,,,,,1970.148718899989,1970.1644668999943,,1970.64868079999,,,,,,,,,,,,,,,,,,,,,,1970.6581538000028,1970.6649893999565,1970.6649893999565,1970.6649893999565,1973.6485454999493,f,1.1055490999715403,0.1676123000215739,1973.648622699955,1973.648645899957,None,1973.6647764999652,1973.6647764999652,1973.6647764999652,,,,,,,,,,,,,,00042,001,2026-01-23_21h18.31.909,MST_task,2024.2.0,59.864753550383604,2026-01-23 21h18.39.136309 +0530,
,Objects\162a.jpg,121,0,122,,,,,f,1.9249080999870785,0.2001647000433877,None,,,,,,122,0,121,1973.6647764999652,,,,,,,,,,,,,,,,,,,,,,,1973.6487833999563,1973.6647764999652,1974.165124799998,1974.1486549999681,,,,,,,,,,,,,,,,,,,,,,1974.1582320999587,1974.165124799998,1974.165124799998,1974.165124799998,1977.148830799968,f,1.9249080999870785,0.2001647000433877,1977.1490189999458,1977.1490795999998,None,1977.1651286999695,1977.1651286999695,1977.1651286999695,,,,,,,,,,,,,,00042,001,2026-01-23_21h18.31.909,MST_task,2024.2.0,59.864753550383604,2026-01-23 21h18.39.136309 +0530,
,Objects\100a.jpg,122,0,123,,,,,f,1.2091479999944568,0.22425080003449693,None,,,,,,123,0,122,1977.1651286999695,,,,,,,,,,,,,,,,,,,,,,,1977.14937249996,1977.1651286999695,1977.6647708999808,1977.6488430000027,,,,,,,,,,,,,,,,,,,,,,1977.6574786999845,1977.6647708999808,1977.6647708999808,1977.6647708999808,1980.6493087999988,f,1.2091479999944568,0.22425080003449693,1980.6494970999775,1980.649559099984,None,1980.6645062000025,1980.6645062000025,1980.6645062000025,,,,,,,,,,,,,,00042,001,2026-01-23_21h18.31.909,MST_task,2024.2.0,59.864753550383604,2026-01-23 21h18.39.136309 +0530,
,Objects\066a.jpg,123,0,124,,,,,j,1.245120899984613,0.14416959998197854,None,,,,,,124,0,123,1980.6645062000025,,,,,,,,,,,,,,,,,,,,,,,1980.649856199976,1980.6645062000025,1981.1650164999883,1981.1483385999454,,,,,,,,,,,,,,,,,,,,,,1981.155738100002,1981.1650164999883,1981.1650164999883,1981.1650164999883,1984.1490696999826,j,1.245120899984613,0.14416959998197854,1984.1492634000024,1984.1493229999905,None,1984.164510499977,1984.164510499977,1984.164510499977,,,,,,,,,,,,,,00042,001,2026-01-23_21h18.31.909,MST_task,2024.2.0,59.864753550383604,2026-01-23 21h18.39.136309 +0530,
,Objects\050a.jpg,124,0,125,,,,,f,1.4088893999578431,0.21673010004451498,None,,,,,,125,0,124,1984.164510499977,,,,,,,,,,,,,,,,,,,,,,,1984.1496111999732,1984.164510499977,1984.66511849995,1984.6481647999608,,,,,,,,,,,,,,,,,,,,,,1984.6570651999791,1984.66511849995,1984.66511849995,1984.66511849995,1987.6490636999952,f,1.4088893999578431,0.21673010004451498,1987.649259399972,1987.6493188999593,None,1987.6645966999931,1987.6645966999931,1987.6645966999931,,,,,,,,,,,,,,00042,001,2026-01-23_21h18.31.909,MST_task,2024.2.0,59.864753550383604,2026-01-23 21h18.39.136309 +0530,
,Objects\137a.jpg,125,0,126,,,,,f,2.044487899984233,0.16819400002714247,None,,,,,,126,0,125,1987.6645966999931,,,,,,,,,,,,,,,,,,,,,,,1987.64961079997,1987.6645966999931,1988.1655459999456,1988.148368299997,,,,,,,,,,,,,,,,,,,,,,1988.156451399962,1988.1655459999456,1988.1655459999456,1988.1655459999456,1991.1491077999817,f,2.044487899984233,0.16819400002714247,1991.14930369996,1991.14935349999,None,1991.1647580999997,1991.1647580999997,1991.1647580999997,,,,,,,,,,,,,,00042,001,2026-01-23_21h18.31.909,MST_task,2024.2.0,59.864753550383604,2026-01-23 21h18.39.136309 +0530,
,Scenes\179a.jpg,126,0,127,,,,,j,0.936959599959664,0.15208960004383698,None,,,,,,127,0,126,1991.1647580999997,,,,,,,,,,,,,,,,,,,,,,,1991.1495928999502,1991.1647580999997,1991.6650108999456,1991.6484321999596,,,,,,,,,,,,,,,,,,,,,,1991.6612355999532,1991.6650108999456,1991.6650108999456,1991.6650108999456,1994.6492402000003,j,0.936959599959664,0.15208960004383698,1994.6494369999855,1994.6494982999866,None,1994.6646850999678,1994.6646850999678,1994.6646850999678,,,,,,,,,,,,,,00042,001,2026-01-23_21h18.31.909,MST_task,2024.2.0,59.864753550383604,2026-01-23 21h18.39.136309 +0530,
,Scenes\164a.jpg,127,0,128,,,,,j,2.4523170000175014,0.17692479997640476,None,,,,,,128,0,127,1994.6646850999678,,,,,,,,,,,,,,,,,,,,,,,1994.649797399994,1994.6646850999678,1995.1655213999911,1995.1481909999857,,,,,,,,,,,,,,,,,,,,,,1995.158566500002,1995.1655213999911,1995.1655213999911,1995.1655213999911,1998.1489051999524,j,2.4523170000175014,0.17692479997640476,1998.1489914999693,1998.1490169999888,None,1998.1648024999886,1998.1648024999886,1998.1648024999886,,,,,,,,,,,,,,00042,001,2026-01-23_21h18.31.909,MST_task,2024.2.0,59.864753550383604,2026-01-23 21h18.39.136309 +0530,
,Scenes\094a.jpg,128,0,129,,,,,f,1.0212311999639496,0.328069300041534,None,,,,,,129,0,128,1998.1648024999886,,,,,,,,,,,,,,,,,,,,,,,1998.1491368999705,1998.1648024999886,1998.668900299992,1998.6483943999629,,,,,,,,,,,,,,,,,,,,,,1998.665951199946,1998.668900299992,1998.668900299992,1998.668900299992,2001.665146299987,f,1.0212311999639496,0.328069300041534,2001.66534279997,2001.6654086999479,None,,,,,,,,,,,,,,,,,00042,001,2026-01-23_21h18.31.909,MST_task,2024.2.0,59.864753550383604,2026-01-23 21h18.39.136309 +0530,
,Scenes\189a.jpg,129,0,130,,,,,j,1.4445747999707237,0.16816130001097918,None,,,,,,130,0,129,2001.6815684999456,,,,,,,,,,,,,,,,,,,,,,,2001.6656969999894,2001.6815684999456,2002.1813437999808,2002.1651296999771,,,,,,,,,,,,,,,,,,,,,,2002.1785758999758,2002.1813437999808,2002.1813437999808,2002.1813437999808,2005.1656876999768,j,1.4445747999707237,0.16816130001097918,2005.165897699946,2005.1659576999955,None,2005.1820112999994,2005.1820112999994,2005.1820112999994,,,,,,,,,,,,,,00042,001,2026-01-23_21h18.31.909,MST_task,2024.2.0,59.864753550383604,2026-01-23 21h18.39.136309 +0530,
,Scenes\014a.jpg,130,0,131,,,,,j,1.7350302999839187,0.1684123000013642,None,,,,,,131,0,130,2005.1820112999994,,,,,,,,,,,,,,,,,,,,,,,2005.1662596999668,2005.1820112999994,2005.6828435999923,2005.6651996999863,,,,,,,,,,,,,,,,,,,,,,2005.6771455999697,2005.6828435999923,2005.6828435999923,2005.6828435999923,2008.6817893999978,j,1.7350302999839187,0.1684123000013642,2008.6819916999666,2008.6820593999582,None,,,,,,,,,,,,,,,,,00042,001,2026-01-23_21h18.31.909,MST_task,2024.2.0,59.864753550383604,2026-01-23 21h18.39.136309 +0530,
,Scenes\005a.jpg,131,0,132,,,,,f,1.4835841999738477,0.17615950002800673,None,,,,,,132,0,131,2008.6988348999876,,,,,,,,,,,,,,,,,,,,,,,2008.6823484999477,2008.6988348999876,2009.2144442999852,2009.181793799973,,,,,,,,,,,,,,,,,,,,,,2009.2109964999836,2009.2144442999852,2009.2144442999852,2009.2144442999852,2012.1823567999527,f,1.4835841999738477,0.17615950002800673,2012.1825719999615,2012.1826390999486,None,,,,,,,,,,,,,,,,,00042,001,2026-01-23_21h18.31.909,MST_task,2024.2.0,59.864753550383604,2026-01-23 21h18.39.136309 +0530,
,Scenes\066a.jpg,132,0,133,,,,,j,1.8159908999805339,0.14494670002022758,None,,,,,,133,0,132,2012.1980134999612,,,,,,,,,,,,,,,,,,,,,,,2012.1829535999568,2012.1980134999612,2012.6982183999498,2012.6812427999685,,,,,,,,,,,,,,,,,,,,,,2012.6932390999864,2012.6982183999498,2012.6982183999498,2012.6982183999498,2015.6825200999738,j,1.8159908999805339,0.14494670002022758,2015.6827084999532,2015.6827607000014,None,2015.6979120999458,2015.6979120999458,2015.6979120999458,,,,,,,,,,,,,,00042,001,2026-01-23_21h18.31.909,MST_task,2024.2.0,59.864753550383604,2026-01-23 21h18.39.136309 +0530,
,Objects\070a.jpg,133,0,134,,,,,f,1.2516305000171997,0.1843683000188321,None,,,,,,134,0,133,2015.6979120999458,,,,,,,,,,,,,,,,,,,,,,,2015.6830780999735,2015.6979120999458,2016.1983979999786,2016.1818619999685,,,,,,,,,,,,,,,,,,,,,,2016.1917473999783,2016.1983979999786,2016.1983979999786,2016.1983979999786,2019.1824268999626,f,1.2516305000171997,0.1843683000188321,2019.1826166999526,2019.1826756999944,None,2019.1980005999794,2019.1980005999794,2019.1980005999794,,,,,,,,,,,,,,00042,001,2026-01-23_21h18.31.909,MST_task,2024.2.0,59.864753550383604,2026-01-23 21h18.39.136309 +0530,
,Objects\113a.jpg,134,0,135,,,,,f,2.160424100002274,0.19143299997085705,None,,,,,,135,0,134,2019.1980005999794,,,,,,,,,,,,,,,,,,,,,,,2019.1829689999577,2019.1980005999794,2019.6981346999528,2019.6817996999598,,,,,,,,,,,,,,,,,,,,,,2019.6885827999795,2019.6981346999528,2019.6981346999528,2019.6981346999528,2022.6827053999878,f,2.160424100002274,0.19143299997085705,2022.6829003999592,2022.682959400001,None,2022.6979541999754,2022.6979541999754,2022.6979541999754,,,,,,,,,,,,,,00042,001,2026-01-23_21h18.31.909,MST_task,2024.2.0,59.864753550383604,2026-01-23 21h18.39.136309 +0530,
,Objects\168a.jpg,135,0,136,,,,,f,2.1957325999974273,0.20748230000026524,None,,,,,,136,0,135,2022.6979541999754,,,,,,,,,,,,,,,,,,,,,,,2022.683254899981,2022.6979541999754,2023.1987771999557,2023.1818329999805,,,,,,,,,,,,,,,,,,,,,,2023.1906978999614,2023.1987771999557,2023.1987771999557,2023.1987771999557,2026.1827032999718,f,2.1957325999974273,0.20748230000026524,2026.1829151999555,2026.1829819999984,None,2026.1983597999788,2026.1983597999788,2026.1983597999788,,,,,,,,,,,,,,00042,001,2026-01-23_21h18.31.909,MST_task,2024.2.0,59.864753550383604,2026-01-23 21h18.39.136309 +0530,
,Objects\062a.jpg,136,0,137,,,,,f,0.7355419999803416,0.14415760000701994,None,,,,,,137,0,136,2026.1983597999788,,,,,,,,,,,,,,,,,,,,,,,2026.1833846999798,2026.1983597999788,2026.6982898999704,2026.6825288999826,,,,,,,,,,,,,,,,,,,,,,2026.6908047999605,2026.6982898999704,2026.6982898999704,2026.6982898999704,2029.6833585999557,f,0.7355419999803416,0.14415760000701994,2029.6835469999933,2029.6836057999753,None,2029.6977273999946,2029.6977273999946,2029.6977273999946,,,,,,,,,,,,,,00042,001,2026-01-23_21h18.31.909,MST_task,2024.2.0,59.864753550383604,2026-01-23 21h18.39.136309 +0530,
,Objects\093a.jpg,137,0,138,,,,,j,1.2198014999739826,0.21569290000479668,None,,,,,,138,0,137,2029.6977273999946,,,,,,,,,,,,,,,,,,,,,,,2029.6838958999724,2029.6977273999946,2030.198272199952,2030.1818052000017,,,,,,,,,,,,,,,,,,,,,,2030.190969599993,2030.198272199952,2030.198272199952,2030.198272199952,2033.182338899991,j,1.2198014999739826,0.21569290000479668,2033.1825292999856,2033.182589599979,None,2033.1976760999532,2033.1976760999532,2033.1976760999532,,,,,,,,,,,,,,00042,001,2026-01-23_21h18.31.909,MST_task,2024.2.0,59.864753550383604,2026-01-23 21h18.39.136309 +0530,
,Objects\131a.jpg,138,0,139,,,,,f,1.1435673999949358,0.16782549995696172,None,,,,,,139,0,138,2033.1976760999532,,,,,,,,,,,,,,,,,,,,,,,2033.1828829000005,2033.1976760999532,2033.698924199969,2033.6818059999496,,,,,,,,,,,,,,,,,,,,,,2033.6911943999585,2033.698924199969,2033.698924199969,2033.698924199969,2036.6988520000014,f,1.1435673999949358,0.16782549995696172,2036.699046899972,2036.6991116999998,None,,,,,,,,,,,,,,,,,00042,001,2026-01-23_21h18.31.909,MST_task,2024.2.0,59.864753550383604,2026-01-23 21h18.39.136309 +0530,
,Objects\152a.jpg,139,0,140,,,,,f,1.0110160000040196,0.19204110000282526,None,,,,,,140,0,139,2036.7145916000009,,,,,,,,,,,,,,,,,,,,,,,2036.6994060999714,2036.7145916000009,2037.21501299995,2037.1984038999653,,,,,,,,,,,,,,,,,,,,,,2037.2044905999792,2037.21501299995,2037.21501299995,2037.21501299995,2040.1992057999596,f,1.0110160000040196,0.19204110000282526,2040.199397099961,2040.199456000002,None,2040.2144474999513,2040.2144474999513,2040.2144474999513,,,,,,,,,,,,,,00042,001,2026-01-23_21h18.31.909,MST_task,2024.2.0,59.864753550383604,2026-01-23 21h18.39.136309 +0530,
,Scenes\109a.jpg,140,0,141,,,,,f,1.8541928000049666,0.1755299000069499,None,,,,,,141,0,140,2040.2144474999513,,,,,,,,,,,,,,,,,,,,,,,2040.199826999975,2040.2144474999513,2040.7163560999907,2040.6989283000003,,,,,,,,,,,,,,,,,,,,,,2040.7139031999977,2040.7163560999907,2040.7163560999907,2040.7163560999907,2043.7150368999573,f,1.8541928000049666,0.1755299000069499,2043.7152260000003,2043.715291099972,None,,,,,,,,,,,,,,,,,00042,001,2026-01-23_21h18.31.909,MST_task,2024.2.0,59.864753550383604,2026-01-23 21h18.39.136309 +0530,
,Scenes\097a.jpg,141,0,142,,,,,f,2.417302199988626,0.16814669995801523,None,,,,,,142,0,141,2043.7312954999506,,,,,,,,,,,,,,,,,,,,,,,2043.7155772999977,2043.7312954999506,2044.2325228999835,2044.215136899962,,,,,,,,,,,,,,,,,,,,,,2044.2276006999891,2044.2325228999835,2044.2325228999835,2044.2325228999835,2047.2160774999647,f,2.417302199988626,0.16814669995801523,2047.2162641999894,2047.2163226999692,None,2047.2312641000026,2047.2312641000026,2047.2312641000026,,,,,,,,,,,,,,00042,001,2026-01-23_21h18.31.909,MST_task,2024.2.0,59.864753550383604,2026-01-23 21h18.39.136309 +0530,
,Scenes\062a.jpg,142,0,143,,,,,j,0.974067399976775,0.19270930002676323,None,,,,,,143,0,142,2047.2312641000026,,,,,,,,,,,,,,,,,,,,,,,2047.2166896999697,2047.2312641000026,2047.7399204999674,2047.7154702999978,,,,,,,,,,,,,,,,,,,,,,2047.7371861999854,2047.7399204999674,2047.7399204999674,2047.7399204999674,2050.7318604999455,j,0.974067399976775,0.19270930002676323,2050.732058399997,2050.7321258999873,None,,,,,,,,,,,,,,,,,00042,001,2026-01-23_21h18.31.909,MST_task,2024.2.0,59.864753550383604,2026-01-23 21h18.39.136309 +0530,
,Scenes\106a.jpg,143,0,144,,,,,j,1.1834303000359796,0.15207760001067072,None,,,,,,144,0,143,2050.748630599992,,,,,,,,,,,,,,,,,,,,,,,2050.732559499971,2050.748630599992,2051.2509356999653,2051.2317638999666,,,,,,,,,,,,,,,,,,,,,,2051.2486535999924,2051.2509356999653,2051.2509356999653,2051.2509356999653,2054.232530599984,j,1.1834303000359796,0.15207760001067072,2054.232727399969,2054.232793199946,None,,,,,,,,,,,,,,,,,00042,001,2026-01-23_21h18.31.909,MST_task,2024.2.0,59.864753550383604,2026-01-23 21h18.39.136309 +0530,
,Scenes\075a.jpg,144,0,145,,,,,j,1.4611819999990985,0.16859209997346625,None,,,,,,145,0,144,2054.248001799977,,,,,,,,,,,,,,,,,,,,,,,2054.2331539999577,2054.248001799977,2054.7486567999586,2054.732179499988,,,,,,,,,,,,,,,,,,,,,,2054.7458734999527,2054.7486567999586,2054.7486567999586,2054.7486567999586,2057.7320871999837,j,1.4611819999990985,0.16859209997346625,2057.7321736000013,2057.7321932999766,None,2057.7475974999834,2057.7475974999834,2057.7475974999834,,,,,,,,,,,,,,00042,001,2026-01-23_21h18.31.909,MST_task,2024.2.0,59.864753550383604,2026-01-23 21h18.39.136309 +0530,
,Scenes\126a.jpg,145,0,146,,,,,j,0.6494379000505432,0.1931955000036396,None,,,,,,146,0,145,2057.7475974999834,,,,,,,,,,,,,,,,,,,,,,,2057.7323189000017,2057.7475974999834,2058.2485025999486,2058.23148649995,,,,,,,,,,,,,,,,,,,,,,2058.2462631999515,2058.2485025999486,2058.2485025999486,2058.2485025999486,2061.2326393999974,j,0.6494379000505432,0.1931955000036396,2061.232839699951,2061.2329045999795,None,,,,,,,,,,,,,,,,,00042,001,2026-01-23_21h18.31.909,MST_task,2024.2.0,59.864753550383604,2026-01-23 21h18.39.136309 +0530,
,Scenes\060a.jpg,146,0,147,,,,,j,1.128787600027863,0.1927171999705024,None,,,,,,147,0,146,2061.248022799962,,,,,,,,,,,,,,,,,,,,,,,2061.2332693999633,2061.248022799962,2061.7532309999806,2061.731922499952,,,,,,,,,,,,,,,,,,,,,,2061.7505720999907,2061.7532309999806,2061.7532309999806,2061.7532309999806,2064.748572099954,j,1.128787600027863,0.1927171999705024,2064.7486579999677,2064.748684499995,None,,,,,,,,,,,,,,,,,00042,001,2026-01-23_21h18.31.909,MST_task,2024.2.0,59.864753550383604,2026-01-23 21h18.39.136309 +0530,
,Objects\021a.jpg,147,0,148,,,,,f,1.8166216000099666,0.20806239999365062,None,,,,,,148,0,147,2064.764611099963,,,,,,,,,,,,,,,,,,,,,,,2064.7488271999755,2064.764611099963,2065.265603399952,2065.2486646999605,,,,,,,,,,,,,,,,,,,,,,2065.2611065999954,2065.265603399952,2065.265603399952,2065.265603399952,2068.249561899982,f,1.8166216000099666,0.20806239999365062,2068.2497526999796,2068.2498124999693,None,2068.2653457999695,2068.2653457999695,2068.2653457999695,,,,,,,,,,,,,,00042,001,2026-01-23_21h18.31.909,MST_task,2024.2.0,59.864753550383604,2026-01-23 21h18.39.136309 +0530,
,Objects\139a.jpg,148,0,149,,,,,f,1.4851665999740362,0.13628620002418756,None,,,,,,149,0,148,2068.2653457999695,,,,,,,,,,,,,,,,,,,,,,,2068.250106899999,2068.2653457999695,2068.764694099955,2068.748283099965,,,,,,,,,,,,,,,,,,,,,,2068.7543844999745,2068.764694099955,2068.764694099955,2068.764694099955,2071.748624699947,f,1.4851665999740362,0.13628620002418756,2071.7487048999756,2071.7487215999863,None,2071.765040999977,2071.765040999977,2071.765040999977,,,,,,,,,,,,,,00042,001,2026-01-23_21h18.31.909,MST_task,2024.2.0,59.864753550383604,2026-01-23 21h18.39.136309 +0530,
,Objects\064a.jpg,149,0,150,,,,,f,1.1046846999670379,0.2566374000161886,None,,,,,,150,0,149,2071.765040999977,,,,,,,,,,,,,,,,,,,,,,,2071.748811299971,2071.765040999977,2072.26531789999,2072.2486042999662,,,,,,,,,,,,,,,,,,,,,,2072.25660579995,2072.26531789999,2072.26531789999,2072.26531789999,2075.24935129995,f,1.1046846999670379,0.2566374000161886,2075.249564799946,2075.249626899953,None,2075.264762799954,2075.264762799954,2075.264762799954,,,,,,,,,,,,,,00042,001,2026-01-23_21h18.31.909,MST_task,2024.2.0,59.864753550383604,2026-01-23 21h18.39.136309 +0530,
,Objects\112a.jpg,150,0,151,,,,,f,1.4848671999643557,0.2241920999949798,None,,,,,,151,0,150,2075.264762799954,,,,,,,,,,,,,,,,,,,,,,,2075.2500016999547,2075.264762799954,2075.7649785999674,2075.74841369997,,,,,,,,,,,,,,,,,,,,,,2075.7577533999574,2075.7649785999674,2075.7649785999674,2075.7649785999674,2078.7492660999997,f,1.4848671999643557,0.2241920999949798,2078.749459099956,2078.749519199948,None,2078.764441499952,2078.764441499952,2078.764441499952,,,,,,,,,,,,,,00042,001,2026-01-23_21h18.31.909,MST_task,2024.2.0,59.864753550383604,2026-01-23 21h18.39.136309 +0530,
,Objects\164a.jpg,151,0,152,,,,,f,0.9616520999697968,0.19975090003572404,None,,,,,,152,0,151,2078.764441499952,,,,,,,,,,,,,,,,,,,,,,,2078.74983049999,2078.764441499952,2079.2648007999524,2079.2483218999696,,,,,,,,,,,,,,,,,,,,,,2079.257116199995,2079.2648007999524,2079.2648007999524,2079.2648007999524,2082.2499951999635,f,0.9616520999697968,0.19975090003572404,2082.2501858999603,2082.2502471999614,None,2082.264535699971,2082.264535699971,2082.264535699971,,,,,,,,,,,,,,00042,001,2026-01-23_21h18.31.909,MST_task,2024.2.0,59.864753550383604,2026-01-23 21h18.39.136309 +0530,
,Objects\183a.jpg,152,0,153,,,,,f,2.2211675999569707,0.14501610002480447,None,,,,,,153,0,152,2082.264535699971,,,,,,,,,,,,,,,,,,,,,,,2082.250614699966,2082.264535699971,2082.764582899981,2082.748085999978,,,,,,,,,,,,,,,,,,,,,,2082.754666899971,2082.764582899981,2082.764582899981,2082.764582899981,2085.749045299948,f,2.2211675999569707,0.14501610002480447,2085.7492424999946,2085.749284599966,None,2085.765227099997,2085.765227099997,2085.765227099997,,,,,,,,,,,,,,00042,001,2026-01-23_21h18.31.909,MST_task,2024.2.0,59.864753550383604,2026-01-23 21h18.39.136309 +0530,
,Objects\179a.jpg,153,0,154,,,,,f,1.4096200999920256,0.21626590000232682,None,,,,,,154,0,153,2085.765227099997,,,,,,,,,,,,,,,,,,,,,,,2085.7495577999507,2085.765227099997,2086.2647721999674,2086.2488263999694,,,,,,,,,,,,,,,,,,,,,,2086.2569837999763,2086.2647721999674,2086.2647721999674,2086.2647721999674,2089.249288299994,f,1.4096200999920256,0.21626590000232682,2089.249487299996,2089.2495466999826,None,2089.2652384999674,2089.2652384999674,2089.2652384999674,,,,,,,,,,,,,,00042,001,2026-01-23_21h18.31.909,MST_task,2024.2.0,59.864753550383604,2026-01-23 21h18.39.136309 +0530,
,Scenes\098a.jpg,154,0,155,,,,,f,1.3087819999782369,0.224473400041461,None,,,,,,155,0,154,2089.2652384999674,,,,,,,,,,,,,,,,,,,,,,,2089.2499500999693,2089.2652384999674,2089.765218799992,2089.7479496999877,,,,,,,,,,,,,,,,,,,,,,2089.7599363999907,2089.765218799992,2089.765218799992,2089.765218799992,2092.750600499974,f,1.3087819999782369,0.224473400041461,2092.750872399949,2092.7509924999904,None,2092.764790199988,2092.764790199988,2092.764790199988,,,,,,,,,,,,,,00042,001,2026-01-23_21h18.31.909,MST_task,2024.2.0,59.864753550383604,2026-01-23 21h18.39.136309 +0530,
,Scenes\081a.jpg,155,0,156,,,,,j,0.8510028999880888,0.16816219995962456,None,,,,,,156,0,155,2092.764790199988,,,,,,,,,,,,,,,,,,,,,,,2092.751451499993,2092.764790199988,2093.271464199992,2093.247936300002,,,,,,,,,,,,,,,,,,,,,,2093.266167499998,2093.271464199992,2093.271464199992,2093.271464199992,2096.265154899971,j,0.8510028999880888,0.16816219995962456,2096.2653532999684,2096.2654186,None,,,,,,,,,,,,,,,,,00042,001,2026-01-23_21h18.31.909,MST_task,2024.2.0,59.864753550383604,2026-01-23 21h18.39.136309 +0530,
,Scenes\167a.jpg,156,0,157,,,,,f,2.1208476000465453,0.24017169995931908,None,,,,,,157,0,156,2096.2814419999486,,,,,,,,,,,,,,,,,,,,,,,2096.2657801999594,2096.2814419999486,2096.785128199961,2096.764658399974,,,,,,,,,,,,,,,,,,,,,,2096.7821893999935,2096.785128199961,2096.785128199961,2096.785128199961,2099.7817586999736,f,2.1208476000465453,0.24017169995931908,2099.78194669995,2099.7820123999845,None,,,,,,,,,,,,,,,,,00042,001,2026-01-23_21h18.31.909,MST_task,2024.2.0,59.864753550383604,2026-01-23 21h18.39.136309 +0530,
,Scenes\156a.jpg,157,0,158,,,,,j,1.0791248000459746,0.15999159996863455,None,,,,,,158,0,157,2099.798023799958,,,,,,,,,,,,,,,,,,,,,,,2099.782375599956,2099.798023799958,2100.2988684999873,2100.28216469998,,,,,,,,,,,,,,,,,,,,,,2100.2961513999617,2100.2988684999873,2100.2988684999873,2100.2988684999873,2103.282534799946,j,1.0791248000459746,0.15999159996863455,2103.282726799953,2103.282785299991,None,2103.298577999987,2103.298577999987,2103.298577999987,,,,,,,,,,,,,,00042,001,2026-01-23_21h18.31.909,MST_task,2024.2.0,59.864753550383604,2026-01-23 21h18.39.136309 +0530,
,Scenes\076a.jpg,158,0,159,,,,,j,1.2130670999758877,0.14421960001345724,None,,,,,,159,0,158,2103.298577999987,,,,,,,,,,,,,,,,,,,,,,,2103.2831587999826,2103.298577999987,2103.8047824999667,2103.7817047999706,,,,,,,,,,,,,,,,,,,,,,2103.8020350000006,2103.8047824999667,2103.8047824999667,2103.8047824999667,2106.7984152999707,j,1.2130670999758877,0.14421960001345724,2106.798590099963,2106.7986494999495,None,,,,,,,,,,,,,,,,,00042,001,2026-01-23_21h18.31.909,MST_task,2024.2.0,59.864753550383604,2026-01-23 21h18.39.136309 +0530,
,Scenes\063a.jpg,159,0,160,,,,,f,2.580810399958864,0.14395980001427233,None,,,,,,160,0,159,2106.8145473999903,,,,,,,,,,,,,,,,,,,,,,,2106.7989706999506,2106.8145473999903,2107.3171593999723,2107.2986234999844,,,,,,,,,,,,,,,,,,,,,,2107.3143910999643,2107.3171593999723,2107.3171593999723,2107.3171593999723,2110.3153551999712,f,2.580810399958864,0.14395980001427233,2110.3155781999812,2110.3156469999813,None,,,,,,,,,,,,,,,,,00042,001,2026-01-23_21h18.31.909,MST_task,2024.2.0,59.864753550383604,2026-01-23 21h18.39.136309 +0530,
,Scenes\092a.jpg,160,0,161,,,,,j,1.905024699983187,0.13616840000031516,None,,,,,,161,0,160,2110.331424599979,,,,,,,,,,,,,,,,,,,,,,,2110.3160114999628,2110.331424599979,2110.8334329999634,2110.815285199962,,,,,,,,,,,,,,,,,,,,,,2110.830314599967,2110.8334329999634,2110.8334329999634,2110.8334329999634,2113.831830899988,j,1.905024699983187,0.13616840000031516,2113.8320257999585,2113.8320936999517,None,,,,,,,,,,,,,,,,,00042,001,2026-01-23_21h18.31.909,MST_task,2024.2.0,59.864753550383604,2026-01-23 21h18.39.136309 +0530,
,Objects\026a.jpg,161,0,162,,,,,f,0.885821699979715,0.20862400002079085,None,,,,,,162,0,161,2113.847957399965,,,,,,,,,,,,,,,,,,,,,,,2113.8323858999647,2113.847957399965,2114.348183599999,2114.331817500002,,,,,,,,,,,,,,,,,,,,,,2114.3442172999494,2114.348183599999,2114.348183599999,2114.348183599999,2117.332534199988,f,0.885821699979715,0.20862400002079085,2117.3327233999735,2117.3327875999967,None,,,,,,,,,,,,,,,,,00042,001,2026-01-23_21h18.31.909,MST_task,2024.2.0,59.864753550383604,2026-01-23 21h18.39.136309 +0530,
,Objects\145a.jpg,162,0,163,,,,,f,1.0823103999719024,0.19224730000132695,None,,,,,,163,0,162,2117.3478008999955,,,,,,,,,,,,,,,,,,,,,,,2117.3331439999747,2117.3478008999955,2117.8477005999885,2117.8314686999656,,,,,,,,,,,,,,,,,,,,,,2117.840898299997,2117.8477005999885,2117.8477005999885,2117.8477005999885,2120.8324971999973,f,1.0823103999719024,0.19224730000132695,2120.8326834999607,2120.8327439999557,None,2120.847641200002,2120.847641200002,2120.847641200002,,,,,,,,,,,,,,00042,001,2026-01-23_21h18.31.909,MST_task,2024.2.0,59.864753550383604,2026-01-23 21h18.39.136309 +0530,
,Objects\034a.jpg,163,0,164,,,,,f,0.8381079999962822,0.19965229998342693,None,,,,,,164,0,163,2120.847641200002,,,,,,,,,,,,,,,,,,,,,,,2120.8331058999756,2120.847641200002,2121.348246599955,2121.3318363999715,,,,,,,,,,,,,,,,,,,,,,2121.3410306999576,2121.348246599955,2121.348246599955,2121.348246599955,2124.332736799959,f,0.8381079999962822,0.19965229998342693,2124.3329209999647,2124.332982599968,None,2124.3480736999772,2124.3480736999772,2124.3480736999772,,,,,,,,,,,,,,00042,001,2026-01-23_21h18.31.909,MST_task,2024.2.0,59.864753550383604,2026-01-23 21h18.39.136309 +0530,
