Sl_no,image_path,thisN,thisTrialN,thisRepN,key_resp_5.keys,key_resp_7.keys,key_resp_7.rt,key_resp_7.duration,key_resp_5.rt,key_resp_5.duration,key_resp_9.keys,key_resp_9.rt,key_resp_9.duration,key_resp_8.keys,key_resp_8.rt,key_resp_8.duration,practice.thisRepN,practice.thisTrialN,practice.thisN,trials.thisRepN,trials.thisTrialN,trials.thisN,thisRow.t,notes,welcome_page.started,text.started,key_resp.started,welcome_page.stopped,key_resp.keys,key_resp.rt,key_resp.duration,instructions.started,ins.started,key_resp_2.started,instructions.stopped,key_resp_2.keys,key_resp_2.rt,key_resp_2.duration,objects_only_instruction.started,text_3.started,key_resp_3.started,objects_only_instruction.stopped,key_resp_3.keys,key_resp_3.rt,key_resp_3.duration,ISI.started,text_4.started,ISI.stopped,practice_block.started,image.started,text_5.started,key_resp_5.started,practice_block.stopped,practice.key_resp_5.keys,indoor_outdoor.started,text_7.started,key_resp_7.started,indoor_outdoor.stopped,practice.key_resp_7.keys,practice.key_resp_7.rt,practice.key_resp_7.duration,text_4.stopped,image.stopped,text_5.stopped,key_resp_5.stopped,practice.key_resp_5.rt,practice.key_resp_5.duration,practice_to_main.started,text_2.started,key_resp_4.started,practice_to_main.stopped,key_resp_4.keys,key_resp_4.rt,key_resp_4.duration,objects.started,image_2.started,text_9.started,key_resp_9.started,objects.stopped,trials.key_resp_9.keys,trials.key_resp_9.rt,trials.key_resp_9.duration,encoding_task.started,encoding_task.stopped,trials.key_resp_8.keys,image_2.stopped,text_9.stopped,key_resp_9.stopped,text_8.started,key_resp_8.started,trials.key_resp_8.rt,trials.key_resp_8.duration,end_experiment.started,text_6.started,key_resp_6.started,end_experiment.stopped,key_resp_6.keys,key_resp_6.rt,key_resp_6.duration,list_of_stimuli,encoding_task_accuracy,participant,session,date,expName,psychopyVersion,frameRate,expStart,
,,,,,,,,,,,,,,,,,,,,,,,,,0.0016978000057861209,0.0049300999962724745,0.0049300999962724745,12.348106099991128,space,12.281992800009903,None,,,,,,,,,,,,,,,,,,,,,,,,,,,,,,,,,,,,,,,,,,,,,,,,,,,,,,,,,,,,,,,,,,,,,,,00044,001,2026-01-24_10h56.04.295,MST_task,2024.2.0,59.85522220102087,2026-01-24 10h56.12.002501 +0530,
,,,,,,,,,,,,,,,,,,,,,,,,,,,,,,,,12.348149800032843,12.363079000031576,12.363079000031576,69.21395589999156,space,56.84412679995876,None,,,,,,,,,,,,,,,,,,,,,,,,,,,,,,,,,,,,,,,,,,,,,,,,,,,,,,,,,,,,,,,,00044,001,2026-01-24_10h56.04.295,MST_task,2024.2.0,59.85522220102087,2026-01-24 10h56.12.002501 +0530,
,,,,,,,,,,,,,,,,,,,,,,,,,,,,,,,,,,,,,,,69.2140003000386,69.22976680001011,69.22976680001011,162.26371680002194,space,93.01747400005115,None,,,,,,,,,,,,,,,,,,,,,,,,,,,,,,,,,,,,,,,,,,,,,,,,,,,,,,,,,00044,001,2026-01-24_10h56.04.295,MST_task,2024.2.0,59.85522220102087,2026-01-24 10h56.12.002501 +0530,
8,practice_images/178a.jpg,0,0,1,None,j,1.4106032000272535,None,,,,,,,,,1,0,0,,,,162.29005330003565,,,,,,,,,,,,,,,,,,,,,,,162.28769740002463,162.29005330003565,162.78059209999628,162.79758230003063,162.81118610000703,162.81118610000703,162.81118610000703,165.78032770002028,None,165.78236730000935,165.7965886000311,165.7965886000311,167.2139046000084,j,1.4106032000272535,None,,,,,,,,,,,,,,,,,,,,,,,,,,,,,,,,,,,,,,,,,00044,001,2026-01-24_10h56.04.295,MST_task,2024.2.0,59.85522220102087,2026-01-24 10h56.12.002501 +0530,
2,practice_images/031a.jpg,1,1,1,None,f,0.17319259996293113,None,,,,,,,,,1,1,1,,,,167.2295376000111,,,,,,,,,,,,,,,,,,,,,,,167.21401619998505,167.2295376000111,167.71367760002613,167.7231685000006,167.72985020000488,167.72985020000488,167.72985020000488,170.71369800000684,None,170.71378410002217,170.72991049999837,170.72991049999837,170.91393239999888,f,0.17319259996293113,None,167.72985020000488,170.72991049999837,170.72991049999837,170.72991049999837,,,,,,,,,,,,,,,,,,,,,,,,,,,,,,,,,,,,,00044,001,2026-01-24_10h56.04.295,MST_task,2024.2.0,59.85522220102087,2026-01-24 10h56.12.002501 +0530,
6,practice_images/158a.jpg,2,2,1,j,None,,,1.5766648999997415,0.20824200002243742,,,,,,,1,2,2,,,,170.92996470001526,,,,,,,,,,,,,,,,,,,,,,,170.91404430003604,170.92996470001526,171.41339130001143,171.42225930001587,171.4301250000135,171.4301250000135,171.4301250000135,174.4134848000249,j,174.4135638999869,,,174.4135815000045,None,,,171.4301250000135,174.42960460000904,174.42960460000904,174.42960460000904,1.5766648999997415,0.20824200002243742,,,,,,,,,,,,,,,,,,,,,,,,,,,,,,,,,,,00044,001,2026-01-24_10h56.04.295,MST_task,2024.2.0,59.85522220102087,2026-01-24 10h56.12.002501 +0530,
10,practice_images/182a.jpg,3,3,1,f,None,,,1.5245432000374421,0.24000519997207448,,,,,,,1,3,3,,,,174.42960460000904,,,,,,,,,,,,,,,,,,,,,,,174.41366010002093,174.42960460000904,174.91343539999798,174.92230520001613,174.93029709998518,174.93029709998518,174.93029709998518,177.91382180002984,f,177.9138907000306,,,177.9139060000307,None,,,174.93029709998518,177.92992299998878,177.92992299998878,177.92992299998878,1.5245432000374421,0.24000519997207448,,,,,,,,,,,,,,,,,,,,,,,,,,,,,,,,,,,00044,001,2026-01-24_10h56.04.295,MST_task,2024.2.0,59.85522220102087,2026-01-24 10h56.12.002501 +0530,
7,practice_images/166a.jpg,4,4,1,f,None,,,2.4565597999608144,0.2160561000346206,,,,,,,1,4,4,,,,177.92992299998878,,,,,,,,,,,,,,,,,,,,,,,177.9139805000159,177.92992299998878,178.41387330001453,178.4232825000072,178.43022650002968,178.43022650002968,178.43022650002968,181.4137936999905,f,181.41387460002443,,,181.41389660001732,None,,,178.43022650002968,181.43023870000616,181.43023870000616,181.43023870000616,2.4565597999608144,0.2160561000346206,,,,,,,,,,,,,,,,,,,,,,,,,,,,,,,,,,,00044,001,2026-01-24_10h56.04.295,MST_task,2024.2.0,59.85522220102087,2026-01-24 10h56.12.002501 +0530,
3,practice_images/037a.jpg,5,5,1,f,None,,,1.8763371999957599,0.22479090001434088,,,,,,,1,5,5,,,,181.43023870000616,,,,,,,,,,,,,,,,,,,,,,,181.4139748000307,181.43023870000616,181.91361709998455,181.9234364000149,181.93027730000904,181.93027730000904,181.93027730000904,184.91349840001203,f,184.91356539999833,,,184.91358079999918,None,,,181.93027730000904,184.93022530002054,184.93022530002054,184.93022530002054,1.8763371999957599,0.22479090001434088,,,,,,,,,,,,,,,,,,,,,,,,,,,,,,,,,,,00044,001,2026-01-24_10h56.04.295,MST_task,2024.2.0,59.85522220102087,2026-01-24 10h56.12.002501 +0530,
1,practice_images/013a.jpg,6,6,1,j,None,,,2.369115600013174,0.27301589999115095,,,,,,,1,6,6,,,,184.93022530002054,,,,,,,,,,,,,,,,,,,,,,,184.91365300002508,184.93022530002054,185.4131709000212,185.4225856999983,185.42983590002405,185.42983590002405,185.42983590002405,188.41372220002813,j,188.41380229999777,,,188.41382070002146,None,,,185.42983590002405,188.42972329998156,188.42972329998156,188.42972329998156,2.369115600013174,0.27301589999115095,,,,,,,,,,,,,,,,,,,,,,,,,,,,,,,,,,,00044,001,2026-01-24_10h56.04.295,MST_task,2024.2.0,59.85522220102087,2026-01-24 10h56.12.002501 +0530,
5,practice_images/139a.jpg,7,7,1,f,None,,,2.6768745000008494,0.09602969995466992,,,,,,,1,7,7,,,,188.42972329998156,,,,,,,,,,,,,,,,,,,,,,,188.41391180001665,188.42972329998156,188.91338590002852,188.9226864000084,188.92988120001974,188.92988120001974,188.92988120001974,191.9132726000389,f,191.91334510000888,,,191.91336050000973,None,,,188.92988120001974,191.92986050003674,191.92986050003674,191.92986050003674,2.6768745000008494,0.09602969995466992,,,,,,,,,,,,,,,,,,,,,,,,,,,,,,,,,,,00044,001,2026-01-24_10h56.04.295,MST_task,2024.2.0,59.85522220102087,2026-01-24 10h56.12.002501 +0530,
4,practice_images/002b.jpg,8,8,1,f,None,,,1.6573798999888822,0.20809289999306202,,,,,,,1,8,8,,,,191.92986050003674,,,,,,,,,,,,,,,,,,,,,,,191.91343670000788,191.92986050003674,192.41327220003586,192.42277070001,192.42997500003548,192.42997500003548,192.42997500003548,195.41354520001914,f,195.41361940000206,,,195.41363840003032,None,,,192.42997500003548,,,,1.6573798999888822,0.20809289999306202,,,,,,,,,,,,,,,,,,,,,,,,,,,,,,,,,,,00044,001,2026-01-24_10h56.04.295,MST_task,2024.2.0,59.85522220102087,2026-01-24 10h56.12.002501 +0530,
9,practice_images/180a.jpg,9,9,1,f,None,,,1.6293466000352055,0.2074756000074558,,,,,,,1,9,9,,,,195.42978050000966,,,,,,,,,,,,,,,,,,,,,,,195.41372599999886,195.42978050000966,195.91322079999372,195.9227006000001,195.93003119999776,195.93003119999776,195.93003119999776,198.91392730001826,f,198.91399610001827,,,198.91401320003206,None,,,195.93003119999776,198.92983099998673,198.92983099998673,198.92983099998673,1.6293466000352055,0.2074756000074558,,,,,,,,,,,,,,,,,,,,,,,,,,,,,,,,,,,00044,001,2026-01-24_10h56.04.295,MST_task,2024.2.0,59.85522220102087,2026-01-24 10h56.12.002501 +0530,
,,,,,,,,,,,,,,,,,,,,,,,,,,,,,,,,,,,,,,,,,,,,,,,,,,,,,,,,,,,,,,,,,,,,198.9140669000335,198.92983099998673,198.92983099998673,251.43089200003305,space,52.4934673999669,None,,,,,,,,,,,,,,,,,,,,,,,,,,,,00044,001,2026-01-24_10h56.04.295,MST_task,2024.2.0,59.85522220102087,2026-01-24 10h56.12.002501 +0530,
,Scenes\145a.jpg,0,0,1,,,,,,,j,1.5603411000338383,0.22399579995544627,None,,,,,,1,0,0,251.4472638000152,,,,,,,,,,,,,,,,,,,,,,,251.4317422999884,251.4472638000152,251.93011040001875,,,,,,,,,,,,,,251.966165299993,,,,,,,,,,,,,251.96261849999428,251.966165299993,251.966165299993,251.966165299993,254.9466209000093,j,1.5603411000338383,0.22399579995544627,254.9486751999939,254.94869729998754,None,,,,,,,,,,,,,,,,,00044,001,2026-01-24_10h56.04.295,MST_task,2024.2.0,59.85522220102087,2026-01-24 10h56.12.002501 +0530,
,Scenes\177a.jpg,1,0,2,,,,,,,j,1.568644899991341,0.24126219999743626,None,,,,,,2,0,1,254.9631922999979,,,,,,,,,,,,,,,,,,,,,,,254.9488071000087,254.9631922999979,255.44665420003003,,,,,,,,,,,,,,255.46989659999963,,,,,,,,,,,,,255.46736060001422,255.46989659999963,255.46989659999963,255.46989659999963,258.4632156000007,j,1.568644899991341,0.24126219999743626,258.463293000008,258.4633090000134,None,,,,,,,,,,,,,,,,,00044,001,2026-01-24_10h56.04.295,MST_task,2024.2.0,59.85522220102087,2026-01-24 10h56.12.002501 +0530,
,Scenes\020a.jpg,2,0,3,,,,,,,f,1.5593960999976844,0.2479964999947697,None,,,,,,3,0,2,258.4800437000231,,,,,,,,,,,,,,,,,,,,,,,258.4633971999865,258.4800437000231,258.96357920003356,,,,,,,,,,,,,,258.9918117999914,,,,,,,,,,,,,258.9885856999899,258.9918117999914,258.9918117999914,258.9918117999914,261.980407199997,f,1.5593960999976844,0.2479964999947697,261.98049170000013,261.98050740000326,None,,,,,,,,,,,,,,,,,00044,001,2026-01-24_10h56.04.295,MST_task,2024.2.0,59.85522220102087,2026-01-24 10h56.12.002501 +0530,
,Scenes\038a.jpg,3,0,4,,,,,,,j,1.4883535000262782,0.2160818999982439,None,,,,,,4,0,3,261.9964045000379,,,,,,,,,,,,,,,,,,,,,,,261.9806421000394,261.9964045000379,262.48020009999163,,,,,,,,,,,,,,262.50228549999883,,,,,,,,,,,,,262.49971810000716,262.50228549999883,262.50228549999883,262.50228549999883,265.4807724999846,j,1.4883535000262782,0.2160818999982439,265.48086399998283,265.48087919998216,None,,,,,,,,,,,,,,,,,00044,001,2026-01-24_10h56.04.295,MST_task,2024.2.0,59.85522220102087,2026-01-24 10h56.12.002501 +0530,
,Scenes\151a.jpg,4,0,5,,,,,,,j,1.505854899995029,0.23958499997388572,None,,,,,,5,0,4,265.4964779000147,,,,,,,,,,,,,,,,,,,,,,,265.48099619999994,265.4964779000147,265.9799984000274,,,,,,,,,,,,,,265.996998800023,,,,,,,,,,,,,265.99362880003173,265.996998800023,265.996998800023,265.996998800023,268.98060700000497,j,1.505854899995029,0.23958499997388572,268.98070610000286,268.9807206999976,None,268.99640100001125,268.99640100001125,268.99640100001125,,,,,,,,,,,,,,00044,001,2026-01-24_10h56.04.295,MST_task,2024.2.0,59.85522220102087,2026-01-24 10h56.12.002501 +0530,
,Scenes\028a.jpg,5,0,6,,,,,,,j,1.651617499999702,0.2157277999795042,None,,,,,,6,0,5,268.99640100001125,,,,,,,,,,,,,,,,,,,,,,,268.98080630000914,268.99640100001125,269.48018950002734,,,,,,,,,,,,,,269.49971370003186,,,,,,,,,,,,,269.49693710001884,269.49971370003186,269.49971370003186,269.49971370003186,272.4967870999826,j,1.651617499999702,0.2157277999795042,272.49685190001037,272.49686640000436,None,,,,,,,,,,,,,,,,,00044,001,2026-01-24_10h56.04.295,MST_task,2024.2.0,59.85522220102087,2026-01-24 10h56.12.002501 +0530,
,Scenes\004a.jpg,6,0,7,,,,,,,j,1.3541578000294976,0.2485168999992311,None,,,,,,7,0,6,272.51345880003646,,,,,,,,,,,,,,,,,,,,,,,272.4969793999917,272.51345880003646,272.9968780000345,,,,,,,,,,,,,,273.0205396999954,,,,,,,,,,,,,273.01761219999753,273.0205396999954,273.0205396999954,273.0205396999954,276.0137226000079,j,1.3541578000294976,0.2485168999992311,276.0137912000064,276.01380680000875,None,,,,,,,,,,,,,,,,,00044,001,2026-01-24_10h56.04.295,MST_task,2024.2.0,59.85522220102087,2026-01-24 10h56.12.002501 +0530,
,Objects\070a.jpg,7,0,8,,,,,,,f,1.0936679000151344,0.21660009998595342,None,,,,,,8,0,7,276.0301000000327,,,,,,,,,,,,,,,,,,,,,,,276.0139205000014,276.0301000000327,276.51361219998216,,,,,,,,,,,,,,276.5368941000197,,,,,,,,,,,,,276.53431630000705,276.5368941000197,276.5368941000197,276.5368941000197,279.51397010002984,f,1.0936679000151344,0.21660009998595342,279.51403730001766,279.5140519000124,None,,,,,,,,,,,,,,,,,00044,001,2026-01-24_10h56.04.295,MST_task,2024.2.0,59.85522220102087,2026-01-24 10h56.12.002501 +0530,
,Objects\084a.jpg,8,0,9,,,,,,,f,1.4011444000061601,0.20800250000320375,None,,,,,,9,0,8,279.52979300002335,,,,,,,,,,,,,,,,,,,,,,,279.51414260000456,279.52979300002335,280.0137681000051,,,,,,,,,,,,,,280.0297251000302,,,,,,,,,,,,,280.02494420000585,280.0297251000302,280.0297251000302,280.0297251000302,283.01363629999105,f,1.4011444000061601,0.20800250000320375,283.0137127999915,283.01372709998395,None,283.02996820001863,283.02996820001863,283.02996820001863,,,,,,,,,,,,,,00044,001,2026-01-24_10h56.04.295,MST_task,2024.2.0,59.85522220102087,2026-01-24 10h56.12.002501 +0530,
,Objects\115a.jpg,9,0,10,,,,,,,j,1.7559986999840476,0.2480881999945268,None,,,,,,10,0,9,283.02996820001863,,,,,,,,,,,,,,,,,,,,,,,283.01383599999826,283.02996820001863,283.5132224999834,,,,,,,,,,,,,,283.5306197000318,,,,,,,,,,,,,283.52561449998757,283.5306197000318,283.5306197000318,283.5306197000318,286.51376850000815,j,1.7559986999840476,0.2480881999945268,286.5138343999861,286.51384720002534,None,286.5298516000039,286.5298516000039,286.5298516000039,,,,,,,,,,,,,,00044,001,2026-01-24_10h56.04.295,MST_task,2024.2.0,59.85522220102087,2026-01-24 10h56.12.002501 +0530,
,Objects\108a.jpg,10,0,11,,,,,,,j,1.9205203999881633,0.24811449996195734,None,,,,,,11,0,10,286.5298516000039,,,,,,,,,,,,,,,,,,,,,,,286.51394450000953,286.5298516000039,287.0132978000329,,,,,,,,,,,,,,287.0300503000035,,,,,,,,,,,,,287.0242542999913,287.0300503000035,287.0300503000035,287.0300503000035,290.01349320000736,j,1.9205203999881633,0.24811449996195734,290.013565500034,290.013580000028,None,290.0301611000323,290.0301611000323,290.0301611000323,,,,,,,,,,,,,,00044,001,2026-01-24_10h56.04.295,MST_task,2024.2.0,59.85522220102087,2026-01-24 10h56.12.002501 +0530,
,Objects\143a.jpg,11,0,12,,,,,,,j,2.061160799989011,0.2234702999703586,None,,,,,,12,0,11,290.0301611000323,,,,,,,,,,,,,,,,,,,,,,,290.0136880000355,290.0301611000323,290.5134435000364,,,,,,,,,,,,,,290.53008330002194,,,,,,,,,,,,,290.5249671000056,290.53008330002194,290.53008330002194,290.53008330002194,293.5141008000355,j,2.061160799989011,0.2234702999703586,293.514173500007,293.51418739999644,None,293.5298071000143,293.5298071000143,293.5298071000143,,,,,,,,,,,,,,00044,001,2026-01-24_10h56.04.295,MST_task,2024.2.0,59.85522220102087,2026-01-24 10h56.12.002501 +0530,
,Objects\191a.jpg,12,0,13,,,,,,,f,1.192386600014288,0.2560191999655217,None,,,,,,13,0,12,293.5298071000143,,,,,,,,,,,,,,,,,,,,,,,293.5142726000049,293.5298071000143,294.01341900002444,,,,,,,,,,,,,,294.0302101999987,,,,,,,,,,,,,294.02426889998605,294.0302101999987,294.0302101999987,294.0302101999987,297.0138077000156,f,1.192386600014288,0.2560191999655217,297.0138843000168,297.0138980000047,None,297.0297886999906,297.0297886999906,297.0297886999906,,,,,,,,,,,,,,00044,001,2026-01-24_10h56.04.295,MST_task,2024.2.0,59.85522220102087,2026-01-24 10h56.12.002501 +0530,
,Objects\152a.jpg,13,0,14,,,,,,,f,1.045005499967374,0.24044610001146793,None,,,,,,14,0,13,297.0297886999906,,,,,,,,,,,,,,,,,,,,,,,297.0140077000251,297.0297886999906,297.51363810000475,,,,,,,,,,,,,,297.52994039998157,,,,,,,,,,,,,297.52476460003527,297.52994039998157,297.52994039998157,297.52994039998157,300.51350870000897,f,1.045005499967374,0.24044610001146793,300.5135774000082,300.5135910999961,None,300.5294932000106,300.5294932000106,300.5294932000106,,,,,,,,,,,,,,00044,001,2026-01-24_10h56.04.295,MST_task,2024.2.0,59.85522220102087,2026-01-24 10h56.12.002501 +0530,
,Scenes\069a.jpg,14,0,15,,,,,,,j,1.2075067999539897,0.23895970004377887,None,,,,,,15,0,14,300.5294932000106,,,,,,,,,,,,,,,,,,,,,,,300.51369809999596,300.5294932000106,301.0137392000179,,,,,,,,,,,,,,301.03196990001015,,,,,,,,,,,,,301.0291489000083,301.03196990001015,301.03196990001015,301.03196990001015,304.0299678000156,j,1.2075067999539897,0.23895970004377887,304.030041799997,304.03005820000544,None,,,,,,,,,,,,,,,,,00044,001,2026-01-24_10h56.04.295,MST_task,2024.2.0,59.85522220102087,2026-01-24 10h56.12.002501 +0530,
,Scenes\138a.jpg,15,0,16,,,,,,,j,1.3778576999902725,0.2159588999929838,None,,,,,,16,0,15,304.04640300001483,,,,,,,,,,,,,,,,,,,,,,,304.0301822000183,304.04640300001483,304.5303427000181,,,,,,,,,,,,,,,,,,,,,,,,,,,304.54683320003096,304.54932839999674,304.54932839999674,304.54932839999674,307.546725400025,j,1.3778576999902725,0.2159588999929838,307.5468098000274,307.5468275999883,None,,,,,,,,,,,,,,,,,00044,001,2026-01-24_10h56.04.295,MST_task,2024.2.0,59.85522220102087,2026-01-24 10h56.12.002501 +0530,
,Scenes\172a.jpg,16,0,17,,,,,,,j,1.9323629999998957,0.1929855999769643,None,,,,,,17,0,16,307.56313379999483,,,,,,,,,,,,,,,,,,,,,,,307.5469504999928,307.56313379999483,308.04712820000714,,,,,,,,,,,,,,308.06634840002516,,,,,,,,,,,,,308.06374070001766,308.06634840002516,308.06634840002516,308.06634840002516,311.06345590000274,j,1.9323629999998957,0.1929855999769643,311.0635274000233,311.06354740000097,None,,,,,,,,,,,,,,,,,00044,001,2026-01-24_10h56.04.295,MST_task,2024.2.0,59.85522220102087,2026-01-24 10h56.12.002501 +0530,
,Scenes\051a.jpg,17,0,18,,,,,,,j,1.3199540000059642,0.15311860002111644,None,,,,,,18,0,17,311.0798739999882,,,,,,,,,,,,,,,,,,,,,,,311.06364649999887,311.0798739999882,311.5636298999889,,,,,,,,,,,,,,311.5825629000319,,,,,,,,,,,,,311.57784730003914,311.5825629000319,311.5825629000319,311.5825629000319,314.58029459998943,j,1.3199540000059642,0.15311860002111644,314.5803642999963,314.5803837000276,None,,,,,,,,,,,,,,,,,00044,001,2026-01-24_10h56.04.295,MST_task,2024.2.0,59.85522220102087,2026-01-24 10h56.12.002501 +0530,
,Scenes\061a.jpg,18,0,19,,,,,,,j,1.621644600003492,0.17615529999602586,None,,,,,,19,0,18,314.5962053000112,,,,,,,,,,,,,,,,,,,,,,,314.58049200003734,314.5962053000112,315.0804620999843,,,,,,,,,,,,,,315.09725769999204,,,,,,,,,,,,,315.09423990000505,315.09725769999204,315.09725769999204,315.09725769999204,318.0812203999958,j,1.621644600003492,0.17615529999602586,318.08129010000266,318.0813047999982,None,318.0969918000046,318.0969918000046,318.0969918000046,,,,,,,,,,,,,,00044,001,2026-01-24_10h56.04.295,MST_task,2024.2.0,59.85522220102087,2026-01-24 10h56.12.002501 +0530,
,Scenes\029a.jpg,19,0,20,,,,,,,j,1.6906338999979198,0.2160054999985732,None,,,,,,20,0,19,318.0969918000046,,,,,,,,,,,,,,,,,,,,,,,318.0814067000174,318.0969918000046,318.58076470001834,,,,,,,,,,,,,,318.6045770000201,,,,,,,,,,,,,318.6016532999929,318.6045770000201,318.6045770000201,318.6045770000201,321.5966356000281,j,1.6906338999979198,0.2160054999985732,321.59673270001076,321.5967473000055,None,,,,,,,,,,,,,,,,,00044,001,2026-01-24_10h56.04.295,MST_task,2024.2.0,59.85522220102087,2026-01-24 10h56.12.002501 +0530,
,Scenes\132a.jpg,20,0,21,,,,,,,j,2.300394799967762,0.19196339999325573,None,,,,,,21,0,20,321.61342140001943,,,,,,,,,,,,,,,,,,,,,,,321.59686570003396,321.61342140001943,322.0966262000147,,,,,,,,,,,,,,322.11490019998746,,,,,,,,,,,,,322.11164180003107,322.11490019998746,322.11490019998746,322.11490019998746,325.1129618000123,j,2.300394799967762,0.19196339999325573,325.1130499999854,325.11306330002844,None,,,,,,,,,,,,,,,,,00044,001,2026-01-24_10h56.04.295,MST_task,2024.2.0,59.85522220102087,2026-01-24 10h56.12.002501 +0530,
,Objects\035a.jpg,21,0,22,,,,,,,j,0.8253494999953546,0.20733339997241274,None,,,,,,22,0,21,325.12972420000006,,,,,,,,,,,,,,,,,,,,,,,325.1131685000146,325.12972420000006,325.613144700008,,,,,,,,,,,,,,,,,,,,,,,,,,,325.62456110003404,325.63044839998474,325.63044839998474,325.63044839998474,328.613422000024,j,0.8253494999953546,0.20733339997241274,328.6135030000005,328.613519800012,None,,,,,,,,,,,,,,,,,00044,001,2026-01-24_10h56.04.295,MST_task,2024.2.0,59.85522220102087,2026-01-24 10h56.12.002501 +0530,
,Objects\140a.jpg,22,0,23,,,,,,,None,,,j,0.6052658000262454,None,,,,23,0,22,328.6297084999969,,,,,,,,,,,,,,,,,,,,,,,328.6136176,328.6297084999969,329.1136901000282,,,,,,,,,,,,,,329.1297792000114,,,,,,,,,,,,,329.12427979998756,329.1297792000114,329.1297792000114,329.1297792000114,332.11361880000914,None,,,332.1136847999878,332.7466868000338,j,332.12969319999684,332.12969319999684,332.12969319999684,332.12969319999684,332.12969319999684,0.6052658000262454,None,,,,,,,,,,00044,001,2026-01-24_10h56.04.295,MST_task,2024.2.0,59.85522220102087,2026-01-24 10h56.12.002501 +0530,
,Objects\007a.jpg,23,0,24,,,,,,,f,1.1194024999858811,0.2720917999977246,None,,,,,,24,0,23,332.76288729999214,,,,,,,,,,,,,,,,,,,,,,,332.7467921000207,332.76288729999214,333.2472136000288,,,,,,,,,,,,,,,,,,,,,,,,,,,333.2584630000056,333.26324510003906,333.26324510003906,333.26324510003906,336.24717220000457,f,1.1194024999858811,0.2720917999977246,336.2472759000375,336.24728950002464,None,336.26304430002347,336.26304430002347,336.26304430002347,,,,,,,,,,,,,,00044,001,2026-01-24_10h56.04.295,MST_task,2024.2.0,59.85522220102087,2026-01-24 10h56.12.002501 +0530,
,Objects\102a.jpg,24,0,25,,,,,,,f,1.2674136999994516,0.21593050000956282,None,,,,,,25,0,24,336.26304430002347,,,,,,,,,,,,,,,,,,,,,,,336.24736470001517,336.26304430002347,336.7467854000279,,,,,,,,,,,,,,336.7633343000198,,,,,,,,,,,,,336.75760770001216,336.7633343000198,336.7633343000198,336.7633343000198,339.7471211000229,f,1.2674136999994516,0.21593050000956282,339.7471905000275,339.74720410001464,None,339.76270020002266,339.76270020002266,339.76270020002266,,,,,,,,,,,,,,00044,001,2026-01-24_10h56.04.295,MST_task,2024.2.0,59.85522220102087,2026-01-24 10h56.12.002501 +0530,
,Objects\085a.jpg,25,0,26,,,,,,,f,1.9194220999488607,0.2161620000260882,None,,,,,,26,0,25,339.76270020002266,,,,,,,,,,,,,,,,,,,,,,,339.7472806000151,339.76270020002266,340.2469943999895,,,,,,,,,,,,,,340.2631761000375,,,,,,,,,,,,,340.25789700000314,340.2631761000375,340.2631761000375,340.2631761000375,343.24718240002403,f,1.9194220999488607,0.2161620000260882,343.24725190002937,343.24726540001575,None,343.2630722000031,343.2630722000031,343.2630722000031,,,,,,,,,,,,,,00044,001,2026-01-24_10h56.04.295,MST_task,2024.2.0,59.85522220102087,2026-01-24 10h56.12.002501 +0530,
,Objects\083a.jpg,26,0,27,,,,,,,f,2.507777500024531,0.20001659996341914,None,,,,,,27,0,26,343.2630722000031,,,,,,,,,,,,,,,,,,,,,,,343.2473638000083,343.2630722000031,343.7471319999895,,,,,,,,,,,,,,343.7635129999835,,,,,,,,,,,,,343.7598339000251,343.7635129999835,343.7635129999835,343.7635129999835,346.74741130002076,f,2.507777500024531,0.20001659996341914,346.74749360000715,346.74751120002475,None,,,,,,,,,,,,,,,,,00044,001,2026-01-24_10h56.04.295,MST_task,2024.2.0,59.85522220102087,2026-01-24 10h56.12.002501 +0530,
,Objects\057a.jpg,27,0,28,,,,,,,f,2.280113899963908,0.31143130001146346,None,,,,,,28,0,27,346.7627949999878,,,,,,,,,,,,,,,,,,,,,,,346.74760170001537,346.7627949999878,347.24680670001544,,,,,,,,,,,,,,347.26284460001625,,,,,,,,,,,,,347.25787600001786,347.26284460001625,347.26284460001625,347.26284460001625,350.2474567000172,f,2.280113899963908,0.31143130001146346,350.2475348000298,350.2475526999915,None,350.26305569999386,350.26305569999386,350.26305569999386,,,,,,,,,,,,,,00044,001,2026-01-24_10h56.04.295,MST_task,2024.2.0,59.85522220102087,2026-01-24 10h56.12.002501 +0530,
,Scenes\047a.jpg,28,0,29,,,,,,,j,1.2772595999995247,0.2163317000376992,None,,,,,,29,0,28,350.26305569999386,,,,,,,,,,,,,,,,,,,,,,,350.2476381000015,350.26305569999386,350.74674249999225,,,,,,,,,,,,,,350.7699656999903,,,,,,,,,,,,,350.766916099994,350.7699656999903,350.7699656999903,350.7699656999903,353.76379130000714,j,1.2772595999995247,0.2163317000376992,353.76388680003583,353.7639024000382,None,,,,,,,,,,,,,,,,,00044,001,2026-01-24_10h56.04.295,MST_task,2024.2.0,59.85522220102087,2026-01-24 10h56.12.002501 +0530,
,Scenes\006a.jpg,29,0,30,,,,,,,f,2.682719199976418,None,None,,,,,,30,0,29,353.77980309998384,,,,,,,,,,,,,,,,,,,,,,,353.7640104999882,353.77980309998384,354.26416670001345,,,,,,,,,,,,,,,,,,,,,,,,,,,354.28116579999914,354.28435670002364,354.28435670002364,354.28435670002364,357.2803151999833,f,2.682719199976418,None,357.28039890003856,357.2804141000379,None,,,,,,,,,,,,,,,,,00044,001,2026-01-24_10h56.04.295,MST_task,2024.2.0,59.85522220102087,2026-01-24 10h56.12.002501 +0530,
,Scenes\088a.jpg,30,0,31,,,,,,,j,1.045353099994827,0.23199370002839714,None,,,,,,31,0,30,357.2963433000259,,,,,,,,,,,,,,,,,,,,,,,357.2805069999886,357.2963433000259,357.78042999998434,,,,,,,,,,,,,,357.80987639998784,,,,,,,,,,,,,357.8065377000021,357.80987639998784,357.80987639998784,357.80987639998784,360.7968430999899,j,1.045353099994827,0.23199370002839714,360.7969359999988,360.7969507999951,None,,,,,,,,,,,,,,,,,00044,001,2026-01-24_10h56.04.295,MST_task,2024.2.0,59.85522220102087,2026-01-24 10h56.12.002501 +0530,
,Scenes\055a.jpg,31,0,32,,,,,,,j,1.504490600025747,0.19202579994453117,None,,,,,,32,0,31,360.8127623000182,,,,,,,,,,,,,,,,,,,,,,,360.79707440000493,360.8127623000182,361.29715270001907,,,,,,,,,,,,,,361.31876619998366,,,,,,,,,,,,,361.31566249998286,361.31876619998366,361.31876619998366,361.31876619998366,364.3135716000106,j,1.504490600025747,0.19202579994453117,364.313647700008,364.31366360001266,None,,,,,,,,,,,,,,,,,00044,001,2026-01-24_10h56.04.295,MST_task,2024.2.0,59.85522220102087,2026-01-24 10h56.12.002501 +0530,
,Scenes\134a.jpg,32,0,33,,,,,,,j,1.4482205999665894,0.24007840000558645,None,,,,,,33,0,32,364.3303332999931,,,,,,,,,,,,,,,,,,,,,,,364.3137624000083,364.3303332999931,364.81378989998484,,,,,,,,,,,,,,364.83863690000726,,,,,,,,,,,,,364.83529700001236,364.83863690000726,364.83863690000726,364.83863690000726,367.83007359999465,j,1.4482205999665894,0.24007840000558645,367.83017289999407,367.83018950000405,None,,,,,,,,,,,,,,,,,00044,001,2026-01-24_10h56.04.295,MST_task,2024.2.0,59.85522220102087,2026-01-24 10h56.12.002501 +0530,
,Scenes\181a.jpg,33,0,34,,,,,,,f,1.9098187999916263,0.28799740003887564,None,,,,,,34,0,33,367.8468665999826,,,,,,,,,,,,,,,,,,,,,,,367.8303099999903,367.8468665999826,368.33011400001124,,,,,,,,,,,,,,368.3533770000213,,,,,,,,,,,,,368.35011220001616,368.3533770000213,368.3533770000213,368.3533770000213,371.3304611000349,f,1.9098187999916263,0.28799740003887564,371.33053690003,371.3305536999833,None,,,,,,,,,,,,,,,,,00044,001,2026-01-24_10h56.04.295,MST_task,2024.2.0,59.85522220102087,2026-01-24 10h56.12.002501 +0530,
,Scenes\154a.jpg,34,0,35,,,,,,,j,1.7421578000066802,0.19992740004090592,None,,,,,,35,0,34,371.34692450001603,,,,,,,,,,,,,,,,,,,,,,,371.3306424000184,371.34692450001603,371.8306684999843,,,,,,,,,,,,,,371.8485784000368,,,,,,,,,,,,,371.8457201999845,371.8485784000368,371.8485784000368,371.8485784000368,374.8469465000089,j,1.7421578000066802,0.19992740004090592,374.84702709998237,374.84704289998626,None,,,,,,,,,,,,,,,,,00044,001,2026-01-24_10h56.04.295,MST_task,2024.2.0,59.85522220102087,2026-01-24 10h56.12.002501 +0530,
,Objects\079a.jpg,35,0,36,,,,,,,f,1.3307135000359267,0.25651559996185824,None,,,,,,36,0,35,374.86277380003594,,,,,,,,,,,,,,,,,,,,,,,374.84716250002384,374.86277380003594,375.34675269998843,,,,,,,,,,,,,,375.36380739999004,,,,,,,,,,,,,375.358004299982,375.36380739999004,375.36380739999004,375.36380739999004,378.34702709998237,f,1.3307135000359267,0.25651559996185824,378.3470938000246,378.347107700014,None,378.36319290002575,378.36319290002575,378.36319290002575,,,,,,,,,,,,,,00044,001,2026-01-24_10h56.04.295,MST_task,2024.2.0,59.85522220102087,2026-01-24 10h56.12.002501 +0530,
,Objects\053a.jpg,36,0,37,,,,,,,f,1.5115414000465535,0.2640483999857679,None,,,,,,37,0,36,378.36319290002575,,,,,,,,,,,,,,,,,,,,,,,378.34721079998417,378.36319290002575,378.8467059999821,,,,,,,,,,,,,,378.8630140000023,,,,,,,,,,,,,378.85843279998517,378.8630140000023,378.8630140000023,378.8630140000023,381.8475086999824,f,1.5115414000465535,0.2640483999857679,381.84757540002465,381.84758860000875,None,381.86280330002774,381.86280330002774,381.86280330002774,,,,,,,,,,,,,,00044,001,2026-01-24_10h56.04.295,MST_task,2024.2.0,59.85522220102087,2026-01-24 10h56.12.002501 +0530,
,Objects\125a.jpg,37,0,38,,,,,,,j,1.4440473000286147,0.19099669996649027,None,,,,,,38,0,37,381.86280330002774,,,,,,,,,,,,,,,,,,,,,,,381.8476929999888,381.86280330002774,382.3471240000217,,,,,,,,,,,,,,382.3635131000192,,,,,,,,,,,,,382.3576361000305,382.3635131000192,382.3635131000192,382.3635131000192,385.3473142000148,j,1.4440473000286147,0.19099669996649027,385.347401200037,385.347417699988,None,385.3632587000029,385.3632587000029,385.3632587000029,,,,,,,,,,,,,,00044,001,2026-01-24_10h56.04.295,MST_task,2024.2.0,59.85522220102087,2026-01-24 10h56.12.002501 +0530,
,Objects\061a.jpg,38,0,39,,,,,,,None,,,j,None,None,,,,39,0,38,385.3632587000029,,,,,,,,,,,,,,,,,,,,,,,385.34754330001306,385.3632587000029,385.8466268000193,,,,,,,,,,,,,,385.86354789999314,,,,,,,,,,,,,385.857487900008,385.86354789999314,385.86354789999314,385.86354789999314,388.8474982000189,None,,,388.8475688000326,389.09715159999905,j,388.8628054999863,388.8628054999863,388.8628054999863,388.8628054999863,388.8628054999863,None,None,,,,,,,,,,00044,001,2026-01-24_10h56.04.295,MST_task,2024.2.0,59.85522220102087,2026-01-24 10h56.12.002501 +0530,
,Objects\014a.jpg,39,0,40,,,,,,,f,1.3457753999973647,0.2715699999826029,None,,,,,,40,0,39,389.11347340000793,,,,,,,,,,,,,,,,,,,,,,,389.0973021000391,389.11347340000793,389.5967795000179,,,,,,,,,,,,,,389.61313489999156,,,,,,,,,,,,,389.6077334000147,389.61313489999156,389.61313489999156,389.61313489999156,392.5969834999996,f,1.3457753999973647,0.2715699999826029,392.5970573000377,392.597072100034,None,392.61350829998264,392.61350829998264,392.61350829998264,,,,,,,,,,,,,,00044,001,2026-01-24_10h56.04.295,MST_task,2024.2.0,59.85522220102087,2026-01-24 10h56.12.002501 +0530,
,Objects\110a.jpg,40,0,41,,,,,,,j,1.9573718999745324,0.19990980002330616,None,,,,,,41,0,40,392.61350829998264,,,,,,,,,,,,,,,,,,,,,,,392.5971797000384,392.61350829998264,393.09680410003057,,,,,,,,,,,,,,393.1134764000308,,,,,,,,,,,,,393.1081179000321,393.1134764000308,393.1134764000308,393.1134764000308,396.0973290000111,j,1.9573718999745324,0.19990980002330616,396.0974276000052,396.09744159999536,None,396.11375200003386,396.11375200003386,396.11375200003386,,,,,,,,,,,,,,00044,001,2026-01-24_10h56.04.295,MST_task,2024.2.0,59.85522220102087,2026-01-24 10h56.12.002501 +0530,
,Objects\114a.jpg,41,0,42,,,,,,,f,1.0177753000170924,0.26422250003088266,None,,,,,,42,0,41,396.11375200003386,,,,,,,,,,,,,,,,,,,,,,,396.0975523000234,396.11375200003386,396.59679949999554,,,,,,,,,,,,,,396.6132186999894,,,,,,,,,,,,,396.6088734000223,396.6132186999894,396.6132186999894,396.6132186999894,399.5974208000116,f,1.0177753000170924,0.26422250003088266,399.5974995000288,399.5975129000144,None,399.6132199999993,399.6132199999993,399.6132199999993,,,,,,,,,,,,,,00044,001,2026-01-24_10h56.04.295,MST_task,2024.2.0,59.85522220102087,2026-01-24 10h56.12.002501 +0530,
,Scenes\072a.jpg,42,0,43,,,,,,,j,1.374545200029388,0.18396349996328354,None,,,,,,43,0,42,399.6132199999993,,,,,,,,,,,,,,,,,,,,,,,399.5975924000377,399.6132199999993,400.0969144999981,,,,,,,,,,,,,,400.1202742999885,,,,,,,,,,,,,400.11764760001097,400.1202742999885,400.1202742999885,400.1202742999885,403.1134105999954,j,1.374545200029388,0.18396349996328354,403.1134968000115,403.113513600023,None,,,,,,,,,,,,,,,,,00044,001,2026-01-24_10h56.04.295,MST_task,2024.2.0,59.85522220102087,2026-01-24 10h56.12.002501 +0530,
,Scenes\054a.jpg,43,0,44,,,,,,,j,2.015619500016328,0.20001719996798784,None,,,,,,44,0,43,403.1297267000191,,,,,,,,,,,,,,,,,,,,,,,403.11363380000694,403.1297267000191,403.6133276000037,,,,,,,,,,,,,,403.64757630001986,,,,,,,,,,,,,403.64491119998274,403.64757630001986,403.64757630001986,403.64757630001986,406.6301281999913,j,2.015619500016328,0.20001719996798784,406.6302082000184,406.630229900009,None,,,,,,,,,,,,,,,,,00044,001,2026-01-24_10h56.04.295,MST_task,2024.2.0,59.85522220102087,2026-01-24 10h56.12.002501 +0530,
,Scenes\122a.jpg,44,0,45,,,,,,,None,,,f,1.0768625999917276,None,,,,45,0,44,406.64608010003576,,,,,,,,,,,,,,,,,,,,,,,406.63034800003516,406.64608010003576,407.13014650001423,,,,,,,,,,,,,,407.15189550002106,,,,,,,,,,,,,407.1492114000139,407.15189550002106,407.15189550002106,407.15189550002106,410.13059610000346,None,,,410.13067560002673,411.23022329999367,f,,,,410.14608580002096,410.14608580002096,1.0768625999917276,None,,,,,,,,,,00044,001,2026-01-24_10h56.04.295,MST_task,2024.2.0,59.85522220102087,2026-01-24 10h56.12.002501 +0530,
,Scenes\025a.jpg,45,0,46,,,,,,,j,1.259974799992051,0.2399862000020221,None,,,,,,46,0,45,411.2462355000316,,,,,,,,,,,,,,,,,,,,,,,411.2303827999858,411.2462355000316,411.730151500029,,,,,,,,,,,,,,411.7547701000003,,,,,,,,,,,,,411.7519368000212,411.7547701000003,411.7547701000003,411.7547701000003,414.73047280003084,j,1.259974799992051,0.2399862000020221,414.7305522999959,414.7305691000074,None,,,,,,,,,,,,,,,,,00044,001,2026-01-24_10h56.04.295,MST_task,2024.2.0,59.85522220102087,2026-01-24 10h56.12.002501 +0530,
,Scenes\089a.jpg,46,0,47,,,,,,,j,1.96481610002229,0.336009600025136,None,,,,,,47,0,46,414.7463202000363,,,,,,,,,,,,,,,,,,,,,,,414.7306649000384,414.7463202000363,415.2305422000354,,,,,,,,,,,,,,415.25782970001455,,,,,,,,,,,,,415.2549379999982,415.25782970001455,415.25782970001455,415.25782970001455,418.24653210002,j,1.96481610002229,0.336009600025136,418.2466296000057,418.246644800005,None,,,,,,,,,,,,,,,,,00044,001,2026-01-24_10h56.04.295,MST_task,2024.2.0,59.85522220102087,2026-01-24 10h56.12.002501 +0530,
,Scenes\026a.jpg,47,0,48,,,,,,,j,1.4283123000059277,0.22333459998480976,None,,,,,,48,0,47,418.26294450002024,,,,,,,,,,,,,,,,,,,,,,,418.2467320000287,418.26294450002024,418.74645889998646,,,,,,,,,,,,,,418.7708195000305,,,,,,,,,,,,,418.7678251999896,418.7708195000305,418.7708195000305,418.7708195000305,421.763512799982,j,1.4283123000059277,0.22333459998480976,421.7635891000391,421.7636045999825,None,,,,,,,,,,,,,,,,,00044,001,2026-01-24_10h56.04.295,MST_task,2024.2.0,59.85522220102087,2026-01-24 10h56.12.002501 +0530,
,Scenes\141a.jpg,48,0,49,,,,,,,j,1.7090482000494376,0.24847519997274503,None,,,,,,49,0,48,421.7798491999856,,,,,,,,,,,,,,,,,,,,,,,421.76369170000544,421.7798491999856,422.2633317,,,,,,,,,,,,,,422.2813335999963,,,,,,,,,,,,,422.278121499985,422.2813335999963,422.2813335999963,422.2813335999963,425.27963000000454,j,1.7090482000494376,0.24847519997274503,425.2797078000149,425.2797230000142,None,,,,,,,,,,,,,,,,,00044,001,2026-01-24_10h56.04.295,MST_task,2024.2.0,59.85522220102087,2026-01-24 10h56.12.002501 +0530,
,Objects\157a.jpg,49,0,50,,,,,,,f,1.3221732000238262,0.2719754999852739,None,,,,,,50,0,49,425.29603090003366,,,,,,,,,,,,,,,,,,,,,,,425.279837900016,425.29603090003366,425.77994279999984,,,,,,,,,,,,,,425.79678869998315,,,,,,,,,,,,,425.7910508000059,425.79678869998315,425.79678869998315,425.79678869998315,428.78003540000645,f,1.3221732000238262,0.2719754999852739,428.78012860001763,428.7801434000139,None,,,,,,,,,,,,,,,,,00044,001,2026-01-24_10h56.04.295,MST_task,2024.2.0,59.85522220102087,2026-01-24 10h56.12.002501 +0530,
,Objects\051a.jpg,50,0,51,,,,,,,j,1.526099400012754,0.23255219997372478,None,,,,,,51,0,50,428.7963386999909,,,,,,,,,,,,,,,,,,,,,,,428.7802588000195,428.7963386999909,429.28005770000163,,,,,,,,,,,,,,429.2967783000204,,,,,,,,,,,,,429.29099609999685,429.2967783000204,429.2967783000204,429.2967783000204,432.28020770003786,j,1.526099400012754,0.23255219997372478,432.2802800000063,432.28029389999574,None,432.2967132999911,432.2967132999911,432.2967132999911,,,,,,,,,,,,,,00044,001,2026-01-24_10h56.04.295,MST_task,2024.2.0,59.85522220102087,2026-01-24 10h56.12.002501 +0530,
,Objects\003a.jpg,51,0,52,,,,,,,j,1.7219583000405692,0.2799148999620229,None,,,,,,52,0,51,432.2967132999911,,,,,,,,,,,,,,,,,,,,,,,432.28037719998974,432.2967132999911,432.78037540003425,,,,,,,,,,,,,,432.79682420002064,,,,,,,,,,,,,432.7913740000222,432.79682420002064,432.79682420002064,432.79682420002064,435.78048150002724,j,1.7219583000405692,0.2799148999620229,435.7805973000359,435.7806249000132,None,,,,,,,,,,,,,,,,,00044,001,2026-01-24_10h56.04.295,MST_task,2024.2.0,59.85522220102087,2026-01-24 10h56.12.002501 +0530,
,Objects\192a.jpg,52,0,53,,,,,,,j,1.4455511000123806,0.20816300000296906,None,,,,,,53,0,52,435.79643089999445,,,,,,,,,,,,,,,,,,,,,,,435.7807809000369,435.79643089999445,436.2802899000235,,,,,,,,,,,,,,436.2967995000072,,,,,,,,,,,,,436.2912668000208,436.2967995000072,436.2967995000072,436.2967995000072,439.2807221999974,j,1.4455511000123806,0.20816300000296906,439.28079450002406,439.2808096000226,None,439.296849699982,439.296849699982,439.296849699982,,,,,,,,,,,,,,00044,001,2026-01-24_10h56.04.295,MST_task,2024.2.0,59.85522220102087,2026-01-24 10h56.12.002501 +0530,
,Objects\002a.jpg,53,0,54,,,,,,,f,2.4978469000197947,0.20002129999920726,None,,,,,,54,0,53,439.296849699982,,,,,,,,,,,,,,,,,,,,,,,439.2808973999927,439.296849699982,439.78058190003503,,,,,,,,,,,,,,439.79665000003297,,,,,,,,,,,,,439.7911325999885,439.79665000003297,439.79665000003297,439.79665000003297,442.78038750000997,f,2.4978469000197947,0.20002129999920726,442.7804683999857,442.78048349998426,None,442.7961454000324,442.7961454000324,442.7961454000324,,,,,,,,,,,,,,00044,001,2026-01-24_10h56.04.295,MST_task,2024.2.0,59.85522220102087,2026-01-24 10h56.12.002501 +0530,
,Objects\073a.jpg,54,0,55,,,,,,,f,1.590547100000549,0.239574899955187,None,,,,,,55,0,54,442.7961454000324,,,,,,,,,,,,,,,,,,,,,,,442.7805967000313,442.7961454000324,443.28048120002495,,,,,,,,,,,,,,443.29665209999075,,,,,,,,,,,,,443.2909556000377,443.29665209999075,443.29665209999075,443.29665209999075,446.28057460003765,f,1.590547100000549,0.239574899955187,446.28068720002193,446.2807101000217,None,446.2964960000245,446.2964960000245,446.2964960000245,,,,,,,,,,,,,,00044,001,2026-01-24_10h56.04.295,MST_task,2024.2.0,59.85522220102087,2026-01-24 10h56.12.002501 +0530,
,Objects\036a.jpg,55,0,56,,,,,,,f,1.9459123999695294,0.24125160003313795,None,,,,,,56,0,55,446.2964960000245,,,,,,,,,,,,,,,,,,,,,,,446.28084469999885,446.2964960000245,446.78013760002796,,,,,,,,,,,,,,446.7965994999977,,,,,,,,,,,,,446.791762000008,446.7965994999977,446.7965994999977,446.7965994999977,449.78081989998464,f,1.9459123999695294,0.24125160003313795,449.78089130000444,449.7809050999931,None,449.7966328000184,449.7966328000184,449.7966328000184,,,,,,,,,,,,,,00044,001,2026-01-24_10h56.04.295,MST_task,2024.2.0,59.85522220102087,2026-01-24 10h56.12.002501 +0530,
,Scenes\050a.jpg,56,0,57,,,,,,,j,1.0202599999611266,0.24057220004033297,None,,,,,,57,0,56,449.7966328000184,,,,,,,,,,,,,,,,,,,,,,,449.78098229999887,449.7966328000184,450.2805727000232,,,,,,,,,,,,,,450.2983612000244,,,,,,,,,,,,,450.29590199998347,450.2983612000244,450.2983612000244,450.2983612000244,453.29671060002875,j,1.0202599999611266,0.24057220004033297,453.29678849998163,453.29680419998476,None,,,,,,,,,,,,,,,,,00044,001,2026-01-24_10h56.04.295,MST_task,2024.2.0,59.85522220102087,2026-01-24 10h56.12.002501 +0530,
,Scenes\175a.jpg,57,0,58,,,,,,,j,0.9438310000114143,0.19209359999513254,None,,,,,,58,0,57,453.3125996000017,,,,,,,,,,,,,,,,,,,,,,,453.2969254000345,453.3125996000017,453.7971009000321,,,,,,,,,,,,,,453.8146460999851,,,,,,,,,,,,,453.81202150002355,453.8146460999851,453.8146460999851,453.8146460999851,456.8131073000259,j,0.9438310000114143,0.19209359999513254,456.81318470003316,456.81320050003706,None,,,,,,,,,,,,,,,,,00044,001,2026-01-24_10h56.04.295,MST_task,2024.2.0,59.85522220102087,2026-01-24 10h56.12.002501 +0530,
,Scenes\105a.jpg,58,0,59,,,,,,,j,1.2532699999865144,0.183167900016997,None,,,,,,59,0,58,456.829655700014,,,,,,,,,,,,,,,,,,,,,,,456.81329810002353,456.829655700014,457.313420600025,,,,,,,,,,,,,,457.33805940003367,,,,,,,,,,,,,457.3347501999815,457.33805940003367,457.33805940003367,457.33805940003367,460.3300869000377,j,1.2532699999865144,0.183167900016997,460.33018380001886,460.33019860001514,None,,,,,,,,,,,,,,,,,00044,001,2026-01-24_10h56.04.295,MST_task,2024.2.0,59.85522220102087,2026-01-24 10h56.12.002501 +0530,
,Scenes\165a.jpg,59,0,60,,,,,,,j,1.6414483999833465,0.23981360002653673,None,,,,,,60,0,59,460.3465559000033,,,,,,,,,,,,,,,,,,,,,,,460.3303099999903,460.3465559000033,460.8299381000106,,,,,,,,,,,,,,460.8538030000054,,,,,,,,,,,,,460.85040350002237,460.8538030000054,460.8538030000054,460.8538030000054,463.8465765999863,j,1.6414483999833465,0.23981360002653673,463.8466707000043,463.84679219999816,None,,,,,,,,,,,,,,,,,00044,001,2026-01-24_10h56.04.295,MST_task,2024.2.0,59.85522220102087,2026-01-24 10h56.12.002501 +0530,
,Scenes\075a.jpg,60,0,61,,,,,,,j,1.6318750000209548,0.16049049998400733,None,,,,,,61,0,60,463.8626024000114,,,,,,,,,,,,,,,,,,,,,,,463.8469936000183,463.8626024000114,464.3468332000193,,,,,,,,,,,,,,464.3665153000038,,,,,,,,,,,,,464.3631162000238,464.3665153000038,464.3665153000038,464.3665153000038,467.3633192999987,j,1.6318750000209548,0.16049049998400733,467.3634143000236,467.36342960002366,None,,,,,,,,,,,,,,,,,00044,001,2026-01-24_10h56.04.295,MST_task,2024.2.0,59.85522220102087,2026-01-24 10h56.12.002501 +0530,
,Scenes\067a.jpg,61,0,62,,,,,,,j,2.412764100008644,0.17602380004245788,None,,,,,,62,0,61,467.3797217000392,,,,,,,,,,,,,,,,,,,,,,,467.3635643000016,467.3797217000392,467.86340770003153,,,,,,,,,,,,,,467.88218260003487,,,,,,,,,,,,,467.87942000001203,467.88218260003487,467.88218260003487,467.88218260003487,470.87973739998415,j,2.412764100008644,0.17602380004245788,470.87982119998196,470.87983669998357,None,,,,,,,,,,,,,,,,,00044,001,2026-01-24_10h56.04.295,MST_task,2024.2.0,59.85522220102087,2026-01-24 10h56.12.002501 +0530,
,Scenes\163a.jpg,62,0,63,,,,,,,j,2.841219699999783,None,None,,,,,,63,0,62,470.89642469998216,,,,,,,,,,,,,,,,,,,,,,,470.87996980000753,470.89642469998216,471.379975799995,,,,,,,,,,,,,,,,,,,,,,,,,,,471.3953537000343,471.39844750001794,471.39844750001794,471.39844750001794,474.38039350003237,j,2.841219699999783,None,474.3804628000362,474.380477800034,None,,,,,,,,,,,,,,,,,00044,001,2026-01-24_10h56.04.295,MST_task,2024.2.0,59.85522220102087,2026-01-24 10h56.12.002501 +0530,
,Objects\082a.jpg,63,0,64,,,,,,,j,1.3504125999752432,0.256103899970185,None,,,,,,64,0,63,474.3967992999824,,,,,,,,,,,,,,,,,,,,,,,474.38061029999517,474.3967992999824,474.8800703000161,,,,,,,,,,,,,,474.8968527999823,,,,,,,,,,,,,474.892362100014,474.8968527999823,474.8968527999823,474.8968527999823,477.8806387000368,j,1.3504125999752432,0.256103899970185,477.88072030001786,477.8807372000301,None,,,,,,,,,,,,,,,,,00044,001,2026-01-24_10h56.04.295,MST_task,2024.2.0,59.85522220102087,2026-01-24 10h56.12.002501 +0530,
,Objects\123a.jpg,64,0,65,,,,,,,j,1.4822976000141352,0.18407109996769577,None,,,,,,65,0,64,477.89636760001304,,,,,,,,,,,,,,,,,,,,,,,477.8808618999901,477.89636760001304,478.3799843000015,,,,,,,,,,,,,,478.396798700036,,,,,,,,,,,,,478.3908437000355,478.396798700036,478.396798700036,478.396798700036,481.38024040003074,j,1.4822976000141352,0.18407109996769577,481.38030910003,481.38032390002627,None,481.3961881999858,481.3961881999858,481.3961881999858,,,,,,,,,,,,,,00044,001,2026-01-24_10h56.04.295,MST_task,2024.2.0,59.85522220102087,2026-01-24 10h56.12.002501 +0530,
,Objects\132a.jpg,65,0,66,,,,,,,f,1.6782936000381596,0.264168499968946,None,,,,,,66,0,65,481.3961881999858,,,,,,,,,,,,,,,,,,,,,,,481.3804099999834,481.3961881999858,481.88003030000255,,,,,,,,,,,,,,481.89662110002246,,,,,,,,,,,,,481.89134129998274,481.89662110002246,481.89662110002246,481.89662110002246,484.8804147000192,f,1.6782936000381596,0.264168499968946,484.8804882999975,484.88050319999456,None,484.8963283000048,484.8963283000048,484.8963283000048,,,,,,,,,,,,,,00044,001,2026-01-24_10h56.04.295,MST_task,2024.2.0,59.85522220102087,2026-01-24 10h56.12.002501 +0530,
,Objects\161a.jpg,66,0,67,,,,,,,j,1.7066092999884859,0.19943189999321476,None,,,,,,67,0,66,484.8963283000048,,,,,,,,,,,,,,,,,,,,,,,484.8806074000313,484.8963283000048,485.38009190000594,,,,,,,,,,,,,,485.39648530003615,,,,,,,,,,,,,485.391677000036,485.39648530003615,485.39648530003615,485.39648530003615,488.3803867000388,j,1.7066092999884859,0.19943189999321476,488.3804645999917,488.3804792999872,None,488.3961323000258,488.3961323000258,488.3961323000258,,,,,,,,,,,,,,00044,001,2026-01-24_10h56.04.295,MST_task,2024.2.0,59.85522220102087,2026-01-24 10h56.12.002501 +0530,
,Objects\183a.jpg,67,0,68,,,,,,,f,2.117834299977403,0.27195920003578067,None,,,,,,68,0,67,488.3961323000258,,,,,,,,,,,,,,,,,,,,,,,488.38056120002875,488.3961323000258,488.88040110003203,,,,,,,,,,,,,,488.8966432000161,,,,,,,,,,,,,488.89146880002227,488.8966432000161,488.8966432000161,488.8966432000161,491.8803496999899,f,2.117834299977403,0.27195920003578067,491.88042850000784,491.8804457000224,None,491.8961548000225,491.8961548000225,491.8961548000225,,,,,,,,,,,,,,00044,001,2026-01-24_10h56.04.295,MST_task,2024.2.0,59.85522220102087,2026-01-24 10h56.12.002501 +0530,
,Objects\099a.jpg,68,0,69,,,,,,,f,1.9382096999906935,0.25579690001904964,None,,,,,,69,0,68,491.8961548000225,,,,,,,,,,,,,,,,,,,,,,,491.88054769998416,491.8961548000225,492.3801053999923,,,,,,,,,,,,,,492.3966098999954,,,,,,,,,,,,,492.39170939999167,492.3966098999954,492.3966098999954,492.3966098999954,495.38068070000736,f,1.9382096999906935,0.25579690001904964,495.38075340003707,495.38076740002725,None,495.3965492999996,495.3965492999996,495.3965492999996,,,,,,,,,,,,,,00044,001,2026-01-24_10h56.04.295,MST_task,2024.2.0,59.85522220102087,2026-01-24 10h56.12.002501 +0530,
,Objects\063a.jpg,69,0,70,,,,,,,f,2.1664328000042588,0.30330299999332055,None,,,,,,70,0,69,495.3965492999996,,,,,,,,,,,,,,,,,,,,,,,495.38084890000755,495.3965492999996,495.88052599999355,,,,,,,,,,,,,,495.8968523000367,,,,,,,,,,,,,495.8914187999908,495.8968523000367,495.8968523000367,495.8968523000367,498.8810230999952,f,2.1664328000042588,0.30330299999332055,498.88109700003406,498.88111150002806,None,498.8962772000232,498.8962772000232,498.8962772000232,,,,,,,,,,,,,,00044,001,2026-01-24_10h56.04.295,MST_task,2024.2.0,59.85522220102087,2026-01-24 10h56.12.002501 +0530,
,Scenes\123a.jpg,70,0,71,,,,,,,j,1.3935288999928162,0.2079786999966018,None,,,,,,71,0,70,498.8962772000232,,,,,,,,,,,,,,,,,,,,,,,498.8812275000382,498.8962772000232,499.3797454999876,,,,,,,,,,,,,,499.39744620001875,,,,,,,,,,,,,499.39426129998174,499.39744620001875,499.39744620001875,499.39744620001875,502.3808374000364,j,1.3935288999928162,0.2079786999966018,502.38091130001703,502.3809259000118,None,502.39672180003254,502.39672180003254,502.39672180003254,,,,,,,,,,,,,,00044,001,2026-01-24_10h56.04.295,MST_task,2024.2.0,59.85522220102087,2026-01-24 10h56.12.002501 +0530,
,Scenes\162a.jpg,71,0,72,,,,,,,j,1.2666380999726243,0.21602120000170544,None,,,,,,72,0,71,502.39672180003254,,,,,,,,,,,,,,,,,,,,,,,502.3810514000361,502.39672180003254,502.8799512999831,,,,,,,,,,,,,,502.8997810999863,,,,,,,,,,,,,502.8962091000285,502.8997810999863,502.8997810999863,502.8997810999863,505.89656500000274,j,1.2666380999726243,0.21602120000170544,505.89664340001764,505.8966580000124,None,,,,,,,,,,,,,,,,,00044,001,2026-01-24_10h56.04.295,MST_task,2024.2.0,59.85522220102087,2026-01-24 10h56.12.002501 +0530,
,Scenes\036a.jpg,72,0,73,,,,,,,None,,,j,0.04169839998940006,None,,,,73,0,72,505.91359539999394,,,,,,,,,,,,,,,,,,,,,,,505.8967929999926,505.91359539999394,506.3968452999834,,,,,,,,,,,,,,506.4134107999853,,,,,,,,,,,,,506.40958430001047,506.4134107999853,506.4134107999853,506.4134107999853,509.396981900034,None,,,509.3970473000081,509.46426020003855,j,509.4127707000007,509.4127707000007,509.4127707000007,509.4127707000007,509.4127707000007,0.04169839998940006,None,,,,,,,,,,00044,001,2026-01-24_10h56.04.295,MST_task,2024.2.0,59.85522220102087,2026-01-24 10h56.12.002501 +0530,
,Scenes\113a.jpg,73,0,74,,,,,,,j,1.6025754999718629,0.21604249998927116,None,,,,,,74,0,73,509.4799946999992,,,,,,,,,,,,,,,,,,,,,,,509.46436260000337,509.4799946999992,509.9632515999838,,,,,,,,,,,,,,509.9799200000125,,,,,,,,,,,,,509.9758199999924,509.9799200000125,509.9799200000125,509.9799200000125,512.9637288000085,j,1.6025754999718629,0.21604249998927116,512.963814000017,512.9638274000026,None,512.9794791000313,512.9794791000313,512.9794791000313,,,,,,,,,,,,,,00044,001,2026-01-24_10h56.04.295,MST_task,2024.2.0,59.85522220102087,2026-01-24 10h56.12.002501 +0530,
,Scenes\022a.jpg,74,0,75,,,,,,,j,2.8303901000181213,None,None,,,,,,75,0,74,512.9794791000313,,,,,,,,,,,,,,,,,,,,,,,512.9639322999865,512.9794791000313,513.4633807000355,,,,,,,,,,,,,,513.4800854999921,,,,,,,,,,,,,513.4753209000337,513.4800854999921,513.4800854999921,513.4800854999921,516.4636036999873,j,2.8303901000181213,None,516.4636911000125,516.463707500021,None,516.4801259000087,516.4801259000087,516.4801259000087,,,,,,,,,,,,,,00044,001,2026-01-24_10h56.04.295,MST_task,2024.2.0,59.85522220102087,2026-01-24 10h56.12.002501 +0530,
,Scenes\180a.jpg,75,0,76,,,,,,,j,1.480748699977994,0.19986559997778386,None,,,,,,76,0,75,516.4801259000087,,,,,,,,,,,,,,,,,,,,,,,516.4638154000277,516.4801259000087,516.9633518999908,,,,,,,,,,,,,,516.9826288000331,,,,,,,,,,,,,516.9800405999995,516.9826288000331,516.9826288000331,516.9826288000331,519.9798841000302,j,1.480748699977994,0.19986559997778386,519.979978599993,519.9799938999931,None,,,,,,,,,,,,,,,,,00044,001,2026-01-24_10h56.04.295,MST_task,2024.2.0,59.85522220102087,2026-01-24 10h56.12.002501 +0530,
,Scenes\024a.jpg,76,0,77,,,,,,,j,1.2220351999858394,0.2080085999914445,None,,,,,,77,0,76,519.9971008999855,,,,,,,,,,,,,,,,,,,,,,,519.980088900018,519.9971008999855,520.4802640000125,,,,,,,,,,,,,,520.4973577000201,,,,,,,,,,,,,520.494428200007,520.4973577000201,520.4973577000201,520.4973577000201,523.4801035000128,j,1.2220351999858394,0.2080085999914445,523.480188400019,523.4802038000198,None,,,,,,,,,,,,,,,,,00044,001,2026-01-24_10h56.04.295,MST_task,2024.2.0,59.85522220102087,2026-01-24 10h56.12.002501 +0530,
,Objects\019a.jpg,77,0,78,,,,,,,f,1.9060169999720529,0.27198860002681613,None,,,,,,78,0,77,523.4969828000176,,,,,,,,,,,,,,,,,,,,,,,523.4803224999923,523.4969828000176,523.9800110000069,,,,,,,,,,,,,,523.9975377999945,,,,,,,,,,,,,523.9940597999957,523.9975377999945,523.9975377999945,523.9975377999945,526.9808329000371,f,1.9060169999720529,0.27198860002681613,526.9809100999846,526.9809244000353,None,526.9963523999904,526.9963523999904,526.9963523999904,,,,,,,,,,,,,,00044,001,2026-01-24_10h56.04.295,MST_task,2024.2.0,59.85522220102087,2026-01-24 10h56.12.002501 +0530,
,Objects\111a.jpg,78,0,79,,,,,,,f,1.5188587000011466,0.23138579999795184,None,,,,,,79,0,78,526.9963523999904,,,,,,,,,,,,,,,,,,,,,,,526.9810166999814,526.9963523999904,527.4802559000091,,,,,,,,,,,,,,527.4963983999914,,,,,,,,,,,,,527.4911668000277,527.4963983999914,527.4963983999914,527.4963983999914,530.4802868000115,f,1.5188587000011466,0.23138579999795184,530.4803570000222,530.4803718000185,None,530.4961841999902,530.4961841999902,530.4961841999902,,,,,,,,,,,,,,00044,001,2026-01-24_10h56.04.295,MST_task,2024.2.0,59.85522220102087,2026-01-24 10h56.12.002501 +0530,
,Objects\027a.jpg,79,0,80,,,,,,,f,2.1461110999807715,0.22447890002513304,None,,,,,,80,0,79,530.4961841999902,,,,,,,,,,,,,,,,,,,,,,,530.4804728000308,530.4961841999902,530.9804766000016,,,,,,,,,,,,,,530.9964943000232,,,,,,,,,,,,,530.9914850000059,530.9964943000232,530.9964943000232,530.9964943000232,533.9807885999908,f,2.1461110999807715,0.22447890002513304,533.9808548000292,533.9808701000293,None,,,,,,,,,,,,,,,,,00044,001,2026-01-24_10h56.04.295,MST_task,2024.2.0,59.85522220102087,2026-01-24 10h56.12.002501 +0530,
,Objects\030a.jpg,80,0,81,,,,,,,None,,,f,0.4299654999631457,None,,,,81,0,80,533.9965008000145,,,,,,,,,,,,,,,,,,,,,,,533.980973800004,533.9965008000145,534.4800521000288,,,,,,,,,,,,,,534.4965746999951,,,,,,,,,,,,,534.4911977000302,534.4965746999951,534.4965746999951,534.4965746999951,537.4803499000263,None,,,537.4804255000199,537.930391300004,f,537.4966225000098,537.4966225000098,537.4966225000098,537.4966225000098,537.4966225000098,0.4299654999631457,None,,,,,,,,,,00044,001,2026-01-24_10h56.04.295,MST_task,2024.2.0,59.85522220102087,2026-01-24 10h56.12.002501 +0530,
,Objects\077a.jpg,81,0,82,,,,,,,j,0.9996117000118829,0.22386379999807104,None,,,,,,82,0,81,537.9462237000116,,,,,,,,,,,,,,,,,,,,,,,537.9305501999916,537.9462237000116,538.4301578000304,,,,,,,,,,,,,,538.4470232999884,,,,,,,,,,,,,538.4412446999922,538.4470232999884,538.4470232999884,538.4470232999884,541.4308308000327,j,0.9996117000118829,0.22386379999807104,541.4309000000358,541.4309143000282,None,541.4464573999867,541.4464573999867,541.4464573999867,,,,,,,,,,,,,,00044,001,2026-01-24_10h56.04.295,MST_task,2024.2.0,59.85522220102087,2026-01-24 10h56.12.002501 +0530,
,Objects\080a.jpg,82,0,83,,,,,,,j,2.828257399960421,None,None,,,,,,83,0,82,541.4464573999867,,,,,,,,,,,,,,,,,,,,,,,541.4310187000083,541.4464573999867,541.9306099000387,,,,,,,,,,,,,,541.9468176999944,,,,,,,,,,,,,541.942248700012,541.9468176999944,541.9468176999944,541.9468176999944,544.9303611000068,j,2.828257399960421,None,544.9304309000145,544.93044560001,None,544.9461333000218,544.9461333000218,544.9461333000218,,,,,,,,,,,,,,00044,001,2026-01-24_10h56.04.295,MST_task,2024.2.0,59.85522220102087,2026-01-24 10h56.12.002501 +0530,
,Objects\134a.jpg,83,0,84,,,,,,,None,,,f,0.55206110002473,None,,,,84,0,83,544.9461333000218,,,,,,,,,,,,,,,,,,,,,,,544.9305276999949,544.9461333000218,545.4298379999818,,,,,,,,,,,,,,545.4463606000063,,,,,,,,,,,,,545.4406839000294,545.4463606000063,545.4463606000063,545.4463606000063,548.430760600022,None,,,548.4308318999829,549.0132838999853,f,548.446349600039,548.446349600039,548.446349600039,548.446349600039,548.446349600039,0.55206110002473,None,,,,,,,,,,00044,001,2026-01-24_10h56.04.295,MST_task,2024.2.0,59.85522220102087,2026-01-24 10h56.12.002501 +0530,
,Scenes\188a.jpg,84,0,85,,,,,,,j,1.0596774999867193,0.24800660001346841,None,,,,,,85,0,84,549.0293516000384,,,,,,,,,,,,,,,,,,,,,,,549.0134500000277,549.0293516000384,549.5130762000335,,,,,,,,,,,,,,549.531547599996,,,,,,,,,,,,,549.5289243999869,549.531547599996,549.531547599996,549.531547599996,552.5298031999846,j,1.0596774999867193,0.24800660001346841,552.529893900035,552.529909200035,None,,,,,,,,,,,,,,,,,00044,001,2026-01-24_10h56.04.295,MST_task,2024.2.0,59.85522220102087,2026-01-24 10h56.12.002501 +0530,
,Scenes\150a.jpg,85,0,86,,,,,,,j,1.4598007000167854,0.25596219999715686,None,,,,,,86,0,85,552.5460888000089,,,,,,,,,,,,,,,,,,,,,,,552.5299929000321,552.5460888000089,553.0301200000104,,,,,,,,,,,,,,553.0507587000029,,,,,,,,,,,,,553.0477357000345,553.0507587000029,553.0507587000029,553.0507587000029,556.0465369999874,j,1.4598007000167854,0.25596219999715686,556.0466077000019,556.0466232000035,None,,,,,,,,,,,,,,,,,00044,001,2026-01-24_10h56.04.295,MST_task,2024.2.0,59.85522220102087,2026-01-24 10h56.12.002501 +0530,
,Scenes\100a.jpg,86,0,87,,,,,,,f,2.4068938000127673,0.2880539000034332,None,,,,,,87,0,86,556.0628007000196,,,,,,,,,,,,,,,,,,,,,,,556.0467428999837,556.0628007000196,556.5468433999922,,,,,,,,,,,,,,,,,,,,,,,,,,,556.5656051000115,556.5681339000002,556.5681339000002,556.5681339000002,559.564682700031,f,2.4068938000127673,0.2880539000034332,559.5647655000212,559.5647800000152,None,,,,,,,,,,,,,,,,,00044,001,2026-01-24_10h56.04.295,MST_task,2024.2.0,59.85522220102087,2026-01-24 10h56.12.002501 +0530,
,Scenes\041a.jpg,87,0,88,,,,,,,j,1.3603483000188135,0.24793720000889152,None,,,,,,88,0,87,559.5795872000162,,,,,,,,,,,,,,,,,,,,,,,559.5649030000204,559.5795872000162,560.0633135000244,,,,,,,,,,,,,,560.0861928000231,,,,,,,,,,,,,560.0830911000376,560.0861928000231,560.0861928000231,560.0861928000231,563.0806649000151,j,1.3603483000188135,0.24793720000889152,563.0807380999904,563.080753599992,None,,,,,,,,,,,,,,,,,00044,001,2026-01-24_10h56.04.295,MST_task,2024.2.0,59.85522220102087,2026-01-24 10h56.12.002501 +0530,
,Scenes\103a.jpg,88,0,89,,,,,,,j,2.9629660999635234,None,None,,,,,,89,0,88,563.0965941000031,,,,,,,,,,,,,,,,,,,,,,,563.0808470000047,563.0965941000031,563.5800268999883,,,,,,,,,,,,,,563.6034968000022,,,,,,,,,,,,,563.6004569000215,563.6034968000022,563.6034968000022,563.6034968000022,566.5966031000135,j,2.9629660999635234,None,566.5966914999881,566.5967065999866,None,,,,,,,,,,,,,,,,,00044,001,2026-01-24_10h56.04.295,MST_task,2024.2.0,59.85522220102087,2026-01-24 10h56.12.002501 +0530,
,Scenes\173a.jpg,89,0,90,,,,,,,j,1.3008542000316083,0.2629824999603443,None,,,,,,90,0,89,566.6128928000107,,,,,,,,,,,,,,,,,,,,,,,566.5968221999938,566.6128928000107,567.0968939000159,,,,,,,,,,,,,,,,,,,,,,,,,,,567.1119097000337,567.1146456000279,567.1146456000279,567.1146456000279,570.0972746000043,j,1.3008542000316083,0.2629824999603443,570.097348899988,570.0973648999934,None,,,,,,,,,,,,,,,,,00044,001,2026-01-24_10h56.04.295,MST_task,2024.2.0,59.85522220102087,2026-01-24 10h56.12.002501 +0530,
,Scenes\110a.jpg,90,0,91,,,,,,,j,2.2459426000132225,0.23099339997861534,None,,,,,,91,0,90,570.1131808999926,,,,,,,,,,,,,,,,,,,,,,,570.0974665000103,570.1131808999926,570.5972497999901,,,,,,,,,,,,,,570.6175612999941,,,,,,,,,,,,,570.614865600015,570.6175612999941,570.6175612999941,570.6175612999941,573.613688900019,j,2.2459426000132225,0.23099339997861534,573.6137680000393,573.613784199988,None,,,,,,,,,,,,,,,,,00044,001,2026-01-24_10h56.04.295,MST_task,2024.2.0,59.85522220102087,2026-01-24 10h56.12.002501 +0530,
,Objects\064a.jpg,91,0,92,,,,,,,f,1.4928285999922082,0.2872252999804914,None,,,,,,92,0,91,573.6296840999858,,,,,,,,,,,,,,,,,,,,,,,573.6139138999861,573.6296840999858,574.1130686000106,,,,,,,,,,,,,,574.1303582999972,,,,,,,,,,,,,574.1243224000209,574.1303582999972,574.1303582999972,574.1303582999972,577.1136298000347,f,1.4928285999922082,0.2872252999804914,577.1137025000062,577.1137155999895,None,577.1295765999821,577.1295765999821,577.1295765999821,,,,,,,,,,,,,,00044,001,2026-01-24_10h56.04.295,MST_task,2024.2.0,59.85522220102087,2026-01-24 10h56.12.002501 +0530,
,Objects\138a.jpg,92,0,93,,,,,,,j,1.9529217000235803,0.2159869999741204,None,,,,,,93,0,92,577.1295765999821,,,,,,,,,,,,,,,,,,,,,,,577.113819900027,577.1295765999821,577.6132064000121,,,,,,,,,,,,,,577.6296810000204,,,,,,,,,,,,,577.6243450000184,577.6296810000204,577.6296810000204,577.6296810000204,580.6136865000008,j,1.9529217000235803,0.2159869999741204,580.613760999986,580.6137749000336,None,580.6298040000256,580.6298040000256,580.6298040000256,,,,,,,,,,,,,,00044,001,2026-01-24_10h56.04.295,MST_task,2024.2.0,59.85522220102087,2026-01-24 10h56.12.002501 +0530,
,Objects\106a.jpg,93,0,94,,,,,,,f,1.8362690000212751,0.20781029999488965,None,,,,,,94,0,93,580.6298040000256,,,,,,,,,,,,,,,,,,,,,,,580.6138819000334,580.6298040000256,581.1133907000185,,,,,,,,,,,,,,581.130229900009,,,,,,,,,,,,,581.1243217000156,581.130229900009,581.130229900009,581.130229900009,584.113875799987,f,1.8362690000212751,0.20781029999488965,584.1139477000106,584.1139613999985,None,584.130092700012,584.130092700012,584.130092700012,,,,,,,,,,,,,,00044,001,2026-01-24_10h56.04.295,MST_task,2024.2.0,59.85522220102087,2026-01-24 10h56.12.002501 +0530,
,Objects\153a.jpg,94,0,95,,,,,,,None,,,j,0.10490959999151528,None,,,,95,0,94,584.130092700012,,,,,,,,,,,,,,,,,,,,,,,584.1140679999953,584.130092700012,584.6134107999969,,,,,,,,,,,,,,584.6298854000052,,,,,,,,,,,,,584.6261268000235,584.6298854000052,584.6298854000052,584.6298854000052,587.6136818000232,None,,,587.6137532999855,587.7473655000213,j,587.6296844999888,587.6296844999888,587.6296844999888,587.6296844999888,587.6296844999888,0.10490959999151528,None,,,,,,,,,,00044,001,2026-01-24_10h56.04.295,MST_task,2024.2.0,59.85522220102087,2026-01-24 10h56.12.002501 +0530,
,Objects\021a.jpg,95,0,96,,,,,,,f,2.9673080000211485,None,None,,,,,,96,0,95,587.7630152000347,,,,,,,,,,,,,,,,,,,,,,,587.7474672999815,587.7630152000347,588.2469686000259,,,,,,,,,,,,,,588.2632700999966,,,,,,,,,,,,,588.2580445000203,588.2632700999966,588.2632700999966,588.2632700999966,591.2471550999908,f,2.9673080000211485,None,591.247225900006,591.2472409000038,None,591.2628637999878,591.2628637999878,591.2628637999878,,,,,,,,,,,,,,00044,001,2026-01-24_10h56.04.295,MST_task,2024.2.0,59.85522220102087,2026-01-24 10h56.12.002501 +0530,
,Objects\043a.jpg,96,0,97,,,,,,,None,,,f,0.4191747000440955,None,,,,97,0,96,591.2628637999878,,,,,,,,,,,,,,,,,,,,,,,591.2473220000393,591.2628637999878,591.746934499999,,,,,,,,,,,,,,591.7635691000032,,,,,,,,,,,,,591.7595834000385,591.7635691000032,591.7635691000032,591.7635691000032,594.7471066000289,None,,,594.7471734000137,595.1966999000288,f,594.7633511000313,594.7633511000313,594.7633511000313,594.7633511000313,594.7633511000313,0.4191747000440955,None,,,,,,,,,,00044,001,2026-01-24_10h56.04.295,MST_task,2024.2.0,59.85522220102087,2026-01-24 10h56.12.002501 +0530,
,Objects\173a.jpg,97,0,98,,,,,,,f,1.4055148999905214,0.2880011000088416,None,,,,,,98,0,97,595.2128545999876,,,,,,,,,,,,,,,,,,,,,,,595.1968028999981,595.2128545999876,595.6968924000394,,,,,,,,,,,,,,,,,,,,,,,,,,,595.7082499000244,595.7132063999888,595.7132063999888,595.7132063999888,598.6969009999884,f,1.4055148999905214,0.2880011000088416,598.6969683000352,598.6969822000246,None,598.7128348000115,598.7128348000115,598.7128348000115,,,,,,,,,,,,,,00044,001,2026-01-24_10h56.04.295,MST_task,2024.2.0,59.85522220102087,2026-01-24 10h56.12.002501 +0530,
,Scenes\023a.jpg,98,0,99,,,,,,,None,,,f,None,None,,,,99,0,98,598.7128348000115,,,,,,,,,,,,,,,,,,,,,,,598.6970796000096,598.7128348000115,599.1968057000195,,,,,,,,,,,,,,599.224617400032,,,,,,,,,,,,,599.2218542000046,599.224617400032,599.224617400032,599.224617400032,602.213107299991,None,,,602.2132032000227,602.4807517000008,f,,,,602.2296316000284,602.2296316000284,None,None,,,,,,,,,,00044,001,2026-01-24_10h56.04.295,MST_task,2024.2.0,59.85522220102087,2026-01-24 10h56.12.002501 +0530,
,Scenes\133a.jpg,99,0,100,,,,,,,j,1.8259243000065908,0.23927469999762252,None,,,,,,100,0,99,602.4963756999932,,,,,,,,,,,,,,,,,,,,,,,602.4809012000333,602.4963756999932,602.9798070000252,,,,,,,,,,,,,,603.0051138999988,,,,,,,,,,,,,603.0019949999987,603.0051138999988,603.0051138999988,603.0051138999988,605.9967823000043,j,1.8259243000065908,0.23927469999762252,605.9968504999997,605.9968666000059,None,,,,,,,,,,,,,,,,,00044,001,2026-01-24_10h56.04.295,MST_task,2024.2.0,59.85522220102087,2026-01-24 10h56.12.002501 +0530,
,Scenes\066a.jpg,100,0,101,,,,,,,j,2.005435500002932,0.19204190000891685,None,,,,,,101,0,100,606.012886499986,,,,,,,,,,,,,,,,,,,,,,,605.9969746000133,606.012886499986,606.4966951000388,,,,,,,,,,,,,,606.5134947000188,,,,,,,,,,,,,606.5085892000352,606.5134947000188,606.5134947000188,606.5134947000188,609.4969211000134,j,2.005435500002932,0.19204190000891685,609.4969903000165,609.4970043000067,None,609.5127837000182,609.5127837000182,609.5127837000182,,,,,,,,,,,,,,00044,001,2026-01-24_10h56.04.295,MST_task,2024.2.0,59.85522220102087,2026-01-24 10h56.12.002501 +0530,
,Scenes\159a.jpg,101,0,102,,,,,,,j,1.6341385999694467,0.23987980000674725,None,,,,,,102,0,101,609.5127837000182,,,,,,,,,,,,,,,,,,,,,,,609.497108599986,609.5127837000182,609.9968331999844,,,,,,,,,,,,,,610.0204817000194,,,,,,,,,,,,,610.0178979000193,610.0204817000194,610.0204817000194,610.0204817000194,613.0136072000023,j,1.6341385999694467,0.23987980000674725,613.0136967999861,613.0137200999889,None,,,,,,,,,,,,,,,,,00044,001,2026-01-24_10h56.04.295,MST_task,2024.2.0,59.85522220102087,2026-01-24 10h56.12.002501 +0530,
,Scenes\084a.jpg,102,0,103,,,,,,,j,2.470174100017175,0.19149929995182902,None,,,,,,103,0,102,613.0301084000384,,,,,,,,,,,,,,,,,,,,,,,613.0138427999918,613.0301084000384,613.5135370999924,,,,,,,,,,,,,,613.5369685000041,,,,,,,,,,,,,613.5338025999954,613.5369685000041,613.5369685000041,613.5369685000041,616.5298113999888,j,2.470174100017175,0.19149929995182902,616.5298992000171,616.5299181999872,None,,,,,,,,,,,,,,,,,00044,001,2026-01-24_10h56.04.295,MST_task,2024.2.0,59.85522220102087,2026-01-24 10h56.12.002501 +0530,
,Scenes\085a.jpg,103,0,104,,,,,,,j,2.0977079999865964,0.2639959999942221,None,,,,,,104,0,103,616.5467551000183,,,,,,,,,,,,,,,,,,,,,,,616.5300452000229,616.5467551000183,617.0299628000357,,,,,,,,,,,,,,617.0534289000207,,,,,,,,,,,,,617.0503614000045,617.0534289000207,617.0534289000207,617.0534289000207,620.0468325000256,j,2.0977079999865964,0.2639959999942221,620.0469034999842,620.0469193999888,None,,,,,,,,,,,,,,,,,00044,001,2026-01-24_10h56.04.295,MST_task,2024.2.0,59.85522220102087,2026-01-24 10h56.12.002501 +0530,
,Scenes\160a.jpg,104,0,105,,,,,,,j,2.3204852000344545,0.22420219995547086,None,,,,,,105,0,104,620.0630245000357,,,,,,,,,,,,,,,,,,,,,,,620.0470517000067,620.0630245000357,620.5466220999951,,,,,,,,,,,,,,620.5657715999987,,,,,,,,,,,,,620.5631388000329,620.5657715999987,620.5657715999987,620.5657715999987,623.5632247999893,j,2.3204852000344545,0.22420219995547086,623.5632951000007,623.563314100029,None,,,,,,,,,,,,,,,,,00044,001,2026-01-24_10h56.04.295,MST_task,2024.2.0,59.85522220102087,2026-01-24 10h56.12.002501 +0530,
,Objects\151a.jpg,105,0,106,,,,,,,j,1.4626567999948747,0.2324201000155881,None,,,,,,106,0,105,623.5796711000148,,,,,,,,,,,,,,,,,,,,,,,623.5634316999931,623.5796711000148,624.0630287000095,,,,,,,,,,,,,,624.0801313000266,,,,,,,,,,,,,624.074313900026,624.0801313000266,624.0801313000266,624.0801313000266,627.0641138000065,j,1.4626567999948747,0.2324201000155881,627.0641906000092,627.0642049000016,None,627.0799731999869,627.0799731999869,627.0799731999869,,,,,,,,,,,,,,00044,001,2026-01-24_10h56.04.295,MST_task,2024.2.0,59.85522220102087,2026-01-24 10h56.12.002501 +0530,
,Objects\087a.jpg,106,0,107,,,,,,,j,1.955083700013347,0.24848889996064827,None,,,,,,107,0,106,627.0799731999869,,,,,,,,,,,,,,,,,,,,,,,627.0642909000162,627.0799731999869,627.5631587000098,,,,,,,,,,,,,,627.5799539000145,,,,,,,,,,,,,627.5736219999962,627.5799539000145,627.5799539000145,627.5799539000145,630.5637916999985,j,1.955083700013347,0.24848889996064827,630.5638612000039,630.5638739999849,None,630.5797775000101,630.5797775000101,630.5797775000101,,,,,,,,,,,,,,00044,001,2026-01-24_10h56.04.295,MST_task,2024.2.0,59.85522220102087,2026-01-24 10h56.12.002501 +0530,
,Objects\004a.jpg,107,0,108,,,,,,,None,,,f,0.14390369999455288,None,,,,108,0,107,630.5797775000101,,,,,,,,,,,,,,,,,,,,,,,630.5639756000019,630.5797775000101,631.0629906000104,,,,,,,,,,,,,,631.0801502999966,,,,,,,,,,,,,631.0741627999814,631.0801502999966,631.0801502999966,631.0801502999966,634.063827200036,None,,,634.0639053999912,634.2300078999833,f,634.0795274000266,634.0795274000266,634.0795274000266,634.0795274000266,634.0795274000266,0.14390369999455288,None,,,,,,,,,,00044,001,2026-01-24_10h56.04.295,MST_task,2024.2.0,59.85522220102087,2026-01-24 10h56.12.002501 +0530,
,Objects\174a.jpg,108,0,109,,,,,,,f,1.1801588999805972,0.28767500002868474,None,,,,,,109,0,108,634.2460626999964,,,,,,,,,,,,,,,,,,,,,,,634.2301181000075,634.2460626999964,634.7302479000064,,,,,,,,,,,,,,634.7468159000273,,,,,,,,,,,,,634.7411512000253,634.7468159000273,634.7468159000273,634.7468159000273,637.730428299983,f,1.1801588999805972,0.28767500002868474,637.7304976999876,637.7305121999816,None,637.7462650000234,637.7462650000234,637.7462650000234,,,,,,,,,,,,,,00044,001,2026-01-24_10h56.04.295,MST_task,2024.2.0,59.85522220102087,2026-01-24 10h56.12.002501 +0530,
,Objects\092a.jpg,109,0,110,,,,,,,f,1.592120099987369,0.28003580000950024,None,,,,,,110,0,109,637.7462650000234,,,,,,,,,,,,,,,,,,,,,,,637.7306148000062,637.7462650000234,638.230902899988,,,,,,,,,,,,,,638.2470639999956,,,,,,,,,,,,,638.2419141000137,638.2470639999956,638.2470639999956,638.2470639999956,641.2305045000394,f,1.592120099987369,0.28003580000950024,641.2305817999877,641.2305979999946,None,641.2461768999929,641.2461768999929,641.2461768999929,,,,,,,,,,,,,,00044,001,2026-01-24_10h56.04.295,MST_task,2024.2.0,59.85522220102087,2026-01-24 10h56.12.002501 +0530,
,Objects\013a.jpg,110,0,111,,,,,,,j,2.123474299965892,0.28001320001203567,None,,,,,,111,0,110,641.2461768999929,,,,,,,,,,,,,,,,,,,,,,,641.2307080000173,641.2461768999929,641.729997300019,,,,,,,,,,,,,,641.7468519000104,,,,,,,,,,,,,641.7409180999966,641.7468519000104,641.7468519000104,641.7468519000104,644.7303555000108,j,2.123474299965892,0.28001320001203567,644.7304278000374,644.7304422000307,None,644.7466416000389,644.7466416000389,644.7466416000389,,,,,,,,,,,,,,00044,001,2026-01-24_10h56.04.295,MST_task,2024.2.0,59.85522220102087,2026-01-24 10h56.12.002501 +0530,
,Objects\133a.jpg,111,0,112,,,,,,,j,1.8244746000273153,0.2324259000015445,None,,,,,,112,0,111,644.7466416000389,,,,,,,,,,,,,,,,,,,,,,,644.7305251000216,644.7466416000389,645.2296915000188,,,,,,,,,,,,,,645.2463058999856,,,,,,,,,,,,,645.242839500017,645.2463058999856,645.2463058999856,645.2463058999856,648.230555600021,j,1.8244746000273153,0.2324259000015445,648.2306239000172,648.2306372000021,None,648.2465546000167,648.2465546000167,648.2465546000167,,,,,,,,,,,,,,00044,001,2026-01-24_10h56.04.295,MST_task,2024.2.0,59.85522220102087,2026-01-24 10h56.12.002501 +0530,
,Scenes\109a.jpg,112,0,113,,,,,,,j,1.9275468999985605,0.23209020000649616,None,,,,,,113,0,112,648.2465546000167,,,,,,,,,,,,,,,,,,,,,,,648.2307134000002,648.2465546000167,648.7298841000302,,,,,,,,,,,,,,648.7511128000333,,,,,,,,,,,,,648.74820490001,648.7511128000333,648.7511128000333,648.7511128000333,651.7468402000377,j,1.9275468999985605,0.23209020000649616,651.7469197000028,651.7469343999983,None,,,,,,,,,,,,,,,,,00044,001,2026-01-24_10h56.04.295,MST_task,2024.2.0,59.85522220102087,2026-01-24 10h56.12.002501 +0530,
,Scenes\062a.jpg,113,0,114,,,,,,,j,1.4445864000008442,0.28793249995214865,None,,,,,,114,0,113,651.7628350000014,,,,,,,,,,,,,,,,,,,,,,,651.7470290000201,651.7628350000014,652.2463284999831,,,,,,,,,,,,,,652.2737733999966,,,,,,,,,,,,,652.2709455000004,652.2737733999966,652.2737733999966,652.2737733999966,655.2632432000246,j,1.4445864000008442,0.28793249995214865,655.2634096000111,655.2634274000302,None,,,,,,,,,,,,,,,,,00044,001,2026-01-24_10h56.04.295,MST_task,2024.2.0,59.85522220102087,2026-01-24 10h56.12.002501 +0530,
,Scenes\059a.jpg,114,0,115,,,,,,,j,2.723560800019186,0.2074502999894321,None,,,,,,115,0,114,655.2797873000382,,,,,,,,,,,,,,,,,,,,,,,655.2635451999959,655.2797873000382,655.7630986000295,,,,,,,,,,,,,,655.7876158999861,,,,,,,,,,,,,655.7844714000239,655.7876158999861,655.7876158999861,655.7876158999861,658.7802227000357,j,2.723560800019186,0.2074502999894321,658.7802940999973,658.780322799983,None,,,,,,,,,,,,,,,,,00044,001,2026-01-24_10h56.04.295,MST_task,2024.2.0,59.85522220102087,2026-01-24 10h56.12.002501 +0530,
,Scenes\001a.jpg,115,0,116,,,,,,,f,1.9328113000374287,0.27194589999271557,None,,,,,,116,0,115,658.796173300012,,,,,,,,,,,,,,,,,,,,,,,658.7804369000369,658.796173300012,659.2797870000359,,,,,,,,,,,,,,659.3058559999918,,,,,,,,,,,,,659.3029353999882,659.3058559999918,659.3058559999918,659.3058559999918,662.2970887999982,f,1.9328113000374287,0.27194589999271557,662.2971712999861,662.2971867999877,None,,,,,,,,,,,,,,,,,00044,001,2026-01-24_10h56.04.295,MST_task,2024.2.0,59.85522220102087,2026-01-24 10h56.12.002501 +0530,
,Scenes\174a.jpg,116,0,117,,,,,,,j,1.82038609997835,0.21489140001358464,None,,,,,,117,0,116,662.3127099000267,,,,,,,,,,,,,,,,,,,,,,,662.297310599999,662.3127099000267,662.7966903999913,,,,,,,,,,,,,,662.8190269999905,,,,,,,,,,,,,662.8162949000252,662.8190269999905,662.8190269999905,662.8190269999905,665.8132116000052,j,1.82038609997835,0.21489140001358464,665.8133032000042,665.813318200002,None,,,,,,,,,,,,,,,,,00044,001,2026-01-24_10h56.04.295,MST_task,2024.2.0,59.85522220102087,2026-01-24 10h56.12.002501 +0530,
,Scenes\037a.jpg,117,0,118,,,,,,,j,2.2366917000035755,0.2075048999977298,None,,,,,,118,0,117,665.829820599989,,,,,,,,,,,,,,,,,,,,,,,665.8134083999903,665.829820599989,666.3135233999928,,,,,,,,,,,,,,666.3301028999849,,,,,,,,,,,,,666.325669599988,666.3301028999849,666.3301028999849,666.3301028999849,669.3139533000067,j,2.2366917000035755,0.2075048999977298,669.3140209999983,669.3140355999931,None,669.3300318000256,669.3300318000256,669.3300318000256,,,,,,,,,,,,,,00044,001,2026-01-24_10h56.04.295,MST_task,2024.2.0,59.85522220102087,2026-01-24 10h56.12.002501 +0530,
,Scenes\106a.jpg,118,0,119,,,,,,,j,1.1473153000115417,0.2239854999934323,None,,,,,,119,0,118,669.3300318000256,,,,,,,,,,,,,,,,,,,,,,,669.3141213000054,669.3300318000256,669.813406100031,,,,,,,,,,,,,,669.8358670999878,,,,,,,,,,,,,669.8330729000154,669.8358670999878,669.8358670999878,669.8358670999878,672.8301059000078,j,1.1473153000115417,0.2239854999934323,672.830194899987,672.8302089000354,None,,,,,,,,,,,,,,,,,00044,001,2026-01-24_10h56.04.295,MST_task,2024.2.0,59.85522220102087,2026-01-24 10h56.12.002501 +0530,
,Objects\146a.jpg,119,0,120,,,,,,,j,1.93179100000998,0.18380549998255447,None,,,,,,120,0,119,672.8463680000277,,,,,,,,,,,,,,,,,,,,,,,672.8303256999934,672.8463680000277,673.3304169999901,,,,,,,,,,,,,,673.3468689000001,,,,,,,,,,,,,673.3425772000337,673.3468689000001,673.3468689000001,673.3468689000001,676.3305842999835,j,1.93179100000998,0.18380549998255447,676.3306574000162,676.3306725000148,None,,,,,,,,,,,,,,,,,00044,001,2026-01-24_10h56.04.295,MST_task,2024.2.0,59.85522220102087,2026-01-24 10h56.12.002501 +0530,
,Objects\095a.jpg,120,0,121,,,,,,,f,0.9758609000127763,0.25618079997366294,None,,,,,,121,0,120,676.3464553999947,,,,,,,,,,,,,,,,,,,,,,,676.3307637000107,676.3464553999947,676.8306240999955,,,,,,,,,,,,,,676.8466134000337,,,,,,,,,,,,,676.8426391999819,676.8466134000337,676.8466134000337,676.8466134000337,679.8303195000044,f,0.9758609000127763,0.25618079997366294,679.8303874999983,679.8304009999847,None,679.8460712000378,679.8460712000378,679.8460712000378,,,,,,,,,,,,,,00044,001,2026-01-24_10h56.04.295,MST_task,2024.2.0,59.85522220102087,2026-01-24 10h56.12.002501 +0530,
,Objects\129a.jpg,121,0,122,,,,,,,f,2.3488693000399508,0.2396108999964781,None,,,,,,122,0,121,679.8460712000378,,,,,,,,,,,,,,,,,,,,,,,679.8304999000393,679.8460712000378,680.3301468000282,,,,,,,,,,,,,,680.3464351000148,,,,,,,,,,,,,680.3416253000032,680.3464351000148,680.3464351000148,680.3464351000148,683.3303301000269,f,2.3488693000399508,0.2396108999964781,683.3304018999916,683.3304156000377,None,683.3461135000107,683.3461135000107,683.3461135000107,,,,,,,,,,,,,,00044,001,2026-01-24_10h56.04.295,MST_task,2024.2.0,59.85522220102087,2026-01-24 10h56.12.002501 +0530,
,Objects\006a.jpg,122,0,123,,,,,,,None,,,f,0.4398763999924995,None,,,,123,0,122,683.3461135000107,,,,,,,,,,,,,,,,,,,,,,,683.3305175999994,683.3461135000107,683.8298222000012,,,,,,,,,,,,,,683.846501699998,,,,,,,,,,,,,683.8407446999918,683.846501699998,683.846501699998,683.846501699998,686.8304180999985,None,,,686.8304835000308,687.29677060002,f,686.8465937000001,686.8465937000001,686.8465937000001,686.8465937000001,686.8465937000001,0.4398763999924995,None,,,,,,,,,,00044,001,2026-01-24_10h56.04.295,MST_task,2024.2.0,59.85522220102087,2026-01-24 10h56.12.002501 +0530,
,Objects\162a.jpg,123,0,124,,,,,,,f,1.0256506000296213,0.27197529998375103,None,,,,,,124,0,123,687.3126274999813,,,,,,,,,,,,,,,,,,,,,,,687.2968693000148,687.3126274999813,687.7966345000314,,,,,,,,,,,,,,687.8133869000012,,,,,,,,,,,,,687.8079165000236,687.8133869000012,687.8133869000012,687.8133869000012,690.7969315000228,f,1.0256506000296213,0.27197529998375103,690.797015100019,690.797034999996,None,690.8132703999872,690.8132703999872,690.8132703999872,,,,,,,,,,,,,,00044,001,2026-01-24_10h56.04.295,MST_task,2024.2.0,59.85522220102087,2026-01-24 10h56.12.002501 +0530,
,Objects\130a.jpg,124,0,125,,,,,,,f,2.5011024000123143,0.2800322999828495,None,,,,,,125,0,124,690.8132703999872,,,,,,,,,,,,,,,,,,,,,,,690.7971171999816,690.8132703999872,691.2967041000375,,,,,,,,,,,,,,691.3132068000268,,,,,,,,,,,,,691.3081068000174,691.3132068000268,691.3132068000268,691.3132068000268,694.297010499984,f,2.5011024000123143,0.2800322999828495,694.2970766000217,694.2970907000126,None,694.3133227000362,694.3133227000362,694.3133227000362,,,,,,,,,,,,,,00044,001,2026-01-24_10h56.04.295,MST_task,2024.2.0,59.85522220102087,2026-01-24 10h56.12.002501 +0530,
,Objects\001a.jpg,125,0,126,,,,,,,f,1.4658885999815539,0.2879903000430204,None,,,,,,126,0,125,694.3133227000362,,,,,,,,,,,,,,,,,,,,,,,694.29716680001,694.3133227000362,694.7963034000131,,,,,,,,,,,,,,694.8131590000121,,,,,,,,,,,,,694.8067867000354,694.8131590000121,694.8131590000121,694.8131590000121,697.7968812999898,f,1.4658885999815539,0.2879903000430204,697.7969535000157,697.796967000002,None,697.8134310999885,697.8134310999885,697.8134310999885,,,,,,,,,,,,,,00044,001,2026-01-24_10h56.04.295,MST_task,2024.2.0,59.85522220102087,2026-01-24 10h56.12.002501 +0530,
,Scenes\074a.jpg,126,0,127,,,,,,,j,1.0319149999995716,0.24804749997565523,None,,,,,,127,0,126,697.8134310999885,,,,,,,,,,,,,,,,,,,,,,,697.7970819000038,697.8134310999885,698.2963061000337,,,,,,,,,,,,,,698.3192358000088,,,,,,,,,,,,,698.3158147000358,698.3192358000088,698.3192358000088,698.3192358000088,701.3132086999831,j,1.0319149999995716,0.24804749997565523,701.3133025999996,701.3133173999959,None,,,,,,,,,,,,,,,,,00044,001,2026-01-24_10h56.04.295,MST_task,2024.2.0,59.85522220102087,2026-01-24 10h56.12.002501 +0530,
,Scenes\096a.jpg,127,0,128,,,,,,,j,1.6553512000245973,0.20800579997012392,None,,,,,,128,0,127,701.3296927000047,,,,,,,,,,,,,,,,,,,,,,,701.3134324999992,701.3296927000047,701.8134301000391,,,,,,,,,,,,,,701.8310605000006,,,,,,,,,,,,,701.8282026000088,701.8310605000006,701.8310605000006,701.8310605000006,704.8307406000094,j,1.6553512000245973,0.20800579997012392,704.830820800038,704.8308379999944,None,,,,,,,,,,,,,,,,,00044,001,2026-01-24_10h56.04.295,MST_task,2024.2.0,59.85522220102087,2026-01-24 10h56.12.002501 +0530,
,Scenes\081a.jpg,128,0,129,,,,,,,j,1.1553530000383034,0.20856399997137487,None,,,,,,129,0,128,704.8464609000366,,,,,,,,,,,,,,,,,,,,,,,704.8309694000054,704.8464609000366,705.3298137999955,,,,,,,,,,,,,,705.3555615000078,,,,,,,,,,,,,705.353139600018,705.3555615000078,705.3555615000078,705.3555615000078,708.3464924999862,j,1.1553530000383034,0.20856399997137487,708.3465886000195,708.3466021000058,None,,,,,,,,,,,,,,,,,00044,001,2026-01-24_10h56.04.295,MST_task,2024.2.0,59.85522220102087,2026-01-24 10h56.12.002501 +0530,
,Scenes\060a.jpg,129,0,130,,,,,,,None,,,j,3.7029771000379696,None,,,,130,0,129,708.3628509999835,,,,,,,,,,,,,,,,,,,,,,,708.346720200032,708.3628509999835,708.846887200023,,,,,,,,,,,,,,,,,,,,,,,,,,,708.8926589000039,708.8959263000288,708.8959263000288,708.8959263000288,711.8632070000167,None,,,711.8632768000243,715.597030200006,j,,,,711.8793853999814,711.8793853999814,3.7029771000379696,None,,,,,,,,,,00044,001,2026-01-24_10h56.04.295,MST_task,2024.2.0,59.85522220102087,2026-01-24 10h56.12.002501 +0530,
,Scenes\015a.jpg,130,0,131,,,,,,,j,1.5727991999592632,0.27982160000829026,None,,,,,,131,0,130,715.6134375000256,,,,,,,,,,,,,,,,,,,,,,,715.5971780000255,715.6134375000256,716.0965728000156,,,,,,,,,,,,,,716.1220526000252,,,,,,,,,,,,,716.1189109000261,716.1220526000252,716.1220526000252,716.1220526000252,719.1141152000055,j,1.5727991999592632,0.27982160000829026,719.1142078000121,719.1142231000122,None,,,,,,,,,,,,,,,,,00044,001,2026-01-24_10h56.04.295,MST_task,2024.2.0,59.85522220102087,2026-01-24 10h56.12.002501 +0530,
,Scenes\101a.jpg,131,0,132,,,,,,,j,1.7717494000098668,0.23999939998611808,None,,,,,,132,0,131,719.1293824000168,,,,,,,,,,,,,,,,,,,,,,,719.1143562000361,719.1293824000168,719.6135328999953,,,,,,,,,,,,,,719.6347322000074,,,,,,,,,,,,,719.6318796999985,719.6347322000074,719.6347322000074,719.6347322000074,722.6299436999834,j,1.7717494000098668,0.23999939998611808,722.6300263000303,722.6300433999859,None,,,,,,,,,,,,,,,,,00044,001,2026-01-24_10h56.04.295,MST_task,2024.2.0,59.85522220102087,2026-01-24 10h56.12.002501 +0530,
,Scenes\043a.jpg,132,0,133,,,,,,,j,2.6048492999980226,0.21552410000003874,None,,,,,,133,0,132,722.6465578000061,,,,,,,,,,,,,,,,,,,,,,,722.6301356999902,722.6465578000061,723.1298416000209,,,,,,,,,,,,,,723.1544283999829,,,,,,,,,,,,,723.1510940000298,723.1544283999829,723.1544283999829,723.1544283999829,726.1466516000219,j,2.6048492999980226,0.21552410000003874,726.146727400017,726.1467431000201,None,,,,,,,,,,,,,,,,,00044,001,2026-01-24_10h56.04.295,MST_task,2024.2.0,59.85522220102087,2026-01-24 10h56.12.002501 +0530,
,Objects\056a.jpg,133,0,134,,,,,,,None,,,f,0.02464499999769032,None,,,,134,0,133,726.1631975999917,,,,,,,,,,,,,,,,,,,,,,,726.1468568000128,726.1631975999917,726.6469938000082,,,,,,,,,,,,,,,,,,,,,,,,,,,726.6580803000252,726.6635722999927,726.6635722999927,726.6635722999927,729.6470650000265,None,,,729.6471301999991,729.6967134000151,f,729.6631350999814,729.6631350999814,729.6631350999814,729.6631350999814,729.6631350999814,0.02464499999769032,None,,,,,,,,,,00044,001,2026-01-24_10h56.04.295,MST_task,2024.2.0,59.85522220102087,2026-01-24 10h56.12.002501 +0530,
,Objects\011a.jpg,134,0,135,,,,,,,f,1.3933344000251964,0.27227810001932085,None,,,,,,135,0,134,729.713118500018,,,,,,,,,,,,,,,,,,,,,,,729.6968203000142,729.713118500018,730.1969175999984,,,,,,,,,,,,,,730.213086600008,,,,,,,,,,,,,730.2074077000143,730.213086600008,730.213086600008,730.213086600008,733.1971759999869,f,1.3933344000251964,0.27227810001932085,733.1972506000311,733.1972666000365,None,733.2127283000154,733.2127283000154,733.2127283000154,,,,,,,,,,,,,,00044,001,2026-01-24_10h56.04.295,MST_task,2024.2.0,59.85522220102087,2026-01-24 10h56.12.002501 +0530,
,Objects\160a.jpg,135,0,136,,,,,,,f,2.525770200008992,0.26411210000514984,None,,,,,,136,0,135,733.2127283000154,,,,,,,,,,,,,,,,,,,,,,,733.1973610999994,733.2127283000154,733.6971630000044,,,,,,,,,,,,,,733.7130039000185,,,,,,,,,,,,,733.7079032000038,733.7130039000185,733.7130039000185,733.7130039000185,736.6970935999998,f,2.525770200008992,0.26411210000514984,736.6971666000318,736.6971795000136,None,736.712968100037,736.712968100037,736.712968100037,,,,,,,,,,,,,,00044,001,2026-01-24_10h56.04.295,MST_task,2024.2.0,59.85522220102087,2026-01-24 10h56.12.002501 +0530,
,Objects\024a.jpg,136,0,137,,,,,,,f,1.2983706999802962,0.32700709998607635,None,,,,,,137,0,136,736.712968100037,,,,,,,,,,,,,,,,,,,,,,,736.6972570000216,736.712968100037,737.1967764000292,,,,,,,,,,,,,,737.2133508999832,,,,,,,,,,,,,737.2079006999847,737.2133508999832,737.2133508999832,737.2133508999832,740.1970719000092,f,1.2983706999802962,0.32700709998607635,740.1971401000046,740.1971536999918,None,740.2131962000276,740.2131962000276,740.2131962000276,,,,,,,,,,,,,,00044,001,2026-01-24_10h56.04.295,MST_task,2024.2.0,59.85522220102087,2026-01-24 10h56.12.002501 +0530,
,Objects\008a.jpg,137,0,138,,,,,,,f,1.7976169000030495,0.3518733000382781,None,,,,,,138,0,137,740.2131962000276,,,,,,,,,,,,,,,,,,,,,,,740.1972670999821,740.2131962000276,740.6970573000144,,,,,,,,,,,,,,740.7130784000037,,,,,,,,,,,,,740.7078125000116,740.7130784000037,740.7130784000037,740.7130784000037,743.6970348000177,f,1.7976169000030495,0.3518733000382781,743.6971004999941,743.6971138000372,None,743.7130971000297,743.7130971000297,743.7130971000297,,,,,,,,,,,,,,00044,001,2026-01-24_10h56.04.295,MST_task,2024.2.0,59.85522220102087,2026-01-24 10h56.12.002501 +0530,
,Objects\131a.jpg,138,0,139,,,,,,,f,2.569255099981092,0.3447063000057824,None,,,,,,139,0,138,743.7130971000297,,,,,,,,,,,,,,,,,,,,,,,743.6972167000058,743.7130971000297,744.1968715999974,,,,,,,,,,,,,,744.2130188000156,,,,,,,,,,,,,744.2079851999879,744.2130188000156,744.2130188000156,744.2130188000156,747.1975301000057,f,2.569255099981092,0.3447063000057824,747.1975952000357,747.1976084000198,None,747.2128739000182,747.2128739000182,747.2128739000182,,,,,,,,,,,,,,00044,001,2026-01-24_10h56.04.295,MST_task,2024.2.0,59.85522220102087,2026-01-24 10h56.12.002501 +0530,
,Objects\184a.jpg,139,0,140,,,,,,,None,,,j,0.5253476000507362,None,,,,140,0,139,747.2128739000182,,,,,,,,,,,,,,,,,,,,,,,747.1976972999983,747.2128739000182,747.6965163000277,,,,,,,,,,,,,,747.7132081000018,,,,,,,,,,,,,747.7075478000334,747.7132081000018,747.7132081000018,747.7132081000018,750.6975963999867,None,,,750.6976626000251,751.2467591000022,j,750.7130019000033,750.7130019000033,750.7130019000033,750.7130019000033,750.7130019000033,0.5253476000507362,None,,,,,,,,,,00044,001,2026-01-24_10h56.04.295,MST_task,2024.2.0,59.85522220102087,2026-01-24 10h56.12.002501 +0530,
,Scenes\130a.jpg,140,0,141,,,,,,,j,1.4117703000083566,0.21600399998715147,None,,,,,,141,0,140,751.2627669000067,,,,,,,,,,,,,,,,,,,,,,,751.2469201000058,751.2627669000067,751.7464955000323,,,,,,,,,,,,,,751.7711744999979,,,,,,,,,,,,,751.7682394000003,751.7711744999979,751.7711744999979,751.7711744999979,754.7472051000223,j,1.4117703000083566,0.21600399998715147,754.7472728000139,754.747288100014,None,,,,,,,,,,,,,,,,,00044,001,2026-01-24_10h56.04.295,MST_task,2024.2.0,59.85522220102087,2026-01-24 10h56.12.002501 +0530,
,Scenes\131a.jpg,141,0,142,,,,,,,j,2.106390399974771,0.2069346000207588,None,,,,,,142,0,141,754.7631036000093,,,,,,,,,,,,,,,,,,,,,,,754.7473746000323,754.7631036000093,755.24658430001,,,,,,,,,,,,,,755.2689364000107,,,,,,,,,,,,,755.2658333000145,755.2689364000107,755.2689364000107,755.2689364000107,758.2632021000027,j,2.106390399974771,0.2069346000207588,758.2632833999814,758.2632995999884,None,,,,,,,,,,,,,,,,,00044,001,2026-01-24_10h56.04.295,MST_task,2024.2.0,59.85522220102087,2026-01-24 10h56.12.002501 +0530,
,Scenes\009a.jpg,142,0,143,,,,,,,f,2.2990465000038967,0.3121831999742426,None,,,,,,143,0,142,758.279356700019,,,,,,,,,,,,,,,,,,,,,,,758.2634023000137,758.279356700019,758.7633029000135,,,,,,,,,,,,,,758.7873579000006,,,,,,,,,,,,,758.7843261000235,758.7873579000006,758.7873579000006,758.7873579000006,761.763612699986,f,2.2990465000038967,0.3121831999742426,761.7636880000355,761.7637034000363,None,,,,,,,,,,,,,,,,,00044,001,2026-01-24_10h56.04.295,MST_task,2024.2.0,59.85522220102087,2026-01-24 10h56.12.002501 +0530,
,Scenes\095a.jpg,143,0,144,,,,,,,j,2.3556229999521747,0.26419840002199635,None,,,,,,144,0,143,761.7795546000125,,,,,,,,,,,,,,,,,,,,,,,761.7637928000186,761.7795546000125,762.2630075000343,,,,,,,,,,,,,,762.2831509999814,,,,,,,,,,,,,762.280450500024,762.2831509999814,762.2831509999814,762.2831509999814,765.2796453000046,j,2.3556229999521747,0.26419840002199635,765.2797156000161,765.279732200026,None,,,,,,,,,,,,,,,,,00044,001,2026-01-24_10h56.04.295,MST_task,2024.2.0,59.85522220102087,2026-01-24 10h56.12.002501 +0530,
,Scenes\149a.jpg,144,0,145,,,,,,,j,2.7153293999726884,None,None,,,,,,145,0,144,765.2959865999874,,,,,,,,,,,,,,,,,,,,,,,765.2798494999879,765.2959865999874,765.7797882999876,,,,,,,,,,,,,,765.8038752999855,,,,,,,,,,,,,765.8005176000297,765.8038752999855,765.8038752999855,765.8038752999855,768.779963100038,j,2.7153293999726884,None,768.7800407999894,768.7800569999963,None,,,,,,,,,,,,,,,,,00044,001,2026-01-24_10h56.04.295,MST_task,2024.2.0,59.85522220102087,2026-01-24 10h56.12.002501 +0530,
,Scenes\121a.jpg,145,0,146,,,,,,,j,1.4885621999856085,0.21538940002210438,None,,,,,,146,0,145,768.7962296000333,,,,,,,,,,,,,,,,,,,,,,,768.7801605000277,768.7962296000333,769.2802532000351,,,,,,,,,,,,,,769.302589900035,,,,,,,,,,,,,769.2997571000014,769.302589900035,769.302589900035,769.302589900035,772.2965787000139,j,1.4885621999856085,0.21538940002210438,772.2966757999966,772.2966978999902,None,,,,,,,,,,,,,,,,,00044,001,2026-01-24_10h56.04.295,MST_task,2024.2.0,59.85522220102087,2026-01-24 10h56.12.002501 +0530,
,Scenes\003a.jpg,146,0,147,,,,,,,j,1.4023484999779612,0.1829515999997966,None,,,,,,147,0,146,772.3127966999891,,,,,,,,,,,,,,,,,,,,,,,772.2968797000358,772.3127966999891,772.7964702000027,,,,,,,,,,,,,,772.8211750999908,,,,,,,,,,,,,772.8181199000101,772.8211750999908,772.8211750999908,772.8211750999908,775.8133370000287,j,1.4023484999779612,0.1829515999997966,775.8134174000006,775.8134337000083,None,,,,,,,,,,,,,,,,,00044,001,2026-01-24_10h56.04.295,MST_task,2024.2.0,59.85522220102087,2026-01-24 10h56.12.002501 +0530,
,Objects\170a.jpg,147,0,148,,,,,,,None,,,f,0.3169526999699883,None,,,,148,0,147,775.8291880000033,,,,,,,,,,,,,,,,,,,,,,,775.8135594000341,775.8291880000033,776.3137783000129,,,,,,,,,,,,,,776.3298395000165,,,,,,,,,,,,,776.3258839999908,776.3298395000165,776.3298395000165,776.3298395000165,779.3136083999998,None,,,779.3136724000215,779.6633400000283,f,779.3294749000343,779.3294749000343,779.3294749000343,779.3294749000343,779.3294749000343,0.3169526999699883,None,,,,,,,,,,00044,001,2026-01-24_10h56.04.295,MST_task,2024.2.0,59.85522220102087,2026-01-24 10h56.12.002501 +0530,
,Objects\045a.jpg,148,0,149,,,,,,,f,1.8989105999935418,0.2961467000422999,None,,,,,,149,0,148,779.6796746000182,,,,,,,,,,,,,,,,,,,,,,,779.6634515000042,779.6796746000182,780.163052399992,,,,,,,,,,,,,,780.179744300025,,,,,,,,,,,,,780.1747604000266,780.179744300025,780.179744300025,780.179744300025,783.163810099999,f,1.8989105999935418,0.2961467000422999,783.1638843999826,783.1638988000341,None,783.1792506999918,783.1792506999918,783.1792506999918,,,,,,,,,,,,,,00044,001,2026-01-24_10h56.04.295,MST_task,2024.2.0,59.85522220102087,2026-01-24 10h56.12.002501 +0530,
,Objects\117a.jpg,149,0,150,,,,,,,j,1.967152500001248,0.19204049999825656,None,,,,,,150,0,149,783.1792506999918,,,,,,,,,,,,,,,,,,,,,,,783.1640104000107,783.1792506999918,783.6633041999885,,,,,,,,,,,,,,783.6799840999884,,,,,,,,,,,,,783.6740422000294,783.6799840999884,783.6799840999884,783.6799840999884,786.6637495000032,j,1.967152500001248,0.19204049999825656,786.6638214000268,786.6638362000231,None,786.6797148000333,786.6797148000333,786.6797148000333,,,,,,,,,,,,,,00044,001,2026-01-24_10h56.04.295,MST_task,2024.2.0,59.85522220102087,2026-01-24 10h56.12.002501 +0530,
,Objects\163a.jpg,150,0,151,,,,,,,f,1.4671896999934688,0.28802179999183863,None,,,,,,151,0,150,786.6797148000333,,,,,,,,,,,,,,,,,,,,,,,786.6639220000361,786.6797148000333,787.1632082000142,,,,,,,,,,,,,,787.1795979000162,,,,,,,,,,,,,787.1735444000224,787.1795979000162,787.1795979000162,787.1795979000162,790.1640255000093,f,1.4671896999934688,0.28802179999183863,790.1640966000268,790.1641107000178,None,790.1799641000107,790.1799641000107,790.1799641000107,,,,,,,,,,,,,,00044,001,2026-01-24_10h56.04.295,MST_task,2024.2.0,59.85522220102087,2026-01-24 10h56.12.002501 +0530,
,Objects\039a.jpg,151,0,152,,,,,,,f,1.0712530000018887,0.2644587999675423,None,,,,,,152,0,151,790.1799641000107,,,,,,,,,,,,,,,,,,,,,,,790.1641902999836,790.1799641000107,790.6635717999889,,,,,,,,,,,,,,790.6794142000144,,,,,,,,,,,,,790.6748219000292,790.6794142000144,790.6794142000144,790.6794142000144,793.6639465999906,f,1.0712530000018887,0.2644587999675423,793.6640161999967,793.6640301999869,None,793.6793735999963,793.6793735999963,793.6793735999963,,,,,,,,,,,,,,00044,001,2026-01-24_10h56.04.295,MST_task,2024.2.0,59.85522220102087,2026-01-24 10h56.12.002501 +0530,
,Objects\072a.jpg,152,0,153,,,,,,,f,2.7231795000261627,None,None,,,,,,153,0,152,793.6793735999963,,,,,,,,,,,,,,,,,,,,,,,793.6641346000251,793.6793735999963,794.1643847000087,,,,,,,,,,,,,,,,,,,,,,,,,,,794.1749110000092,794.1798665000242,794.1798665000242,794.1798665000242,797.1635355000035,f,2.7231795000261627,None,797.1636113999994,797.1636255999911,None,797.1793699000264,797.1793699000264,797.1793699000264,,,,,,,,,,,,,,00044,001,2026-01-24_10h56.04.295,MST_task,2024.2.0,59.85522220102087,2026-01-24 10h56.12.002501 +0530,
,Objects\071a.jpg,153,0,154,,,,,,,f,1.4071507999906316,0.34397370001534,None,,,,,,154,0,153,797.1793699000264,,,,,,,,,,,,,,,,,,,,,,,797.1637072000303,797.1793699000264,797.6632092000218,,,,,,,,,,,,,,797.6798124000197,,,,,,,,,,,,,797.6738346000202,797.6798124000197,797.6798124000197,797.6798124000197,800.6638110000058,f,1.4071507999906316,0.34397370001534,800.6638805000111,800.6638953000074,None,800.6793683000142,800.6793683000142,800.6793683000142,,,,,,,,,,,,,,00044,001,2026-01-24_10h56.04.295,MST_task,2024.2.0,59.85522220102087,2026-01-24 10h56.12.002501 +0530,
,Scenes\139a.jpg,154,0,155,,,,,,,j,2.8822911999886855,None,None,,,,,,155,0,154,800.6793683000142,,,,,,,,,,,,,,,,,,,,,,,800.6640037000179,800.6793683000142,801.1633720999816,,,,,,,,,,,,,,801.1799664000282,,,,,,,,,,,,,801.1776442999835,801.1799664000282,801.1799664000282,801.1799664000282,804.1635690000257,j,2.8822911999886855,None,804.1636378000258,804.1636512000114,None,804.179446300026,804.179446300026,804.179446300026,,,,,,,,,,,,,,00044,001,2026-01-24_10h56.04.295,MST_task,2024.2.0,59.85522220102087,2026-01-24 10h56.12.002501 +0530,
,Scenes\021a.jpg,155,0,156,,,,,,,None,,,f,0.6072200000053272,None,,,,156,0,155,804.179446300026,,,,,,,,,,,,,,,,,,,,,,,804.163750000007,804.179446300026,804.6633771000197,,,,,,,,,,,,,,804.6859096999979,,,,,,,,,,,,,804.682574000035,804.6859096999979,804.6859096999979,804.6859096999979,807.6798901000293,None,,,807.6799641000107,808.3133061000262,f,,,,807.6960168000078,807.6960168000078,0.6072200000053272,None,,,,,,,,,,00044,001,2026-01-24_10h56.04.295,MST_task,2024.2.0,59.85522220102087,2026-01-24 10h56.12.002501 +0530,
,Scenes\164a.jpg,156,0,157,,,,,,,j,1.1892791000427678,0.2718650999595411,None,,,,,,157,0,156,808.3293326999992,,,,,,,,,,,,,,,,,,,,,,,808.313412700023,808.3293326999992,808.813146200031,,,,,,,,,,,,,,808.8337765000178,,,,,,,,,,,,,808.8309280000394,808.8337765000178,808.8337765000178,808.8337765000178,811.8299133999972,j,1.1892791000427678,0.2718650999595411,811.8299941000296,811.8300092000281,None,,,,,,,,,,,,,,,,,00044,001,2026-01-24_10h56.04.295,MST_task,2024.2.0,59.85522220102087,2026-01-24 10h56.12.002501 +0530,
,Scenes\128a.jpg,157,0,158,,,,,,,j,1.5574618999962695,0.24802370002726093,None,,,,,,158,0,157,811.8465819000266,,,,,,,,,,,,,,,,,,,,,,,811.8301044999971,811.8465819000266,812.329707900004,,,,,,,,,,,,,,812.353705400019,,,,,,,,,,,,,812.3510713999858,812.353705400019,812.353705400019,812.353705400019,815.3463445000234,j,1.5574618999962695,0.24802370002726093,815.3464369000285,815.3464509000187,None,,,,,,,,,,,,,,,,,00044,001,2026-01-24_10h56.04.295,MST_task,2024.2.0,59.85522220102087,2026-01-24 10h56.12.002501 +0530,
,Scenes\187a.jpg,158,0,159,,,,,,,j,1.2102200000081211,0.2321479999809526,None,,,,,,159,0,158,815.3635204000166,,,,,,,,,,,,,,,,,,,,,,,815.346584199986,815.3635204000166,815.8467784000095,,,,,,,,,,,,,,815.868007800018,,,,,,,,,,,,,815.8653248000192,815.868007800018,815.868007800018,815.868007800018,818.8633225000231,j,1.2102200000081211,0.2321479999809526,818.8634246999864,818.8634410999948,None,,,,,,,,,,,,,,,,,00044,001,2026-01-24_10h56.04.295,MST_task,2024.2.0,59.85522220102087,2026-01-24 10h56.12.002501 +0530,
,Scenes\040a.jpg,159,0,160,,,,,,,f,1.6919353000121191,0.27995799999916926,None,,,,,,160,0,159,818.879467700026,,,,,,,,,,,,,,,,,,,,,,,818.8635403999942,818.879467700026,819.3639269000269,,,,,,,,,,,,,,819.3871167000034,,,,,,,,,,,,,819.3842586000101,819.3871167000034,819.3871167000034,819.3871167000034,822.3801362999948,f,1.6919353000121191,0.27995799999916926,822.3802137000021,822.3802300000098,None,,,,,,,,,,,,,,,,,00044,001,2026-01-24_10h56.04.295,MST_task,2024.2.0,59.85522220102087,2026-01-24 10h56.12.002501 +0530,
,Scenes\073a.jpg,160,0,161,,,,,,,j,1.0241929999901913,0.21635890001198277,None,,,,,,161,0,160,822.3964705999824,,,,,,,,,,,,,,,,,,,,,,,822.3803392000264,822.3964705999824,822.8799562000204,,,,,,,,,,,,,,822.9023157000192,,,,,,,,,,,,,822.8997041999828,822.9023157000192,822.9023157000192,822.9023157000192,825.8965788999922,j,1.0241929999901913,0.21635890001198277,825.896661100036,825.8966762000346,None,,,,,,,,,,,,,,,,,00044,001,2026-01-24_10h56.04.295,MST_task,2024.2.0,59.85522220102087,2026-01-24 10h56.12.002501 +0530,
,Objects\026a.jpg,161,0,162,,,,,,,f,2.296349600015674,0.2729715000023134,None,,,,,,162,0,161,825.9128265000181,,,,,,,,,,,,,,,,,,,,,,,825.8967902000295,825.9128265000181,826.3966442000237,,,,,,,,,,,,,,826.4138610000373,,,,,,,,,,,,,826.4094322000165,826.4138610000373,826.4138610000373,826.4138610000373,829.3972322000191,f,2.296349600015674,0.2729715000023134,829.3973052999936,829.3973187000374,None,829.4128362000338,829.4128362000338,829.4128362000338,,,,,,,,,,,,,,00044,001,2026-01-24_10h56.04.295,MST_task,2024.2.0,59.85522220102087,2026-01-24 10h56.12.002501 +0530,
,Objects\025a.jpg,162,0,163,,,,,,,f,2.917150399996899,None,None,,,,,,163,0,162,829.4128362000338,,,,,,,,,,,,,,,,,,,,,,,829.3974241000251,829.4128362000338,829.8965914000291,,,,,,,,,,,,,,829.9137248999905,,,,,,,,,,,,,829.9071410000324,829.9137248999905,829.9137248999905,829.9137248999905,832.8971404000185,f,2.917150399996899,None,832.8972098000231,832.8972234000103,None,832.9129655000288,832.9129655000288,832.9129655000288,,,,,,,,,,,,,,00044,001,2026-01-24_10h56.04.295,MST_task,2024.2.0,59.85522220102087,2026-01-24 10h56.12.002501 +0530,
,Objects\179a.jpg,163,0,164,,,,,,,f,1.8808640000061132,0.31197100004646927,None,,,,,,164,0,163,832.9129655000288,,,,,,,,,,,,,,,,,,,,,,,832.8973242000211,832.9129655000288,833.3972962999833,,,,,,,,,,,,,,833.413539500034,,,,,,,,,,,,,833.4079888000269,833.413539500034,833.413539500034,833.413539500034,836.3973080000142,f,1.8808640000061132,0.31197100004646927,836.3973731999868,836.3973863000283,None,836.413272899983,836.413272899983,836.413272899983,,,,,,,,,,,,,,00044,001,2026-01-24_10h56.04.295,MST_task,2024.2.0,59.85522220102087,2026-01-24 10h56.12.002501 +0530,
,Objects\034a.jpg,164,0,165,,,,,,,f,1.0942553000058979,0.28748260001884773,None,,,,,,165,0,164,836.413272899983,,,,,,,,,,,,,,,,,,,,,,,836.3974865000346,836.413272899983,836.8965545000392,,,,,,,,,,,,,,836.9129396000062,,,,,,,,,,,,,836.9073283000034,836.9129396000062,836.9129396000062,836.9129396000062,839.8969252000097,f,1.0942553000058979,0.28748260001884773,839.896990200039,839.8970029000193,None,839.9131028000265,839.9131028000265,839.9131028000265,,,,,,,,,,,,,,00044,001,2026-01-24_10h56.04.295,MST_task,2024.2.0,59.85522220102087,2026-01-24 10h56.12.002501 +0530,
,Objects\086a.jpg,165,0,166,,,,,,,f,1.9931640999857336,0.3041681000031531,None,,,,,,166,0,165,839.9131028000265,,,,,,,,,,,,,,,,,,,,,,,839.8971027000225,839.9131028000265,840.3974032999831,,,,,,,,,,,,,,840.4132623000187,,,,,,,,,,,,,840.4083611000096,840.4132623000187,840.4132623000187,840.4132623000187,843.3971944000223,f,1.9931640999857336,0.3041681000031531,843.3972572000348,843.3972701000166,None,843.4126834000344,843.4126834000344,843.4126834000344,,,,,,,,,,,,,,00044,001,2026-01-24_10h56.04.295,MST_task,2024.2.0,59.85522220102087,2026-01-24 10h56.12.002501 +0530,
,Objects\020a.jpg,166,0,167,,,,,,,f,1.1416858999873511,0.2874858999857679,None,,,,,,167,0,166,843.4126834000344,,,,,,,,,,,,,,,,,,,,,,,843.3973687000107,843.4126834000344,843.8967567000072,,,,,,,,,,,,,,843.9131386000081,,,,,,,,,,,,,843.9078654000186,843.9131386000081,843.9131386000081,843.9131386000081,846.8971783000161,f,1.1416858999873511,0.2874858999857679,846.8972545000142,846.8972729000379,None,846.9132855000207,846.9132855000207,846.9132855000207,,,,,,,,,,,,,,00044,001,2026-01-24_10h56.04.295,MST_task,2024.2.0,59.85522220102087,2026-01-24 10h56.12.002501 +0530,
