Sl_no,image_path,thisN,thisTrialN,thisRepN,key_resp_5.keys,key_resp_5.rt,key_resp_5.duration,key_resp_7.keys,key_resp_7.rt,key_resp_7.duration,key_resp_9.keys,key_resp_9.rt,key_resp_9.duration,key_resp_8.keys,key_resp_8.rt,key_resp_8.duration,practice.thisRepN,practice.thisTrialN,practice.thisN,trials.thisRepN,trials.thisTrialN,trials.thisN,thisRow.t,notes,welcome_page.started,text.started,key_resp.started,welcome_page.stopped,key_resp.keys,key_resp.rt,key_resp.duration,instructions.started,ins.started,key_resp_2.started,instructions.stopped,key_resp_2.keys,key_resp_2.rt,key_resp_2.duration,objects_only_instruction.started,text_3.started,key_resp_3.started,objects_only_instruction.stopped,key_resp_3.keys,key_resp_3.rt,key_resp_3.duration,ISI.started,text_4.started,text_4.stopped,ISI.stopped,practice_block.started,image.started,text_5.started,key_resp_5.started,practice_block.stopped,practice.key_resp_5.keys,practice.key_resp_5.rt,practice.key_resp_5.duration,indoor_outdoor.started,indoor_outdoor.stopped,practice.key_resp_7.keys,image.stopped,text_5.stopped,key_resp_5.stopped,text_7.started,key_resp_7.started,practice.key_resp_7.rt,practice.key_resp_7.duration,practice_to_main.started,text_2.started,key_resp_4.started,practice_to_main.stopped,key_resp_4.keys,key_resp_4.rt,key_resp_4.duration,objects.started,image_2.started,text_9.started,key_resp_9.started,objects.stopped,trials.key_resp_9.keys,trials.key_resp_9.rt,trials.key_resp_9.duration,encoding_task.started,encoding_task.stopped,trials.key_resp_8.keys,text_8.started,key_resp_8.started,trials.key_resp_8.rt,trials.key_resp_8.duration,image_2.stopped,text_9.stopped,key_resp_9.stopped,end_experiment.started,text_6.started,key_resp_6.started,end_experiment.stopped,key_resp_6.keys,key_resp_6.rt,key_resp_6.duration,list_of_stimuli,encoding_task_accuracy,participant,session,date,expName,psychopyVersion,frameRate,expStart,
,,,,,,,,,,,,,,,,,,,,,,,,,0.0014099999680183828,0.00460179999936372,0.00460179999936372,21.391476599965245,space,21.373592699994333,None,,,,,,,,,,,,,,,,,,,,,,,,,,,,,,,,,,,,,,,,,,,,,,,,,,,,,,,,,,,,,,,,,,,,,,,00046,001,2026-01-24_12h31.51.771,MST_task,2024.2.0,59.762968112939966,2026-01-24 12h31.58.215300 +0530,
,,,,,,,,,,,,,,,,,,,,,,,,,,,,,,,,21.391561799973715,21.406267999962438,21.406267999962438,56.10295219998807,space,34.69264339999063,None,,,,,,,,,,,,,,,,,,,,,,,,,,,,,,,,,,,,,,,,,,,,,,,,,,,,,,,,,,,,,,,,00046,001,2026-01-24_12h31.51.771,MST_task,2024.2.0,59.762968112939966,2026-01-24 12h31.58.215300 +0530,
,,,,,,,,,,,,,,,,,,,,,,,,,,,,,,,,,,,,,,,56.103083900001366,56.12496839999221,56.12496839999221,116.70257269998547,space,60.57339549995959,None,,,,,,,,,,,,,,,,,,,,,,,,,,,,,,,,,,,,,,,,,,,,,,,,,,,,,,,,,00046,001,2026-01-24_12h31.51.771,MST_task,2024.2.0,59.762968112939966,2026-01-24 12h31.58.215300 +0530,
9,practice_images/180a.jpg,0,0,1,f,2.4677988000330515,0.12817510002059862,None,,,,,,,,,1,0,0,,,,116.71895319997566,,,,,,,,,,,,,,,,,,,,,,,116.71371719997842,116.71895319997566,117.25476849998813,117.20230050000828,117.22015989996726,117.25476849998813,117.25476849998813,117.25476849998813,120.21917170000961,f,2.4677988000330515,0.12817510002059862,120.22655299998587,120.22661219997099,None,,,,,,,,,,,,,,,,,,,,,,,,,,,,,,,,,,,,,,,,,,00046,001,2026-01-24_12h31.51.771,MST_task,2024.2.0,59.762968112939966,2026-01-24 12h31.58.215300 +0530,
6,practice_images/158a.jpg,1,1,1,j,2.122514199989382,0.09605310001643375,None,,,,,,,,,1,1,1,,,,120.23512019996997,,,,,,,,,,,,,,,,,,,,,,,120.22680669999681,120.23512019996997,120.73555310000665,120.71908629999962,120.72511739999754,120.73555310000665,120.73555310000665,120.73555310000665,123.71911929995986,j,2.122514199989382,0.09605310001643375,123.7193116999697,123.71937599999364,None,123.73544259998016,123.73544259998016,123.73544259998016,,,,,,,,,,,,,,,,,,,,,,,,,,,,,,,,,,,,,,,00046,001,2026-01-24_12h31.51.771,MST_task,2024.2.0,59.762968112939966,2026-01-24 12h31.58.215300 +0530,
8,practice_images/178a.jpg,2,2,1,None,,,j,1.950652599975001,None,,,,,,,1,2,2,,,,123.73544259998016,,,,,,,,,,,,,,,,,,,,,,,123.71965359995374,123.73544259998016,124.23565240000607,124.21918229997391,124.22433239995735,124.23565240000607,124.23565240000607,124.23565240000607,127.2194848000072,None,,,127.21964109997498,129.20255829999223,j,127.23530189995654,127.23530189995654,127.23530189995654,127.23530189995654,127.23530189995654,1.950652599975001,None,,,,,,,,,,,,,,,,,,,,,,,,,,,,,,,,,,,00046,001,2026-01-24_12h31.51.771,MST_task,2024.2.0,59.762968112939966,2026-01-24 12h31.58.215300 +0530,
10,practice_images/182a.jpg,3,3,1,f,0.9228774000075646,0.14392509998288006,None,,,,,,,,,1,3,3,,,,129.21916959999362,,,,,,,,,,,,,,,,,,,,,,,129.20287549996283,129.21916959999362,129.71914749999996,129.70242439996218,129.70785989996511,129.71914749999996,129.71914749999996,129.71914749999996,132.70242369995685,f,0.9228774000075646,0.14392509998288006,132.70259619998978,132.7026590000023,None,132.71864119998645,132.71864119998645,132.71864119998645,,,,,,,,,,,,,,,,,,,,,,,,,,,,,,,,,,,,,,,00046,001,2026-01-24_12h31.51.771,MST_task,2024.2.0,59.762968112939966,2026-01-24 12h31.58.215300 +0530,
5,practice_images/139a.jpg,4,4,1,j,1.9275417000171728,0.09558189997915179,None,,,,,,,,,1,4,4,,,,132.71864119998645,,,,,,,,,,,,,,,,,,,,,,,132.702864699997,132.71864119998645,133.2189781999914,133.2024390999577,133.20786839997163,133.2189781999914,133.2189781999914,133.2189781999914,136.20236609998392,j,1.9275417000171728,0.09558189997915179,136.20254009997007,136.20260309998412,None,136.21850709995488,136.21850709995488,136.21850709995488,,,,,,,,,,,,,,,,,,,,,,,,,,,,,,,,,,,,,,,00046,001,2026-01-24_12h31.51.771,MST_task,2024.2.0,59.762968112939966,2026-01-24 12h31.58.215300 +0530,
4,practice_images/002b.jpg,5,5,1,f,2.81102959997952,0.14357879996532574,None,,,,,,,,,1,5,5,,,,136.21850709995488,,,,,,,,,,,,,,,,,,,,,,,136.20287449995521,136.21850709995488,136.71950219996506,136.70243740000296,136.70851719996426,136.71950219996506,136.71950219996506,136.71950219996506,139.70245169999544,f,2.81102959997952,0.14357879996532574,139.70262120000552,139.70268649997888,None,139.71867309999652,139.71867309999652,139.71867309999652,,,,,,,,,,,,,,,,,,,,,,,,,,,,,,,,,,,,,,,00046,001,2026-01-24_12h31.51.771,MST_task,2024.2.0,59.762968112939966,2026-01-24 12h31.58.215300 +0530,
3,practice_images/037a.jpg,6,6,1,f,1.9908097999868914,0.11959119996754453,None,,,,,,,,,1,6,6,,,,139.71867309999652,,,,,,,,,,,,,,,,,,,,,,,139.70297189999837,139.71867309999652,140.21968899999047,140.20234429999255,140.20719599997392,140.21968899999047,140.21968899999047,140.21968899999047,143.20261599996593,f,1.9908097999868914,0.11959119996754453,143.20278809999581,143.20285349996993,None,143.21879929996794,143.21879929996794,143.21879929996794,,,,,,,,,,,,,,,,,,,,,,,,,,,,,,,,,,,,,,,00046,001,2026-01-24_12h31.51.771,MST_task,2024.2.0,59.762968112939966,2026-01-24 12h31.58.215300 +0530,
2,practice_images/031a.jpg,7,7,1,f,1.5717467000358738,0.160159399965778,None,,,,,,,,,1,7,7,,,,143.21879929996794,,,,,,,,,,,,,,,,,,,,,,,143.20319500000915,143.21879929996794,143.71875609998824,143.70230859995354,143.70767329999944,143.71875609998824,143.71875609998824,143.71875609998824,146.7026144999545,f,1.5717467000358738,0.160159399965778,146.7027852999745,146.70284849999007,None,146.7188707999885,146.7188707999885,146.7188707999885,,,,,,,,,,,,,,,,,,,,,,,,,,,,,,,,,,,,,,,00046,001,2026-01-24_12h31.51.771,MST_task,2024.2.0,59.762968112939966,2026-01-24 12h31.58.215300 +0530,
7,practice_images/166a.jpg,8,8,1,f,1.4942403000313789,0.10436009999830276,None,,,,,,,,,1,8,8,,,,146.7188707999885,,,,,,,,,,,,,,,,,,,,,,,146.70311010000296,146.7188707999885,147.21982409997145,147.20246040000347,147.20760809996864,147.21982409997145,147.21982409997145,147.21982409997145,150.2189835999743,f,1.4942403000313789,0.10436009999830276,150.21917130000656,150.2192400000058,None,,,,,,,,,,,,,,,,,,,,,,,,,,,,,,,,,,,,,,,,,,00046,001,2026-01-24_12h31.51.771,MST_task,2024.2.0,59.762968112939966,2026-01-24 12h31.58.215300 +0530,
1,practice_images/013a.jpg,9,9,1,j,1.4736638000467792,0.14424729999154806,None,,,,,,,,,1,9,9,,,,150.23545019997982,,,,,,,,,,,,,,,,,,,,,,,150.21951540000737,150.23545019997982,150.7364675999852,150.71918580000056,150.7246807999909,150.7364675999852,150.7364675999852,150.7364675999852,153.73571939999238,j,1.4736638000467792,0.14424729999154806,153.73591399996076,153.73598679999122,None,,,,,,,,,,,,,,,,,,,,,,,,,,,,,,,,,,,,,,,,,,00046,001,2026-01-24_12h31.51.771,MST_task,2024.2.0,59.762968112939966,2026-01-24 12h31.58.215300 +0530,
,,,,,,,,,,,,,,,,,,,,,,,,,,,,,,,,,,,,,,,,,,,,,,,,,,,,,,,,,,,,,,,,,,,,153.7361681999755,153.75192579999566,153.75192579999566,164.10461629997008,space,10.338298099988606,None,,,,,,,,,,,,,,,,,,,,,,,,,,,,00046,001,2026-01-24_12h31.51.771,MST_task,2024.2.0,59.762968112939966,2026-01-24 12h31.58.215300 +0530,
,Scenes\026a.jpg,0,0,1,,,,,,,j,1.000074899988249,0.10412690002704039,None,,,,,,1,0,0,164.11848149995785,,,,,,,,,,,,,,,,,,,,,,,164.10780539998086,164.11848149995785,164.6265114999842,164.60243480000645,,,,,,,,,,,,,,,,,,,,,,,,,,164.62229959998513,164.6265114999842,164.6265114999842,164.6265114999842,167.61921009997604,j,1.000074899988249,0.10412690002704039,167.6250025999616,167.62502669997048,None,,,,,,,,,,,,,,,,,00046,001,2026-01-24_12h31.51.771,MST_task,2024.2.0,59.762968112939966,2026-01-24 12h31.58.215300 +0530,
,Scenes\120a.jpg,1,0,2,,,,,,,j,1.1112323999986984,0.11951059999410063,None,,,,,,2,0,1,167.63615559996106,,,,,,,,,,,,,,,,,,,,,,,167.62513780000154,167.63615559996106,168.1392756999703,168.1191908000037,,,,,,,,,,,,,,,,,,,,,,,,,,168.13639090000652,168.1392756999703,168.1392756999703,168.1392756999703,171.13667229999555,j,1.1112323999986984,0.11951059999410063,171.13687649997883,171.13695929996902,None,,,,,,,,,,,,,,,,,00046,001,2026-01-24_12h31.51.771,MST_task,2024.2.0,59.762968112939966,2026-01-24 12h31.58.215300 +0530,
,Scenes\078a.jpg,2,0,3,,,,,,,None,,,j,0.11673760000849143,None,,,,3,0,2,171.15170919999946,,,,,,,,,,,,,,,,,,,,,,,171.137321599992,171.15170919999946,171.67250649997732,171.63634159998037,,,,,,,,,,,,,,,,,,,,,,,,,,171.6695632999763,171.67250649997732,171.67250649997732,171.67250649997732,174.65341500000795,None,,,174.65360429999419,174.80232129996875,j,174.66921229998115,174.66921229998115,0.11673760000849143,None,,,,,,,,,,,,,00046,001,2026-01-24_12h31.51.771,MST_task,2024.2.0,59.762968112939966,2026-01-24 12h31.58.215300 +0530,
,Scenes\128a.jpg,3,0,4,,,,,,,j,1.6872149999835528,0.12009480001870543,None,,,,,,4,0,3,174.8187880999758,,,,,,,,,,,,,,,,,,,,,,,174.8028344999766,174.8187880999758,175.32288180000614,175.30226500000572,,,,,,,,,,,,,,,,,,,,,,,,,,175.32008949999,175.32288180000614,175.32288180000614,175.32288180000614,178.3194397999905,j,1.6872149999835528,0.12009480001870543,178.3196392999962,178.3197083999985,None,,,,,,,,,,,,,,,,,00046,001,2026-01-24_12h31.51.771,MST_task,2024.2.0,59.762968112939966,2026-01-24 12h31.58.215300 +0530,
,Scenes\071a.jpg,4,0,5,,,,,,,j,2.308508200047072,0.136199000000488,None,,,,,,5,0,4,178.33637129998533,,,,,,,,,,,,,,,,,,,,,,,178.32007689995226,178.33637129998533,178.83799400000134,178.81923769996502,,,,,,,,,,,,,,,,,,,,,,,,,,178.83537869999418,178.83799400000134,178.83799400000134,178.83799400000134,181.8357348999707,j,2.308508200047072,0.136199000000488,181.83595589996548,181.83602759998757,None,,,,,,,,,,,,,,,,,00046,001,2026-01-24_12h31.51.771,MST_task,2024.2.0,59.762968112939966,2026-01-24 12h31.58.215300 +0530,
,Scenes\083a.jpg,5,0,6,,,,,,,j,1.5861882999888621,0.1276936000213027,None,,,,,,6,0,5,181.85166949999984,,,,,,,,,,,,,,,,,,,,,,,181.83621310000308,181.85166949999984,182.36031739995815,182.33539689995814,,,,,,,,,,,,,,,,,,,,,,,,,,182.35738189995755,182.36031739995815,182.36031739995815,182.36031739995815,185.35234300000593,j,1.5861882999888621,0.1276936000213027,185.35256769997068,185.35263380000833,None,,,,,,,,,,,,,,,,,00046,001,2026-01-24_12h31.51.771,MST_task,2024.2.0,59.762968112939966,2026-01-24 12h31.58.215300 +0530,
,Scenes\188a.jpg,6,0,7,,,,,,,j,2.1725728000164963,0.15960939996875823,None,,,,,,7,0,6,185.36867120000534,,,,,,,,,,,,,,,,,,,,,,,185.35300109995296,185.36867120000534,185.86994259996573,185.85245539998868,,,,,,,,,,,,,,,,,,,,,,,,,,185.86730809998699,185.86994259996573,185.86994259996573,185.86994259996573,188.86941609997302,j,2.1725728000164963,0.15960939996875823,188.86961259995587,188.86967759998515,None,,,,,,,,,,,,,,,,,00046,001,2026-01-24_12h31.51.771,MST_task,2024.2.0,59.762968112939966,2026-01-24 12h31.58.215300 +0530,
,Objects\088a.jpg,7,0,8,,,,,,,f,1.0806662000250071,0.14394769998034462,None,,,,,,8,0,7,188.88546949997544,,,,,,,,,,,,,,,,,,,,,,,188.86997050000355,188.88546949997544,189.3853822000092,189.36918999999762,,,,,,,,,,,,,,,,,,,,,,,,,,189.38275419996353,189.3853822000092,189.3853822000092,189.3853822000092,192.37004449998494,f,1.0806662000250071,0.14394769998034462,192.37024089996703,192.370303099975,None,,,,,192.3854726999998,192.3854726999998,192.3854726999998,,,,,,,,,,00046,001,2026-01-24_12h31.51.771,MST_task,2024.2.0,59.762968112939966,2026-01-24 12h31.58.215300 +0530,
,Objects\035a.jpg,8,0,9,,,,,,,j,0.8606169000267982,0.12793829996371642,None,,,,,,9,0,8,192.3854726999998,,,,,,,,,,,,,,,,,,,,,,,192.37067919998663,192.3854726999998,192.88545689999592,192.86889439995866,,,,,,,,,,,,,,,,,,,,,,,,,,192.87740489997668,192.88545689999592,192.88545689999592,192.88545689999592,195.86962049995782,j,0.8606169000267982,0.12793829996371642,195.8698184999521,195.86987870000303,None,,,,,195.88545519998297,195.88545519998297,195.88545519998297,,,,,,,,,,00046,001,2026-01-24_12h31.51.771,MST_task,2024.2.0,59.762968112939966,2026-01-24 12h31.58.215300 +0530,
,Objects\050a.jpg,9,0,10,,,,,,,f,0.8727550999610685,0.15953510004328564,None,,,,,,10,0,9,195.88545519998297,,,,,,,,,,,,,,,,,,,,,,,195.87017439998453,195.88545519998297,196.38570509996498,196.36923329997808,,,,,,,,,,,,,,,,,,,,,,,,,,196.37839179998264,196.38570509996498,196.38570509996498,196.38570509996498,199.37017249997007,f,0.8727550999610685,0.15953510004328564,199.37037969997618,199.37044179998338,None,,,,,199.385340799985,199.385340799985,199.385340799985,,,,,,,,,,00046,001,2026-01-24_12h31.51.771,MST_task,2024.2.0,59.762968112939966,2026-01-24 12h31.58.215300 +0530,
,Objects\020a.jpg,10,0,11,,,,,,,None,,,f,4.381102599960286,None,,,,11,0,10,199.385340799985,,,,,,,,,,,,,,,,,,,,,,,199.37074929999653,199.385340799985,199.88567459996557,199.86920019995887,,,,,,,,,,,,,,,,,,,,,,,,,,199.87442209996516,199.88567459996557,199.88567459996557,199.88567459996557,202.86996559996624,None,,,202.8701529999962,207.26911970000947,f,202.8853691999684,202.8853691999684,4.381102599960286,None,202.8853691999684,202.8853691999684,202.8853691999684,,,,,,,,,,00046,001,2026-01-24_12h31.51.771,MST_task,2024.2.0,59.762968112939966,2026-01-24 12h31.58.215300 +0530,
,Objects\031a.jpg,11,0,12,,,,,,,f,1.1924313000054099,0.13669160002609715,None,,,,,,12,0,11,207.2851287999656,,,,,,,,,,,,,,,,,,,,,,,207.26955649995944,207.2851287999656,,207.76959809998516,,,,,,,,,,,,,,,,,,,,,,,,,,207.77796019997913,207.7855290999869,207.7855290999869,207.7855290999869,210.77006979996804,f,1.1924313000054099,0.13669160002609715,210.7702618999756,210.7703263000003,None,,,,,210.78545679996023,210.78545679996023,210.78545679996023,,,,,,,,,,00046,001,2026-01-24_12h31.51.771,MST_task,2024.2.0,59.762968112939966,2026-01-24 12h31.58.215300 +0530,
,Objects\005a.jpg,12,0,13,,,,,,,f,1.4110190999927,0.12053060001926497,None,,,,,,13,0,12,210.78545679996023,,,,,,,,,,,,,,,,,,,,,,,210.7707042999682,210.78545679996023,211.2948229999747,211.26887179998448,,,,,,,,,,,,,,,,,,,,,,,,,,211.29169829998864,211.2948229999747,211.2948229999747,211.2948229999747,214.28571849997388,f,1.4110190999927,0.12053060001926497,214.28592629998457,214.2859976000036,None,,,,,,,,,,,,,,,,,00046,001,2026-01-24_12h31.51.771,MST_task,2024.2.0,59.762968112939966,2026-01-24 12h31.58.215300 +0530,
,Objects\126a.jpg,13,0,14,,,,,,,f,2.344115099986084,0.12018210004316643,None,,,,,,14,0,13,214.3020872999914,,,,,,,,,,,,,,,,,,,,,,,214.28639510000357,214.3020872999914,214.80231609998737,214.7858503999887,,,,,,,,,,,,,,,,,,,,,,,,,,214.7926618999918,214.80231609998737,214.80231609998737,214.80231609998737,217.78670439997222,f,2.344115099986084,0.12018210004316643,217.78690459998325,217.78696669999044,None,,,,,217.801753000007,217.801753000007,217.801753000007,,,,,,,,,,00046,001,2026-01-24_12h31.51.771,MST_task,2024.2.0,59.762968112939966,2026-01-24 12h31.58.215300 +0530,
,Scenes\028a.jpg,14,0,15,,,,,,,j,2.538207000005059,0.12067309999838471,None,,,,,,15,0,14,217.801753000007,,,,,,,,,,,,,,,,,,,,,,,217.78741609997815,217.801753000007,218.30360489996383,218.28556299995398,,,,,,,,,,,,,,,,,,,,,,,,,,218.30101759999525,218.30360489996383,218.30360489996383,218.30360489996383,221.30227559997002,j,2.538207000005059,0.12067309999838471,221.30248219997156,221.30254699999932,None,,,,,,,,,,,,,,,,,00046,001,2026-01-24_12h31.51.771,MST_task,2024.2.0,59.762968112939966,2026-01-24 12h31.58.215300 +0530,
,Scenes\152a.jpg,15,0,16,,,,,,,j,0.6947363999788649,0.12063150003086776,None,,,,,,16,0,15,221.31871439999668,,,,,,,,,,,,,,,,,,,,,,,221.30275669996627,221.31871439999668,221.81929949996993,221.80214559996966,,,,,,,,,,,,,,,,,,,,,,,,,,221.8151278999867,221.81929949996993,221.81929949996993,221.81929949996993,224.8033182999934,j,0.6947363999788649,0.12063150003086776,224.8035216999706,224.8035824999679,None,,,,,224.81883369997377,224.81883369997377,224.81883369997377,,,,,,,,,,00046,001,2026-01-24_12h31.51.771,MST_task,2024.2.0,59.762968112939966,2026-01-24 12h31.58.215300 +0530,
,Scenes\130a.jpg,16,0,17,,,,,,,j,0.6885537999914959,0.14346829999703914,None,,,,,,17,0,16,224.81883369997377,,,,,,,,,,,,,,,,,,,,,,,224.8039635999594,224.81883369997377,225.33791189995827,225.3025120999664,,,,,,,,,,,,,,,,,,,,,,,,,,225.33503779995954,225.33791189995827,225.33791189995827,225.33791189995827,228.3200014999602,j,0.6885537999914959,0.14346829999703914,228.3202001999598,228.32026939996285,None,,,,,,,,,,,,,,,,,00046,001,2026-01-24_12h31.51.771,MST_task,2024.2.0,59.762968112939966,2026-01-24 12h31.58.215300 +0530,
,Scenes\133a.jpg,17,0,18,,,,,,,j,0.5682743000215851,0.1194705999805592,None,,,,,,18,0,17,228.3353550999891,,,,,,,,,,,,,,,,,,,,,,,228.32056119997287,228.3353550999891,228.8421934999642,228.81921509996755,,,,,,,,,,,,,,,,,,,,,,,,,,228.83745279995492,228.8421934999642,228.8421934999642,228.8421934999642,231.83555139997043,j,0.5682743000215851,0.1194705999805592,231.83574819995556,231.83581610000692,None,,,,,,,,,,,,,,,,,00046,001,2026-01-24_12h31.51.771,MST_task,2024.2.0,59.762968112939966,2026-01-24 12h31.58.215300 +0530,
,Scenes\081a.jpg,18,0,19,,,,,,,j,0.7345475000329316,0.11960460001137108,None,,,,,,19,0,18,231.85184169997228,,,,,,,,,,,,,,,,,,,,,,,231.8361863999744,231.85184169997228,232.35596539999824,232.33572829997865,,,,,,,,,,,,,,,,,,,,,,,,,,232.3533044999931,232.35596539999824,232.35596539999824,232.35596539999824,235.33609910000814,j,0.7345475000329316,0.11960460001137108,235.33630959998118,235.336378899985,None,,,,,,,,,,,,,,,,,00046,001,2026-01-24_12h31.51.771,MST_task,2024.2.0,59.762968112939966,2026-01-24 12h31.58.215300 +0530,
,Scenes\096a.jpg,19,0,20,,,,,,,j,0.8641562000266276,0.10391090001212433,None,,,,,,20,0,19,235.35186579998117,,,,,,,,,,,,,,,,,,,,,,,235.33675539999967,235.35186579998117,235.86587869998766,235.83588400000008,,,,,,,,,,,,,,,,,,,,,,,,,,235.86247079999885,235.86587869998766,235.86587869998766,235.86587869998766,238.85248309996678,j,0.8641562000266276,0.10391090001212433,238.85270099999616,238.85277369996766,None,,,,,,,,,,,,,,,,,00046,001,2026-01-24_12h31.51.771,MST_task,2024.2.0,59.762968112939966,2026-01-24 12h31.58.215300 +0530,
,Scenes\097a.jpg,20,0,21,,,,,,,f,1.288741399999708,0.1364414999843575,None,,,,,,21,0,20,238.86898579995614,,,,,,,,,,,,,,,,,,,,,,,238.8531732999836,238.86898579995614,239.36906419997104,239.35222659999272,,,,,,,,,,,,,,,,,,,,,,,,,,239.36099749995628,239.36906419997104,239.36906419997104,239.36906419997104,242.35347129998263,f,1.288741399999708,0.1364414999843575,242.353667999967,242.35372719995212,None,,,,,242.36863320000703,242.36863320000703,242.36863320000703,,,,,,,,,,00046,001,2026-01-24_12h31.51.771,MST_task,2024.2.0,59.762968112939966,2026-01-24 12h31.58.215300 +0530,
,Objects\129a.jpg,21,0,22,,,,,,,f,0.732526500010863,0.14460509998025373,None,,,,,,22,0,21,242.36863320000703,,,,,,,,,,,,,,,,,,,,,,,242.3541041999706,242.36863320000703,242.86943600000814,242.8524952000007,,,,,,,,,,,,,,,,,,,,,,,,,,242.86415199999465,242.86943600000814,242.86943600000814,242.86943600000814,245.85322359995916,f,0.732526500010863,0.14460509998025373,245.85341749998042,245.8534780999762,None,,,,,245.8688554999535,245.8688554999535,245.8688554999535,,,,,,,,,,00046,001,2026-01-24_12h31.51.771,MST_task,2024.2.0,59.762968112939966,2026-01-24 12h31.58.215300 +0530,
,Objects\136a.jpg,22,0,23,,,,,,,f,1.1212965000304393,0.12806959997396916,None,,,,,,23,0,22,245.8688554999535,,,,,,,,,,,,,,,,,,,,,,,245.85386609996203,245.8688554999535,246.3687038999633,246.35184909997042,,,,,,,,,,,,,,,,,,,,,,,,,,246.35996229999,246.3687038999633,246.3687038999633,246.3687038999633,249.35316100000637,f,1.1212965000304393,0.12806959997396916,249.35335359995952,249.3534132000059,None,,,,,249.3689868999645,249.3689868999645,249.3689868999645,,,,,,,,,,00046,001,2026-01-24_12h31.51.771,MST_task,2024.2.0,59.762968112939966,2026-01-24 12h31.58.215300 +0530,
,Objects\110a.jpg,23,0,24,,,,,,,f,1.0299618999706581,0.12011289998190477,None,,,,,,24,0,23,249.3689868999645,,,,,,,,,,,,,,,,,,,,,,,249.35378329997184,249.3689868999645,249.87586919998284,249.85243869997794,,,,,,,,,,,,,,,,,,,,,,,,,,249.87347849999787,249.87586919998284,249.87586919998284,249.87586919998284,252.86917279998306,f,1.0299618999706581,0.12011289998190477,252.86936839995906,252.86943389999215,None,,,,,,,,,,,,,,,,,00046,001,2026-01-24_12h31.51.771,MST_task,2024.2.0,59.762968112939966,2026-01-24 12h31.58.215300 +0530,
,Objects\183a.jpg,24,0,25,,,,,,,f,1.239781700016465,0.13639539998257533,None,,,,,,25,0,24,252.88516700000037,,,,,,,,,,,,,,,,,,,,,,,252.8697261000052,252.88516700000037,253.39382759999717,253.3692122999928,,,,,,,,,,,,,,,,,,,,,,,,,,253.39099169999827,253.39382759999717,253.39382759999717,253.39382759999717,256.38586789998226,f,1.239781700016465,0.13639539998257533,256.3860711999587,256.3861360999872,None,,,,,,,,,,,,,,,,,00046,001,2026-01-24_12h31.51.771,MST_task,2024.2.0,59.762968112939966,2026-01-24 12h31.58.215300 +0530,
,Objects\172a.jpg,25,0,26,,,,,,,j,1.5413893000222743,0.12008949997834861,None,,,,,,26,0,25,256.40208129998064,,,,,,,,,,,,,,,,,,,,,,,256.38650699995924,256.40208129998064,256.9084633999737,256.8858768999926,,,,,,,,,,,,,,,,,,,,,,,,,,256.90549929998815,256.9084633999737,256.9084633999737,256.9084633999737,259.9022404999705,j,1.5413893000222743,0.12008949997834861,259.90244430000894,259.9025108999922,None,,,,,,,,,,,,,,,,,00046,001,2026-01-24_12h31.51.771,MST_task,2024.2.0,59.762968112939966,2026-01-24 12h31.58.215300 +0530,
,Objects\164a.jpg,26,0,27,,,,,,,f,1.9433571000117809,0.1437028999789618,None,,,,,,27,0,26,259.9185521999607,,,,,,,,,,,,,,,,,,,,,,,259.90288019995205,259.9185521999607,260.41903459996684,260.40246109996224,,,,,,,,,,,,,,,,,,,,,,,,,,260.40892919996986,260.41903459996684,260.41903459996684,260.41903459996684,263.4034083999577,f,1.9433571000117809,0.1437028999789618,263.403602699982,263.4036621999694,None,,,,,263.41883479995886,263.41883479995886,263.41883479995886,,,,,,,,,,00046,001,2026-01-24_12h31.51.771,MST_task,2024.2.0,59.762968112939966,2026-01-24 12h31.58.215300 +0530,
,Objects\184a.jpg,27,0,28,,,,,,,f,1.8666613000095822,0.12883190001593903,None,,,,,,28,0,27,263.41883479995886,,,,,,,,,,,,,,,,,,,,,,,263.4040332000004,263.41883479995886,263.91906949999975,263.90245409996714,,,,,,,,,,,,,,,,,,,,,,,,,,263.9110446999548,263.91906949999975,263.91906949999975,263.91906949999975,266.9027159999823,f,1.8666613000095822,0.12883190001593903,266.9027992999763,266.90282299998216,None,,,,,266.91848759999266,266.91848759999266,266.91848759999266,,,,,,,,,,00046,001,2026-01-24_12h31.51.771,MST_task,2024.2.0,59.762968112939966,2026-01-24 12h31.58.215300 +0530,
,Scenes\024a.jpg,28,0,29,,,,,,,j,0.6298433999763802,0.15952970000216737,None,,,,,,29,0,28,266.91848759999266,,,,,,,,,,,,,,,,,,,,,,,266.90297049999936,266.91848759999266,267.4205463999533,267.4020208999864,,,,,,,,,,,,,,,,,,,,,,,,,,267.4176964999642,267.4205463999533,267.4205463999533,267.4205463999533,270.41923689999385,j,0.6298433999763802,0.15952970000216737,270.41944909997983,270.419519099989,None,,,,,,,,,,,,,,,,,00046,001,2026-01-24_12h31.51.771,MST_task,2024.2.0,59.762968112939966,2026-01-24 12h31.58.215300 +0530,
,Scenes\082a.jpg,29,0,30,,,,,,,f,2.469099699985236,0.11150669999187812,None,,,,,,30,0,29,270.43535059998976,,,,,,,,,,,,,,,,,,,,,,,270.41991599998437,270.43535059998976,270.9413345999783,270.91921459999867,,,,,,,,,,,,,,,,,,,,,,,,,,270.93823460000567,270.9413345999783,270.9413345999783,270.9413345999783,273.93585509998957,f,2.469099699985236,0.11150669999187812,273.93605229997775,273.9361168000032,None,,,,,,,,,,,,,,,,,00046,001,2026-01-24_12h31.51.771,MST_task,2024.2.0,59.762968112939966,2026-01-24 12h31.58.215300 +0530,
,Scenes\063a.jpg,30,0,31,,,,,,,f,1.0473265000036918,0.160488500026986,None,,,,,,31,0,30,273.95192799996585,,,,,,,,,,,,,,,,,,,,,,,273.93648329999996,273.95192799996585,274.4746374999522,274.43595159996767,,,,,,,,,,,,,,,,,,,,,,,,,,274.47081139998045,274.4746374999522,274.4746374999522,274.4746374999522,277.45243979996303,f,1.0473265000036918,0.160488500026986,277.45264589996077,277.45271219999995,None,,,,,,,,,,,,,,,,,00046,001,2026-01-24_12h31.51.771,MST_task,2024.2.0,59.762968112939966,2026-01-24 12h31.58.215300 +0530,
,Scenes\084a.jpg,31,0,32,,,,,,,j,1.7237688999739476,0.1361746999900788,None,,,,,,32,0,31,277.46880779997446,,,,,,,,,,,,,,,,,,,,,,,277.45311139995465,277.46880779997446,,277.9535112999729,,,,,,,,,,,,,,,,,,,,,,,,,,277.971053199959,277.97387909999816,277.97387909999816,277.97387909999816,280.96907329995884,j,1.7237688999739476,0.1361746999900788,280.9692853000015,280.9693542000023,None,,,,,,,,,,,,,,,,,00046,001,2026-01-24_12h31.51.771,MST_task,2024.2.0,59.762968112939966,2026-01-24 12h31.58.215300 +0530,
,Scenes\127a.jpg,32,0,33,,,,,,,None,,,j,1.4443513000151142,None,,,,33,0,32,280.98526849999325,,,,,,,,,,,,,,,,,,,,,,,280.96973089996027,280.98526849999325,281.4894895000034,281.4687757999636,,,,,,,,,,,,,,,,,,,,,,,,,,281.4865704999538,281.4894895000034,281.4894895000034,281.4894895000034,284.4858592999517,None,,,284.48604619997786,285.952510299976,j,284.50201920000836,284.50201920000836,1.4443513000151142,None,,,,,,,,,,,,,00046,001,2026-01-24_12h31.51.771,MST_task,2024.2.0,59.762968112939966,2026-01-24 12h31.58.215300 +0530,
,Scenes\009a.jpg,33,0,34,,,,,,,f,2.633767599996645,0.12833839998347685,None,,,,,,34,0,33,285.9686759999604,,,,,,,,,,,,,,,,,,,,,,,285.9529660999542,285.9686759999604,286.472053400008,286.4521518999827,,,,,,,,,,,,,,,,,,,,,,,,,,286.4693258999614,286.472053400008,286.472053400008,286.472053400008,289.45290259999456,f,2.633767599996645,0.12833839998347685,289.4531018999987,289.45316879998427,None,,,,,,,,,,,,,,,,,00046,001,2026-01-24_12h31.51.771,MST_task,2024.2.0,59.762968112939966,2026-01-24 12h31.58.215300 +0530,
,Scenes\023a.jpg,34,0,35,,,,,,,f,1.3451544000417925,0.18424719996983185,None,,,,,,35,0,34,289.46882179996464,,,,,,,,,,,,,,,,,,,,,,,289.4534591999836,289.46882179996464,289.9852210999816,289.95246229995973,,,,,,,,,,,,,,,,,,,,,,,,,,289.98219149996294,289.9852210999816,289.9852210999816,289.9852210999816,292.969208399998,f,1.3451544000417925,0.18424719996983185,292.96941069996683,292.969477000006,None,,,,,,,,,,,,,,,,,00046,001,2026-01-24_12h31.51.771,MST_task,2024.2.0,59.762968112939966,2026-01-24 12h31.58.215300 +0530,
,Objects\108a.jpg,35,0,36,,,,,,,j,2.6675924999872223,0.09691079996991903,None,,,,,,36,0,35,292.9854654999799,,,,,,,,,,,,,,,,,,,,,,,292.96984559996054,292.9854654999799,293.4860851999838,293.46922879997874,,,,,,,,,,,,,,,,,,,,,,,,,,293.4788521999726,293.4860851999838,293.4860851999838,293.4860851999838,296.4697229999583,j,2.6675924999872223,0.09691079996991903,296.46991829999024,296.4699801999959,None,,,,,296.48546179995174,296.48546179995174,296.48546179995174,,,,,,,,,,00046,001,2026-01-24_12h31.51.771,MST_task,2024.2.0,59.762968112939966,2026-01-24 12h31.58.215300 +0530,
,Objects\154a.jpg,36,0,37,,,,,,,f,0.7217791999573819,0.14432240003952757,None,,,,,,37,0,36,296.48546179995174,,,,,,,,,,,,,,,,,,,,,,,296.4703566999524,296.48546179995174,296.9925196999684,296.96919799997704,,,,,,,,,,,,,,,,,,,,,,,,,,296.9900413999567,296.9925196999684,296.9925196999684,296.9925196999684,299.9857117999927,f,0.7217791999573819,0.14432240003952757,299.98591220000526,299.98597819998395,None,,,,,,,,,,,,,,,,,00046,001,2026-01-24_12h31.51.771,MST_task,2024.2.0,59.762968112939966,2026-01-24 12h31.58.215300 +0530,
,Objects\009a.jpg,37,0,38,,,,,,,f,1.5357263999758288,0.1441742000170052,None,,,,,,38,0,37,300.00222259998554,,,,,,,,,,,,,,,,,,,,,,,299.986344999983,300.00222259998554,300.51461759995436,300.48586309998063,,,,,,,,,,,,,,,,,,,,,,,,,,300.51142959995195,300.51461759995436,300.51461759995436,300.51461759995436,303.5024409999605,f,1.5357263999758288,0.1441742000170052,303.5026570999762,303.5027250999701,None,,,,,,,,,,,,,,,,,00046,001,2026-01-24_12h31.51.771,MST_task,2024.2.0,59.762968112939966,2026-01-24 12h31.58.215300 +0530,
,Objects\055a.jpg,38,0,39,,,,,,,None,,,f,0.5579925000201911,None,,,,39,0,38,303.518815599964,,,,,,,,,,,,,,,,,,,,,,,303.50303399999393,303.518815599964,304.0241680999752,304.0021890999633,,,,,,,,,,,,,,,,,,,,,,,,,,304.0215463999775,304.0241680999752,304.0241680999752,304.0241680999752,307.01923380000517,None,,,307.0194334999542,307.60273959999904,f,307.0359587999992,307.0359587999992,0.5579925000201911,None,,,,,,,,,,,,,00046,001,2026-01-24_12h31.51.771,MST_task,2024.2.0,59.762968112939966,2026-01-24 12h31.58.215300 +0530,
,Objects\086a.jpg,39,0,40,,,,,,,f,2.740568900015205,0.13614249997772276,None,,,,,,40,0,39,307.61850949999643,,,,,,,,,,,,,,,,,,,,,,,307.603084900009,307.61850949999643,308.1251704999595,308.10248879995197,,,,,,,,,,,,,,,,,,,,,,,,,,308.12217589997454,308.1251704999595,308.1251704999595,308.1251704999595,311.1191053999937,f,2.740568900015205,0.13614249997772276,311.1193063999526,311.1193711999804,None,,,,,,,,,,,,,,,,,00046,001,2026-01-24_12h31.51.771,MST_task,2024.2.0,59.762968112939966,2026-01-24 12h31.58.215300 +0530,
,Objects\103a.jpg,40,0,41,,,,,,,None,,,f,0.41424469999037683,None,,,,41,0,40,311.13529299997026,,,,,,,,,,,,,,,,,,,,,,,311.11974439996993,311.13529299997026,311.63573409995297,311.619234599988,,,,,,,,,,,,,,,,,,,,,,,,,,311.62787149997894,311.63573409995297,311.63573409995297,311.63573409995297,314.6197261000052,None,,,314.6198984999792,315.05244110000785,f,314.6354618999758,314.6354618999758,0.41424469999037683,None,314.6354618999758,314.6354618999758,314.6354618999758,,,,,,,,,,00046,001,2026-01-24_12h31.51.771,MST_task,2024.2.0,59.762968112939966,2026-01-24 12h31.58.215300 +0530,
,Objects\111a.jpg,41,0,42,,,,,,,f,0.8254703999846242,0.12001620000228286,None,,,,,,42,0,41,315.0685475000064,,,,,,,,,,,,,,,,,,,,,,,315.052893999964,315.0685475000064,,315.5532717999886,,,,,,,,,,,,,,,,,,,,,,,,,,315.559984099993,315.5688723999774,315.5688723999774,315.5688723999774,318.5531467999681,f,0.8254703999846242,0.12001620000228286,318.55334949999815,318.55341699998826,None,,,,,,,,,,,,,,,,,00046,001,2026-01-24_12h31.51.771,MST_task,2024.2.0,59.762968112939966,2026-01-24 12h31.58.215300 +0530,
,Scenes\170a.jpg,42,0,43,,,,,,,j,2.041052399959881,0.1518999999971129,None,,,,,,43,0,42,318.56938870000886,,,,,,,,,,,,,,,,,,,,,,,318.5537824999774,318.56938870000886,319.0733589999727,319.0524756999803,,,,,,,,,,,,,,,,,,,,,,,,,,319.0704262999934,319.0733589999727,319.0733589999727,319.0733589999727,322.06903299997794,j,2.041052399959881,0.1518999999971129,322.06922309997026,322.06928389996756,None,,,,,,,,,,,,,,,,,00046,001,2026-01-24_12h31.51.771,MST_task,2024.2.0,59.762968112939966,2026-01-24 12h31.58.215300 +0530,
,Scenes\179a.jpg,43,0,44,,,,,,,j,1.269306999980472,0.12018889997852966,None,,,,,,44,0,43,322.0854611999821,,,,,,,,,,,,,,,,,,,,,,,322.06956099998206,322.0854611999821,,322.5697197999689,,,,,,,,,,,,,,,,,,,,,,,,,,322.5863260999904,322.5890361999627,322.5890361999627,322.5890361999627,325.5855985999806,j,1.269306999980472,0.12018889997852966,325.5858171999571,325.58588430000236,None,,,,,,,,,,,,,,,,,00046,001,2026-01-24_12h31.51.771,MST_task,2024.2.0,59.762968112939966,2026-01-24 12h31.58.215300 +0530,
,Scenes\008a.jpg,44,0,45,,,,,,,None,,,f,2.3948317000176758,None,,,,45,0,44,325.6020638999762,,,,,,,,,,,,,,,,,,,,,,,325.5861868999782,325.6020638999762,326.11438819998875,326.0858200999792,,,,,,,,,,,,,,,,,,,,,,,,,,326.11163969995687,326.11438819998875,326.11438819998875,326.11438819998875,329.1021591000026,None,,,329.1023406999884,331.519334099954,f,329.1189305000007,329.1189305000007,2.3948317000176758,None,,,,,,,,,,,,,00046,001,2026-01-24_12h31.51.771,MST_task,2024.2.0,59.762968112939966,2026-01-24 12h31.58.215300 +0530,
,Scenes\143a.jpg,45,0,46,,,,,,,j,0.8993040999630466,0.13588100002380088,None,,,,,,46,0,45,331.5353571999585,,,,,,,,,,,,,,,,,,,,,,,331.51967369997874,331.5353571999585,332.03852339996956,332.0189249999821,,,,,,,,,,,,,,,,,,,,,,,,,,332.035785999964,332.03852339996956,332.03852339996956,332.03852339996956,335.0355593999848,j,0.8993040999630466,0.13588100002380088,335.03575330000604,335.03581819997635,None,,,,,,,,,,,,,,,,,00046,001,2026-01-24_12h31.51.771,MST_task,2024.2.0,59.762968112939966,2026-01-24 12h31.58.215300 +0530,
,Scenes\012a.jpg,46,0,47,,,,,,,None,,,f,0.7765838999766856,None,,,,47,0,46,335.0516311999527,,,,,,,,,,,,,,,,,,,,,,,335.0361949999933,335.0516311999527,335.55679879995296,335.535752900003,,,,,,,,,,,,,,,,,,,,,,,,,,335.5540539000067,335.55679879995296,335.55679879995296,335.55679879995296,338.55242979998,None,,,338.5526237000013,339.3526169999968,f,338.56953669997165,338.56953669997165,0.7765838999766856,None,,,,,,,,,,,,,00046,001,2026-01-24_12h31.51.771,MST_task,2024.2.0,59.762968112939966,2026-01-24 12h31.58.215300 +0530,
,Scenes\114a.jpg,47,0,48,,,,,,,f,1.5119641000055708,0.12865839997539297,None,,,,,,48,0,47,339.3686052999692,,,,,,,,,,,,,,,,,,,,,,,339.3530835999991,339.3686052999692,339.87410570000065,339.8525013999897,,,,,,,,,,,,,,,,,,,,,,,,,,339.87104140000883,339.87410570000065,339.87410570000065,339.87410570000065,342.86922819999745,f,1.5119641000055708,0.12865839997539297,342.8694290999556,342.86949369998183,None,,,,,,,,,,,,,,,,,00046,001,2026-01-24_12h31.51.771,MST_task,2024.2.0,59.762968112939966,2026-01-24 12h31.58.215300 +0530,
,Scenes\069a.jpg,48,0,49,,,,,,,None,,,j,1.2806245000101626,None,,,,49,0,48,342.88531089999015,,,,,,,,,,,,,,,,,,,,,,,342.86986340000294,342.88531089999015,343.386151099985,343.368857799971,,,,,,,,,,,,,,,,,,,,,,,,,,343.38098789996,343.386151099985,343.386151099985,343.386151099985,346.3697405999992,None,,,346.3699214999797,347.66903559997445,j,346.3851578999893,346.3851578999893,1.2806245000101626,None,346.3851578999893,346.3851578999893,346.3851578999893,,,,,,,,,,00046,001,2026-01-24_12h31.51.771,MST_task,2024.2.0,59.762968112939966,2026-01-24 12h31.58.215300 +0530,
,Objects\158a.jpg,49,0,50,,,,,,,f,2.6157012000330724,0.0968019999563694,None,,,,,,50,0,49,347.6854740999988,,,,,,,,,,,,,,,,,,,,,,,347.66949589998694,347.6854740999988,348.18600879999576,348.16922159999376,,,,,,,,,,,,,,,,,,,,,,,,,,348.17900189996,348.18600879999576,348.18600879999576,348.18600879999576,351.17030729999533,f,2.6157012000330724,0.0968019999563694,351.17052639997564,351.1705924999551,None,,,,,,,,,,,,,,,,,00046,001,2026-01-24_12h31.51.771,MST_task,2024.2.0,59.762968112939966,2026-01-24 12h31.58.215300 +0530,
,Objects\036a.jpg,50,0,51,,,,,,,f,0.6841928000212647,0.13609350001206622,None,,,,,,51,0,50,351.18548649997683,,,,,,,,,,,,,,,,,,,,,,,351.17095820000395,351.18548649997683,351.685579699988,351.66920559998835,,,,,,,,,,,,,,,,,,,,,,,,,,351.67621529998723,351.685579699988,351.685579699988,351.685579699988,354.67000559996814,f,0.6841928000212647,0.13609350001206622,354.67017689999193,354.67022939998424,None,,,,,354.68548459996236,354.68548459996236,354.68548459996236,,,,,,,,,,00046,001,2026-01-24_12h31.51.771,MST_task,2024.2.0,59.762968112939966,2026-01-24 12h31.58.215300 +0530,
,Objects\033a.jpg,51,0,52,,,,,,,f,1.3288171999738552,0.12775860005058348,None,,,,,,52,0,51,354.68548459996236,,,,,,,,,,,,,,,,,,,,,,,354.67048109997995,354.68548459996236,355.1855355000007,355.16905779996887,,,,,,,,,,,,,,,,,,,,,,,,,,355.17729389999295,355.1855355000007,355.1855355000007,355.1855355000007,358.16974429995753,f,1.3288171999738552,0.12775860005058348,358.1699205999612,358.16997250000713,None,,,,,358.1866230999585,358.1866230999585,358.1866230999585,,,,,,,,,,00046,001,2026-01-24_12h31.51.771,MST_task,2024.2.0,59.762968112939966,2026-01-24 12h31.58.215300 +0530,
,Objects\061a.jpg,52,0,53,,,,,,,j,1.3719610000262037,0.10381009994307533,None,,,,,,53,0,52,358.1866230999585,,,,,,,,,,,,,,,,,,,,,,,358.1702224999899,358.1866230999585,,358.6857807000051,,,,,,,,,,,,,,,,,,,,,,,,,,358.69477729999926,358.7023115999764,358.7023115999764,358.7023115999764,361.6858657999546,j,1.3719610000262037,0.10381009994307533,361.6860711000045,361.68613609997556,None,,,,,,,,,,,,,,,,,00046,001,2026-01-24_12h31.51.771,MST_task,2024.2.0,59.762968112939966,2026-01-24 12h31.58.215300 +0530,
,Objects\134a.jpg,53,0,54,,,,,,,f,1.335548100003507,0.16019399999640882,None,,,,,,54,0,53,361.7020594999776,,,,,,,,,,,,,,,,,,,,,,,361.68649519997416,361.7020594999776,362.2023731999798,362.18563809996704,,,,,,,,,,,,,,,,,,,,,,,,,,362.1931202999549,362.2023731999798,362.2023731999798,362.2023731999798,365.18662489997223,f,1.335548100003507,0.16019399999640882,365.1868186999927,365.18687819998013,None,,,,,365.20178309996845,365.20178309996845,365.20178309996845,,,,,,,,,,00046,001,2026-01-24_12h31.51.771,MST_task,2024.2.0,59.762968112939966,2026-01-24 12h31.58.215300 +0530,
,Objects\115a.jpg,54,0,55,,,,,,,f,0.938514799985569,0.15156470000511035,None,,,,,,55,0,54,365.20178309996845,,,,,,,,,,,,,,,,,,,,,,,365.1872512999689,365.20178309996845,365.7117899999721,365.6858984999708,,,,,,,,,,,,,,,,,,,,,,,,,,365.70782149996376,365.7117899999721,365.7117899999721,365.7117899999721,368.7024548999616,f,0.938514799985569,0.15156470000511035,368.70265349996043,368.70271949999733,None,,,,,,,,,,,,,,,,,00046,001,2026-01-24_12h31.51.771,MST_task,2024.2.0,59.762968112939966,2026-01-24 12h31.58.215300 +0530,
,Objects\092a.jpg,55,0,56,,,,,,,f,1.1469541999977082,0.1518812000285834,None,,,,,,56,0,55,368.71888880000915,,,,,,,,,,,,,,,,,,,,,,,368.7030907999724,368.71888880000915,369.23115919996053,369.2024850999587,,,,,,,,,,,,,,,,,,,,,,,,,,369.2285189999966,369.23115919996053,369.23115919996053,369.23115919996053,372.2030832999735,f,1.1469541999977082,0.1518812000285834,372.20327929995256,372.20334579999326,None,,,,,,,,,,,,,,,,,00046,001,2026-01-24_12h31.51.771,MST_task,2024.2.0,59.762968112939966,2026-01-24 12h31.58.215300 +0530,
,Scenes\172a.jpg,56,0,57,,,,,,,j,1.0310375999542885,0.12017030001152307,None,,,,,,57,0,56,372.2188321999856,,,,,,,,,,,,,,,,,,,,,,,372.2037155999569,372.2188321999856,372.73129450000124,372.7025508999941,,,,,,,,,,,,,,,,,,,,,,,,,,372.7287551999907,372.73129450000124,372.73129450000124,372.73129450000124,375.71895740000764,j,1.0310375999542885,0.12017030001152307,375.7191652999609,375.7192339999601,None,,,,,,,,,,,,,,,,,00046,001,2026-01-24_12h31.51.771,MST_task,2024.2.0,59.762968112939966,2026-01-24 12h31.58.215300 +0530,
,Scenes\134a.jpg,57,0,58,,,,,,,j,1.4591785999946296,0.08885589998681098,None,,,,,,58,0,57,375.73527499998454,,,,,,,,,,,,,,,,,,,,,,,375.71953459997894,375.73527499998454,,376.219518399972,,,,,,,,,,,,,,,,,,,,,,,,,,376.24356069997884,376.24652829999104,376.24652829999104,376.24652829999104,379.2360551999882,j,1.4591785999946296,0.08885589998681098,379.2362557000015,379.2363220999832,None,,,,,,,,,,,,,,,,,00046,001,2026-01-24_12h31.51.771,MST_task,2024.2.0,59.762968112939966,2026-01-24 12h31.58.215300 +0530,
,Scenes\163a.jpg,58,0,59,,,,,,,j,0.9181664999923669,0.10390129999723285,None,,,,,,59,0,58,379.252067799971,,,,,,,,,,,,,,,,,,,,,,,379.2366916000028,379.252067799971,379.76415189995896,379.7358776999754,,,,,,,,,,,,,,,,,,,,,,,,,,379.76136949996,379.76415189995896,379.76415189995896,379.76415189995896,382.75227799999993,j,0.9181664999923669,0.10390129999723285,382.7524868999608,382.7525520999916,None,,,,,,,,,,,,,,,,,00046,001,2026-01-24_12h31.51.771,MST_task,2024.2.0,59.762968112939966,2026-01-24 12h31.58.215300 +0530,
,Scenes\126a.jpg,59,0,60,,,,,,,j,0.6763387999963015,0.11965900001814589,None,,,,,,60,0,59,382.7686633999692,,,,,,,,,,,,,,,,,,,,,,,382.7529269999941,382.7686633999692,383.269844800001,383.2524731999729,,,,,,,,,,,,,,,,,,,,,,,,,,383.2675653999904,383.269844800001,383.269844800001,383.269844800001,386.25342799996724,j,0.6763387999963015,0.11965900001814589,386.2536233999999,386.2536856000079,None,,,,,386.26856789999874,386.26856789999874,386.26856789999874,,,,,,,,,,00046,001,2026-01-24_12h31.51.771,MST_task,2024.2.0,59.762968112939966,2026-01-24 12h31.58.215300 +0530,
,Scenes\079a.jpg,60,0,61,,,,,,,j,0.7610562000190839,0.08785810001427308,None,,,,,,61,0,60,386.26856789999874,,,,,,,,,,,,,,,,,,,,,,,386.25406109995674,386.26856789999874,386.7695969999768,386.7520493000047,,,,,,,,,,,,,,,,,,,,,,,,,,386.7600382999517,386.7695969999768,386.7695969999768,386.7695969999768,389.7533335000044,j,0.7610562000190839,0.08785810001427308,389.7535268999636,389.75358789996244,None,,,,,389.76864759996533,389.76864759996533,389.76864759996533,,,,,,,,,,00046,001,2026-01-24_12h31.51.771,MST_task,2024.2.0,59.762968112939966,2026-01-24 12h31.58.215300 +0530,
,Scenes\044a.jpg,61,0,62,,,,,,,j,2.58750099997269,0.0960845000226982,None,,,,,,62,0,61,389.76864759996533,,,,,,,,,,,,,,,,,,,,,,,389.75396359997103,389.76864759996533,390.2706532999873,390.25246289995266,,,,,,,,,,,,,,,,,,,,,,,,,,390.26765870000236,390.2706532999873,390.2706532999873,390.2706532999873,393.2689550999785,j,2.58750099997269,0.0960845000226982,393.26918439997826,393.2692523999722,None,,,,,,,,,,,,,,,,,00046,001,2026-01-24_12h31.51.771,MST_task,2024.2.0,59.762968112939966,2026-01-24 12h31.58.215300 +0530,
,Scenes\157a.jpg,62,0,63,,,,,,,j,2.0069136999663897,0.12018919998081401,None,,,,,,63,0,62,393.2851600999711,,,,,,,,,,,,,,,,,,,,,,,393.2695581999724,393.2851600999711,393.7874073999701,393.76906699995743,,,,,,,,,,,,,,,,,,,,,,,,,,393.78393079998204,393.7874073999701,393.7874073999701,393.7874073999701,396.78563040000154,j,2.0069136999663897,0.12018919998081401,396.78583710000385,396.7859026999795,None,,,,,,,,,,,,,,,,,00046,001,2026-01-24_12h31.51.771,MST_task,2024.2.0,59.762968112939966,2026-01-24 12h31.58.215300 +0530,
,Objects\008a.jpg,63,0,64,,,,,,,f,1.4193910000030883,0.16819819994270802,None,,,,,,64,0,63,396.8020816000062,,,,,,,,,,,,,,,,,,,,,,,396.7862720999983,396.8020816000062,397.3022362999618,397.2857580999844,,,,,,,,,,,,,,,,,,,,,,,,,,397.29830849997234,397.3022362999618,397.3022362999618,397.3022362999618,400.2866751999827,f,1.4193910000030883,0.16819819994270802,400.28687690000515,400.28693689999636,None,,,,,400.30192699999316,400.30192699999316,400.30192699999316,,,,,,,,,,00046,001,2026-01-24_12h31.51.771,MST_task,2024.2.0,59.762968112939966,2026-01-24 12h31.58.215300 +0530,
,Objects\076a.jpg,64,0,65,,,,,,,j,1.4569479000056162,0.1036914000287652,None,,,,,,65,0,64,400.30192699999316,,,,,,,,,,,,,,,,,,,,,,,400.2873189999955,400.30192699999316,400.8093576999963,400.785931899969,,,,,,,,,,,,,,,,,,,,,,,,,,400.807128299959,400.8093576999963,400.8093576999963,400.8093576999963,403.80250469996827,j,1.4569479000056162,0.1036914000287652,403.8027765000006,403.80284649995156,None,,,,,,,,,,,,,,,,,00046,001,2026-01-24_12h31.51.771,MST_task,2024.2.0,59.762968112939966,2026-01-24 12h31.58.215300 +0530,
,Objects\024a.jpg,65,0,66,,,,,,,f,0.8824848999502137,0.15195890003815293,None,,,,,,66,0,65,403.81871759996284,,,,,,,,,,,,,,,,,,,,,,,403.80325040000025,403.81871759996284,404.3191466999706,404.30249470000854,,,,,,,,,,,,,,,,,,,,,,,,,,404.3114578999812,404.3191466999706,404.3191466999706,404.3191466999706,407.30333159997826,f,0.8824848999502137,0.15195890003815293,407.3035219999729,407.3035816999618,None,,,,,407.3185885999701,407.3185885999701,407.3185885999701,,,,,,,,,,00046,001,2026-01-24_12h31.51.771,MST_task,2024.2.0,59.762968112939966,2026-01-24 12h31.58.215300 +0530,
,Objects\185a.jpg,66,0,67,,,,,,,f,1.9432003000401892,0.1681624999619089,None,,,,,,67,0,66,407.3185885999701,,,,,,,,,,,,,,,,,,,,,,,407.3039552999544,407.3185885999701,407.8190935999737,407.8021912999684,,,,,,,,,,,,,,,,,,,,,,,,,,407.810198399995,407.8190935999737,407.8190935999737,407.8190935999737,410.80325789999915,f,1.9432003000401892,0.1681624999619089,410.80345509998733,410.8035143999732,None,,,,,410.8188420999795,410.8188420999795,410.8188420999795,,,,,,,,,,00046,001,2026-01-24_12h31.51.771,MST_task,2024.2.0,59.762968112939966,2026-01-24 12h31.58.215300 +0530,
,Objects\122a.jpg,67,0,68,,,,,,,None,,,f,2.3950024000369012,None,,,,68,0,67,410.8188420999795,,,,,,,,,,,,,,,,,,,,,,,410.80388659995515,410.8188420999795,411.32897919998504,411.30231359996833,,,,,,,,,,,,,,,,,,,,,,,,,,411.326133799972,411.32897919998504,411.32897919998504,411.32897919998504,414.3190770999645,None,,,414.31926530000055,416.73602159996517,f,414.33530789997894,414.33530789997894,2.3950024000369012,None,,,,,,,,,,,,,00046,001,2026-01-24_12h31.51.771,MST_task,2024.2.0,59.762968112939966,2026-01-24 12h31.58.215300 +0530,
,Objects\161a.jpg,68,0,69,,,,,,,j,1.2295579999918118,0.10415440000360832,None,,,,,,69,0,68,416.7520765999798,,,,,,,,,,,,,,,,,,,,,,,416.73636519996217,416.7520765999798,417.2523357999744,417.23558360000607,,,,,,,,,,,,,,,,,,,,,,,,,,417.2443930999725,417.2523357999744,417.2523357999744,417.2523357999744,420.2366651999764,j,1.2295579999918118,0.10415440000360832,420.23686459998135,420.23692769999616,None,,,,,420.25182959996164,420.25182959996164,420.25182959996164,,,,,,,,,,00046,001,2026-01-24_12h31.51.771,MST_task,2024.2.0,59.762968112939966,2026-01-24 12h31.58.215300 +0530,
,Objects\153a.jpg,69,0,70,,,,,,,f,1.6407349000219256,0.12818659999174997,None,,,,,,70,0,69,420.25182959996164,,,,,,,,,,,,,,,,,,,,,,,420.2372284999583,420.25182959996164,420.75281609996455,420.7364624000038,,,,,,,,,,,,,,,,,,,,,,,,,,420.74323909997474,420.75281609996455,420.75281609996455,420.75281609996455,423.73671819997253,f,1.6407349000219256,0.12818659999174997,423.73693549999734,423.736997400003,None,,,,,423.75210069998866,423.75210069998866,423.75210069998866,,,,,,,,,,00046,001,2026-01-24_12h31.51.771,MST_task,2024.2.0,59.762968112939966,2026-01-24 12h31.58.215300 +0530,
,Scenes\136a.jpg,70,0,71,,,,,,,j,1.72514479997335,0.12792300002183765,None,,,,,,71,0,70,423.75210069998866,,,,,,,,,,,,,,,,,,,,,,,423.73729869996896,423.75210069998866,424.26860199996736,424.2360854999861,,,,,,,,,,,,,,,,,,,,,,,,,,424.2657568999566,424.26860199996736,424.26860199996736,424.26860199996736,427.2524837999954,j,1.72514479997335,0.12792300002183765,427.2526788999676,427.25274339999305,None,,,,,,,,,,,,,,,,,00046,001,2026-01-24_12h31.51.771,MST_task,2024.2.0,59.762968112939966,2026-01-24 12h31.58.215300 +0530,
,Scenes\115a.jpg,71,0,72,,,,,,,j,1.1604331000125967,0.11988199996994808,None,,,,,,72,0,71,427.26883640000597,,,,,,,,,,,,,,,,,,,,,,,427.25310729997,427.26883640000597,427.7698576999828,427.75223709997954,,,,,,,,,,,,,,,,,,,,,,,,,,427.767240999965,427.7698576999828,427.7698576999828,427.7698576999828,430.75332349998644,j,1.1604331000125967,0.11988199996994808,430.7535157999955,430.75357519998215,None,,,,,430.7686388999573,430.7686388999573,430.7686388999573,,,,,,,,,,00046,001,2026-01-24_12h31.51.771,MST_task,2024.2.0,59.762968112939966,2026-01-24 12h31.58.215300 +0530,
,Scenes\113a.jpg,72,0,73,,,,,,,j,1.6291223000152968,0.095487900020089,None,,,,,,73,0,72,430.7686388999573,,,,,,,,,,,,,,,,,,,,,,,430.753873699985,430.7686388999573,431.269161299977,431.2534004999907,,,,,,,,,,,,,,,,,,,,,,,,,,431.26422829995863,431.269161299977,431.269161299977,431.269161299977,434.2531792999944,j,1.6291223000152968,0.095487900020089,434.2532416000031,434.25325750000775,None,,,,,434.2688297999557,434.2688297999557,434.2688297999557,,,,,,,,,,00046,001,2026-01-24_12h31.51.771,MST_task,2024.2.0,59.762968112939966,2026-01-24 12h31.58.215300 +0530,
,Scenes\040a.jpg,73,0,74,,,,,,,j,2.5923065000097267,0.17569809994893149,None,,,,,,74,0,73,434.2688297999557,,,,,,,,,,,,,,,,,,,,,,,434.2533687999821,434.2688297999557,434.7858012999641,434.75236069998937,,,,,,,,,,,,,,,,,,,,,,,,,,434.7830093000084,434.7858012999641,434.7858012999641,434.7858012999641,437.76902939996216,j,2.5923065000097267,0.17569809994893149,437.76923019997776,437.7692968999618,None,,,,,,,,,,,,,,,,,00046,001,2026-01-24_12h31.51.771,MST_task,2024.2.0,59.762968112939966,2026-01-24 12h31.58.215300 +0530,
,Scenes\061a.jpg,74,0,75,,,,,,,j,0.7243894999846816,0.103468100016471,None,,,,,,75,0,74,437.785149000003,,,,,,,,,,,,,,,,,,,,,,,437.7696692000027,437.785149000003,438.2858598000021,438.26922219997505,,,,,,,,,,,,,,,,,,,,,,,,,,438.2778533999808,438.2858598000021,438.2858598000021,438.2858598000021,441.2700518000056,j,0.7243894999846816,0.103468100016471,441.27024359995266,441.27030340000056,None,,,,,441.28535739996005,441.28535739996005,441.28535739996005,,,,,,,,,,00046,001,2026-01-24_12h31.51.771,MST_task,2024.2.0,59.762968112939966,2026-01-24 12h31.58.215300 +0530,
,Scenes\059a.jpg,75,0,76,,,,,,,j,0.8248666999861598,0.12808630004292354,None,,,,,,76,0,75,441.28535739996005,,,,,,,,,,,,,,,,,,,,,,,441.2706789000076,441.28535739996005,441.79350420000264,441.76918599999044,,,,,,,,,,,,,,,,,,,,,,,,,,441.7908778999699,441.79350420000264,441.79350420000264,441.79350420000264,444.78587899997365,j,0.8248666999861598,0.12808630004292354,444.78609969996614,444.7861683999654,None,,,,,,,,,,,,,,,,,00046,001,2026-01-24_12h31.51.771,MST_task,2024.2.0,59.762968112939966,2026-01-24 12h31.58.215300 +0530,
,Scenes\017a.jpg,76,0,77,,,,,,,f,0.9927917000022717,0.16786089999368414,None,,,,,,77,0,76,444.802086199983,,,,,,,,,,,,,,,,,,,,,,,444.7865346999606,444.802086199983,445.30512589996215,445.2858925999608,,,,,,,,,,,,,,,,,,,,,,,,,,445.3023506999598,445.30512589996215,445.30512589996215,445.30512589996215,448.3024905999773,f,0.9927917000022717,0.16786089999368414,448.3026901999838,448.3027540000039,None,,,,,,,,,,,,,,,,,00046,001,2026-01-24_12h31.51.771,MST_task,2024.2.0,59.762968112939966,2026-01-24 12h31.58.215300 +0530,
,Objects\004a.jpg,77,0,78,,,,,,,f,0.982538599986583,0.14476330002071336,None,,,,,,78,0,77,448.3188467999571,,,,,,,,,,,,,,,,,,,,,,,448.3031198999961,448.3188467999571,448.81912840000587,448.8030960999895,,,,,,,,,,,,,,,,,,,,,,,,,,448.814701299998,448.81912840000587,448.81912840000587,448.81912840000587,451.8032600999577,f,0.982538599986583,0.14476330002071336,451.8034520999645,451.80351090000477,None,,,,,451.81873519998044,451.81873519998044,451.81873519998044,,,,,,,,,,00046,001,2026-01-24_12h31.51.771,MST_task,2024.2.0,59.762968112939966,2026-01-24 12h31.58.215300 +0530,
,Objects\162a.jpg,78,0,79,,,,,,,f,0.9388696000096388,0.1601105000008829,None,,,,,,79,0,78,451.81873519998044,,,,,,,,,,,,,,,,,,,,,,,451.8038059999817,451.81873519998044,452.31880059995456,452.30211739998776,,,,,,,,,,,,,,,,,,,,,,,,,,452.3114644999732,452.31880059995456,452.31880059995456,452.31880059995456,455.3033624999807,f,0.9388696000096388,0.1601105000008829,455.3035730999545,455.30363489995943,None,,,,,455.31861489999574,455.31861489999574,455.31861489999574,,,,,,,,,,00046,001,2026-01-24_12h31.51.771,MST_task,2024.2.0,59.762968112939966,2026-01-24 12h31.58.215300 +0530,
,Objects\178a.jpg,79,0,80,,,,,,,j,1.4882157999672927,0.14474100002553314,None,,,,,,80,0,79,455.31861489999574,,,,,,,,,,,,,,,,,,,,,,,455.3039319999516,455.31861489999574,455.8255503999535,455.8023213999695,,,,,,,,,,,,,,,,,,,,,,,,,,455.8233653999632,455.8255503999535,455.8255503999535,455.8255503999535,458.8190695999656,j,1.4882157999672927,0.14474100002553314,458.8192737000063,458.8193401999888,None,,,,,,,,,,,,,,,,,00046,001,2026-01-24_12h31.51.771,MST_task,2024.2.0,59.762968112939966,2026-01-24 12h31.58.215300 +0530,
,Objects\118a.jpg,80,0,81,,,,,,,None,,,f,1.0746906999847852,None,,,,81,0,80,458.8351462999708,,,,,,,,,,,,,,,,,,,,,,,458.8196323000011,458.8351462999708,459.33534669998335,459.31942289997824,,,,,,,,,,,,,,,,,,,,,,,,,,459.32964129996253,459.33534669998335,459.33534669998335,459.33534669998335,462.3200570999761,None,,,462.32023909996497,463.4192892999854,f,462.3355133999721,462.3355133999721,1.0746906999847852,None,462.3355133999721,462.3355133999721,462.3355133999721,,,,,,,,,,00046,001,2026-01-24_12h31.51.771,MST_task,2024.2.0,59.762968112939966,2026-01-24 12h31.58.215300 +0530,
,Objects\159a.jpg,81,0,82,,,,,,,f,0.9698851000284776,0.16023029998177662,None,,,,,,82,0,81,463.43617749999976,,,,,,,,,,,,,,,,,,,,,,,463.4196198999998,463.43617749999976,463.93574260000605,463.91923090000637,,,,,,,,,,,,,,,,,,,,,,,,,,463.9279650999815,463.93574260000605,463.93574260000605,463.93574260000605,466.9198406999931,f,0.9698851000284776,0.16023029998177662,466.9200414000079,466.92009789997246,None,,,,,466.9353167999652,466.9353167999652,466.9353167999652,,,,,,,,,,00046,001,2026-01-24_12h31.51.771,MST_task,2024.2.0,59.762968112939966,2026-01-24 12h31.58.215300 +0530,
,Objects\006a.jpg,82,0,83,,,,,,,f,2.718589299998712,0.11269059998448938,None,,,,,,83,0,82,466.9353167999652,,,,,,,,,,,,,,,,,,,,,,,466.92044979997445,466.9353167999652,467.443142300006,467.4192286999896,,,,,,,,,,,,,,,,,,,,,,,,,,467.44014919997426,467.443142300006,467.443142300006,467.443142300006,470.43585389998043,f,2.718589299998712,0.11269059998448938,470.4360483000055,470.4361124999705,None,,,,,,,,,,,,,,,,,00046,001,2026-01-24_12h31.51.771,MST_task,2024.2.0,59.762968112939966,2026-01-24 12h31.58.215300 +0530,
,Objects\116a.jpg,83,0,84,,,,,,,j,0.9613845000276342,0.12076969997724518,None,,,,,,84,0,83,470.4522011000081,,,,,,,,,,,,,,,,,,,,,,,470.4364021999645,470.4522011000081,470.9522905999911,470.9359390999889,,,,,,,,,,,,,,,,,,,,,,,,,,470.9426428999868,470.9522905999911,470.9522905999911,470.9522905999911,473.9370823999634,j,0.9613845000276342,0.12076969997724518,473.93731489998754,473.93738059996394,None,,,,,,,,,,,,,,,,,00046,001,2026-01-24_12h31.51.771,MST_task,2024.2.0,59.762968112939966,2026-01-24 12h31.58.215300 +0530,
,Scenes\190a.jpg,84,0,85,,,,,,,j,0.7533296000328846,0.13544779998483136,None,,,,,,85,0,84,473.9517682999722,,,,,,,,,,,,,,,,,,,,,,,473.9377583999885,473.9517682999722,474.4569504999672,474.4358836999745,,,,,,,,,,,,,,,,,,,,,,,,,,474.45348579995334,474.4569504999672,474.4569504999672,474.4569504999672,477.45240539999213,j,0.7533296000328846,0.13544779998483136,477.4526577999932,477.4527278000023,None,,,,,,,,,,,,,,,,,00046,001,2026-01-24_12h31.51.771,MST_task,2024.2.0,59.762968112939966,2026-01-24 12h31.58.215300 +0530,
,Scenes\053a.jpg,85,0,86,,,,,,,j,0.7364404000109062,0.1199868000112474,None,,,,,,86,0,85,477.46851669996977,,,,,,,,,,,,,,,,,,,,,,,477.453020499961,477.46851669996977,,477.9532266999595,,,,,,,,,,,,,,,,,,,,,,,,,,477.96280609996757,477.9694618000067,477.9694618000067,477.9694618000067,480.9532990999869,j,0.7364404000109062,0.1199868000112474,480.95350099995267,480.95356130000437,None,,,,,480.96922129997984,480.96922129997984,480.96922129997984,,,,,,,,,,00046,001,2026-01-24_12h31.51.771,MST_task,2024.2.0,59.762968112939966,2026-01-24 12h31.58.215300 +0530,
,Scenes\007a.jpg,86,0,87,,,,,,,f,0.9568490000092424,0.2237715999945067,None,,,,,,87,0,86,480.96922129997984,,,,,,,,,,,,,,,,,,,,,,,480.95394859998487,480.96922129997984,481.46938429999864,481.45248609996634,,,,,,,,,,,,,,,,,,,,,,,,,,481.4667639999534,481.46938429999864,481.46938429999864,481.46938429999864,484.4532806999632,f,0.9568490000092424,0.2237715999945067,484.4534669999848,484.4535285999882,None,,,,,484.46883579995483,484.46883579995483,484.46883579995483,,,,,,,,,,00046,001,2026-01-24_12h31.51.771,MST_task,2024.2.0,59.762968112939966,2026-01-24 12h31.58.215300 +0530,
,Scenes\131a.jpg,87,0,88,,,,,,,j,1.2296205000020564,0.1681514999945648,None,,,,,,88,0,87,484.46883579995483,,,,,,,,,,,,,,,,,,,,,,,484.45382519997656,484.46883579995483,484.97205589996884,484.9524764000089,,,,,,,,,,,,,,,,,,,,,,,,,,484.96933229995193,484.97205589996884,484.97205589996884,484.97205589996884,487.9697218000074,j,1.2296205000020564,0.1681514999945648,487.9699160999735,487.96998090000125,None,,,,,,,,,,,,,,,,,00046,001,2026-01-24_12h31.51.771,MST_task,2024.2.0,59.762968112939966,2026-01-24 12h31.58.215300 +0530,
,Scenes\052a.jpg,88,0,89,,,,,,,j,1.5304068000405096,0.16760129999602214,None,,,,,,89,0,88,487.98522919998504,,,,,,,,,,,,,,,,,,,,,,,487.97027249995153,487.98522919998504,488.49582299997564,488.46925129997544,,,,,,,,,,,,,,,,,,,,,,,,,,488.4929923999589,488.49582299997564,488.49582299997564,488.49582299997564,491.4858871999895,j,1.5304068000405096,0.16760129999602214,491.48608509998303,491.48614950000774,None,,,,,,,,,,,,,,,,,00046,001,2026-01-24_12h31.51.771,MST_task,2024.2.0,59.762968112939966,2026-01-24 12h31.58.215300 +0530,
,Scenes\141a.jpg,89,0,90,,,,,,,j,0.9991154000163078,0.13633979996666312,None,,,,,,90,0,89,491.5022112999577,,,,,,,,,,,,,,,,,,,,,,,491.4864402000094,491.5022112999577,492.0025017999578,491.9858929999755,,,,,,,,,,,,,,,,,,,,,,,,,,491.9984758999781,492.0025017999578,492.0025017999578,492.0025017999578,494.98688839998795,j,0.9991154000163078,0.13633979996666312,494.9871086999774,494.98717449995456,None,,,,,495.00183789996663,495.00183789996663,495.00183789996663,,,,,,,,,,00046,001,2026-01-24_12h31.51.771,MST_task,2024.2.0,59.762968112939966,2026-01-24 12h31.58.215300 +0530,
,Scenes\022a.jpg,90,0,91,,,,,,,j,1.0615357999922708,0.1364002000191249,None,,,,,,91,0,90,495.00183789996663,,,,,,,,,,,,,,,,,,,,,,,494.98758489999454,495.00183789996663,495.5162378999521,495.48554279998643,,,,,,,,,,,,,,,,,,,,,,,,,,495.5133540999959,495.5162378999521,495.5162378999521,495.5162378999521,498.5021977999713,j,1.0615357999922708,0.1364002000191249,498.50240399996983,498.50246909999987,None,,,,,,,,,,,,,,,,,00046,001,2026-01-24_12h31.51.771,MST_task,2024.2.0,59.762968112939966,2026-01-24 12h31.58.215300 +0530,
,Objects\138a.jpg,91,0,92,,,,,,,j,1.5344774999539368,0.09629900002619252,None,,,,,,92,0,91,498.518719899992,,,,,,,,,,,,,,,,,,,,,,,498.50285180000355,498.518719899992,499.0190313999774,499.00280419999035,,,,,,,,,,,,,,,,,,,,,,,,,,499.01458869996713,499.0190313999774,499.0190313999774,499.0190313999774,502.0032019999926,j,1.5344774999539368,0.09629900002619252,502.0034008999937,502.00346139998874,None,,,,,502.01892159995623,502.01892159995623,502.01892159995623,,,,,,,,,,00046,001,2026-01-24_12h31.51.771,MST_task,2024.2.0,59.762968112939966,2026-01-24 12h31.58.215300 +0530,
,Objects\025a.jpg,92,0,93,,,,,,,j,0.7174961999990046,0.13618339999811724,None,,,,,,93,0,92,502.01892159995623,,,,,,,,,,,,,,,,,,,,,,,502.0039017999661,502.01892159995623,502.5321466999594,502.50249549996806,,,,,,,,,,,,,,,,,,,,,,,,,,502.52928349998547,502.5321466999594,502.5321466999594,502.5321466999594,505.5192137999693,j,0.7174961999990046,0.13618339999811724,505.5194142999826,505.51947469997685,None,,,,,,,,,,,,,,,,,00046,001,2026-01-24_12h31.51.771,MST_task,2024.2.0,59.762968112939966,2026-01-24 12h31.58.215300 +0530,
,Objects\160a.jpg,93,0,94,,,,,,,j,0.8624689999851398,0.1202892999863252,None,,,,,,94,0,93,505.5354859000072,,,,,,,,,,,,,,,,,,,,,,,505.51982009998756,505.5354859000072,506.0357207999914,506.01926879998064,,,,,,,,,,,,,,,,,,,,,,,,,,506.02762039995287,506.0357207999914,506.0357207999914,506.0357207999914,509.02007989998674,j,0.8624689999851398,0.1202892999863252,509.02026929997373,509.02032819995657,None,,,,,509.03550979995634,509.03550979995634,509.03550979995634,,,,,,,,,,00046,001,2026-01-24_12h31.51.771,MST_task,2024.2.0,59.762968112939966,2026-01-24 12h31.58.215300 +0530,
,Objects\097a.jpg,94,0,95,,,,,,,j,0.6744947000406682,0.14369289996102452,None,,,,,,95,0,94,509.03550979995634,,,,,,,,,,,,,,,,,,,,,,,509.02062189998105,509.03550979995634,509.53571339999326,509.51901079999516,,,,,,,,,,,,,,,,,,,,,,,,,,509.52714469999773,509.53571339999326,509.53571339999326,509.53571339999326,512.520017599978,j,0.6744947000406682,0.14369289996102452,512.5202161999769,512.5202768999734,None,,,,,512.535498399986,512.535498399986,512.535498399986,,,,,,,,,,00046,001,2026-01-24_12h31.51.771,MST_task,2024.2.0,59.762968112939966,2026-01-24 12h31.58.215300 +0530,
,Objects\113a.jpg,95,0,96,,,,,,,f,1.4780965999816544,0.2078345000045374,None,,,,,,96,0,95,512.535498399986,,,,,,,,,,,,,,,,,,,,,,,512.5205771999899,512.535498399986,513.0357405999675,513.0192544999882,,,,,,,,,,,,,,,,,,,,,,,,,,513.0284103999729,513.0357405999675,513.0357405999675,513.0357405999675,516.0200636999798,f,1.4780965999816544,0.2078345000045374,516.0202586000087,516.0203174999915,None,,,,,516.0357023999677,516.0357023999677,516.0357023999677,,,,,,,,,,00046,001,2026-01-24_12h31.51.771,MST_task,2024.2.0,59.762968112939966,2026-01-24 12h31.58.215300 +0530,
,Objects\046a.jpg,96,0,97,,,,,,,f,2.162454199977219,0.14413600001716986,None,,,,,,97,0,96,516.0357023999677,,,,,,,,,,,,,,,,,,,,,,,516.0206136999768,516.0357023999677,516.5357110999757,516.5192344999523,,,,,,,,,,,,,,,,,,,,,,,,,,516.5273236999637,516.5357110999757,516.5357110999757,516.5357110999757,519.5204580999562,f,2.162454199977219,0.14413600001716986,519.5206583999679,519.5207172000082,None,,,,,519.5355140999891,519.5355140999891,519.5355140999891,,,,,,,,,,00046,001,2026-01-24_12h31.51.771,MST_task,2024.2.0,59.762968112939966,2026-01-24 12h31.58.215300 +0530,
,Objects\081a.jpg,97,0,98,,,,,,,j,0.6946802000165917,0.14362340001389384,None,,,,,,98,0,97,519.5355140999891,,,,,,,,,,,,,,,,,,,,,,,519.5210140999989,519.5355140999891,520.0354927000008,520.0192509999615,,,,,,,,,,,,,,,,,,,,,,,,,,520.0283032999723,520.0354927000008,520.0354927000008,520.0354927000008,523.0200952999876,j,0.6946802000165917,0.14362340001389384,523.0202969999518,523.0203584999545,None,,,,,523.0356346999761,523.0356346999761,523.0356346999761,,,,,,,,,,00046,001,2026-01-24_12h31.51.771,MST_task,2024.2.0,59.762968112939966,2026-01-24 12h31.58.215300 +0530,
,Scenes\182a.jpg,98,0,99,,,,,,,f,2.7778141999733634,0.12015650002285838,None,,,,,,99,0,98,523.0356346999761,,,,,,,,,,,,,,,,,,,,,,,523.0206675999798,523.0356346999761,523.5360746000079,523.5188942999812,,,,,,,,,,,,,,,,,,,,,,,,,,523.5335897000041,523.5360746000079,523.5360746000079,523.5360746000079,526.5200466999668,f,2.7778141999733634,0.12015650002285838,526.5202407999896,526.5203017999884,None,,,,,526.5355105999624,526.5355105999624,526.5355105999624,,,,,,,,,,00046,001,2026-01-24_12h31.51.771,MST_task,2024.2.0,59.762968112939966,2026-01-24 12h31.58.215300 +0530,
,Scenes\154a.jpg,99,0,100,,,,,,,j,0.8547299000201747,0.12077270000008866,None,,,,,,100,0,99,526.5355105999624,,,,,,,,,,,,,,,,,,,,,,,526.5205959999585,526.5355105999624,527.042968099995,527.0192401999957,,,,,,,,,,,,,,,,,,,,,,,,,,527.0395698999637,527.042968099995,527.042968099995,527.042968099995,530.0358953999821,j,0.8547299000201747,0.12077270000008866,530.0360905999551,530.0361555999843,None,,,,,,,,,,,,,,,,,00046,001,2026-01-24_12h31.51.771,MST_task,2024.2.0,59.762968112939966,2026-01-24 12h31.58.215300 +0530,
,Scenes\122a.jpg,100,0,101,,,,,,,f,1.0540395000134595,0.14417789998697117,None,,,,,,101,0,100,530.0521095999866,,,,,,,,,,,,,,,,,,,,,,,530.036518799956,530.0521095999866,530.5640366000007,530.5357325999648,,,,,,,,,,,,,,,,,,,,,,,,,,530.5611943999538,530.5640366000007,530.5640366000007,530.5640366000007,533.5521924999775,f,1.0540395000134595,0.14417789998697117,533.5523904999718,533.5524551999988,None,,,,,,,,,,,,,,,,,00046,001,2026-01-24_12h31.51.771,MST_task,2024.2.0,59.762968112939966,2026-01-24 12h31.58.215300 +0530,
,Scenes\029a.jpg,101,0,102,,,,,,,j,1.21541070000967,0.1203762999502942,None,,,,,,102,0,101,533.5688346999814,,,,,,,,,,,,,,,,,,,,,,,533.5528224000009,533.5688346999814,534.0741845999728,534.0525033999584,,,,,,,,,,,,,,,,,,,,,,,,,,534.0712675999966,534.0741845999728,534.0741845999728,534.0741845999728,537.0692513999529,j,1.21541070000967,0.1203762999502942,537.0694471999886,537.0695119999582,None,,,,,,,,,,,,,,,,,00046,001,2026-01-24_12h31.51.771,MST_task,2024.2.0,59.762968112939966,2026-01-24 12h31.58.215300 +0530,
,Scenes\058a.jpg,102,0,103,,,,,,,f,0.6549421999952756,0.12838399998145178,None,,,,,,103,0,102,537.0855035999557,,,,,,,,,,,,,,,,,,,,,,,537.0698885999736,537.0855035999557,537.5867511999677,537.5692818999523,,,,,,,,,,,,,,,,,,,,,,,,,,537.5845483999583,537.5867511999677,537.5867511999677,537.5867511999677,540.5857575999689,f,0.6549421999952756,0.12838399998145178,540.5859657999827,540.5860392999602,None,,,,,,,,,,,,,,,,,00046,001,2026-01-24_12h31.51.771,MST_task,2024.2.0,59.762968112939966,2026-01-24 12h31.58.215300 +0530,
,Scenes\102a.jpg,103,0,104,,,,,,,f,1.3546630999771878,0.1360207999823615,None,,,,,,104,0,103,540.6019461999531,,,,,,,,,,,,,,,,,,,,,,,540.5864168999833,540.6019461999531,541.1195934999851,541.0858994000009,,,,,,,,,,,,,,,,,,,,,,,,,,541.1170980999595,541.1195934999851,541.1195934999851,541.1195934999851,544.102022899955,f,1.3546630999771878,0.1360207999823615,544.1022314999718,544.1022990999627,None,,,,,,,,,,,,,,,,,00046,001,2026-01-24_12h31.51.771,MST_task,2024.2.0,59.762968112939966,2026-01-24 12h31.58.215300 +0530,
,Scenes\001a.jpg,104,0,105,,,,,,,f,0.6652056999737397,0.12019400001736358,None,,,,,,105,0,104,544.1185662999633,,,,,,,,,,,,,,,,,,,,,,,544.1026741999667,544.1185662999633,544.6250125999795,544.6025379999774,,,,,,,,,,,,,,,,,,,,,,,,,,544.622237899981,544.6250125999795,544.6250125999795,544.6250125999795,547.619299199956,f,0.6652056999737397,0.12019400001736358,547.6194953999948,547.6195609999704,None,,,,,,,,,,,,,,,,,00046,001,2026-01-24_12h31.51.771,MST_task,2024.2.0,59.762968112939966,2026-01-24 12h31.58.215300 +0530,
,Objects\077a.jpg,105,0,106,,,,,,,j,0.8734213000279851,0.11199780000606552,None,,,,,,106,0,105,547.6352888999972,,,,,,,,,,,,,,,,,,,,,,,547.619933000009,547.6352888999972,548.1363583999919,548.1192522000056,,,,,,,,,,,,,,,,,,,,,,,,,,548.1287123999791,548.1363583999919,548.1363583999919,548.1363583999919,551.1201483999612,j,0.8734213000279851,0.11199780000606552,551.1203395999619,551.1203993999516,None,,,,,551.1355230999761,551.1355230999761,551.1355230999761,,,,,,,,,,00046,001,2026-01-24_12h31.51.771,MST_task,2024.2.0,59.762968112939966,2026-01-24 12h31.58.215300 +0530,
,Objects\187a.jpg,106,0,107,,,,,,,f,1.407288599992171,0.12007429997902364,None,,,,,,107,0,106,551.1355230999761,,,,,,,,,,,,,,,,,,,,,,,551.1207752999617,551.1355230999761,551.6422320999554,551.6193137000082,,,,,,,,,,,,,,,,,,,,,,,,,,551.6395347999642,551.6422320999554,551.6422320999554,551.6422320999554,554.6359277999727,f,1.407288599992171,0.12007429997902364,554.6361320999567,554.6361995000043,None,,,,,,,,,,,,,,,,,00046,001,2026-01-24_12h31.51.771,MST_task,2024.2.0,59.762968112939966,2026-01-24 12h31.58.215300 +0530,
,Objects\070a.jpg,107,0,108,,,,,,,f,0.8600286999717355,0.1447533000027761,None,,,,,,108,0,107,554.652119699982,,,,,,,,,,,,,,,,,,,,,,,554.636567199952,554.652119699982,555.1575996999745,555.135598599969,,,,,,,,,,,,,,,,,,,,,,,,,,555.154920800007,555.1575996999745,555.1575996999745,555.1575996999745,558.1524723999901,f,0.8600286999717355,0.1447533000027761,558.1526663999539,558.1527312999824,None,,,,,,,,,,,,,,,,,00046,001,2026-01-24_12h31.51.771,MST_task,2024.2.0,59.762968112939966,2026-01-24 12h31.58.215300 +0530,
,Objects\176a.jpg,108,0,109,,,,,,,j,1.6772412999998778,0.14343900000676513,None,,,,,,109,0,108,558.1697325999849,,,,,,,,,,,,,,,,,,,,,,,558.1530266999616,558.1697325999849,558.668919299962,558.652496499999,,,,,,,,,,,,,,,,,,,,,,,,,,558.6584411999793,558.668919299962,558.668919299962,558.668919299962,561.653258699982,j,1.6772412999998778,0.14343900000676513,561.6534547999618,561.6535165999667,None,,,,,561.6688609999837,561.6688609999837,561.6688609999837,,,,,,,,,,00046,001,2026-01-24_12h31.51.771,MST_task,2024.2.0,59.762968112939966,2026-01-24 12h31.58.215300 +0530,
,Objects\141a.jpg,109,0,110,,,,,,,j,2.1682207999983802,0.07256880000932142,None,,,,,,110,0,109,561.6688609999837,,,,,,,,,,,,,,,,,,,,,,,561.6538958000019,561.6688609999837,562.1695371000096,562.152062899957,,,,,,,,,,,,,,,,,,,,,,,,,,562.1590771999909,562.1695371000096,562.1695371000096,562.1695371000096,565.1532406999613,j,2.1682207999983802,0.07256880000932142,565.1534374000039,565.1534955999814,None,,,,,565.1694072999526,565.1694072999526,565.1694072999526,,,,,,,,,,00046,001,2026-01-24_12h31.51.771,MST_task,2024.2.0,59.762968112939966,2026-01-24 12h31.58.215300 +0530,
,Objects\163a.jpg,110,0,111,,,,,,,j,0.7565736999968067,0.06422409997321665,None,,,,,,111,0,110,565.1694072999526,,,,,,,,,,,,,,,,,,,,,,,565.1537915999652,565.1694072999526,565.6690629000077,565.6524784999783,,,,,,,,,,,,,,,,,,,,,,,,,,565.6586651999969,565.6690629000077,565.6690629000077,565.6690629000077,568.6530584999709,j,0.7565736999968067,0.06422409997321665,568.6532553999568,568.6533158999518,None,,,,,568.6686420000042,568.6686420000042,568.6686420000042,,,,,,,,,,00046,001,2026-01-24_12h31.51.771,MST_task,2024.2.0,59.762968112939966,2026-01-24 12h31.58.215300 +0530,
,Objects\079a.jpg,111,0,112,,,,,,,j,0.7441484999726526,0.12055610003881156,None,,,,,,112,0,111,568.6686420000042,,,,,,,,,,,,,,,,,,,,,,,568.6536286000046,568.6686420000042,569.1697263999959,569.1524724999908,,,,,,,,,,,,,,,,,,,,,,,,,,569.1597820000025,569.1697263999959,569.1697263999959,569.1697263999959,572.1542076999904,j,0.7441484999726526,0.12055610003881156,572.1543395000044,572.1543758999906,None,,,,,572.1688499999582,572.1688499999582,572.1688499999582,,,,,,,,,,00046,001,2026-01-24_12h31.51.771,MST_task,2024.2.0,59.762968112939966,2026-01-24 12h31.58.215300 +0530,
,Scenes\168a.jpg,112,0,113,,,,,,,j,0.9264620000030845,0.18365870002890006,None,,,,,,113,0,112,572.1688499999582,,,,,,,,,,,,,,,,,,,,,,,572.1546158999554,572.1688499999582,572.683669799997,572.6526187999989,,,,,,,,,,,,,,,,,,,,,,,,,,572.6810863999999,572.683669799997,572.683669799997,572.683669799997,575.669310999976,j,0.9264620000030845,0.18365870002890006,575.6695053000003,575.6695710999775,None,,,,,,,,,,,,,,,,,00046,001,2026-01-24_12h31.51.771,MST_task,2024.2.0,59.762968112939966,2026-01-24 12h31.58.215300 +0530,
,Scenes\167a.jpg,113,0,114,,,,,,,j,1.6703633000142872,0.1522020999691449,None,,,,,,114,0,113,575.6856275000027,,,,,,,,,,,,,,,,,,,,,,,575.6698612999753,575.6856275000027,576.1878278999939,576.1692146999994,,,,,,,,,,,,,,,,,,,,,,,,,,576.1851379,576.1878278999939,576.1878278999939,576.1878278999939,579.1858164999867,j,1.6703633000142872,0.1522020999691449,579.1860389999929,579.1861067999853,None,,,,,,,,,,,,,,,,,00046,001,2026-01-24_12h31.51.771,MST_task,2024.2.0,59.762968112939966,2026-01-24 12h31.58.215300 +0530,
,Scenes\075a.jpg,114,0,115,,,,,,,j,0.7785926999640651,0.07215140003245324,None,,,,,,115,0,114,579.2020581999677,,,,,,,,,,,,,,,,,,,,,,,579.1864783999627,579.2020581999677,579.7029600999667,579.6862934000092,,,,,,,,,,,,,,,,,,,,,,,,,,579.7002679999568,579.7029600999667,579.7029600999667,579.7029600999667,582.6867062999518,j,0.7785926999640651,0.07215140003245324,582.6868966000038,582.686954499979,None,,,,,582.7029843999771,582.7029843999771,582.7029843999771,,,,,,,,,,00046,001,2026-01-24_12h31.51.771,MST_task,2024.2.0,59.762968112939966,2026-01-24 12h31.58.215300 +0530,
,Scenes\137a.jpg,115,0,116,,,,,,,j,2.271137500007171,0.1447776000131853,None,,,,,,116,0,115,582.7029843999771,,,,,,,,,,,,,,,,,,,,,,,582.687328799977,582.7029843999771,583.2025713999756,583.185802299995,,,,,,,,,,,,,,,,,,,,,,,,,,583.1999441999942,583.2025713999756,583.2025713999756,583.2025713999756,586.1863818999846,j,2.271137500007171,0.1447776000131853,586.1865454000072,586.1865900999983,None,,,,,586.2021337999613,586.2021337999613,586.2021337999613,,,,,,,,,,00046,001,2026-01-24_12h31.51.771,MST_task,2024.2.0,59.762968112939966,2026-01-24 12h31.58.215300 +0530,
,Scenes\010a.jpg,116,0,117,,,,,,,j,0.9747847999678925,0.14419900003122166,None,,,,,,117,0,116,586.2021337999613,,,,,,,,,,,,,,,,,,,,,,,586.1869563999935,586.2021337999613,586.707319499983,586.6855993999634,,,,,,,,,,,,,,,,,,,,,,,,,,586.7036818999914,586.707319499983,586.707319499983,586.707319499983,589.702252499992,j,0.9747847999678925,0.14419900003122166,589.702543499996,589.7026322999736,None,,,,,,,,,,,,,,,,,00046,001,2026-01-24_12h31.51.771,MST_task,2024.2.0,59.762968112939966,2026-01-24 12h31.58.215300 +0530,
,Scenes\181a.jpg,117,0,118,,,,,,,f,1.3145963000133634,0.13643199997022748,None,,,,,,118,0,117,589.7188425000058,,,,,,,,,,,,,,,,,,,,,,,589.703037099971,589.7188425000058,590.2232221000013,590.202533099975,,,,,,,,,,,,,,,,,,,,,,,,,,590.2202347999555,590.2232221000013,590.2232221000013,590.2232221000013,593.2192408999545,f,1.3145963000133634,0.13643199997022748,593.2194528999971,593.2195068000001,None,,,,,,,,,,,,,,,,,00046,001,2026-01-24_12h31.51.771,MST_task,2024.2.0,59.762968112939966,2026-01-24 12h31.58.215300 +0530,
,Scenes\089a.jpg,118,0,119,,,,,,,j,1.3175802000332624,0.16868619999149814,None,,,,,,119,0,118,593.2355287999962,,,,,,,,,,,,,,,,,,,,,,,593.2197446000064,593.2355287999962,593.7481883,593.7194198999787,,,,,,,,,,,,,,,,,,,,,,,,,,593.7455638999818,593.7481883,593.7481883,593.7481883,596.7355897999951,j,1.3175802000332624,0.16868619999149814,596.7357959999936,596.7358610999654,None,,,,,,,,,,,,,,,,,00046,001,2026-01-24_12h31.51.771,MST_task,2024.2.0,59.762968112939966,2026-01-24 12h31.58.215300 +0530,
,Objects\089a.jpg,119,0,120,,,,,,,f,1.6609323000302538,0.1841842999565415,None,,,,,,120,0,119,596.7521042999579,,,,,,,,,,,,,,,,,,,,,,,596.7361544999876,596.7521042999579,597.2531920999754,597.2354127999861,,,,,,,,,,,,,,,,,,,,,,,,,,597.2450328999548,597.2531920999754,597.2531920999754,597.2531920999754,600.2367256999714,f,1.6609323000302538,0.1841842999565415,600.2369217000087,600.2369833999546,None,,,,,600.252099299978,600.252099299978,600.252099299978,,,,,,,,,,00046,001,2026-01-24_12h31.51.771,MST_task,2024.2.0,59.762968112939966,2026-01-24 12h31.58.215300 +0530,
,Objects\151a.jpg,120,0,121,,,,,,,f,1.4091207000310533,0.18443179997848347,None,,,,,,121,0,120,600.252099299978,,,,,,,,,,,,,,,,,,,,,,,600.2373742999625,600.252099299978,600.7523467999999,600.7360828999663,,,,,,,,,,,,,,,,,,,,,,,,,,600.742652099987,600.7523467999999,600.7523467999999,600.7523467999999,603.7366904999944,f,1.4091207000310533,0.18443179997848347,603.7368934999686,603.736957999994,None,,,,,603.7521308999858,603.7521308999858,603.7521308999858,,,,,,,,,,00046,001,2026-01-24_12h31.51.771,MST_task,2024.2.0,59.762968112939966,2026-01-24 12h31.58.215300 +0530,
,Objects\189a.jpg,121,0,122,,,,,,,f,1.9408067999756895,0.18429280002601445,None,,,,,,122,0,121,603.7521308999858,,,,,,,,,,,,,,,,,,,,,,,603.7372800000012,603.7521308999858,604.2532058999641,604.2357145999558,,,,,,,,,,,,,,,,,,,,,,,,,,604.2446730000083,604.2532058999641,604.2532058999641,604.2532058999641,607.2367110999767,f,1.9408067999756895,0.18429280002601445,607.236903299985,607.2369644999853,None,,,,,607.2517221999587,607.2517221999587,607.2517221999587,,,,,,,,,,00046,001,2026-01-24_12h31.51.771,MST_task,2024.2.0,59.762968112939966,2026-01-24 12h31.58.215300 +0530,
,Objects\175a.jpg,122,0,123,,,,,,,f,1.2420321999816224,0.17607380001572892,None,,,,,,123,0,122,607.2517221999587,,,,,,,,,,,,,,,,,,,,,,,607.237332699995,607.2517221999587,607.7595963999629,607.7356008999632,,,,,,,,,,,,,,,,,,,,,,,,,,607.7574566999683,607.7595963999629,607.7595963999629,607.7595963999629,610.7524630999542,f,1.2420321999816224,0.17607380001572892,610.752659299993,610.7527255999739,None,,,,,,,,,,,,,,,,,00046,001,2026-01-24_12h31.51.771,MST_task,2024.2.0,59.762968112939966,2026-01-24 12h31.58.215300 +0530,
,Objects\180a.jpg,123,0,124,,,,,,,f,1.0526070999912918,0.14483570004813373,None,,,,,,124,0,123,610.7688518000068,,,,,,,,,,,,,,,,,,,,,,,610.7530124000041,610.7688518000068,611.2688769999659,611.2522622999968,,,,,,,,,,,,,,,,,,,,,,,,,,611.2607214999734,611.2688769999659,611.2688769999659,611.2688769999659,614.2528721999843,f,1.0526070999912918,0.14483570004813373,614.2530702999793,614.2531297999667,None,,,,,614.2686519999988,614.2686519999988,614.2686519999988,,,,,,,,,,00046,001,2026-01-24_12h31.51.771,MST_task,2024.2.0,59.762968112939966,2026-01-24 12h31.58.215300 +0530,
,Objects\032a.jpg,124,0,125,,,,,,,j,0.7525712999631651,0.16042899998137727,None,,,,,,125,0,124,614.2686519999988,,,,,,,,,,,,,,,,,,,,,,,614.2534288999741,614.2686519999988,614.7692696999875,614.7523807999678,,,,,,,,,,,,,,,,,,,,,,,,,,614.7610115999705,614.7692696999875,614.7692696999875,614.7692696999875,617.7533303999808,j,0.7525712999631651,0.16042899998137727,617.7535288999788,617.7535883999662,None,,,,,617.7688606999582,617.7688606999582,617.7688606999582,,,,,,,,,,00046,001,2026-01-24_12h31.51.771,MST_task,2024.2.0,59.762968112939966,2026-01-24 12h31.58.215300 +0530,
,Objects\191a.jpg,125,0,126,,,,,,,f,1.1167250000289641,0.12005219998536631,None,,,,,,126,0,125,617.7688606999582,,,,,,,,,,,,,,,,,,,,,,,617.7539648999809,617.7688606999582,618.2688485999824,618.2524898999836,,,,,,,,,,,,,,,,,,,,,,,,,,618.2585726999678,618.2688485999824,618.2688485999824,618.2688485999824,621.2530864999862,f,1.1167250000289641,0.12005219998536631,621.253290899971,621.25335059996,None,,,,,621.2686239999603,621.2686239999603,621.2686239999603,,,,,,,,,,00046,001,2026-01-24_12h31.51.771,MST_task,2024.2.0,59.762968112939966,2026-01-24 12h31.58.215300 +0530,
,Scenes\038a.jpg,126,0,127,,,,,,,j,0.8582044999930076,0.13618390000192448,None,,,,,,127,0,126,621.2686239999603,,,,,,,,,,,,,,,,,,,,,,,621.2537221999955,621.2686239999603,621.783941200003,621.7525006000069,,,,,,,,,,,,,,,,,,,,,,,,,,621.7810865999782,621.783941200003,621.783941200003,621.783941200003,624.7691846999805,j,0.8582044999930076,0.13618390000192448,624.7693811999634,624.7694460999919,None,,,,,,,,,,,,,,,,,00046,001,2026-01-24_12h31.51.771,MST_task,2024.2.0,59.762968112939966,2026-01-24 12h31.58.215300 +0530,
,Scenes\124a.jpg,127,0,128,,,,,,,j,2.1773666000226513,0.15905720001319423,None,,,,,,128,0,127,624.7853128999704,,,,,,,,,,,,,,,,,,,,,,,624.7698139999993,624.7853128999704,625.2971007999731,625.2691076999763,,,,,,,,,,,,,,,,,,,,,,,,,,625.294258799986,625.2971007999731,625.2971007999731,625.2971007999731,628.2859481999767,j,2.1773666000226513,0.15905720001319423,628.2861379999667,628.2861951999948,None,,,,,,,,,,,,,,,,,00046,001,2026-01-24_12h31.51.771,MST_task,2024.2.0,59.762968112939966,2026-01-24 12h31.58.215300 +0530,
,Scenes\086a.jpg,128,0,129,,,,,,,j,0.6740975000429899,0.10364129999652505,None,,,,,,129,0,128,628.3019269999932,,,,,,,,,,,,,,,,,,,,,,,628.2865137999761,628.3019269999932,628.8080453999573,628.7859272999922,,,,,,,,,,,,,,,,,,,,,,,,,,628.8047378999763,628.8080453999573,628.8080453999573,628.8080453999573,631.8023971999646,j,0.6740975000429899,0.10364129999652505,631.8026073999936,631.8026816999773,None,,,,,,,,,,,,,,,,,00046,001,2026-01-24_12h31.51.771,MST_task,2024.2.0,59.762968112939966,2026-01-24 12h31.58.215300 +0530,
,Scenes\162a.jpg,129,0,130,,,,,,,j,0.9945465000346303,0.11195739998947829,None,,,,,,130,0,129,631.8187028999673,,,,,,,,,,,,,,,,,,,,,,,631.803004299989,631.8187028999673,632.3194469999871,632.3020464999718,,,,,,,,,,,,,,,,,,,,,,,,,,632.3162557999603,632.3194469999871,632.3194469999871,632.3194469999871,635.3032228999655,j,0.9945465000346303,0.11195739998947829,635.3034162999829,635.3034763999749,None,,,,,635.3187013999559,635.3187013999559,635.3187013999559,,,,,,,,,,00046,001,2026-01-24_12h31.51.771,MST_task,2024.2.0,59.762968112939966,2026-01-24 12h31.58.215300 +0530,
,Scenes\087a.jpg,130,0,131,,,,,,,j,0.7588289999985136,0.1522485000314191,None,,,,,,131,0,130,635.3187013999559,,,,,,,,,,,,,,,,,,,,,,,635.303858499974,635.3187013999559,635.8193016999867,635.8025196999661,,,,,,,,,,,,,,,,,,,,,,,,,,635.8162722999696,635.8193016999867,635.8193016999867,635.8193016999867,638.8029536999529,j,0.7588289999985136,0.1522485000314191,638.8031457999605,638.8032069999608,None,,,,,638.818577500002,638.818577500002,638.818577500002,,,,,,,,,,00046,001,2026-01-24_12h31.51.771,MST_task,2024.2.0,59.762968112939966,2026-01-24 12h31.58.215300 +0530,
,Scenes\185a.jpg,131,0,132,,,,,,,j,1.6338757000048645,0.12846760003594682,None,,,,,,132,0,131,638.818577500002,,,,,,,,,,,,,,,,,,,,,,,638.8034979999647,638.818577500002,639.3359112999751,639.3024573999573,,,,,,,,,,,,,,,,,,,,,,,,,,639.3328819999588,639.3359112999751,639.3359112999751,639.3359112999751,642.3192976999562,j,1.6338757000048645,0.12846760003594682,642.3194970999612,642.3195642000064,None,,,,,,,,,,,,,,,,,00046,001,2026-01-24_12h31.51.771,MST_task,2024.2.0,59.762968112939966,2026-01-24 12h31.58.215300 +0530,
,Scenes\031a.jpg,132,0,133,,,,,,,None,,,f,0.9174432000145316,None,,,,133,0,132,642.3355068999808,,,,,,,,,,,,,,,,,,,,,,,642.3198552999529,642.3355068999808,642.8370775000076,642.8192599999602,,,,,,,,,,,,,,,,,,,,,,,,,,642.8341988999746,642.8370775000076,642.8370775000076,642.8370775000076,645.8359070000006,None,,,645.8360909000039,646.7858373000054,f,645.852120800002,645.852120800002,0.9174432000145316,None,,,,,,,,,,,,,00046,001,2026-01-24_12h31.51.771,MST_task,2024.2.0,59.762968112939966,2026-01-24 12h31.58.215300 +0530,
,Objects\064a.jpg,133,0,134,,,,,,,f,0.7713598000118509,0.1360458999988623,None,,,,,,134,0,133,646.8019428999978,,,,,,,,,,,,,,,,,,,,,,,646.7862871999969,646.8019428999978,647.302711199969,647.2856799999718,,,,,,,,,,,,,,,,,,,,,,,,,,647.294587899989,647.302711199969,647.302711199969,647.302711199969,650.2861929999781,f,0.7713598000118509,0.1360458999988623,650.2863855999894,650.2864525999757,None,,,,,,,,,,,,,,,,,00046,001,2026-01-24_12h31.51.771,MST_task,2024.2.0,59.762968112939966,2026-01-24 12h31.58.215300 +0530,
,Objects\166a.jpg,134,0,135,,,,,,,f,1.494948600011412,0.1604020000086166,None,,,,,,135,0,134,650.3019287000061,,,,,,,,,,,,,,,,,,,,,,,650.2868187999702,650.3019287000061,650.8024412000086,650.7859095999738,,,,,,,,,,,,,,,,,,,,,,,,,,650.7945655999938,650.8024412000086,650.8024412000086,650.8024412000086,653.7865497999592,f,1.494948600011412,0.1604020000086166,653.7867387000006,653.7867986999918,None,,,,,653.8021275000065,653.8021275000065,653.8021275000065,,,,,,,,,,00046,001,2026-01-24_12h31.51.771,MST_task,2024.2.0,59.762968112939966,2026-01-24 12h31.58.215300 +0530,
,Objects\132a.jpg,135,0,136,,,,,,,f,2.5317132000345737,0.10366129997419193,None,,,,,,136,0,135,653.8021275000065,,,,,,,,,,,,,,,,,,,,,,,653.7871663999977,653.8021275000065,654.3023897999665,654.285790599999,,,,,,,,,,,,,,,,,,,,,,,,,,654.2937636999995,654.3023897999665,654.3023897999665,654.3023897999665,657.2864997999859,f,2.5317132000345737,0.10366129997419193,657.28668749996,657.2867621000041,None,,,,,657.3019407999818,657.3019407999818,657.3019407999818,,,,,,,,,,00046,001,2026-01-24_12h31.51.771,MST_task,2024.2.0,59.762968112939966,2026-01-24 12h31.58.215300 +0530,
,Objects\182a.jpg,136,0,137,,,,,,,f,0.951763299992308,0.15124289999948815,None,,,,,,137,0,136,657.3019407999818,,,,,,,,,,,,,,,,,,,,,,,657.287140099972,657.3019407999818,657.8026360999793,657.7860224999604,,,,,,,,,,,,,,,,,,,,,,,,,,657.7951620999957,657.8026360999793,657.8026360999793,657.8026360999793,660.7867187999655,f,0.951763299992308,0.15124289999948815,660.7869122999837,660.7869712999673,None,,,,,660.8021188999992,660.8021188999992,660.8021188999992,,,,,,,,,,00046,001,2026-01-24_12h31.51.771,MST_task,2024.2.0,59.762968112939966,2026-01-24 12h31.58.215300 +0530,
,Objects\094a.jpg,137,0,138,,,,,,,f,0.9636915999581106,0.10368050000397488,None,,,,,,138,0,137,660.8021188999992,,,,,,,,,,,,,,,,,,,,,,,660.7872659999994,660.8021188999992,661.3023911999771,661.2856920000049,,,,,,,,,,,,,,,,,,,,,,,,,,661.2934306999668,661.3023911999771,661.3023911999771,661.3023911999771,664.2863931999891,f,0.9636915999581106,0.10368050000397488,664.286586000002,664.2866452999879,None,,,,,664.3021088999812,664.3021088999812,664.3021088999812,,,,,,,,,,00046,001,2026-01-24_12h31.51.771,MST_task,2024.2.0,59.762968112939966,2026-01-24 12h31.58.215300 +0530,
,Objects\105a.jpg,138,0,139,,,,,,,f,1.4797331999870948,0.14397079998161644,None,,,,,,139,0,138,664.3021088999812,,,,,,,,,,,,,,,,,,,,,,,664.2870162999607,664.3021088999812,664.8023438999662,664.7859168999712,,,,,,,,,,,,,,,,,,,,,,,,,,664.7938708000001,664.8023438999662,664.8023438999662,664.8023438999662,667.78635509999,f,1.4797331999870948,0.14397079998161644,667.786540000001,667.7866001999937,None,,,,,667.8020971000078,667.8020971000078,667.8020971000078,,,,,,,,,,00046,001,2026-01-24_12h31.51.771,MST_task,2024.2.0,59.762968112939966,2026-01-24 12h31.58.215300 +0530,
,Objects\091a.jpg,139,0,140,,,,,,,None,,,f,5.483338099962566,None,,,,140,0,139,667.8020971000078,,,,,,,,,,,,,,,,,,,,,,,667.7868847000063,667.8020971000078,668.3024244999979,668.2859191999887,,,,,,,,,,,,,,,,,,,,,,,,,,668.2938397999969,668.3024244999979,668.3024244999979,668.3024244999979,671.2866854000022,None,,,671.2868663999834,676.7861298999633,f,671.3021408999921,671.3021408999921,5.483338099962566,None,671.3021408999921,671.3021408999921,671.3021408999921,,,,,,,,,,00046,001,2026-01-24_12h31.51.771,MST_task,2024.2.0,59.762968112939966,2026-01-24 12h31.58.215300 +0530,
,Scenes\186a.jpg,140,0,141,,,,,,,j,1.569204700004775,0.1441594999632798,None,,,,,,141,0,140,676.8021136999596,,,,,,,,,,,,,,,,,,,,,,,676.7866180999554,676.8021136999596,677.312445699994,677.2859092999715,,,,,,,,,,,,,,,,,,,,,,,,,,677.3098380999872,677.312445699994,677.312445699994,677.312445699994,680.3034071999718,j,1.569204700004775,0.1441594999632798,680.3036184000084,680.3036867000046,None,,,,,,,,,,,,,,,,,00046,001,2026-01-24_12h31.51.771,MST_task,2024.2.0,59.762968112939966,2026-01-24 12h31.58.215300 +0530,
,Scenes\140a.jpg,141,0,142,,,,,,,j,0.9658163000131026,0.16048689995659515,None,,,,,,142,0,141,680.3189659999916,,,,,,,,,,,,,,,,,,,,,,,680.3039900999865,680.3189659999916,680.8196751999785,680.8021144999657,,,,,,,,,,,,,,,,,,,,,,,,,,680.8170159999863,680.8196751999785,680.8196751999785,680.8196751999785,683.8033178999904,j,0.9658163000131026,0.16048689995659515,683.8035133999656,683.8035722000059,None,,,,,683.8188662999892,683.8188662999892,683.8188662999892,,,,,,,,,,00046,001,2026-01-24_12h31.51.771,MST_task,2024.2.0,59.762968112939966,2026-01-24 12h31.58.215300 +0530,
,Scenes\145a.jpg,142,0,143,,,,,,,j,0.997367599979043,0.12077019998105243,None,,,,,,143,0,142,683.8188662999892,,,,,,,,,,,,,,,,,,,,,,,683.803956299962,683.8188662999892,684.3241443999577,684.3023670999683,,,,,,,,,,,,,,,,,,,,,,,,,,684.321393399965,684.3241443999577,684.3241443999577,684.3241443999577,687.3191049000015,j,0.997367599979043,0.12077019998105243,687.3193072999711,687.3193887000089,None,,,,,,,,,,,,,,,,,00046,001,2026-01-24_12h31.51.771,MST_task,2024.2.0,59.762968112939966,2026-01-24 12h31.58.215300 +0530,
,Scenes\015a.jpg,143,0,144,,,,,,,j,1.0835191999794915,0.12854170001810417,None,,,,,,144,0,143,687.3353436999605,,,,,,,,,,,,,,,,,,,,,,,687.3197851000004,687.3353436999605,687.8535410999903,687.819330999977,,,,,,,,,,,,,,,,,,,,,,,,,,687.8509821000043,687.8535410999903,687.8535410999903,687.8535410999903,690.8203511000029,j,1.0835191999794915,0.12854170001810417,690.8205413999967,690.8206060999655,None,,,,,,,,,,,,,,,,,00046,001,2026-01-24_12h31.51.771,MST_task,2024.2.0,59.762968112939966,2026-01-24 12h31.58.215300 +0530,
,Scenes\151a.jpg,144,0,145,,,,,,,j,0.9907396000344306,0.1202328999643214,None,,,,,,145,0,144,690.8359616000089,,,,,,,,,,,,,,,,,,,,,,,690.8209735999699,690.8359616000089,691.3469642999698,691.319310299994,,,,,,,,,,,,,,,,,,,,,,,,,,691.343200000003,691.3469642999698,691.3469642999698,691.3469642999698,694.3359130999888,j,0.9907396000344306,0.1202328999643214,694.3361139000044,694.3361792999785,None,,,,,,,,,,,,,,,,,00046,001,2026-01-24_12h31.51.771,MST_task,2024.2.0,59.762968112939966,2026-01-24 12h31.58.215300 +0530,
,Scenes\080a.jpg,145,0,146,,,,,,,j,0.6113541999948211,0.10419609997188672,None,,,,,,146,0,145,694.3521188999875,,,,,,,,,,,,,,,,,,,,,,,694.3364763999707,694.3521188999875,694.8627347999718,694.8359018999618,,,,,,,,,,,,,,,,,,,,,,,,,,694.860401599959,694.8627347999718,694.8627347999718,694.8627347999718,697.837012199976,j,0.6113541999948211,0.10419609997188672,697.8372258999734,697.8372960999841,None,,,,,,,,,,,,,,,,,00046,001,2026-01-24_12h31.51.771,MST_task,2024.2.0,59.762968112939966,2026-01-24 12h31.58.215300 +0530,
,Scenes\047a.jpg,146,0,147,,,,,,,j,1.6970405000029132,0.11258319998160005,None,,,,,,147,0,146,697.8521276999963,,,,,,,,,,,,,,,,,,,,,,,697.8377056999598,697.8521276999963,698.352410099993,698.335870699957,,,,,,,,,,,,,,,,,,,,,,,,,,698.3491046999698,698.352410099993,698.352410099993,698.352410099993,701.3368276999681,j,1.6970405000029132,0.11258319998160005,701.3370211999863,701.3370939999586,None,,,,,701.3520667999983,701.3520667999983,701.3520667999983,,,,,,,,,,00046,001,2026-01-24_12h31.51.771,MST_task,2024.2.0,59.762968112939966,2026-01-24 12h31.58.215300 +0530,
,Objects\123a.jpg,147,0,148,,,,,,,j,1.0526747000403702,0.10481809999328107,None,,,,,,148,0,147,701.3520667999983,,,,,,,,,,,,,,,,,,,,,,,701.3374742000015,701.3520667999983,701.8526771999896,701.835760899994,,,,,,,,,,,,,,,,,,,,,,,,,,701.8452357999631,701.8526771999896,701.8526771999896,701.8526771999896,704.8378880999517,j,1.0526747000403702,0.10481809999328107,704.8380768999923,704.8381353999721,None,,,,,704.8531335999724,704.8531335999724,704.8531335999724,,,,,,,,,,00046,001,2026-01-24_12h31.51.771,MST_task,2024.2.0,59.762968112939966,2026-01-24 12h31.58.215300 +0530,
,Objects\142a.jpg,148,0,149,,,,,,,f,0.7544311000383459,0.16875599999912083,None,,,,,,149,0,148,704.8531335999724,,,,,,,,,,,,,,,,,,,,,,,704.8384537999518,704.8531335999724,,705.3523854999803,,,,,,,,,,,,,,,,,,,,,,,,,,705.3717572999885,705.3754046999966,705.3754046999966,705.3754046999966,708.352435000008,f,0.7544311000383459,0.16875599999912083,708.3526314999908,708.3526966999634,None,,,,,,,,,,,,,,,,,00046,001,2026-01-24_12h31.51.771,MST_task,2024.2.0,59.762968112939966,2026-01-24 12h31.58.215300 +0530,
,Objects\177a.jpg,149,0,150,,,,,,,j,1.228668200026732,0.16012119996594265,None,,,,,,150,0,149,708.3687774999999,,,,,,,,,,,,,,,,,,,,,,,708.3530660999822,708.3687774999999,708.8689862999599,708.8524227999733,,,,,,,,,,,,,,,,,,,,,,,,,,708.8607109999866,708.8689862999599,708.8689862999599,708.8689862999599,711.8532131999964,j,1.228668200026732,0.16012119996594265,711.8534037999925,711.8534850999713,None,,,,,,,,,,,,,,,,,00046,001,2026-01-24_12h31.51.771,MST_task,2024.2.0,59.762968112939966,2026-01-24 12h31.58.215300 +0530,
,Objects\028a.jpg,150,0,151,,,,,,,f,0.7037950000376441,0.17639420001069084,None,,,,,,151,0,150,711.8696077999775,,,,,,,,,,,,,,,,,,,,,,,711.8538541999878,711.8696077999775,,712.368874399981,,,,,,,,,,,,,,,,,,,,,,,,,,712.3772901999764,712.3855495000025,712.3855495000025,712.3855495000025,715.3690536000067,f,0.7037950000376441,0.17639420001069084,715.3692478999728,715.369315799966,None,,,,,,,,,,,,,,,,,00046,001,2026-01-24_12h31.51.771,MST_task,2024.2.0,59.762968112939966,2026-01-24 12h31.58.215300 +0530,
,Objects\106a.jpg,151,0,152,,,,,,,f,0.7882667999947444,0.17545629997039214,None,,,,,,152,0,151,715.3862732999842,,,,,,,,,,,,,,,,,,,,,,,715.3696872,715.3862732999842,715.8857982999762,715.8692799999844,,,,,,,,,,,,,,,,,,,,,,,,,,715.8772052999702,715.8857982999762,715.8857982999762,715.8857982999762,718.869763499999,f,0.7882667999947444,0.17545629997039214,718.8699723999598,718.8700373999891,None,,,,,,,,,,,,,,,,,00046,001,2026-01-24_12h31.51.771,MST_task,2024.2.0,59.762968112939966,2026-01-24 12h31.58.215300 +0530,
,Objects\056a.jpg,152,0,153,,,,,,,f,1.5076535999542102,0.19167410000227392,None,,,,,,153,0,152,718.8855196000077,,,,,,,,,,,,,,,,,,,,,,,718.8704205999966,718.8855196000077,719.3903705999837,719.3691535999533,,,,,,,,,,,,,,,,,,,,,,,,,,719.3874244999606,719.3903705999837,719.3903705999837,719.3903705999837,722.3856423999532,f,1.5076535999542102,0.19167410000227392,722.3858395999996,722.3859050999745,None,,,,,,,,,,,,,,,,,00046,001,2026-01-24_12h31.51.771,MST_task,2024.2.0,59.762968112939966,2026-01-24 12h31.58.215300 +0530,
,Objects\051a.jpg,153,0,154,,,,,,,j,1.3157104000565596,0.08012099994812161,None,,,,,,154,0,153,722.4017007999937,,,,,,,,,,,,,,,,,,,,,,,722.3861940999632,722.4017007999937,722.9023958999896,722.886094699963,,,,,,,,,,,,,,,,,,,,,,,,,,722.8945846999995,722.9023958999896,722.9023958999896,722.9023958999896,725.8867247999879,j,1.3157104000565596,0.08012099994812161,725.886914999981,725.886973799963,None,,,,,725.9024165999726,725.9024165999726,725.9024165999726,,,,,,,,,,00046,001,2026-01-24_12h31.51.771,MST_task,2024.2.0,59.762968112939966,2026-01-24 12h31.58.215300 +0530,
,Scenes\101a.jpg,154,0,155,,,,,,,j,0.9418661000090651,0.10418829997070134,None,,,,,,155,0,154,725.9024165999726,,,,,,,,,,,,,,,,,,,,,,,725.8872668999829,725.9024165999726,726.404206599982,726.3859321000054,,,,,,,,,,,,,,,,,,,,,,,,,,726.4017150999862,726.404206599982,726.404206599982,726.404206599982,729.4025188999949,j,0.9418661000090651,0.10418829997070134,729.4027154999785,729.4027807999519,None,,,,,,,,,,,,,,,,,00046,001,2026-01-24_12h31.51.771,MST_task,2024.2.0,59.762968112939966,2026-01-24 12h31.58.215300 +0530,
,Scenes\049a.jpg,155,0,156,,,,,,,j,1.0935638999799266,0.13592190004419535,None,,,,,,156,0,155,729.4186745999614,,,,,,,,,,,,,,,,,,,,,,,729.4030705000041,729.4186745999614,,729.9036375999567,,,,,,,,,,,,,,,,,,,,,,,,,,729.9297227999778,729.9320720999967,729.9320720999967,729.9320720999967,732.9033059999929,j,1.0935638999799266,0.13592190004419535,732.9034973999951,732.9035629999707,None,,,,,,,,,,,,,,,,,00046,001,2026-01-24_12h31.51.771,MST_task,2024.2.0,59.762968112939966,2026-01-24 12h31.58.215300 +0530,
,Scenes\020a.jpg,156,0,157,,,,,,,None,,,f,0.0311622999724932,None,,,,157,0,156,732.9192181999679,,,,,,,,,,,,,,,,,,,,,,,732.9038842999726,732.9192181999679,733.4197757999646,733.402402799984,,,,,,,,,,,,,,,,,,,,,,,,,,733.4165734999697,733.4197757999646,733.4197757999646,733.4197757999646,736.403269900009,None,,,736.4034465999575,736.4528151999693,f,736.4188812999637,736.4188812999637,0.0311622999724932,None,736.4188812999637,736.4188812999637,736.4188812999637,,,,,,,,,,00046,001,2026-01-24_12h31.51.771,MST_task,2024.2.0,59.762968112939966,2026-01-24 12h31.58.215300 +0530,
,Scenes\054a.jpg,157,0,158,,,,,,,j,0.9633027999661863,0.12039789999835193,None,,,,,,158,0,157,736.4688693999778,,,,,,,,,,,,,,,,,,,,,,,736.4532802999602,736.4688693999778,736.974358699983,736.9525354999932,,,,,,,,,,,,,,,,,,,,,,,,,,736.9713058999623,736.974358699983,736.974358699983,736.974358699983,739.9692798999604,j,0.9633027999661863,0.12039789999835193,739.9694690000033,739.9695355999866,None,,,,,,,,,,,,,,,,,00046,001,2026-01-24_12h31.51.771,MST_task,2024.2.0,59.762968112939966,2026-01-24 12h31.58.215300 +0530,
,Scenes\042a.jpg,158,0,159,,,,,,,j,0.7226235999842174,0.1200356999761425,None,,,,,,159,0,158,739.9855546999606,,,,,,,,,,,,,,,,,,,,,,,739.9699036999955,739.9855546999606,740.4874812999624,740.4690586999641,,,,,,,,,,,,,,,,,,,,,,,,,,740.4847628999851,740.4874812999624,740.4874812999624,740.4874812999624,743.4856840999564,j,0.7226235999842174,0.1200356999761425,743.4858815000043,743.4859456999693,None,,,,,,,,,,,,,,,,,00046,001,2026-01-24_12h31.51.771,MST_task,2024.2.0,59.762968112939966,2026-01-24 12h31.58.215300 +0530,
,Scenes\183a.jpg,159,0,160,,,,,,,f,1.360656100034248,0.16784219996770844,None,,,,,,160,0,159,743.5021779999952,,,,,,,,,,,,,,,,,,,,,,,743.4862411000067,743.5021779999952,744.009003299987,743.9855829000007,,,,,,,,,,,,,,,,,,,,,,,,,,744.006100300001,744.009003299987,744.009003299987,744.009003299987,747.0023527999874,f,1.360656100034248,0.16784219996770844,747.0025527999969,747.0026196999825,None,,,,,,,,,,,,,,,,,00046,001,2026-01-24_12h31.51.771,MST_task,2024.2.0,59.762968112939966,2026-01-24 12h31.58.215300 +0530,
,Scenes\103a.jpg,160,0,161,,,,,,,j,1.1728344999719411,0.1440271000028588,None,,,,,,161,0,160,747.0188768999651,,,,,,,,,,,,,,,,,,,,,,,747.0029916999629,747.0188768999651,747.540803299984,747.5025313000078,,,,,,,,,,,,,,,,,,,,,,,,,,747.5383618999622,747.540803299984,747.540803299984,747.540803299984,750.5192749999696,j,1.1728344999719411,0.1440271000028588,750.5194749999791,750.5195419999654,None,,,,,,,,,,,,,,,,,00046,001,2026-01-24_12h31.51.771,MST_task,2024.2.0,59.762968112939966,2026-01-24 12h31.58.215300 +0530,
,Objects\015a.jpg,161,0,162,,,,,,,None,,,j,0.31776730000274256,None,,,,162,0,161,750.5365424999618,,,,,,,,,,,,,,,,,,,,,,,750.5199139000033,750.5365424999618,751.0458681999589,751.019707200001,,,,,,,,,,,,,,,,,,,,,,,,,,751.0411719999975,751.0458681999589,751.0458681999589,751.0458681999589,754.0358283999958,None,,,754.036000299966,754.3861217999947,j,754.0520036999951,754.0520036999951,0.31776730000274256,None,,,,,,,,,,,,,00046,001,2026-01-24_12h31.51.771,MST_task,2024.2.0,59.762968112939966,2026-01-24 12h31.58.215300 +0530,
,Objects\087a.jpg,162,0,163,,,,,,,None,,,j,0.4673971000011079,None,,,,163,0,162,754.4019369999878,,,,,,,,,,,,,,,,,,,,,,,754.3866215999587,754.4019369999878,754.9024246999761,754.8858995999908,,,,,,,,,,,,,,,,,,,,,,,,,,754.8942945000017,754.9024246999761,754.9024246999761,754.9024246999761,757.886719800008,None,,,757.886901299993,758.3857325999998,j,757.9021412999718,757.9021412999718,0.4673971000011079,None,757.9021412999718,757.9021412999718,757.9021412999718,,,,,,,,,,00046,001,2026-01-24_12h31.51.771,MST_task,2024.2.0,59.762968112939966,2026-01-24 12h31.58.215300 +0530,
,Objects\102a.jpg,163,0,164,,,,,,,f,1.9156617000116967,0.16755439998814836,None,,,,,,164,0,163,758.4021285999916,,,,,,,,,,,,,,,,,,,,,,,758.3861763000023,758.4021285999916,758.9024245999753,758.885944699985,,,,,,,,,,,,,,,,,,,,,,,,,,758.8949720999808,758.9024245999753,758.9024245999753,758.9024245999753,761.8867142999661,f,1.9156617000116967,0.16755439998814836,761.8869015999953,761.8869607999804,None,,,,,761.9019023999572,761.9019023999572,761.9019023999572,,,,,,,,,,00046,001,2026-01-24_12h31.51.771,MST_task,2024.2.0,59.762968112939966,2026-01-24 12h31.58.215300 +0530,
,Objects\066a.jpg,164,0,165,,,,,,,j,2.550995099998545,0.1208106999984011,None,,,,,,165,0,164,761.9019023999572,,,,,,,,,,,,,,,,,,,,,,,761.8872524999897,761.9019023999572,762.4023854999687,762.3862317999592,,,,,,,,,,,,,,,,,,,,,,,,,,762.3957193999668,762.4023854999687,762.4023854999687,762.4023854999687,765.3867785999901,j,2.550995099998545,0.1208106999984011,765.3869748999714,765.3870350999641,None,,,,,765.4021310999524,765.4021310999524,765.4021310999524,,,,,,,,,,00046,001,2026-01-24_12h31.51.771,MST_task,2024.2.0,59.762968112939966,2026-01-24 12h31.58.215300 +0530,
,Objects\104a.jpg,165,0,166,,,,,,,f,1.0293199999723583,0.16795570001704618,None,,,,,,166,0,165,765.4021310999524,,,,,,,,,,,,,,,,,,,,,,,765.3873272999772,765.4021310999524,765.9082193999784,765.8856184000033,,,,,,,,,,,,,,,,,,,,,,,,,,765.9054729999625,765.9082193999784,765.9082193999784,765.9082193999784,768.9025123000029,f,1.0293199999723583,0.16795570001704618,768.9027207999607,768.9027868999983,None,,,,,,,,,,,,,,,,,00046,001,2026-01-24_12h31.51.771,MST_task,2024.2.0,59.762968112939966,2026-01-24 12h31.58.215300 +0530,
,Objects\099a.jpg,166,0,167,,,,,,,f,1.374372599995695,0.16803239996079355,None,,,,,,167,0,166,768.9188847999903,,,,,,,,,,,,,,,,,,,,,,,768.9031712999567,768.9188847999903,769.4191368999891,769.4026739999535,,,,,,,,,,,,,,,,,,,,,,,,,,769.4121735999943,769.4191368999891,769.4191368999891,769.4191368999891,772.4032902999897,f,1.374372599995695,0.16803239996079355,772.4034793999745,772.4035546999658,None,,,,,772.4188419999555,772.4188419999555,772.4188419999555,,,,,,,,,,00046,001,2026-01-24_12h31.51.771,MST_task,2024.2.0,59.762968112939966,2026-01-24 12h31.58.215300 +0530,
