thisN,thisTrialN,thisRepN,key_resp_3.keys,key_resp_3.rt,key_resp_3.duration,trials.thisRepN,trials.thisTrialN,trials.thisN,thisRow.t,notes,intro_page.started,text.started,key_resp.started,intro_page.stopped,key_resp.keys,key_resp.rt,key_resp.duration,instructions.started,text_2.started,key_resp_2.started,instructions.stopped,key_resp_2.keys,key_resp_2.rt,key_resp_2.duration,demo1.started,image_1.started,image_2.started,text_7.started,key_resp_6.started,text_9.started,demo1.stopped,key_resp_6.keys,key_resp_6.rt,key_resp_6.duration,demo2.started,image_5.started,image_6.started,text_11.started,text_12.started,key_resp_8.started,demo2.stopped,key_resp_8.keys,key_resp_8.rt,key_resp_8.duration,demo_conclusion.started,text_13.started,key_resp_9.started,demo_conclusion.stopped,key_resp_9.keys,key_resp_9.rt,key_resp_9.duration,start_test.started,text_6.started,key_resp_5.started,start_test.stopped,key_resp_5.keys,key_resp_5.rt,key_resp_5.duration,ISI.started,text_4.started,text_4.stopped,ISI.stopped,routine_1.started,image.started,text_3.started,key_resp_3.started,routine_1.stopped,image_path,position_of_stimuli,trials.key_resp_3.keys,trials.key_resp_3.rt,trials.key_resp_3.duration,End_page.started,text_5.started,key_resp_4.started,End_page.stopped,key_resp_4.keys,key_resp_4.rt,key_resp_4.duration,participant,session,date,expName,psychopyVersion,frameRate,expStart,
,,,,,,,,,,,0.0013330999645404518,0.003338599984999746,0.003338599984999746,2.6161340999533422,space,2.602934299968183,None,,,,,,,,,,,,,,,,,,,,,,,,,,,,,,,,,,,,,,,,,,,,,,,,,,,,,,,,,,,,,,,00047,001,2026-01-24_15h24.10.813,MST_test,2024.2.0,60.006900790251144,2026-01-24 15h24.19.850228 +0530,
,,,,,,,,,,,,,,,,,,2.616175299976021,2.6303548999712802,2.6303548999712802,11.280906799947843,space,8.648448100022506,None,,,,,,,,,,,,,,,,,,,,,,,,,,,,,,,,,,,,,,,,,,,,,,,,,,,,,,,,00047,001,2026-01-24_15h24.10.813,MST_test,2024.2.0,60.006900790251144,2026-01-24 15h24.19.850228 +0530,
,,,,,,,,,,,,,,,,,,,,,,,,,11.280947299965192,11.297104199999012,11.297104199999012,11.297104199999012,11.297104199999012,11.297104199999012,16.99768479994964,space,5.693268899980467,None,,,,,,,,,,,,,,,,,,,,,,,,,,,,,,,,,,,,,,,,,,,,,,00047,001,2026-01-24_15h24.10.813,MST_test,2024.2.0,60.006900790251144,2026-01-24 15h24.19.850228 +0530,
,,,,,,,,,,,,,,,,,,,,,,,,,,,,,,,,,,,16.997719299979508,17.01396609999938,17.01396609999938,17.01396609999938,17.01396609999938,17.01396609999938,18.914410699973814,space,1.8887768000131473,None,,,,,,,,,,,,,,,,,,,,,,,,,,,,,,,,,,,,00047,001,2026-01-24_15h24.10.813,MST_test,2024.2.0,60.006900790251144,2026-01-24 15h24.19.850228 +0530,
,,,,,,,,,,,,,,,,,,,,,,,,,,,,,,,,,,,,,,,,,,,,,18.914447899966035,18.92986439995002,18.92986439995002,30.31408509996254,space,11.380152700003237,None,,,,,,,,,,,,,,,,,,,,,,,,,,,,,00047,001,2026-01-24_15h24.10.813,MST_test,2024.2.0,60.006900790251144,2026-01-24 15h24.19.850228 +0530,
,,,,,,,,,,,,,,,,,,,,,,,,,,,,,,,,,,,,,,,,,,,,,,,,,,,,30.314129399950616,30.33001699997112,30.33001699997112,103.11412889999337,space,72.78033590002451,None,,,,,,,,,,,,,,,,,,,,,,00047,001,2026-01-24_15h24.10.813,MST_test,2024.2.0,60.006900790251144,2026-01-24 15h24.19.850228 +0530,
0,0,1,n,2.4778718999587,None,1,0,0,103.13013489998411,,,,,,,,,,,,,,,,,,,,,,,,,,,,,,,,,,,,,,,,,,,,,,,,,,103.1186567999539,103.13013489998411,103.6325772999553,103.61376809998183,103.62953359994572,103.6325772999553,103.6325772999553,103.6325772999553,106.1154053999926,Scenes\106b.jpg,mid,n,2.4778718999587,None,,,,,,,,00047,001,2026-01-24_15h24.10.813,MST_test,2024.2.0,60.006900790251144,2026-01-24 15h24.19.850228 +0530,
1,0,2,o,2.280243100016378,None,2,0,1,106.12992409995059,,,,,,,,,,,,,,,,,,,,,,,,,,,,,,,,,,,,,,,,,,,,,,,,,,106.11552999995183,106.12992409995059,106.63014039996779,106.6136493999511,106.61917689995607,106.63014039996779,106.63014039996779,106.63014039996779,108.91423879994545,Objects\057a.jpg,pre,o,2.280243100016378,None,,,,,,,,00047,001,2026-01-24_15h24.10.813,MST_test,2024.2.0,60.006900790251144,2026-01-24 15h24.19.850228 +0530,
2,0,3,s,2.845555699954275,None,3,0,2,108.92988129996229,,,,,,,,,,,,,,,,,,,,,,,,,,,,,,,,,,,,,,,,,,,,,,,,,,108.91435789997922,108.92988129996229,109.432886399969,109.41376989998389,109.4302941999631,109.432886399969,109.432886399969,109.432886399969,112.28073479997693,Scenes\051b.jpg,pre,s,2.845555699954275,None,,,,,,,,00047,001,2026-01-24_15h24.10.813,MST_test,2024.2.0,60.006900790251144,2026-01-24 15h24.19.850228 +0530,
3,0,4,s,1.2025229000137188,None,4,0,3,112.29663429997163,,,,,,,,,,,,,,,,,,,,,,,,,,,,,,,,,,,,,,,,,,,,,,,,,,112.28086519998033,112.29663429997163,112.79710729996441,112.77996089996304,112.79063959995983,112.79710729996441,112.79710729996441,112.79710729996441,114.01443039998412,Objects\047b.jpg,post,s,1.2025229000137188,None,,,,,,,,00047,001,2026-01-24_15h24.10.813,MST_test,2024.2.0,60.006900790251144,2026-01-24 15h24.19.850228 +0530,
4,0,5,s,2.764283299969975,None,5,0,4,114.03039119997993,,,,,,,,,,,,,,,,,,,,,,,,,,,,,,,,,,,,,,,,,,,,,,,,,,114.01455189997796,114.03039119997993,114.53038499999093,114.51394089998212,114.52571319998242,114.53038499999093,114.53038499999093,114.53038499999093,117.29766959999688,Scenes\128a.jpg,post,s,2.764283299969975,None,,,,,,,,00047,001,2026-01-24_15h24.10.813,MST_test,2024.2.0,60.006900790251144,2026-01-24 15h24.19.850228 +0530,
5,0,6,s,1.758304400020279,None,6,0,5,117.31359199999133,,,,,,,,,,,,,,,,,,,,,,,,,,,,,,,,,,,,,,,,,,,,,,,,,,117.29777529998682,117.31359199999133,117.81622879998758,117.79747849999694,117.81289760000072,117.81622879998758,117.81622879998758,117.81622879998758,119.58148329996038,Scenes\176b.jpg,pre,s,1.758304400020279,None,,,,,,,,00047,001,2026-01-24_15h24.10.813,MST_test,2024.2.0,60.006900790251144,2026-01-24 15h24.19.850228 +0530,
6,0,7,s,2.9576160999713466,None,7,0,6,119.59669769997708,,,,,,,,,,,,,,,,,,,,,,,,,,,,,,,,,,,,,,,,,,,,,,,,,,119.58160089998273,119.59669769997708,120.10485629999312,120.0803728000028,120.10232769994764,120.10485629999312,120.10485629999312,120.10485629999312,123.0648137999815,Scenes\029b.jpg,mid,s,2.9576160999713466,None,,,,,,,,00047,001,2026-01-24_15h24.10.813,MST_test,2024.2.0,60.006900790251144,2026-01-24 15h24.19.850228 +0530,
7,0,8,o,2.3225325999665074,None,8,0,7,123.080147199973,,,,,,,,,,,,,,,,,,,,,,,,,,,,,,,,,,,,,,,,,,,,,,,,,,123.06492569996044,123.080147199973,123.58790859999135,123.56363679998321,123.58442169998307,123.58790859999135,123.58790859999135,123.58790859999135,125.91422359994613,Scenes\076b.jpg,post,o,2.3225325999665074,None,,,,,,,,00047,001,2026-01-24_15h24.10.813,MST_test,2024.2.0,60.006900790251144,2026-01-24 15h24.19.850228 +0530,
8,0,9,o,1.1115451999939978,None,9,0,8,125.93001769995317,,,,,,,,,,,,,,,,,,,,,,,,,,,,,,,,,,,,,,,,,,,,,,,,,,125.91435579996323,125.93001769995317,126.43059899995569,126.41393359994981,126.41715379996458,126.43059899995569,126.43059899995569,126.43059899995569,127.54751019994728,Objects\165a.jpg,post,o,1.1115451999939978,None,,,,,,,,00047,001,2026-01-24_15h24.10.813,MST_test,2024.2.0,60.006900790251144,2026-01-24 15h24.19.850228 +0530,
9,0,10,s,1.7101599000161514,None,10,0,9,127.56328649999341,,,,,,,,,,,,,,,,,,,,,,,,,,,,,,,,,,,,,,,,,,,,,,,,,,127.54762519994983,127.56328649999341,128.06365069997264,128.04763879999518,128.05077159998473,128.06365069997264,128.06365069997264,128.06365069997264,129.78053219994763,Objects\116a.jpg,post,s,1.7101599000161514,None,,,,,,,,00047,001,2026-01-24_15h24.10.813,MST_test,2024.2.0,60.006900790251144,2026-01-24 15h24.19.850228 +0530,
10,0,11,n,2.397385799966287,None,11,0,10,129.79680630000075,,,,,,,,,,,,,,,,,,,,,,,,,,,,,,,,,,,,,,,,,,,,,,,,,,129.78064699994866,129.79680630000075,130.2970614999649,130.28004929999588,130.28346889995737,130.2970614999649,130.2970614999649,130.2970614999649,132.69782869995106,Foils\scenes30.jpg,none,n,2.397385799966287,None,,,,,,,,00047,001,2026-01-24_15h24.10.813,MST_test,2024.2.0,60.006900790251144,2026-01-24 15h24.19.850228 +0530,
11,0,12,s,1.493118099984713,None,12,0,11,132.7137435999466,,,,,,,,,,,,,,,,,,,,,,,,,,,,,,,,,,,,,,,,,,,,,,,,,,132.69794639997417,132.7137435999466,133.21733699995093,133.19691249995958,133.21437069994863,133.21733699995093,133.21733699995093,133.21733699995093,134.7144783999538,Scenes\083b.jpg,post,s,1.493118099984713,None,,,,,,,,00047,001,2026-01-24_15h24.10.813,MST_test,2024.2.0,60.006900790251144,2026-01-24 15h24.19.850228 +0530,
12,0,13,s,2.363102700037416,None,13,0,12,134.73011059995042,,,,,,,,,,,,,,,,,,,,,,,,,,,,,,,,,,,,,,,,,,,,,,,,,,134.7145937999594,134.73011059995042,135.23556029994506,135.21367629995802,135.2332256999798,135.23556029994506,135.23556029994506,135.23556029994506,137.61468229995808,Scenes\031b.jpg,mid,s,2.363102700037416,None,,,,,,,,00047,001,2026-01-24_15h24.10.813,MST_test,2024.2.0,60.006900790251144,2026-01-24 15h24.19.850228 +0530,
13,0,14,n,2.1560027000377886,None,14,0,13,137.62990119995084,,,,,,,,,,,,,,,,,,,,,,,,,,,,,,,,,,,,,,,,,,,,,,,,,,137.61478750000242,137.62990119995084,138.13031229999615,138.1141743999906,138.11823879997246,138.13031229999615,138.13031229999615,138.13031229999615,140.29790879995562,Foils\049a.jpg,none,n,2.1560027000377886,None,,,,,,,,00047,001,2026-01-24_15h24.10.813,MST_test,2024.2.0,60.006900790251144,2026-01-24 15h24.19.850228 +0530,
14,0,15,s,1.4321941999951378,None,15,0,14,140.3134789999458,,,,,,,,,,,,,,,,,,,,,,,,,,,,,,,,,,,,,,,,,,,,,,,,,,140.2980203999905,140.3134789999458,140.81386719999136,140.7970066999551,140.81010189995868,140.81386719999136,140.81386719999136,140.81386719999136,142.2478957999847,Objects\048b.jpg,mid,s,1.4321941999951378,None,,,,,,,,00047,001,2026-01-24_15h24.10.813,MST_test,2024.2.0,60.006900790251144,2026-01-24 15h24.19.850228 +0530,
15,0,16,o,1.8347648999770172,None,16,0,15,142.2631763999816,,,,,,,,,,,,,,,,,,,,,,,,,,,,,,,,,,,,,,,,,,,,,,,,,,142.24800609995145,142.2631763999816,142.76360799995018,142.7475037999684,142.7508418999496,142.76360799995018,142.76360799995018,142.76360799995018,144.6140757999965,Objects\062b.jpg,pre,o,1.8347648999770172,None,,,,,,,,00047,001,2026-01-24_15h24.10.813,MST_test,2024.2.0,60.006900790251144,2026-01-24 15h24.19.850228 +0530,
16,0,17,n,2.196105399983935,None,17,0,16,144.63003859994933,,,,,,,,,,,,,,,,,,,,,,,,,,,,,,,,,,,,,,,,,,,,,,,,,,144.61419059999753,144.63003859994933,,145.11416999995708,145.11783269996522,145.13004769996041,145.13004769996041,145.13004769996041,147.33095350000076,Foils\113a.jpg,none,n,2.196105399983935,None,,,,,,,,00047,001,2026-01-24_15h24.10.813,MST_test,2024.2.0,60.006900790251144,2026-01-24 15h24.19.850228 +0530,
17,0,18,o,1.8226947000366636,None,18,0,17,147.3468189999694,,,,,,,,,,,,,,,,,,,,,,,,,,,,,,,,,,,,,,,,,,,,,,,,,,147.33107229997404,147.3468189999694,147.84758369997144,147.83125879999716,147.84162669995567,147.84758369997144,147.84758369997144,147.84758369997144,149.68128879996948,Objects\104b.jpg,pre,o,1.8226947000366636,None,,,,,,,,00047,001,2026-01-24_15h24.10.813,MST_test,2024.2.0,60.006900790251144,2026-01-24 15h24.19.850228 +0530,
18,0,19,o,1.2733096000156365,None,19,0,18,149.69701329997042,,,,,,,,,,,,,,,,,,,,,,,,,,,,,,,,,,,,,,,,,,,,,,,,,,149.6814048999804,149.69701329997042,150.1972412999603,150.1800597999827,150.19139079999877,150.1972412999603,150.1972412999603,150.1972412999603,151.48070179997012,Scenes\122a.jpg,mid,o,1.2733096000156365,None,,,,,,,,00047,001,2026-01-24_15h24.10.813,MST_test,2024.2.0,60.006900790251144,2026-01-24 15h24.19.850228 +0530,
19,0,20,s,2.8751498999772593,None,20,0,19,151.4968980999547,,,,,,,,,,,,,,,,,,,,,,,,,,,,,,,,,,,,,,,,,,,,,,,,,,151.48081709997496,151.4968980999547,152.00376659998437,151.9803395999479,152.00104539998574,152.00376659998437,152.00376659998437,152.00376659998437,154.88096169999335,Scenes\171b.jpg,pre,s,2.8751498999772593,None,,,,,,,,00047,001,2026-01-24_15h24.10.813,MST_test,2024.2.0,60.006900790251144,2026-01-24 15h24.19.850228 +0530,
20,0,21,s,2.120525299978908,None,21,0,20,154.89657019998413,,,,,,,,,,,,,,,,,,,,,,,,,,,,,,,,,,,,,,,,,,,,,,,,,,154.8810779999476,154.89657019998413,155.39748569997028,155.38024709996535,155.39189049997367,155.39748569997028,155.39748569997028,155.39748569997028,157.53080119995866,Objects\149b.jpg,mid,s,2.120525299978908,None,,,,,,,,00047,001,2026-01-24_15h24.10.813,MST_test,2024.2.0,60.006900790251144,2026-01-24 15h24.19.850228 +0530,
21,0,22,s,1.2235835999599658,None,22,0,21,157.5465926999459,,,,,,,,,,,,,,,,,,,,,,,,,,,,,,,,,,,,,,,,,,,,,,,,,,157.53092079999624,157.5465926999459,158.04684579995228,158.03099599998677,158.04188609996345,158.04684579995228,158.04684579995228,158.04684579995228,159.28070199996,Objects\042b.jpg,pre,s,1.2235835999599658,None,,,,,,,,00047,001,2026-01-24_15h24.10.813,MST_test,2024.2.0,60.006900790251144,2026-01-24 15h24.19.850228 +0530,
22,0,23,s,1.0015173999709077,None,23,0,22,159.29687719995854,,,,,,,,,,,,,,,,,,,,,,,,,,,,,,,,,,,,,,,,,,,,,,,,,,159.28082269994775,159.29687719995854,159.79688270000042,159.7801524999668,159.79134089994477,159.79688270000042,159.79688270000042,159.79688270000042,160.81417829997372,Objects\050b.jpg,mid,s,1.0015173999709077,None,,,,,,,,00047,001,2026-01-24_15h24.10.813,MST_test,2024.2.0,60.006900790251144,2026-01-24 15h24.19.850228 +0530,
23,0,24,o,1.2841604000423104,None,24,0,23,160.830067999952,,,,,,,,,,,,,,,,,,,,,,,,,,,,,,,,,,,,,,,,,,,,,,,,,,160.81429229996866,160.830067999952,161.33011290000286,161.3138825999922,161.31664019997697,161.33011290000286,161.33011290000286,161.33011290000286,162.63054609997198,Objects\007a.jpg,post,o,1.2841604000423104,None,,,,,,,,00047,001,2026-01-24_15h24.10.813,MST_test,2024.2.0,60.006900790251144,2026-01-24 15h24.19.850228 +0530,
24,0,25,s,1.8255031000007875,None,25,0,24,162.64675179996993,,,,,,,,,,,,,,,,,,,,,,,,,,,,,,,,,,,,,,,,,,,,,,,,,,162.63067299994873,162.64675179996993,163.14910439995583,163.13052409997908,163.14649719995214,163.14910439995583,163.14910439995583,163.14910439995583,164.98080129997106,Scenes\138b.jpg,mid,s,1.8255031000007875,None,,,,,,,,00047,001,2026-01-24_15h24.10.813,MST_test,2024.2.0,60.006900790251144,2026-01-24 15h24.19.850228 +0530,
25,0,26,o,1.419867400021758,None,26,0,25,164.9968525999575,,,,,,,,,,,,,,,,,,,,,,,,,,,,,,,,,,,,,,,,,,,,,,,,,,164.9809175999835,164.9968525999575,165.49800039996626,165.48025229998166,165.49250489997212,165.49800039996626,165.49800039996626,165.49800039996626,166.93069269997068,Scenes\094a.jpg,mid,o,1.419867400021758,None,,,,,,,,00047,001,2026-01-24_15h24.10.813,MST_test,2024.2.0,60.006900790251144,2026-01-24 15h24.19.850228 +0530,
26,0,27,s,1.4490177999832667,None,27,0,26,166.9468065999681,,,,,,,,,,,,,,,,,,,,,,,,,,,,,,,,,,,,,,,,,,,,,,,,,,166.93081199994776,166.9468065999681,167.45287469995674,167.43071220000274,167.45028879999882,167.45287469995674,167.45287469995674,167.45287469995674,168.91413819999434,Scenes\063b.jpg,post,s,1.4490177999832667,None,,,,,,,,00047,001,2026-01-24_15h24.10.813,MST_test,2024.2.0,60.006900790251144,2026-01-24 15h24.19.850228 +0530,
27,0,28,s,3.416289900022093,None,28,0,27,168.93036549998214,,,,,,,,,,,,,,,,,,,,,,,,,,,,,,,,,,,,,,,,,,,,,,,,,,168.91426150000188,168.93036549998214,169.43064829998184,169.41428819997236,169.41747549996944,169.43064829998184,169.43064829998184,169.43064829998184,172.84820829995442,Foils\scenes7.jpg,none,s,3.416289900022093,None,,,,,,,,00047,001,2026-01-24_15h24.10.813,MST_test,2024.2.0,60.006900790251144,2026-01-24 15h24.19.850228 +0530,
28,0,29,s,3.446377699961886,None,29,0,28,172.8638987999875,,,,,,,,,,,,,,,,,,,,,,,,,,,,,,,,,,,,,,,,,,,,,,,,,,172.848325799976,172.8638987999875,173.36843509995379,173.34718959999736,173.3660094999941,173.36843509995379,173.36843509995379,173.36843509995379,176.83054059999995,Scenes\133b.jpg,post,s,3.446377699961886,None,,,,,,,,00047,001,2026-01-24_15h24.10.813,MST_test,2024.2.0,60.006900790251144,2026-01-24 15h24.19.850228 +0530,
29,0,30,o,1.3627166000078432,None,30,0,29,176.84660900000017,,,,,,,,,,,,,,,,,,,,,,,,,,,,,,,,,,,,,,,,,,,,,,,,,,176.83065359998727,176.84660900000017,177.3475767999771,177.33076509996317,177.33427149994532,177.3475767999771,177.3475767999771,177.3475767999771,178.71428969997214,Objects\169a.jpg,mid,o,1.3627166000078432,None,,,,,,,,00047,001,2026-01-24_15h24.10.813,MST_test,2024.2.0,60.006900790251144,2026-01-24 15h24.19.850228 +0530,
30,0,31,s,1.4804467000067234,None,31,0,30,178.73046529997373,,,,,,,,,,,,,,,,,,,,,,,,,,,,,,,,,,,,,,,,,,,,,,,,,,178.71442829997977,178.73046529997373,179.2382074999623,179.21410699997796,179.23553779994836,179.2382074999623,179.2382074999623,179.2382074999623,180.73125229997095,Scenes\114b.jpg,pre,s,1.4804467000067234,None,,,,,,,,00047,001,2026-01-24_15h24.10.813,MST_test,2024.2.0,60.006900790251144,2026-01-24 15h24.19.850228 +0530,
31,0,32,s,1.3501369999721646,None,32,0,31,180.74682199995732,,,,,,,,,,,,,,,,,,,,,,,,,,,,,,,,,,,,,,,,,,,,,,,,,,180.73137909994693,180.74682199995732,181.24764279997908,181.2304182999651,181.23378409998259,181.24764279997908,181.24764279997908,181.24764279997908,182.61429089994635,Objects\041a.jpg,pre,s,1.3501369999721646,None,,,,,,,,00047,001,2026-01-24_15h24.10.813,MST_test,2024.2.0,60.006900790251144,2026-01-24 15h24.19.850228 +0530,
32,0,33,s,3.06808340002317,None,33,0,32,182.6301845999551,,,,,,,,,,,,,,,,,,,,,,,,,,,,,,,,,,,,,,,,,,,,,,,,,,182.6144133999478,182.6301845999551,183.13005099998554,183.11363789997995,183.1186176999472,183.13005099998554,183.13005099998554,183.13005099998554,186.2151228999719,Foils\scenes11.jpg,none,s,3.06808340002317,None,,,,,,,,00047,001,2026-01-24_15h24.10.813,MST_test,2024.2.0,60.006900790251144,2026-01-24 15h24.19.850228 +0530,
33,0,34,s,1.571715000027325,None,34,0,33,186.22993659996428,,,,,,,,,,,,,,,,,,,,,,,,,,,,,,,,,,,,,,,,,,,,,,,,,,186.2152470999863,186.22993659996428,186.73030449997168,186.71396480000112,186.71716649999144,186.73030449997168,186.73030449997168,186.73030449997168,188.31472779996693,Foils\scenes5.jpg,none,s,1.571715000027325,None,,,,,,,,00047,001,2026-01-24_15h24.10.813,MST_test,2024.2.0,60.006900790251144,2026-01-24 15h24.19.850228 +0530,
34,0,35,n,0.7994154000189155,None,35,0,34,188.3299776999629,,,,,,,,,,,,,,,,,,,,,,,,,,,,,,,,,,,,,,,,,,,,,,,,,,188.31485269998666,188.3299776999629,188.8307080999948,188.8137899999856,188.82587369997054,188.8307080999948,188.8307080999948,188.8307080999948,189.63083909999114,Foils\020b.jpg,none,n,0.7994154000189155,None,,,,,,,,00047,001,2026-01-24_15h24.10.813,MST_test,2024.2.0,60.006900790251144,2026-01-24 15h24.19.850228 +0530,
35,0,36,s,2.7383463999722153,None,36,0,35,189.64689979999093,,,,,,,,,,,,,,,,,,,,,,,,,,,,,,,,,,,,,,,,,,,,,,,,,,189.63096809998387,189.64689979999093,190.14747769996757,190.13041159999557,190.136744599964,190.14747769996757,190.14747769996757,190.14747769996757,192.89752249995945,Scenes\118a.jpg,post,s,2.7383463999722153,None,,,,,,,,00047,001,2026-01-24_15h24.10.813,MST_test,2024.2.0,60.006900790251144,2026-01-24 15h24.19.850228 +0530,
36,0,37,o,1.272523200022988,None,37,0,36,192.91332809999585,,,,,,,,,,,,,,,,,,,,,,,,,,,,,,,,,,,,,,,,,,,,,,,,,,192.8976330999867,192.91332809999585,193.41429419995984,193.3969839999918,193.40872249996755,193.41429419995984,193.41429419995984,193.41429419995984,194.69745159999002,Objects\085b.jpg,mid,o,1.272523200022988,None,,,,,,,,00047,001,2026-01-24_15h24.10.813,MST_test,2024.2.0,60.006900790251144,2026-01-24 15h24.19.850228 +0530,
37,0,38,s,3.3445477000204846,None,38,0,37,194.71389839996118,,,,,,,,,,,,,,,,,,,,,,,,,,,,,,,,,,,,,,,,,,,,,,,,,,194.69756719999714,194.71389839996118,195.21367469994584,195.1971470999997,195.20791419997113,195.21367469994584,195.21367469994584,195.21367469994584,198.56469569995534,Foils\042a.jpg,none,s,3.3445477000204846,None,,,,,,,,00047,001,2026-01-24_15h24.10.813,MST_test,2024.2.0,60.006900790251144,2026-01-24 15h24.19.850228 +0530,
38,0,39,o,1.1182398999808356,None,39,0,38,198.57984969997779,,,,,,,,,,,,,,,,,,,,,,,,,,,,,,,,,,,,,,,,,,,,,,,,,,198.5648225999903,198.57984969997779,199.0803109999979,199.06400659994688,199.072311899974,199.0803109999979,199.0803109999979,199.0803109999979,200.2141435999656,Scenes\095a.jpg,pre,o,1.1182398999808356,None,,,,,,,,00047,001,2026-01-24_15h24.10.813,MST_test,2024.2.0,60.006900790251144,2026-01-24 15h24.19.850228 +0530,
39,0,40,o,1.0917030000127852,None,40,0,39,200.23040959995706,,,,,,,,,,,,,,,,,,,,,,,,,,,,,,,,,,,,,,,,,,,,,,,,,,200.21426269999938,200.23040959995706,200.73062479996588,200.713847099978,200.726760199992,200.73062479996588,200.73062479996588,200.73062479996588,201.83056209998904,Scenes\011a.jpg,pre,o,1.0917030000127852,None,,,,,,,,00047,001,2026-01-24_15h24.10.813,MST_test,2024.2.0,60.006900790251144,2026-01-24 15h24.19.850228 +0530,
40,0,41,o,0.9184445000137202,None,41,0,40,201.84677979996195,,,,,,,,,,,,,,,,,,,,,,,,,,,,,,,,,,,,,,,,,,,,,,,,,,201.8306806999608,201.84677979996195,202.35190239996882,202.33016329997918,202.34852639999008,202.35190239996882,202.35190239996882,202.35190239996882,203.28072239999892,Scenes\173b.jpg,pre,o,0.9184445000137202,None,,,,,,,,00047,001,2026-01-24_15h24.10.813,MST_test,2024.2.0,60.006900790251144,2026-01-24 15h24.19.850228 +0530,
41,0,42,o,0.8810458999942057,None,42,0,41,203.29675009998027,,,,,,,,,,,,,,,,,,,,,,,,,,,,,,,,,,,,,,,,,,,,,,,,,,203.28084449999733,203.29675009998027,203.7973590999609,203.78016139997635,203.79125369997928,203.7973590999609,203.7973590999609,203.7973590999609,204.6816105999751,Scenes\040a.jpg,mid,o,0.8810458999942057,None,,,,,,,,00047,001,2026-01-24_15h24.10.813,MST_test,2024.2.0,60.006900790251144,2026-01-24 15h24.19.850228 +0530,
42,0,43,o,0.8977544000372291,None,43,0,42,204.69697579997592,,,,,,,,,,,,,,,,,,,,,,,,,,,,,,,,,,,,,,,,,,,,,,,,,,204.68173149996437,204.69697579997592,205.19710150000174,205.18037349998485,205.18840599997202,205.19710150000174,205.19710150000174,205.19710150000174,206.0974670999567,Scenes\109a.jpg,pre,o,0.8977544000372291,None,,,,,,,,00047,001,2026-01-24_15h24.10.813,MST_test,2024.2.0,60.006900790251144,2026-01-24 15h24.19.850228 +0530,
43,0,44,s,2.0076512999949045,None,44,0,43,206.11329809995368,,,,,,,,,,,,,,,,,,,,,,,,,,,,,,,,,,,,,,,,,,,,,,,,,,206.09757979999995,206.11329809995368,206.61418259999482,206.59721929999068,206.60862509999424,206.61418259999482,206.61418259999482,206.61418259999482,208.63051160000032,Objects\073b.jpg,post,s,2.0076512999949045,None,,,,,,,,00047,001,2026-01-24_15h24.10.813,MST_test,2024.2.0,60.006900790251144,2026-01-24 15h24.19.850228 +0530,
44,0,45,o,0.8430827000411227,None,45,0,44,208.64660399995046,,,,,,,,,,,,,,,,,,,,,,,,,,,,,,,,,,,,,,,,,,,,,,,,,,208.63063209998654,208.64660399995046,209.14711510000052,209.13004299998283,209.140497699962,209.14711510000052,209.14711510000052,209.14711510000052,209.99763899995014,Scenes\035a.jpg,pre,o,0.8430827000411227,None,,,,,,,,00047,001,2026-01-24_15h24.10.813,MST_test,2024.2.0,60.006900790251144,2026-01-24 15h24.19.850228 +0530,
45,0,46,n,3.3884388000005856,None,46,0,45,210.01339489995735,,,,,,,,,,,,,,,,,,,,,,,,,,,,,,,,,,,,,,,,,,,,,,,,,,209.997756799974,210.01339489995735,210.51400479994481,210.49692419997882,210.50814839999657,210.51400479994481,210.51400479994481,210.51400479994481,213.9142091999529,Objects\134b.jpg,pre,n,3.3884388000005856,None,,,,,,,,00047,001,2026-01-24_15h24.10.813,MST_test,2024.2.0,60.006900790251144,2026-01-24 15h24.19.850228 +0530,
46,0,47,s,1.488220899947919,None,47,0,46,213.92967569996836,,,,,,,,,,,,,,,,,,,,,,,,,,,,,,,,,,,,,,,,,,,,,,,,,,213.9143229999463,213.92967569996836,,214.41449959995225,214.42612729995744,214.43004289997043,214.43004289997043,214.43004289997043,215.9306866999832,Objects\138b.jpg,post,s,1.488220899947919,None,,,,,,,,00047,001,2026-01-24_15h24.10.813,MST_test,2024.2.0,60.006900790251144,2026-01-24 15h24.19.850228 +0530,
47,0,48,n,3.1276385000091977,None,48,0,47,215.9466236999724,,,,,,,,,,,,,,,,,,,,,,,,,,,,,,,,,,,,,,,,,,,,,,,,,,215.93080199998803,215.9466236999724,216.45462629996473,216.4302972999867,216.45170959999086,216.45462629996473,216.45462629996473,216.45462629996473,219.5974109999952,Scenes\149b.jpg,pre,n,3.1276385000091977,None,,,,,,,,00047,001,2026-01-24_15h24.10.813,MST_test,2024.2.0,60.006900790251144,2026-01-24 15h24.19.850228 +0530,
48,0,49,o,1.3086138000362553,None,49,0,48,219.61323139996966,,,,,,,,,,,,,,,,,,,,,,,,,,,,,,,,,,,,,,,,,,,,,,,,,,219.5975330999936,219.61323139996966,220.11362809996353,220.09737589996075,220.10816909995629,220.11362809996353,220.11362809996353,220.11362809996353,221.4308853999828,Scenes\174a.jpg,mid,o,1.3086138000362553,None,,,,,,,,00047,001,2026-01-24_15h24.10.813,MST_test,2024.2.0,60.006900790251144,2026-01-24 15h24.19.850228 +0530,
49,0,50,o,1.0189294000156224,None,50,0,49,221.44716219999827,,,,,,,,,,,,,,,,,,,,,,,,,,,,,,,,,,,,,,,,,,,,,,,,,,221.4309999999823,221.44716219999827,,221.93096779996995,221.9342001999612,221.94729529996403,221.94729529996403,221.94729529996403,222.9809232999687,Objects\023a.jpg,post,o,1.0189294000156224,None,,,,,,,,00047,001,2026-01-24_15h24.10.813,MST_test,2024.2.0,60.006900790251144,2026-01-24 15h24.19.850228 +0530,
50,0,51,n,2.877475500048604,None,51,0,50,222.99661360000027,,,,,,,,,,,,,,,,,,,,,,,,,,,,,,,,,,,,,,,,,,,,,,,,,,222.98103289998835,222.99661360000027,223.4967226999579,223.4806187999784,223.48427829996217,223.4967226999579,223.4967226999579,223.4967226999579,226.3805194000015,Foils\121a.jpg,none,n,2.877475500048604,None,,,,,,,,00047,001,2026-01-24_15h24.10.813,MST_test,2024.2.0,60.006900790251144,2026-01-24 15h24.19.850228 +0530,
51,0,52,n,1.116701099963393,None,52,0,51,226.39718099997845,,,,,,,,,,,,,,,,,,,,,,,,,,,,,,,,,,,,,,,,,,,,,,,,,,226.3806303999736,226.39718099997845,226.89738329994725,226.88035399996443,226.8940856999834,226.89738329994725,226.89738329994725,226.89738329994725,228.03083919995697,Scenes\117b.jpg,post,n,1.116701099963393,None,,,,,,,,00047,001,2026-01-24_15h24.10.813,MST_test,2024.2.0,60.006900790251144,2026-01-24 15h24.19.850228 +0530,
52,0,53,n,3.363812700030394,None,53,0,52,228.04656769998837,,,,,,,,,,,,,,,,,,,,,,,,,,,,,,,,,,,,,,,,,,,,,,,,,,228.0309490999789,228.04656769998837,228.54708649998065,228.53048059996217,228.54356159997405,228.54708649998065,228.54708649998065,228.54708649998065,231.9146520999493,Scenes\054a.jpg,pre,n,3.363812700030394,None,,,,,,,,00047,001,2026-01-24_15h24.10.813,MST_test,2024.2.0,60.006900790251144,2026-01-24 15h24.19.850228 +0530,
53,0,54,o,1.1280575999990106,None,54,0,53,231.92986749997362,,,,,,,,,,,,,,,,,,,,,,,,,,,,,,,,,,,,,,,,,,,,,,,,,,231.91477519995533,231.92986749997362,232.43051659996854,232.41412859997945,232.41822479997063,232.43051659996854,232.43051659996854,232.43051659996854,233.56444749998627,Objects\066a.jpg,mid,o,1.1280575999990106,None,,,,,,,,00047,001,2026-01-24_15h24.10.813,MST_test,2024.2.0,60.006900790251144,2026-01-24 15h24.19.850228 +0530,
54,0,55,s,3.069721700041555,None,55,0,54,233.58029789995635,,,,,,,,,,,,,,,,,,,,,,,,,,,,,,,,,,,,,,,,,,,,,,,,,,233.56455719994847,233.58029789995635,234.08016179996775,234.06359759997576,234.07559939997736,234.08016179996775,234.08016179996775,234.08016179996775,237.1641550999484,Scenes\045a.jpg,mid,s,3.069721700041555,None,,,,,,,,00047,001,2026-01-24_15h24.10.813,MST_test,2024.2.0,60.006900790251144,2026-01-24 15h24.19.850228 +0530,
55,0,56,s,1.0299829000141472,None,56,0,55,237.1798509999644,,,,,,,,,,,,,,,,,,,,,,,,,,,,,,,,,,,,,,,,,,,,,,,,,,237.1642767000012,237.1798509999644,237.68061819998547,237.66428949998226,237.67549409996718,237.68061819998547,237.68061819998547,237.68061819998547,238.7146043999819,Objects\164b.jpg,post,s,1.0299829000141472,None,,,,,,,,00047,001,2026-01-24_15h24.10.813,MST_test,2024.2.0,60.006900790251144,2026-01-24 15h24.19.850228 +0530,
56,0,57,s,1.3442773999995552,None,57,0,56,238.72989909996977,,,,,,,,,,,,,,,,,,,,,,,,,,,,,,,,,,,,,,,,,,,,,,,,,,238.71471759997075,238.72989909996977,239.23023469996406,239.21420459996443,239.21722379996208,239.23023469996406,239.23023469996406,239.23023469996406,240.5807877999614,Objects\011a.jpg,post,s,1.3442773999995552,None,,,,,,,,00047,001,2026-01-24_15h24.10.813,MST_test,2024.2.0,60.006900790251144,2026-01-24 15h24.19.850228 +0530,
57,0,58,o,2.1669516999972984,None,58,0,57,240.5965326000005,,,,,,,,,,,,,,,,,,,,,,,,,,,,,,,,,,,,,,,,,,,,,,,,,,240.58090739999898,240.5965326000005,241.09674849995645,241.08033749996684,241.09201349999057,241.09674849995645,241.09674849995645,241.09674849995645,243.26450839999598,Objects\172b.jpg,pre,o,2.1669516999972984,None,,,,,,,,00047,001,2026-01-24_15h24.10.813,MST_test,2024.2.0,60.006900790251144,2026-01-24 15h24.19.850228 +0530,
58,0,59,o,1.0576445999904536,None,59,0,58,243.27988319995347,,,,,,,,,,,,,,,,,,,,,,,,,,,,,,,,,,,,,,,,,,,,,,,,,,243.2646200999734,243.27988319995347,243.78047060000245,243.76372779998928,243.7666099999915,243.78047060000245,243.78047060000245,243.78047060000245,244.84816599998157,Objects\080a.jpg,pre,o,1.0576445999904536,None,,,,,,,,00047,001,2026-01-24_15h24.10.813,MST_test,2024.2.0,60.006900790251144,2026-01-24 15h24.19.850228 +0530,
59,0,60,s,1.523172799963504,None,60,0,59,244.8639282999793,,,,,,,,,,,,,,,,,,,,,,,,,,,,,,,,,,,,,,,,,,,,,,,,,,244.84827919997042,244.8639282999793,245.36348939995514,245.34725759999128,245.35816119995434,245.36348939995514,245.36348939995514,245.36348939995514,246.8975891000009,Objects\170b.jpg,pre,s,1.523172799963504,None,,,,,,,,00047,001,2026-01-24_15h24.10.813,MST_test,2024.2.0,60.006900790251144,2026-01-24 15h24.19.850228 +0530,
60,0,61,o,1.1120769000262953,None,61,0,60,246.91391179995844,,,,,,,,,,,,,,,,,,,,,,,,,,,,,,,,,,,,,,,,,,,,,,,,,,246.8977049999521,246.91391179995844,247.41459119995125,247.39735129999463,247.40644539997447,247.41459119995125,247.41459119995125,247.41459119995125,248.53061439999146,Scenes\004b.jpg,mid,o,1.1120769000262953,None,,,,,,,,00047,001,2026-01-24_15h24.10.813,MST_test,2024.2.0,60.006900790251144,2026-01-24 15h24.19.850228 +0530,
61,0,62,n,1.3300938000320457,None,62,0,61,248.54663239995716,,,,,,,,,,,,,,,,,,,,,,,,,,,,,,,,,,,,,,,,,,,,,,,,,,248.53076389996568,248.54663239995716,249.06070799997542,249.03031969995936,249.05794089997653,249.06070799997542,249.06070799997542,249.06070799997542,250.3973461999558,Foils\scenes28.jpg,none,n,1.3300938000320457,None,,,,,,,,00047,001,2026-01-24_15h24.10.813,MST_test,2024.2.0,60.006900790251144,2026-01-24 15h24.19.850228 +0530,
62,0,63,s,1.3237799999769777,None,63,0,62,250.4131641999702,,,,,,,,,,,,,,,,,,,,,,,,,,,,,,,,,,,,,,,,,,,,,,,,,,250.39746690000175,250.4131641999702,250.91403239994543,250.8970659999759,250.9097789999796,250.91403239994543,250.91403239994543,250.91403239994543,252.24747679999564,Objects\054b.jpg,mid,s,1.3237799999769777,None,,,,,,,,00047,001,2026-01-24_15h24.10.813,MST_test,2024.2.0,60.006900790251144,2026-01-24 15h24.19.850228 +0530,
63,0,64,s,1.4909772000391968,None,64,0,63,252.263685599959,,,,,,,,,,,,,,,,,,,,,,,,,,,,,,,,,,,,,,,,,,,,,,,,,,252.24759699997958,252.263685599959,252.76347799994983,252.74693039996782,252.7583182999515,252.76347799994983,252.76347799994983,252.76347799994983,254.2645967999706,Objects\102b.jpg,post,s,1.4909772000391968,None,,,,,,,,00047,001,2026-01-24_15h24.10.813,MST_test,2024.2.0,60.006900790251144,2026-01-24 15h24.19.850228 +0530,
64,0,65,o,1.4816071999957785,None,65,0,64,254.2799348999979,,,,,,,,,,,,,,,,,,,,,,,,,,,,,,,,,,,,,,,,,,,,,,,,,,254.26474049995886,254.2799348999979,254.78041179996217,254.76449889998185,254.77549629996065,254.78041179996217,254.78041179996217,254.78041179996217,256.2646174999536,Scenes\070a.jpg,post,o,1.4816071999957785,None,,,,,,,,00047,001,2026-01-24_15h24.10.813,MST_test,2024.2.0,60.006900790251144,2026-01-24 15h24.19.850228 +0530,
65,0,66,s,1.2503052999963984,None,66,0,65,256.27965149999363,,,,,,,,,,,,,,,,,,,,,,,,,,,,,,,,,,,,,,,,,,,,,,,,,,256.26473479997367,256.27965149999363,256.7802822999656,256.7641554999864,256.7778751999722,256.7802822999656,256.7802822999656,256.7802822999656,258.0477250999538,Objects\142b.jpg,pre,s,1.2503052999963984,None,,,,,,,,00047,001,2026-01-24_15h24.10.813,MST_test,2024.2.0,60.006900790251144,2026-01-24 15h24.19.850228 +0530,
66,0,67,s,2.1792580000474118,None,67,0,66,258.0632266999455,,,,,,,,,,,,,,,,,,,,,,,,,,,,,,,,,,,,,,,,,,,,,,,,,,258.0478392999503,258.0632266999455,258.5635878999601,258.5478252999601,258.55914569995366,258.5635878999601,258.5635878999601,258.5635878999601,260.74797949998174,Objects\137b.jpg,post,s,2.1792580000474118,None,,,,,,,,00047,001,2026-01-24_15h24.10.813,MST_test,2024.2.0,60.006900790251144,2026-01-24 15h24.19.850228 +0530,
67,0,68,o,1.2861655000015162,None,68,0,67,260.7633628999465,,,,,,,,,,,,,,,,,,,,,,,,,,,,,,,,,,,,,,,,,,,,,,,,,,260.7480897999485,260.7633628999465,261.2635830999934,261.2469387999736,261.24996309995186,261.2635830999934,261.2635830999934,261.2635830999934,262.5639633999672,Objects\191a.jpg,post,o,1.2861655000015162,None,,,,,,,,00047,001,2026-01-24_15h24.10.813,MST_test,2024.2.0,60.006900790251144,2026-01-24 15h24.19.850228 +0530,
68,0,69,s,1.431122099980712,None,69,0,68,262.5797376999981,,,,,,,,,,,,,,,,,,,,,,,,,,,,,,,,,,,,,,,,,,,,,,,,,,262.56407339998987,262.5797376999981,263.0874426999944,263.0642520999536,263.0845592999831,263.0874426999944,263.0874426999944,263.0874426999944,264.5308884999831,Scenes\183b.jpg,pre,s,1.431122099980712,None,,,,,,,,00047,001,2026-01-24_15h24.10.813,MST_test,2024.2.0,60.006900790251144,2026-01-24 15h24.19.850228 +0530,
69,0,70,n,1.1107685000170022,None,70,0,69,264.54680630000075,,,,,,,,,,,,,,,,,,,,,,,,,,,,,,,,,,,,,,,,,,,,,,,,,,264.53100359998643,264.54680630000075,265.0475266999565,265.03065759997116,265.037860899989,265.0475266999565,265.0475266999565,265.0475266999565,266.1644047999871,Scenes\178a.jpg,post,n,1.1107685000170022,None,,,,,,,,00047,001,2026-01-24_15h24.10.813,MST_test,2024.2.0,60.006900790251144,2026-01-24 15h24.19.850228 +0530,
70,0,71,s,1.3649371999781579,None,71,0,70,266.180266499985,,,,,,,,,,,,,,,,,,,,,,,,,,,,,,,,,,,,,,,,,,,,,,,,,,266.16451249999227,266.180266499985,266.6816635999712,266.66417569998885,266.6790729999775,266.6816635999712,266.6816635999712,266.6816635999712,268.0475477,Scenes\098b.jpg,pre,s,1.3649371999781579,None,,,,,,,,00047,001,2026-01-24_15h24.10.813,MST_test,2024.2.0,60.006900790251144,2026-01-24 15h24.19.850228 +0530,
71,0,72,o,1.8906418000115082,None,72,0,71,268.0633345999522,,,,,,,,,,,,,,,,,,,,,,,,,,,,,,,,,,,,,,,,,,,,,,,,,,268.0476637999527,268.0633345999522,,268.54780989995925,268.5519022999797,268.5637606999953,268.5637606999953,268.5637606999953,270.4640768999816,Foils\066a.jpg,none,o,1.8906418000115082,None,,,,,,,,00047,001,2026-01-24_15h24.10.813,MST_test,2024.2.0,60.006900790251144,2026-01-24 15h24.19.850228 +0530,
72,0,73,o,1.4661352999974042,None,73,0,72,270.47986909997417,,,,,,,,,,,,,,,,,,,,,,,,,,,,,,,,,,,,,,,,,,,,,,,,,,270.46418229996925,270.47986909997417,,270.9642372999806,270.9672223999514,270.9799856999889,270.9799856999889,270.9799856999889,272.4485006999457,Objects\109a.jpg,pre,o,1.4661352999974042,None,,,,,,,,00047,001,2026-01-24_15h24.10.813,MST_test,2024.2.0,60.006900790251144,2026-01-24 15h24.19.850228 +0530,
73,0,74,o,1.394289999967441,None,74,0,73,272.46368579997215,,,,,,,,,,,,,,,,,,,,,,,,,,,,,,,,,,,,,,,,,,,,,,,,,,272.44861679995665,272.46368579997215,272.9637026999844,272.9470107999514,272.9595772999455,272.9637026999844,272.9637026999844,272.9637026999844,274.36462419998134,Scenes\060b.jpg,pre,o,1.394289999967441,None,,,,,,,,00047,001,2026-01-24_15h24.10.813,MST_test,2024.2.0,60.006900790251144,2026-01-24 15h24.19.850228 +0530,
74,0,75,o,1.5182196000241674,None,75,0,74,274.38015269994503,,,,,,,,,,,,,,,,,,,,,,,,,,,,,,,,,,,,,,,,,,,,,,,,,,274.36473829997703,274.38015269994503,274.88028769998346,274.8639453999931,274.86793409998063,274.88028769998346,274.88028769998346,274.88028769998346,276.4145062000025,Objects\178a.jpg,pre,o,1.5182196000241674,None,,,,,,,,00047,001,2026-01-24_15h24.10.813,MST_test,2024.2.0,60.006900790251144,2026-01-24 15h24.19.850228 +0530,
75,0,76,s,1.5563851000042632,None,76,0,75,276.4304710999713,,,,,,,,,,,,,,,,,,,,,,,,,,,,,,,,,,,,,,,,,,,,,,,,,,276.4146359000006,276.4304710999713,276.9300480999518,276.9137957999483,276.9168673999957,276.9300480999518,276.9300480999518,276.9300480999518,278.4972103999462,Objects\031a.jpg,pre,s,1.5563851000042632,None,,,,,,,,00047,001,2026-01-24_15h24.10.813,MST_test,2024.2.0,60.006900790251144,2026-01-24 15h24.19.850228 +0530,
76,0,77,n,1.3030962999910116,None,77,0,76,278.5131015999941,,,,,,,,,,,,,,,,,,,,,,,,,,,,,,,,,,,,,,,,,,,,,,,,,,278.49731939996127,278.5131015999941,279.09554650000064,278.9970517999609,279.0921976999962,279.09554650000064,279.09554650000064,279.09554650000064,280.41406909999205,Foils\scenes25.jpg,none,n,1.3030962999910116,None,,,,,,,,00047,001,2026-01-24_15h24.10.813,MST_test,2024.2.0,60.006900790251144,2026-01-24 15h24.19.850228 +0530,
77,0,78,n,1.9145567999803461,None,78,0,77,280.42986360000214,,,,,,,,,,,,,,,,,,,,,,,,,,,,,,,,,,,,,,,,,,,,,,,,,,280.41418009996414,280.42986360000214,280.93173829995794,280.9141170999501,280.9297352999565,280.93173829995794,280.93173829995794,280.93173829995794,282.8471185999806,Foils\scenes29.jpg,none,n,1.9145567999803461,None,,,,,,,,00047,001,2026-01-24_15h24.10.813,MST_test,2024.2.0,60.006900790251144,2026-01-24 15h24.19.850228 +0530,
78,0,79,s,1.3779340999899432,None,79,0,78,282.86379439994926,,,,,,,,,,,,,,,,,,,,,,,,,,,,,,,,,,,,,,,,,,,,,,,,,,282.84723569999915,282.86379439994926,283.3640723999706,283.3472445999505,283.35148679994745,283.3640723999706,283.3640723999706,283.3640723999706,284.74740919994656,Objects\152b.jpg,post,s,1.3779340999899432,None,,,,,,,,00047,001,2026-01-24_15h24.10.813,MST_test,2024.2.0,60.006900790251144,2026-01-24 15h24.19.850228 +0530,
79,0,80,s,4.822137199982535,None,80,0,79,284.76372940000147,,,,,,,,,,,,,,,,,,,,,,,,,,,,,,,,,,,,,,,,,,,,,,,,,,284.74752129998524,284.76372940000147,285.26442409999436,285.2467643999844,285.25424199999543,285.26442409999436,285.26442409999436,285.26442409999436,290.0971909999498,Scenes\175a.jpg,pre,s,4.822137199982535,None,,,,,,,,00047,001,2026-01-24_15h24.10.813,MST_test,2024.2.0,60.006900790251144,2026-01-24 15h24.19.850228 +0530,
80,0,81,s,1.2263012999901548,None,81,0,80,290.1131336999824,,,,,,,,,,,,,,,,,,,,,,,,,,,,,,,,,,,,,,,,,,,,,,,,,,290.0973049000022,290.1131336999824,290.61988849996123,290.59708119998686,290.6171540999785,290.61988849996123,290.61988849996123,290.61988849996123,291.8476057999651,Scenes\104b.jpg,mid,s,1.2263012999901548,None,,,,,,,,00047,001,2026-01-24_15h24.10.813,MST_test,2024.2.0,60.006900790251144,2026-01-24 15h24.19.850228 +0530,
81,0,82,s,1.5222345999791287,None,82,0,81,291.8638915999909,,,,,,,,,,,,,,,,,,,,,,,,,,,,,,,,,,,,,,,,,,,,,,,,,,291.8477198999608,291.8638915999909,292.3636566999485,292.3470449000015,292.3581744999974,292.3636566999485,292.3636566999485,292.3636566999485,293.8974001999595,Objects\087b.jpg,pre,s,1.5222345999791287,None,,,,,,,,00047,001,2026-01-24_15h24.10.813,MST_test,2024.2.0,60.006900790251144,2026-01-24 15h24.19.850228 +0530,
82,0,83,n,1.4408302999800071,None,83,0,82,293.91340179997496,,,,,,,,,,,,,,,,,,,,,,,,,,,,,,,,,,,,,,,,,,,,,,,,,,293.8975062999525,293.91340179997496,294.41375779994996,294.3973147999495,294.4088856999879,294.41375779994996,294.41375779994996,294.41375779994996,295.86421739996877,Foils\scenes18.jpg,none,n,1.4408302999800071,None,,,,,,,,00047,001,2026-01-24_15h24.10.813,MST_test,2024.2.0,60.006900790251144,2026-01-24 15h24.19.850228 +0530,
83,0,84,o,1.146002299967222,None,84,0,83,295.87993529997766,,,,,,,,,,,,,,,,,,,,,,,,,,,,,,,,,,,,,,,,,,,,,,,,,,295.8643269999884,295.87993529997766,296.3807374999742,296.3641054999898,296.3671211999608,296.3807374999742,296.3807374999742,296.3807374999742,297.5307343999739,Objects\076a.jpg,pre,o,1.146002299967222,None,,,,,,,,00047,001,2026-01-24_15h24.10.813,MST_test,2024.2.0,60.006900790251144,2026-01-24 15h24.19.850228 +0530,
84,0,85,s,2.710391599975992,None,85,0,84,297.54685359995347,,,,,,,,,,,,,,,,,,,,,,,,,,,,,,,,,,,,,,,,,,,,,,,,,,297.5308590999921,297.54685359995347,298.0474503999576,298.0302554999944,298.0371114999871,298.0474503999576,298.0474503999576,298.0474503999576,300.76407719997223,Scenes\188a.jpg,mid,s,2.710391599975992,None,,,,,,,,00047,001,2026-01-24_15h24.10.813,MST_test,2024.2.0,60.006900790251144,2026-01-24 15h24.19.850228 +0530,
85,0,86,o,3.581442099995911,None,86,0,85,300.779916999978,,,,,,,,,,,,,,,,,,,,,,,,,,,,,,,,,,,,,,,,,,,,,,,,,,300.76419199997326,300.779916999978,301.28044859995134,301.26424819999374,301.276353299967,301.28044859995134,301.28044859995134,301.28044859995134,304.86399209999945,Scenes\010a.jpg,mid,o,3.581442099995911,None,,,,,,,,00047,001,2026-01-24_15h24.10.813,MST_test,2024.2.0,60.006900790251144,2026-01-24 15h24.19.850228 +0530,
86,0,87,o,1.3215136000071652,None,87,0,86,304.8798411999596,,,,,,,,,,,,,,,,,,,,,,,,,,,,,,,,,,,,,,,,,,,,,,,,,,304.8641067999997,304.8798411999596,305.3804966000025,305.3639632999548,305.37547979998635,305.3804966000025,305.3804966000025,305.3804966000025,306.71469479997177,Objects\046b.jpg,pre,o,1.3215136000071652,None,,,,,,,,00047,001,2026-01-24_15h24.10.813,MST_test,2024.2.0,60.006900790251144,2026-01-24 15h24.19.850228 +0530,
87,0,88,n,2.031591599981766,None,88,0,87,306.730246799998,,,,,,,,,,,,,,,,,,,,,,,,,,,,,,,,,,,,,,,,,,,,,,,,,,306.71482469997136,306.730246799998,307.2385893999599,307.2140087999869,307.2352478999528,307.2385893999599,307.2385893999599,307.2385893999599,309.28096469998127,Foils\scenes22.jpg,none,n,2.031591599981766,None,,,,,,,,00047,001,2026-01-24_15h24.10.813,MST_test,2024.2.0,60.006900790251144,2026-01-24 15h24.19.850228 +0530,
88,0,89,n,1.1607737999875098,None,89,0,88,309.2966081999475,,,,,,,,,,,,,,,,,,,,,,,,,,,,,,,,,,,,,,,,,,,,,,,,,,309.28107989998534,309.2966081999475,309.7970432000002,309.78079629997956,309.78473229997326,309.7970432000002,309.7970432000002,309.7970432000002,310.964142599958,Foils\073a.jpg,none,n,1.1607737999875098,None,,,,,,,,00047,001,2026-01-24_15h24.10.813,MST_test,2024.2.0,60.006900790251144,2026-01-24 15h24.19.850228 +0530,
89,0,90,n,0.782556000049226,None,90,0,89,310.98015969997505,,,,,,,,,,,,,,,,,,,,,,,,,,,,,,,,,,,,,,,,,,,,,,,,,,310.9642496999586,310.98015969997505,311.4802643999574,311.4635037999833,311.47432099998696,311.4802643999574,311.4802643999574,311.4802643999574,312.26433069998166,Foils\106a.jpg,none,n,0.782556000049226,None,,,,,,,,00047,001,2026-01-24_15h24.10.813,MST_test,2024.2.0,60.006900790251144,2026-01-24 15h24.19.850228 +0530,
90,0,91,s,2.685393199964892,None,91,0,90,312.2798598999507,,,,,,,,,,,,,,,,,,,,,,,,,,,,,,,,,,,,,,,,,,,,,,,,,,312.26444089994766,312.2798598999507,312.8093603999587,312.76410789997317,312.80593360000057,312.8093603999587,312.8093603999587,312.8093603999587,315.4974827999831,Foils\scenes15.jpg,none,s,2.685393199964892,None,,,,,,,,00047,001,2026-01-24_15h24.10.813,MST_test,2024.2.0,60.006900790251144,2026-01-24 15h24.19.850228 +0530,
91,0,92,o,5.791745399998035,None,92,0,91,315.5132397999987,,,,,,,,,,,,,,,,,,,,,,,,,,,,,,,,,,,,,,,,,,,,,,,,,,315.4976030999678,315.5132397999987,316.01455009996425,315.9965620999574,316.00418659998104,316.01455009996425,316.01455009996425,316.01455009996425,321.81439249997493,Scenes\140a.jpg,pre,o,5.791745399998035,None,,,,,,,,00047,001,2026-01-24_15h24.10.813,MST_test,2024.2.0,60.006900790251144,2026-01-24 15h24.19.850228 +0530,
92,0,93,s,1.2550895999884233,None,93,0,92,321.8299704999663,,,,,,,,,,,,,,,,,,,,,,,,,,,,,,,,,,,,,,,,,,,,,,,,,,321.81450779997976,321.8299704999663,322.33556639996823,322.3135871999548,322.33311229996616,322.33556639996823,322.33556639996823,322.33556639996823,323.5975982999662,Scenes\187b.jpg,post,s,1.2550895999884233,None,,,,,,,,00047,001,2026-01-24_15h24.10.813,MST_test,2024.2.0,60.006900790251144,2026-01-24 15h24.19.850228 +0530,
93,0,94,o,4.6443499000160955,None,94,0,93,323.6134240999818,,,,,,,,,,,,,,,,,,,,,,,,,,,,,,,,,,,,,,,,,,,,,,,,,,323.5977496999549,323.6134240999818,324.11365729995305,324.0968592999852,324.10091319994535,324.11365729995305,324.11365729995305,324.11365729995305,328.76429649995407,Objects\078a.jpg,post,o,4.6443499000160955,None,,,,,,,,00047,001,2026-01-24_15h24.10.813,MST_test,2024.2.0,60.006900790251144,2026-01-24 15h24.19.850228 +0530,
94,0,95,o,3.038189099985175,None,95,0,94,328.78042009996716,,,,,,,,,,,,,,,,,,,,,,,,,,,,,,,,,,,,,,,,,,,,,,,,,,328.764410499949,328.78042009996716,329.2800551999826,329.26383969996823,329.26688499999,329.2800551999826,329.2800551999826,329.2800551999826,332.3311952999793,Objects\159a.jpg,post,o,3.038189099985175,None,,,,,,,,00047,001,2026-01-24_15h24.10.813,MST_test,2024.2.0,60.006900790251144,2026-01-24 15h24.19.850228 +0530,
95,0,96,o,1.261297499993816,None,96,0,95,332.3465178999468,,,,,,,,,,,,,,,,,,,,,,,,,,,,,,,,,,,,,,,,,,,,,,,,,,332.3313248999766,332.3465178999468,332.8486677999608,332.830682299973,332.8460684999591,332.8486677999608,332.8486677999608,332.8486677999608,334.1138776000007,Scenes\074b.jpg,post,o,1.261297499993816,None,,,,,,,,00047,001,2026-01-24_15h24.10.813,MST_test,2024.2.0,60.006900790251144,2026-01-24 15h24.19.850228 +0530,
96,0,97,n,1.6649616999784485,None,97,0,96,334.13007369998377,,,,,,,,,,,,,,,,,,,,,,,,,,,,,,,,,,,,,,,,,,,,,,,,,,334.1140024999622,334.13007369998377,334.63054019998526,334.6138821999775,334.6252449999447,334.63054019998526,334.63054019998526,334.63054019998526,336.2973077999777,Foils\101b.jpg,none,n,1.6649616999784485,None,,,,,,,,00047,001,2026-01-24_15h24.10.813,MST_test,2024.2.0,60.006900790251144,2026-01-24 15h24.19.850228 +0530,
97,0,98,n,3.776410999998916,None,98,0,97,336.3138479999616,,,,,,,,,,,,,,,,,,,,,,,,,,,,,,,,,,,,,,,,,,,,,,,,,,336.2974324999959,336.3138479999616,336.8141505999956,336.7969219999504,336.81150089995936,336.8141505999956,336.8141505999956,336.8141505999956,340.5975394999841,Scenes\166b.jpg,mid,n,3.776410999998916,None,,,,,,,,00047,001,2026-01-24_15h24.10.813,MST_test,2024.2.0,60.006900790251144,2026-01-24 15h24.19.850228 +0530,
98,0,99,n,1.308675000036601,None,99,0,98,340.61351399996784,,,,,,,,,,,,,,,,,,,,,,,,,,,,,,,,,,,,,,,,,,,,,,,,,,340.59765219996916,340.61351399996784,341.1137630000012,341.0967878999654,341.1092509999871,341.1137630000012,341.1137630000012,341.1137630000012,342.4312362999772,Foils\scenes2.jpg,none,n,1.308675000036601,None,,,,,,,,00047,001,2026-01-24_15h24.10.813,MST_test,2024.2.0,60.006900790251144,2026-01-24 15h24.19.850228 +0530,
99,0,100,o,2.139792599948123,None,100,0,99,342.44673329999205,,,,,,,,,,,,,,,,,,,,,,,,,,,,,,,,,,,,,,,,,,,,,,,,,,342.4313518999843,342.44673329999205,342.9469640000025,342.93032200000016,342.93361279997043,342.9469640000025,342.9469640000025,342.9469640000025,345.0972173999762,Objects\132a.jpg,post,o,2.139792599948123,None,,,,,,,,00047,001,2026-01-24_15h24.10.813,MST_test,2024.2.0,60.006900790251144,2026-01-24 15h24.19.850228 +0530,
100,0,101,n,1.5443230000091717,None,101,0,100,345.1130609999527,,,,,,,,,,,,,,,,,,,,,,,,,,,,,,,,,,,,,,,,,,,,,,,,,,345.0973418999929,345.1130609999527,345.61368989996845,345.59684189996915,345.6086740999599,345.61368989996845,345.61368989996845,345.61368989996845,347.16471489996184,Objects\131b.jpg,mid,n,1.5443230000091717,None,,,,,,,,00047,001,2026-01-24_15h24.10.813,MST_test,2024.2.0,60.006900790251144,2026-01-24 15h24.19.850228 +0530,
101,0,102,n,1.2705271000158973,None,102,0,101,347.1806660000002,,,,,,,,,,,,,,,,,,,,,,,,,,,,,,,,,,,,,,,,,,,,,,,,,,347.16484059998766,347.1806660000002,347.6806918999646,347.6641514999792,347.6677008999977,347.6806918999646,347.6806918999646,347.6806918999646,348.9641919999849,Foils\009a.jpg,none,n,1.2705271000158973,None,,,,,,,,00047,001,2026-01-24_15h24.10.813,MST_test,2024.2.0,60.006900790251144,2026-01-24 15h24.19.850228 +0530,
102,0,103,s,1.6144898000056855,None,103,0,102,348.97999459999846,,,,,,,,,,,,,,,,,,,,,,,,,,,,,,,,,,,,,,,,,,,,,,,,,,348.96431039995514,348.97999459999846,349.48010479996447,349.4639117999468,349.4752742999699,349.48010479996447,349.48010479996447,349.48010479996447,351.0976248999941,Objects\043b.jpg,pre,s,1.6144898000056855,None,,,,,,,,00047,001,2026-01-24_15h24.10.813,MST_test,2024.2.0,60.006900790251144,2026-01-24 15h24.19.850228 +0530,
103,0,104,s,3.7845060999970883,None,104,0,103,351.11343059997307,,,,,,,,,,,,,,,,,,,,,,,,,,,,,,,,,,,,,,,,,,,,,,,,,,351.0977444999735,351.11343059997307,351.6136090999935,351.5967768999981,351.59967989998404,351.6136090999935,351.6136090999935,351.6136090999935,355.4137977999635,Objects\151a.jpg,mid,s,3.7845060999970883,None,,,,,,,,00047,001,2026-01-24_15h24.10.813,MST_test,2024.2.0,60.006900790251144,2026-01-24 15h24.19.850228 +0530,
104,0,105,s,1.8360786000266671,None,105,0,104,355.4299640999525,,,,,,,,,,,,,,,,,,,,,,,,,,,,,,,,,,,,,,,,,,,,,,,,,,355.4139111999539,355.4299640999525,355.93056649999926,355.9134739000001,355.9247449999675,355.93056649999926,355.93056649999926,355.93056649999926,357.78066949994536,Objects\091b.jpg,mid,s,1.8360786000266671,None,,,,,,,,00047,001,2026-01-24_15h24.10.813,MST_test,2024.2.0,60.006900790251144,2026-01-24 15h24.19.850228 +0530,
105,0,106,s,1.2847979000071064,None,106,0,105,357.7963603999815,,,,,,,,,,,,,,,,,,,,,,,,,,,,,,,,,,,,,,,,,,,,,,,,,,357.7807782999589,357.7963603999815,358.2968972999952,358.2802576999529,358.29105790000176,358.2968972999952,358.2968972999952,358.2968972999952,359.5975724000018,Objects\086b.jpg,mid,s,1.2847979000071064,None,,,,,,,,00047,001,2026-01-24_15h24.10.813,MST_test,2024.2.0,60.006900790251144,2026-01-24 15h24.19.850228 +0530,
106,0,107,s,5.188866300042719,None,107,0,106,359.6132032999885,,,,,,,,,,,,,,,,,,,,,,,,,,,,,,,,,,,,,,,,,,,,,,,,,,359.59770269994624,359.6132032999885,360.11390979995485,360.09712369996123,360.101366399962,360.11390979995485,360.11390979995485,360.11390979995485,365.314496899955,Scenes\016a.jpg,mid,s,5.188866300042719,None,,,,,,,,00047,001,2026-01-24_15h24.10.813,MST_test,2024.2.0,60.006900790251144,2026-01-24 15h24.19.850228 +0530,
107,0,108,o,1.2873675000155345,None,108,0,107,365.32984149997355,,,,,,,,,,,,,,,,,,,,,,,,,,,,,,,,,,,,,,,,,,,,,,,,,,365.3146095999982,365.32984149997355,365.8304646999459,365.81387759995414,365.8246898999787,365.8304646999459,365.8304646999459,365.8304646999459,367.13113219995284,Scenes\072a.jpg,mid,o,1.2873675000155345,None,,,,,,,,00047,001,2026-01-24_15h24.10.813,MST_test,2024.2.0,60.006900790251144,2026-01-24 15h24.19.850228 +0530,
108,0,109,o,1.0468996000126936,None,109,0,108,367.1466219999711,,,,,,,,,,,,,,,,,,,,,,,,,,,,,,,,,,,,,,,,,,,,,,,,,,367.1312373999972,367.1466219999711,367.6469642999582,367.63042609998956,367.63440069998614,367.6469642999582,367.6469642999582,367.6469642999582,368.69770659995265,Objects\139a.jpg,mid,o,1.0468996000126936,None,,,,,,,,00047,001,2026-01-24_15h24.10.813,MST_test,2024.2.0,60.006900790251144,2026-01-24 15h24.19.850228 +0530,
109,0,110,o,1.3684518999652937,None,110,0,109,368.7137816999457,,,,,,,,,,,,,,,,,,,,,,,,,,,,,,,,,,,,,,,,,,,,,,,,,,368.69789259997196,368.7137816999457,369.21370809996733,369.196945499978,369.20043639995856,369.21370809996733,369.21370809996733,369.21370809996733,370.5976975999656,Objects\015a.jpg,mid,o,1.3684518999652937,None,,,,,,,,00047,001,2026-01-24_15h24.10.813,MST_test,2024.2.0,60.006900790251144,2026-01-24 15h24.19.850228 +0530,
110,0,111,n,1.1642888000351377,None,111,0,110,370.61352849996183,,,,,,,,,,,,,,,,,,,,,,,,,,,,,,,,,,,,,,,,,,,,,,,,,,370.5978183999541,370.61352849996183,371.11443889996735,371.09700519999024,371.1070371999522,371.11443889996735,371.11443889996735,371.11443889996735,372.2810175999766,Scenes\150a.jpg,pre,n,1.1642888000351377,None,,,,,,,,00047,001,2026-01-24_15h24.10.813,MST_test,2024.2.0,60.006900790251144,2026-01-24 15h24.19.850228 +0530,
111,0,112,o,1.393985100032296,None,112,0,111,372.2963121999637,,,,,,,,,,,,,,,,,,,,,,,,,,,,,,,,,,,,,,,,,,,,,,,,,,372.28113399998983,372.2963121999637,372.79743089998374,372.7802323999931,372.78370179998456,372.79743089998374,372.79743089998374,372.79743089998374,374.1976443999447,Objects\059a.jpg,mid,o,1.393985100032296,None,,,,,,,,00047,001,2026-01-24_15h24.10.813,MST_test,2024.2.0,60.006900790251144,2026-01-24 15h24.19.850228 +0530,
112,0,113,s,3.259558300022036,None,113,0,112,374.2143508999725,,,,,,,,,,,,,,,,,,,,,,,,,,,,,,,,,,,,,,,,,,,,,,,,,,374.197767799953,374.2143508999725,,374.7134517999948,374.72396659996593,374.73028409999097,374.73028409999097,374.73028409999097,377.99755539995385,Foils\scenes6.jpg,none,s,3.259558300022036,None,,,,,,,,00047,001,2026-01-24_15h24.10.813,MST_test,2024.2.0,60.006900790251144,2026-01-24 15h24.19.850228 +0530,
113,0,114,s,1.4285697999875993,None,114,0,113,378.0129831999657,,,,,,,,,,,,,,,,,,,,,,,,,,,,,,,,,,,,,,,,,,,,,,,,,,377.9976680999971,378.0129831999657,378.51419519999763,378.4967575999908,378.5098278999794,378.51419519999763,378.51419519999763,378.51419519999763,379.94775269995444,Objects\090b.jpg,post,s,1.4285697999875993,None,,,,,,,,00047,001,2026-01-24_15h24.10.813,MST_test,2024.2.0,60.006900790251144,2026-01-24 15h24.19.850228 +0530,
114,0,115,s,0.9807615999598056,None,115,0,114,379.96325239998987,,,,,,,,,,,,,,,,,,,,,,,,,,,,,,,,,,,,,,,,,,,,,,,,,,379.9478694999707,379.96325239998987,380.46496079995995,380.44733279995853,380.45767509995494,380.46496079995995,380.46496079995995,380.46496079995995,381.44739739998477,Objects\098b.jpg,post,s,0.9807615999598056,None,,,,,,,,00047,001,2026-01-24_15h24.10.813,MST_test,2024.2.0,60.006900790251144,2026-01-24 15h24.19.850228 +0530,
115,0,116,o,2.42206900002202,None,116,0,115,381.46373639995,,,,,,,,,,,,,,,,,,,,,,,,,,,,,,,,,,,,,,,,,,,,,,,,,,381.4475126999896,381.46373639995,381.9680278999731,381.9469928999897,381.9656230999972,381.9680278999731,381.9680278999731,381.9680278999731,384.39744569995673,Scenes\107b.jpg,post,o,2.42206900002202,None,,,,,,,,00047,001,2026-01-24_15h24.10.813,MST_test,2024.2.0,60.006900790251144,2026-01-24 15h24.19.850228 +0530,
116,0,117,o,1.676168999983929,None,117,0,116,384.4137701999862,,,,,,,,,,,,,,,,,,,,,,,,,,,,,,,,,,,,,,,,,,,,,,,,,,384.39756049995776,384.4137701999862,384.9137188999448,384.8971016999567,384.9005194999627,384.9137188999448,384.9137188999448,384.9137188999448,386.5976315999869,Objects\136a.jpg,mid,o,1.676168999983929,None,,,,,,,,00047,001,2026-01-24_15h24.10.813,MST_test,2024.2.0,60.006900790251144,2026-01-24 15h24.19.850228 +0530,
117,0,118,o,1.0291484000044875,None,118,0,117,386.6131106999819,,,,,,,,,,,,,,,,,,,,,,,,,,,,,,,,,,,,,,,,,,,,,,,,,,386.59774719999405,386.6131106999819,387.11381149996305,387.0967011999455,387.1051398999989,387.11381149996305,387.11381149996305,387.11381149996305,388.1472803999786,Scenes\077a.jpg,post,o,1.0291484000044875,None,,,,,,,,00047,001,2026-01-24_15h24.10.813,MST_test,2024.2.0,60.006900790251144,2026-01-24 15h24.19.850228 +0530,
118,0,119,s,2.670928100007586,None,119,0,118,388.16321809997316,,,,,,,,,,,,,,,,,,,,,,,,,,,,,,,,,,,,,,,,,,,,,,,,,,388.1473914999515,388.16321809997316,388.6636383999721,388.64647779997904,388.6563943999936,388.6636383999721,388.6636383999721,388.6636383999721,391.3472042999929,Scenes\065a.jpg,pre,s,2.670928100007586,None,,,,,,,,00047,001,2026-01-24_15h24.10.813,MST_test,2024.2.0,60.006900790251144,2026-01-24 15h24.19.850228 +0530,
119,0,120,s,1.4628724999492988,None,120,0,119,391.3630946999765,,,,,,,,,,,,,,,,,,,,,,,,,,,,,,,,,,,,,,,,,,,,,,,,,,391.3473097999813,391.3630946999765,391.8637914999854,391.8469154999475,391.8562391999876,391.8637914999854,391.8637914999854,391.8637914999854,393.33149579999736,Scenes\042b.jpg,pre,s,1.4628724999492988,None,,,,,,,,00047,001,2026-01-24_15h24.10.813,MST_test,2024.2.0,60.006900790251144,2026-01-24 15h24.19.850228 +0530,
120,0,121,o,1.302733000018634,None,121,0,120,393.34676759998547,,,,,,,,,,,,,,,,,,,,,,,,,,,,,,,,,,,,,,,,,,,,,,,,,,393.33162259997334,393.34676759998547,393.8477721999516,393.83011029998306,393.8412923999713,393.8477721999516,393.8477721999516,393.8477721999516,395.164058299968,Scenes\009a.jpg,post,o,1.302733000018634,None,,,,,,,,00047,001,2026-01-24_15h24.10.813,MST_test,2024.2.0,60.006900790251144,2026-01-24 15h24.19.850228 +0530,
121,0,122,o,2.042531900049653,None,122,0,121,395.1803252999671,,,,,,,,,,,,,,,,,,,,,,,,,,,,,,,,,,,,,,,,,,,,,,,,,,395.1641630999511,395.1803252999671,395.6836588999722,395.6641511999769,395.6809260000009,395.6836588999722,395.6836588999722,395.6836588999722,397.73092189995805,Scenes\007b.jpg,mid,o,2.042531900049653,None,,,,,,,,00047,001,2026-01-24_15h24.10.813,MST_test,2024.2.0,60.006900790251144,2026-01-24 15h24.19.850228 +0530,
122,0,123,s,3.1836542999953963,None,123,0,122,397.7465162999579,,,,,,,,,,,,,,,,,,,,,,,,,,,,,,,,,,,,,,,,,,,,,,,,,,397.73103519994766,397.7465162999579,398.2468312999699,398.2302995999926,398.24116559996037,398.2468312999699,398.2468312999699,398.2468312999699,401.44752159999916,Objects\017b.jpg,post,s,3.1836542999953963,None,,,,,,,,00047,001,2026-01-24_15h24.10.813,MST_test,2024.2.0,60.006900790251144,2026-01-24 15h24.19.850228 +0530,
123,0,124,n,2.458630999957677,None,124,0,123,401.46317039994756,,,,,,,,,,,,,,,,,,,,,,,,,,,,,,,,,,,,,,,,,,,,,,,,,,401.4476393999648,401.46317039994756,401.96373079996556,401.9469522999716,401.94947139994474,401.96373079996556,401.96373079996556,401.96373079996556,404.43126019998454,Foils\scenes19.jpg,none,n,2.458630999957677,None,,,,,,,,00047,001,2026-01-24_15h24.10.813,MST_test,2024.2.0,60.006900790251144,2026-01-24 15h24.19.850228 +0530,
124,0,125,s,1.458807299961336,None,125,0,124,404.4462547999574,,,,,,,,,,,,,,,,,,,,,,,,,,,,,,,,,,,,,,,,,,,,,,,,,,404.4313715999597,404.4462547999574,404.9470342999557,404.9302387999487,404.93628439999884,404.9470342999557,404.9470342999557,404.9470342999557,406.41414959996473,Scenes\163a.jpg,mid,s,1.458807299961336,None,,,,,,,,00047,001,2026-01-24_15h24.10.813,MST_test,2024.2.0,60.006900790251144,2026-01-24 15h24.19.850228 +0530,
125,0,126,s,1.7445963000063784,None,126,0,125,406.4298897999688,,,,,,,,,,,,,,,,,,,,,,,,,,,,,,,,,,,,,,,,,,,,,,,,,,406.4142767000012,406.4298897999688,406.93334319995483,406.91393139999127,406.93090359994676,406.93334319995483,406.93334319995483,406.93334319995483,408.6807391999755,Foils\scenes27.jpg,none,s,1.7445963000063784,None,,,,,,,,00047,001,2026-01-24_15h24.10.813,MST_test,2024.2.0,60.006900790251144,2026-01-24 15h24.19.850228 +0530,
126,0,127,o,1.3294367999769747,None,127,0,126,408.6966368999565,,,,,,,,,,,,,,,,,,,,,,,,,,,,,,,,,,,,,,,,,,,,,,,,,,408.68088319996605,408.6966368999565,409.1968166999868,409.18099339999026,409.1885102999513,409.1968166999868,409.1968166999868,409.1968166999868,410.5309316999628,Scenes\111a.jpg,post,o,1.3294367999769747,None,,,,,,,,00047,001,2026-01-24_15h24.10.813,MST_test,2024.2.0,60.006900790251144,2026-01-24 15h24.19.850228 +0530,
127,0,128,n,1.4710725999902934,None,128,0,127,410.5463170000003,,,,,,,,,,,,,,,,,,,,,,,,,,,,,,,,,,,,,,,,,,,,,,,,,,410.53103929996723,410.5463170000003,411.04671889997553,411.03007839998463,411.04062069999054,411.04671889997553,411.04671889997553,411.04671889997553,412.5309356999933,Foils\scenes20.jpg,none,n,1.4710725999902934,None,,,,,,,,00047,001,2026-01-24_15h24.10.813,MST_test,2024.2.0,60.006900790251144,2026-01-24 15h24.19.850228 +0530,
128,0,129,s,5.8716342999832705,None,129,0,128,412.54638219997287,,,,,,,,,,,,,,,,,,,,,,,,,,,,,,,,,,,,,,,,,,,,,,,,,,412.53104439994786,412.54638219997287,413.04686939995736,413.0307632999611,413.0427707999479,413.04686939995736,413.04686939995736,413.04686939995736,418.9310863999999,Objects\167b.jpg,mid,s,5.8716342999832705,None,,,,,,,,00047,001,2026-01-24_15h24.10.813,MST_test,2024.2.0,60.006900790251144,2026-01-24 15h24.19.850228 +0530,
129,0,130,s,3.7281110999756493,None,130,0,129,418.94680129998596,,,,,,,,,,,,,,,,,,,,,,,,,,,,,,,,,,,,,,,,,,,,,,,,,,418.9311989999842,418.94680129998596,419.4469903999707,419.43029199994635,419.43371749995276,419.4469903999707,419.4469903999707,419.4469903999707,423.18043069995474,Objects\123a.jpg,pre,s,3.7281110999756493,None,,,,,,,,00047,001,2026-01-24_15h24.10.813,MST_test,2024.2.0,60.006900790251144,2026-01-24 15h24.19.850228 +0530,
130,0,131,o,1.213466499990318,None,131,0,130,423.19685229996685,,,,,,,,,,,,,,,,,,,,,,,,,,,,,,,,,,,,,,,,,,,,,,,,,,423.18052899994655,423.19685229996685,423.696615999972,423.6802310999483,423.6835285999696,423.696615999972,423.696615999972,423.696615999972,424.9150719999452,Objects\099a.jpg,mid,o,1.213466499990318,None,,,,,,,,00047,001,2026-01-24_15h24.10.813,MST_test,2024.2.0,60.006900790251144,2026-01-24 15h24.19.850228 +0530,
131,0,132,s,4.0315382000408135,None,132,0,131,424.92996579996543,,,,,,,,,,,,,,,,,,,,,,,,,,,,,,,,,,,,,,,,,,,,,,,,,,424.91518549999455,424.92996579996543,425.4302802999737,425.41352889995323,425.41762789996574,425.4302802999737,425.4302802999737,425.4302802999737,429.4650915999664,Foils\105a.jpg,none,s,4.0315382000408135,None,,,,,,,,00047,001,2026-01-24_15h24.10.813,MST_test,2024.2.0,60.006900790251144,2026-01-24 15h24.19.850228 +0530,
132,0,133,s,2.3302564999903552,None,133,0,132,429.48044629994547,,,,,,,,,,,,,,,,,,,,,,,,,,,,,,,,,,,,,,,,,,,,,,,,,,429.46521309996024,429.48044629994547,429.9803006000002,429.9635591999977,429.9671998999547,429.9803006000002,429.9803006000002,429.9803006000002,432.3139188999776,Objects\119b.jpg,mid,s,2.3302564999903552,None,,,,,,,,00047,001,2026-01-24_15h24.10.813,MST_test,2024.2.0,60.006900790251144,2026-01-24 15h24.19.850228 +0530,
133,0,134,n,2.110312699980568,None,134,0,133,432.3297738999827,,,,,,,,,,,,,,,,,,,,,,,,,,,,,,,,,,,,,,,,,,,,,,,,,,432.3140284999972,432.3297738999827,432.83148909994634,432.81358109996654,432.8244730999577,432.83148909994634,432.83148909994634,432.83148909994634,434.9473669999861,Foils\090a.jpg,none,n,2.110312699980568,None,,,,,,,,00047,001,2026-01-24_15h24.10.813,MST_test,2024.2.0,60.006900790251144,2026-01-24 15h24.19.850228 +0530,
134,0,135,o,1.190692099975422,None,135,0,134,434.9632566999644,,,,,,,,,,,,,,,,,,,,,,,,,,,,,,,,,,,,,,,,,,,,,,,,,,434.9474798999727,434.9632566999644,,435.44765019998886,435.4607478999533,435.46372489997884,435.46372489997884,435.46372489997884,436.6639018999995,Scenes\002a.jpg,post,o,1.190692099975422,None,,,,,,,,00047,001,2026-01-24_15h24.10.813,MST_test,2024.2.0,60.006900790251144,2026-01-24 15h24.19.850228 +0530,
135,0,136,s,1.68956289999187,None,136,0,135,436.6798329000012,,,,,,,,,,,,,,,,,,,,,,,,,,,,,,,,,,,,,,,,,,,,,,,,,,436.6640093999449,436.6798329000012,437.1805050999974,437.1633949999814,437.17763229995035,437.1805050999974,437.1805050999974,437.1805050999974,438.8811777999508,Objects\005b.jpg,mid,s,1.68956289999187,None,,,,,,,,00047,001,2026-01-24_15h24.10.813,MST_test,2024.2.0,60.006900790251144,2026-01-24 15h24.19.850228 +0530,
136,0,137,o,1.3352600999642164,None,137,0,136,438.89719569997396,,,,,,,,,,,,,,,,,,,,,,,,,,,,,,,,,,,,,,,,,,,,,,,,,,438.881302499969,438.89719569997396,439.4068382999976,439.3804970999481,439.40334379998967,439.4068382999976,439.4068382999976,439.4068382999976,440.74733909999486,Scenes\120b.jpg,post,o,1.3352600999642164,None,,,,,,,,00047,001,2026-01-24_15h24.10.813,MST_test,2024.2.0,60.006900790251144,2026-01-24 15h24.19.850228 +0530,
137,0,138,s,1.8863220000057481,None,138,0,137,440.7631450999761,,,,,,,,,,,,,,,,,,,,,,,,,,,,,,,,,,,,,,,,,,,,,,,,,,440.747448399954,440.7631450999761,441.26376899995375,441.24685919994954,441.25118149997434,441.26376899995375,441.26376899995375,441.26376899995375,443.16467889997875,Scenes\036a.jpg,post,s,1.8863220000057481,None,,,,,,,,00047,001,2026-01-24_15h24.10.813,MST_test,2024.2.0,60.006900790251144,2026-01-24 15h24.19.850228 +0530,
138,0,139,s,3.8379958999576047,None,139,0,138,443.1799792999518,,,,,,,,,,,,,,,,,,,,,,,,,,,,,,,,,,,,,,,,,,,,,,,,,,443.16479559999425,443.1799792999518,443.6803487999714,443.66352139995433,443.6726757999859,443.6803487999714,443.6803487999714,443.6803487999714,447.53088369994657,Scenes\131a.jpg,post,s,3.8379958999576047,None,,,,,,,,00047,001,2026-01-24_15h24.10.813,MST_test,2024.2.0,60.006900790251144,2026-01-24 15h24.19.850228 +0530,
139,0,140,n,1.664142899971921,None,140,0,139,447.5465703999507,,,,,,,,,,,,,,,,,,,,,,,,,,,,,,,,,,,,,,,,,,,,,,,,,,447.53100199997425,447.5465703999507,448.0472151999711,448.03032849996816,448.0342964999727,448.0472151999711,448.0472151999711,448.0472151999711,449.7145318999537,Foils\093b.jpg,none,n,1.664142899971921,None,,,,,,,,00047,001,2026-01-24_15h24.10.813,MST_test,2024.2.0,60.006900790251144,2026-01-24 15h24.19.850228 +0530,
140,0,141,o,1.2084576999768615,None,141,0,140,449.7301594999735,,,,,,,,,,,,,,,,,,,,,,,,,,,,,,,,,,,,,,,,,,,,,,,,,,449.71464179997565,449.7301594999735,450.2300624999916,450.2139308999758,450.2170635999646,450.2300624999916,450.2300624999916,450.2300624999916,451.44768439995823,Objects\124a.jpg,mid,o,1.2084576999768615,None,,,,,,,,00047,001,2026-01-24_15h24.10.813,MST_test,2024.2.0,60.006900790251144,2026-01-24 15h24.19.850228 +0530,
141,0,142,n,2.2347241999814287,None,142,0,141,451.46318029996473,,,,,,,,,,,,,,,,,,,,,,,,,,,,,,,,,,,,,,,,,,,,,,,,,,451.44780049996916,451.46318029996473,451.9633068999974,451.94664429995464,451.95025459997123,451.9633068999974,451.9633068999974,451.9633068999974,454.214070099988,Foils\065a.jpg,none,n,2.2347241999814287,None,,,,,,,,00047,001,2026-01-24_15h24.10.813,MST_test,2024.2.0,60.006900790251144,2026-01-24 15h24.19.850228 +0530,
142,0,143,n,2.284021399973426,None,143,0,142,454.2303475999506,,,,,,,,,,,,,,,,,,,,,,,,,,,,,,,,,,,,,,,,,,,,,,,,,,454.2141824999708,454.2303475999506,454.7307647999842,454.7142206999706,454.7260118999984,454.7307647999842,454.7307647999842,454.7307647999842,457.0310701999697,Foils\017a.jpg,none,n,2.284021399973426,None,,,,,,,,00047,001,2026-01-24_15h24.10.813,MST_test,2024.2.0,60.006900790251144,2026-01-24 15h24.19.850228 +0530,
143,0,144,o,1.466760199982673,None,144,0,143,457.0465150999953,,,,,,,,,,,,,,,,,,,,,,,,,,,,,,,,,,,,,,,,,,,,,,,,,,457.0311922999681,457.0465150999953,457.5470702999737,457.53020359994844,457.54141809995053,457.5470702999737,457.5470702999737,457.5470702999737,459.03070419997675,Objects\147b.jpg,post,o,1.466760199982673,None,,,,,,,,00047,001,2026-01-24_15h24.10.813,MST_test,2024.2.0,60.006900790251144,2026-01-24 15h24.19.850228 +0530,
144,0,145,o,1.1791988999466412,None,145,0,144,459.046921000001,,,,,,,,,,,,,,,,,,,,,,,,,,,,,,,,,,,,,,,,,,,,,,,,,,459.0308347999817,459.046921000001,459.5470279000001,459.5306386000011,459.5419017999666,459.5470279000001,459.5470279000001,459.5470279000001,460.73054339998635,Scenes\038a.jpg,post,o,1.1791988999466412,None,,,,,,,,00047,001,2026-01-24_15h24.10.813,MST_test,2024.2.0,60.006900790251144,2026-01-24 15h24.19.850228 +0530,
145,0,146,o,1.3750789999612607,None,146,0,145,460.74675359996036,,,,,,,,,,,,,,,,,,,,,,,,,,,,,,,,,,,,,,,,,,,,,,,,,,460.73065309994854,460.74675359996036,461.24692519998644,461.23015249997843,461.2431457999628,461.24692519998644,461.24692519998644,461.24692519998644,462.63091119995806,Scenes\061b.jpg,mid,o,1.3750789999612607,None,,,,,,,,00047,001,2026-01-24_15h24.10.813,MST_test,2024.2.0,60.006900790251144,2026-01-24 15h24.19.850228 +0530,
146,0,147,o,2.091848400013987,None,147,0,146,462.64644260000205,,,,,,,,,,,,,,,,,,,,,,,,,,,,,,,,,,,,,,,,,,,,,,,,,,462.63102380000055,462.64644260000205,463.1467699999921,463.1302366000018,463.13365429994883,463.1467699999921,463.1467699999921,463.1467699999921,465.24716219998663,Objects\158a.jpg,pre,o,2.091848400013987,None,,,,,,,,00047,001,2026-01-24_15h24.10.813,MST_test,2024.2.0,60.006900790251144,2026-01-24 15h24.19.850228 +0530,
147,0,148,o,0.9703186999540776,None,148,0,147,465.26332809997257,,,,,,,,,,,,,,,,,,,,,,,,,,,,,,,,,,,,,,,,,,,,,,,,,,465.24727599998005,465.26332809997257,465.76379719999386,465.74709569994593,465.74998249998316,465.76379719999386,465.76379719999386,465.76379719999386,466.7474528999883,Objects\171a.jpg,pre,o,0.9703186999540776,None,,,,,,,,00047,001,2026-01-24_15h24.10.813,MST_test,2024.2.0,60.006900790251144,2026-01-24 15h24.19.850228 +0530,
148,0,149,o,1.8466092000016943,None,149,0,148,466.7634482999565,,,,,,,,,,,,,,,,,,,,,,,,,,,,,,,,,,,,,,,,,,,,,,,,,,466.74755899998127,466.7634482999565,467.2636568999733,467.2468010999728,467.25057159998687,467.2636568999733,467.2636568999733,467.2636568999733,469.1140228000004,Scenes\022a.jpg,pre,o,1.8466092000016943,None,,,,,,,,00047,001,2026-01-24_15h24.10.813,MST_test,2024.2.0,60.006900790251144,2026-01-24 15h24.19.850228 +0530,
149,0,150,o,2.6803633000236005,None,150,0,149,469.1298099999549,,,,,,,,,,,,,,,,,,,,,,,,,,,,,,,,,,,,,,,,,,,,,,,,,,469.11413439997705,469.1298099999549,,469.6143756999518,469.6191685999511,469.6304125000024,469.6304125000024,469.6304125000024,472.3156442999607,Scenes\096a.jpg,mid,o,2.6803633000236005,None,,,,,,,,00047,001,2026-01-24_15h24.10.813,MST_test,2024.2.0,60.006900790251144,2026-01-24 15h24.19.850228 +0530,
,,,,,,,,,,,,,,,,,,,,,,,,,,,,,,,,,,,,,,,,,,,,,,,,,,,,,,,,,,,,,,,,,,,,,,,,,472.3157264999463,472.32978199998615,472.32978199998615,473.69783829996595,space,1.3560159000335261,None,00047,001,2026-01-24_15h24.10.813,MST_test,2024.2.0,60.006900790251144,2026-01-24 15h24.19.850228 +0530,
