thisN,thisTrialN,thisRepN,key_resp_3.keys,key_resp_3.rt,key_resp_3.duration,trials.thisRepN,trials.thisTrialN,trials.thisN,thisRow.t,notes,intro_page.started,text.started,key_resp.started,intro_page.stopped,key_resp.keys,key_resp.rt,key_resp.duration,instructions.started,text_2.started,key_resp_2.started,instructions.stopped,key_resp_2.keys,key_resp_2.rt,key_resp_2.duration,demo1.started,image_1.started,image_2.started,text_7.started,key_resp_6.started,text_9.started,demo1.stopped,key_resp_6.keys,key_resp_6.rt,key_resp_6.duration,demo2.started,image_5.started,image_6.started,text_11.started,text_12.started,key_resp_8.started,demo2.stopped,key_resp_8.keys,key_resp_8.rt,key_resp_8.duration,demo_conclusion.started,text_13.started,key_resp_9.started,demo_conclusion.stopped,key_resp_9.keys,key_resp_9.rt,key_resp_9.duration,start_test.started,text_6.started,key_resp_5.started,start_test.stopped,key_resp_5.keys,key_resp_5.rt,key_resp_5.duration,ISI.started,text_4.started,text_4.stopped,ISI.stopped,routine_1.started,image.started,text_3.started,key_resp_3.started,routine_1.stopped,image_path,position_of_stimuli,trials.key_resp_3.keys,trials.key_resp_3.rt,trials.key_resp_3.duration,End_page.started,text_5.started,key_resp_4.started,participant,session,date,expName,psychopyVersion,frameRate,expStart,
,,,,,,,,,,,0.0011829000000034284,0.002794800000174291,0.002794800000174291,53.620670000000246,space,53.548241499999676,None,,,,,,,,,,,,,,,,,,,,,,,,,,,,,,,,,,,,,,,,,,,,,,,,,,,,,,,,,,,00048,001,2026-01-24_15h36.35.684,MST_test,2024.2.0,59.87751455621175,2026-01-24 15h36.49.358066 +0530,
,,,,,,,,,,,,,,,,,,53.620817100000295,53.63966610000034,53.63966610000034,63.97544730000027,space,10.33534809999992,None,,,,,,,,,,,,,,,,,,,,,,,,,,,,,,,,,,,,,,,,,,,,,,,,,,,,00048,001,2026-01-24_15h36.35.684,MST_test,2024.2.0,59.87751455621175,2026-01-24 15h36.49.358066 +0530,
,,,,,,,,,,,,,,,,,,,,,,,,,63.975543200000175,64.01270169999998,64.01270169999998,64.01270169999998,64.01270169999998,64.01270169999998,70.69170410000015,space,6.666185099999893,None,,,,,,,,,,,,,,,,,,,,,,,,,,,,,,,,,,,,,,,,,,00048,001,2026-01-24_15h36.35.684,MST_test,2024.2.0,59.87751455621175,2026-01-24 15h36.49.358066 +0530,
,,,,,,,,,,,,,,,,,,,,,,,,,,,,,,,,,,,70.69174879999991,70.70816319999994,70.70816319999994,70.70816319999994,70.70816319999994,70.70816319999994,73.22611320000033,space,2.5147447999997894,None,,,,,,,,,,,,,,,,,,,,,,,,,,,,,,,,00048,001,2026-01-24_15h36.35.684,MST_test,2024.2.0,59.87751455621175,2026-01-24 15h36.49.358066 +0530,
,,,,,,,,,,,,,,,,,,,,,,,,,,,,,,,,,,,,,,,,,,,,,73.22621150000032,73.24151269999993,73.24151269999993,100.45893250000017,space,27.20561560000033,None,,,,,,,,,,,,,,,,,,,,,,,,,00048,001,2026-01-24_15h36.35.684,MST_test,2024.2.0,59.87751455621175,2026-01-24 15h36.49.358066 +0530,
,,,,,,,,,,,,,,,,,,,,,,,,,,,,,,,,,,,,,,,,,,,,,,,,,,,,100.45904999999993,100.47483740000007,100.47483740000007,164.7919766,space,64.30014859999983,None,,,,,,,,,,,,,,,,,,00048,001,2026-01-24_15h36.35.684,MST_test,2024.2.0,59.87751455621175,2026-01-24 15h36.49.358066 +0530,
0,0,1,n,3.9515934999999445,None,1,0,0,164.80751110000028,,,,,,,,,,,,,,,,,,,,,,,,,,,,,,,,,,,,,,,,,,,,,,,,,,164.80031450000024,164.80751110000028,165.31121340000027,165.29187589999992,165.30898460000026,165.31121340000027,165.31121340000027,165.31121340000027,169.27530720000004,Objects\100a.jpg,post,n,3.9515934999999445,None,,,,00048,001,2026-01-24_15h36.35.684,MST_test,2024.2.0,59.87751455621175,2026-01-24 15h36.49.358066 +0530,
1,0,2,n,5.201619099999789,None,2,0,1,169.29133890000003,,,,,,,,,,,,,,,,,,,,,,,,,,,,,,,,,,,,,,,,,,,,,,,,,,169.27564950000033,169.29133890000003,169.82946390000006,169.7754359999999,169.82695890000014,169.82946390000006,169.82946390000006,169.82946390000006,175.04239140000027,Scenes\183b.jpg,pre,n,5.201619099999789,None,,,,00048,001,2026-01-24_15h36.35.684,MST_test,2024.2.0,59.87751455621175,2026-01-24 15h36.49.358066 +0530,
2,0,3,s,2.8008528999998816,None,3,0,2,175.05838540000013,,,,,,,,,,,,,,,,,,,,,,,,,,,,,,,,,,,,,,,,,,,,,,,,,,175.04274480000004,175.05838540000013,175.59861470000033,175.5421094000003,175.59596740000006,175.59861470000033,175.59861470000033,175.59861470000033,178.40959500000008,Objects\118b.jpg,post,s,2.8008528999998816,None,,,,00048,001,2026-01-24_15h36.35.684,MST_test,2024.2.0,59.87751455621175,2026-01-24 15h36.49.358066 +0530,
3,0,4,s,1.3952297999999246,None,4,0,3,178.42538009999998,,,,,,,,,,,,,,,,,,,,,,,,,,,,,,,,,,,,,,,,,,,,,,,,,,178.4099458999999,178.42538009999998,178.96397620000016,178.90901890000032,178.96190939999997,178.96397620000016,178.96397620000016,178.96397620000016,180.37552989999995,Objects\177b.jpg,post,s,1.3952297999999246,None,,,,00048,001,2026-01-24_15h36.35.684,MST_test,2024.2.0,59.87751455621175,2026-01-24 15h36.49.358066 +0530,
4,0,5,n,4.466828699999951,None,5,0,4,180.3914092,,,,,,,,,,,,,,,,,,,,,,,,,,,,,,,,,,,,,,,,,,,,,,,,,,180.3758931000002,180.3914092,180.99611080000022,180.8754517000002,180.99381960000028,180.99611080000022,180.99611080000022,180.99611080000022,185.47557129999996,Foils\scenes14.jpg,none,n,4.466828699999951,None,,,,00048,001,2026-01-24_15h36.35.684,MST_test,2024.2.0,59.87751455621175,2026-01-24 15h36.49.358066 +0530,
5,0,6,s,4.951727199999823,None,6,0,5,185.49148220000006,,,,,,,,,,,,,,,,,,,,,,,,,,,,,,,,,,,,,,,,,,,,,,,,,,185.4759365,185.49148220000006,186.00732990000006,185.97490490000018,186.00490910000008,186.00732990000006,186.00732990000006,186.00732990000006,190.9754453999999,Objects\056b.jpg,pre,s,4.951727199999823,None,,,,00048,001,2026-01-24_15h36.35.684,MST_test,2024.2.0,59.87751455621175,2026-01-24 15h36.49.358066 +0530,
6,0,7,o,3.3763813999999,None,7,0,6,190.9915020000003,,,,,,,,,,,,,,,,,,,,,,,,,,,,,,,,,,,,,,,,,,,,,,,,,,190.97572059999993,190.9915020000003,191.4946342000003,191.47491579999996,191.49090800000022,191.4946342000003,191.4946342000003,191.4946342000003,194.87548719999995,Scenes\160a.jpg,pre,o,3.3763813999999,None,,,,00048,001,2026-01-24_15h36.35.684,MST_test,2024.2.0,59.87751455621175,2026-01-24 15h36.49.358066 +0530,
7,0,8,o,4.521622299999763,None,8,0,7,194.89155140000003,,,,,,,,,,,,,,,,,,,,,,,,,,,,,,,,,,,,,,,,,,,,,,,,,,194.87584560000005,194.89155140000003,195.39777630000026,195.37459020000006,195.39551310000024,195.39777630000026,195.39777630000026,195.39777630000026,199.9253944000002,Scenes\127a.jpg,mid,o,4.521622299999763,None,,,,00048,001,2026-01-24_15h36.35.684,MST_test,2024.2.0,59.87751455621175,2026-01-24 15h36.49.358066 +0530,
8,0,9,s,4.176546199999848,None,9,0,8,199.94165150000026,,,,,,,,,,,,,,,,,,,,,,,,,,,,,,,,,,,,,,,,,,,,,,,,,,199.92574670000022,199.94165150000026,200.47823180000023,200.42515870000034,200.47369830000025,200.47823180000023,200.47823180000023,200.47823180000023,204.65876419999995,Scenes\134b.jpg,mid,s,4.176546199999848,None,,,,00048,001,2026-01-24_15h36.35.684,MST_test,2024.2.0,59.87751455621175,2026-01-24 15h36.49.358066 +0530,
9,0,10,o,2.134310800000094,None,10,0,9,204.6748894000002,,,,,,,,,,,,,,,,,,,,,,,,,,,,,,,,,,,,,,,,,,,,,,,,,,204.65911880000021,204.6748894000002,205.1763930000002,205.15870480000012,205.17388280000023,205.1763930000002,205.1763930000002,205.1763930000002,207.3255892000002,Scenes\177a.jpg,post,o,2.134310800000094,None,,,,00048,001,2026-01-24_15h36.35.684,MST_test,2024.2.0,59.87751455621175,2026-01-24 15h36.49.358066 +0530,
10,0,11,o,4.157006899999942,None,11,0,10,207.3415875999999,,,,,,,,,,,,,,,,,,,,,,,,,,,,,,,,,,,,,,,,,,,,,,,,,,207.3260009999999,207.3415875999999,207.84232790000033,207.82546150000007,207.83501370000022,207.84232790000033,207.84232790000033,207.84232790000033,212.00910890000023,Objects\040a.jpg,mid,o,4.157006899999942,None,,,,00048,001,2026-01-24_15h36.35.684,MST_test,2024.2.0,59.87751455621175,2026-01-24 15h36.49.358066 +0530,
11,0,12,s,5.08560529999977,None,12,0,11,212.0250670999999,,,,,,,,,,,,,,,,,,,,,,,,,,,,,,,,,,,,,,,,,,,,,,,,,,212.00953140000001,212.0250670999999,212.52935720000005,212.50879320000013,212.52653800000007,212.52935720000005,212.52935720000005,212.52935720000005,217.6254968000003,Foils\scenes5.jpg,none,s,5.08560529999977,None,,,,00048,001,2026-01-24_15h36.35.684,MST_test,2024.2.0,59.87751455621175,2026-01-24 15h36.49.358066 +0530,
12,0,13,o,1.4975405000000137,None,13,0,12,217.64129760000014,,,,,,,,,,,,,,,,,,,,,,,,,,,,,,,,,,,,,,,,,,,,,,,,,,217.6257856000002,217.64129760000014,218.14150160000008,218.1249614000003,218.1308429999999,218.14150160000008,218.14150160000008,218.14150160000008,219.6419460000002,Objects\158a.jpg,mid,o,1.4975405000000137,None,,,,00048,001,2026-01-24_15h36.35.684,MST_test,2024.2.0,59.87751455621175,2026-01-24 15h36.49.358066 +0530,
13,0,14,n,3.8194287999999688,None,14,0,13,219.6581309000003,,,,,,,,,,,,,,,,,,,,,,,,,,,,,,,,,,,,,,,,,,,,,,,,,,219.64226039999994,219.6581309000003,220.26712580000003,220.14194510000016,220.26480489999994,220.26712580000003,220.26712580000003,220.26712580000003,224.0916470000002,Foils\scenes3.jpg,none,n,3.8194287999999688,None,,,,00048,001,2026-01-24_15h36.35.684,MST_test,2024.2.0,59.87751455621175,2026-01-24 15h36.49.358066 +0530,
14,0,15,o,1.2524950000001809,None,15,0,14,224.10788739999998,,,,,,,,,,,,,,,,,,,,,,,,,,,,,,,,,,,,,,,,,,,,,,,,,,224.09193189999996,224.10788739999998,224.61032969999997,224.59182839999994,224.60777910000024,224.61032969999997,224.61032969999997,224.61032969999997,225.87559409999994,Scenes\092a.jpg,post,o,1.2524950000001809,None,,,,00048,001,2026-01-24_15h36.35.684,MST_test,2024.2.0,59.87751455621175,2026-01-24 15h36.49.358066 +0530,
15,0,16,s,1.4238184000000729,None,16,0,15,225.89149160000034,,,,,,,,,,,,,,,,,,,,,,,,,,,,,,,,,,,,,,,,,,,,,,,,,,225.87594900000022,225.89149160000034,226.40665660000013,226.37487469999996,226.40401810000003,226.40665660000013,226.40665660000013,226.40665660000013,227.84132279999994,Objects\021a.jpg,pre,s,1.4238184000000729,None,,,,00048,001,2026-01-24_15h36.35.684,MST_test,2024.2.0,59.87751455621175,2026-01-24 15h36.49.358066 +0530,
16,0,17,s,3.9511788999998316,None,17,0,16,227.85778849999997,,,,,,,,,,,,,,,,,,,,,,,,,,,,,,,,,,,,,,,,,,,,,,,,,,227.8414514000001,227.85778849999997,,228.34165080000002,228.36542710000003,228.3677190000003,228.3677190000003,228.3677190000003,232.32548560000032,Foils\065a.jpg,none,s,3.9511788999998316,None,,,,00048,001,2026-01-24_15h36.35.684,MST_test,2024.2.0,59.87751455621175,2026-01-24 15h36.49.358066 +0530,
17,0,18,o,1.3090799999999945,None,18,0,17,232.34136930000022,,,,,,,,,,,,,,,,,,,,,,,,,,,,,,,,,,,,,,,,,,,,,,,,,,232.32584640000005,232.34136930000022,232.8415083,232.8254433000002,232.83468859999994,232.8415083,232.8415083,232.8415083,234.15868679999994,Objects\011a.jpg,post,o,1.3090799999999945,None,,,,00048,001,2026-01-24_15h36.35.684,MST_test,2024.2.0,59.87751455621175,2026-01-24 15h36.49.358066 +0530,
18,0,19,s,1.3623701000001347,None,19,0,18,234.1746677000001,,,,,,,,,,,,,,,,,,,,,,,,,,,,,,,,,,,,,,,,,,,,,,,,,,234.15895660000024,234.1746677000001,234.6844787,234.65854310000032,234.68235069999992,234.6844787,234.6844787,234.6844787,236.0589261,Foils\105a.jpg,none,s,1.3623701000001347,None,,,,00048,001,2026-01-24_15h36.35.684,MST_test,2024.2.0,59.87751455621175,2026-01-24 15h36.49.358066 +0530,
19,0,20,o,1.1041207000002942,None,20,0,19,236.07483219999995,,,,,,,,,,,,,,,,,,,,,,,,,,,,,,,,,,,,,,,,,,,,,,,,,,236.05930660000013,236.07483219999995,236.57509710000022,236.5585672000002,236.56714090000014,236.57509710000022,236.57509710000022,236.57509710000022,237.6920371000001,Objects\164a.jpg,mid,o,1.1041207000002942,None,,,,00048,001,2026-01-24_15h36.35.684,MST_test,2024.2.0,59.87751455621175,2026-01-24 15h36.49.358066 +0530,
20,0,21,o,1.1275832999999693,None,21,0,20,237.7081317000002,,,,,,,,,,,,,,,,,,,,,,,,,,,,,,,,,,,,,,,,,,,,,,,,,,237.69240119999995,237.7081317000002,238.2149088000001,238.19233040000017,238.21253449999995,238.2149088000001,238.2149088000001,238.2149088000001,239.3586164000003,Objects\063a.jpg,pre,o,1.1275832999999693,None,,,,00048,001,2026-01-24_15h36.35.684,MST_test,2024.2.0,59.87751455621175,2026-01-24 15h36.49.358066 +0530,
21,0,22,n,2.658592100000078,None,22,0,21,239.3744945000003,,,,,,,,,,,,,,,,,,,,,,,,,,,,,,,,,,,,,,,,,,,,,,,,,,239.35891470000024,239.3744945000003,239.8999931000003,239.8581091000001,239.89779410000028,239.8999931000003,239.8999931000003,239.8999931000003,242.5749804000002,Foils\121a.jpg,none,n,2.658592100000078,None,,,,00048,001,2026-01-24_15h36.35.684,MST_test,2024.2.0,59.87751455621175,2026-01-24 15h36.49.358066 +0530,
22,0,23,s,6.385211600000275,None,23,0,22,242.5910841,,,,,,,,,,,,,,,,,,,,,,,,,,,,,,,,,,,,,,,,,,,,,,,,,,242.57514979999996,242.5910841,,243.07514579999997,243.37867300000016,243.38163810000015,243.38163810000015,243.38163810000015,249.77542680000033,Foils\scenes12.jpg,none,s,6.385211600000275,None,,,,00048,001,2026-01-24_15h36.35.684,MST_test,2024.2.0,59.87751455621175,2026-01-24 15h36.49.358066 +0530,
23,0,24,s,5.413142099999732,None,24,0,23,249.79148160000022,,,,,,,,,,,,,,,,,,,,,,,,,,,,,,,,,,,,,,,,,,,,,,,,,,249.7757816000003,249.79148160000022,250.3938194000002,250.2754577999999,250.39080749999994,250.3938194000002,250.3938194000002,250.3938194000002,255.80871539999998,Objects\116b.jpg,pre,s,5.413142099999732,None,,,,00048,001,2026-01-24_15h36.35.684,MST_test,2024.2.0,59.87751455621175,2026-01-24 15h36.49.358066 +0530,
24,0,25,o,1.6449978999999075,None,25,0,24,255.82482590000018,,,,,,,,,,,,,,,,,,,,,,,,,,,,,,,,,,,,,,,,,,,,,,,,,,255.8090757,255.82482590000018,256.4976664999999,256.3090164,256.4951510000001,256.4976664999999,256.4976664999999,256.4976664999999,258.15923220000013,Scenes\072b.jpg,post,o,1.6449978999999075,None,,,,00048,001,2026-01-24_15h36.35.684,MST_test,2024.2.0,59.87751455621175,2026-01-24 15h36.49.358066 +0530,
25,0,26,n,6.5208205000003545,None,26,0,25,258.1747997000002,,,,,,,,,,,,,,,,,,,,,,,,,,,,,,,,,,,,,,,,,,,,,,,,,,258.1595446000001,258.1747997000002,258.6861217999999,258.65857810000034,258.6837264999999,258.6861217999999,258.6861217999999,258.6861217999999,265.2087405000002,Foils\098a.jpg,none,n,6.5208205000003545,None,,,,00048,001,2026-01-24_15h36.35.684,MST_test,2024.2.0,59.87751455621175,2026-01-24 15h36.49.358066 +0530,
26,0,27,s,5.454388300000119,None,27,0,26,265.2248039000001,,,,,,,,,,,,,,,,,,,,,,,,,,,,,,,,,,,,,,,,,,,,,,,,,,265.20918100000017,265.2248039000001,265.98423820000016,265.7086726000002,265.9821767000003,265.98423820000016,265.98423820000016,265.98423820000016,271.4421519000002,Foils\010a.jpg,none,s,5.454388300000119,None,,,,00048,001,2026-01-24_15h36.35.684,MST_test,2024.2.0,59.87751455621175,2026-01-24 15h36.49.358066 +0530,
27,0,28,s,3.631752900000265,None,28,0,27,271.4581647,,,,,,,,,,,,,,,,,,,,,,,,,,,,,,,,,,,,,,,,,,,,,,,,,,271.44251060000033,271.4581647,271.96678580000025,271.9421390000002,271.96468430000004,271.96678580000025,271.96678580000025,271.96678580000025,275.6083512,Foils\086a.jpg,none,s,3.631752900000265,None,,,,00048,001,2026-01-24_15h36.35.684,MST_test,2024.2.0,59.87751455621175,2026-01-24 15h36.49.358066 +0530,
28,0,29,o,1.1975382000000536,None,29,0,28,275.6244875000002,,,,,,,,,,,,,,,,,,,,,,,,,,,,,,,,,,,,,,,,,,,,,,,,,,275.6086355000002,275.6244875000002,276.12925140000016,276.10849959999996,276.1269102000001,276.12925140000016,276.12925140000016,276.12925140000016,277.34216700000025,Scenes\158a.jpg,mid,o,1.1975382000000536,None,,,,00048,001,2026-01-24_15h36.35.684,MST_test,2024.2.0,59.87751455621175,2026-01-24 15h36.49.358066 +0530,
29,0,30,o,1.708303899999919,None,30,0,29,277.3587574000003,,,,,,,,,,,,,,,,,,,,,,,,,,,,,,,,,,,,,,,,,,,,,,,,,,277.3425182000001,277.3587574000003,277.8586585000003,277.84173230000033,277.8530691000001,277.8586585000003,277.8586585000003,277.8586585000003,279.5756586000002,Objects\151a.jpg,post,o,1.708303899999919,None,,,,00048,001,2026-01-24_15h36.35.684,MST_test,2024.2.0,59.87751455621175,2026-01-24 15h36.49.358066 +0530,
30,0,31,s,1.5055171999997583,None,31,0,30,279.5917294000001,,,,,,,,,,,,,,,,,,,,,,,,,,,,,,,,,,,,,,,,,,,,,,,,,,279.5760091000002,279.5917294000001,280.0938476000001,280.0751008000002,280.09185320000006,280.0938476000001,280.0938476000001,280.0938476000001,281.6087407,Foils\020b.jpg,none,s,1.5055171999997583,None,,,,00048,001,2026-01-24_15h36.35.684,MST_test,2024.2.0,59.87751455621175,2026-01-24 15h36.49.358066 +0530,
31,0,32,s,2.7931696999999076,None,32,0,31,281.6249907000001,,,,,,,,,,,,,,,,,,,,,,,,,,,,,,,,,,,,,,,,,,,,,,,,,,281.6090908000001,281.6249907000001,282.12549290000015,282.1082796999999,282.1233910000001,282.12549290000015,282.12549290000015,282.12549290000015,284.92533820000017,Foils\057a.jpg,none,s,2.7931696999999076,None,,,,00048,001,2026-01-24_15h36.35.684,MST_test,2024.2.0,59.87751455621175,2026-01-24 15h36.49.358066 +0530,
32,0,33,o,1.2761837000002743,None,33,0,32,284.9413715999999,,,,,,,,,,,,,,,,,,,,,,,,,,,,,,,,,,,,,,,,,,,,,,,,,,284.9256298,284.9413715999999,285.45125469999994,285.42490450000014,285.4487862000001,285.45125469999994,285.45125469999994,285.45125469999994,286.74214550000033,Objects\130b.jpg,pre,o,1.2761837000002743,None,,,,00048,001,2026-01-24_15h36.35.684,MST_test,2024.2.0,59.87751455621175,2026-01-24 15h36.49.358066 +0530,
33,0,34,o,1.2797654000000875,None,34,0,33,286.7581637000003,,,,,,,,,,,,,,,,,,,,,,,,,,,,,,,,,,,,,,,,,,,,,,,,,,286.74251760000016,286.7581637000003,287.3589796000001,287.24192330000005,287.3564172000001,287.3589796000001,287.3589796000001,287.3589796000001,288.6421115000003,Objects\003b.jpg,post,o,1.2797654000000875,None,,,,00048,001,2026-01-24_15h36.35.684,MST_test,2024.2.0,59.87751455621175,2026-01-24 15h36.49.358066 +0530,
34,0,35,s,1.6577667000001384,None,35,0,34,288.6579775,,,,,,,,,,,,,,,,,,,,,,,,,,,,,,,,,,,,,,,,,,,,,,,,,,288.6424784000001,288.6579775,289.16553220000014,289.14216650000026,289.1628831000003,289.16553220000014,289.16553220000014,289.16553220000014,290.82537060000004,Foils\066a.jpg,none,s,1.6577667000001384,None,,,,00048,001,2026-01-24_15h36.35.684,MST_test,2024.2.0,59.87751455621175,2026-01-24 15h36.49.358066 +0530,
35,0,36,o,3.719842299999982,None,36,0,35,290.84173469999996,,,,,,,,,,,,,,,,,,,,,,,,,,,,,,,,,,,,,,,,,,,,,,,,,,290.8257481999999,290.84173469999996,291.35943750000024,291.3252338000002,291.35706310000023,291.35943750000024,291.35943750000024,291.35943750000024,295.0923969999999,Scenes\141b.jpg,pre,o,3.719842299999982,None,,,,00048,001,2026-01-24_15h36.35.684,MST_test,2024.2.0,59.87751455621175,2026-01-24 15h36.49.358066 +0530,
36,0,37,o,1.846153299999969,None,37,0,36,295.1083447000001,,,,,,,,,,,,,,,,,,,,,,,,,,,,,,,,,,,,,,,,,,,,,,,,,,295.0927587000001,295.1083447000001,295.6087708,295.59213720000025,295.59968660000004,295.6087708,295.6087708,295.6087708,297.45897560000003,Objects\090a.jpg,pre,o,1.846153299999969,None,,,,00048,001,2026-01-24_15h36.35.684,MST_test,2024.2.0,59.87751455621175,2026-01-24 15h36.49.358066 +0530,
37,0,38,s,3.1732410999998137,None,38,0,37,297.4750558999999,,,,,,,,,,,,,,,,,,,,,,,,,,,,,,,,,,,,,,,,,,,,,,,,,,297.4593285000001,297.4750558999999,298.0014444000003,297.9587432000003,297.9985732,298.0014444000003,298.0014444000003,298.0014444000003,301.1758408999999,Foils\scenes23.jpg,none,s,3.1732410999998137,None,,,,00048,001,2026-01-24_15h36.35.684,MST_test,2024.2.0,59.87751455621175,2026-01-24 15h36.49.358066 +0530,
38,0,39,n,1.4594283999999789,None,39,0,38,301.1917093000002,,,,,,,,,,,,,,,,,,,,,,,,,,,,,,,,,,,,,,,,,,,,,,,,,,301.17616580000004,301.1917093000002,301.7153551000001,301.67550789999996,301.7134696000003,301.7153551000001,301.7153551000001,301.7153551000001,303.1757778000001,Foils\082a.jpg,none,n,1.4594283999999789,None,,,,00048,001,2026-01-24_15h36.35.684,MST_test,2024.2.0,59.87751455621175,2026-01-24 15h36.49.358066 +0530,
39,0,40,s,2.589951999999812,None,40,0,39,303.1917348000002,,,,,,,,,,,,,,,,,,,,,,,,,,,,,,,,,,,,,,,,,,,,,,,,,,303.17601379999996,303.1917348000002,303.72933779999994,303.6754764000002,303.72697719999996,303.72933779999994,303.72933779999994,303.72933779999994,306.3256472000003,Scenes\156b.jpg,mid,s,2.589951999999812,None,,,,00048,001,2026-01-24_15h36.35.684,MST_test,2024.2.0,59.87751455621175,2026-01-24 15h36.49.358066 +0530,
40,0,41,o,1.2018941000001178,None,41,0,40,306.3417222000003,,,,,,,,,,,,,,,,,,,,,,,,,,,,,,,,,,,,,,,,,,,,,,,,,,306.3260024000001,306.3417222000003,306.8533626000003,306.82494410000027,306.85067530000015,306.8533626000003,306.8533626000003,306.8533626000003,308.05885260000014,Scenes\166a.jpg,post,o,1.2018941000001178,None,,,,00048,001,2026-01-24_15h36.35.684,MST_test,2024.2.0,59.87751455621175,2026-01-24 15h36.49.358066 +0530,
41,0,42,o,5.833178599999883,None,42,0,41,308.07470360000025,,,,,,,,,,,,,,,,,,,,,,,,,,,,,,,,,,,,,,,,,,,,,,,,,,308.05919810000023,308.07470360000025,308.66117280000026,308.5585460000002,308.6580908000001,308.66117280000026,308.66117280000026,308.66117280000026,314.50821300000007,Objects\146b.jpg,mid,o,5.833178599999883,None,,,,00048,001,2026-01-24_15h36.35.684,MST_test,2024.2.0,59.87751455621175,2026-01-24 15h36.49.358066 +0530,
42,0,43,o,4.725988999999572,None,43,0,42,314.52484300000015,,,,,,,,,,,,,,,,,,,,,,,,,,,,,,,,,,,,,,,,,,,,,,,,,,314.50834490000034,314.52484300000015,,315.00933220000024,315.0185922999999,315.0252433999999,315.0252433999999,315.0252433999999,319.7588217000002,Objects\082a.jpg,post,o,4.725988999999572,None,,,,00048,001,2026-01-24_15h36.35.684,MST_test,2024.2.0,59.87751455621175,2026-01-24 15h36.49.358066 +0530,
43,0,44,n,3.8134771,None,44,0,43,319.7750675000002,,,,,,,,,,,,,,,,,,,,,,,,,,,,,,,,,,,,,,,,,,,,,,,,,,319.7591771000002,319.7750675000002,320.2811380000003,320.2587937000003,320.27869039999996,320.2811380000003,320.2811380000003,320.2811380000003,324.10908070000005,Foils\scenes13.jpg,none,n,3.8134771,None,,,,00048,001,2026-01-24_15h36.35.684,MST_test,2024.2.0,59.87751455621175,2026-01-24 15h36.49.358066 +0530,
44,0,45,s,2.7301133999999365,None,45,0,44,324.12505790000023,,,,,,,,,,,,,,,,,,,,,,,,,,,,,,,,,,,,,,,,,,,,,,,,,,324.10944370000016,324.12505790000023,324.6605368999999,324.60866450000003,324.65819869999996,324.6605368999999,324.6605368999999,324.6605368999999,327.3920900000003,Objects\175b.jpg,mid,s,2.7301133999999365,None,,,,00048,001,2026-01-24_15h36.35.684,MST_test,2024.2.0,59.87751455621175,2026-01-24 15h36.49.358066 +0530,
45,0,46,s,3.900705399999879,None,46,0,45,327.4080997000001,,,,,,,,,,,,,,,,,,,,,,,,,,,,,,,,,,,,,,,,,,,,,,,,,,327.3924449000001,327.4080997000001,,327.8923085000001,327.93647680000004,327.93854360000023,327.93854360000023,327.93854360000023,331.8423221000003,Objects\036b.jpg,mid,s,3.900705399999879,None,,,,00048,001,2026-01-24_15h36.35.684,MST_test,2024.2.0,59.87751455621175,2026-01-24 15h36.49.358066 +0530,
46,0,47,o,1.3124541999995927,None,47,0,46,331.8581366000003,,,,,,,,,,,,,,,,,,,,,,,,,,,,,,,,,,,,,,,,,,,,,,,,,,331.84269919999997,331.8581366000003,332.35877800000026,332.3420143000003,332.3485617000001,332.35877800000026,332.35877800000026,332.35877800000026,333.67542649999996,Scenes\097a.jpg,post,o,1.3124541999995927,None,,,,00048,001,2026-01-24_15h36.35.684,MST_test,2024.2.0,59.87751455621175,2026-01-24 15h36.49.358066 +0530,
47,0,48,s,1.37724500000013,None,48,0,47,333.69199230000004,,,,,,,,,,,,,,,,,,,,,,,,,,,,,,,,,,,,,,,,,,,,,,,,,,333.67578840000033,333.69199230000004,334.2055390999999,334.1754759999999,334.20335810000006,334.2055390999999,334.2055390999999,334.2055390999999,335.5922918000001,Objects\133b.jpg,pre,s,1.37724500000013,None,,,,00048,001,2026-01-24_15h36.35.684,MST_test,2024.2.0,59.87751455621175,2026-01-24 15h36.49.358066 +0530,
48,0,49,s,10.393591999999899,None,49,0,48,335.6079254000001,,,,,,,,,,,,,,,,,,,,,,,,,,,,,,,,,,,,,,,,,,,,,,,,,,335.5926687000001,335.6079254000001,336.15773070000023,336.09215900000027,336.1551707000003,336.15773070000023,336.15773070000023,336.15773070000023,346.55909520000023,Scenes\184b.jpg,mid,s,10.393591999999899,None,,,,00048,001,2026-01-24_15h36.35.684,MST_test,2024.2.0,59.87751455621175,2026-01-24 15h36.49.358066 +0530,
49,0,50,o,1.4126737999999932,None,50,0,49,346.5750668999999,,,,,,,,,,,,,,,,,,,,,,,,,,,,,,,,,,,,,,,,,,,,,,,,,,346.5594713999999,346.5750668999999,347.0819274999999,347.0585731000001,347.0793877000001,347.0819274999999,347.0819274999999,347.0819274999999,348.50906729999997,Objects\179a.jpg,mid,o,1.4126737999999932,None,,,,00048,001,2026-01-24_15h36.35.684,MST_test,2024.2.0,59.87751455621175,2026-01-24 15h36.49.358066 +0530,
50,0,51,o,2.5578991000002134,None,51,0,50,348.5257987,,,,,,,,,,,,,,,,,,,,,,,,,,,,,,,,,,,,,,,,,,,,,,,,,,348.5094194000003,348.5257987,349.0253250999999,349.0087146000001,349.0212876999999,349.0253250999999,349.0253250999999,349.0253250999999,351.59221830000024,Scenes\139a.jpg,mid,o,2.5578991000002134,None,,,,00048,001,2026-01-24_15h36.35.684,MST_test,2024.2.0,59.87751455621175,2026-01-24 15h36.49.358066 +0530,
51,0,52,s,4.84178699999984,None,52,0,51,351.60840050000024,,,,,,,,,,,,,,,,,,,,,,,,,,,,,,,,,,,,,,,,,,,,,,,,,,351.59257350000007,351.60840050000024,352.10892520000016,352.09189240000023,352.0980979000001,352.10892520000016,352.10892520000016,352.10892520000016,356.9590956000002,Objects\180a.jpg,post,s,4.84178699999984,None,,,,00048,001,2026-01-24_15h36.35.684,MST_test,2024.2.0,59.87751455621175,2026-01-24 15h36.49.358066 +0530,
52,0,53,o,2.173748599999726,None,53,0,52,356.9750693000001,,,,,,,,,,,,,,,,,,,,,,,,,,,,,,,,,,,,,,,,,,,,,,,,,,356.9594603999999,356.9750693000001,357.5290295,357.4587904,357.5264251000003,357.5290295,357.5290295,357.5290295,359.7086704000003,Objects\099b.jpg,pre,o,2.173748599999726,None,,,,00048,001,2026-01-24_15h36.35.684,MST_test,2024.2.0,59.87751455621175,2026-01-24 15h36.49.358066 +0530,
53,0,54,n,2.237965599999825,None,54,0,53,359.72476940000024,,,,,,,,,,,,,,,,,,,,,,,,,,,,,,,,,,,,,,,,,,,,,,,,,,359.7090186999999,359.72476940000024,360.3045671,360.2087830999999,360.30092809999996,360.3045671,360.3045671,360.3045671,362.55875300000025,Foils\scenes18.jpg,none,n,2.237965599999825,None,,,,00048,001,2026-01-24_15h36.35.684,MST_test,2024.2.0,59.87751455621175,2026-01-24 15h36.49.358066 +0530,
54,0,55,n,2.7027297999998154,None,55,0,54,362.57464070000015,,,,,,,,,,,,,,,,,,,,,,,,,,,,,,,,,,,,,,,,,,,,,,,,,,362.55912119999994,362.57464070000015,363.0884395000003,363.05879270000014,363.0864399000002,363.0884395000003,363.0884395000003,363.0884395000003,365.79249230000005,Foils\018a.jpg,none,n,2.7027297999998154,None,,,,00048,001,2026-01-24_15h36.35.684,MST_test,2024.2.0,59.87751455621175,2026-01-24 15h36.49.358066 +0530,
55,0,56,o,1.274256499999865,None,56,0,55,365.8089503000001,,,,,,,,,,,,,,,,,,,,,,,,,,,,,,,,,,,,,,,,,,,,,,,,,,365.79284700000017,365.8089503000001,366.3166094000003,366.29207670000005,366.31415719999995,366.3166094000003,366.3166094000003,366.3166094000003,367.5921422000001,Objects\020a.jpg,mid,o,1.274256499999865,None,,,,00048,001,2026-01-24_15h36.35.684,MST_test,2024.2.0,59.87751455621175,2026-01-24 15h36.49.358066 +0530,
56,0,57,o,3.772186099999999,None,57,0,56,367.60825909999994,,,,,,,,,,,,,,,,,,,,,,,,,,,,,,,,,,,,,,,,,,,,,,,,,,367.5925121,367.60825909999994,368.1383500000002,368.09213690000024,368.13585250000006,368.1383500000002,368.1383500000002,368.1383500000002,371.9256531000001,Scenes\145b.jpg,pre,o,3.772186099999999,None,,,,00048,001,2026-01-24_15h36.35.684,MST_test,2024.2.0,59.87751455621175,2026-01-24 15h36.49.358066 +0530,
57,0,58,o,1.5325277000001734,None,58,0,57,371.9417077000003,,,,,,,,,,,,,,,,,,,,,,,,,,,,,,,,,,,,,,,,,,,,,,,,,,371.9260045000001,371.9417077000003,372.44251729999996,372.42582500000026,372.4350594000002,372.44251729999996,372.44251729999996,372.44251729999996,373.975997,Scenes\147a.jpg,mid,o,1.5325277000001734,None,,,,00048,001,2026-01-24_15h36.35.684,MST_test,2024.2.0,59.87751455621175,2026-01-24 15h36.49.358066 +0530,
58,0,59,o,1.068574500000068,None,59,0,58,373.9924796,,,,,,,,,,,,,,,,,,,,,,,,,,,,,,,,,,,,,,,,,,,,,,,,,,373.9763840999999,373.9924796,374.49824530000024,374.47538570000006,374.4957062000003,374.49824530000024,374.49824530000024,374.49824530000024,375.57557620000034,Objects\161a.jpg,pre,o,1.068574500000068,None,,,,00048,001,2026-01-24_15h36.35.684,MST_test,2024.2.0,59.87751455621175,2026-01-24 15h36.49.358066 +0530,
59,0,60,s,3.5552120000002105,None,60,0,59,375.59139240000013,,,,,,,,,,,,,,,,,,,,,,,,,,,,,,,,,,,,,,,,,,,,,,,,,,375.5759306,375.59139240000013,376.09201630000007,376.0757972000001,376.0893191,376.09201630000007,376.09201630000007,376.09201630000007,379.65889700000025,Scenes\116a.jpg,pre,s,3.5552120000002105,None,,,,00048,001,2026-01-24_15h36.35.684,MST_test,2024.2.0,59.87751455621175,2026-01-24 15h36.49.358066 +0530,
60,0,61,s,2.9474092000000383,None,61,0,60,379.6746731000003,,,,,,,,,,,,,,,,,,,,,,,,,,,,,,,,,,,,,,,,,,,,,,,,,,379.65929000000006,379.6746731000003,380.20321809999996,380.15879730000006,380.2007512,380.20321809999996,380.20321809999996,380.20321809999996,383.1588869000002,Objects\070b.jpg,mid,s,2.9474092000000383,None,,,,00048,001,2026-01-24_15h36.35.684,MST_test,2024.2.0,59.87751455621175,2026-01-24 15h36.49.358066 +0530,
61,0,62,n,3.7028454999999667,None,62,0,61,383.17456100000027,,,,,,,,,,,,,,,,,,,,,,,,,,,,,,,,,,,,,,,,,,,,,,,,,,383.15923920000023,383.17456100000027,383.7283543000003,383.6587045000001,383.72572130000026,383.7283543000003,383.7283543000003,383.7283543000003,387.442364,Scenes\096b.jpg,pre,n,3.7028454999999667,None,,,,00048,001,2026-01-24_15h36.35.684,MST_test,2024.2.0,59.87751455621175,2026-01-24 15h36.49.358066 +0530,
62,0,63,n,3.719713100000263,None,63,0,62,387.4586985000001,,,,,,,,,,,,,,,,,,,,,,,,,,,,,,,,,,,,,,,,,,,,,,,,,,387.4428127000001,387.4586985000001,387.9834866000001,387.94214120000015,387.9805828000003,387.9834866000001,387.9834866000001,387.9834866000001,391.7089854999999,Foils\058a.jpg,none,n,3.719713100000263,None,,,,00048,001,2026-01-24_15h36.35.684,MST_test,2024.2.0,59.87751455621175,2026-01-24 15h36.49.358066 +0530,
63,0,64,n,3.30002659999991,None,64,0,63,391.72509519999994,,,,,,,,,,,,,,,,,,,,,,,,,,,,,,,,,,,,,,,,,,,,,,,,,,391.70937619999995,391.72509519999994,392.22706180000023,392.2091392000002,392.2247188000001,392.22706180000023,392.22706180000023,392.22706180000023,395.5422536000001,Scenes\133a.jpg,pre,n,3.30002659999991,None,,,,00048,001,2026-01-24_15h36.35.684,MST_test,2024.2.0,59.87751455621175,2026-01-24 15h36.49.358066 +0530,
64,0,65,o,1.1325927000002594,None,65,0,64,395.55785160000005,,,,,,,,,,,,,,,,,,,,,,,,,,,,,,,,,,,,,,,,,,,,,,,,,,395.54263760000003,395.55785160000005,396.0586194000002,396.0418307,396.0559530999999,396.0586194000002,396.0586194000002,396.0586194000002,397.19258990000026,Scenes\008a.jpg,mid,o,1.1325927000002594,None,,,,00048,001,2026-01-24_15h36.35.684,MST_test,2024.2.0,59.87751455621175,2026-01-24 15h36.49.358066 +0530,
65,0,66,o,5.558809999999994,None,66,0,65,397.2083265000001,,,,,,,,,,,,,,,,,,,,,,,,,,,,,,,,,,,,,,,,,,,,,,,,,,397.1929431000003,397.2083265000001,397.71241550000013,397.6921376,397.7098740000001,397.71241550000013,397.71241550000013,397.71241550000013,403.27574840000034,Scenes\027a.jpg,post,o,5.558809999999994,None,,,,00048,001,2026-01-24_15h36.35.684,MST_test,2024.2.0,59.87751455621175,2026-01-24 15h36.49.358066 +0530,
66,0,67,o,10.22733500000004,None,67,0,66,403.2919439000002,,,,,,,,,,,,,,,,,,,,,,,,,,,,,,,,,,,,,,,,,,,,,,,,,,403.2760137,403.2919439000002,403.80340590000014,403.7751182000002,403.80048590000024,403.80340590000014,403.80340590000014,403.80340590000014,414.0423297000002,Scenes\118a.jpg,mid,o,10.22733500000004,None,,,,00048,001,2026-01-24_15h36.35.684,MST_test,2024.2.0,59.87751455621175,2026-01-24 15h36.49.358066 +0530,
67,0,68,n,1.2467960999997558,None,68,0,67,414.05818120000004,,,,,,,,,,,,,,,,,,,,,,,,,,,,,,,,,,,,,,,,,,,,,,,,,,414.0426877,414.05818120000004,414.5926532000003,414.54213990000017,414.5899164000002,414.5926532000003,414.5926532000003,414.5926532000003,415.8421598,Scenes\175b.jpg,post,n,1.2467960999997558,None,,,,00048,001,2026-01-24_15h36.35.684,MST_test,2024.2.0,59.87751455621175,2026-01-24 15h36.49.358066 +0530,
68,0,69,n,1.7509644000001572,None,69,0,68,415.8584665000003,,,,,,,,,,,,,,,,,,,,,,,,,,,,,,,,,,,,,,,,,,,,,,,,,,415.8425285000003,415.8584665000003,416.6237547999999,416.34203830000024,416.6168368000003,416.6237547999999,416.6237547999999,416.6237547999999,418.3761677000002,Foils\scenes26.jpg,none,n,1.7509644000001572,None,,,,00048,001,2026-01-24_15h36.35.684,MST_test,2024.2.0,59.87751455621175,2026-01-24 15h36.49.358066 +0530,
69,0,70,o,1.2875460999998722,None,70,0,69,418.39156619999994,,,,,,,,,,,,,,,,,,,,,,,,,,,,,,,,,,,,,,,,,,,,,,,,,,418.3765235999999,418.39156619999994,418.9601032999999,418.87540290000015,418.95804420000013,418.9601032999999,418.9601032999999,418.9601032999999,420.25888460000033,Objects\060b.jpg,pre,o,1.2875460999998722,None,,,,00048,001,2026-01-24_15h36.35.684,MST_test,2024.2.0,59.87751455621175,2026-01-24 15h36.49.358066 +0530,
70,0,71,o,2.257467599999927,None,71,0,70,420.2750183000003,,,,,,,,,,,,,,,,,,,,,,,,,,,,,,,,,,,,,,,,,,,,,,,,,,420.25924050000003,420.2750183000003,420.8530254000002,420.75882390000015,420.8503617000001,420.8530254000002,420.8530254000002,420.8530254000002,423.12549320000016,Scenes\001b.jpg,post,o,2.257467599999927,None,,,,00048,001,2026-01-24_15h36.35.684,MST_test,2024.2.0,59.87751455621175,2026-01-24 15h36.49.358066 +0530,
71,0,72,n,4.310364500000105,None,72,0,71,423.1415326000001,,,,,,,,,,,,,,,,,,,,,,,,,,,,,,,,,,,,,,,,,,,,,,,,,,423.12585390000004,423.1415326000001,423.64824799999997,423.62509050000017,423.6449247999999,423.64824799999997,423.64824799999997,423.64824799999997,427.97551120000026,Foils\scenes30.jpg,none,n,4.310364500000105,None,,,,00048,001,2026-01-24_15h36.35.684,MST_test,2024.2.0,59.87751455621175,2026-01-24 15h36.49.358066 +0530,
72,0,73,o,1.1591149000000769,None,73,0,72,427.9925410000001,,,,,,,,,,,,,,,,,,,,,,,,,,,,,,,,,,,,,,,,,,,,,,,,,,427.9758740000002,427.9925410000001,428.5045497000001,428.4753807000002,428.50134620000017,428.5045497000001,428.5045497000001,428.5045497000001,429.6756531000001,Objects\067a.jpg,post,o,1.1591149000000769,None,,,,00048,001,2026-01-24_15h36.35.684,MST_test,2024.2.0,59.87751455621175,2026-01-24 15h36.49.358066 +0530,
73,0,74,s,4.756619700000101,None,74,0,73,429.6917397000002,,,,,,,,,,,,,,,,,,,,,,,,,,,,,,,,,,,,,,,,,,,,,,,,,,429.6760048000001,429.6917397000002,430.2423980000003,430.1754009000001,430.2400037000002,430.2423980000003,430.2423980000003,430.2423980000003,435.0095793999999,Scenes\079b.jpg,post,s,4.756619700000101,None,,,,00048,001,2026-01-24_15h36.35.684,MST_test,2024.2.0,59.87751455621175,2026-01-24 15h36.49.358066 +0530,
74,0,75,o,3.7709905000001527,None,75,0,74,435.0247566000003,,,,,,,,,,,,,,,,,,,,,,,,,,,,,,,,,,,,,,,,,,,,,,,,,,435.0099765,435.0247566000003,435.53261120000025,435.5084675000003,435.53017020000016,435.53261120000025,435.53261120000025,435.53261120000025,439.30891770000017,Objects\178a.jpg,mid,o,3.7709905000001527,None,,,,00048,001,2026-01-24_15h36.35.684,MST_test,2024.2.0,59.87751455621175,2026-01-24 15h36.49.358066 +0530,
75,0,76,o,1.4471264999997402,None,76,0,75,439.32512620000034,,,,,,,,,,,,,,,,,,,,,,,,,,,,,,,,,,,,,,,,,,,,,,,,,,439.30916690000004,439.32512620000034,439.85527630000024,439.80841580000015,439.85285840000006,439.85527630000024,439.85527630000024,439.85527630000024,441.3089586000001,Objects\098b.jpg,post,o,1.4471264999997402,None,,,,00048,001,2026-01-24_15h36.35.684,MST_test,2024.2.0,59.87751455621175,2026-01-24 15h36.49.358066 +0530,
76,0,77,n,1.1539001999999527,None,77,0,76,441.3255035000002,,,,,,,,,,,,,,,,,,,,,,,,,,,,,,,,,,,,,,,,,,,,,,,,,,441.30930830000034,441.3255035000002,441.82997460000024,441.8087323,441.8272138000002,441.82997460000024,441.82997460000024,441.82997460000024,442.99228270000003,Foils\scenes4.jpg,none,n,1.1539001999999527,None,,,,00048,001,2026-01-24_15h36.35.684,MST_test,2024.2.0,59.87751455621175,2026-01-24 15h36.49.358066 +0530,
77,0,78,o,1.506440300000122,None,78,0,77,443.00793780000004,,,,,,,,,,,,,,,,,,,,,,,,,,,,,,,,,,,,,,,,,,,,,,,,,,442.99263980000023,443.00793780000004,443.5087120000003,443.4921526000003,443.50167980000015,443.5087120000003,443.5087120000003,443.5087120000003,445.0257326000001,Objects\089a.jpg,pre,o,1.506440300000122,None,,,,00048,001,2026-01-24_15h36.35.684,MST_test,2024.2.0,59.87751455621175,2026-01-24 15h36.49.358066 +0530,
78,0,79,s,1.685974299999998,None,79,0,78,445.04175570000007,,,,,,,,,,,,,,,,,,,,,,,,,,,,,,,,,,,,,,,,,,,,,,,,,,445.02608420000024,445.04175570000007,445.5767399000001,445.5252903999999,445.57429709999997,445.5767399000001,445.5767399000001,445.5767399000001,447.2754437000003,Scenes\138b.jpg,mid,s,1.685974299999998,None,,,,00048,001,2026-01-24_15h36.35.684,MST_test,2024.2.0,59.87751455621175,2026-01-24 15h36.49.358066 +0530,
79,0,80,o,1.4224057999999786,None,80,0,79,447.29174360000025,,,,,,,,,,,,,,,,,,,,,,,,,,,,,,,,,,,,,,,,,,,,,,,,,,447.27579890000015,447.29174360000025,447.8001541000003,447.77541229999997,447.79758519999996,447.8001541000003,447.8001541000003,447.8001541000003,449.2253234,Scenes\034a.jpg,post,o,1.4224057999999786,None,,,,00048,001,2026-01-24_15h36.35.684,MST_test,2024.2.0,59.87751455621175,2026-01-24 15h36.49.358066 +0530,
80,0,81,o,1.2704544000002898,None,81,0,80,449.24155470000005,,,,,,,,,,,,,,,,,,,,,,,,,,,,,,,,,,,,,,,,,,,,,,,,,,449.2256556000002,449.24155470000005,449.75236670000004,449.725457,449.7489982000002,449.75236670000004,449.75236670000004,449.75236670000004,451.0255969,Objects\081a.jpg,post,o,1.2704544000002898,None,,,,00048,001,2026-01-24_15h36.35.684,MST_test,2024.2.0,59.87751455621175,2026-01-24 15h36.49.358066 +0530,
81,0,82,o,1.8177687000002152,None,82,0,81,451.0417430000002,,,,,,,,,,,,,,,,,,,,,,,,,,,,,,,,,,,,,,,,,,,,,,,,,,451.0259414000002,451.0417430000002,451.59716660000004,451.5251032000001,451.59446190000017,451.59716660000004,451.59716660000004,451.59716660000004,453.42577230000006,Scenes\085b.jpg,mid,o,1.8177687000002152,None,,,,00048,001,2026-01-24_15h36.35.684,MST_test,2024.2.0,59.87751455621175,2026-01-24 15h36.49.358066 +0530,
82,0,83,o,9.259647099999711,None,83,0,82,453.44175080000014,,,,,,,,,,,,,,,,,,,,,,,,,,,,,,,,,,,,,,,,,,,,,,,,,,453.4261243000001,453.44175080000014,453.9714217999999,453.9256158000003,453.96889360000023,453.9714217999999,453.9714217999999,453.9714217999999,463.24242600000025,Scenes\132b.jpg,mid,o,9.259647099999711,None,,,,00048,001,2026-01-24_15h36.35.684,MST_test,2024.2.0,59.87751455621175,2026-01-24 15h36.49.358066 +0530,
83,0,84,s,1.483577499999683,None,84,0,83,463.25874479999993,,,,,,,,,,,,,,,,,,,,,,,,,,,,,,,,,,,,,,,,,,,,,,,,,,463.24277759999995,463.25874479999993,463.7871189000002,463.7421607000001,463.7844259000003,463.7871189000002,463.7871189000002,463.7871189000002,465.27540720000025,Scenes\095b.jpg,mid,s,1.483577499999683,None,,,,00048,001,2026-01-24_15h36.35.684,MST_test,2024.2.0,59.87751455621175,2026-01-24 15h36.49.358066 +0530,
84,0,85,o,1.4068425999998908,None,85,0,84,465.2917580000003,,,,,,,,,,,,,,,,,,,,,,,,,,,,,,,,,,,,,,,,,,,,,,,,,,465.2757553000001,465.2917580000003,465.79230860000007,465.77514599999995,465.7868972000001,465.79230860000007,465.79230860000007,465.79230860000007,467.20903290000024,Scenes\157a.jpg,post,o,1.4068425999998908,None,,,,00048,001,2026-01-24_15h36.35.684,MST_test,2024.2.0,59.87751455621175,2026-01-24 15h36.49.358066 +0530,
85,0,86,n,1.841021400000045,None,86,0,85,467.2250763000002,,,,,,,,,,,,,,,,,,,,,,,,,,,,,,,,,,,,,,,,,,,,,,,,,,467.20938490000026,467.2250763000002,467.7661542000001,467.7087403999999,467.7634065000002,467.7661542000001,467.7661542000001,467.7661542000001,469.60879380000006,Scenes\068b.jpg,post,n,1.841021400000045,None,,,,00048,001,2026-01-24_15h36.35.684,MST_test,2024.2.0,59.87751455621175,2026-01-24 15h36.49.358066 +0530,
86,0,87,n,1.144163099999787,None,87,0,86,469.62477720000015,,,,,,,,,,,,,,,,,,,,,,,,,,,,,,,,,,,,,,,,,,,,,,,,,,469.6091414000002,469.62477720000015,470.1666285000001,470.10880369999995,470.1632085000001,470.1666285000001,470.1666285000001,470.1666285000001,471.32546260000026,Foils\scenes16.jpg,none,n,1.144163099999787,None,,,,00048,001,2026-01-24_15h36.35.684,MST_test,2024.2.0,59.87751455621175,2026-01-24 15h36.49.358066 +0530,
87,0,88,o,3.7403943999997864,None,88,0,87,471.3416766,,,,,,,,,,,,,,,,,,,,,,,,,,,,,,,,,,,,,,,,,,,,,,,,,,471.32580830000006,471.3416766,471.9388022000003,471.8252324,471.93603200000007,471.9388022000003,471.9388022000003,471.9388022000003,475.6923976000003,Scenes\031b.jpg,post,o,3.7403943999997864,None,,,,00048,001,2026-01-24_15h36.35.684,MST_test,2024.2.0,59.87751455621175,2026-01-24 15h36.49.358066 +0530,
88,0,89,s,4.398186100000203,None,89,0,88,475.70831670000007,,,,,,,,,,,,,,,,,,,,,,,,,,,,,,,,,,,,,,,,,,,,,,,,,,475.6927447000003,475.70831670000007,476.2087574000002,476.19203400000015,476.2015019999999,476.2087574000002,476.2087574000002,476.2087574000002,480.60899930000005,Objects\062a.jpg,mid,s,4.398186100000203,None,,,,00048,001,2026-01-24_15h36.35.684,MST_test,2024.2.0,59.87751455621175,2026-01-24 15h36.49.358066 +0530,
89,0,90,o,1.4929497000002812,None,90,0,89,480.6250835999999,,,,,,,,,,,,,,,,,,,,,,,,,,,,,,,,,,,,,,,,,,,,,,,,,,480.60937730000023,480.6250835999999,481.2095978000002,481.1084291000002,481.2069784,481.2095978000002,481.2095978000002,481.2095978000002,482.70968140000014,Scenes\104b.jpg,pre,o,1.4929497000002812,None,,,,00048,001,2026-01-24_15h36.35.684,MST_test,2024.2.0,59.87751455621175,2026-01-24 15h36.49.358066 +0530,
90,0,91,o,3.9880450000000565,None,91,0,90,482.7253453000003,,,,,,,,,,,,,,,,,,,,,,,,,,,,,,,,,,,,,,,,,,,,,,,,,,482.71003139999993,482.7253453000003,483.29869370000006,483.20982989999993,483.29609170000003,483.29869370000006,483.29869370000006,483.29869370000006,487.2923960000003,Scenes\114b.jpg,post,o,3.9880450000000565,None,,,,00048,001,2026-01-24_15h36.35.684,MST_test,2024.2.0,59.87751455621175,2026-01-24 15h36.49.358066 +0530,
91,0,92,o,2.204594999999699,None,92,0,91,487.3084050000002,,,,,,,,,,,,,,,,,,,,,,,,,,,,,,,,,,,,,,,,,,,,,,,,,,487.2927463000001,487.3084050000002,,487.7927388000003,487.8476548000003,487.85050450000017,487.85050450000017,487.85050450000017,490.05902289999995,Scenes\014b.jpg,pre,o,2.204594999999699,None,,,,00048,001,2026-01-24_15h36.35.684,MST_test,2024.2.0,59.87751455621175,2026-01-24 15h36.49.358066 +0530,
92,0,93,s,4.537669999999707,None,93,0,92,490.0747999,,,,,,,,,,,,,,,,,,,,,,,,,,,,,,,,,,,,,,,,,,,,,,,,,,490.05939850000004,490.0747999,490.6051169000002,490.55855390000033,490.6026433000002,490.6051169000002,490.6051169000002,490.6051169000002,495.1590696000003,Scenes\180b.jpg,pre,s,4.537669999999707,None,,,,00048,001,2026-01-24_15h36.35.684,MST_test,2024.2.0,59.87751455621175,2026-01-24 15h36.49.358066 +0530,
93,0,94,n,1.575908000000254,None,94,0,93,495.1750775999999,,,,,,,,,,,,,,,,,,,,,,,,,,,,,,,,,,,,,,,,,,,,,,,,,,495.1594184999999,495.1750775999999,495.77460470000005,495.6585305000003,495.77199800000017,495.77460470000005,495.77460470000005,495.77460470000005,497.3591214000003,Scenes\070b.jpg,post,n,1.575908000000254,None,,,,00048,001,2026-01-24_15h36.35.684,MST_test,2024.2.0,59.87751455621175,2026-01-24 15h36.49.358066 +0530,
94,0,95,o,1.1954327000003104,None,95,0,94,497.3748485000001,,,,,,,,,,,,,,,,,,,,,,,,,,,,,,,,,,,,,,,,,,,,,,,,,,497.3594499000001,497.3748485000001,497.8913553000002,497.85860040000034,497.8891999000002,497.8913553000002,497.8913553000002,497.8913553000002,499.09222090000003,Scenes\054a.jpg,post,o,1.1954327000003104,None,,,,00048,001,2026-01-24_15h36.35.684,MST_test,2024.2.0,59.87751455621175,2026-01-24 15h36.49.358066 +0530,
95,0,96,o,1.405975699999999,None,96,0,95,499.10811030000013,,,,,,,,,,,,,,,,,,,,,,,,,,,,,,,,,,,,,,,,,,,,,,,,,,499.0925664000001,499.10811030000013,499.60864530000026,499.59214199999997,499.6046266000003,499.60864530000026,499.60864530000026,499.60864530000026,501.02564930000017,Objects\050a.jpg,mid,o,1.405975699999999,None,,,,00048,001,2026-01-24_15h36.35.684,MST_test,2024.2.0,59.87751455621175,2026-01-24 15h36.49.358066 +0530,
96,0,97,n,3.2825956000001497,None,97,0,96,501.0415759000002,,,,,,,,,,,,,,,,,,,,,,,,,,,,,,,,,,,,,,,,,,,,,,,,,,501.02605250000033,501.0415759000002,501.5719643000002,501.5254219000003,501.5693414000002,501.5719643000002,501.5719643000002,501.5719643000002,504.85906780000005,Scenes\126b.jpg,mid,n,3.2825956000001497,None,,,,00048,001,2026-01-24_15h36.35.684,MST_test,2024.2.0,59.87751455621175,2026-01-24 15h36.49.358066 +0530,
97,0,98,s,3.4120733999998265,None,98,0,97,504.87482739999996,,,,,,,,,,,,,,,,,,,,,,,,,,,,,,,,,,,,,,,,,,,,,,,,,,504.85941249999996,504.87482739999996,505.47470250000015,505.3588665000002,505.47213150000016,505.47470250000015,505.47470250000015,505.47470250000015,508.8921141000001,Objects\097b.jpg,post,s,3.4120733999998265,None,,,,00048,001,2026-01-24_15h36.35.684,MST_test,2024.2.0,59.87751455621175,2026-01-24 15h36.49.358066 +0530,
98,0,99,o,2.316737699999976,None,99,0,98,508.90872290000016,,,,,,,,,,,,,,,,,,,,,,,,,,,,,,,,,,,,,,,,,,,,,,,,,,508.89246660000026,508.90872290000016,509.4183604,509.3917974000001,509.4156584000002,509.4183604,509.4183604,509.4183604,511.74253050000016,Scenes\168a.jpg,post,o,2.316737699999976,None,,,,00048,001,2026-01-24_15h36.35.684,MST_test,2024.2.0,59.87751455621175,2026-01-24 15h36.49.358066 +0530,
99,0,100,o,3.1799846000003527,None,100,0,99,511.7581917000002,,,,,,,,,,,,,,,,,,,,,,,,,,,,,,,,,,,,,,,,,,,,,,,,,,511.7428817,511.7581917000002,512.2666721,512.2421313,512.2640169000001,512.2666721,512.2666721,512.2666721,515.4586445,Scenes\059a.jpg,pre,o,3.1799846000003527,None,,,,00048,001,2026-01-24_15h36.35.684,MST_test,2024.2.0,59.87751455621175,2026-01-24 15h36.49.358066 +0530,
100,0,101,s,2.199657600000137,None,101,0,100,515.4753410000003,,,,,,,,,,,,,,,,,,,,,,,,,,,,,,,,,,,,,,,,,,,,,,,,,,515.4589986999999,515.4753410000003,515.9827334000001,515.9586807000001,515.9801336999999,515.9827334000001,515.9827334000001,515.9827334000001,518.1919992000003,Foils\049a.jpg,none,s,2.199657600000137,None,,,,00048,001,2026-01-24_15h36.35.684,MST_test,2024.2.0,59.87751455621175,2026-01-24 15h36.49.358066 +0530,
101,0,102,n,4.786143999999695,None,102,0,101,518.2081051,,,,,,,,,,,,,,,,,,,,,,,,,,,,,,,,,,,,,,,,,,,,,,,,,,518.1921928000002,518.2081051,,518.6922251999999,518.7018170000001,518.7082608000001,518.7082608000001,518.7082608000001,523.5086911000003,Objects\112a.jpg,pre,n,4.786143999999695,None,,,,00048,001,2026-01-24_15h36.35.684,MST_test,2024.2.0,59.87751455621175,2026-01-24 15h36.49.358066 +0530,
102,0,103,o,2.573050399999829,None,103,0,102,523.5249991000001,,,,,,,,,,,,,,,,,,,,,,,,,,,,,,,,,,,,,,,,,,,,,,,,,,523.5090037,523.5249991000001,524.0253259000001,524.0084048000003,524.0165843,524.0253259000001,524.0253259000001,524.0253259000001,526.6090013000003,Objects\114a.jpg,pre,o,2.573050399999829,None,,,,00048,001,2026-01-24_15h36.35.684,MST_test,2024.2.0,59.87751455621175,2026-01-24 15h36.49.358066 +0530,
103,0,104,o,1.4464078000000882,None,104,0,103,526.6256917999999,,,,,,,,,,,,,,,,,,,,,,,,,,,,,,,,,,,,,,,,,,,,,,,,,,526.6093513000001,526.6256917999999,527.1281291,527.1088843000002,527.1257881000001,527.1281291,527.1281291,527.1281291,528.5759397000002,Scenes\063a.jpg,mid,o,1.4464078000000882,None,,,,00048,001,2026-01-24_15h36.35.684,MST_test,2024.2.0,59.87751455621175,2026-01-24 15h36.49.358066 +0530,
104,0,105,o,4.128484400000161,None,105,0,104,528.5917489000003,,,,,,,,,,,,,,,,,,,,,,,,,,,,,,,,,,,,,,,,,,,,,,,,,,528.5762895000003,528.5917489000003,529.1259765,529.0752753000002,529.1230985000002,529.1259765,529.1259765,529.1259765,533.2588783000001,Objects\091b.jpg,pre,o,4.128484400000161,None,,,,00048,001,2026-01-24_15h36.35.684,MST_test,2024.2.0,59.87751455621175,2026-01-24 15h36.49.358066 +0530,
105,0,106,o,7.850073399999928,None,106,0,105,533.2753478,,,,,,,,,,,,,,,,,,,,,,,,,,,,,,,,,,,,,,,,,,,,,,,,,,533.2592652000003,533.2753478,533.7884075000002,533.7591990999999,533.7857629,533.7884075000002,533.7884075000002,533.7884075000002,541.6421273000001,Scenes\011a.jpg,pre,o,7.850073399999928,None,,,,00048,001,2026-01-24_15h36.35.684,MST_test,2024.2.0,59.87751455621175,2026-01-24 15h36.49.358066 +0530,
106,0,107,o,2.8371022000001176,None,107,0,106,541.6582828999999,,,,,,,,,,,,,,,,,,,,,,,,,,,,,,,,,,,,,,,,,,,,,,,,,,541.6424824000001,541.6582828999999,542.2814625999999,542.1419489,542.2788863000001,542.2814625999999,542.2814625999999,542.2814625999999,545.1255277,Objects\054b.jpg,mid,o,2.8371022000001176,None,,,,00048,001,2026-01-24_15h36.35.684,MST_test,2024.2.0,59.87751455621175,2026-01-24 15h36.49.358066 +0530,
107,0,108,o,2.998379399999976,None,108,0,107,545.1416339000002,,,,,,,,,,,,,,,,,,,,,,,,,,,,,,,,,,,,,,,,,,,,,,,,,,545.125869,545.1416339000002,545.6801430999999,545.6253978,545.6775775000001,545.6801430999999,545.6801430999999,545.6801430999999,548.6923594,Objects\031b.jpg,post,o,2.998379399999976,None,,,,00048,001,2026-01-24_15h36.35.684,MST_test,2024.2.0,59.87751455621175,2026-01-24 15h36.49.358066 +0530,
108,0,109,s,1.2549632000000202,None,109,0,108,548.7082366,,,,,,,,,,,,,,,,,,,,,,,,,,,,,,,,,,,,,,,,,,,,,,,,,,548.6927073000002,548.7082366,549.2320951000002,549.1918875000001,549.2300546000001,549.2320951000002,549.2320951000002,549.2320951000002,550.4928673,Objects\186b.jpg,post,s,1.2549632000000202,None,,,,00048,001,2026-01-24_15h36.35.684,MST_test,2024.2.0,59.87751455621175,2026-01-24 15h36.49.358066 +0530,
109,0,110,o,2.733892200000355,None,110,0,109,550.5081998999999,,,,,,,,,,,,,,,,,,,,,,,,,,,,,,,,,,,,,,,,,,,,,,,,,,550.4932225000002,550.5081998999999,551.0089359000003,550.9921815000002,551.006132,551.0089359000003,551.0089359000003,551.0089359000003,553.7590678000001,Scenes\176a.jpg,pre,o,2.733892200000355,None,,,,00048,001,2026-01-24_15h36.35.684,MST_test,2024.2.0,59.87751455621175,2026-01-24 15h36.49.358066 +0530,
110,0,111,s,2.0684007999998357,None,111,0,110,553.775662,,,,,,,,,,,,,,,,,,,,,,,,,,,,,,,,,,,,,,,,,,,,,,,,,,553.7594210000002,553.775662,554.2986636,554.2586323999999,554.296085,554.2986636,554.2986636,554.2986636,556.3760344000002,Scenes\113b.jpg,post,s,2.0684007999998357,None,,,,00048,001,2026-01-24_15h36.35.684,MST_test,2024.2.0,59.87751455621175,2026-01-24 15h36.49.358066 +0530,
111,0,112,o,1.2255089999998745,None,112,0,111,556.3916520000002,,,,,,,,,,,,,,,,,,,,,,,,,,,,,,,,,,,,,,,,,,,,,,,,,,556.3764041,556.3916520000002,556.8928568000001,556.8754446000003,556.8857928000002,556.8928568000001,556.8928568000001,556.8928568000001,558.1255437,Objects\160a.jpg,pre,o,1.2255089999998745,None,,,,00048,001,2026-01-24_15h36.35.684,MST_test,2024.2.0,59.87751455621175,2026-01-24 15h36.49.358066 +0530,
112,0,113,o,3.893079899999975,None,113,0,112,558.1415523000001,,,,,,,,,,,,,,,,,,,,,,,,,,,,,,,,,,,,,,,,,,,,,,,,,,558.1258869000003,558.1415523000001,558.6416809000002,558.6252841999999,558.6328702999999,558.6416809000002,558.6416809000002,558.6416809000002,562.5423456000003,Objects\075a.jpg,post,o,3.893079899999975,None,,,,00048,001,2026-01-24_15h36.35.684,MST_test,2024.2.0,59.87751455621175,2026-01-24 15h36.49.358066 +0530,
113,0,114,o,2.0574516000001495,None,114,0,113,562.5584169000003,,,,,,,,,,,,,,,,,,,,,,,,,,,,,,,,,,,,,,,,,,,,,,,,,,562.5427128000001,562.5584169000003,563.0610572,563.0420779000001,563.0584527000001,563.0610572,563.0610572,563.0610572,565.1256181000003,Scenes\163a.jpg,mid,o,2.0574516000001495,None,,,,00048,001,2026-01-24_15h36.35.684,MST_test,2024.2.0,59.87751455621175,2026-01-24 15h36.49.358066 +0530,
114,0,115,o,3.340678100000332,None,115,0,114,565.1413064000003,,,,,,,,,,,,,,,,,,,,,,,,,,,,,,,,,,,,,,,,,,,,,,,,,,565.1259660999999,565.1413064000003,565.6418745999999,565.6252440000003,565.6318335000001,565.6418745999999,565.6418745999999,565.6418745999999,568.9922190000002,Objects\058a.jpg,mid,o,3.340678100000332,None,,,,00048,001,2026-01-24_15h36.35.684,MST_test,2024.2.0,59.87751455621175,2026-01-24 15h36.49.358066 +0530,
115,0,116,s,2.9326654999999846,None,116,0,115,569.0082408000003,,,,,,,,,,,,,,,,,,,,,,,,,,,,,,,,,,,,,,,,,,,,,,,,,,568.9925745999999,569.0082408000003,569.5143619999999,569.4920772,569.5117387,569.5143619999999,569.5143619999999,569.5143619999999,572.4589982000002,Foils\050a.jpg,none,s,2.9326654999999846,None,,,,00048,001,2026-01-24_15h36.35.684,MST_test,2024.2.0,59.87751455621175,2026-01-24 15h36.49.358066 +0530,
116,0,117,s,2.3962437000000136,None,117,0,116,572.4754270000003,,,,,,,,,,,,,,,,,,,,,,,,,,,,,,,,,,,,,,,,,,,,,,,,,,572.4593437000003,572.4754270000003,572.9782853000002,572.9584732000003,572.9760323,572.9782853000002,572.9782853000002,572.9782853000002,575.3760289000002,Scenes\090a.jpg,pre,s,2.3962437000000136,None,,,,00048,001,2026-01-24_15h36.35.684,MST_test,2024.2.0,59.87751455621175,2026-01-24 15h36.49.358066 +0530,
117,0,118,s,1.4242982000000666,None,118,0,117,575.3913867000001,,,,,,,,,,,,,,,,,,,,,,,,,,,,,,,,,,,,,,,,,,,,,,,,,,575.3763956000003,575.3913867000001,575.9579969000001,575.8755569,575.9552133000002,575.9579969000001,575.9579969000001,575.9579969000001,577.3920748,Scenes\129b.jpg,mid,s,1.4242982000000666,None,,,,00048,001,2026-01-24_15h36.35.684,MST_test,2024.2.0,59.87751455621175,2026-01-24 15h36.49.358066 +0530,
118,0,119,o,1.2464192000002186,None,119,0,118,577.408512,,,,,,,,,,,,,,,,,,,,,,,,,,,,,,,,,,,,,,,,,,,,,,,,,,577.3924179,577.408512,577.9199603000002,577.8918757000001,577.9175700999999,577.9199603000002,577.9199603000002,577.9199603000002,579.1755499999999,Scenes\185a.jpg,pre,o,1.2464192000002186,None,,,,00048,001,2026-01-24_15h36.35.684,MST_test,2024.2.0,59.87751455621175,2026-01-24 15h36.49.358066 +0530,
119,0,120,s,3.077167699999791,None,120,0,119,579.1916171000003,,,,,,,,,,,,,,,,,,,,,,,,,,,,,,,,,,,,,,,,,,,,,,,,,,579.1759205000003,579.1916171000003,579.7134243999999,579.6754838000002,579.7102121000003,579.7134243999999,579.7134243999999,579.7134243999999,582.7920646000002,Foils\scenes1.jpg,none,s,3.077167699999791,None,,,,00048,001,2026-01-24_15h36.35.684,MST_test,2024.2.0,59.87751455621175,2026-01-24 15h36.49.358066 +0530,
120,0,121,s,6.939055199999984,None,121,0,120,582.8082586999999,,,,,,,,,,,,,,,,,,,,,,,,,,,,,,,,,,,,,,,,,,,,,,,,,,582.7924141000003,582.8082586999999,583.3239908,583.2918456000002,583.3211627000001,583.3239908,583.3239908,583.3239908,590.2757242000002,Objects\094b.jpg,pre,s,6.939055199999984,None,,,,00048,001,2026-01-24_15h36.35.684,MST_test,2024.2.0,59.87751455621175,2026-01-24 15h36.49.358066 +0530,
121,0,122,o,1.031992100000025,None,122,0,121,590.2913656999999,,,,,,,,,,,,,,,,,,,,,,,,,,,,,,,,,,,,,,,,,,,,,,,,,,590.2761820999999,590.2913656999999,590.7918528,590.7754921999999,590.7887625000003,590.7918528,590.7918528,590.7918528,591.8254821,Scenes\058a.jpg,post,o,1.031992100000025,None,,,,00048,001,2026-01-24_15h36.35.684,MST_test,2024.2.0,59.87751455621175,2026-01-24 15h36.49.358066 +0530,
122,0,123,o,1.2736245000000963,None,123,0,122,591.8416785,,,,,,,,,,,,,,,,,,,,,,,,,,,,,,,,,,,,,,,,,,,,,,,,,,591.8258430999999,591.8416785,592.3967096000001,592.3257352999999,592.3937642999999,592.3967096000001,592.3967096000001,592.3967096000001,593.6753256000002,Scenes\192b.jpg,pre,o,1.2736245000000963,None,,,,00048,001,2026-01-24_15h36.35.684,MST_test,2024.2.0,59.87751455621175,2026-01-24 15h36.49.358066 +0530,
123,0,124,s,2.9357301000000007,None,124,0,123,593.6913611,,,,,,,,,,,,,,,,,,,,,,,,,,,,,,,,,,,,,,,,,,,,,,,,,,593.6756645,593.6913611,594.2868671000001,594.1753513000003,594.2838875000002,594.2868671000001,594.2868671000001,594.2868671000001,597.2254870000002,Objects\077b.jpg,post,s,2.9357301000000007,None,,,,00048,001,2026-01-24_15h36.35.684,MST_test,2024.2.0,59.87751455621175,2026-01-24 15h36.49.358066 +0530,
124,0,125,n,2.01099239999985,None,125,0,124,597.2415123000001,,,,,,,,,,,,,,,,,,,,,,,,,,,,,,,,,,,,,,,,,,,,,,,,,,597.2258363999999,597.2415123000001,597.7634383,597.7255143000002,597.7598858000001,597.7634383,597.7634383,597.7634383,599.7772466000001,Foils\scenes17.jpg,none,n,2.01099239999985,None,,,,00048,001,2026-01-24_15h36.35.684,MST_test,2024.2.0,59.87751455621175,2026-01-24 15h36.49.358066 +0530,
125,0,126,s,2.3162250999998832,None,126,0,125,599.7921578,,,,,,,,,,,,,,,,,,,,,,,,,,,,,,,,,,,,,,,,,,,,,,,,,,599.7776045,599.7921578,600.3386802,600.2753680999999,600.3362032,600.3386802,600.3386802,600.3386802,602.6590059,Scenes\164b.jpg,mid,s,2.3162250999998832,None,,,,00048,001,2026-01-24_15h36.35.684,MST_test,2024.2.0,59.87751455621175,2026-01-24 15h36.49.358066 +0530,
126,0,127,o,1.8078537999999753,None,127,0,126,602.6750930000003,,,,,,,,,,,,,,,,,,,,,,,,,,,,,,,,,,,,,,,,,,,,,,,,,,602.6593518,602.6750930000003,603.2228806000003,603.1585263000002,603.2190095000001,603.2228806000003,603.2228806000003,603.2228806000003,605.0421271,Objects\101b.jpg,post,o,1.8078537999999753,None,,,,00048,001,2026-01-24_15h36.35.684,MST_test,2024.2.0,59.87751455621175,2026-01-24 15h36.49.358066 +0530,
127,0,128,o,4.5899859000001015,None,128,0,127,605.0584097999999,,,,,,,,,,,,,,,,,,,,,,,,,,,,,,,,,,,,,,,,,,,,,,,,,,605.0424729000001,605.0584097999999,605.5763678000003,605.5421525000002,605.5740271,605.5763678000003,605.5763678000003,605.5763678000003,610.1753394000002,Objects\108b.jpg,mid,o,4.5899859000001015,None,,,,00048,001,2026-01-24_15h36.35.684,MST_test,2024.2.0,59.87751455621175,2026-01-24 15h36.49.358066 +0530,
128,0,129,o,3.853162500000053,None,129,0,128,610.1913268000003,,,,,,,,,,,,,,,,,,,,,,,,,,,,,,,,,,,,,,,,,,,,,,,,,,610.1756952999999,610.1913268000003,610.7136921000001,610.6750187000002,610.7105609,610.7136921000001,610.7136921000001,610.7136921000001,614.57564,Objects\172b.jpg,mid,o,3.853162500000053,None,,,,00048,001,2026-01-24_15h36.35.684,MST_test,2024.2.0,59.87751455621175,2026-01-24 15h36.49.358066 +0530,
129,0,130,s,8.780210200000056,None,130,0,129,614.5920917000003,,,,,,,,,,,,,,,,,,,,,,,,,,,,,,,,,,,,,,,,,,,,,,,,,,614.5759895000001,614.5920917000003,615.1063945999999,615.0752812999999,615.1039725,615.1063945999999,615.1063945999999,615.1063945999999,623.8924399000002,Scenes\009a.jpg,pre,s,8.780210200000056,None,,,,00048,001,2026-01-24_15h36.35.684,MST_test,2024.2.0,59.87751455621175,2026-01-24 15h36.49.358066 +0530,
130,0,131,o,4.341305100000227,None,131,0,130,623.9086387000002,,,,,,,,,,,,,,,,,,,,,,,,,,,,,,,,,,,,,,,,,,,,,,,,,,623.8927893,623.9086387000002,624.4090145,624.3921460000001,624.4035246000003,624.4090145,624.4090145,624.4090145,628.7591473000002,Objects\115a.jpg,pre,o,4.341305100000227,None,,,,00048,001,2026-01-24_15h36.35.684,MST_test,2024.2.0,59.87751455621175,2026-01-24 15h36.49.358066 +0530,
131,0,132,o,0.9496266000001015,None,132,0,131,628.7749779000001,,,,,,,,,,,,,,,,,,,,,,,,,,,,,,,,,,,,,,,,,,,,,,,,,,628.7594962000003,628.7749779000001,629.2893411,629.2586842999999,629.2865639000001,629.2893411,629.2893411,629.2893411,630.2420808000002,Scenes\033b.jpg,pre,o,0.9496266000001015,None,,,,00048,001,2026-01-24_15h36.35.684,MST_test,2024.2.0,59.87751455621175,2026-01-24 15h36.49.358066 +0530,
132,0,133,o,0.8392374999998538,None,133,0,132,630.2584935,,,,,,,,,,,,,,,,,,,,,,,,,,,,,,,,,,,,,,,,,,,,,,,,,,630.2424295999999,630.2584935,630.7597086000001,630.7419914000002,630.7515286000003,630.7597086000001,630.7597086000001,630.7597086000001,631.6090666,Objects\016a.jpg,pre,o,0.8392374999998538,None,,,,00048,001,2026-01-24_15h36.35.684,MST_test,2024.2.0,59.87751455621175,2026-01-24 15h36.49.358066 +0530,
133,0,134,o,18.597818299999744,None,134,0,133,631.6252479,,,,,,,,,,,,,,,,,,,,,,,,,,,,,,,,,,,,,,,,,,,,,,,,,,631.6094275,631.6252479,,632.1093153000002,632.1500402000001,632.1527283999999,632.1527283999999,632.1527283999999,650.7590992,Scenes\119b.jpg,pre,o,18.597818299999744,None,,,,00048,001,2026-01-24_15h36.35.684,MST_test,2024.2.0,59.87751455621175,2026-01-24 15h36.49.358066 +0530,
134,0,135,s,1.4109496999999465,None,135,0,134,650.7751949000003,,,,,,,,,,,,,,,,,,,,,,,,,,,,,,,,,,,,,,,,,,,,,,,,,,650.7595658,650.7751949000003,651.3719854000001,651.2588122000002,651.3692071,651.3719854000001,651.3719854000001,651.3719854000001,652.7923446,Scenes\098b.jpg,post,s,1.4109496999999465,None,,,,00048,001,2026-01-24_15h36.35.684,MST_test,2024.2.0,59.87751455621175,2026-01-24 15h36.49.358066 +0530,
135,0,136,o,1.2900242000000617,None,136,0,135,652.8084202,,,,,,,,,,,,,,,,,,,,,,,,,,,,,,,,,,,,,,,,,,,,,,,,,,652.7926994,652.8084202,653.3089164000003,653.2924447,653.3032979,653.3089164000003,653.3089164000003,653.3089164000003,654.6098295000002,Objects\087a.jpg,post,o,1.2900242000000617,None,,,,00048,001,2026-01-24_15h36.35.684,MST_test,2024.2.0,59.87751455621175,2026-01-24 15h36.49.358066 +0530,
136,0,137,s,2.5710242000000108,None,137,0,136,654.6248675000002,,,,,,,,,,,,,,,,,,,,,,,,,,,,,,,,,,,,,,,,,,,,,,,,,,654.6101831999999,654.6248675000002,655.1312617000003,655.1086417000001,655.1275410000003,655.1312617000003,655.1312617000003,655.1312617000003,657.7087965000001,Foils\scenes6.jpg,none,s,2.5710242000000108,None,,,,00048,001,2026-01-24_15h36.35.684,MST_test,2024.2.0,59.87751455621175,2026-01-24 15h36.49.358066 +0530,
137,0,138,o,1.6529504000000088,None,138,0,137,657.7251478000003,,,,,,,,,,,,,,,,,,,,,,,,,,,,,,,,,,,,,,,,,,,,,,,,,,657.7091686000003,657.7251478000003,658.2254275,658.2086677000002,658.2198722000003,658.2254275,658.2254275,658.2254275,659.8923936000001,Objects\008a.jpg,post,o,1.6529504000000088,None,,,,00048,001,2026-01-24_15h36.35.684,MST_test,2024.2.0,59.87751455621175,2026-01-24 15h36.49.358066 +0530,
138,0,139,s,2.130931700000019,None,139,0,138,659.9083390000001,,,,,,,,,,,,,,,,,,,,,,,,,,,,,,,,,,,,,,,,,,,,,,,,,,659.8927767,659.9083390000001,660.4193936000001,660.3921667,660.4170528,660.4193936000001,660.4193936000001,660.4193936000001,662.5588256000001,Scenes\188a.jpg,mid,s,2.130931700000019,None,,,,00048,001,2026-01-24_15h36.35.684,MST_test,2024.2.0,59.87751455621175,2026-01-24 15h36.49.358066 +0530,
139,0,140,n,0.9671057999998993,None,140,0,139,662.5750947000001,,,,,,,,,,,,,,,,,,,,,,,,,,,,,,,,,,,,,,,,,,,,,,,,,,662.5591919000003,662.5750947000001,663.0958329,663.0585782000003,663.0925846,663.0958329,663.0958329,663.0958329,664.0756357,Foils\scenes28.jpg,none,n,0.9671057999998993,None,,,,00048,001,2026-01-24_15h36.35.684,MST_test,2024.2.0,59.87751455621175,2026-01-24 15h36.49.358066 +0530,
140,0,141,o,1.1661459000001742,None,141,0,140,664.0917024,,,,,,,,,,,,,,,,,,,,,,,,,,,,,,,,,,,,,,,,,,,,,,,,,,664.0759855000001,664.0917024,664.6248506000002,664.5754787999999,664.6213912000003,664.6248506000002,664.6248506000002,664.6248506000002,665.7923015000001,Objects\044b.jpg,post,o,1.1661459000001742,None,,,,00048,001,2026-01-24_15h36.35.684,MST_test,2024.2.0,59.87751455621175,2026-01-24 15h36.49.358066 +0530,
141,0,142,s,1.4256734000000506,None,142,0,141,665.8080657999999,,,,,,,,,,,,,,,,,,,,,,,,,,,,,,,,,,,,,,,,,,,,,,,,,,665.7926520000001,665.8080657999999,666.3086228000002,666.2918078000002,666.3000993,666.3086228000002,666.3086228000002,666.3086228000002,667.7423945,Objects\041a.jpg,mid,s,1.4256734000000506,None,,,,00048,001,2026-01-24_15h36.35.684,MST_test,2024.2.0,59.87751455621175,2026-01-24 15h36.49.358066 +0530,
142,0,143,o,1.1330701000001682,None,143,0,142,667.7587234000002,,,,,,,,,,,,,,,,,,,,,,,,,,,,,,,,,,,,,,,,,,,,,,,,,,667.7427395,667.7587234000002,668.2731346999999,668.2418677999999,668.2707774999999,668.2731346999999,668.2731346999999,668.2731346999999,669.4084574000003,Objects\153b.jpg,pre,o,1.1330701000001682,None,,,,00048,001,2026-01-24_15h36.35.684,MST_test,2024.2.0,59.87751455621175,2026-01-24 15h36.49.358066 +0530,
143,0,144,s,2.396041299999979,None,144,0,143,669.4248436000003,,,,,,,,,,,,,,,,,,,,,,,,,,,,,,,,,,,,,,,,,,,,,,,,,,669.4086087999999,669.4248436000003,669.9380146000003,669.9081500000002,669.9354865,669.9380146000003,669.9380146000003,669.9380146000003,672.3414652000001,Objects\102b.jpg,mid,s,2.396041299999979,None,,,,00048,001,2026-01-24_15h36.35.684,MST_test,2024.2.0,59.87751455621175,2026-01-24 15h36.49.358066 +0530,
144,0,145,n,2.451393199999984,None,145,0,144,672.3576082,,,,,,,,,,,,,,,,,,,,,,,,,,,,,,,,,,,,,,,,,,,,,,,,,,672.3415931,672.3576082,672.8590197000003,672.8411561000003,672.8568282000001,672.8590197000003,672.8590197000003,672.8590197000003,675.3255369000003,Foils\scenes20.jpg,none,n,2.451393199999984,None,,,,00048,001,2026-01-24_15h36.35.684,MST_test,2024.2.0,59.87751455621175,2026-01-24 15h36.49.358066 +0530,
145,0,146,o,1.145646299999953,None,146,0,145,675.3414821000001,,,,,,,,,,,,,,,,,,,,,,,,,,,,,,,,,,,,,,,,,,,,,,,,,,675.3258850000002,675.3414821000001,675.8444603000003,675.8254846,675.8420307000001,675.8444603000003,675.8444603000003,675.8444603000003,676.9917211000002,Scenes\075a.jpg,mid,o,1.145646299999953,None,,,,00048,001,2026-01-24_15h36.35.684,MST_test,2024.2.0,59.87751455621175,2026-01-24 15h36.49.358066 +0530,
146,0,147,o,0.8234560000000783,None,147,0,146,677.0077627999999,,,,,,,,,,,,,,,,,,,,,,,,,,,,,,,,,,,,,,,,,,,,,,,,,,676.9920068000001,677.0077627999999,677.5349455999999,677.4912131000001,677.5328152000002,677.5349455999999,677.5349455999999,677.5349455999999,678.3754418000003,Objects\023b.jpg,mid,o,0.8234560000000783,None,,,,00048,001,2026-01-24_15h36.35.684,MST_test,2024.2.0,59.87751455621175,2026-01-24 15h36.49.358066 +0530,
147,0,148,s,2.489480900000217,None,148,0,147,678.3914703999999,,,,,,,,,,,,,,,,,,,,,,,,,,,,,,,,,,,,,,,,,,,,,,,,,,678.3755463000002,678.3914703999999,678.9488059,678.8752377000001,678.9460703,678.9488059,678.9488059,678.9488059,681.4421147000003,Objects\045b.jpg,pre,s,2.489480900000217,None,,,,00048,001,2026-01-24_15h36.35.684,MST_test,2024.2.0,59.87751455621175,2026-01-24 15h36.49.358066 +0530,
148,0,149,s,6.223538600000211,None,149,0,148,681.458149,,,,,,,,,,,,,,,,,,,,,,,,,,,,,,,,,,,,,,,,,,,,,,,,,,681.4423767000003,681.458149,681.9587485000002,681.9416157,681.9505419000002,681.9587485000002,681.9587485000002,681.9587485000002,688.1925329000001,Scenes\091a.jpg,pre,s,6.223538600000211,None,,,,00048,001,2026-01-24_15h36.35.684,MST_test,2024.2.0,59.87751455621175,2026-01-24 15h36.49.358066 +0530,
149,0,150,s,2.459498100000019,None,150,0,149,688.2081477000002,,,,,,,,,,,,,,,,,,,,,,,,,,,,,,,,,,,,,,,,,,,,,,,,,,688.1929072000003,688.2081477000002,688.7308459000001,688.6918037,688.7281622999999,688.7308459000001,688.7308459000001,688.7308459000001,691.1919894000002,Objects\086b.jpg,mid,s,2.459498100000019,None,,,,00048,001,2026-01-24_15h36.35.684,MST_test,2024.2.0,59.87751455621175,2026-01-24 15h36.49.358066 +0530,
,,,,,,,,,,,,,,,,,,,,,,,,,,,,,,,,,,,,,,,,,,,,,,,,,,,,,,,,,,,,,,,,,,,,,,,,,691.1922116999999,691.2082602999999,691.2082602999999,,,,,,,,
