Sl_no,image_path,thisN,thisTrialN,thisRepN,key_resp_5.keys,key_resp_5.rt,key_resp_5.duration,key_resp_7.keys,key_resp_9.keys,key_resp_8.keys,key_resp_8.rt,key_resp_8.duration,key_resp_9.rt,key_resp_9.duration,practice.thisRepN,practice.thisTrialN,practice.thisN,trials.thisRepN,trials.thisTrialN,trials.thisN,thisRow.t,notes,welcome_page.started,text.started,key_resp.started,welcome_page.stopped,key_resp.keys,key_resp.rt,key_resp.duration,instructions.started,ins.started,key_resp_2.started,instructions.stopped,key_resp_2.keys,key_resp_2.rt,key_resp_2.duration,objects_only_instruction.started,text_3.started,key_resp_3.started,objects_only_instruction.stopped,key_resp_3.keys,key_resp_3.rt,key_resp_3.duration,ISI.started,text_4.started,text_4.stopped,ISI.stopped,practice_block.started,image.started,text_5.started,key_resp_5.started,practice_block.stopped,practice.key_resp_5.keys,practice.key_resp_5.rt,practice.key_resp_5.duration,indoor_outdoor.started,indoor_outdoor.stopped,practice.key_resp_7.keys,image.stopped,text_5.stopped,key_resp_5.stopped,practice_to_main.started,text_2.started,key_resp_4.started,practice_to_main.stopped,key_resp_4.keys,key_resp_4.rt,key_resp_4.duration,objects.started,image_2.started,text_9.started,key_resp_9.started,image_2.stopped,text_9.stopped,key_resp_9.stopped,objects.stopped,trials.key_resp_9.keys,encoding_task.started,text_8.started,key_resp_8.started,encoding_task.stopped,trials.key_resp_8.keys,trials.key_resp_8.rt,trials.key_resp_8.duration,trials.key_resp_9.rt,trials.key_resp_9.duration,end_experiment.started,text_6.started,key_resp_6.started,end_experiment.stopped,key_resp_6.keys,key_resp_6.rt,key_resp_6.duration,list_of_stimuli,encoding_task_accuracy,participant,session,date,expName,psychopyVersion,frameRate,expStart,
,,,,,,,,,,,,,,,,,,,,,,,0.0013117000053171068,0.004005700000561774,0.004005700000561774,1435.4669915999984,space,1435.4523734000104,None,,,,,,,,,,,,,,,,,,,,,,,,,,,,,,,,,,,,,,,,,,,,,,,,,,,,,,,,,,,,,,,,,,,00043,001,2026-01-23_21h19.14.514,MST_task,2024.2.0,59.86324839593554,2026-01-23 21h19.21.508556 +0530,
,,,,,,,,,,,,,,,,,,,,,,,,,,,,,,1435.4670447000244,1435.4826125000254,1435.4826125000254,1462.8471376000089,space,27.35649510001531,None,,,,,,,,,,,,,,,,,,,,,,,,,,,,,,,,,,,,,,,,,,,,,,,,,,,,,,,,,,,,00043,001,2026-01-23_21h19.14.514,MST_task,2024.2.0,59.86324839593554,2026-01-23 21h19.21.508556 +0530,
,,,,,,,,,,,,,,,,,,,,,,,,,,,,,,,,,,,,,1462.8471796000085,1462.8629985000007,1462.8629985000007,1500.5629921000218,space,37.68868799999473,None,,,,,,,,,,,,,,,,,,,,,,,,,,,,,,,,,,,,,,,,,,,,,,,,,,,,,00043,001,2026-01-23_21h19.14.514,MST_task,2024.2.0,59.86324839593554,2026-01-23 21h19.21.508556 +0530,
10,practice_images/182a.jpg,0,0,1,f,1.2723945000034291,0.1921499999880325,None,,,,,,,1,0,0,,,,1500.5789918000228,,,,,,,,,,,,,,,,,,,,,,,1500.5697036000201,1500.5789918000228,1501.086950900004,1501.062980000017,1501.0720754000067,1501.086950900004,1501.086950900004,1501.086950900004,1504.0794063000067,f,1.2723945000034291,0.1921499999880325,1504.0818358000251,1504.0818594000011,None,,,,,,,,,,,,,,,,,,,,,,,,,,,,,,,,,,,,,,00043,001,2026-01-23_21h19.14.514,MST_task,2024.2.0,59.86324839593554,2026-01-23 21h19.21.508556 +0530,
3,practice_images/037a.jpg,1,1,1,f,2.156265400000848,0.15201320001506247,None,,,,,,,1,1,1,,,,1504.0959555000009,,,,,,,,,,,,,,,,,,,,,,,1504.0819392000267,1504.0959555000009,1504.5955154000258,1504.5793476000254,1504.5816463000083,1504.5955154000258,1504.5955154000258,1504.5955154000258,1507.5795957000228,f,2.156265400000848,0.15201320001506247,1507.5796632000129,1507.579679700022,None,1507.5959464000189,1507.5959464000189,1507.5959464000189,,,,,,,,,,,,,,,,,,,,,,,,,,,,,,,,,,,00043,001,2026-01-23_21h19.14.514,MST_task,2024.2.0,59.86324839593554,2026-01-23 21h19.21.508556 +0530,
4,practice_images/002b.jpg,2,2,1,j,1.5827024999889545,0.18398620001971722,None,,,,,,,1,2,2,,,,1507.5959464000189,,,,,,,,,,,,,,,,,,,,,,,1507.5797671000182,1507.5959464000189,1508.0963632000203,1508.0795173000079,1508.0819020000054,1508.0963632000203,1508.0963632000203,1508.0963632000203,1511.0801055000047,j,1.5827024999889545,0.18398620001971722,1511.080171700014,1511.0801893000025,None,,,,,,,,,,,,,,,,,,,,,,,,,,,,,,,,,,,,,,00043,001,2026-01-23_21h19.14.514,MST_task,2024.2.0,59.86324839593554,2026-01-23 21h19.21.508556 +0530,
1,practice_images/013a.jpg,3,3,1,j,1.2271960999933071,0.17598470000666566,None,,,,,,,1,3,3,,,,1511.095693900017,,,,,,,,,,,,,,,,,,,,,,,1511.080277400004,1511.095693900017,1511.596334300004,1511.5796745000116,1511.5825225000153,1511.596334300004,1511.596334300004,1511.596334300004,1514.5795254000113,j,1.2271960999933071,0.17598470000666566,1514.57959020001,1514.5796071000223,None,1514.5956614000024,1514.5956614000024,1514.5956614000024,,,,,,,,,,,,,,,,,,,,,,,,,,,,,,,,,,,00043,001,2026-01-23_21h19.14.514,MST_task,2024.2.0,59.86324839593554,2026-01-23 21h19.21.508556 +0530,
7,practice_images/166a.jpg,4,4,1,f,1.3356476000044495,0.18395209999289364,None,,,,,,,1,4,4,,,,1514.5956614000024,,,,,,,,,,,,,,,,,,,,,,,1514.5796836000227,1514.5956614000024,,1515.0798399000196,1515.0820806999982,1515.0959195000178,1515.0959195000178,1515.0959195000178,1518.0792034000042,f,1.3356476000044495,0.18395209999289364,1518.0792697000143,1518.0792855000182,None,1518.0959206000261,1518.0959206000261,1518.0959206000261,,,,,,,,,,,,,,,,,,,,,,,,,,,,,,,,,,,00043,001,2026-01-23_21h19.14.514,MST_task,2024.2.0,59.86324839593554,2026-01-23 21h19.21.508556 +0530,
5,practice_images/139a.jpg,5,5,1,j,1.5158855999761727,0.16784249999909662,None,,,,,,,1,5,5,,,,1518.0959206000261,,,,,,,,,,,,,,,,,,,,,,,1518.079368000006,1518.0959206000261,1518.595943500026,1518.5794647000148,1518.5816981000244,1518.595943500026,1518.595943500026,1518.595943500026,1521.5795727000223,j,1.5158855999761727,0.16784249999909662,1521.579645800026,1521.5796657000028,None,1521.5960101000092,1521.5960101000092,1521.5960101000092,,,,,,,,,,,,,,,,,,,,,,,,,,,,,,,,,,,00043,001,2026-01-23_21h19.14.514,MST_task,2024.2.0,59.86324839593554,2026-01-23 21h19.21.508556 +0530,
2,practice_images/031a.jpg,6,6,1,f,0.9111403000133578,0.2000322999956552,None,,,,,,,1,6,6,,,,1521.5960101000092,,,,,,,,,,,,,,,,,,,,,,,1521.5797504000075,1521.5960101000092,1522.0964266000083,1522.0792559000256,1522.0818815000239,1522.0964266000083,1522.0964266000083,1522.0964266000083,1525.079240400024,f,0.9111403000133578,0.2000322999956552,1525.0793156000145,1525.0793334000045,None,1525.0956882000028,1525.0956882000028,1525.0956882000028,,,,,,,,,,,,,,,,,,,,,,,,,,,,,,,,,,,00043,001,2026-01-23_21h19.14.514,MST_task,2024.2.0,59.86324839593554,2026-01-23 21h19.21.508556 +0530,
6,practice_images/158a.jpg,7,7,1,j,0.7315583000017796,0.16809220000868663,None,,,,,,,1,7,7,,,,1525.0956882000028,,,,,,,,,,,,,,,,,,,,,,,1525.0794144000101,1525.0956882000028,1525.5957486000261,1525.5793039000127,1525.5814726000244,1525.5957486000261,1525.5957486000261,1525.5957486000261,1528.5794991000148,j,0.7315583000017796,0.16809220000868663,1528.5795692000247,1528.5795872000162,None,1528.5958135000255,1528.5958135000255,1528.5958135000255,,,,,,,,,,,,,,,,,,,,,,,,,,,,,,,,,,,00043,001,2026-01-23_21h19.14.514,MST_task,2024.2.0,59.86324839593554,2026-01-23 21h19.21.508556 +0530,
8,practice_images/178a.jpg,8,8,1,j,0.8950806999928318,0.16854220000095665,None,,,,,,,1,8,8,,,,1528.5958135000255,,,,,,,,,,,,,,,,,,,,,,,1528.5796672000142,1528.5958135000255,,1529.0799315000186,1529.0822446000238,1529.0960944000108,1529.0960944000108,1529.0960944000108,1532.0798465000116,j,0.8950806999928318,0.16854220000095665,1532.079913100024,1532.079929200001,None,,,,,,,,,,,,,,,,,,,,,,,,,,,,,,,,,,,,,,00043,001,2026-01-23_21h19.14.514,MST_task,2024.2.0,59.86324839593554,2026-01-23 21h19.21.508556 +0530,
9,practice_images/180a.jpg,9,9,1,f,1.267519999993965,0.17605310000362806,None,,,,,,,1,9,9,,,,1532.095684400003,,,,,,,,,,,,,,,,,,,,,,,1532.0800118000188,1532.095684400003,1532.595885800023,1532.5792739000171,1532.5814940000128,1532.595885800023,1532.595885800023,1532.595885800023,1535.5793986000062,f,1.267519999993965,0.17605310000362806,1535.579468300013,1535.5794904000068,None,1535.596139500005,1535.596139500005,1535.596139500005,,,,,,,,,,,,,,,,,,,,,,,,,,,,,,,,,,,00043,001,2026-01-23_21h19.14.514,MST_task,2024.2.0,59.86324839593554,2026-01-23 21h19.21.508556 +0530,
,,,,,,,,,,,,,,,,,,,,,,,,,,,,,,,,,,,,,,,,,,,,,,,,,,,,,,,,,,,,,,1535.5795474000042,1535.596139500005,1535.596139500005,1547.079511500022,space,11.467297300026985,None,,,,,,,,,,,,,,,,,,,,,,,,,,,,00043,001,2026-01-23_21h19.14.514,MST_task,2024.2.0,59.86324839593554,2026-01-23 21h19.21.508556 +0530,
,Objects\170a.jpg,0,0,1,,,,,None,j,1.2198204000014812,None,,,,,,1,0,0,1547.0956958000024,,,,,,,,,,,,,,,,,,,,,,,1547.0802660000045,1547.0956958000024,1547.5960181000119,1547.5789219000144,,,,,,,,,,,,,,,,,,,,,,1547.586173800024,1547.5960181000119,1547.5960181000119,1547.5960181000119,1550.59567900002,1550.59567900002,1550.59567900002,1550.5797040000034,None,1550.5817631000245,1550.59567900002,1550.59567900002,1551.8302652999992,j,1.2198204000014812,None,,,,,,,,,,,,00043,001,2026-01-23_21h19.14.514,MST_task,2024.2.0,59.86324839593554,2026-01-23 21h19.21.508556 +0530,
,Objects\024a.jpg,1,0,2,,,,,f,None,,,0.8931228000146803,0.1845956000033766,,,,2,0,1,1551.8464447000006,,,,,,,,,,,,,,,,,,,,,,,1551.830429499998,1551.8464447000006,1552.3460551000026,1552.329775100021,,,,,,,,,,,,,,,,,,,,,,1552.334102599998,1552.3460551000026,1552.3460551000026,1552.3460551000026,1555.345765200007,1555.345765200007,1555.345765200007,1555.3298381000059,f,1555.3299171000253,,,1555.3299324000254,None,,,0.8931228000146803,0.1845956000033766,,,,,,,,,,00043,001,2026-01-23_21h19.14.514,MST_task,2024.2.0,59.86324839593554,2026-01-23 21h19.21.508556 +0530,
,Objects\002a.jpg,2,0,3,,,,,f,None,,,2.450081799994223,0.17563750001136214,,,,3,0,2,1555.345765200007,,,,,,,,,,,,,,,,,,,,,,,1555.3300336000102,1555.345765200007,1555.8457074000034,1555.8295706000063,,,,,,,,,,,,,,,,,,,,,,1555.8332570000202,1555.8457074000034,1555.8457074000034,1555.8457074000034,1558.8457236000104,1558.8457236000104,1558.8457236000104,1558.8296006000019,f,1558.8296700000064,,,1558.8296838000242,None,,,2.450081799994223,0.17563750001136214,,,,,,,,,,00043,001,2026-01-23_21h19.14.514,MST_task,2024.2.0,59.86324839593554,2026-01-23 21h19.21.508556 +0530,
,Objects\144a.jpg,3,0,4,,,,,f,None,,,1.6842505999957211,0.20117349998326972,,,,4,0,3,1558.8457236000104,,,,,,,,,,,,,,,,,,,,,,,1558.829791199998,1558.8457236000104,1559.3467709000106,1559.33002210001,,,,,,,,,,,,,,,,,,,,,,1559.334905900003,1559.3467709000106,1559.3467709000106,1559.3467709000106,,,,1562.3462579000043,f,1562.3463350000093,,,1562.3463510000147,None,,,1.6842505999957211,0.20117349998326972,,,,,,,,,,00043,001,2026-01-23_21h19.14.514,MST_task,2024.2.0,59.86324839593554,2026-01-23 21h19.21.508556 +0530,
,Objects\174a.jpg,4,0,5,,,,,f,None,,,1.5212314999953378,0.18314459998509847,,,,5,0,4,1562.3622701000131,,,,,,,,,,,,,,,,,,,,,,,1562.34647270001,1562.3622701000131,1562.863016200019,1562.8462595000165,,,,,,,,,,,,,,,,,,,,,,1562.849876400025,1562.863016200019,1562.863016200019,1562.863016200019,,,,1565.846879300021,f,1565.8469658000104,,,1565.846980900009,None,,,1.5212314999953378,0.18314459998509847,,,,,,,,,,00043,001,2026-01-23_21h19.14.514,MST_task,2024.2.0,59.86324839593554,2026-01-23 21h19.21.508556 +0530,
,Objects\047a.jpg,5,0,6,,,,,f,None,,,0.9730127000075299,0.2235235999978613,,,,6,0,5,1565.8623268000083,,,,,,,,,,,,,,,,,,,,,,,1565.847101899999,1565.8623268000083,1566.362868199998,1566.3461632000108,,,,,,,,,,,,,,,,,,,,,,1566.3494022000232,1566.362868199998,1566.362868199998,1566.362868199998,1569.3624914000102,1569.3624914000102,1569.3624914000102,1569.346480200009,f,1569.3465517000004,,,1569.3465648000129,None,,,0.9730127000075299,0.2235235999978613,,,,,,,,,,00043,001,2026-01-23_21h19.14.514,MST_task,2024.2.0,59.86324839593554,2026-01-23 21h19.21.508556 +0530,
,Objects\054a.jpg,6,0,7,,,,,f,None,,,1.0886407000070903,0.19202959997346625,,,,7,0,6,1569.3624914000102,,,,,,,,,,,,,,,,,,,,,,,1569.3466653000214,1569.3624914000102,1569.8631941000058,1569.8460238000262,,,,,,,,,,,,,,,,,,,,,,1569.8499912000261,1569.8631941000058,1569.8631941000058,1569.8631941000058,1572.8623772000137,1572.8623772000137,1572.8623772000137,1572.8463161000109,f,1572.8463848000101,,,1572.8464001000102,None,,,1.0886407000070903,0.19202959997346625,,,,,,,,,,00043,001,2026-01-23_21h19.14.514,MST_task,2024.2.0,59.86324839593554,2026-01-23 21h19.21.508556 +0530,
,Scenes\179a.jpg,7,0,8,,,,,j,None,,,0.5966210000042338,0.16797750000841916,,,,8,0,7,1572.8623772000137,,,,,,,,,,,,,,,,,,,,,,,1572.846504700021,1572.8623772000137,,1573.3468518000154,,,,,,,,,,,,,,,,,,,,,,1573.3567581000098,1573.3627979000157,1573.3627979000157,1573.3627979000157,1576.3621132000117,1576.3621132000117,1576.3621132000117,1576.3467412000173,j,1576.3468071000243,,,1576.3468212000153,None,,,0.5966210000042338,0.16797750000841916,,,,,,,,,,00043,001,2026-01-23_21h19.14.514,MST_task,2024.2.0,59.86324839593554,2026-01-23 21h19.21.508556 +0530,
,Scenes\160a.jpg,8,0,9,,,,,j,None,,,0.6883074000070337,0.15176100001554005,,,,9,0,8,1576.3621132000117,,,,,,,,,,,,,,,,,,,,,,,1576.3468982000195,1576.3621132000117,1576.8631358999992,1576.8462379000266,,,,,,,,,,,,,,,,,,,,,,1576.859910500003,1576.8631358999992,1576.8631358999992,1576.8631358999992,1579.8628813000105,1579.8628813000105,1579.8628813000105,1579.8467072000203,j,1579.8467876000213,,,1579.8468165000086,None,,,0.6883074000070337,0.15176100001554005,,,,,,,,,,00043,001,2026-01-23_21h19.14.514,MST_task,2024.2.0,59.86324839593554,2026-01-23 21h19.21.508556 +0530,
,Scenes\006a.jpg,9,0,10,,,,,f,None,,,2.709461000020383,0.20003340000403114,,,,10,0,9,1579.8628813000105,,,,,,,,,,,,,,,,,,,,,,,1579.8469235000084,1579.8628813000105,1580.3624644000083,1580.3459199000208,,,,,,,,,,,,,,,,,,,,,,1580.3535841000266,1580.3624644000083,1580.3624644000083,1580.3624644000083,1583.3630102000025,1583.3630102000025,1583.3630102000025,1583.346987900004,f,1583.3470602000016,,,1583.347074600024,None,,,2.709461000020383,0.20003340000403114,,,,,,,,,,00043,001,2026-01-23_21h19.14.514,MST_task,2024.2.0,59.86324839593554,2026-01-23 21h19.21.508556 +0530,
,Scenes\123a.jpg,10,0,11,,,,,j,None,,,0.6566314999945462,0.18425150000257418,,,,11,0,10,1583.3630102000025,,,,,,,,,,,,,,,,,,,,,,,1583.347155800002,1583.3630102000025,1583.8630477999977,1583.8467907000158,,,,,,,,,,,,,,,,,,,,,,1583.8541289000132,1583.8630477999977,1583.8630477999977,1583.8630477999977,1586.862777000002,1586.862777000002,1586.862777000002,1586.846849900001,j,1586.8469153000042,,,1586.8469316000119,None,,,0.6566314999945462,0.18425150000257418,,,,,,,,,,00043,001,2026-01-23_21h19.14.514,MST_task,2024.2.0,59.86324839593554,2026-01-23 21h19.21.508556 +0530,
,Scenes\142a.jpg,11,0,12,,,,,j,None,,,0.7563265999779105,0.15995450000627898,,,,12,0,11,1586.862777000002,,,,,,,,,,,,,,,,,,,,,,,1586.8470564000017,1586.862777000002,1587.3632012000016,1587.3464927000168,,,,,,,,,,,,,,,,,,,,,,1587.3588363000017,1587.3632012000016,1587.3632012000016,1587.3632012000016,1590.3623633000243,1590.3623633000243,1590.3623633000243,1590.3468633000157,j,1590.3469315000111,,,1590.3469443000213,None,,,0.7563265999779105,0.15995450000627898,,,,,,,,,,00043,001,2026-01-23_21h19.14.514,MST_task,2024.2.0,59.86324839593554,2026-01-23 21h19.21.508556 +0530,
,Scenes\114a.jpg,12,0,13,,,,,f,None,,,0.7505786999827251,0.176949999993667,,,,13,0,12,1590.3623633000243,,,,,,,,,,,,,,,,,,,,,,,1590.3470427000138,1590.3623633000243,1590.8804071000195,1590.846329300024,,,,,,,,,,,,,,,,,,,,,,1590.8776413000014,1590.8804071000195,1590.8804071000195,1590.8804071000195,,,,1593.862483200006,f,1593.8625527000113,,,1593.8625680000114,None,,,0.7505786999827251,0.176949999993667,,,,,,,,,,00043,001,2026-01-23_21h19.14.514,MST_task,2024.2.0,59.86324839593554,2026-01-23 21h19.21.508556 +0530,
,Scenes\024a.jpg,13,0,14,,,,,j,None,,,0.9960306999855675,0.16776320000644773,,,,14,0,13,1593.878661499999,,,,,,,,,,,,,,,,,,,,,,,1593.8626803000225,1593.878661499999,1594.3797731000232,1594.362796500005,,,,,,,,,,,,,,,,,,,,,,1594.3700446000148,1594.3797731000232,1594.3797731000232,1594.3797731000232,,,,1597.3629442000238,j,1597.3630194000143,,,1597.3630359000235,None,,,0.9960306999855675,0.16776320000644773,,,,,,,,,,00043,001,2026-01-23_21h19.14.514,MST_task,2024.2.0,59.86324839593554,2026-01-23 21h19.21.508556 +0530,
,Objects\018a.jpg,14,0,15,,,,,j,None,,,1.3445010999857914,0.17549110000254586,,,,15,0,14,1597.3797916000185,,,,,,,,,,,,,,,,,,,,,,,1597.3631560000067,1597.3797916000185,1597.8792710000125,1597.8626082000264,,,,,,,,,,,,,,,,,,,,,,1597.8700920000265,1597.8792710000125,1597.8792710000125,1597.8792710000125,1600.878978200024,1600.878978200024,1600.878978200024,1600.8631316000246,j,1600.8631954000157,,,1600.863210200012,None,,,1.3445010999857914,0.17549110000254586,,,,,,,,,,00043,001,2026-01-23_21h19.14.514,MST_task,2024.2.0,59.86324839593554,2026-01-23 21h19.21.508556 +0530,
,Objects\171a.jpg,15,0,16,,,,,f,None,,,2.83546989999013,None,,,,16,0,15,1600.878978200024,,,,,,,,,,,,,,,,,,,,,,,1600.8633074000245,1600.878978200024,1601.3796574000153,1601.3626076000219,,,,,,,,,,,,,,,,,,,,,,1601.3660924000142,1601.3796574000153,1601.3796574000153,1601.3796574000153,1604.379082600004,1604.379082600004,1604.379082600004,1604.363094100001,f,1604.3631586999982,,,1604.3631720000121,None,,,2.83546989999013,None,,,,,,,,,,00043,001,2026-01-23_21h19.14.514,MST_task,2024.2.0,59.86324839593554,2026-01-23 21h19.21.508556 +0530,
,Objects\119a.jpg,16,0,17,,,,,None,j,0.08017610001843423,None,,,,,,17,0,16,1604.379082600004,,,,,,,,,,,,,,,,,,,,,,,1604.3632687000209,1604.379082600004,1604.8793406000186,1604.8625867000083,,,,,,,,,,,,,,,,,,,,,,1604.8661611000134,1604.8793406000186,1604.8793406000186,1604.8793406000186,1607.878935500019,1607.878935500019,1607.878935500019,1607.8631641000102,None,1607.8632283000043,1607.878935500019,1607.878935500019,1607.9629707999993,j,0.08017610001843423,None,,,,,,,,,,,,00043,001,2026-01-23_21h19.14.514,MST_task,2024.2.0,59.86324839593554,2026-01-23 21h19.21.508556 +0530,
,Objects\028a.jpg,17,0,18,,,,,f,None,,,0.6967903999902774,0.15999019998707809,,,,18,0,17,1607.9793894000177,,,,,,,,,,,,,,,,,,,,,,,1607.963123100024,1607.9793894000177,1608.4791251000133,1608.4627030999982,,,,,,,,,,,,,,,,,,,,,,1608.4664743000176,1608.4791251000133,1608.4791251000133,1608.4791251000133,,,,1611.4630954000168,f,1611.463167400012,,,1611.4631900000095,None,,,0.6967903999902774,0.15999019998707809,,,,,,,,,,00043,001,2026-01-23_21h19.14.514,MST_task,2024.2.0,59.86324839593554,2026-01-23 21h19.21.508556 +0530,
,Objects\107a.jpg,18,0,19,,,,,j,None,,,2.580466900020838,0.1440250999876298,,,,19,0,18,1611.4787078000081,,,,,,,,,,,,,,,,,,,,,,,1611.463311600004,1611.4787078000081,1611.9790925999987,1611.9627450999978,,,,,,,,,,,,,,,,,,,,,,1611.9664619000105,1611.9790925999987,1611.9790925999987,1611.9790925999987,1614.9788809000165,1614.9788809000165,1614.9788809000165,1614.9633202000114,j,1614.9633862000192,,,1614.9633993000025,None,,,2.580466900020838,0.1440250999876298,,,,,,,,,,00043,001,2026-01-23_21h19.14.514,MST_task,2024.2.0,59.86324839593554,2026-01-23 21h19.21.508556 +0530,
,Objects\123a.jpg,19,0,20,,,,,j,None,,,0.9765150000166614,0.1511402000032831,,,,20,0,19,1614.9788809000165,,,,,,,,,,,,,,,,,,,,,,,1614.9635005000164,1614.9788809000165,1615.4793642000004,1615.4635037000116,,,,,,,,,,,,,,,,,,,,,,1615.4669478000142,1615.4793642000004,1615.4793642000004,1615.4793642000004,1618.4788586000213,1618.4788586000213,1618.4788586000213,1618.4630959000206,j,1618.4631676000135,,,1618.4631821000075,None,,,0.9765150000166614,0.1511402000032831,,,,,,,,,,00043,001,2026-01-23_21h19.14.514,MST_task,2024.2.0,59.86324839593554,2026-01-23 21h19.21.508556 +0530,
,Objects\016a.jpg,20,0,21,,,,,f,None,,,0.7321813999733422,0.2004181000229437,,,,21,0,20,1618.4788586000213,,,,,,,,,,,,,,,,,,,,,,,1618.4632873000228,1618.4788586000213,1618.9788740000222,1618.9625476000074,,,,,,,,,,,,,,,,,,,,,,1618.9666533000127,1618.9788740000222,1618.9788740000222,1618.9788740000222,1621.9800109000062,1621.9800109000062,1621.9800109000062,1621.963477000012,f,1621.963549600012,,,1621.9635635000013,None,,,0.7321813999733422,0.2004181000229437,,,,,,,,,,00043,001,2026-01-23_21h19.14.514,MST_task,2024.2.0,59.86324839593554,2026-01-23 21h19.21.508556 +0530,
,Scenes\095a.jpg,21,0,22,,,,,f,None,,,1.831243299995549,0.20802120000007562,,,,22,0,21,1621.9800109000062,,,,,,,,,,,,,,,,,,,,,,,1621.9636708000035,1621.9800109000062,,1622.4790284000046,,,,,,,,,,,,,,,,,,,,,,1622.4919460000237,1622.4960978000017,1622.4960978000017,1622.4960978000017,,,,1625.4796358000021,f,1625.4797050000052,,,1625.479720000003,None,,,1.831243299995549,0.20802120000007562,,,,,,,,,,00043,001,2026-01-23_21h19.14.514,MST_task,2024.2.0,59.86324839593554,2026-01-23 21h19.21.508556 +0530,
,Scenes\073a.jpg,22,0,23,,,,,j,None,,,0.763304500025697,0.1441321999882348,,,,23,0,22,1625.4960164000222,,,,,,,,,,,,,,,,,,,,,,,1625.4798400000145,1625.4960164000222,1625.9963560000178,1625.9792423000035,,,,,,,,,,,,,,,,,,,,,,1625.989107100002,1625.9963560000178,1625.9963560000178,1625.9963560000178,1628.9957464000036,1628.9957464000036,1628.9957464000036,1628.980394800019,j,1628.9804667000135,,,1628.9804815000098,None,,,0.763304500025697,0.1441321999882348,,,,,,,,,,00043,001,2026-01-23_21h19.14.514,MST_task,2024.2.0,59.86324839593554,2026-01-23 21h19.21.508556 +0530,
,Scenes\157a.jpg,23,0,24,,,,,j,None,,,1.303211399994325,0.1439548000053037,,,,24,0,23,1628.9957464000036,,,,,,,,,,,,,,,,,,,,,,,1628.9805886000104,1628.9957464000036,1629.4963600000192,1629.480029600003,,,,,,,,,,,,,,,,,,,,,,1629.4896609999996,1629.4963600000192,1629.4963600000192,1629.4963600000192,1632.4958517000196,1632.4958517000196,1632.4958517000196,1632.480277100025,j,1632.4803505000018,,,1632.480365000025,None,,,1.303211399994325,0.1439548000053037,,,,,,,,,,00043,001,2026-01-23_21h19.14.514,MST_task,2024.2.0,59.86324839593554,2026-01-23 21h19.21.508556 +0530,
,Scenes\173a.jpg,24,0,25,,,,,j,None,,,0.7879059000115376,0.15915980000863783,,,,25,0,24,1632.4958517000196,,,,,,,,,,,,,,,,,,,,,,,1632.4804745000147,1632.4958517000196,1632.9960188000114,1632.9797862000123,,,,,,,,,,,,,,,,,,,,,,1632.9877126000065,1632.9960188000114,1632.9960188000114,1632.9960188000114,1635.9959356000181,1635.9959356000181,1635.9959356000181,1635.979586500005,j,1635.9796503000252,,,1635.9796625000017,None,,,0.7879059000115376,0.15915980000863783,,,,,,,,,,00043,001,2026-01-23_21h19.14.514,MST_task,2024.2.0,59.86324839593554,2026-01-23 21h19.21.508556 +0530,
,Scenes\127a.jpg,25,0,26,,,,,j,None,,,0.7109612999774981,0.16050720002385788,,,,26,0,25,1635.9959356000181,,,,,,,,,,,,,,,,,,,,,,,1635.9797365000122,1635.9959356000181,1636.496394900023,1636.4790319000022,,,,,,,,,,,,,,,,,,,,,,1636.4895694000006,1636.496394900023,1636.496394900023,1636.496394900023,1639.4957633000158,1639.4957633000158,1639.4957633000158,1639.479907800007,j,1639.4799793999991,,,1639.479992700013,None,,,0.7109612999774981,0.16050720002385788,,,,,,,,,,00043,001,2026-01-23_21h19.14.514,MST_task,2024.2.0,59.86324839593554,2026-01-23 21h19.21.508556 +0530,
,Scenes\059a.jpg,26,0,27,,,,,j,None,,,1.4671221999742556,0.1520324000157416,,,,27,0,26,1639.4957633000158,,,,,,,,,,,,,,,,,,,,,,,1639.4801007000206,1639.4957633000158,1639.9962285000074,1639.979245000024,,,,,,,,,,,,,,,,,,,,,,1639.9935915000096,1639.9962285000074,1639.9962285000074,1639.9962285000074,1642.995872600004,1642.995872600004,1642.995872600004,1642.9800403000263,j,1642.980107600015,,,1642.9801217000058,None,,,1.4671221999742556,0.1520324000157416,,,,,,,,,,00043,001,2026-01-23_21h19.14.514,MST_task,2024.2.0,59.86324839593554,2026-01-23 21h19.21.508556 +0530,
,Scenes\033a.jpg,27,0,28,,,,,j,None,,,0.71900920002372,0.1760954999772366,,,,28,0,27,1642.995872600004,,,,,,,,,,,,,,,,,,,,,,,1642.9802389000251,1642.995872600004,1643.496524600021,1643.4792651000025,,,,,,,,,,,,,,,,,,,,,,1643.4918889000255,1643.496524600021,1643.496524600021,1643.496524600021,1646.495520299999,1646.495520299999,1646.495520299999,1646.4802698999993,j,1646.4803450000181,,,1646.4803609000228,None,,,0.71900920002372,0.1760954999772366,,,,,,,,,,00043,001,2026-01-23_21h19.14.514,MST_task,2024.2.0,59.86324839593554,2026-01-23 21h19.21.508556 +0530,
,Objects\056a.jpg,28,0,29,,,,,f,None,,,1.5867085000209045,0.19302229999448173,,,,29,0,28,1646.495520299999,,,,,,,,,,,,,,,,,,,,,,,1646.480453600001,1646.495520299999,1646.9964364000189,1646.9796713000105,,,,,,,,,,,,,,,,,,,,,,1646.9838065000076,1646.9964364000189,1646.9964364000189,1646.9964364000189,1649.9961308000202,1649.9961308000202,1649.9961308000202,1649.9800275000161,f,1649.9800969000207,,,1649.980110900011,None,,,1.5867085000209045,0.19302229999448173,,,,,,,,,,00043,001,2026-01-23_21h19.14.514,MST_task,2024.2.0,59.86324839593554,2026-01-23 21h19.21.508556 +0530,
,Objects\185a.jpg,29,0,30,,,,,f,None,,,1.4639123999804724,0.17589650000445545,,,,30,0,29,1649.9961308000202,,,,,,,,,,,,,,,,,,,,,,,1649.980214500014,1649.9961308000202,1650.4956802000233,1650.4790094000055,,,,,,,,,,,,,,,,,,,,,,1650.4827581999998,1650.4956802000233,1650.4956802000233,1650.4956802000233,1653.4955447000102,1653.4955447000102,1653.4955447000102,1653.4801162000222,f,1653.4801821,,,1653.4801949000102,None,,,1.4639123999804724,0.17589650000445545,,,,,,,,,,00043,001,2026-01-23_21h19.14.514,MST_task,2024.2.0,59.86324839593554,2026-01-23 21h19.21.508556 +0530,
,Objects\049a.jpg,30,0,31,,,,,f,None,,,1.675279999995837,0.16789430001517758,,,,31,0,30,1653.4955447000102,,,,,,,,,,,,,,,,,,,,,,,1653.480298600014,1653.4955447000102,1653.9966395000229,1653.9793951000029,,,,,,,,,,,,,,,,,,,,,,1653.9834186000226,1653.9966395000229,1653.9966395000229,1653.9966395000229,1656.9957921000023,1656.9957921000023,1656.9957921000023,1656.979756100016,f,1656.9798219000222,,,1656.9798354000086,None,,,1.675279999995837,0.16789430001517758,,,,,,,,,,00043,001,2026-01-23_21h19.14.514,MST_task,2024.2.0,59.86324839593554,2026-01-23 21h19.21.508556 +0530,
,Objects\160a.jpg,31,0,32,,,,,j,None,,,0.8233589000010397,0.16805029998067766,,,,32,0,31,1656.9957921000023,,,,,,,,,,,,,,,,,,,,,,,1656.9799124000128,1656.9957921000023,1657.4960471000231,1657.4793020000216,,,,,,,,,,,,,,,,,,,,,,1657.4835236000072,1657.4960471000231,1657.4960471000231,1657.4960471000231,,,,1660.4802997000224,j,1660.4804231000016,,,1660.4804406000185,None,,,0.8233589000010397,0.16805029998067766,,,,,,,,,,00043,001,2026-01-23_21h19.14.514,MST_task,2024.2.0,59.86324839593554,2026-01-23 21h19.21.508556 +0530,
,Objects\156a.jpg,32,0,33,,,,,j,None,,,0.8836397000122815,0.14402750000590459,,,,33,0,32,1660.4956844999979,,,,,,,,,,,,,,,,,,,,,,,1660.4805301000015,1660.4956844999979,1660.9959851000167,1660.9796242000011,,,,,,,,,,,,,,,,,,,,,,1660.9834181000188,1660.9959851000167,1660.9959851000167,1660.9959851000167,1663.995905000018,1663.995905000018,1663.995905000018,1663.979400900018,j,1663.9794751000009,,,1663.9794895000232,None,,,0.8836397000122815,0.14402750000590459,,,,,,,,,,00043,001,2026-01-23_21h19.14.514,MST_task,2024.2.0,59.86324839593554,2026-01-23 21h19.21.508556 +0530,
,Objects\027a.jpg,33,0,34,,,,,f,None,,,0.7433624999830499,0.17601600001216866,,,,34,0,33,1663.995905000018,,,,,,,,,,,,,,,,,,,,,,,1663.9795835000114,1663.995905000018,1664.4964198000089,1664.479384700011,,,,,,,,,,,,,,,,,,,,,,1664.4834616000007,1664.4964198000089,1664.4964198000089,1664.4964198000089,1667.496243600006,1667.496243600006,1667.496243600006,1667.47983940001,f,1667.4799087000138,,,1667.4799218999979,None,,,0.7433624999830499,0.17601600001216866,,,,,,,,,,00043,001,2026-01-23_21h19.14.514,MST_task,2024.2.0,59.86324839593554,2026-01-23 21h19.21.508556 +0530,
,Objects\163a.jpg,34,0,35,,,,,j,None,,,1.1155574999866076,0.15998170000966638,,,,35,0,34,1667.496243600006,,,,,,,,,,,,,,,,,,,,,,,1667.4799996000074,1667.496243600006,1667.9961539000215,1667.9794264000084,,,,,,,,,,,,,,,,,,,,,,1667.983240600006,1667.9961539000215,1667.9961539000215,1667.9961539000215,1670.9957257000206,1670.9957257000206,1670.9957257000206,1670.9797191000252,j,1670.9797842000262,,,1670.979796700005,None,,,1.1155574999866076,0.15998170000966638,,,,,,,,,,00043,001,2026-01-23_21h19.14.514,MST_task,2024.2.0,59.86324839593554,2026-01-23 21h19.21.508556 +0530,
,Scenes\163a.jpg,35,0,36,,,,,j,None,,,0.6869132000138052,0.1600963000091724,,,,36,0,35,1670.9957257000206,,,,,,,,,,,,,,,,,,,,,,,1670.9798760000267,1670.9957257000206,1671.4962373000162,1671.4794515000249,,,,,,,,,,,,,,,,,,,,,,1671.487707799999,1671.4962373000162,1671.4962373000162,1671.4962373000162,1674.495713900018,1674.495713900018,1674.495713900018,1674.4795946000086,j,1674.4796615000232,,,1674.4796743000043,None,,,0.6869132000138052,0.1600963000091724,,,,,,,,,,00043,001,2026-01-23_21h19.14.514,MST_task,2024.2.0,59.86324839593554,2026-01-23 21h19.21.508556 +0530,
,Scenes\009a.jpg,36,0,37,,,,,j,None,,,2.0053355999989435,0.20761430001584813,,,,37,0,36,1674.495713900018,,,,,,,,,,,,,,,,,,,,,,,1674.4797806999995,1674.495713900018,1675.0023339000181,1674.9795243000262,,,,,,,,,,,,,,,,,,,,,,1674.9991687000147,1675.0023339000181,1675.0023339000181,1675.0023339000181,,,,1677.9959220000019,j,1677.9960075000126,,,1677.9960234000173,None,,,2.0053355999989435,0.20761430001584813,,,,,,,,,,00043,001,2026-01-23_21h19.14.514,MST_task,2024.2.0,59.86324839593554,2026-01-23 21h19.21.508556 +0530,
,Scenes\180a.jpg,37,0,38,,,,,j,None,,,0.6150582999980543,0.15920220001135021,,,,38,0,37,1678.0122282000084,,,,,,,,,,,,,,,,,,,,,,,1677.9961126999988,1678.0122282000084,1678.5131632999983,1678.4958579000086,,,,,,,,,,,,,,,,,,,,,,1678.50398400001,1678.5131632999983,1678.5131632999983,1678.5131632999983,1681.5125560000015,1681.5125560000015,1681.5125560000015,1681.496609200025,j,1681.4966877000115,,,1681.4967029000109,None,,,0.6150582999980543,0.15920220001135021,,,,,,,,,,00043,001,2026-01-23_21h19.14.514,MST_task,2024.2.0,59.86324839593554,2026-01-23 21h19.21.508556 +0530,
,Scenes\171a.jpg,38,0,39,,,,,f,None,,,1.0779409000242595,0.25600649998523295,,,,39,0,38,1681.5125560000015,,,,,,,,,,,,,,,,,,,,,,,1681.4967890000262,1681.5125560000015,1682.017230700003,1681.9960365000006,,,,,,,,,,,,,,,,,,,,,,1682.0142293000245,1682.017230700003,1682.017230700003,1682.017230700003,,,,1685.0126529000117,f,1685.0127534000203,,,1685.012769699999,None,,,1.0779409000242595,0.25600649998523295,,,,,,,,,,00043,001,2026-01-23_21h19.14.514,MST_task,2024.2.0,59.86324839593554,2026-01-23 21h19.21.508556 +0530,
,Scenes\070a.jpg,39,0,40,,,,,f,None,,,1.3975556000077631,0.18442030000733212,,,,40,0,39,1685.0288505000062,,,,,,,,,,,,,,,,,,,,,,,1685.012890300015,1685.0288505000062,1685.5297333000053,1685.5127915000194,,,,,,,,,,,,,,,,,,,,,,1685.5247722000058,1685.5297333000053,1685.5297333000053,1685.5297333000053,,,,1688.513031200011,f,1688.5131082000153,,,1688.5131471000204,None,,,1.3975556000077631,0.18442030000733212,,,,,,,,,,00043,001,2026-01-23_21h19.14.514,MST_task,2024.2.0,59.86324839593554,2026-01-23 21h19.21.508556 +0530,
,Scenes\096a.jpg,40,0,41,,,,,j,None,,,0.810108500008937,0.15205979999154806,,,,41,0,40,1688.5292055000027,,,,,,,,,,,,,,,,,,,,,,,1688.5132569000125,1688.5292055000027,1689.0297771000187,1689.0124222000013,,,,,,,,,,,,,,,,,,,,,,1689.018647000019,1689.0297771000187,1689.0297771000187,1689.0297771000187,1692.028765200026,1692.028765200026,1692.028765200026,1692.0133188000182,j,1692.0133924000256,,,1692.0134075000242,None,,,0.810108500008937,0.15205979999154806,,,,,,,,,,00043,001,2026-01-23_21h19.14.514,MST_task,2024.2.0,59.86324839593554,2026-01-23 21h19.21.508556 +0530,
,Scenes\013a.jpg,41,0,42,,,,,j,None,,,2.4547826999914832,0.13563440000871196,,,,42,0,41,1692.028765200026,,,,,,,,,,,,,,,,,,,,,,,1692.0135169000132,1692.028765200026,1692.5292337000137,1692.5132342000143,,,,,,,,,,,,,,,,,,,,,,1692.5240172000194,1692.5292337000137,1692.5292337000137,1692.5292337000137,1695.5287508000038,1695.5287508000038,1695.5287508000038,1695.513557600003,j,1695.5136250000214,,,1695.513638400007,None,,,2.4547826999914832,0.13563440000871196,,,,,,,,,,00043,001,2026-01-23_21h19.14.514,MST_task,2024.2.0,59.86324839593554,2026-01-23 21h19.21.508556 +0530,
,Objects\013a.jpg,42,0,43,,,,,j,None,,,0.905812800017884,0.1600466999807395,,,,43,0,42,1695.5287508000038,,,,,,,,,,,,,,,,,,,,,,,1695.513743700023,1695.5287508000038,1696.0297887000197,1696.012557900016,,,,,,,,,,,,,,,,,,,,,,1696.0166796999983,1696.0297887000197,1696.0297887000197,1696.0297887000197,1699.028849000024,1699.028849000024,1699.028849000024,1699.0130587000167,j,1699.013126500009,,,1699.0131412000046,None,,,0.905812800017884,0.1600466999807395,,,,,,,,,,00043,001,2026-01-23_21h19.14.514,MST_task,2024.2.0,59.86324839593554,2026-01-23 21h19.21.508556 +0530,
,Objects\120a.jpg,43,0,44,,,,,f,None,,,1.8539011999964714,0.17642699999851175,,,,44,0,43,1699.028849000024,,,,,,,,,,,,,,,,,,,,,,,1699.013225200004,1699.028849000024,,1699.5132419000147,,,,,,,,,,,,,,,,,,,,,,1699.5173121000116,1699.529355900013,1699.529355900013,1699.529355900013,1702.5286511000013,1702.5286511000013,1702.5286511000013,1702.5130381000054,f,1702.513107100007,,,1702.5131217000016,None,,,1.8539011999964714,0.17642699999851175,,,,,,,,,,00043,001,2026-01-23_21h19.14.514,MST_task,2024.2.0,59.86324839593554,2026-01-23 21h19.21.508556 +0530,
,Objects\148a.jpg,44,0,45,,,,,f,None,,,1.6984767999965698,0.16819850000320002,,,,45,0,44,1702.5286511000013,,,,,,,,,,,,,,,,,,,,,,,1702.5131993000105,1702.5286511000013,1703.0292424000218,1703.0125477000256,,,,,,,,,,,,,,,,,,,,,,1703.025480500015,1703.0292424000218,1703.0292424000218,1703.0292424000218,1706.0289922000084,1706.0289922000084,1706.0289922000084,1706.0132395000255,f,1706.0133129000023,,,1706.0133279000001,None,,,1.6984767999965698,0.16819850000320002,,,,,,,,,,00043,001,2026-01-23_21h19.14.514,MST_task,2024.2.0,59.86324839593554,2026-01-23 21h19.21.508556 +0530,
,Objects\053a.jpg,45,0,46,,,,,f,None,,,2.910798299999442,None,,,,46,0,45,1706.0289922000084,,,,,,,,,,,,,,,,,,,,,,,1706.0134060000128,1706.0289922000084,1706.5289876000024,1706.5126339000126,,,,,,,,,,,,,,,,,,,,,,1706.5168883000151,1706.5289876000024,1706.5289876000024,1706.5289876000024,1709.5288254000188,1709.5288254000188,1709.5288254000188,1709.5131727000116,f,1709.5132440000016,,,1709.5132576000178,None,,,2.910798299999442,None,,,,,,,,,,00043,001,2026-01-23_21h19.14.514,MST_task,2024.2.0,59.86324839593554,2026-01-23 21h19.21.508556 +0530,
,Objects\025a.jpg,46,0,47,,,,,j,None,,,0.8097241999930702,0.2239629999967292,,,,47,0,46,1709.5288254000188,,,,,,,,,,,,,,,,,,,,,,,1709.513369000022,1709.5288254000188,1710.0297224000096,1710.012638300017,,,,,,,,,,,,,,,,,,,,,,1710.0165879999986,1710.0297224000096,1710.0297224000096,1710.0297224000096,1713.0291140000045,1713.0291140000045,1713.0291140000045,1713.0134847000008,j,1713.013558400009,,,1713.0135719000245,None,,,0.8097241999930702,0.2239629999967292,,,,,,,,,,00043,001,2026-01-23_21h19.14.514,MST_task,2024.2.0,59.86324839593554,2026-01-23 21h19.21.508556 +0530,
,Objects\052a.jpg,47,0,48,,,,,f,None,,,2.6311388000031,0.16712480000569485,,,,48,0,47,1713.0291140000045,,,,,,,,,,,,,,,,,,,,,,,1713.0136744000192,1713.0291140000045,1713.5288492000254,1713.5134495000239,,,,,,,,,,,,,,,,,,,,,,1713.5169059000036,1713.5288492000254,1713.5288492000254,1713.5288492000254,1716.5288159000047,1716.5288159000047,1716.5288159000047,1716.5132533000142,f,1716.5133243000018,,,1716.5133391999989,None,,,2.6311388000031,0.16712480000569485,,,,,,,,,,00043,001,2026-01-23_21h19.14.514,MST_task,2024.2.0,59.86324839593554,2026-01-23 21h19.21.508556 +0530,
,Objects\011a.jpg,48,0,49,,,,,f,None,,,1.7860127000021748,0.2240029999811668,,,,49,0,48,1716.5288159000047,,,,,,,,,,,,,,,,,,,,,,,1716.5134418000234,1716.5288159000047,1717.0294594000152,1717.0130095000204,,,,,,,,,,,,,,,,,,,,,,1717.016600700008,1717.0294594000152,1717.0294594000152,1717.0294594000152,1720.0289594000205,1720.0289594000205,1720.0289594000205,1720.0134066000173,f,1720.0134773000027,,,1720.0134907000174,None,,,1.7860127000021748,0.2240029999811668,,,,,,,,,,00043,001,2026-01-23_21h19.14.514,MST_task,2024.2.0,59.86324839593554,2026-01-23 21h19.21.508556 +0530,
,Scenes\147a.jpg,49,0,50,,,,,j,None,,,0.605671600002097,0.16808299999684095,,,,50,0,49,1720.0289594000205,,,,,,,,,,,,,,,,,,,,,,,1720.013575900026,1720.0289594000205,1720.529497200012,1720.5126190000155,,,,,,,,,,,,,,,,,,,,,,1720.5203462000063,1720.529497200012,1720.529497200012,1720.529497200012,1723.5289984000265,1723.5289984000265,1723.5289984000265,1723.5132851000235,j,1723.5133605000156,,,1723.5133760000172,None,,,0.605671600002097,0.16808299999684095,,,,,,,,,,00043,001,2026-01-23_21h19.14.514,MST_task,2024.2.0,59.86324839593554,2026-01-23 21h19.21.508556 +0530,
,Scenes\161a.jpg,50,0,51,,,,,j,None,,,0.8893458999809809,0.16805370000656694,,,,51,0,50,1723.5289984000265,,,,,,,,,,,,,,,,,,,,,,,1723.5135002000025,1723.5289984000265,1724.0299637000135,1724.0123334000236,,,,,,,,,,,,,,,,,,,,,,1724.0253424000111,1724.0299637000135,1724.0299637000135,1724.0299637000135,1727.0290474000212,1727.0290474000212,1727.0290474000212,1727.0132360999996,j,1727.013304400025,,,1727.0133182000136,None,,,0.8893458999809809,0.16805370000656694,,,,,,,,,,00043,001,2026-01-23_21h19.14.514,MST_task,2024.2.0,59.86324839593554,2026-01-23 21h19.21.508556 +0530,
,Scenes\049a.jpg,51,0,52,,,,,j,None,,,0.6879627999733202,0.15992060001008213,,,,52,0,51,1727.0290474000212,,,,,,,,,,,,,,,,,,,,,,,1727.0134256000165,1727.0290474000212,1727.5355076999986,1727.5128412000195,,,,,,,,,,,,,,,,,,,,,,1727.5319404000184,1727.5355076999986,1727.5355076999986,1727.5355076999986,,,,1730.5291787000024,j,1730.5292513000022,,,1730.5292672000069,None,,,0.6879627999733202,0.15992060001008213,,,,,,,,,,00043,001,2026-01-23_21h19.14.514,MST_task,2024.2.0,59.86324839593554,2026-01-23 21h19.21.508556 +0530,
,Scenes\126a.jpg,52,0,53,,,,,j,None,,,0.5462208000244573,0.1434917000005953,,,,53,0,52,1730.5456665000238,,,,,,,,,,,,,,,,,,,,,,,1730.5293851000024,1730.5456665000238,1731.045679700008,1731.0290055000223,,,,,,,,,,,,,,,,,,,,,,1731.0370161000174,1731.045679700008,1731.045679700008,1731.045679700008,1734.0456344000122,1734.0456344000122,1734.0456344000122,1734.0294156000018,j,1734.0294858000125,,,1734.0294996000011,None,,,0.5462208000244573,0.1434917000005953,,,,,,,,,,00043,001,2026-01-23_21h19.14.514,MST_task,2024.2.0,59.86324839593554,2026-01-23 21h19.21.508556 +0530,
,Scenes\158a.jpg,53,0,54,,,,,j,None,,,1.9250204999989364,0.1680396000156179,,,,54,0,53,1734.0456344000122,,,,,,,,,,,,,,,,,,,,,,,1734.0296080000116,1734.0456344000122,1734.5463255000068,1734.5296479000244,,,,,,,,,,,,,,,,,,,,,,1734.5416788000148,1734.5463255000068,1734.5463255000068,1734.5463255000068,1737.5458737000008,1737.5458737000008,1737.5458737000008,1737.5298819000018,j,1737.5299482000119,,,1737.5299612000235,None,,,1.9250204999989364,0.1680396000156179,,,,,,,,,,00043,001,2026-01-23_21h19.14.514,MST_task,2024.2.0,59.86324839593554,2026-01-23 21h19.21.508556 +0530,
,Scenes\052a.jpg,54,0,55,,,,,j,None,,,2.0243055000028107,0.1279629000055138,,,,55,0,54,1737.5458737000008,,,,,,,,,,,,,,,,,,,,,,,1737.530036400014,1737.5458737000008,1738.0470832000137,1738.0294966000074,,,,,,,,,,,,,,,,,,,,,,1738.0413951000082,1738.0470832000137,1738.0470832000137,1738.0470832000137,,,,1741.0463947000098,j,1741.0464820000052,,,1741.0464996000228,None,,,2.0243055000028107,0.1279629000055138,,,,,,,,,,00043,001,2026-01-23_21h19.14.514,MST_task,2024.2.0,59.86324839593554,2026-01-23 21h19.21.508556 +0530,
,Scenes\047a.jpg,55,0,56,,,,,j,None,,,0.6841891000221949,0.12802469998132437,,,,56,0,55,1741.0622852000233,,,,,,,,,,,,,,,,,,,,,,,1741.0465941000148,1741.0622852000233,1741.5637557000155,1741.5464966,,,,,,,,,,,,,,,,,,,,,,1741.5606569000229,1741.5637557000155,1741.5637557000155,1741.5637557000155,,,,1744.5626069999998,j,1744.5626823000202,,,1744.5626978000219,None,,,0.6841891000221949,0.12802469998132437,,,,,,,,,,00043,001,2026-01-23_21h19.14.514,MST_task,2024.2.0,59.86324839593554,2026-01-23 21h19.21.508556 +0530,
,Objects\070a.jpg,56,0,57,,,,,f,None,,,1.1598093000066,0.17612629997893237,,,,57,0,56,1744.5787884000165,,,,,,,,,,,,,,,,,,,,,,,1744.5628125000221,1744.5787884000165,,1745.0629143000115,,,,,,,,,,,,,,,,,,,,,,1745.0673330000136,1745.0796355000057,1745.0796355000057,1745.0796355000057,1748.07902070001,1748.07902070001,1748.07902070001,1748.0630763000227,f,1748.0631481000164,,,1748.0631623000081,None,,,1.1598093000066,0.17612629997893237,,,,,,,,,,00043,001,2026-01-23_21h19.14.514,MST_task,2024.2.0,59.86324839593554,2026-01-23 21h19.21.508556 +0530,
,Objects\021a.jpg,57,0,58,,,,,f,None,,,2.2685018999909516,0.17534889999660663,,,,58,0,57,1748.07902070001,,,,,,,,,,,,,,,,,,,,,,,1748.0632466000097,1748.07902070001,1748.5794636000064,1748.5625793000218,,,,,,,,,,,,,,,,,,,,,,1748.5736001000041,1748.5794636000064,1748.5794636000064,1748.5794636000064,1751.579361000011,1751.579361000011,1751.579361000011,1751.5633077000093,f,1751.5633797000046,,,1751.5633942999993,None,,,2.2685018999909516,0.17534889999660663,,,,,,,,,,00043,001,2026-01-23_21h19.14.514,MST_task,2024.2.0,59.86324839593554,2026-01-23 21h19.21.508556 +0530,
,Objects\008a.jpg,58,0,59,,,,,j,None,,,1.4080037000239827,0.16800169998896308,,,,59,0,58,1751.579361000011,,,,,,,,,,,,,,,,,,,,,,,1751.5634768000164,1751.579361000011,1752.0794565000106,1752.0629818000016,,,,,,,,,,,,,,,,,,,,,,1752.0672000000195,1752.0794565000106,1752.0794565000106,1752.0794565000106,1755.0789870000153,1755.0789870000153,1755.0789870000153,1755.063762100006,j,1755.0638324000174,,,1755.0638469000114,None,,,1.4080037000239827,0.16800169998896308,,,,,,,,,,00043,001,2026-01-23_21h19.14.514,MST_task,2024.2.0,59.86324839593554,2026-01-23 21h19.21.508556 +0530,
,Objects\132a.jpg,59,0,60,,,,,j,None,,,0.9965022999967914,0.13603719999082386,,,,60,0,59,1755.0789870000153,,,,,,,,,,,,,,,,,,,,,,,1755.0639640000009,1755.0789870000153,1755.579281800019,1755.5625906000205,,,,,,,,,,,,,,,,,,,,,,1755.5666467000265,1755.579281800019,1755.579281800019,1755.579281800019,1758.5787810000184,1758.5787810000184,1758.5787810000184,1758.563017700013,j,1758.5630794000172,,,1758.5630921999982,None,,,0.9965022999967914,0.13603719999082386,,,,,,,,,,00043,001,2026-01-23_21h19.14.514,MST_task,2024.2.0,59.86324839593554,2026-01-23 21h19.21.508556 +0530,
,Objects\105a.jpg,60,0,61,,,,,f,None,,,1.2401018000091426,0.21602819999679923,,,,61,0,60,1758.5787810000184,,,,,,,,,,,,,,,,,,,,,,,1758.5631900000153,1758.5787810000184,1759.0795485000126,1759.0626229000045,,,,,,,,,,,,,,,,,,,,,,1759.0666608000174,1759.0795485000126,1759.0795485000126,1759.0795485000126,1762.079264,1762.079264,1762.079264,1762.063438400015,f,1762.0635160000238,,,1762.06353080002,None,,,1.2401018000091426,0.21602819999679923,,,,,,,,,,00043,001,2026-01-23_21h19.14.514,MST_task,2024.2.0,59.86324839593554,2026-01-23 21h19.21.508556 +0530,
,Objects\082a.jpg,61,0,62,,,,,f,None,,,1.4594656999979634,0.22401479998370633,,,,62,0,61,1762.079264,,,,,,,,,,,,,,,,,,,,,,,1762.0636103000143,1762.079264,1762.580373600009,1762.5626073000021,,,,,,,,,,,,,,,,,,,,,,1762.566904700012,1762.580373600009,1762.580373600009,1762.580373600009,,,,1765.5793764000118,f,1765.5794483000063,,,1765.579463800008,None,,,1.4594656999979634,0.22401479998370633,,,,,,,,,,00043,001,2026-01-23_21h19.14.514,MST_task,2024.2.0,59.86324839593554,2026-01-23 21h19.21.508556 +0530,
,Objects\005a.jpg,62,0,63,,,,,f,None,,,0.6873321000020951,0.20802370001911186,,,,63,0,62,1765.5960042000224,,,,,,,,,,,,,,,,,,,,,,,1765.5795920000237,1765.5960042000224,1766.0960720000148,1766.0796175000141,,,,,,,,,,,,,,,,,,,,,,1766.083446500008,1766.0960720000148,1766.0960720000148,1766.0960720000148,1769.0955047000025,1769.0955047000025,1769.0955047000025,1769.079796200007,f,1769.0798674000253,,,1769.0798827000253,None,,,0.6873321000020951,0.20802370001911186,,,,,,,,,,00043,001,2026-01-23_21h19.14.514,MST_task,2024.2.0,59.86324839593554,2026-01-23 21h19.21.508556 +0530,
,Scenes\021a.jpg,63,0,64,,,,,j,None,,,1.363210400013486,0.14381979999598116,,,,64,0,63,1769.0955047000025,,,,,,,,,,,,,,,,,,,,,,,1769.0799903000006,1769.0955047000025,1769.5960919000208,1769.5791238000093,,,,,,,,,,,,,,,,,,,,,,1769.5926880000043,1769.5960919000208,1769.5960919000208,1769.5960919000208,1772.5955852000043,1772.5955852000043,1772.5955852000043,1772.5798752000264,j,1772.579951200023,,,1772.5799675000017,None,,,1.363210400013486,0.14381979999598116,,,,,,,,,,00043,001,2026-01-23_21h19.14.514,MST_task,2024.2.0,59.86324839593554,2026-01-23 21h19.21.508556 +0530,
,Scenes\168a.jpg,64,0,65,,,,,j,None,,,0.7514030000020284,0.17581879999488592,,,,65,0,64,1772.5955852000043,,,,,,,,,,,,,,,,,,,,,,,1772.580043599999,1772.5955852000043,1773.0964037000085,1773.0790886000032,,,,,,,,,,,,,,,,,,,,,,1773.0895067000238,1773.0964037000085,1773.0964037000085,1773.0964037000085,1776.095630900003,1776.095630900003,1776.095630900003,1776.0796717000194,j,1776.0797446000215,,,1776.0797594000178,None,,,0.7514030000020284,0.17581879999488592,,,,,,,,,,00043,001,2026-01-23_21h19.14.514,MST_task,2024.2.0,59.86324839593554,2026-01-23 21h19.21.508556 +0530,
,Scenes\155a.jpg,65,0,66,,,,,j,None,,,0.8671463999780826,0.11989670002367347,,,,66,0,65,1776.095630900003,,,,,,,,,,,,,,,,,,,,,,,1776.079839300015,1776.095630900003,1776.5960901000071,1776.5798924000119,,,,,,,,,,,,,,,,,,,,,,1776.5892648000154,1776.5960901000071,1776.5960901000071,1776.5960901000071,1779.5956378000265,1779.5956378000265,1779.5956378000265,1779.5794341000146,j,1779.5795001000224,,,1779.5795141000126,None,,,0.8671463999780826,0.11989670002367347,,,,,,,,,,00043,001,2026-01-23_21h19.14.514,MST_task,2024.2.0,59.86324839593554,2026-01-23 21h19.21.508556 +0530,
,Scenes\164a.jpg,66,0,67,,,,,j,None,,,0.7035213000199292,0.13498360000085086,,,,67,0,66,1779.5956378000265,,,,,,,,,,,,,,,,,,,,,,,1779.579615900002,1779.5956378000265,1780.0966826000076,1780.0793182000052,,,,,,,,,,,,,,,,,,,,,,1780.088208000001,1780.0966826000076,1780.0966826000076,1780.0966826000076,,,,1783.0964621000167,j,1783.0965650000144,,,1783.096589599998,None,,,0.7035213000199292,0.13498360000085086,,,,,,,,,,00043,001,2026-01-23_21h19.14.514,MST_task,2024.2.0,59.86324839593554,2026-01-23 21h19.21.508556 +0530,
,Scenes\042a.jpg,67,0,68,,,,,j,None,,,0.802170799986925,0.12800900000729598,,,,68,0,67,1783.1128448000236,,,,,,,,,,,,,,,,,,,,,,,1783.0966865000082,1783.1128448000236,1783.6130164000206,1783.5961263000208,,,,,,,,,,,,,,,,,,,,,,1783.603860400006,1783.6130164000206,1783.6130164000206,1783.6130164000206,1786.6122295000241,1786.6122295000241,1786.6122295000241,1786.5968749000167,j,1786.5969442000205,,,1786.5969570000016,None,,,0.802170799986925,0.12800900000729598,,,,,,,,,,00043,001,2026-01-23_21h19.14.514,MST_task,2024.2.0,59.86324839593554,2026-01-23 21h19.21.508556 +0530,
,Scenes\144a.jpg,68,0,69,,,,,j,None,,,1.238690800004406,0.15095670000300743,,,,69,0,68,1786.6122295000241,,,,,,,,,,,,,,,,,,,,,,,1786.597031000012,1786.6122295000241,1787.1132946000143,1787.0965878000134,,,,,,,,,,,,,,,,,,,,,,1787.1042754000227,1787.1132946000143,1787.1132946000143,1787.1132946000143,1790.1122724000015,1790.1122724000015,1790.1122724000015,1790.097313700011,j,1790.0973828000133,,,1790.097396199999,None,,,1.238690800004406,0.15095670000300743,,,,,,,,,,00043,001,2026-01-23_21h19.14.514,MST_task,2024.2.0,59.86324839593554,2026-01-23 21h19.21.508556 +0530,
,Scenes\143a.jpg,69,0,70,,,,,j,None,,,0.7377845000009984,0.13581090001389384,,,,70,0,69,1790.1122724000015,,,,,,,,,,,,,,,,,,,,,,,1790.0974975000136,1790.1122724000015,1790.6132689000224,1790.596346700011,,,,,,,,,,,,,,,,,,,,,,1790.608677500015,1790.6132689000224,1790.6132689000224,1790.6132689000224,1793.612347700022,1793.612347700022,1793.612347700022,1793.5971208000265,j,1793.5971917000134,,,1793.5972051999997,None,,,0.7377845000009984,0.13581090001389384,,,,,,,,,,00043,001,2026-01-23_21h19.14.514,MST_task,2024.2.0,59.86324839593554,2026-01-23 21h19.21.508556 +0530,
,Objects\029a.jpg,70,0,71,,,,,j,None,,,0.7661953000060748,0.11996640000143088,,,,71,0,70,1793.612347700022,,,,,,,,,,,,,,,,,,,,,,,1793.5973044999992,1793.612347700022,1794.1132389999984,1794.0955983000167,,,,,,,,,,,,,,,,,,,,,,1794.099638900021,1794.1132389999984,1794.1132389999984,1794.1132389999984,1797.1122275000089,1797.1122275000089,1797.1122275000089,1797.0970034000056,j,1797.0970791,,,1797.0970933000208,None,,,0.7661953000060748,0.11996640000143088,,,,,,,,,,00043,001,2026-01-23_21h19.14.514,MST_task,2024.2.0,59.86324839593554,2026-01-23 21h19.21.508556 +0530,
,Objects\097a.jpg,71,0,72,,,,,j,None,,,0.7078302000008989,0.12775799998780712,,,,72,0,71,1797.1122275000089,,,,,,,,,,,,,,,,,,,,,,,1797.0972003000206,1797.1122275000089,1797.6122497000033,1797.5962453000247,,,,,,,,,,,,,,,,,,,,,,1797.5997920000227,1797.6122497000033,1797.6122497000033,1797.6122497000033,1800.6123101999983,1800.6123101999983,1800.6123101999983,1800.5963784000196,j,1800.5964674999996,,,1800.5964800000074,None,,,0.7078302000008989,0.12775799998780712,,,,,,,,,,00043,001,2026-01-23_21h19.14.514,MST_task,2024.2.0,59.86324839593554,2026-01-23 21h19.21.508556 +0530,
,Objects\048a.jpg,72,0,73,,,,,j,None,,,0.6058887999970466,0.13602999999420717,,,,73,0,72,1800.6123101999983,,,,,,,,,,,,,,,,,,,,,,,1800.5965746000002,1800.6123101999983,1801.113601500023,1801.0963001000055,,,,,,,,,,,,,,,,,,,,,,1801.1000591000193,1801.113601500023,1801.113601500023,1801.113601500023,,,,1804.1129210000217,j,1804.1130180000036,,,1804.1130339000083,None,,,0.6058887999970466,0.13602999999420717,,,,,,,,,,00043,001,2026-01-23_21h19.14.514,MST_task,2024.2.0,59.86324839593554,2026-01-23 21h19.21.508556 +0530,
,Objects\017a.jpg,73,0,74,,,,,f,None,,,1.514956600003643,0.18391310001607053,,,,74,0,73,1804.130228599999,,,,,,,,,,,,,,,,,,,,,,,1804.1131202000252,1804.130228599999,1804.628882000019,1804.6129931000178,,,,,,,,,,,,,,,,,,,,,,1804.616691800009,1804.628882000019,1804.628882000019,1804.628882000019,1807.6290349000192,1807.6290349000192,1807.6290349000192,1807.6129346000089,f,1807.6130002000136,,,1807.6130131000245,None,,,1.514956600003643,0.18391310001607053,,,,,,,,,,00043,001,2026-01-23_21h19.14.514,MST_task,2024.2.0,59.86324839593554,2026-01-23 21h19.21.508556 +0530,
,Objects\139a.jpg,74,0,75,,,,,j,None,,,2.565936899976805,0.11202560001402162,,,,75,0,74,1807.6290349000192,,,,,,,,,,,,,,,,,,,,,,,1807.6130903000012,1807.6290349000192,1808.1295809000148,1808.113051799999,,,,,,,,,,,,,,,,,,,,,,1808.1168013999995,1808.1295809000148,1808.1295809000148,1808.1295809000148,1811.1290958000172,1811.1290958000172,1811.1290958000172,1811.1128369000216,j,1811.1129016000195,,,1811.1129132000206,None,,,2.565936899976805,0.11202560001402162,,,,,,,,,,00043,001,2026-01-23_21h19.14.514,MST_task,2024.2.0,59.86324839593554,2026-01-23 21h19.21.508556 +0530,
,Objects\140a.jpg,75,0,76,,,,,j,None,,,0.921340600005351,0.13701999999466352,,,,76,0,75,1811.1290958000172,,,,,,,,,,,,,,,,,,,,,,,1811.1130033000081,1811.1290958000172,1811.6298152000236,1811.6127287000127,,,,,,,,,,,,,,,,,,,,,,1811.616163700004,1811.6298152000236,1811.6298152000236,1811.6298152000236,1814.629080100014,1814.629080100014,1814.629080100014,1814.6132745000068,j,1814.6133411000192,,,1814.6133552000101,None,,,0.921340600005351,0.13701999999466352,,,,,,,,,,00043,001,2026-01-23_21h19.14.514,MST_task,2024.2.0,59.86324839593554,2026-01-23 21h19.21.508556 +0530,
,Objects\009a.jpg,76,0,77,,,,,f,None,,,1.0625292000186164,0.3118204000056721,,,,77,0,76,1814.629080100014,,,,,,,,,,,,,,,,,,,,,,,1814.6134347000043,1814.629080100014,1815.1291658000264,1815.1126151000208,,,,,,,,,,,,,,,,,,,,,,1815.1164102000184,1815.1291658000264,1815.1291658000264,1815.1291658000264,1818.1289402000257,1818.1289402000257,1818.1289402000257,1818.1130070000072,f,1818.1130814000207,,,1818.1130959000147,None,,,1.0625292000186164,0.3118204000056721,,,,,,,,,,00043,001,2026-01-23_21h19.14.514,MST_task,2024.2.0,59.86324839593554,2026-01-23 21h19.21.508556 +0530,
,Scenes\035a.jpg,77,0,78,,,,,j,None,,,0.9874351999897044,0.15900049998890609,,,,78,0,77,1818.1289402000257,,,,,,,,,,,,,,,,,,,,,,,1818.113200300024,1818.1289402000257,1818.629029600008,1818.612678800011,,,,,,,,,,,,,,,,,,,,,,1818.6242400000046,1818.629029600008,1818.629029600008,1818.629029600008,1821.628840200021,1821.628840200021,1821.628840200021,1821.6131835000124,j,1821.6132474000042,,,1821.6132607000181,None,,,0.9874351999897044,0.15900049998890609,,,,,,,,,,00043,001,2026-01-23_21h19.14.514,MST_task,2024.2.0,59.86324839593554,2026-01-23 21h19.21.508556 +0530,
,Scenes\181a.jpg,78,0,79,,,,,f,None,,,1.0622226000123192,0.18407249997835606,,,,79,0,78,1821.628840200021,,,,,,,,,,,,,,,,,,,,,,,1821.613335800008,1821.628840200021,1822.1292612000252,1822.1127644000226,,,,,,,,,,,,,,,,,,,,,,1822.1244259000232,1822.1292612000252,1822.1292612000252,1822.1292612000252,1825.129165899998,1825.129165899998,1825.129165899998,1825.1133505000034,f,1825.1134213000187,,,1825.1134340999997,None,,,1.0622226000123192,0.18407249997835606,,,,,,,,,,00043,001,2026-01-23_21h19.14.514,MST_task,2024.2.0,59.86324839593554,2026-01-23 21h19.21.508556 +0530,
,Scenes\071a.jpg,79,0,80,,,,,j,None,,,1.7373977999959607,0.27272829998400994,,,,80,0,79,1825.129165899998,,,,,,,,,,,,,,,,,,,,,,,1825.1135175000236,1825.129165899998,1825.6296523000055,1825.6132501000247,,,,,,,,,,,,,,,,,,,,,,1825.6233062000247,1825.6296523000055,1825.6296523000055,1825.6296523000055,1828.6289961000148,1828.6289961000148,1828.6289961000148,1828.6134919000033,j,1828.6135587000172,,,1828.6135716999997,None,,,1.7373977999959607,0.27272829998400994,,,,,,,,,,00043,001,2026-01-23_21h19.14.514,MST_task,2024.2.0,59.86324839593554,2026-01-23 21h19.21.508556 +0530,
,Scenes\175a.jpg,80,0,81,,,,,j,None,,,0.742220099986298,0.1995265000150539,,,,81,0,80,1828.6289961000148,,,,,,,,,,,,,,,,,,,,,,,1828.6136716000037,1828.6289961000148,1829.1294806000078,1829.112938300008,,,,,,,,,,,,,,,,,,,,,,1829.1201040000014,1829.1294806000078,1829.1294806000078,1829.1294806000078,1832.1289845000138,1832.1289845000138,1832.1289845000138,1832.113405000011,j,1832.1134806000046,,,1832.113495700003,None,,,0.742220099986298,0.1995265000150539,,,,,,,,,,00043,001,2026-01-23_21h19.14.514,MST_task,2024.2.0,59.86324839593554,2026-01-23 21h19.21.508556 +0530,
,Scenes\002a.jpg,81,0,82,,,,,j,None,,,1.4007121000031475,0.15236529998946935,,,,82,0,81,1832.1289845000138,,,,,,,,,,,,,,,,,,,,,,,1832.1135780000186,1832.1289845000138,1832.630222000007,1832.6130188000097,,,,,,,,,,,,,,,,,,,,,,1832.62715320001,1832.630222000007,1832.630222000007,1832.630222000007,,,,1835.6294780000171,j,1835.6295499000116,,,1835.6295646000071,None,,,1.4007121000031475,0.15236529998946935,,,,,,,,,,00043,001,2026-01-23_21h19.14.514,MST_task,2024.2.0,59.86324839593554,2026-01-23 21h19.21.508556 +0530,
,Scenes\026a.jpg,82,0,83,,,,,j,None,,,1.4289781999832485,0.19197620000340976,,,,83,0,82,1835.6458361000114,,,,,,,,,,,,,,,,,,,,,,,1835.6296988000104,1835.6458361000114,1836.1466812000144,1836.129233900021,,,,,,,,,,,,,,,,,,,,,,1836.1435990000027,1836.1466812000144,1836.1466812000144,1836.1466812000144,1839.1458395000082,1839.1458395000082,1839.1458395000082,1839.1297488000127,j,1839.1298223000194,,,1839.1298358000058,None,,,1.4289781999832485,0.19197620000340976,,,,,,,,,,00043,001,2026-01-23_21h19.14.514,MST_task,2024.2.0,59.86324839593554,2026-01-23 21h19.21.508556 +0530,
,Scenes\111a.jpg,83,0,84,,,,,j,None,,,1.408582900010515,0.12800150000839494,,,,84,0,83,1839.1458395000082,,,,,,,,,,,,,,,,,,,,,,,1839.1299126000085,1839.1458395000082,1839.6469747000083,1839.6298000000243,,,,,,,,,,,,,,,,,,,,,,1839.6375066000037,1839.6469747000083,1839.6469747000083,1839.6469747000083,,,,1842.6460651000089,j,1842.6461498000135,,,1842.6461656000174,None,,,1.408582900010515,0.12800150000839494,,,,,,,,,,00043,001,2026-01-23_21h19.14.514,MST_task,2024.2.0,59.86324839593554,2026-01-23 21h19.21.508556 +0530,
,Objects\100a.jpg,84,0,85,,,,,j,None,,,1.7882539999845903,0.2402128000103403,,,,85,0,84,1842.6626122000162,,,,,,,,,,,,,,,,,,,,,,,1842.6462631000031,1842.6626122000162,1843.1630890000088,1843.146324900008,,,,,,,,,,,,,,,,,,,,,,1843.1510104000045,1843.1630890000088,1843.1630890000088,1843.1630890000088,1846.1621709000028,1846.1621709000028,1846.1621709000028,1846.146578200016,j,1846.1466471000167,,,1846.146661100007,None,,,1.7882539999845903,0.2402128000103403,,,,,,,,,,00043,001,2026-01-23_21h19.14.514,MST_task,2024.2.0,59.86324839593554,2026-01-23 21h19.21.508556 +0530,
,Objects\183a.jpg,85,0,86,,,,,f,None,,,0.6482074000232387,0.23218789999373257,,,,86,0,85,1846.1621709000028,,,,,,,,,,,,,,,,,,,,,,,1846.1467383000127,1846.1621709000028,1846.6630008000066,1846.6459198000084,,,,,,,,,,,,,,,,,,,,,,1846.6493911000143,1846.6630008000066,1846.6630008000066,1846.6630008000066,1849.662556299998,1849.662556299998,1849.662556299998,1849.6468275000225,f,1849.6469028000138,,,1849.6469170000055,None,,,0.6482074000232387,0.23218789999373257,,,,,,,,,,00043,001,2026-01-23_21h19.14.514,MST_task,2024.2.0,59.86324839593554,2026-01-23 21h19.21.508556 +0530,
,Objects\071a.jpg,86,0,87,,,,,j,None,,,1.4682682999991812,0.20801360000041313,,,,87,0,86,1849.662556299998,,,,,,,,,,,,,,,,,,,,,,,1849.6470263000228,1849.662556299998,1850.1628573000198,1850.1458918999997,,,,,,,,,,,,,,,,,,,,,,1850.149842600018,1850.1628573000198,1850.1628573000198,1850.1628573000198,1853.1626688000106,1853.1626688000106,1853.1626688000106,1853.1465909000253,j,1853.1466621000145,,,1853.1466771000123,None,,,1.4682682999991812,0.20801360000041313,,,,,,,,,,00043,001,2026-01-23_21h19.14.514,MST_task,2024.2.0,59.86324839593554,2026-01-23 21h19.21.508556 +0530,
,Objects\108a.jpg,87,0,88,,,,,f,None,,,1.6482885000004899,0.24889290001010522,,,,88,0,87,1853.1626688000106,,,,,,,,,,,,,,,,,,,,,,,1853.1467818000237,1853.1626688000106,1853.663030100026,1853.6461715000041,,,,,,,,,,,,,,,,,,,,,,1853.650307200005,1853.663030100026,1853.663030100026,1853.663030100026,1856.6622495000192,1856.6622495000192,1856.6622495000192,1856.646960700018,f,1856.6470344000263,,,1856.6470494000241,None,,,1.6482885000004899,0.24889290001010522,,,,,,,,,,00043,001,2026-01-23_21h19.14.514,MST_task,2024.2.0,59.86324839593554,2026-01-23 21h19.21.508556 +0530,
,Objects\091a.jpg,88,0,89,,,,,j,None,,,1.0048587000055704,0.12796529999468476,,,,89,0,88,1856.6622495000192,,,,,,,,,,,,,,,,,,,,,,,1856.647182100016,1856.6622495000192,1857.1628490000148,1857.1463462000247,,,,,,,,,,,,,,,,,,,,,,1857.1499304000172,1857.1628490000148,1857.1628490000148,1857.1628490000148,1860.1623271999997,1860.1623271999997,1860.1623271999997,1860.1472178000258,j,1860.1472874000028,,,1860.1473012000206,None,,,1.0048587000055704,0.12796529999468476,,,,,,,,,,00043,001,2026-01-23_21h19.14.514,MST_task,2024.2.0,59.86324839593554,2026-01-23 21h19.21.508556 +0530,
,Objects\098a.jpg,89,0,90,,,,,f,None,,,1.1923067000170704,0.1929142999870237,,,,90,0,89,1860.1623271999997,,,,,,,,,,,,,,,,,,,,,,,1860.1474108000111,1860.1623271999997,1860.6627513999993,1860.6459848000086,,,,,,,,,,,,,,,,,,,,,,1860.6498627000256,1860.6627513999993,1860.6627513999993,1860.6627513999993,1863.6624284000136,1863.6624284000136,1863.6624284000136,1863.6464134000125,f,1863.6464781000104,,,1863.6464942000166,None,,,1.1923067000170704,0.1929142999870237,,,,,,,,,,00043,001,2026-01-23_21h19.14.514,MST_task,2024.2.0,59.86324839593554,2026-01-23 21h19.21.508556 +0530,
,Objects\102a.jpg,90,0,91,,,,,f,None,,,0.9167003999755252,0.1997292000160087,,,,91,0,90,1863.6624284000136,,,,,,,,,,,,,,,,,,,,,,,1863.6466031000018,1863.6624284000136,1864.1631290000223,1864.1464823000133,,,,,,,,,,,,,,,,,,,,,,1864.1505713000079,1864.1631290000223,1864.1631290000223,1864.1631290000223,1867.162649100006,1867.162649100006,1867.162649100006,1867.146325300011,f,1867.1463887999998,,,1867.146402000013,None,,,0.9167003999755252,0.1997292000160087,,,,,,,,,,00043,001,2026-01-23_21h19.14.514,MST_task,2024.2.0,59.86324839593554,2026-01-23 21h19.21.508556 +0530,
,Scenes\016a.jpg,91,0,92,,,,,j,None,,,1.1522521000006236,0.13598230000934564,,,,92,0,91,1867.162649100006,,,,,,,,,,,,,,,,,,,,,,,1867.146477400005,1867.162649100006,1867.6628426000243,1867.6461147000082,,,,,,,,,,,,,,,,,,,,,,1867.6514206000138,1867.6628426000243,1867.6628426000243,1867.6628426000243,1870.66231840002,1870.66231840002,1870.66231840002,1870.646737300005,j,1870.6468105000095,,,1870.646824800002,None,,,1.1522521000006236,0.13598230000934564,,,,,,,,,,00043,001,2026-01-23_21h19.14.514,MST_task,2024.2.0,59.86324839593554,2026-01-23 21h19.21.508556 +0530,
,Scenes\034a.jpg,92,0,93,,,,,j,None,,,2.081535500008613,0.10409050001180731,,,,93,0,92,1870.66231840002,,,,,,,,,,,,,,,,,,,,,,,1870.6469303000194,1870.66231840002,1871.1657935000258,1871.1460030000017,,,,,,,,,,,,,,,,,,,,,,1871.1630223000247,1871.1657935000258,1871.1657935000258,1871.1657935000258,,,,1874.1626816000207,j,1874.1627662000246,,,1874.1627817000262,None,,,2.081535500008613,0.10409050001180731,,,,,,,,,,00043,001,2026-01-23_21h19.14.514,MST_task,2024.2.0,59.86324839593554,2026-01-23 21h19.21.508556 +0530,
,Scenes\125a.jpg,93,0,94,,,,,j,None,,,0.5916132999991532,0.13613339999574237,,,,94,0,93,1874.1796907000244,,,,,,,,,,,,,,,,,,,,,,,1874.1629039000254,1874.1796907000244,1874.6792812000203,1874.6626389000157,,,,,,,,,,,,,,,,,,,,,,1874.674991100008,1874.6792812000203,1874.6792812000203,1874.6792812000203,1877.6792423000152,1877.6792423000152,1877.6792423000152,1877.6629193000263,j,1877.6629827000143,,,1877.6629958999984,None,,,0.5916132999991532,0.13613339999574237,,,,,,,,,,00043,001,2026-01-23_21h19.14.514,MST_task,2024.2.0,59.86324839593554,2026-01-23 21h19.21.508556 +0530,
,Scenes\166a.jpg,94,0,95,,,,,j,None,,,0.6604136999812908,0.1440543000062462,,,,95,0,94,1877.6792423000152,,,,,,,,,,,,,,,,,,,,,,,1877.6631012000144,1877.6792423000152,1878.1793089999992,1878.162901100004,,,,,,,,,,,,,,,,,,,,,,1878.1690079000255,1878.1793089999992,1878.1793089999992,1878.1793089999992,,,,1881.1633664000256,j,1881.1634610000183,,,1881.1634761000169,None,,,0.6604136999812908,0.1440543000062462,,,,,,,,,,00043,001,2026-01-23_21h19.14.514,MST_task,2024.2.0,59.86324839593554,2026-01-23 21h19.21.508556 +0530,
,Scenes\112a.jpg,95,0,96,,,,,j,None,,,0.6555487000150606,0.16797010001027957,,,,96,0,95,1881.179345600016,,,,,,,,,,,,,,,,,,,,,,,1881.1636159000045,1881.179345600016,1881.6793389000231,1881.6627682000108,,,,,,,,,,,,,,,,,,,,,,1881.673125900008,1881.6793389000231,1881.6793389000231,1881.6793389000231,1884.6789093000116,1884.6789093000116,1884.6789093000116,1884.6630398000125,j,1884.6631194000074,,,1884.6631334000267,None,,,0.6555487000150606,0.16797010001027957,,,,,,,,,,00043,001,2026-01-23_21h19.14.514,MST_task,2024.2.0,59.86324839593554,2026-01-23 21h19.21.508556 +0530,
,Scenes\154a.jpg,96,0,97,,,,,j,None,,,0.8201224000076763,0.14394079998601228,,,,97,0,96,1884.6789093000116,,,,,,,,,,,,,,,,,,,,,,,1884.6632247000234,1884.6789093000116,1885.1793490000127,1885.1625724000041,,,,,,,,,,,,,,,,,,,,,,1885.1696893000044,1885.1793490000127,1885.1793490000127,1885.1793490000127,1888.1787851000263,1888.1787851000263,1888.1787851000263,1888.1631456000032,j,1888.1632190000091,,,1888.1632339000062,None,,,0.8201224000076763,0.14394079998601228,,,,,,,,,,00043,001,2026-01-23_21h19.14.514,MST_task,2024.2.0,59.86324839593554,2026-01-23 21h19.21.508556 +0530,
,Scenes\076a.jpg,97,0,98,,,,,j,None,,,0.6854035000142176,0.16045009999652393,,,,98,0,97,1888.1787851000263,,,,,,,,,,,,,,,,,,,,,,,1888.163347100024,1888.1787851000263,1888.681689500023,1888.6628047999984,,,,,,,,,,,,,,,,,,,,,,1888.6787551000016,1888.681689500023,1888.681689500023,1888.681689500023,,,,1891.679077400011,j,1891.6791962000134,,,1891.6792223000084,None,,,0.6854035000142176,0.16045009999652393,,,,,,,,,,00043,001,2026-01-23_21h19.14.514,MST_task,2024.2.0,59.86324839593554,2026-01-23 21h19.21.508556 +0530,
,Objects\134a.jpg,98,0,99,,,,,j,None,,,0.9228691999742296,0.13599420001264662,,,,99,0,98,1891.6962486999983,,,,,,,,,,,,,,,,,,,,,,,1891.6793697000248,1891.6962486999983,1892.1963037000096,1892.1791106000019,,,,,,,,,,,,,,,,,,,,,,1892.1833845000074,1892.1963037000096,1892.1963037000096,1892.1963037000096,,,,1895.1795618000033,j,1895.1796358000138,,,1895.1796514000162,None,,,0.9228691999742296,0.13599420001264662,,,,,,,,,,00043,001,2026-01-23_21h19.14.514,MST_task,2024.2.0,59.86324839593554,2026-01-23 21h19.21.508556 +0530,
,Objects\096a.jpg,99,0,100,,,,,f,None,,,2.9430378999968525,None,,,,100,0,99,1895.1958974000008,,,,,,,,,,,,,,,,,,,,,,,1895.1797651000088,1895.1958974000008,1895.6959034000174,1895.6793658000242,,,,,,,,,,,,,,,,,,,,,,1895.6832865000179,1895.6959034000174,1895.6959034000174,1895.6959034000174,1898.6955613000027,1898.6955613000027,1898.6955613000027,1898.6800040000235,f,1898.6800734999997,,,1898.6800870000152,None,,,2.9430378999968525,None,,,,,,,,,,00043,001,2026-01-23_21h19.14.514,MST_task,2024.2.0,59.86324839593554,2026-01-23 21h19.21.508556 +0530,
,Objects\034a.jpg,100,0,101,,,,,f,None,,,1.099872899998445,0.19176400001742877,,,,101,0,100,1898.6955613000027,,,,,,,,,,,,,,,,,,,,,,,1898.680162100005,1898.6955613000027,1899.1956948000006,1899.1795456000254,,,,,,,,,,,,,,,,,,,,,,1899.1836078000197,1899.1956948000006,1899.1956948000006,1899.1956948000006,1902.1957464000152,1902.1957464000152,1902.1957464000152,1902.1798509000218,f,1902.179917100002,,,1902.179930800019,None,,,1.099872899998445,0.19176400001742877,,,,,,,,,,00043,001,2026-01-23_21h19.14.514,MST_task,2024.2.0,59.86324839593554,2026-01-23 21h19.21.508556 +0530,
,Objects\173a.jpg,101,0,102,,,,,f,None,,,0.7993062000023201,0.19209799999953248,,,,102,0,101,1902.1957464000152,,,,,,,,,,,,,,,,,,,,,,,1902.1800280000025,1902.1957464000152,1902.6961845000042,1902.679697500018,,,,,,,,,,,,,,,,,,,,,,1902.6835851000214,1902.6961845000042,1902.6961845000042,1902.6961845000042,1905.6957250999985,1905.6957250999985,1905.6957250999985,1905.6795939000149,f,1905.6796612000035,,,1905.6796752000228,None,,,0.7993062000023201,0.19209799999953248,,,,,,,,,,00043,001,2026-01-23_21h19.14.514,MST_task,2024.2.0,59.86324839593554,2026-01-23 21h19.21.508556 +0530,
,Objects\178a.jpg,102,0,103,,,,,j,None,,,0.842970099998638,0.14410590002080426,,,,103,0,102,1905.6957250999985,,,,,,,,,,,,,,,,,,,,,,,1905.6797781000205,1905.6957250999985,1906.196139000007,1906.1793222000124,,,,,,,,,,,,,,,,,,,,,,1906.1840405000257,1906.196139000007,1906.196139000007,1906.196139000007,1909.1960115000256,1909.1960115000256,1909.1960115000256,1909.179919600021,j,1909.1799925000232,,,1909.180005400005,None,,,0.842970099998638,0.14410590002080426,,,,,,,,,,00043,001,2026-01-23_21h19.14.514,MST_task,2024.2.0,59.86324839593554,2026-01-23 21h19.21.508556 +0530,
,Objects\190a.jpg,103,0,104,,,,,j,None,,,2.1030083000077866,0.0959924999915529,,,,104,0,103,1909.1960115000256,,,,,,,,,,,,,,,,,,,,,,,1909.1800822000077,1909.1960115000256,1909.6962931000162,1909.679039700015,,,,,,,,,,,,,,,,,,,,,,1909.6823641000083,1909.6962931000162,1909.6962931000162,1909.6962931000162,1912.6956617000105,1912.6956617000105,1912.6956617000105,1912.6800899000082,j,1912.6801706000115,,,1912.6801840999979,None,,,2.1030083000077866,0.0959924999915529,,,,,,,,,,00043,001,2026-01-23_21h19.14.514,MST_task,2024.2.0,59.86324839593554,2026-01-23 21h19.21.508556 +0530,
,Objects\030a.jpg,104,0,105,,,,,j,None,,,1.8354034000076354,0.08009669999592006,,,,105,0,104,1912.6956617000105,,,,,,,,,,,,,,,,,,,,,,,1912.6802679000248,1912.6956617000105,1913.1958901000035,1913.1793324000027,,,,,,,,,,,,,,,,,,,,,,1913.1827734000108,1913.1958901000035,1913.1958901000035,1913.1958901000035,1916.1959716000129,1916.1959716000129,1916.1959716000129,1916.1795373000205,j,1916.1796119000064,,,1916.1796268000035,None,,,1.8354034000076354,0.08009669999592006,,,,,,,,,,00043,001,2026-01-23_21h19.14.514,MST_task,2024.2.0,59.86324839593554,2026-01-23 21h19.21.508556 +0530,
,Scenes\172a.jpg,105,0,106,,,,,j,None,,,0.8788186000019778,0.12801169999875128,,,,106,0,105,1916.1959716000129,,,,,,,,,,,,,,,,,,,,,,,1916.1797405000252,1916.1959716000129,1916.6961699000094,1916.679465000023,,,,,,,,,,,,,,,,,,,,,,1916.6877581000153,1916.6961699000094,1916.6961699000094,1916.6961699000094,1919.6957380000094,1919.6957380000094,1919.6957380000094,1919.6801192999992,j,1919.680188600003,,,1919.6802036000008,None,,,0.8788186000019778,0.12801169999875128,,,,,,,,,,00043,001,2026-01-23_21h19.14.514,MST_task,2024.2.0,59.86324839593554,2026-01-23 21h19.21.508556 +0530,
,Scenes\085a.jpg,106,0,107,,,,,j,None,,,0.9608379999990575,0.11251029997947626,,,,107,0,106,1919.6957380000094,,,,,,,,,,,,,,,,,,,,,,,1919.6802954000013,1919.6957380000094,1920.1982629000267,1920.1792965000204,,,,,,,,,,,,,,,,,,,,,,1920.1942666000105,1920.1982629000267,1920.1982629000267,1920.1982629000267,,,,1923.1957076000108,j,1923.1957977999991,,,1923.1958127000253,None,,,0.9608379999990575,0.11251029997947626,,,,,,,,,,00043,001,2026-01-23_21h19.14.514,MST_task,2024.2.0,59.86324839593554,2026-01-23 21h19.21.508556 +0530,
,Scenes\122a.jpg,107,0,108,,,,,f,None,,,1.2362113999843132,0.16031929999007843,,,,108,0,107,1923.2122018000227,,,,,,,,,,,,,,,,,,,,,,,1923.1959352999984,1923.2122018000227,1923.7152637000254,1923.6959839000192,,,,,,,,,,,,,,,,,,,,,,1923.7119329000125,1923.7152637000254,1923.7152637000254,1923.7152637000254,,,,1926.7128898000228,f,1926.7129711000016,,,1926.7129865000024,None,,,1.2362113999843132,0.16031929999007843,,,,,,,,,,00043,001,2026-01-23_21h19.14.514,MST_task,2024.2.0,59.86324839593554,2026-01-23 21h19.21.508556 +0530,
,Scenes\177a.jpg,108,0,109,,,,,j,None,,,0.801914100011345,0.13587749999715015,,,,109,0,108,1926.7286796999979,,,,,,,,,,,,,,,,,,,,,,,1926.713115999999,1926.7286796999979,,1927.213086600008,,,,,,,,,,,,,,,,,,,,,,1927.222362200002,1927.2294806000136,1927.2294806000136,1927.2294806000136,1930.2290778000024,1930.2290778000024,1930.2290778000024,1930.2129595000006,j,1930.2130341000156,,,1930.2130478000036,None,,,0.801914100011345,0.13587749999715015,,,,,,,,,,00043,001,2026-01-23_21h19.14.514,MST_task,2024.2.0,59.86324839593554,2026-01-23 21h19.21.508556 +0530,
,Scenes\091a.jpg,109,0,110,,,,,j,None,,,0.9014387999777682,0.27207270002691075,,,,110,0,109,1930.2290778000024,,,,,,,,,,,,,,,,,,,,,,,1930.2131328000105,1930.2290778000024,1930.7294160000165,1930.7126412000216,,,,,,,,,,,,,,,,,,,,,,1930.7196918000118,1930.7294160000165,1930.7294160000165,1930.7294160000165,1933.7288872000063,1933.7288872000063,1933.7288872000063,1933.7131822000083,j,1933.7132581000042,,,1933.7132705000113,None,,,0.9014387999777682,0.27207270002691075,,,,,,,,,,00043,001,2026-01-23_21h19.14.514,MST_task,2024.2.0,59.86324839593554,2026-01-23 21h19.21.508556 +0530,
,Scenes\128a.jpg,110,0,111,,,,,j,None,,,0.8024243999971077,0.13587790000019595,,,,111,0,110,1933.7288872000063,,,,,,,,,,,,,,,,,,,,,,,1933.7133716000244,1933.7288872000063,1934.2293827000249,1934.2126652000006,,,,,,,,,,,,,,,,,,,,,,1934.2251902999997,1934.2293827000249,1934.2293827000249,1934.2293827000249,1937.228910500009,1937.228910500009,1937.228910500009,1937.2138229000266,j,1937.2138976000133,,,1937.2139123000088,None,,,0.8024243999971077,0.13587790000019595,,,,,,,,,,00043,001,2026-01-23_21h19.14.514,MST_task,2024.2.0,59.86324839593554,2026-01-23 21h19.21.508556 +0530,
,Scenes\008a.jpg,111,0,112,,,,,f,None,,,1.8862161999859381,0.20803190002334304,,,,112,0,111,1937.228910500009,,,,,,,,,,,,,,,,,,,,,,,1937.2140205000178,1937.228910500009,1937.7292759999982,1937.7125663000043,,,,,,,,,,,,,,,,,,,,,,1937.7212317000085,1937.7292759999982,1937.7292759999982,1937.7292759999982,1940.728820600023,1940.728820600023,1940.728820600023,1940.714129400003,f,1940.714199500013,,,1940.7142137000046,None,,,1.8862161999859381,0.20803190002334304,,,,,,,,,,00043,001,2026-01-23_21h19.14.514,MST_task,2024.2.0,59.86324839593554,2026-01-23 21h19.21.508556 +0530,
,Objects\061a.jpg,112,0,113,,,,,j,None,,,1.9623537999868859,0.12799519998952746,,,,113,0,112,1940.728820600023,,,,,,,,,,,,,,,,,,,,,,,1940.7142950000125,1940.728820600023,1941.2292759000266,1941.2128953000065,,,,,,,,,,,,,,,,,,,,,,1941.2172972000262,1941.2292759000266,1941.2292759000266,1941.2292759000266,1944.2289393000246,1944.2289393000246,1944.2289393000246,1944.2133877000015,j,1944.2134541000123,,,1944.2134684000048,None,,,1.9623537999868859,0.12799519998952746,,,,,,,,,,00043,001,2026-01-23_21h19.14.514,MST_task,2024.2.0,59.86324839593554,2026-01-23 21h19.21.508556 +0530,
,Objects\146a.jpg,113,0,114,,,,,f,None,,,1.7344064000062644,0.2315346999967005,,,,114,0,113,1944.2289393000246,,,,,,,,,,,,,,,,,,,,,,,1944.2135764000122,1944.2289393000246,1944.729087900021,1944.7130770000222,,,,,,,,,,,,,,,,,,,,,,1944.7166613000154,1944.729087900021,1944.729087900021,1944.729087900021,1947.7295226000133,1947.7295226000133,1947.7295226000133,1947.7128171000222,f,1947.712890499999,,,1947.7129049000214,None,,,1.7344064000062644,0.2315346999967005,,,,,,,,,,00043,001,2026-01-23_21h19.14.514,MST_task,2024.2.0,59.86324839593554,2026-01-23 21h19.21.508556 +0530,
,Objects\122a.jpg,114,0,115,,,,,f,None,,,2.602396200003568,0.19996880000689998,,,,115,0,114,1947.7295226000133,,,,,,,,,,,,,,,,,,,,,,,1947.7129885000177,1947.7295226000133,1948.2293266000052,1948.2129518000002,,,,,,,,,,,,,,,,,,,,,,1948.2165446,1948.2293266000052,1948.2293266000052,1948.2293266000052,1951.228855400026,1951.228855400026,1951.228855400026,1951.2135451000067,f,1951.2136205999996,,,1951.2136331000074,None,,,2.602396200003568,0.19996880000689998,,,,,,,,,,00043,001,2026-01-23_21h19.14.514,MST_task,2024.2.0,59.86324839593554,2026-01-23 21h19.21.508556 +0530,
,Objects\116a.jpg,115,0,116,,,,,j,None,,,1.4696732000156771,0.1361435999860987,,,,116,0,115,1951.228855400026,,,,,,,,,,,,,,,,,,,,,,,1951.2137291000108,1951.228855400026,1951.7292799999996,1951.7127516000182,,,,,,,,,,,,,,,,,,,,,,1951.7166990000114,1951.7292799999996,1951.7292799999996,1951.7292799999996,1954.7289750000054,1954.7289750000054,1954.7289750000054,1954.7132920000004,j,1954.713365100004,,,1954.7133795000263,None,,,1.4696732000156771,0.1361435999860987,,,,,,,,,,00043,001,2026-01-23_21h19.14.514,MST_task,2024.2.0,59.86324839593554,2026-01-23 21h19.21.508556 +0530,
,Objects\121a.jpg,116,0,117,,,,,f,None,,,2.2826150999753736,0.2160857999988366,,,,117,0,116,1954.7289750000054,,,,,,,,,,,,,,,,,,,,,,,1954.713490300026,1954.7289750000054,1955.2289381000155,1955.2125042000262,,,,,,,,,,,,,,,,,,,,,,1955.2159363000246,1955.2289381000155,1955.2289381000155,1955.2289381000155,1958.2287180999992,1958.2287180999992,1958.2287180999992,1958.212928300025,f,1958.2129916000122,,,1958.2130048000254,None,,,2.2826150999753736,0.2160857999988366,,,,,,,,,,00043,001,2026-01-23_21h19.14.514,MST_task,2024.2.0,59.86324839593554,2026-01-23 21h19.21.508556 +0530,
,Objects\059a.jpg,117,0,118,,,,,f,None,,,1.8535983000183478,0.18396940000820905,,,,118,0,117,1958.2287180999992,,,,,,,,,,,,,,,,,,,,,,,1958.2130814000266,1958.2287180999992,1958.7298248000152,1958.7131257000146,,,,,,,,,,,,,,,,,,,,,,1958.717526500026,1958.7298248000152,1958.7298248000152,1958.7298248000152,1961.7286435000133,1961.7286435000133,1961.7286435000133,1961.7133652000048,f,1961.7134350000124,,,1961.7134495000064,None,,,1.8535983000183478,0.18396940000820905,,,,,,,,,,00043,001,2026-01-23_21h19.14.514,MST_task,2024.2.0,59.86324839593554,2026-01-23 21h19.21.508556 +0530,
,Objects\110a.jpg,118,0,119,,,,,f,None,,,1.7141310999868438,0.20099630000186153,,,,119,0,118,1961.7286435000133,,,,,,,,,,,,,,,,,,,,,,,1961.7135592999985,1961.7286435000133,1962.2288947000052,1962.212610800023,,,,,,,,,,,,,,,,,,,,,,1962.2164349000086,1962.2288947000052,1962.2288947000052,1962.2288947000052,1965.2289953000145,1965.2289953000145,1965.2289953000145,1965.213516800024,f,1965.2135845000157,,,1965.2135994000128,None,,,1.7141310999868438,0.20099630000186153,,,,,,,,,,00043,001,2026-01-23_21h19.14.514,MST_task,2024.2.0,59.86324839593554,2026-01-23 21h19.21.508556 +0530,
,Scenes\039a.jpg,119,0,120,,,,,j,None,,,0.7578502000251319,0.12789069997961633,,,,120,0,119,1965.2289953000145,,,,,,,,,,,,,,,,,,,,,,,1965.2136722000141,1965.2289953000145,1965.7292908000236,1965.7125027000147,,,,,,,,,,,,,,,,,,,,,,1965.721389000013,1965.7292908000236,1965.7292908000236,1965.7292908000236,1968.7288389000169,1968.7288389000169,1968.7288389000169,1968.7131692000257,j,1968.7132450000208,,,1968.713259400014,None,,,0.7578502000251319,0.12789069997961633,,,,,,,,,,00043,001,2026-01-23_21h19.14.514,MST_task,2024.2.0,59.86324839593554,2026-01-23 21h19.21.508556 +0530,
,Scenes\067a.jpg,120,0,121,,,,,j,None,,,1.2581185000017285,0.11970640000072308,,,,121,0,120,1968.7288389000169,,,,,,,,,,,,,,,,,,,,,,,1968.713370500016,1968.7288389000169,1969.229369800014,1969.2133594000188,,,,,,,,,,,,,,,,,,,,,,1969.2214372000017,1969.229369800014,1969.229369800014,1969.229369800014,1972.2290466000268,1972.2290466000268,1972.2290466000268,1972.2134784000227,j,1972.213552000001,,,1972.2135658000188,None,,,1.2581185000017285,0.11970640000072308,,,,,,,,,,00043,001,2026-01-23_21h19.14.514,MST_task,2024.2.0,59.86324839593554,2026-01-23 21h19.21.508556 +0530,
,Scenes\062a.jpg,121,0,122,,,,,j,None,,,2.0221469000098296,0.23213429999304935,,,,122,0,121,1972.2290466000268,,,,,,,,,,,,,,,,,,,,,,,1972.2136725000164,1972.2290466000268,1972.7291579000012,1972.712654700008,,,,,,,,,,,,,,,,,,,,,,1972.7258971999981,1972.7291579000012,1972.7291579000012,1972.7291579000012,1975.7289567000116,1975.7289567000116,1975.7289567000116,1975.7128124000155,j,1975.7128804000095,,,1975.7128945000004,None,,,2.0221469000098296,0.23213429999304935,,,,,,,,,,00043,001,2026-01-23_21h19.14.514,MST_task,2024.2.0,59.86324839593554,2026-01-23 21h19.21.508556 +0530,
,Scenes\134a.jpg,122,0,123,,,,,j,None,,,2.4975332999893,0.14393270001164638,,,,123,0,122,1975.7289567000116,,,,,,,,,,,,,,,,,,,,,,,1975.7129982000042,1975.7289567000116,1976.2301385000173,1976.2125684000202,,,,,,,,,,,,,,,,,,,,,,1976.2267742000113,1976.2301385000173,1976.2301385000173,1976.2301385000173,1979.2289156000188,1979.2289156000188,1979.2289156000188,1979.2131754000147,j,1979.213250300003,,,1979.213265600003,None,,,2.4975332999893,0.14393270001164638,,,,,,,,,,00043,001,2026-01-23_21h19.14.514,MST_task,2024.2.0,59.86324839593554,2026-01-23 21h19.21.508556 +0530,
,Scenes\132a.jpg,123,0,124,,,,,j,None,,,0.8212553999910597,0.14424190000863746,,,,124,0,123,1979.2289156000188,,,,,,,,,,,,,,,,,,,,,,,1979.213377100008,1979.2289156000188,1979.7295757000102,1979.7128136000247,,,,,,,,,,,,,,,,,,,,,,1979.7219342000026,1979.7295757000102,1979.7295757000102,1979.7295757000102,1982.729576600017,1982.729576600017,1982.729576600017,1982.712906300003,j,1982.7129802000127,,,1982.7129953000112,None,,,0.8212553999910597,0.14424190000863746,,,,,,,,,,00043,001,2026-01-23_21h19.14.514,MST_task,2024.2.0,59.86324839593554,2026-01-23 21h19.21.508556 +0530,
,Scenes\053a.jpg,124,0,125,,,,,j,None,,,0.7709797999996226,0.14300250000087544,,,,125,0,124,1982.729576600017,,,,,,,,,,,,,,,,,,,,,,,1982.713081599999,1982.729576600017,1983.229358600016,1983.2129603000067,,,,,,,,,,,,,,,,,,,,,,1983.216298000014,1983.229358600016,1983.229358600016,1983.229358600016,1986.2286466000078,1986.2286466000078,1986.2286466000078,1986.213124700007,j,1986.213195600023,,,1986.2132100000163,None,,,0.7709797999996226,0.14300250000087544,,,,,,,,,,00043,001,2026-01-23_21h19.14.514,MST_task,2024.2.0,59.86324839593554,2026-01-23 21h19.21.508556 +0530,
,Scenes\106a.jpg,125,0,126,,,,,j,None,,,2.085980000003474,0.12855199998011813,,,,126,0,125,1986.2286466000078,,,,,,,,,,,,,,,,,,,,,,,1986.2133192000038,1986.2286466000078,1986.7290131000045,1986.7131541999988,,,,,,,,,,,,,,,,,,,,,,1986.725564100023,1986.7290131000045,1986.7290131000045,1986.7290131000045,1989.728518900025,1989.728518900025,1989.728518900025,1989.7129926000198,j,1989.7130582000245,,,1989.7130720000132,None,,,2.085980000003474,0.12855199998011813,,,,,,,,,,00043,001,2026-01-23_21h19.14.514,MST_task,2024.2.0,59.86324839593554,2026-01-23 21h19.21.508556 +0530,
,Objects\159a.jpg,126,0,127,,,,,f,None,,,1.6096079999988433,0.11202749999938533,,,,127,0,126,1989.728518900025,,,,,,,,,,,,,,,,,,,,,,,1989.713175300014,1989.728518900025,1990.2293436000182,1990.213046000019,,,,,,,,,,,,,,,,,,,,,,1990.2173369000084,1990.2293436000182,1990.2293436000182,1990.2293436000182,1993.2287200000137,1993.2287200000137,1993.2287200000137,1993.2133217000228,f,1993.213397000014,,,1993.2134146000026,None,,,1.6096079999988433,0.11202749999938533,,,,,,,,,,00043,001,2026-01-23_21h19.14.514,MST_task,2024.2.0,59.86324839593554,2026-01-23 21h19.21.508556 +0530,
,Objects\088a.jpg,127,0,128,,,,,f,None,,,2.382539900019765,0.12803039999562316,,,,128,0,127,1993.2287200000137,,,,,,,,,,,,,,,,,,,,,,,1993.2135304000112,1993.2287200000137,1993.7291090000072,1993.7130388000223,,,,,,,,,,,,,,,,,,,,,,1993.7172992000123,1993.7291090000072,1993.7291090000072,1993.7291090000072,1996.7288220000046,1996.7288220000046,1996.7288220000046,1996.7129678000056,f,1996.7130338000134,,,1996.7130478000036,None,,,2.382539900019765,0.12803039999562316,,,,,,,,,,00043,001,2026-01-23_21h19.14.514,MST_task,2024.2.0,59.86324839593554,2026-01-23 21h19.21.508556 +0530,
,Objects\111a.jpg,128,0,129,,,,,f,None,,,1.2835475000028964,0.05497370002558455,,,,129,0,128,1996.7288220000046,,,,,,,,,,,,,,,,,,,,,,,1996.7131578000262,1996.7288220000046,1997.2290868000127,1997.212779100024,,,,,,,,,,,,,,,,,,,,,,1997.2164657000103,1997.2290868000127,1997.2290868000127,1997.2290868000127,2000.2290483000106,2000.2290483000106,2000.2290483000106,2000.2133470000117,f,2000.2134213000245,,,2000.213434300007,None,,,1.2835475000028964,0.05497370002558455,,,,,,,,,,00043,001,2026-01-23_21h19.14.514,MST_task,2024.2.0,59.86324839593554,2026-01-23 21h19.21.508556 +0530,
,Objects\179a.jpg,129,0,130,,,,,f,None,,,1.5982177999976557,0.1603682000131812,,,,130,0,129,2000.2290483000106,,,,,,,,,,,,,,,,,,,,,,,2000.2135489000066,2000.2290483000106,2000.7292926000082,2000.7126018000126,,,,,,,,,,,,,,,,,,,,,,2000.7164122000104,2000.7292926000082,2000.7292926000082,2000.7292926000082,2003.7292763000005,2003.7292763000005,2003.7292763000005,2003.713034800021,f,2003.7131130000053,,,2003.7131279000023,None,,,1.5982177999976557,0.1603682000131812,,,,,,,,,,00043,001,2026-01-23_21h19.14.514,MST_task,2024.2.0,59.86324839593554,2026-01-23 21h19.21.508556 +0530,
,Objects\081a.jpg,130,0,131,,,,,j,None,,,1.0581222000182606,0.13698449998628348,,,,131,0,130,2003.7292763000005,,,,,,,,,,,,,,,,,,,,,,,2003.7132497999992,2003.7292763000005,2004.2294428000168,2004.2125079000252,,,,,,,,,,,,,,,,,,,,,,2004.2246239000233,2004.2294428000168,2004.2294428000168,2004.2294428000168,2007.2287785000226,2007.2287785000226,2007.2287785000226,2007.2132960000017,j,2007.2133632000186,,,2007.2133770000073,None,,,1.0581222000182606,0.13698449998628348,,,,,,,,,,00043,001,2026-01-23_21h19.14.514,MST_task,2024.2.0,59.86324839593554,2026-01-23 21h19.21.508556 +0530,
,Objects\138a.jpg,131,0,132,,,,,j,None,,,0.9583140000177082,0.11261349997948855,,,,132,0,131,2007.2287785000226,,,,,,,,,,,,,,,,,,,,,,,2007.213453400007,2007.2287785000226,2007.7291110000224,2007.712903800013,,,,,,,,,,,,,,,,,,,,,,2007.7168463999988,2007.7291110000224,2007.7291110000224,2007.7291110000224,2010.7293248000205,2010.7293248000205,2010.7293248000205,2010.7133227000013,j,2010.713398300024,,,2010.7134129000187,None,,,0.9583140000177082,0.11261349997948855,,,,,,,,,,00043,001,2026-01-23_21h19.14.514,MST_task,2024.2.0,59.86324839593554,2026-01-23 21h19.21.508556 +0530,
,Objects\169a.jpg,132,0,133,,,,,j,None,,,1.425928099983139,0.13615680002840236,,,,133,0,132,2010.7293248000205,,,,,,,,,,,,,,,,,,,,,,,2010.7135179000034,2010.7293248000205,2011.2297215000144,2011.2130954000168,,,,,,,,,,,,,,,,,,,,,,2011.2167020000052,2011.2297215000144,2011.2297215000144,2011.2297215000144,2014.2296650000208,2014.2296650000208,2014.2296650000208,2014.213201400009,j,2014.2132685000252,,,2014.2132824000146,None,,,1.425928099983139,0.13615680002840236,,,,,,,,,,00043,001,2026-01-23_21h19.14.514,MST_task,2024.2.0,59.86324839593554,2026-01-23 21h19.21.508556 +0530,
,Scenes\082a.jpg,133,0,134,,,,,f,None,,,0.7891041999973822,0.18368509999709204,,,,134,0,133,2014.2296650000208,,,,,,,,,,,,,,,,,,,,,,,2014.2133897000167,2014.2296650000208,2014.730152300006,2014.7125545000017,,,,,,,,,,,,,,,,,,,,,,2014.7273055000114,2014.730152300006,2014.730152300006,2014.730152300006,2017.7288190000108,2017.7288190000108,2017.7288190000108,2017.7133322000154,f,2017.7134033000038,,,2017.7134176000254,None,,,0.7891041999973822,0.18368509999709204,,,,,,,,,,00043,001,2026-01-23_21h19.14.514,MST_task,2024.2.0,59.86324839593554,2026-01-23 21h19.21.508556 +0530,
,Scenes\040a.jpg,134,0,135,,,,,f,None,,,0.7944767000153661,0.1840059999958612,,,,135,0,134,2017.7288190000108,,,,,,,,,,,,,,,,,,,,,,,2017.7135246000253,2017.7288190000108,2018.2287229000067,2018.2129294000042,,,,,,,,,,,,,,,,,,,,,,2018.223731200007,2018.2287229000067,2018.2287229000067,2018.2287229000067,2021.2285841000266,2021.2285841000266,2021.2285841000266,2021.2130405000062,f,2021.2131212000095,,,2021.213137600018,None,,,0.7944767000153661,0.1840059999958612,,,,,,,,,,00043,001,2026-01-23_21h19.14.514,MST_task,2024.2.0,59.86324839593554,2026-01-23 21h19.21.508556 +0530,
,Scenes\120a.jpg,135,0,136,,,,,j,None,,,0.7337129999941681,0.13601159999961965,,,,136,0,135,2021.2285841000266,,,,,,,,,,,,,,,,,,,,,,,2021.2132541000028,2021.2285841000266,2021.7293417000037,2021.712517900014,,,,,,,,,,,,,,,,,,,,,,2021.7241284000047,2021.7293417000037,2021.7293417000037,2021.7293417000037,2024.7289400000009,2024.7289400000009,2024.7289400000009,2024.713121800014,j,2024.7131872000173,,,2024.7131999000267,None,,,0.7337129999941681,0.13601159999961965,,,,,,,,,,00043,001,2026-01-23_21h19.14.514,MST_task,2024.2.0,59.86324839593554,2026-01-23 21h19.21.508556 +0530,
,Scenes\170a.jpg,136,0,137,,,,,j,None,,,2.1860530999838375,0.12017949999426492,,,,137,0,136,2024.7289400000009,,,,,,,,,,,,,,,,,,,,,,,2024.713302100019,2024.7289400000009,2025.2297117999988,2025.2126633000153,,,,,,,,,,,,,,,,,,,,,,2025.2262743000174,2025.2297117999988,2025.2297117999988,2025.2297117999988,2028.2288847000164,2028.2288847000164,2028.2288847000164,2028.2129770000174,j,2028.21305760002,,,2028.2130727000185,None,,,2.1860530999838375,0.12017949999426492,,,,,,,,,,00043,001,2026-01-23_21h19.14.514,MST_task,2024.2.0,59.86324839593554,2026-01-23 21h19.21.508556 +0530,
,Scenes\079a.jpg,137,0,138,,,,,j,None,,,0.6937565999978688,0.10402170001179911,,,,138,0,137,2028.2288847000164,,,,,,,,,,,,,,,,,,,,,,,2028.2131568000186,2028.2288847000164,2028.7299957000068,2028.7129007000185,,,,,,,,,,,,,,,,,,,,,,2028.7205615999992,2028.7299957000068,2028.7299957000068,2028.7299957000068,2031.7287104999996,2031.7287104999996,2031.7287104999996,2031.7131146000174,j,2031.7131830000144,,,2031.713197200006,None,,,0.6937565999978688,0.10402170001179911,,,,,,,,,,00043,001,2026-01-23_21h19.14.514,MST_task,2024.2.0,59.86324839593554,2026-01-23 21h19.21.508556 +0530,
,Scenes\104a.jpg,138,0,139,,,,,j,None,,,1.5780037000076845,0.17601460000150837,,,,139,0,138,2031.7287104999996,,,,,,,,,,,,,,,,,,,,,,,2031.713302500022,2031.7287104999996,2032.2296979000093,2032.212838300009,,,,,,,,,,,,,,,,,,,,,,2032.224653400015,2032.2296979000093,2032.2296979000093,2032.2296979000093,2035.2287591000204,2035.2287591000204,2035.2287591000204,2035.2129352000193,j,2035.212998700008,,,2035.213011600019,None,,,1.5780037000076845,0.17601460000150837,,,,,,,,,,00043,001,2026-01-23_21h19.14.514,MST_task,2024.2.0,59.86324839593554,2026-01-23 21h19.21.508556 +0530,
,Scenes\003a.jpg,139,0,140,,,,,f,None,,,1.9425512999878265,0.20018240000354126,,,,140,0,139,2035.2287591000204,,,,,,,,,,,,,,,,,,,,,,,2035.2130880000186,2035.2287591000204,2035.7291765000264,2035.7131874000188,,,,,,,,,,,,,,,,,,,,,,2035.7253739000007,2035.7291765000264,2035.7291765000264,2035.7291765000264,2038.7286490999977,2038.7286490999977,2038.7286490999977,2038.7129690000147,f,2038.7130430000252,,,2038.7130564000108,None,,,1.9425512999878265,0.20018240000354126,,,,,,,,,,00043,001,2026-01-23_21h19.14.514,MST_task,2024.2.0,59.86324839593554,2026-01-23 21h19.21.508556 +0530,
,Objects\145a.jpg,140,0,141,,,,,f,None,,,2.922866399982013,None,,,,141,0,140,2038.7286490999977,,,,,,,,,,,,,,,,,,,,,,,2038.7131574000232,2038.7286490999977,2039.229370200017,2039.212376200012,,,,,,,,,,,,,,,,,,,,,,2039.2164983000257,2039.229370200017,2039.229370200017,2039.229370200017,2042.2290634000092,2042.2290634000092,2042.2290634000092,2042.2128946000012,f,2042.2129880000139,,,2042.2130044000223,None,,,2.922866399982013,None,,,,,,,,,,00043,001,2026-01-23_21h19.14.514,MST_task,2024.2.0,59.86324839593554,2026-01-23 21h19.21.508556 +0530,
,Objects\060a.jpg,141,0,142,,,,,f,None,,,1.7179260999837425,0.14367580000543967,,,,142,0,141,2042.2290634000092,,,,,,,,,,,,,,,,,,,,,,,2042.213113500009,2042.2290634000092,2042.729388000007,2042.7127290000208,,,,,,,,,,,,,,,,,,,,,,2042.716452200024,2042.729388000007,2042.729388000007,2042.729388000007,2045.7287542000122,2045.7287542000122,2045.7287542000122,2045.7131437000062,f,2045.7132063000172,,,2045.7132185000228,None,,,1.7179260999837425,0.14367580000543967,,,,,,,,,,00043,001,2026-01-23_21h19.14.514,MST_task,2024.2.0,59.86324839593554,2026-01-23 21h19.21.508556 +0530,
,Objects\065a.jpg,142,0,143,,,,,f,None,,,2.2908219000091776,0.1600458000029903,,,,143,0,142,2045.7287542000122,,,,,,,,,,,,,,,,,,,,,,,2045.7133205000137,2045.7287542000122,2046.2287867999985,2046.213032700005,,,,,,,,,,,,,,,,,,,,,,2046.2165897000232,2046.2287867999985,2046.2287867999985,2046.2287867999985,2049.229535899998,2049.229535899998,2049.229535899998,2049.212995800015,f,2049.213064600015,,,2049.2130784000037,None,,,2.2908219000091776,0.1600458000029903,,,,,,,,,,00043,001,2026-01-23_21h19.14.514,MST_task,2024.2.0,59.86324839593554,2026-01-23 21h19.21.508556 +0530,
,Objects\037a.jpg,143,0,144,,,,,j,None,,,2.886702099989634,None,,,,144,0,143,2049.229535899998,,,,,,,,,,,,,,,,,,,,,,,2049.213180300023,2049.229535899998,2049.7291681000206,2049.712458300026,,,,,,,,,,,,,,,,,,,,,,2049.7167102000094,2049.7291681000206,2049.7291681000206,2049.7291681000206,2052.7289216000063,2052.7289216000063,2052.7289216000063,2052.7137641000154,j,2052.713831000001,,,2052.7138452000218,None,,,2.886702099989634,None,,,,,,,,,,00043,001,2026-01-23_21h19.14.514,MST_task,2024.2.0,59.86324839593554,2026-01-23 21h19.21.508556 +0530,
,Objects\086a.jpg,144,0,145,,,,,j,None,,,1.5778843000007328,0.08786449997569434,,,,145,0,144,2052.7289216000063,,,,,,,,,,,,,,,,,,,,,,,2052.7139489000256,2052.7289216000063,2053.229039800004,2053.2125239000015,,,,,,,,,,,,,,,,,,,,,,2053.216283000016,2053.229039800004,2053.229039800004,2053.229039800004,2056.228712500015,2056.228712500015,2056.228712500015,2056.212943600025,j,2056.213018700015,,,2056.213033100008,None,,,1.5778843000007328,0.08786449997569434,,,,,,,,,,00043,001,2026-01-23_21h19.14.514,MST_task,2024.2.0,59.86324839593554,2026-01-23 21h19.21.508556 +0530,
,Objects\167a.jpg,145,0,146,,,,,f,None,,,1.9985663999977987,0.14396250000572763,,,,146,0,145,2056.228712500015,,,,,,,,,,,,,,,,,,,,,,,2056.2131452000176,2056.228712500015,2056.729220900015,2056.712330500013,,,,,,,,,,,,,,,,,,,,,,2056.716352600022,2056.729220900015,2056.729220900015,2056.729220900015,2059.729254900012,2059.729254900012,2059.729254900012,2059.713299700001,f,2059.7133632000186,,,2059.7133778000134,None,,,1.9985663999977987,0.14396250000572763,,,,,,,,,,00043,001,2026-01-23_21h19.14.514,MST_task,2024.2.0,59.86324839593554,2026-01-23 21h19.21.508556 +0530,
,Objects\112a.jpg,146,0,147,,,,,f,None,,,1.066002000006847,0.12798650001059286,,,,147,0,146,2059.729254900012,,,,,,,,,,,,,,,,,,,,,,,2059.7134564000007,2059.729254900012,2060.229193200008,2060.2127839000023,,,,,,,,,,,,,,,,,,,,,,2060.2166315000213,2060.229193200008,2060.229193200008,2060.229193200008,2063.228527900006,2063.228527900006,2063.228527900006,2063.212908800022,f,2063.2129774000205,,,2063.212991600012,None,,,1.066002000006847,0.12798650001059286,,,,,,,,,,00043,001,2026-01-23_21h19.14.514,MST_task,2024.2.0,59.86324839593554,2026-01-23 21h19.21.508556 +0530,
,Scenes\018a.jpg,147,0,148,,,,,j,None,,,2.613935900008073,0.09540849999757484,,,,148,0,147,2063.228527900006,,,,,,,,,,,,,,,,,,,,,,,2063.213077100023,2063.228527900006,2063.7295382000157,2063.712892200012,,,,,,,,,,,,,,,,,,,,,,2063.7207567000005,2063.7295382000157,2063.7295382000157,2063.7295382000157,2066.72865070001,2066.72865070001,2066.72865070001,2066.712959800003,j,2066.713024000026,,,2066.7130370000086,None,,,2.613935900008073,0.09540849999757484,,,,,,,,,,00043,001,2026-01-23_21h19.14.514,MST_task,2024.2.0,59.86324839593554,2026-01-23 21h19.21.508556 +0530,
,Scenes\107a.jpg,148,0,149,,,,,j,None,,,1.0580308999924455,0.07201200001873076,,,,149,0,148,2066.72865070001,,,,,,,,,,,,,,,,,,,,,,,2066.713112600002,2066.72865070001,2067.229444800003,2067.2123800000118,,,,,,,,,,,,,,,,,,,,,,2067.2228017000016,2067.229444800003,2067.229444800003,2067.229444800003,2070.2286624000117,2070.2286624000117,2070.2286624000117,2070.213128500007,j,2070.213199300022,,,2070.2132137000153,None,,,1.0580308999924455,0.07201200001873076,,,,,,,,,,00043,001,2026-01-23_21h19.14.514,MST_task,2024.2.0,59.86324839593554,2026-01-23 21h19.21.508556 +0530,
,Scenes\165a.jpg,149,0,150,,,,,j,None,,,1.7498583999986295,0.06398450001142919,,,,150,0,149,2070.2286624000117,,,,,,,,,,,,,,,,,,,,,,,2070.213301700016,2070.2286624000117,2070.7295101000054,2070.7127916000027,,,,,,,,,,,,,,,,,,,,,,2070.7245505000174,2070.7295101000054,2070.7295101000054,2070.7295101000054,2073.728646100004,2073.728646100004,2073.728646100004,2073.7131278000015,j,2073.7131988000183,,,2073.713213400013,None,,,1.7498583999986295,0.06398450001142919,,,,,,,,,,00043,001,2026-01-23_21h19.14.514,MST_task,2024.2.0,59.86324839593554,2026-01-23 21h19.21.508556 +0530,
,Scenes\149a.jpg,150,0,151,,,,,f,None,,,2.217997900006594,0.1198271999892313,,,,151,0,150,2073.728646100004,,,,,,,,,,,,,,,,,,,,,,,2073.7132948000217,2073.728646100004,2074.229396400013,2074.212602100015,,,,,,,,,,,,,,,,,,,,,,2074.223775600025,2074.229396400013,2074.229396400013,2074.229396400013,2077.2285622000054,2077.2285622000054,2077.2285622000054,2077.2134686000063,f,2077.2135374000063,,,2077.2135526000056,None,,,2.217997900006594,0.1198271999892313,,,,,,,,,,00043,001,2026-01-23_21h19.14.514,MST_task,2024.2.0,59.86324839593554,2026-01-23 21h19.21.508556 +0530,
,Scenes\116a.jpg,151,0,152,,,,,j,None,,,1.6102948999905493,0.07986329999403097,,,,152,0,151,2077.2285622000054,,,,,,,,,,,,,,,,,,,,,,,2077.213640400005,2077.2285622000054,2077.733417100011,2077.7124523000093,,,,,,,,,,,,,,,,,,,,,,2077.7305844000075,2077.733417100011,2077.733417100011,2077.733417100011,,,,2080.72905720002,j,2080.729131,,,2080.7291465000017,None,,,1.6102948999905493,0.07986329999403097,,,,,,,,,,00043,001,2026-01-23_21h19.14.514,MST_task,2024.2.0,59.86324839593554,2026-01-23 21h19.21.508556 +0530,
,Scenes\139a.jpg,152,0,153,,,,,j,None,,,1.3919454999850132,0.08703960001002997,,,,153,0,152,2080.7454865000036,,,,,,,,,,,,,,,,,,,,,,,2080.729293500015,2080.7454865000036,2081.248084700026,2081.2292273000057,,,,,,,,,,,,,,,,,,,,,,2081.244825200003,2081.248084700026,2081.248084700026,2081.248084700026,,,,2084.2295259000093,j,2084.2295901000034,,,2084.2296042000235,None,,,1.3919454999850132,0.08703960001002997,,,,,,,,,,00043,001,2026-01-23_21h19.14.514,MST_task,2024.2.0,59.86324839593554,2026-01-23 21h19.21.508556 +0530,
,Scenes\015a.jpg,153,0,154,,,,,None,j,None,None,,,,,,154,0,153,2084.2461921000213,,,,,,,,,,,,,,,,,,,,,,,2084.2297223000205,2084.2461921000213,2084.7461742000014,2084.7291827000154,,,,,,,,,,,,,,,,,,,,,,2084.743510600005,2084.7461742000014,2084.7461742000014,2084.7461742000014,2087.745930300007,2087.745930300007,2087.745930300007,2087.729792600003,None,2087.729858900013,2087.745930300007,2087.745930300007,2087.8464091000205,j,None,None,,,,,,,,,,,,00043,001,2026-01-23_21h19.14.514,MST_task,2024.2.0,59.86324839593554,2026-01-23 21h19.21.508556 +0530,
,Objects\080a.jpg,154,0,155,,,,,j,None,,,1.652071899996372,0.11215559998527169,,,,155,0,154,2087.8622679000255,,,,,,,,,,,,,,,,,,,,,,,2087.8465640000068,2087.8622679000255,2088.3627432000067,2088.3459684000118,,,,,,,,,,,,,,,,,,,,,,2088.3500446000253,2088.3627432000067,2088.3627432000067,2088.3627432000067,2091.3623607000045,2091.3623607000045,2091.3623607000045,2091.3462379999983,j,2091.346306500025,,,2091.3463212000206,None,,,1.652071899996372,0.11215559998527169,,,,,,,,,,00043,001,2026-01-23_21h19.14.514,MST_task,2024.2.0,59.86324839593554,2026-01-23 21h19.21.508556 +0530,
,Objects\118a.jpg,155,0,156,,,,,j,None,,,1.6332748999993782,0.11198710001190193,,,,156,0,155,2091.3623607000045,,,,,,,,,,,,,,,,,,,,,,,2091.346414600004,2091.3623607000045,2091.862478700001,2091.8462005000038,,,,,,,,,,,,,,,,,,,,,,2091.8504432000045,2091.862478700001,2091.862478700001,2091.862478700001,2094.8627243000083,2094.8627243000083,2094.8627243000083,2094.8464600000007,j,2094.846526600013,,,2094.8465396000247,None,,,1.6332748999993782,0.11198710001190193,,,,,,,,,,00043,001,2026-01-23_21h19.14.514,MST_task,2024.2.0,59.86324839593554,2026-01-23 21h19.21.508556 +0530,
,Objects\079a.jpg,156,0,157,,,,,f,None,,,0.8206987000012305,0.1440602999937255,,,,157,0,156,2094.8627243000083,,,,,,,,,,,,,,,,,,,,,,,2094.8466241999995,2094.8627243000083,2095.362354700017,2095.346399800008,,,,,,,,,,,,,,,,,,,,,,2095.350501000008,2095.362354700017,2095.362354700017,2095.362354700017,2098.362147100008,2098.362147100008,2098.362147100008,2098.346245200024,f,2098.346314800001,,,2098.3463279000134,None,,,0.8206987000012305,0.1440602999937255,,,,,,,,,,00043,001,2026-01-23_21h19.14.514,MST_task,2024.2.0,59.86324839593554,2026-01-23 21h19.21.508556 +0530,
,Objects\003a.jpg,157,0,158,,,,,j,None,,,0.8489906000031624,0.19160349998855963,,,,158,0,157,2098.362147100008,,,,,,,,,,,,,,,,,,,,,,,2098.346442400012,2098.362147100008,2098.8622761000006,2098.845834900014,,,,,,,,,,,,,,,,,,,,,,2098.8495330000005,2098.8622761000006,2098.8622761000006,2098.8622761000006,2101.8623197000124,2101.8623197000124,2101.8623197000124,2101.846408900019,j,2101.84651990002,,,2101.846534100012,None,,,0.8489906000031624,0.19160349998855963,,,,,,,,,,00043,001,2026-01-23_21h19.14.514,MST_task,2024.2.0,59.86324839593554,2026-01-23 21h19.21.508556 +0530,
,Objects\043a.jpg,158,0,159,,,,,f,None,,,2.613009199994849,0.2089820000110194,,,,159,0,158,2101.8623197000124,,,,,,,,,,,,,,,,,,,,,,,2101.846618600015,2101.8623197000124,2102.362312000012,2102.3457808000094,,,,,,,,,,,,,,,,,,,,,,2102.357531100017,2102.362312000012,2102.362312000012,2102.362312000012,2105.3622447000234,2105.3622447000234,2105.3622447000234,2105.3462265999988,f,2105.346300200006,,,2105.3463139000232,None,,,2.613009199994849,0.2089820000110194,,,,,,,,,,00043,001,2026-01-23_21h19.14.514,MST_task,2024.2.0,59.86324839593554,2026-01-23 21h19.21.508556 +0530,
,Objects\058a.jpg,159,0,160,,,,,f,None,,,0.7767202999966685,0.19201470000552945,,,,160,0,159,2105.3622447000234,,,,,,,,,,,,,,,,,,,,,,,2105.3463950000005,2105.3622447000234,2105.8624734000186,2105.8464817000204,,,,,,,,,,,,,,,,,,,,,,2105.8581367000006,2105.8624734000186,2105.8624734000186,2105.8624734000186,2108.862154100003,2108.862154100003,2108.862154100003,2108.8463203000138,f,2108.84638480001,,,2108.846399000002,None,,,0.7767202999966685,0.19201470000552945,,,,,,,,,,00043,001,2026-01-23_21h19.14.514,MST_task,2024.2.0,59.86324839593554,2026-01-23 21h19.21.508556 +0530,
,Objects\090a.jpg,160,0,161,,,,,j,None,,,1.9569362999754958,0.22386520000873134,,,,161,0,160,2108.862154100003,,,,,,,,,,,,,,,,,,,,,,,2108.846476900013,2108.862154100003,2109.3621961000026,2109.3456337000243,,,,,,,,,,,,,,,,,,,,,,2109.349477300013,2109.3621961000026,2109.3621961000026,2109.3621961000026,2112.362705000007,2112.362705000007,2112.362705000007,2112.347128400026,j,2112.3472021000052,,,2112.3472174000053,None,,,1.9569362999754958,0.22386520000873134,,,,,,,,,,00043,001,2026-01-23_21h19.14.514,MST_task,2024.2.0,59.86324839593554,2026-01-23 21h19.21.508556 +0530,
