Sl_no,image_path,thisN,thisTrialN,thisRepN,key_resp_5.keys,key_resp_5.rt,key_resp_5.duration,key_resp_7.keys,key_resp_7.rt,key_resp_7.duration,key_resp_9.keys,key_resp_9.rt,key_resp_9.duration,key_resp_8.keys,key_resp_8.rt,key_resp_8.duration,practice.thisRepN,practice.thisTrialN,practice.thisN,trials.thisRepN,trials.thisTrialN,trials.thisN,thisRow.t,notes,welcome_page.started,text.started,key_resp.started,welcome_page.stopped,key_resp.keys,key_resp.rt,key_resp.duration,instructions.started,ins.started,key_resp_2.started,instructions.stopped,key_resp_2.keys,key_resp_2.rt,key_resp_2.duration,objects_only_instruction.started,text_3.started,key_resp_3.started,objects_only_instruction.stopped,key_resp_3.keys,key_resp_3.rt,key_resp_3.duration,ISI.started,text_4.started,ISI.stopped,practice_block.started,image.started,text_5.started,key_resp_5.started,practice_block.stopped,practice.key_resp_5.keys,practice.key_resp_5.rt,practice.key_resp_5.duration,indoor_outdoor.started,indoor_outdoor.stopped,practice.key_resp_7.keys,text_4.stopped,image.stopped,text_5.stopped,key_resp_5.stopped,text_7.started,key_resp_7.started,practice.key_resp_7.rt,practice.key_resp_7.duration,practice_to_main.started,text_2.started,key_resp_4.started,practice_to_main.stopped,key_resp_4.keys,key_resp_4.rt,key_resp_4.duration,objects.started,image_2.started,text_9.started,key_resp_9.started,objects.stopped,trials.key_resp_9.keys,trials.key_resp_9.rt,trials.key_resp_9.duration,encoding_task.started,encoding_task.stopped,trials.key_resp_8.keys,image_2.stopped,text_9.stopped,key_resp_9.stopped,text_8.started,key_resp_8.started,trials.key_resp_8.rt,trials.key_resp_8.duration,end_experiment.started,text_6.started,key_resp_6.started,end_experiment.stopped,key_resp_6.keys,key_resp_6.rt,key_resp_6.duration,list_of_stimuli,encoding_task_accuracy,participant,session,date,expName,psychopyVersion,frameRate,expStart,
,,,,,,,,,,,,,,,,,,,,,,,,,0.0012585999793373048,0.0032350000110454857,0.0032350000110454857,6.280986400030088,space,6.223239500017371,None,,,,,,,,,,,,,,,,,,,,,,,,,,,,,,,,,,,,,,,,,,,,,,,,,,,,,,,,,,,,,,,,,,,,,,,00049,001,2026-01-25_11h05.12.347,MST_task,2024.2.0,60.0809891675925,2026-01-25 11h05.32.799168 +0530,
,,,,,,,,,,,,,,,,,,,,,,,,,,,,,,,,6.28102629998466,6.29311939998297,6.29311939998297,30.78860839997651,space,24.49324979999801,None,,,,,,,,,,,,,,,,,,,,,,,,,,,,,,,,,,,,,,,,,,,,,,,,,,,,,,,,,,,,,,,,00049,001,2026-01-25_11h05.12.347,MST_task,2024.2.0,60.0809891675925,2026-01-25 11h05.32.799168 +0530,
,,,,,,,,,,,,,,,,,,,,,,,,,,,,,,,,,,,,,,,30.788643800013233,30.804657300002873,30.804657300002873,72.97226359997876,space,42.16636580001796,None,,,,,,,,,,,,,,,,,,,,,,,,,,,,,,,,,,,,,,,,,,,,,,,,,,,,,,,,,00049,001,2026-01-25_11h05.12.347,MST_task,2024.2.0,60.0809891675925,2026-01-25 11h05.32.799168 +0530,
7,practice_images/166a.jpg,0,0,1,f,1.4090295999776572,0.11210740002570674,None,,,,,,,,,1,0,0,,,,72.99500509997597,,,,,,,,,,,,,,,,,,,,,,,72.99268259998644,72.99500509997597,73.48788380000042,73.50173050002195,73.51390100002754,73.51390100002754,73.51390100002754,76.48799450002844,f,1.4090295999776572,0.11210740002570674,76.48980209999718,76.48982160002925,None,,,,,,,,,,,,,,,,,,,,,,,,,,,,,,,,,,,,,,,,,,,00049,001,2026-01-25_11h05.12.347,MST_task,2024.2.0,60.0809891675925,2026-01-25 11h05.32.799168 +0530,
4,practice_images/002b.jpg,1,1,1,f,1.781963099958375,0.15148240001872182,None,,,,,,,,,1,1,1,,,,76.50458660000004,,,,,,,,,,,,,,,,,,,,,,,76.48989299999084,76.50458660000004,76.98800740001025,76.99677219998557,77.00477729999693,77.00477729999693,77.00477729999693,79.98839030001545,f,1.781963099958375,0.15148240001872182,79.98844300000928,79.98845659999643,None,77.00477729999693,80.00455250003142,80.00455250003142,80.00455250003142,,,,,,,,,,,,,,,,,,,,,,,,,,,,,,,,,,,,,,,00049,001,2026-01-25_11h05.12.347,MST_task,2024.2.0,60.0809891675925,2026-01-25 11h05.32.799168 +0530,
2,practice_images/031a.jpg,2,2,1,f,1.850648400024511,0.21490599995013326,None,,,,,,,,,1,2,2,,,,80.00455250003142,,,,,,,,,,,,,,,,,,,,,,,79.98852120002266,80.00455250003142,80.4880065000034,80.49610089999624,80.50471000000834,80.50471000000834,80.50471000000834,83.48814079997828,f,1.850648400024511,0.21490599995013326,83.48818990000291,83.4882017999771,None,80.50471000000834,83.50456720002694,83.50456720002694,83.50456720002694,,,,,,,,,,,,,,,,,,,,,,,,,,,,,,,,,,,,,,,00049,001,2026-01-25_11h05.12.347,MST_task,2024.2.0,60.0809891675925,2026-01-25 11h05.32.799168 +0530,
3,practice_images/037a.jpg,3,3,1,None,,,f,1.8926380000193603,None,,,,,,,1,3,3,,,,83.50456720002694,,,,,,,,,,,,,,,,,,,,,,,83.48826509999344,83.50456720002694,83.98798969999189,83.99616889999015,84.00476280000294,84.00476280000294,84.00476280000294,86.98816890001763,None,,,86.98821600002702,88.90507099998649,f,84.00476280000294,87.00650090002455,87.00650090002455,87.00650090002455,87.00650090002455,87.00650090002455,1.8926380000193603,None,,,,,,,,,,,,,,,,,,,,,,,,,,,,,,,,,,,00049,001,2026-01-25_11h05.12.347,MST_task,2024.2.0,60.0809891675925,2026-01-25 11h05.32.799168 +0530,
1,practice_images/013a.jpg,4,4,1,j,1.7659627000102773,0.16754429996944964,None,,,,,,,,,1,4,4,,,,88.92119750002166,,,,,,,,,,,,,,,,,,,,,,,88.90515469998354,88.92119750002166,89.40474070003256,89.41315169999143,89.42143280000892,89.42143280000892,89.42143280000892,92.40502930001821,j,1.7659627000102773,0.16754429996944964,92.405081600009,92.40509549999842,None,89.42143280000892,92.42122309998376,92.42122309998376,92.42122309998376,,,,,,,,,,,,,,,,,,,,,,,,,,,,,,,,,,,,,,,00049,001,2026-01-25_11h05.12.347,MST_task,2024.2.0,60.0809891675925,2026-01-25 11h05.32.799168 +0530,
8,practice_images/178a.jpg,5,5,1,j,1.14495360001456,0.14399099996080622,None,,,,,,,,,1,5,5,,,,92.42122309998376,,,,,,,,,,,,,,,,,,,,,,,92.40516650001518,92.42122309998376,92.90482140000677,92.91295869997703,92.92142440000316,92.92142440000316,92.92142440000316,95.9049630999798,j,1.14495360001456,0.14399099996080622,95.90501360001508,95.90502629999537,None,92.92142440000316,95.92122359998757,95.92122359998757,95.92122359998757,,,,,,,,,,,,,,,,,,,,,,,,,,,,,,,,,,,,,,,00049,001,2026-01-25_11h05.12.347,MST_task,2024.2.0,60.0809891675925,2026-01-25 11h05.32.799168 +0530,
6,practice_images/158a.jpg,6,6,1,j,1.5575364000396803,0.13596280000638217,None,,,,,,,,,1,6,6,,,,95.92122359998757,,,,,,,,,,,,,,,,,,,,,,,95.90508840000257,95.92122359998757,96.40484269999433,96.41315739997663,96.42142949998379,96.42142949998379,96.42142949998379,99.40495529997861,j,1.5575364000396803,0.13596280000638217,99.40500510000857,99.40501709998352,None,96.42142949998379,99.42126740003005,99.42126740003005,99.42126740003005,,,,,,,,,,,,,,,,,,,,,,,,,,,,,,,,,,,,,,,00049,001,2026-01-25_11h05.12.347,MST_task,2024.2.0,60.0809891675925,2026-01-25 11h05.32.799168 +0530,
5,practice_images/139a.jpg,7,7,1,j,2.4819482000311837,0.11161039996659383,None,,,,,,,,,1,7,7,,,,99.42126740003005,,,,,,,,,,,,,,,,,,,,,,,99.40508009999758,99.42126740003005,99.90486419998342,99.91341610002564,99.92137009999715,99.92137009999715,99.92137009999715,102.9049375000177,j,2.4819482000311837,0.11161039996659383,102.90498539997498,102.90500259998953,None,99.92137009999715,102.9211674000253,102.9211674000253,102.9211674000253,,,,,,,,,,,,,,,,,,,,,,,,,,,,,,,,,,,,,,,00049,001,2026-01-25_11h05.12.347,MST_task,2024.2.0,60.0809891675925,2026-01-25 11h05.32.799168 +0530,
9,practice_images/180a.jpg,8,8,1,f,1.0295361999887973,0.13589330000104383,None,,,,,,,,,1,8,8,,,,102.9211674000253,,,,,,,,,,,,,,,,,,,,,,,102.90506600000663,102.9211674000253,103.40483559999848,103.41295480000554,103.42144669999834,103.42144669999834,103.42144669999834,106.40498079999816,f,1.0295361999887973,0.13589330000104383,106.4050309000304,106.40504350000992,None,103.42144669999834,106.42134489997989,106.42134489997989,106.42134489997989,,,,,,,,,,,,,,,,,,,,,,,,,,,,,,,,,,,,,,,00049,001,2026-01-25_11h05.12.347,MST_task,2024.2.0,60.0809891675925,2026-01-25 11h05.32.799168 +0530,
10,practice_images/182a.jpg,9,9,1,f,1.6976187999825925,0.1600979000213556,None,,,,,,,,,1,9,9,,,,106.42134489997989,,,,,,,,,,,,,,,,,,,,,,,106.40510500001255,106.42134489997989,106.90488139999798,106.91281419998268,106.92152500001248,106.92152500001248,106.92152500001248,109.90510370000266,f,1.6976187999825925,0.1600979000213556,109.90516449999996,109.9051780999871,None,106.92152500001248,109.92142440000316,109.92142440000316,109.92142440000316,,,,,,,,,,,,,,,,,,,,,,,,,,,,,,,,,,,,,,,00049,001,2026-01-25_11h05.12.347,MST_task,2024.2.0,60.0809891675925,2026-01-25 11h05.32.799168 +0530,
,,,,,,,,,,,,,,,,,,,,,,,,,,,,,,,,,,,,,,,,,,,,,,,,,,,,,,,,,,,,,,,,,,,,109.90522190002957,109.92142440000316,109.92142440000316,120.60504579998087,space,10.672924700018484,None,,,,,,,,,,,,,,,,,,,,,,,,,,,,00049,001,2026-01-25_11h05.12.347,MST_task,2024.2.0,60.0809891675925,2026-01-25 11h05.32.799168 +0530,
,Objects\028a.jpg,0,0,1,,,,,,,f,0.8522643999895081,0.1442043999559246,None,,,,,,1,0,0,120.62129879998975,,,,,,,,,,,,,,,,,,,,,,,120.60573130002012,120.62129879998975,121.10495240002638,,,,,,,,,,,,121.1259653000161,,,,,,,,,,,,,,,121.12278670002706,121.1259653000161,121.1259653000161,121.1259653000161,124.12148630002048,f,0.8522643999895081,0.1442043999559246,124.12322509998921,124.12324779998744,None,,,,,,,,,,,,,,,,,00049,001,2026-01-25_11h05.12.347,MST_task,2024.2.0,60.0809891675925,2026-01-25 11h05.32.799168 +0530,
,Objects\045a.jpg,1,0,2,,,,,,,f,1.8201676000026055,0.06443289999151602,None,,,,,,2,0,1,124.13797470001737,,,,,,,,,,,,,,,,,,,,,,,124.12333789997501,124.13797470001737,124.62147419998655,,,,,,,,,,,,124.63812950003194,,,,,,,,,,,,,,,124.63125769997714,124.63812950003194,124.63812950003194,124.63812950003194,127.62201210000785,f,1.8201676000026055,0.06443289999151602,127.622067600023,127.62207919999491,None,127.63792240002658,127.63792240002658,127.63792240002658,,,,,,,,,,,,,,00049,001,2026-01-25_11h05.12.347,MST_task,2024.2.0,60.0809891675925,2026-01-25 11h05.32.799168 +0530,
,Objects\161a.jpg,2,0,3,,,,,,,j,1.1120644000475295,0.12909789994591847,None,,,,,,3,0,2,127.63792240002658,,,,,,,,,,,,,,,,,,,,,,,127.622165400011,127.63792240002658,128.12152109999442,,,,,,,,,,,,128.13816460000817,,,,,,,,,,,,,,,128.13075750001008,128.13816460000817,128.13816460000817,128.13816460000817,131.12187470000936,j,1.1120644000475295,0.12909789994591847,131.12193470000057,131.12194620002992,None,131.13790079997852,131.13790079997852,131.13790079997852,,,,,,,,,,,,,,00049,001,2026-01-25_11h05.12.347,MST_task,2024.2.0,60.0809891675925,2026-01-25 11h05.32.799168 +0530,
,Objects\041a.jpg,3,0,4,,,,,,,j,2.0527440999867395,0.1680013999575749,None,,,,,,4,0,3,131.13790079997852,,,,,,,,,,,,,,,,,,,,,,,131.12201400002232,131.13790079997852,131.6215350999846,,,,,,,,,,,,131.6382537999889,,,,,,,,,,,,,,,131.6308994999854,131.6382537999889,131.6382537999889,131.6382537999889,134.62183030002052,j,2.0527440999867395,0.1680013999575749,134.62189559999388,134.6219080000301,None,134.63792760000797,134.63792760000797,134.63792760000797,,,,,,,,,,,,,,00049,001,2026-01-25_11h05.12.347,MST_task,2024.2.0,60.0809891675925,2026-01-25 11h05.32.799168 +0530,
,Objects\153a.jpg,4,0,5,,,,,,,f,2.2320762999588624,0.12798380001913756,None,,,,,,5,0,4,134.63792760000797,,,,,,,,,,,,,,,,,,,,,,,134.62199770001462,134.63792760000797,135.1215776000172,,,,,,,,,,,,135.13820619997568,,,,,,,,,,,,,,,135.13119990000268,135.13820619997568,135.13820619997568,135.13820619997568,138.12186620000284,f,2.2320762999588624,0.12798380001913756,138.1219190999982,138.12192980002146,None,138.13795250002295,138.13795250002295,138.13795250002295,,,,,,,,,,,,,,00049,001,2026-01-25_11h05.12.347,MST_task,2024.2.0,60.0809891675925,2026-01-25 11h05.32.799168 +0530,
,Objects\017a.jpg,5,0,6,,,,,,,None,,,j,1.2049940000288188,None,,,,6,0,5,138.13795250002295,,,,,,,,,,,,,,,,,,,,,,,138.12199640000472,138.13795250002295,138.62161059997743,,,,,,,,,,,,138.6380111000035,,,,,,,,,,,,,,,138.63124519999838,138.6380111000035,138.6380111000035,138.6380111000035,141.62175230000867,None,,,141.62180249998346,142.8550534999813,j,141.63797049998539,141.63797049998539,141.63797049998539,141.63797049998539,141.63797049998539,1.2049940000288188,None,,,,,,,,,,00049,001,2026-01-25_11h05.12.347,MST_task,2024.2.0,60.0809891675925,2026-01-25 11h05.32.799168 +0530,
,Objects\131a.jpg,6,0,7,,,,,,,f,2.1432389999972656,0.17699659999925643,None,,,,,,7,0,6,142.87128530000336,,,,,,,,,,,,,,,,,,,,,,,142.85514260001946,142.87128530000336,143.35489269997925,,,,,,,,,,,,143.3715746999951,,,,,,,,,,,,,,,143.36501230002614,143.3715746999951,143.3715746999951,143.3715746999951,146.35521040001186,f,2.1432389999972656,0.17699659999925643,146.35526320000645,146.35527509998064,None,146.37138060003053,146.37138060003053,146.37138060003053,,,,,,,,,,,,,,00049,001,2026-01-25_11h05.12.347,MST_task,2024.2.0,60.0809891675925,2026-01-25 11h05.32.799168 +0530,
,Scenes\146a.jpg,7,0,8,,,,,,,j,0.8841200999449939,0.15094280004268512,None,,,,,,8,0,7,146.37138060003053,,,,,,,,,,,,,,,,,,,,,,,146.35534100001678,146.37138060003053,146.85477309999987,,,,,,,,,,,,146.87922000000253,,,,,,,,,,,,,,,146.87698010000167,146.87922000000253,146.87922000000253,146.87922000000253,149.8715535000083,j,0.8841200999449939,0.15094280004268512,149.87160690000746,149.87161829997785,None,,,,,,,,,,,,,,,,,00049,001,2026-01-25_11h05.12.347,MST_task,2024.2.0,60.0809891675925,2026-01-25 11h05.32.799168 +0530,
,Scenes\066a.jpg,8,0,9,,,,,,,j,0.8707793999928981,0.12033750000409782,None,,,,,,9,0,8,149.88802730001044,,,,,,,,,,,,,,,,,,,,,,,149.87170499999775,149.88802730001044,150.37149609997869,,,,,,,,,,,,150.38798589998623,,,,,,,,,,,,,,,150.383772399975,150.38798589998623,150.38798589998623,150.38798589998623,153.3718981000129,j,0.8707793999928981,0.12033750000409782,153.3719509000075,153.3719619999756,None,153.38785880000796,153.38785880000796,153.38785880000796,,,,,,,,,,,,,,00049,001,2026-01-25_11h05.12.347,MST_task,2024.2.0,60.0809891675925,2026-01-25 11h05.32.799168 +0530,
,Scenes\025a.jpg,9,0,10,,,,,,,j,1.18255660001887,0.1029652000288479,None,,,,,,10,0,9,153.38785880000796,,,,,,,,,,,,,,,,,,,,,,,153.37204649997875,153.38785880000796,153.87159900000552,,,,,,,,,,,,153.8926582999993,,,,,,,,,,,,,,,153.8901298000128,153.8926582999993,153.8926582999993,153.8926582999993,156.88821120001376,j,1.18255660001887,0.1029652000288479,156.88826400000835,156.8882754999795,None,,,,,,,,,,,,,,,,,00049,001,2026-01-25_11h05.12.347,MST_task,2024.2.0,60.0809891675925,2026-01-25 11h05.32.799168 +0530,
,Scenes\031a.jpg,10,0,11,,,,,,,j,2.0735293999896385,0.15201139997225255,None,,,,,,11,0,10,156.90464010002324,,,,,,,,,,,,,,,,,,,,,,,156.88834300002782,156.90464010002324,157.388211100013,,,,,,,,,,,,157.40918219997548,,,,,,,,,,,,,,,157.40661290002754,157.40918219997548,157.40918219997548,157.40918219997548,160.40491390001262,j,2.0735293999896385,0.15201139997225255,160.40496760001406,160.40497969998978,None,,,,,,,,,,,,,,,,,00049,001,2026-01-25_11h05.12.347,MST_task,2024.2.0,60.0809891675925,2026-01-25 11h05.32.799168 +0530,
,Scenes\144a.jpg,11,0,12,,,,,,,j,1.8243206000188366,0.13603619998320937,None,,,,,,12,0,11,160.42128890001914,,,,,,,,,,,,,,,,,,,,,,,160.40506780002033,160.42128890001914,160.90486050001346,,,,,,,,,,,,160.92192769999383,,,,,,,,,,,,,,,160.91909440001473,160.92192769999383,160.92192769999383,160.92192769999383,163.90508890000638,j,1.8243206000188366,0.13603619998320937,163.90514089999488,163.9051520000212,None,163.92132120003225,163.92132120003225,163.92132120003225,,,,,,,,,,,,,,00049,001,2026-01-25_11h05.12.347,MST_task,2024.2.0,60.0809891675925,2026-01-25 11h05.32.799168 +0530,
,Scenes\104a.jpg,12,0,13,,,,,,,j,2.8744403999880888,None,None,,,,,,13,0,12,163.92132120003225,,,,,,,,,,,,,,,,,,,,,,,163.90523480001139,163.92132120003225,164.4048384000198,,,,,,,,,,,,164.4244004000211,,,,,,,,,,,,,,,164.42175530001987,164.4244004000211,164.4244004000211,164.4244004000211,167.42143550002947,j,2.8744403999880888,None,167.42148780002026,167.42149939999217,None,,,,,,,,,,,,,,,,,00049,001,2026-01-25_11h05.12.347,MST_task,2024.2.0,60.0809891675925,2026-01-25 11h05.32.799168 +0530,
,Scenes\058a.jpg,13,0,14,,,,,,,f,2.366904499998782,0.16053660004399717,None,,,,,,14,0,13,167.4377053999924,,,,,,,,,,,,,,,,,,,,,,,167.42156619997695,167.4377053999924,167.9214211999788,,,,,,,,,,,,167.93952600000193,,,,,,,,,,,,,,,167.93710660003126,167.93952600000193,167.93952600000193,167.93952600000193,170.9379295000108,f,2.366904499998782,0.16053660004399717,170.937987399986,170.93799920001766,None,,,,,,,,,,,,,,,,,00049,001,2026-01-25_11h05.12.347,MST_task,2024.2.0,60.0809891675925,2026-01-25 11h05.32.799168 +0530,
,Objects\077a.jpg,14,0,15,,,,,,,j,1.2679164999863133,0.16798730002483353,None,,,,,,15,0,14,170.95457210001769,,,,,,,,,,,,,,,,,,,,,,,170.938093499979,170.95457210001769,171.4380344999954,,,,,,,,,,,,171.45504969998728,,,,,,,,,,,,,,,171.44962869997835,171.45504969998728,171.45504969998728,171.45504969998728,174.438243600016,j,1.2679164999863133,0.16798730002483353,174.43829550000373,174.43830650002928,None,174.45453649997944,174.45453649997944,174.45453649997944,,,,,,,,,,,,,,00049,001,2026-01-25_11h05.12.347,MST_task,2024.2.0,60.0809891675925,2026-01-25 11h05.32.799168 +0530,
,Objects\063a.jpg,15,0,16,,,,,,,None,,,f,None,None,,,,16,0,15,174.45453649997944,,,,,,,,,,,,,,,,,,,,,,,174.43839269998716,174.45453649997944,174.9379713999806,,,,,,,,,,,,174.9547247000155,,,,,,,,,,,,,,,174.94766190001974,174.9547247000155,174.9547247000155,174.9547247000155,177.93841740000062,None,,,177.93847649998497,178.1051107000094,f,177.95460789999925,177.95460789999925,177.95460789999925,177.95460789999925,177.95460789999925,None,None,,,,,,,,,,00049,001,2026-01-25_11h05.12.347,MST_task,2024.2.0,60.0809891675925,2026-01-25 11h05.32.799168 +0530,
,Objects\152a.jpg,16,0,17,,,,,,,f,2.229002900014166,0.13599789998261258,None,,,,,,17,0,16,178.12118710001232,,,,,,,,,,,,,,,,,,,,,,,178.10523960000137,178.12118710001232,178.60478920000605,,,,,,,,,,,,178.62137649999931,,,,,,,,,,,,,,,178.61437630001456,178.62137649999931,178.62137649999931,178.62137649999931,181.6050376999774,f,2.229002900014166,0.13599789998261258,181.60509869997622,181.60511100001168,None,181.62117479997687,181.62117479997687,181.62117479997687,,,,,,,,,,,,,,00049,001,2026-01-25_11h05.12.347,MST_task,2024.2.0,60.0809891675925,2026-01-25 11h05.32.799168 +0530,
,Objects\164a.jpg,17,0,18,,,,,,,f,2.0813653000514023,0.14401369995903224,None,,,,,,18,0,17,181.62117479997687,,,,,,,,,,,,,,,,,,,,,,,181.6051993999863,181.62117479997687,182.10477680002805,,,,,,,,,,,,182.12138730002334,,,,,,,,,,,,,,,182.11449429998174,182.12138730002334,182.12138730002334,182.12138730002334,185.1051109000109,f,2.0813653000514023,0.14401369995903224,185.10517039999831,185.1051816000254,None,185.1211406000075,185.1211406000075,185.1211406000075,,,,,,,,,,,,,,00049,001,2026-01-25_11h05.12.347,MST_task,2024.2.0,60.0809891675925,2026-01-25 11h05.32.799168 +0530,
,Objects\067a.jpg,18,0,19,,,,,,,f,2.044927100010682,0.14444409997668117,None,,,,,,19,0,18,185.1211406000075,,,,,,,,,,,,,,,,,,,,,,,185.1052729000221,185.1211406000075,185.60477089998312,,,,,,,,,,,,185.6214190000319,,,,,,,,,,,,,,,185.61400529998355,185.6214190000319,185.6214190000319,185.6214190000319,188.6050234999857,f,2.044927100010682,0.14444409997668117,188.60507629998028,188.60508770000888,None,188.62118940002983,188.62118940002983,188.62118940002983,,,,,,,,,,,,,,00049,001,2026-01-25_11h05.12.347,MST_task,2024.2.0,60.0809891675925,2026-01-25 11h05.32.799168 +0530,
,Objects\134a.jpg,19,0,20,,,,,,,f,1.7208432999905199,0.12802050000755116,None,,,,,,20,0,19,188.62118940002983,,,,,,,,,,,,,,,,,,,,,,,188.60515329998452,188.62118940002983,189.10476600000402,,,,,,,,,,,,189.12138010002673,,,,,,,,,,,,,,,189.11453999998048,189.12138010002673,189.12138010002673,189.12138010002673,192.10498350003036,f,1.7208432999905199,0.12802050000755116,192.10503710003104,192.10504890000448,None,192.12119690002874,192.12119690002874,192.12119690002874,,,,,,,,,,,,,,00049,001,2026-01-25_11h05.12.347,MST_task,2024.2.0,60.0809891675925,2026-01-25 11h05.32.799168 +0530,
,Objects\049a.jpg,20,0,21,,,,,,,None,,,f,0.6301641999743879,None,,,,21,0,20,192.12119690002874,,,,,,,,,,,,,,,,,,,,,,,192.10513260000153,192.12119690002874,192.6047125000041,,,,,,,,,,,,192.6214287999901,,,,,,,,,,,,,,,192.61418199999025,192.6214287999901,192.6214287999901,192.6214287999901,195.6049816000159,None,,,195.60503219999373,196.25487429997884,f,195.62119249999523,195.62119249999523,195.62119249999523,195.62119249999523,195.62119249999523,0.6301641999743879,None,,,,,,,,,,00049,001,2026-01-25_11h05.12.347,MST_task,2024.2.0,60.0809891675925,2026-01-25 11h05.32.799168 +0530,
,Scenes\069a.jpg,21,0,22,,,,,,,j,1.5668861999874935,0.15309330000309274,None,,,,,,22,0,21,196.27119449997554,,,,,,,,,,,,,,,,,,,,,,,196.25496460002614,196.27119449997554,196.75473869999405,,,,,,,,,,,,196.77160799998092,,,,,,,,,,,,,,,196.76776190003147,196.77160799998092,196.77160799998092,196.77160799998092,199.75506629998563,j,1.5668861999874935,0.15309330000309274,199.75512049999088,199.75513200002024,None,199.7711866000318,199.7711866000318,199.7711866000318,,,,,,,,,,,,,,00049,001,2026-01-25_11h05.12.347,MST_task,2024.2.0,60.0809891675925,2026-01-25 11h05.32.799168 +0530,
,Scenes\114a.jpg,22,0,23,,,,,,,f,2.564835800032597,0.13537340000038967,None,,,,,,23,0,22,199.7711866000318,,,,,,,,,,,,,,,,,,,,,,,199.75521779997507,199.7711866000318,200.25476809998509,,,,,,,,,,,,200.27804509998532,,,,,,,,,,,,,,,200.27585799997905,200.27804509998532,200.27804509998532,200.27804509998532,203.27146979997633,f,2.564835800032597,0.13537340000038967,203.27152170002228,203.27153359999647,None,,,,,,,,,,,,,,,,,00049,001,2026-01-25_11h05.12.347,MST_task,2024.2.0,60.0809891675925,2026-01-25 11h05.32.799168 +0530,
,Scenes\014a.jpg,23,0,24,,,,,,,None,,,f,0.05540520005160943,None,,,,24,0,23,203.28772369999206,,,,,,,,,,,,,,,,,,,,,,,203.2716205000179,203.28772369999206,203.77154719998362,,,,,,,,,,,,203.7883276999928,,,,,,,,,,,,,,,203.78368709998904,203.7883276999928,203.7883276999928,203.7883276999928,206.77172489999793,None,,,206.77177530003246,206.85488499997882,f,206.78779480000958,206.78779480000958,206.78779480000958,206.78779480000958,206.78779480000958,0.05540520005160943,None,,,,,,,,,,00049,001,2026-01-25_11h05.12.347,MST_task,2024.2.0,60.0809891675925,2026-01-25 11h05.32.799168 +0530,
,Scenes\053a.jpg,24,0,25,,,,,,,j,1.0950610000290908,0.16800060000969097,None,,,,,,25,0,24,206.8712420000229,,,,,,,,,,,,,,,,,,,,,,,206.85496820003027,206.8712420000229,207.3548424000037,,,,,,,,,,,,207.37179010000546,,,,,,,,,,,,,,,207.36459030001424,207.37179010000546,207.37179010000546,207.37179010000546,210.35500079998747,j,1.0950610000290908,0.16800060000969097,210.35505600000033,210.35506740002893,None,210.37118630000623,210.37118630000623,210.37118630000623,,,,,,,,,,,,,,00049,001,2026-01-25_11h05.12.347,MST_task,2024.2.0,60.0809891675925,2026-01-25 11h05.32.799168 +0530,
,Scenes\160a.jpg,25,0,26,,,,,,,j,2.275201399985235,0.12801889999536797,None,,,,,,26,0,25,210.37118630000623,,,,,,,,,,,,,,,,,,,,,,,210.35515429999214,210.37118630000623,210.8547438000096,,,,,,,,,,,,210.8716362999985,,,,,,,,,,,,,,,210.86952880001627,210.8716362999985,210.8716362999985,210.8716362999985,213.854986499995,j,2.275201399985235,0.12801889999536797,213.85503929998958,213.85505000001285,None,213.87118239997653,213.87118239997653,213.87118239997653,,,,,,,,,,,,,,00049,001,2026-01-25_11h05.12.347,MST_task,2024.2.0,60.0809891675925,2026-01-25 11h05.32.799168 +0530,
,Scenes\050a.jpg,26,0,27,,,,,,,j,1.3823015000089072,0.1370984999812208,None,,,,,,27,0,26,213.87118239997653,,,,,,,,,,,,,,,,,,,,,,,213.85513590002665,213.87118239997653,214.35499050002545,,,,,,,,,,,,214.37208380002994,,,,,,,,,,,,,,,214.36958860000595,214.37208380002994,214.37208380002994,214.37208380002994,217.35500799998408,j,1.3823015000089072,0.1370984999812208,217.35506079997867,217.355071900005,None,217.37122299999464,217.37122299999464,217.37122299999464,,,,,,,,,,,,,,00049,001,2026-01-25_11h05.12.347,MST_task,2024.2.0,60.0809891675925,2026-01-25 11h05.32.799168 +0530,
,Scenes\013a.jpg,27,0,28,,,,,,,None,,,j,1.0432564999791794,None,,,,28,0,27,217.37122299999464,,,,,,,,,,,,,,,,,,,,,,,217.35515760001726,217.37122299999464,217.85469320003176,,,,,,,,,,,,217.87529930000892,,,,,,,,,,,,,,,217.87297010002658,217.87529930000892,217.87529930000892,217.87529930000892,220.87136400002055,None,,,220.8714121999801,221.93821829999797,j,,,,220.88777349999873,220.88777349999873,1.0432564999791794,None,,,,,,,,,,00049,001,2026-01-25_11h05.12.347,MST_task,2024.2.0,60.0809891675925,2026-01-25 11h05.32.799168 +0530,
,Objects\128a.jpg,28,0,29,,,,,,,f,2.0045487000024877,0.18292579997796565,None,,,,,,29,0,28,221.95451210002648,,,,,,,,,,,,,,,,,,,,,,,221.93833859998267,221.95451210002648,222.43796329997713,,,,,,,,,,,,222.45508320000954,,,,,,,,,,,,,,,222.4482956000138,222.45508320000954,222.45508320000954,222.45508320000954,225.43820779997623,f,2.0045487000024877,0.18292579997796565,225.4382611999754,225.43827290000627,None,225.45452610001666,225.45452610001666,225.45452610001666,,,,,,,,,,,,,,00049,001,2026-01-25_11h05.12.347,MST_task,2024.2.0,60.0809891675925,2026-01-25 11h05.32.799168 +0530,
,Objects\178a.jpg,29,0,30,,,,,,,j,2.6964183999807574,0.12816930003464222,None,,,,,,30,0,29,225.45452610001666,,,,,,,,,,,,,,,,,,,,,,,225.43833720003022,225.45452610001666,225.93793970003026,,,,,,,,,,,,225.9547593999887,,,,,,,,,,,,,,,225.9478294000146,225.9547593999887,225.9547593999887,225.9547593999887,228.93841160001466,j,2.6964183999807574,0.12816930003464222,228.9384671000298,228.9384785000002,None,228.95462540001608,228.95462540001608,228.95462540001608,,,,,,,,,,,,,,00049,001,2026-01-25_11h05.12.347,MST_task,2024.2.0,60.0809891675925,2026-01-25 11h05.32.799168 +0530,
,Objects\125a.jpg,30,0,31,,,,,,,f,2.1399590999935754,0.11966659995960072,None,,,,,,31,0,30,228.95462540001608,,,,,,,,,,,,,,,,,,,,,,,228.93854639999336,228.95462540001608,229.43820680002682,,,,,,,,,,,,229.45496180001646,,,,,,,,,,,,,,,229.4495299999835,229.45496180001646,229.45496180001646,229.45496180001646,232.43849179998506,f,2.1399590999935754,0.11966659995960072,232.43854399997508,232.43855520000216,None,232.45455889997538,232.45455889997538,232.45455889997538,,,,,,,,,,,,,,00049,001,2026-01-25_11h05.12.347,MST_task,2024.2.0,60.0809891675925,2026-01-25 11h05.32.799168 +0530,
,Objects\024a.jpg,31,0,32,,,,,,,f,1.975820100051351,0.17575339996255934,None,,,,,,32,0,31,232.45455889997538,,,,,,,,,,,,,,,,,,,,,,,232.43864090001443,232.45455889997538,232.9383299999754,,,,,,,,,,,,232.95476880000206,,,,,,,,,,,,,,,232.94825790001778,232.95476880000206,232.95476880000206,232.95476880000206,235.9383507000166,f,1.975820100051351,0.17575339996255934,235.93840510002337,235.93841599998996,None,235.95461790001718,235.95461790001718,235.95461790001718,,,,,,,,,,,,,,00049,001,2026-01-25_11h05.12.347,MST_task,2024.2.0,60.0809891675925,2026-01-25 11h05.32.799168 +0530,
,Objects\147a.jpg,32,0,33,,,,,,,f,2.9392643999890424,None,None,,,,,,33,0,32,235.95461790001718,,,,,,,,,,,,,,,,,,,,,,,235.93850170000223,235.95461790001718,236.43818619998638,,,,,,,,,,,,236.4549109999789,,,,,,,,,,,,,,,236.4477396000293,236.4549109999789,236.4549109999789,236.4549109999789,239.43847059999825,f,2.9392643999890424,None,239.43852289998904,239.43853400001535,None,239.4546233000001,239.4546233000001,239.4546233000001,,,,,,,,,,,,,,00049,001,2026-01-25_11h05.12.347,MST_task,2024.2.0,60.0809891675925,2026-01-25 11h05.32.799168 +0530,
,Objects\056a.jpg,33,0,34,,,,,,,f,1.3033249999862164,0.18454960000235587,None,,,,,,34,0,33,239.4546233000001,,,,,,,,,,,,,,,,,,,,,,,239.4385977999773,239.4546233000001,239.93817959999433,,,,,,,,,,,,239.95484169997508,,,,,,,,,,,,,,,239.9478998000268,239.95484169997508,239.95484169997508,239.95484169997508,242.93846819997998,f,1.3033249999862164,0.18454960000235587,242.93852450000122,242.93853580002906,None,242.95454070001142,242.95454070001142,242.95454070001142,,,,,,,,,,,,,,00049,001,2026-01-25_11h05.12.347,MST_task,2024.2.0,60.0809891675925,2026-01-25 11h05.32.799168 +0530,
,Objects\098a.jpg,34,0,35,,,,,,,f,1.7234777999692596,0.20048810000298545,None,,,,,,35,0,34,242.95454070001142,,,,,,,,,,,,,,,,,,,,,,,242.93860130000394,242.95454070001142,243.4381633999874,,,,,,,,,,,,243.4548779000179,,,,,,,,,,,,,,,243.44757750001736,243.4548779000179,243.4548779000179,243.4548779000179,246.43836149998242,f,1.7234777999692596,0.20048810000298545,246.43841439997777,246.43842540000333,None,246.45462680002674,246.45462680002674,246.45462680002674,,,,,,,,,,,,,,00049,001,2026-01-25_11h05.12.347,MST_task,2024.2.0,60.0809891675925,2026-01-25 11h05.32.799168 +0530,
,Scenes\102a.jpg,35,0,36,,,,,,,j,0.8508530000108294,0.14400029997341335,None,,,,,,36,0,35,246.45462680002674,,,,,,,,,,,,,,,,,,,,,,,246.4385127000278,246.45462680002674,246.93812499998603,,,,,,,,,,,,246.9592866000021,,,,,,,,,,,,,,,246.95701940002618,246.9592866000021,246.9592866000021,246.9592866000021,249.95481830002973,j,0.8508530000108294,0.14400029997341335,249.95487020001747,249.9548819999909,None,,,,,,,,,,,,,,,,,00049,001,2026-01-25_11h05.12.347,MST_task,2024.2.0,60.0809891675925,2026-01-25 11h05.32.799168 +0530,
,Scenes\158a.jpg,36,0,37,,,,,,,j,2.8160030000144616,0.12746629997855052,None,,,,,,37,0,36,249.97128230001545,,,,,,,,,,,,,,,,,,,,,,,249.95496940001613,249.97128230001545,250.45478279999224,,,,,,,,,,,,250.47468139999546,,,,,,,,,,,,,,,250.47231669997564,250.47468139999546,250.47468139999546,250.47468139999546,253.47143630002392,j,2.8160030000144616,0.12746629997855052,253.47148910001852,253.4715052000247,None,,,,,,,,,,,,,,,,,00049,001,2026-01-25_11h05.12.347,MST_task,2024.2.0,60.0809891675925,2026-01-25 11h05.32.799168 +0530,
,Scenes\083a.jpg,37,0,38,,,,,,,j,1.5809264999697916,0.12909980001859367,None,,,,,,38,0,37,253.48788660002174,,,,,,,,,,,,,,,,,,,,,,,253.4715727000148,253.48788660002174,253.97187920002034,,,,,,,,,,,,253.98943840002175,,,,,,,,,,,,,,,253.98692900000606,253.98943840002175,253.98943840002175,253.98943840002175,256.97169420000864,j,1.5809264999697916,0.12909980001859367,256.97174960002303,256.9717614999972,None,,,,,,,,,,,,,,,,,00049,001,2026-01-25_11h05.12.347,MST_task,2024.2.0,60.0809891675925,2026-01-25 11h05.32.799168 +0530,
,Scenes\103a.jpg,38,0,39,,,,,,,j,1.135959300037939,0.1120121999992989,None,,,,,,39,0,38,256.98795019998215,,,,,,,,,,,,,,,,,,,,,,,256.97185540001374,256.98795019998215,257.4715209000278,,,,,,,,,,,,257.4904342999798,,,,,,,,,,,,,,,257.48842569999397,257.4904342999798,257.4904342999798,257.4904342999798,260.48824440001044,j,1.135959300037939,0.1120121999992989,260.4883010999765,260.48831320001045,None,,,,,,,,,,,,,,,,,00049,001,2026-01-25_11h05.12.347,MST_task,2024.2.0,60.0809891675925,2026-01-25 11h05.32.799168 +0530,
,Scenes\052a.jpg,39,0,40,,,,,,,j,1.6855634999810718,0.11090979998698458,None,,,,,,40,0,39,260.5045992999803,,,,,,,,,,,,,,,,,,,,,,,260.4884017999866,260.5045992999803,260.98821590002626,,,,,,,,,,,,261.0059479000047,,,,,,,,,,,,,,,261.00358999997843,261.0059479000047,261.0059479000047,261.0059479000047,264.00633399997605,j,1.6855634999810718,0.11090979998698458,264.0063873999752,264.00640489999205,None,,,,,,,,,,,,,,,,,00049,001,2026-01-25_11h05.12.347,MST_task,2024.2.0,60.0809891675925,2026-01-25 11h05.32.799168 +0530,
,Scenes\001a.jpg,40,0,41,,,,,,,None,,,f,1.2807576000341214,None,,,,41,0,40,264.0211827000021,,,,,,,,,,,,,,,,,,,,,,,264.0064735999913,264.0211827000021,264.5048628000077,,,,,,,,,,,,264.5273525000084,,,,,,,,,,,,,,,264.5250447000144,264.5273525000084,264.5273525000084,264.5273525000084,267.52146770001855,None,,,267.521519300004,268.82176120002987,f,,,,267.5379707000102,267.5379707000102,1.2807576000341214,None,,,,,,,,,,00049,001,2026-01-25_11h05.12.347,MST_task,2024.2.0,60.0809891675925,2026-01-25 11h05.32.799168 +0530,
,Scenes\142a.jpg,41,0,42,,,,,,,j,0.8220165999955498,0.1354513000114821,None,,,,,,42,0,41,268.83783119998407,,,,,,,,,,,,,,,,,,,,,,,268.82188210001914,268.83783119998407,269.32151109998813,,,,,,,,,,,,269.3410023000324,,,,,,,,,,,,,,,269.33852699998533,269.3410023000324,269.3410023000324,269.3410023000324,272.3381506000296,j,0.8220165999955498,0.1354513000114821,272.3382027000189,272.3382156000007,None,,,,,,,,,,,,,,,,,00049,001,2026-01-25_11h05.12.347,MST_task,2024.2.0,60.0809891675925,2026-01-25 11h05.32.799168 +0530,
,Objects\027a.jpg,42,0,43,,,,,,,f,2.731042900006287,0.12796449998859316,None,,,,,,43,0,42,272.3546270999941,,,,,,,,,,,,,,,,,,,,,,,272.3383033000282,272.3546270999941,272.8381509000319,,,,,,,,,,,,272.85513229999924,,,,,,,,,,,,,,,272.8505842000013,272.85513229999924,272.85513229999924,272.85513229999924,275.8385597000015,f,2.731042900006287,0.12796449998859316,275.8386123999953,275.83862320001936,None,275.85461069998564,275.85461069998564,275.85461069998564,,,,,,,,,,,,,,00049,001,2026-01-25_11h05.12.347,MST_task,2024.2.0,60.0809891675925,2026-01-25 11h05.32.799168 +0530,
,Objects\192a.jpg,43,0,44,,,,,,,j,1.6959100000094622,0.0959951999830082,None,,,,,,44,0,43,275.85461069998564,,,,,,,,,,,,,,,,,,,,,,,275.8386906000087,275.85461069998564,276.33817100001033,,,,,,,,,,,,276.3546995000215,,,,,,,,,,,,,,,276.348363600031,276.3546995000215,276.3546995000215,276.3546995000215,279.33864209998865,j,1.6959100000094622,0.0959951999830082,279.3386962999939,279.33870810002554,None,279.35510819999035,279.35510819999035,279.35510819999035,,,,,,,,,,,,,,00049,001,2026-01-25_11h05.12.347,MST_task,2024.2.0,60.0809891675925,2026-01-25 11h05.32.799168 +0530,
,Objects\181a.jpg,44,0,45,,,,,,,j,0.9800201000180095,0.11192809999920428,None,,,,,,45,0,44,279.35510819999035,,,,,,,,,,,,,,,,,,,,,,,279.33877219998976,279.35510819999035,279.83814720000373,,,,,,,,,,,,279.8548062000191,,,,,,,,,,,,,,,279.847957400023,279.8548062000191,279.8548062000191,279.8548062000191,282.838305399986,j,0.9800201000180095,0.11192809999920428,282.8383606999996,282.8383716000244,None,282.8546147000161,282.8546147000161,282.8546147000161,,,,,,,,,,,,,,00049,001,2026-01-25_11h05.12.347,MST_task,2024.2.0,60.0809891675925,2026-01-25 11h05.32.799168 +0530,
,Objects\044a.jpg,45,0,46,,,,,,,None,,,f,0.1764911999925971,None,,,,46,0,45,282.8546147000161,,,,,,,,,,,,,,,,,,,,,,,282.8384386000107,282.8546147000161,283.3381066999864,,,,,,,,,,,,283.35484460002044,,,,,,,,,,,,,,,283.34734149998985,283.35484460002044,283.35484460002044,283.35484460002044,286.33829879999394,None,,,286.33835849998286,286.5381409000256,f,286.3545039999881,286.3545039999881,286.3545039999881,286.3545039999881,286.3545039999881,0.1764911999925971,None,,,,,,,,,,00049,001,2026-01-25_11h05.12.347,MST_task,2024.2.0,60.0809891675925,2026-01-25 11h05.32.799168 +0530,
,Objects\129a.jpg,46,0,47,,,,,,,f,2.3402558999950998,0.15943900001002476,None,,,,,,47,0,46,286.5544904000126,,,,,,,,,,,,,,,,,,,,,,,286.53822570003103,286.5544904000126,287.0381179000251,,,,,,,,,,,,287.05467059998773,,,,,,,,,,,,,,,287.0474639000022,287.05467059998773,287.05467059998773,287.05467059998773,290.0384339999873,f,2.3402558999950998,0.15943900001002476,290.03849419998005,290.03850660001626,None,290.05442709999625,290.05442709999625,290.05442709999625,,,,,,,,,,,,,,00049,001,2026-01-25_11h05.12.347,MST_task,2024.2.0,60.0809891675925,2026-01-25 11h05.32.799168 +0530,
,Objects\103a.jpg,47,0,48,,,,,,,f,1.2954809999791905,0.1525396999786608,None,,,,,,48,0,47,290.05442709999625,,,,,,,,,,,,,,,,,,,,,,,290.03859820001526,290.05442709999625,290.5379635000136,,,,,,,,,,,,290.5547196000116,,,,,,,,,,,,,,,290.5496471999795,290.5547196000116,290.5547196000116,290.5547196000116,293.538329300005,f,1.2954809999791905,0.1525396999786608,293.5383847000194,293.53839589998825,None,293.5544207000057,293.5544207000057,293.5544207000057,,,,,,,,,,,,,,00049,001,2026-01-25_11h05.12.347,MST_task,2024.2.0,60.0809891675925,2026-01-25 11h05.32.799168 +0530,
,Objects\018a.jpg,48,0,49,,,,,,,None,,,j,0.07651570002781227,None,,,,49,0,48,293.5544207000057,,,,,,,,,,,,,,,,,,,,,,,293.53847969998606,293.5544207000057,294.03792370000156,,,,,,,,,,,,294.0546568999998,,,,,,,,,,,,,,,294.0467941000243,294.0546568999998,294.0546568999998,294.0546568999998,297.03832370002056,None,,,297.0383823000011,297.1381396999932,j,297.05450680002104,297.05450680002104,297.05450680002104,297.05450680002104,297.05450680002104,0.07651570002781227,None,,,,,,,,,,00049,001,2026-01-25_11h05.12.347,MST_task,2024.2.0,60.0809891675925,2026-01-25 11h05.32.799168 +0530,
,Scenes\121a.jpg,49,0,50,,,,,,,j,1.8164687000098638,0.1290947999805212,None,,,,,,50,0,49,297.1544830999919,,,,,,,,,,,,,,,,,,,,,,,297.1382239999948,297.1544830999919,297.63793030002853,,,,,,,,,,,,297.6577458999818,,,,,,,,,,,,,,,297.655454199994,297.6577458999818,297.6577458999818,297.6577458999818,300.6547708000289,j,1.8164687000098638,0.1290947999805212,300.654860700015,300.6548774000257,None,,,,,,,,,,,,,,,,,00049,001,2026-01-25_11h05.12.347,MST_task,2024.2.0,60.0809891675925,2026-01-25 11h05.32.799168 +0530,
,Scenes\184a.jpg,50,0,51,,,,,,,j,1.9972466999897733,0.12869510002201423,None,,,,,,51,0,50,300.6711720000021,,,,,,,,,,,,,,,,,,,,,,,300.6549782999791,300.6711720000021,301.1550748000154,,,,,,,,,,,,301.17288079997525,,,,,,,,,,,,,,,301.17068270000163,301.17288079997525,301.17288079997525,301.17288079997525,304.17142899998,j,1.9972466999897733,0.12869510002201423,304.17149119998794,304.1715029000188,None,,,,,,,,,,,,,,,,,00049,001,2026-01-25_11h05.12.347,MST_task,2024.2.0,60.0809891675925,2026-01-25 11h05.32.799168 +0530,
,Scenes\093a.jpg,51,0,52,,,,,,,f,1.2323477999889292,0.191539500025101,None,,,,,,52,0,51,304.1876941000228,,,,,,,,,,,,,,,,,,,,,,,304.1715710000135,304.1876941000228,304.6713835999835,,,,,,,,,,,,304.6903067000094,,,,,,,,,,,,,,,304.68794849998085,304.6903067000094,304.6903067000094,304.6903067000094,307.68804630002705,f,1.2323477999889292,0.191539500025101,307.6881095999852,307.6881222000229,None,,,,,,,,,,,,,,,,,00049,001,2026-01-25_11h05.12.347,MST_task,2024.2.0,60.0809891675925,2026-01-25 11h05.32.799168 +0530,
,Scenes\113a.jpg,52,0,53,,,,,,,j,1.2611766000045463,0.15200190001633018,None,,,,,,53,0,52,307.7045037000207,,,,,,,,,,,,,,,,,,,,,,,307.6882181999972,307.7045037000207,308.1879348999937,,,,,,,,,,,,308.20499080000445,,,,,,,,,,,,,,,308.19871979998425,308.20499080000445,308.20499080000445,308.20499080000445,311.18829979997827,j,1.2611766000045463,0.15200190001633018,311.18836400000146,311.1883759999764,None,311.20450210000854,311.20450210000854,311.20450210000854,,,,,,,,,,,,,,00049,001,2026-01-25_11h05.12.347,MST_task,2024.2.0,60.0809891675925,2026-01-25 11h05.32.799168 +0530,
,Scenes\008a.jpg,53,0,54,,,,,,,f,1.4658635000232607,0.15201369998976588,None,,,,,,54,0,53,311.20450210000854,,,,,,,,,,,,,,,,,,,,,,,311.1884650000138,311.20450210000854,311.68793580000056,,,,,,,,,,,,311.7051060000085,,,,,,,,,,,,,,,311.7023613000056,311.7051060000085,311.7051060000085,311.7051060000085,314.6882701999857,f,1.4658635000232607,0.15201369998976588,314.68832289997954,314.68833400000585,None,314.70448650000617,314.70448650000617,314.70448650000617,,,,,,,,,,,,,,00049,001,2026-01-25_11h05.12.347,MST_task,2024.2.0,60.0809891675925,2026-01-25 11h05.32.799168 +0530,
,Scenes\162a.jpg,54,0,55,,,,,,,j,2.397941200004425,0.13591900002211332,None,,,,,,55,0,54,314.70448650000617,,,,,,,,,,,,,,,,,,,,,,,314.6884002999868,314.70448650000617,315.18801679997705,,,,,,,,,,,,315.2050057000015,,,,,,,,,,,,,,,315.20121500000823,315.2050057000015,315.2050057000015,315.2050057000015,318.1882571000024,j,2.397941200004425,0.13591900002211332,318.188312400016,318.18832389998715,None,318.20442309998907,318.20442309998907,318.20442309998907,,,,,,,,,,,,,,00049,001,2026-01-25_11h05.12.347,MST_task,2024.2.0,60.0809891675925,2026-01-25 11h05.32.799168 +0530,
,Scenes\086a.jpg,55,0,56,,,,,,,None,,,j,1.3691123999888077,None,,,,56,0,55,318.20442309998907,,,,,,,,,,,,,,,,,,,,,,,318.18840849999106,318.20442309998907,318.6879282000009,,,,,,,,,,,,318.70927250001114,,,,,,,,,,,,,,,318.70709889999125,318.70927250001114,318.70927250001114,318.70927250001114,321.7047896999866,None,,,321.70484199997736,323.1049034000025,j,,,,321.72128639998846,321.72128639998846,1.3691123999888077,None,,,,,,,,,,00049,001,2026-01-25_11h05.12.347,MST_task,2024.2.0,60.0809891675925,2026-01-25 11h05.32.799168 +0530,
,Objects\176a.jpg,56,0,57,,,,,,,f,1.0930195999681018,0.16000350000103936,None,,,,,,57,0,56,323.1211659000255,,,,,,,,,,,,,,,,,,,,,,,323.10499259998323,323.1211659000255,323.60505210002884,,,,,,,,,,,,323.6217099999776,,,,,,,,,,,,,,,323.6160319999908,323.6217099999776,323.6217099999776,323.6217099999776,326.6050286000245,f,1.0930195999681018,0.16000350000103936,326.6050905000302,326.6051037000143,None,326.62118419999024,326.62118419999024,326.62118419999024,,,,,,,,,,,,,,00049,001,2026-01-25_11h05.12.347,MST_task,2024.2.0,60.0809891675925,2026-01-25 11h05.32.799168 +0530,
,Objects\082a.jpg,57,0,58,,,,,,,f,0.9931055000051856,0.14400410000234842,None,,,,,,58,0,57,326.62118419999024,,,,,,,,,,,,,,,,,,,,,,,326.6051886000205,326.62118419999024,327.10466040001484,,,,,,,,,,,,327.12132420000853,,,,,,,,,,,,,,,327.11456620000536,327.12132420000853,327.12132420000853,327.12132420000853,330.1051583000226,f,0.9931055000051856,0.14400410000234842,330.1052146999864,330.10522570001194,None,330.12116059998516,330.12116059998516,330.12116059998516,,,,,,,,,,,,,,00049,001,2026-01-25_11h05.12.347,MST_task,2024.2.0,60.0809891675925,2026-01-25 11h05.32.799168 +0530,
,Objects\171a.jpg,58,0,59,,,,,,,None,,,f,1.1096677999594249,None,,,,59,0,58,330.12116059998516,,,,,,,,,,,,,,,,,,,,,,,330.10531469999114,330.12116059998516,330.6046633999795,,,,,,,,,,,,330.621434300032,,,,,,,,,,,,,,,330.61487589997705,330.621434300032,330.621434300032,330.621434300032,333.60500320000574,None,,,333.6050506000174,334.7381428999943,f,333.6210826000315,333.6210826000315,333.6210826000315,333.6210826000315,333.6210826000315,1.1096677999594249,None,,,,,,,,,,00049,001,2026-01-25_11h05.12.347,MST_task,2024.2.0,60.0809891675925,2026-01-25 11h05.32.799168 +0530,
,Objects\080a.jpg,59,0,60,,,,,,,j,0.8921040000277571,0.13599499996053055,None,,,,,,60,0,59,334.7545004999847,,,,,,,,,,,,,,,,,,,,,,,334.73826150002424,334.7545004999847,335.23791580001125,,,,,,,,,,,,335.2547537999926,,,,,,,,,,,,,,,335.2482556999894,335.2547537999926,335.2547537999926,335.2547537999926,338.23817109997617,j,0.8921040000277571,0.13599499996053055,338.2382279000012,338.23823950003134,None,338.2544864999945,338.2544864999945,338.2544864999945,,,,,,,,,,,,,,00049,001,2026-01-25_11h05.12.347,MST_task,2024.2.0,60.0809891675925,2026-01-25 11h05.32.799168 +0530,
,Objects\091a.jpg,60,0,61,,,,,,,j,2.5442934000166133,0.15166089998092502,None,,,,,,61,0,60,338.2544864999945,,,,,,,,,,,,,,,,,,,,,,,338.23830670001917,338.2544864999945,338.73800379998283,,,,,,,,,,,,338.7546534999856,,,,,,,,,,,,,,,338.74723769997945,338.7546534999856,338.7546534999856,338.7546534999856,341.7380849000183,j,2.5442934000166133,0.15166089998092502,341.73813750001136,341.7381490999833,None,341.7544792999979,341.7544792999979,341.7544792999979,,,,,,,,,,,,,,00049,001,2026-01-25_11h05.12.347,MST_task,2024.2.0,60.0809891675925,2026-01-25 11h05.32.799168 +0530,
,Objects\186a.jpg,61,0,62,,,,,,,f,1.8531972000491805,0.16699959995457903,None,,,,,,62,0,61,341.7544792999979,,,,,,,,,,,,,,,,,,,,,,,341.738232099975,341.7544792999979,342.23799029999645,,,,,,,,,,,,342.25475269998424,,,,,,,,,,,,,,,342.2475168000092,342.25475269998424,342.25475269998424,342.25475269998424,345.2382204000023,f,1.8531972000491805,0.16699959995457903,345.23827259999234,345.2382838000194,None,345.25441629998386,345.25441629998386,345.25441629998386,,,,,,,,,,,,,,00049,001,2026-01-25_11h05.12.347,MST_task,2024.2.0,60.0809891675925,2026-01-25 11h05.32.799168 +0530,
,Objects\118a.jpg,62,0,63,,,,,,,f,1.0640169000253081,0.16899480001302436,None,,,,,,63,0,62,345.25441629998386,,,,,,,,,,,,,,,,,,,,,,,345.23834729997907,345.25441629998386,345.73792280000634,,,,,,,,,,,,345.75467529997695,,,,,,,,,,,,,,,345.74741260003066,345.75467529997695,345.75467529997695,345.75467529997695,348.7384429000085,f,1.0640169000253081,0.16899480001302436,348.738494499994,348.7385055000195,None,348.7545909000328,348.7545909000328,348.7545909000328,,,,,,,,,,,,,,00049,001,2026-01-25_11h05.12.347,MST_task,2024.2.0,60.0809891675925,2026-01-25 11h05.32.799168 +0530,
,Scenes\177a.jpg,63,0,64,,,,,,,j,0.7870325000258163,0.14424409996718168,None,,,,,,64,0,63,348.7545909000328,,,,,,,,,,,,,,,,,,,,,,,348.7385709999944,348.7545909000328,349.2381578999921,,,,,,,,,,,,349.255538300029,,,,,,,,,,,,,,,349.2532104999991,349.255538300029,349.255538300029,349.255538300029,352.2548311999999,j,0.7870325000258163,0.14424409996718168,352.25489500002004,352.25490770000033,None,,,,,,,,,,,,,,,,,00049,001,2026-01-25_11h05.12.347,MST_task,2024.2.0,60.0809891675925,2026-01-25 11h05.32.799168 +0530,
,Scenes\192a.jpg,64,0,65,,,,,,,j,1.8451835000305437,0.12859239999670535,None,,,,,,65,0,64,352.27111169998534,,,,,,,,,,,,,,,,,,,,,,,352.2549797000247,352.27111169998534,352.75480519997654,,,,,,,,,,,,352.7729353000177,,,,,,,,,,,,,,,352.770550700021,352.7729353000177,352.7729353000177,352.7729353000177,355.7714906000183,j,1.8451835000305437,0.12859239999670535,355.7715444000205,355.7715562999947,None,,,,,,,,,,,,,,,,,00049,001,2026-01-25_11h05.12.347,MST_task,2024.2.0,60.0809891675925,2026-01-25 11h05.32.799168 +0530,
,Scenes\174a.jpg,65,0,66,,,,,,,j,0.9586015000240877,0.10435109998797998,None,,,,,,66,0,65,355.78784250002354,,,,,,,,,,,,,,,,,,,,,,,355.7716230999795,355.78784250002354,356.27150209998945,,,,,,,,,,,,356.29200459999265,,,,,,,,,,,,,,,356.28956120001385,356.29200459999265,356.29200459999265,356.29200459999265,359.2882007000153,j,0.9586015000240877,0.10435109998797998,359.2882530000061,359.28827319998527,None,,,,,,,,,,,,,,,,,00049,001,2026-01-25_11h05.12.347,MST_task,2024.2.0,60.0809891675925,2026-01-25 11h05.32.799168 +0530,
,Scenes\033a.jpg,66,0,67,,,,,,,j,0.6770303000230342,0.1282022999948822,None,,,,,,67,0,66,359.3045069000218,,,,,,,,,,,,,,,,,,,,,,,359.28834389999975,359.3045069000218,359.78816430002917,,,,,,,,,,,,359.80510599998524,,,,,,,,,,,,,,,359.798774600029,359.80510599998524,359.80510599998524,359.80510599998524,362.78854079998564,j,0.6770303000230342,0.1282022999948822,362.78859379998175,362.78860470000654,None,362.8045907000196,362.8045907000196,362.8045907000196,,,,,,,,,,,,,,00049,001,2026-01-25_11h05.12.347,MST_task,2024.2.0,60.0809891675925,2026-01-25 11h05.32.799168 +0530,
,Scenes\095a.jpg,67,0,68,,,,,,,f,2.192796899995301,0.2001548000262119,None,,,,,,68,0,67,362.8045907000196,,,,,,,,,,,,,,,,,,,,,,,362.78866989997914,362.8045907000196,363.2880845000036,,,,,,,,,,,,363.3056132000056,,,,,,,,,,,,,,,363.3032365000108,363.3056132000056,363.3056132000056,363.3056132000056,366.2884802999906,f,2.192796899995301,0.2001548000262119,366.2885318999761,366.28854310000315,None,366.3045765000279,366.3045765000279,366.3045765000279,,,,,,,,,,,,,,00049,001,2026-01-25_11h05.12.347,MST_task,2024.2.0,60.0809891675925,2026-01-25 11h05.32.799168 +0530,
,Scenes\145a.jpg,68,0,69,,,,,,,j,1.730414199992083,0.14332820003619418,None,,,,,,69,0,68,366.3045765000279,,,,,,,,,,,,,,,,,,,,,,,366.2886278000078,366.3045765000279,366.7881432999857,,,,,,,,,,,,366.8083358000149,,,,,,,,,,,,,,,366.8059519000235,366.8083358000149,366.8083358000149,366.8083358000149,369.8048805000144,j,1.730414199992083,0.14332820003619418,369.80493079998996,369.80494270002237,None,,,,,,,,,,,,,,,,,00049,001,2026-01-25_11h05.12.347,MST_task,2024.2.0,60.0809891675925,2026-01-25 11h05.32.799168 +0530,
,Scenes\170a.jpg,69,0,70,,,,,,,j,1.484817499993369,0.14390560000902042,None,,,,,,70,0,69,369.82130200002575,,,,,,,,,,,,,,,,,,,,,,,369.8050307999947,369.82130200002575,370.3047965000151,,,,,,,,,,,,370.32596560003003,,,,,,,,,,,,,,,370.32356069999514,370.32596560003003,370.32596560003003,370.32596560003003,373.3214123999933,j,1.484817499993369,0.14390560000902042,373.3214653999894,373.3214776000241,None,,,,,,,,,,,,,,,,,00049,001,2026-01-25_11h05.12.347,MST_task,2024.2.0,60.0809891675925,2026-01-25 11h05.32.799168 +0530,
,Objects\059a.jpg,70,0,71,,,,,,,f,0.9083654000423849,0.17523419996723533,None,,,,,,71,0,70,373.337815899984,,,,,,,,,,,,,,,,,,,,,,,373.3215471000294,373.337815899984,373.82150979997823,,,,,,,,,,,,373.838441400032,,,,,,,,,,,,,,,373.8322007000097,373.838441400032,373.838441400032,373.838441400032,376.8219610999804,f,0.9083654000423849,0.17523419996723533,376.8220250000013,376.8220373999793,None,376.8376363000134,376.8376363000134,376.8376363000134,,,,,,,,,,,,,,00049,001,2026-01-25_11h05.12.347,MST_task,2024.2.0,60.0809891675925,2026-01-25 11h05.32.799168 +0530,
,Objects\168a.jpg,71,0,72,,,,,,,f,2.2650442000012845,0.2239617999875918,None,,,,,,72,0,71,376.8376363000134,,,,,,,,,,,,,,,,,,,,,,,376.8221299999859,376.8376363000134,377.32137750001857,,,,,,,,,,,,377.33789670001715,,,,,,,,,,,,,,,377.3306904999772,377.33789670001715,377.33789670001715,377.33789670001715,380.3215909000137,f,2.2650442000012845,0.2239617999875918,380.32164149999153,380.3216522000148,None,380.3376414999948,380.3376414999948,380.3376414999948,,,,,,,,,,,,,,00049,001,2026-01-25_11h05.12.347,MST_task,2024.2.0,60.0809891675925,2026-01-25 11h05.32.799168 +0530,
,Objects\094a.jpg,72,0,73,,,,,,,f,1.0450194000150077,0.1919804000062868,None,,,,,,73,0,72,380.3376414999948,,,,,,,,,,,,,,,,,,,,,,,380.32173590001184,380.3376414999948,380.82124949997524,,,,,,,,,,,,380.8378457999788,,,,,,,,,,,,,,,380.8312433999963,380.8378457999788,380.8378457999788,380.8378457999788,383.8217683000257,f,1.0450194000150077,0.1919804000062868,383.82181789999595,383.8218292000238,None,383.83763750002254,383.83763750002254,383.83763750002254,,,,,,,,,,,,,,00049,001,2026-01-25_11h05.12.347,MST_task,2024.2.0,60.0809891675925,2026-01-25 11h05.32.799168 +0530,
,Objects\061a.jpg,73,0,74,,,,,,,j,1.6486200999934226,0.16820249997545034,None,,,,,,74,0,73,383.83763750002254,,,,,,,,,,,,,,,,,,,,,,,383.82191589998547,383.83763750002254,384.32132009998895,,,,,,,,,,,,384.3380505000241,,,,,,,,,,,,,,,384.3312659999938,384.3380505000241,384.3380505000241,384.3380505000241,387.32175659999484,j,1.6486200999934226,0.16820249997545034,387.32181510003284,387.3218268000055,None,387.33770839998033,387.33770839998033,387.33770839998033,,,,,,,,,,,,,,00049,001,2026-01-25_11h05.12.347,MST_task,2024.2.0,60.0809891675925,2026-01-25 11h05.32.799168 +0530,
,Objects\097a.jpg,74,0,75,,,,,,,j,1.228338899964001,0.1519990000524558,None,,,,,,75,0,74,387.33770839998033,,,,,,,,,,,,,,,,,,,,,,,387.3219173999969,387.33770839998033,387.82202179997694,,,,,,,,,,,,387.837984999991,,,,,,,,,,,,,,,387.8316762999748,387.837984999991,387.837984999991,387.837984999991,390.82164899999043,j,1.228338899964001,0.1519990000524558,390.82171099999687,390.8217228000285,None,390.83764470001915,390.83764470001915,390.83764470001915,,,,,,,,,,,,,,00049,001,2026-01-25_11h05.12.347,MST_task,2024.2.0,60.0809891675925,2026-01-25 11h05.32.799168 +0530,
,Objects\055a.jpg,75,0,76,,,,,,,f,2.640789400029462,0.1679975999868475,None,,,,,,76,0,75,390.83764470001915,,,,,,,,,,,,,,,,,,,,,,,390.8217931999825,390.83764470001915,391.3213729999843,,,,,,,,,,,,391.3378385999822,,,,,,,,,,,,,,,391.3309720000252,391.3378385999822,391.3378385999822,391.3378385999822,394.32170020003105,f,2.640789400029462,0.1679975999868475,394.3217521000188,394.32176279998384,None,394.33765010000207,394.33765010000207,394.33765010000207,,,,,,,,,,,,,,00049,001,2026-01-25_11h05.12.347,MST_task,2024.2.0,60.0809891675925,2026-01-25 11h05.32.799168 +0530,
,Objects\034a.jpg,76,0,77,,,,,,,f,1.7487341999658383,0.14399880002019927,None,,,,,,77,0,76,394.33765010000207,,,,,,,,,,,,,,,,,,,,,,,394.32182820001617,394.33765010000207,394.82143710000673,,,,,,,,,,,,394.8379652000149,,,,,,,,,,,,,,,394.8314442000119,394.8379652000149,394.8379652000149,394.8379652000149,397.82160030002706,f,1.7487341999658383,0.14399880002019927,397.8216552999802,397.82166660000803,None,397.8376994000282,397.8376994000282,397.8376994000282,,,,,,,,,,,,,,00049,001,2026-01-25_11h05.12.347,MST_task,2024.2.0,60.0809891675925,2026-01-25 11h05.32.799168 +0530,
,Scenes\047a.jpg,77,0,78,,,,,,,j,0.9088575000059791,0.13582530000712723,None,,,,,,78,0,77,397.8376994000282,,,,,,,,,,,,,,,,,,,,,,,397.8217493999982,397.8376994000282,398.32138069998473,,,,,,,,,,,,398.34175540000433,,,,,,,,,,,,,,,398.33932869997807,398.34175540000433,398.34175540000433,398.34175540000433,401.33801810001023,j,0.9088575000059791,0.13582530000712723,401.3380691999919,401.33808140002657,None,,,,,,,,,,,,,,,,,00049,001,2026-01-25_11h05.12.347,MST_task,2024.2.0,60.0809891675925,2026-01-25 11h05.32.799168 +0530,
,Scenes\037a.jpg,78,0,79,,,,,,,j,2.115612299996428,0.1360586999799125,None,,,,,,79,0,78,401.35445570002776,,,,,,,,,,,,,,,,,,,,,,,401.33816990000196,401.35445570002776,401.8378856999916,,,,,,,,,,,,401.85515989997657,,,,,,,,,,,,,,,401.85065759997815,401.85515989997657,401.85515989997657,401.85515989997657,404.83835149998777,j,2.115612299996428,0.1360586999799125,404.83840180002153,404.83841289998963,None,404.85439799999585,404.85439799999585,404.85439799999585,,,,,,,,,,,,,,00049,001,2026-01-25_11h05.12.347,MST_task,2024.2.0,60.0809891675925,2026-01-25 11h05.32.799168 +0530,
,Scenes\075a.jpg,79,0,80,,,,,,,j,1.9997466999921016,0.1600927000399679,None,,,,,,80,0,79,404.85439799999585,,,,,,,,,,,,,,,,,,,,,,,404.83847750001587,404.85439799999585,405.33803749998333,,,,,,,,,,,,405.35508960002335,,,,,,,,,,,,,,,405.35144769999897,405.35508960002335,405.35508960002335,405.35508960002335,408.3383904999937,j,1.9997466999921016,0.1600927000399679,408.3384529000032,408.3384644999751,None,408.3545231000171,408.3545231000171,408.3545231000171,,,,,,,,,,,,,,00049,001,2026-01-25_11h05.12.347,MST_task,2024.2.0,60.0809891675925,2026-01-25 11h05.32.799168 +0530,
,Scenes\089a.jpg,80,0,81,,,,,,,j,1.062450399971567,0.1520515000447631,None,,,,,,81,0,80,408.3545231000171,,,,,,,,,,,,,,,,,,,,,,,408.3385572999832,408.3545231000171,408.8381519999821,,,,,,,,,,,,408.86072489997605,,,,,,,,,,,,,,,408.85835809999844,408.86072489997605,408.86072489997605,408.86072489997605,411.85470050002914,j,1.062450399971567,0.1520515000447631,411.8548074000282,411.8548346000025,None,,,,,,,,,,,,,,,,,00049,001,2026-01-25_11h05.12.347,MST_task,2024.2.0,60.0809891675925,2026-01-25 11h05.32.799168 +0530,
,Scenes\100a.jpg,81,0,82,,,,,,,f,1.2264112000120804,0.18399410002166405,None,,,,,,82,0,81,411.8712237,,,,,,,,,,,,,,,,,,,,,,,411.85491370002273,411.8712237,412.35471879999386,,,,,,,,,,,,412.3760104000103,,,,,,,,,,,,,,,412.37329900002806,412.3760104000103,412.3760104000103,412.3760104000103,415.3712966000312,f,1.2264112000120804,0.18399410002166405,415.37134820001666,415.3713602999924,None,,,,,,,,,,,,,,,,,00049,001,2026-01-25_11h05.12.347,MST_task,2024.2.0,60.0809891675925,2026-01-25 11h05.32.799168 +0530,
,Scenes\123a.jpg,82,0,83,,,,,,,j,0.8984485999681056,0.17599820002214983,None,,,,,,83,0,82,415.38770750002004,,,,,,,,,,,,,,,,,,,,,,,415.3714480000199,415.38770750002004,415.8713175000157,,,,,,,,,,,,415.88831369997934,,,,,,,,,,,,,,,415.8839708000305,415.88831369997934,415.88831369997934,415.88831369997934,418.87158979999367,j,0.8984485999681056,0.17599820002214983,418.87164060003124,418.8716518000001,None,418.8875764000113,418.8875764000113,418.8875764000113,,,,,,,,,,,,,,00049,001,2026-01-25_11h05.12.347,MST_task,2024.2.0,60.0809891675925,2026-01-25 11h05.32.799168 +0530,
,Scenes\138a.jpg,83,0,84,,,,,,,j,2.4538770000217482,0.1272760999854654,None,,,,,,84,0,83,418.8875764000113,,,,,,,,,,,,,,,,,,,,,,,418.8717423999915,418.8875764000113,419.37143380002817,,,,,,,,,,,,419.38908340001944,,,,,,,,,,,,,,,419.3867865999928,419.38908340001944,419.38908340001944,419.38908340001944,422.38788759999443,j,2.4538770000217482,0.1272760999854654,422.3879373000236,422.38794889999554,None,,,,,,,,,,,,,,,,,00049,001,2026-01-25_11h05.12.347,MST_task,2024.2.0,60.0809891675925,2026-01-25 11h05.32.799168 +0530,
,Objects\073a.jpg,84,0,85,,,,,,,f,1.9860597000224516,0.1519721999648027,None,,,,,,85,0,84,422.4044456999982,,,,,,,,,,,,,,,,,,,,,,,422.3880356000154,422.4044456999982,422.8879015999846,,,,,,,,,,,,422.90493399999104,,,,,,,,,,,,,,,422.8979822000256,422.90493399999104,422.90493399999104,422.90493399999104,425.8884272000287,f,1.9860597000224516,0.1519721999648027,425.88847820000956,425.8884889999754,None,425.9044332000194,425.9044332000194,425.9044332000194,,,,,,,,,,,,,,00049,001,2026-01-25_11h05.12.347,MST_task,2024.2.0,60.0809891675925,2026-01-25 11h05.32.799168 +0530,
,Objects\014a.jpg,85,0,86,,,,,,,f,1.1341259999899194,0.16809710004599765,None,,,,,,86,0,85,425.9044332000194,,,,,,,,,,,,,,,,,,,,,,,425.88857270003064,425.9044332000194,426.38786399998935,,,,,,,,,,,,426.404717300029,,,,,,,,,,,,,,,426.39779730001464,426.404717300029,426.404717300029,426.404717300029,429.38823059998685,f,1.1341259999899194,0.16809710004599765,429.3882897000294,429.38830120000057,None,429.40443310001865,429.40443310001865,429.40443310001865,,,,,,,,,,,,,,00049,001,2026-01-25_11h05.12.347,MST_task,2024.2.0,60.0809891675925,2026-01-25 11h05.32.799168 +0530,
,Objects\032a.jpg,86,0,87,,,,,,,j,1.3534079000237398,0.13695899996673688,None,,,,,,87,0,86,429.40443310001865,,,,,,,,,,,,,,,,,,,,,,,429.3883898999775,429.40443310001865,429.8879226000281,,,,,,,,,,,,429.9046826999984,,,,,,,,,,,,,,,429.8975447000121,429.9046826999984,429.9046826999984,429.9046826999984,432.888188300014,j,1.3534079000237398,0.13695899996673688,432.8882394999964,432.8882502000197,None,432.9043974999804,432.9043974999804,432.9043974999804,,,,,,,,,,,,,,00049,001,2026-01-25_11h05.12.347,MST_task,2024.2.0,60.0809891675925,2026-01-25 11h05.32.799168 +0530,
,Objects\001a.jpg,87,0,88,,,,,,,f,1.07010780001292,0.16799990000436082,None,,,,,,88,0,87,432.9043974999804,,,,,,,,,,,,,,,,,,,,,,,432.88833749998594,432.9043974999804,433.3878782999818,,,,,,,,,,,,433.4046254000277,,,,,,,,,,,,,,,433.39733880001586,433.4046254000277,433.4046254000277,433.4046254000277,436.38822550000623,f,1.07010780001292,0.16799990000436082,436.38827539997874,436.38828600000124,None,436.40444970002864,436.40444970002864,436.40444970002864,,,,,,,,,,,,,,00049,001,2026-01-25_11h05.12.347,MST_task,2024.2.0,60.0809891675925,2026-01-25 11h05.32.799168 +0530,
,Objects\160a.jpg,88,0,89,,,,,,,f,2.425923699978739,0.19212960003642365,None,,,,,,89,0,88,436.40444970002864,,,,,,,,,,,,,,,,,,,,,,,436.3883503000252,436.40444970002864,436.88785699999426,,,,,,,,,,,,436.9046810999862,,,,,,,,,,,,,,,436.8976686000242,436.9046810999862,436.9046810999862,436.9046810999862,439.88816959998803,f,2.425923699978739,0.19212960003642365,439.88822130003246,439.888231799996,None,439.904448700021,439.904448700021,439.904448700021,,,,,,,,,,,,,,00049,001,2026-01-25_11h05.12.347,MST_task,2024.2.0,60.0809891675925,2026-01-25 11h05.32.799168 +0530,
,Objects\053a.jpg,89,0,90,,,,,,,f,1.3415410000015981,0.17648990004090592,None,,,,,,90,0,89,439.904448700021,,,,,,,,,,,,,,,,,,,,,,,439.88829580001766,439.904448700021,440.38789070001803,,,,,,,,,,,,440.4046807999839,,,,,,,,,,,,,,,440.3977174999891,440.4046807999839,440.4046807999839,440.4046807999839,443.38816620002035,f,1.3415410000015981,0.17648990004090592,443.3882186000119,443.3882294999785,None,443.40443900000537,443.40443900000537,443.40443900000537,,,,,,,,,,,,,,00049,001,2026-01-25_11h05.12.347,MST_task,2024.2.0,60.0809891675925,2026-01-25 11h05.32.799168 +0530,
,Objects\102a.jpg,90,0,91,,,,,,,f,1.939069699961692,0.12782590003916994,None,,,,,,91,0,90,443.40443900000537,,,,,,,,,,,,,,,,,,,,,,,443.3883127000299,443.40443900000537,443.88794290000806,,,,,,,,,,,,443.9046831000014,,,,,,,,,,,,,,,443.8978184000007,443.9046831000014,443.9046831000014,443.9046831000014,446.88816670002416,f,1.939069699961692,0.12782590003916994,446.8882178000058,446.8882289000321,None,446.9044470000081,446.9044470000081,446.9044470000081,,,,,,,,,,,,,,00049,001,2026-01-25_11h05.12.347,MST_task,2024.2.0,60.0809891675925,2026-01-25 11h05.32.799168 +0530,
,Scenes\163a.jpg,91,0,92,,,,,,,j,0.9823017000453547,0.15970939997350797,None,,,,,,92,0,91,446.9044470000081,,,,,,,,,,,,,,,,,,,,,,,446.8882928999956,446.9044470000081,447.38786840002285,,,,,,,,,,,,447.4049022999825,,,,,,,,,,,,,,,447.40104660001816,447.4049022999825,447.4049022999825,447.4049022999825,450.38818200002424,j,0.9823017000453547,0.15970939997350797,450.38823430001503,450.38824539998313,None,450.40442919998895,450.40442919998895,450.40442919998895,,,,,,,,,,,,,,00049,001,2026-01-25_11h05.12.347,MST_task,2024.2.0,60.0809891675925,2026-01-25 11h05.32.799168 +0530,
,Scenes\126a.jpg,92,0,93,,,,,,,j,1.753035000001546,0.12723069998901337,None,,,,,,93,0,92,450.40442919998895,,,,,,,,,,,,,,,,,,,,,,,450.38833390001673,450.40442919998895,450.8878697999753,,,,,,,,,,,,450.9058927000151,,,,,,,,,,,,,,,450.90379509999184,450.9058927000151,450.9058927000151,450.9058927000151,453.90461680002045,j,1.753035000001546,0.12723069998901337,453.9046686000074,453.9046800999786,None,,,,,,,,,,,,,,,,,00049,001,2026-01-25_11h05.12.347,MST_task,2024.2.0,60.0809891675925,2026-01-25 11h05.32.799168 +0530,
,Scenes\147a.jpg,93,0,94,,,,,,,j,1.389007500023581,0.12076080002589151,None,,,,,,94,0,93,453.9210880000028,,,,,,,,,,,,,,,,,,,,,,,453.9047685000114,453.9210880000028,454.40460980002536,,,,,,,,,,,,454.42136719997507,,,,,,,,,,,,,,,454.41731280001113,454.42136719997507,454.42136719997507,454.42136719997507,457.4052150999778,j,1.389007500023581,0.12076080002589151,457.40527809999185,457.40529030002654,None,457.42114140000194,457.42114140000194,457.42114140000194,,,,,,,,,,,,,,00049,001,2026-01-25_11h05.12.347,MST_task,2024.2.0,60.0809891675925,2026-01-25 11h05.32.799168 +0530,
,Scenes\059a.jpg,94,0,95,,,,,,,j,2.6128544000093825,0.11899839999387041,None,,,,,,95,0,94,457.42114140000194,,,,,,,,,,,,,,,,,,,,,,,457.4053869000054,457.42114140000194,457.9047196999891,,,,,,,,,,,,457.92686649999814,,,,,,,,,,,,,,,457.9245626999764,457.92686649999814,457.92686649999814,457.92686649999814,460.9213658000226,j,2.6128544000093825,0.11899839999387041,460.9214218999841,460.92143400001805,None,,,,,,,,,,,,,,,,,00049,001,2026-01-25_11h05.12.347,MST_task,2024.2.0,60.0809891675925,2026-01-25 11h05.32.799168 +0530,
,Scenes\040a.jpg,95,0,96,,,,,,,f,0.9991613000165671,0.14399929996579885,None,,,,,,96,0,95,460.9376917000045,,,,,,,,,,,,,,,,,,,,,,,460.9215237000026,460.9376917000045,461.4213190000155,,,,,,,,,,,,461.4431248999899,,,,,,,,,,,,,,,461.44080789998407,461.4431248999899,461.4431248999899,461.4431248999899,464.43795420002425,f,0.9991613000165671,0.14399929996579885,464.4380073000211,464.4380191999953,None,,,,,,,,,,,,,,,,,00049,001,2026-01-25_11h05.12.347,MST_task,2024.2.0,60.0809891675925,2026-01-25 11h05.32.799168 +0530,
,Scenes\078a.jpg,96,0,97,,,,,,,None,,,j,0.9754435999784619,None,,,,97,0,96,464.4543886000174,,,,,,,,,,,,,,,,,,,,,,,464.4381089999806,464.4543886000174,464.9380433000042,,,,,,,,,,,,464.95855370000936,,,,,,,,,,,,,,,464.9561539000133,464.95855370000936,464.95855370000936,464.95855370000936,467.9547956000315,None,,,467.95484329998726,468.95528809999814,j,,,,467.97119409998413,467.97119409998413,0.9754435999784619,None,,,,,,,,,,00049,001,2026-01-25_11h05.12.347,MST_task,2024.2.0,60.0809891675925,2026-01-25 11h05.32.799168 +0530,
,Scenes\092a.jpg,97,0,98,,,,,,,j,1.745498400006909,0.17600179999135435,None,,,,,,98,0,97,468.971126599994,,,,,,,,,,,,,,,,,,,,,,,468.9554060000228,468.971126599994,469.4548297000001,,,,,,,,,,,,469.47307549999095,,,,,,,,,,,,,,,469.47059510002146,469.47307549999095,469.47307549999095,469.47307549999095,472.47135210002307,j,1.745498400006909,0.17600179999135435,472.4714038000093,472.4714160999865,None,,,,,,,,,,,,,,,,,00049,001,2026-01-25_11h05.12.347,MST_task,2024.2.0,60.0809891675925,2026-01-25 11h05.32.799168 +0530,
,Objects\149a.jpg,98,0,99,,,,,,,f,0.9266224000020884,0.15948349999962375,None,,,,,,99,0,98,472.48783900000853,,,,,,,,,,,,,,,,,,,,,,,472.4714829000295,472.48783900000853,472.971474400023,,,,,,,,,,,,472.9883733000024,,,,,,,,,,,,,,,472.9845563999843,472.9883733000024,472.9883733000024,472.9883733000024,475.97168539999984,f,0.9266224000020884,0.15948349999962375,475.9717379999929,475.97174930002075,None,475.9878414000268,475.9878414000268,475.9878414000268,,,,,,,,,,,,,,00049,001,2026-01-25_11h05.12.347,MST_task,2024.2.0,60.0809891675925,2026-01-25 11h05.32.799168 +0530,
,Objects\040a.jpg,99,0,100,,,,,,,f,0.8658918000292033,0.19257259997539222,None,,,,,,100,0,99,475.9878414000268,,,,,,,,,,,,,,,,,,,,,,,475.97183699999005,475.9878414000268,476.47163729998283,,,,,,,,,,,,476.48809350002557,,,,,,,,,,,,,,,476.48220700002275,476.48809350002557,476.48809350002557,476.48809350002557,479.4717318000039,f,0.8658918000292033,0.19257259997539222,479.4717813000316,479.4717920999974,None,479.48774940002477,479.48774940002477,479.48774940002477,,,,,,,,,,,,,,00049,001,2026-01-25_11h05.12.347,MST_task,2024.2.0,60.0809891675925,2026-01-25 11h05.32.799168 +0530,
,Objects\013a.jpg,100,0,101,,,,,,,f,1.4785648999968544,0.1519939000136219,None,,,,,,101,0,100,479.48774940002477,,,,,,,,,,,,,,,,,,,,,,,479.471857800032,479.48774940002477,479.9714283000212,,,,,,,,,,,,479.98796450003283,,,,,,,,,,,,,,,479.9805619000108,479.98796450003283,479.98796450003283,479.98796450003283,482.97171539999545,f,1.4785648999968544,0.1519939000136219,482.97176819999004,482.97177930001635,None,482.9877821999835,482.9877821999835,482.9877821999835,,,,,,,,,,,,,,00049,001,2026-01-25_11h05.12.347,MST_task,2024.2.0,60.0809891675925,2026-01-25 11h05.32.799168 +0530,
,Objects\170a.jpg,101,0,102,,,,,,,f,1.266014599998016,0.17617029999382794,None,,,,,,102,0,101,482.9877821999835,,,,,,,,,,,,,,,,,,,,,,,482.9718451999943,482.9877821999835,483.4715712000034,,,,,,,,,,,,483.4880916000111,,,,,,,,,,,,,,,483.4813569000107,483.4880916000111,483.4880916000111,483.4880916000111,486.4718363999855,f,1.266014599998016,0.17617029999382794,486.47189829999115,486.4719103000243,None,486.48784279997926,486.48784279997926,486.48784279997926,,,,,,,,,,,,,,00049,001,2026-01-25_11h05.12.347,MST_task,2024.2.0,60.0809891675925,2026-01-25 11h05.32.799168 +0530,
,Objects\062a.jpg,102,0,103,,,,,,,f,1.8138963999808766,0.1680563999689184,None,,,,,,103,0,102,486.48784279997926,,,,,,,,,,,,,,,,,,,,,,,486.4719791000243,486.48784279997926,486.97148870001547,,,,,,,,,,,,486.98811710003065,,,,,,,,,,,,,,,486.9812281000195,486.98811710003065,486.98811710003065,486.98811710003065,489.9717451999895,f,1.8138963999808766,0.1680563999689184,489.97179789998336,489.97180900000967,None,489.98778179998044,489.98778179998044,489.98778179998044,,,,,,,,,,,,,,00049,001,2026-01-25_11h05.12.347,MST_task,2024.2.0,60.0809891675925,2026-01-25 11h05.32.799168 +0530,
,Objects\167a.jpg,103,0,104,,,,,,,f,1.778425500029698,0.13598530000308529,None,,,,,,104,0,103,489.98778179998044,,,,,,,,,,,,,,,,,,,,,,,489.9718740999815,489.98778179998044,490.47140849998686,,,,,,,,,,,,490.48815900000045,,,,,,,,,,,,,,,490.48116850003134,490.48815900000045,490.48815900000045,490.48815900000045,493.4717549000052,f,1.778425500029698,0.13598530000308529,493.47180649999063,493.4718175000162,None,493.48783380002715,493.48783380002715,493.48783380002715,,,,,,,,,,,,,,00049,001,2026-01-25_11h05.12.347,MST_task,2024.2.0,60.0809891675925,2026-01-25 11h05.32.799168 +0530,
,Objects\108a.jpg,104,0,105,,,,,,,f,2.1581833999953233,0.13620770000852644,None,,,,,,105,0,104,493.48783380002715,,,,,,,,,,,,,,,,,,,,,,,493.47188279998954,493.48783380002715,493.9714916999801,,,,,,,,,,,,493.9882057000068,,,,,,,,,,,,,,,493.98127739998745,493.9882057000068,493.9882057000068,493.9882057000068,496.97183460003,f,2.1581833999953233,0.13620770000852644,496.9718866000185,496.9718975999858,None,496.98778590001166,496.98778590001166,496.98778590001166,,,,,,,,,,,,,,00049,001,2026-01-25_11h05.12.347,MST_task,2024.2.0,60.0809891675925,2026-01-25 11h05.32.799168 +0530,
,Scenes\130a.jpg,105,0,106,,,,,,,j,0.9335530999815091,0.13598950003506616,None,,,,,,106,0,105,496.98778590001166,,,,,,,,,,,,,,,,,,,,,,,496.971982499992,496.98778590001166,497.4715224999818,,,,,,,,,,,,497.493689200026,,,,,,,,,,,,,,,497.49120649998076,497.493689200026,497.493689200026,497.493689200026,500.4881252999767,j,0.9335530999815091,0.13598950003506616,500.4881757000112,500.4881878999877,None,,,,,,,,,,,,,,,,,00049,001,2026-01-25_11h05.12.347,MST_task,2024.2.0,60.0809891675925,2026-01-25 11h05.32.799168 +0530,
,Scenes\004a.jpg,106,0,107,,,,,,,j,2.1030850000097416,0.16087989998050034,None,,,,,,107,0,106,500.50446650001686,,,,,,,,,,,,,,,,,,,,,,,500.4882544000284,500.50446650001686,500.9881382000167,,,,,,,,,,,,501.0109710000106,,,,,,,,,,,,,,,501.0084047000273,501.0109710000106,501.0109710000106,501.0109710000106,504.00623880000785,j,2.1030850000097416,0.16087989998050034,504.00629290001234,504.0063046999858,None,,,,,,,,,,,,,,,,,00049,001,2026-01-25_11h05.12.347,MST_task,2024.2.0,60.0809891675925,2026-01-25 11h05.32.799168 +0530,
,Scenes\082a.jpg,107,0,108,,,,,,,f,1.6434059999883175,0.1280034999945201,None,,,,,,108,0,107,504.02118590002647,,,,,,,,,,,,,,,,,,,,,,,504.0063941000262,504.02118590002647,504.50477469997713,,,,,,,,,,,,504.52700860000914,,,,,,,,,,,,,,,504.52404440002283,504.52700860000914,504.52700860000914,504.52700860000914,507.52145579998614,f,1.6434059999883175,0.1280034999945201,507.5215083999792,507.52152050001314,None,,,,,,,,,,,,,,,,,00049,001,2026-01-25_11h05.12.347,MST_task,2024.2.0,60.0809891675925,2026-01-25 11h05.32.799168 +0530,
,Scenes\186a.jpg,108,0,109,,,,,,,j,1.5647201999672689,0.1589131000218913,None,,,,,,109,0,108,507.5378400000045,,,,,,,,,,,,,,,,,,,,,,,507.5216095999931,507.5378400000045,508.0213742000051,,,,,,,,,,,,508.0385191999958,,,,,,,,,,,,,,,508.0353135999758,508.0385191999958,508.0385191999958,508.0385191999958,511.0219058999792,j,1.5647201999672689,0.1589131000218913,511.0219636000111,511.02197400003206,None,511.0376499000122,511.0376499000122,511.0376499000122,,,,,,,,,,,,,,00049,001,2026-01-25_11h05.12.347,MST_task,2024.2.0,60.0809891675925,2026-01-25 11h05.32.799168 +0530,
,Scenes\190a.jpg,109,0,110,,,,,,,j,0.8999497999902815,0.12001890002284199,None,,,,,,110,0,109,511.0376499000122,,,,,,,,,,,,,,,,,,,,,,,511.02204329997767,511.0376499000122,511.5216080999817,,,,,,,,,,,,511.5424103999976,,,,,,,,,,,,,,,511.53991049999604,511.5424103999976,511.5424103999976,511.5424103999976,514.5380499000312,j,0.8999497999902815,0.12001890002284199,514.5381121999817,514.5381240000133,None,,,,,,,,,,,,,,,,,00049,001,2026-01-25_11h05.12.347,MST_task,2024.2.0,60.0809891675925,2026-01-25 11h05.32.799168 +0530,
,Scenes\143a.jpg,110,0,111,,,,,,,j,1.2788409999920987,0.1120548999751918,None,,,,,,111,0,110,514.5544651999953,,,,,,,,,,,,,,,,,,,,,,,514.5381920000073,514.5544651999953,515.0381106000277,,,,,,,,,,,,515.0591657999903,,,,,,,,,,,,,,,515.0568368000095,515.0591657999903,515.0591657999903,515.0591657999903,518.054802300001,j,1.2788409999920987,0.1120548999751918,518.0548561000032,518.0548678999767,None,,,,,,,,,,,,,,,,,00049,001,2026-01-25_11h05.12.347,MST_task,2024.2.0,60.0809891675925,2026-01-25 11h05.32.799168 +0530,
,Scenes\091a.jpg,111,0,112,,,,,,,j,0.8067266999860294,0.10400600003777072,None,,,,,,112,0,111,518.0711530999979,,,,,,,,,,,,,,,,,,,,,,,518.0549569000141,518.0711530999979,518.5547146000317,,,,,,,,,,,,518.5717901000171,,,,,,,,,,,,,,,518.5681296000257,518.5717901000171,518.5717901000171,518.5717901000171,521.555014099984,j,0.8067266999860294,0.10400600003777072,521.5550670999801,521.5550784000079,None,521.5712137999944,521.5712137999944,521.5712137999944,,,,,,,,,,,,,,00049,001,2026-01-25_11h05.12.347,MST_task,2024.2.0,60.0809891675925,2026-01-25 11h05.32.799168 +0530,
,Objects\114a.jpg,112,0,113,,,,,,,f,1.106695199967362,0.19176250003511086,None,,,,,,113,0,112,521.5712137999944,,,,,,,,,,,,,,,,,,,,,,,521.555171200016,521.5712137999944,522.0546937999898,,,,,,,,,,,,522.0715632999782,,,,,,,,,,,,,,,522.0653581999941,522.0715632999782,522.0715632999782,522.0715632999782,525.055095800024,f,1.106695199967362,0.19176250003511086,525.0551550000091,525.0551663999795,None,525.0711040000315,525.0711040000315,525.0711040000315,,,,,,,,,,,,,,00049,001,2026-01-25_11h05.12.347,MST_task,2024.2.0,60.0809891675925,2026-01-25 11h05.32.799168 +0530,
,Objects\050a.jpg,113,0,114,,,,,,,None,,,f,1.168425300042145,None,,,,114,0,113,525.0711040000315,,,,,,,,,,,,,,,,,,,,,,,525.0552333000232,525.0711040000315,525.554787800007,,,,,,,,,,,,525.5713073000079,,,,,,,,,,,,,,,525.5643395999796,525.5713073000079,525.5713073000079,525.5713073000079,528.555005799979,None,,,528.5550543999998,529.754842400027,f,528.5713753000018,528.5713753000018,528.5713753000018,528.5713753000018,528.5713753000018,1.168425300042145,None,,,,,,,,,,00049,001,2026-01-25_11h05.12.347,MST_task,2024.2.0,60.0809891675925,2026-01-25 11h05.32.799168 +0530,
,Objects\029a.jpg,114,0,115,,,,,,,f,2.3469448999967426,0.16800110001349822,None,,,,,,115,0,114,529.7710700000171,,,,,,,,,,,,,,,,,,,,,,,529.7549282999826,529.7710700000171,530.2545654000132,,,,,,,,,,,,530.2712408999796,,,,,,,,,,,,,,,530.2643265000079,530.2712408999796,530.2712408999796,530.2712408999796,533.255388199992,f,2.3469448999967426,0.16800110001349822,533.2554521000129,533.2554642999894,None,533.2711070000078,533.2711070000078,533.2711070000078,,,,,,,,,,,,,,00049,001,2026-01-25_11h05.12.347,MST_task,2024.2.0,60.0809891675925,2026-01-25 11h05.32.799168 +0530,
,Objects\113a.jpg,115,0,116,,,,,,,f,2.2791368999751285,0.11992240004474297,None,,,,,,116,0,115,533.2711070000078,,,,,,,,,,,,,,,,,,,,,,,533.255559000012,533.2711070000078,533.7546661000233,,,,,,,,,,,,533.7713641999871,,,,,,,,,,,,,,,533.7661382000078,533.7713641999871,533.7713641999871,533.7713641999871,536.7549481000169,f,2.2791368999751285,0.11992240004474297,536.7549988999963,536.7550101000234,None,536.7710705000209,536.7710705000209,536.7710705000209,,,,,,,,,,,,,,00049,001,2026-01-25_11h05.12.347,MST_task,2024.2.0,60.0809891675925,2026-01-25 11h05.32.799168 +0530,
,Objects\174a.jpg,116,0,117,,,,,,,f,1.2840070000384003,0.1429746999638155,None,,,,,,117,0,116,536.7710705000209,,,,,,,,,,,,,,,,,,,,,,,536.7550751999952,536.7710705000209,537.2545877000084,,,,,,,,,,,,537.2713280000025,,,,,,,,,,,,,,,537.2640614000265,537.2713280000025,537.2713280000025,537.2713280000025,540.2549557000166,f,1.2840070000384003,0.1429746999638155,540.255006899999,540.2550174000207,None,540.2710722999764,540.2710722999764,540.2710722999764,,,,,,,,,,,,,,00049,001,2026-01-25_11h05.12.347,MST_task,2024.2.0,60.0809891675925,2026-01-25 11h05.32.799168 +0530,
,Objects\022a.jpg,117,0,118,,,,,,,f,2.5029647999908775,0.136015199997928,None,,,,,,118,0,117,540.2710722999764,,,,,,,,,,,,,,,,,,,,,,,540.2551032999763,540.2710722999764,540.7546499000164,,,,,,,,,,,,540.7713879999937,,,,,,,,,,,,,,,540.7641645999975,540.7713879999937,540.7713879999937,540.7713879999937,543.7549602999934,f,2.5029647999908775,0.136015199997928,543.7550105000264,543.7550215999945,None,543.7710838000057,543.7710838000057,543.7710838000057,,,,,,,,,,,,,,00049,001,2026-01-25_11h05.12.347,MST_task,2024.2.0,60.0809891675925,2026-01-25 11h05.32.799168 +0530,
,Objects\005a.jpg,118,0,119,,,,,,,None,,,j,1.5239876999985427,None,,,,119,0,118,543.7710838000057,,,,,,,,,,,,,,,,,,,,,,,543.7550867000245,543.7710838000057,544.2546456999844,,,,,,,,,,,,544.2712551000295,,,,,,,,,,,,,,,544.264389900025,544.2712551000295,544.2712551000295,544.2712551000295,547.2550996000064,None,,,547.2551460000104,548.8047592000221,j,547.2710883999825,547.2710883999825,547.2710883999825,547.2710883999825,547.2710883999825,1.5239876999985427,None,,,,,,,,,,00049,001,2026-01-25_11h05.12.347,MST_task,2024.2.0,60.0809891675925,2026-01-25 11h05.32.799168 +0530,
,Scenes\151a.jpg,119,0,120,,,,,,,None,,,j,0.6172301000333391,None,,,,120,0,119,548.8210880000261,,,,,,,,,,,,,,,,,,,,,,,548.8048799000098,548.8210880000261,549.3045859999838,,,,,,,,,,,,549.3215670000063,,,,,,,,,,,,,,,549.3174828999909,549.3215670000063,549.3215670000063,549.3215670000063,552.3048760999809,None,,,552.304922899988,552.9548818999901,j,552.3210947000189,552.3210947000189,552.3210947000189,552.3210947000189,552.3210947000189,0.6172301000333391,None,,,,,,,,,,00049,001,2026-01-25_11h05.12.347,MST_task,2024.2.0,60.0809891675925,2026-01-25 11h05.32.799168 +0530,
,Scenes\029a.jpg,120,0,121,,,,,,,j,1.5401898000272922,0.14399710000725463,None,,,,,,121,0,120,552.9720168000204,,,,,,,,,,,,,,,,,,,,,,,552.9549692000146,552.9720168000204,553.4547127999831,,,,,,,,,,,,553.478039300011,,,,,,,,,,,,,,,553.4754119000281,553.478039300011,553.478039300011,553.478039300011,556.4712546999799,j,1.5401898000272922,0.14399710000725463,556.471309399989,556.4713211000198,None,,,,,,,,,,,,,,,,,00049,001,2026-01-25_11h05.12.347,MST_task,2024.2.0,60.0809891675925,2026-01-25 11h05.32.799168 +0530,
,Scenes\055a.jpg,121,0,122,,,,,,,j,2.461277100024745,0.1279897000058554,None,,,,,,122,0,121,556.4876548000029,,,,,,,,,,,,,,,,,,,,,,,556.4714088999899,556.4876548000029,556.9713984000264,,,,,,,,,,,,556.9888503000257,,,,,,,,,,,,,,,556.9868283999967,556.9888503000257,556.9888503000257,556.9888503000257,559.9714279000182,j,2.461277100024745,0.1279897000058554,559.9714801000082,559.9714917999809,None,,,,,,,,,,,,,,,,,00049,001,2026-01-25_11h05.12.347,MST_task,2024.2.0,60.0809891675925,2026-01-25 11h05.32.799168 +0530,
,Scenes\165a.jpg,122,0,123,,,,,,,j,2.1277086999616586,0.1520176000194624,None,,,,,,123,0,122,559.9876651000232,,,,,,,,,,,,,,,,,,,,,,,559.9715603999794,559.9876651000232,560.471301499987,,,,,,,,,,,,560.4904062999994,,,,,,,,,,,,,,,560.4882194999955,560.4904062999994,560.4904062999994,560.4904062999994,563.4878251000191,j,2.1277086999616586,0.1520176000194624,563.4878761,563.4878877000301,None,,,,,,,,,,,,,,,,,00049,001,2026-01-25_11h05.12.347,MST_task,2024.2.0,60.0809891675925,2026-01-25 11h05.32.799168 +0530,
,Scenes\134a.jpg,123,0,124,,,,,,,j,1.3835719000198878,0.14393709995783865,None,,,,,,124,0,123,563.5043987000245,,,,,,,,,,,,,,,,,,,,,,,563.4879555000225,563.5043987000245,563.9878103000228,,,,,,,,,,,,564.0105169999879,,,,,,,,,,,,,,,564.0081895000185,564.0105169999879,564.0105169999879,564.0105169999879,566.9879542000126,j,1.3835719000198878,0.14393709995783865,566.9880083000171,566.9880210999982,None,,,,,,,,,,,,,,,,,00049,001,2026-01-25_11h05.12.347,MST_task,2024.2.0,60.0809891675925,2026-01-25 11h05.32.799168 +0530,
,Scenes\110a.jpg,124,0,125,,,,,,,j,1.341927300032694,0.1275564999668859,None,,,,,,125,0,124,567.0043949999963,,,,,,,,,,,,,,,,,,,,,,,566.9881122999941,567.0043949999963,567.4878566000261,,,,,,,,,,,,567.5085568000213,,,,,,,,,,,,,,,567.5060198000283,567.5085568000213,567.5085568000213,567.5085568000213,570.5046220999793,j,1.341927300032694,0.1275564999668859,570.5046742000268,570.5046872000094,None,,,,,,,,,,,,,,,,,00049,001,2026-01-25_11h05.12.347,MST_task,2024.2.0,60.0809891675925,2026-01-25 11h05.32.799168 +0530,
,Scenes\035a.jpg,125,0,126,,,,,,,j,2.0261392999673262,0.15115390002029017,None,,,,,,126,0,125,570.5210535000078,,,,,,,,,,,,,,,,,,,,,,,570.5047774999985,570.5210535000078,571.0048029000172,,,,,,,,,,,,571.024781199987,,,,,,,,,,,,,,,571.0224828000064,571.024781199987,571.024781199987,571.024781199987,574.0065577999922,j,2.0261392999673262,0.15115390002029017,574.0066184999887,574.0066307000234,None,,,,,,,,,,,,,,,,,00049,001,2026-01-25_11h05.12.347,MST_task,2024.2.0,60.0809891675925,2026-01-25 11h05.32.799168 +0530,
,Objects\031a.jpg,126,0,127,,,,,,,f,2.1293680000235327,0.1919678999693133,None,,,,,,127,0,126,574.021033899975,,,,,,,,,,,,,,,,,,,,,,,574.0067006000318,574.021033899975,574.5047140999814,,,,,,,,,,,,574.5215106999967,,,,,,,,,,,,,,,574.5151954999892,574.5215106999967,574.5215106999967,574.5215106999967,577.5049852000084,f,2.1293680000235327,0.1919678999693133,577.5050373999984,577.5050481000217,None,577.5210831000004,577.5210831000004,577.5210831000004,,,,,,,,,,,,,,00049,001,2026-01-25_11h05.12.347,MST_task,2024.2.0,60.0809891675925,2026-01-25 11h05.32.799168 +0530,
,Objects\133a.jpg,127,0,128,,,,,,,f,1.6370496999588795,0.15181730000767857,None,,,,,,128,0,127,577.5210831000004,,,,,,,,,,,,,,,,,,,,,,,577.5051353999879,577.5210831000004,578.0048116000253,,,,,,,,,,,,578.0212589000002,,,,,,,,,,,,,,,578.0148166000145,578.0212589000002,578.0212589000002,578.0212589000002,581.0049850000069,f,1.6370496999588795,0.15181730000767857,581.0050448999973,581.0050566000282,None,581.021007400006,581.021007400006,581.021007400006,,,,,,,,,,,,,,00049,001,2026-01-25_11h05.12.347,MST_task,2024.2.0,60.0809891675925,2026-01-25 11h05.32.799168 +0530,
,Objects\184a.jpg,128,0,129,,,,,,,None,,,f,0.009488600015174598,None,,,,129,0,128,581.021007400006,,,,,,,,,,,,,,,,,,,,,,,581.0051249000244,581.021007400006,581.504675299977,,,,,,,,,,,,581.5212929000263,,,,,,,,,,,,,,,581.5145231999923,581.5212929000263,581.5212929000263,581.5212929000263,584.5049300999963,None,,,584.5049782000133,584.5380613000016,f,584.5210871000309,584.5210871000309,584.5210871000309,584.5210871000309,584.5210871000309,0.009488600015174598,None,,,,,,,,,,00049,001,2026-01-25_11h05.12.347,MST_task,2024.2.0,60.0809891675925,2026-01-25 11h05.32.799168 +0530,
,Objects\007a.jpg,129,0,130,,,,,,,f,1.0278103000018746,0.18424470000900328,None,,,,,,130,0,129,584.5543826000066,,,,,,,,,,,,,,,,,,,,,,,584.5381732999813,584.5543826000066,585.0378593999776,,,,,,,,,,,,585.054639799986,,,,,,,,,,,,,,,585.047372400004,585.054639799986,585.054639799986,585.054639799986,588.0383911000099,f,1.0278103000018746,0.18424470000900328,588.0384422999923,588.0384538000217,None,588.0544795999886,588.0544795999886,588.0544795999886,,,,,,,,,,,,,,00049,001,2026-01-25_11h05.12.347,MST_task,2024.2.0,60.0809891675925,2026-01-25 11h05.32.799168 +0530,
,Objects\150a.jpg,130,0,131,,,,,,,None,,,f,0.5915508000180125,None,,,,131,0,130,588.0544795999886,,,,,,,,,,,,,,,,,,,,,,,588.0385201000026,588.0544795999886,588.5380805000314,,,,,,,,,,,,588.5547911000322,,,,,,,,,,,,,,,588.5477249000105,588.5547911000322,588.5547911000322,588.5547911000322,591.5383980000042,None,,,591.5384488999844,592.1549185999902,f,591.5545389000326,591.5545389000326,591.5545389000326,591.5545389000326,591.5545389000326,0.5915508000180125,None,,,,,,,,,,00049,001,2026-01-25_11h05.12.347,MST_task,2024.2.0,60.0809891675925,2026-01-25 11h05.32.799168 +0530,
,Objects\071a.jpg,131,0,132,,,,,,,f,2.4669802999706008,0.1760710999951698,None,,,,,,132,0,131,592.171152600029,,,,,,,,,,,,,,,,,,,,,,,592.1550072000246,592.171152600029,592.6547234000172,,,,,,,,,,,,592.6713596999762,,,,,,,,,,,,,,,592.6659773000283,592.6713596999762,592.6713596999762,592.6713596999762,595.6551329999929,f,2.4669802999706008,0.1760710999951698,595.6551862999913,595.6551983000245,None,595.6711587000173,595.6711587000173,595.6711587000173,,,,,,,,,,,,,,00049,001,2026-01-25_11h05.12.347,MST_task,2024.2.0,60.0809891675925,2026-01-25 11h05.32.799168 +0530,
,Objects\175a.jpg,132,0,133,,,,,,,f,2.3353249999927357,0.1839806999778375,None,,,,,,133,0,132,595.6711587000173,,,,,,,,,,,,,,,,,,,,,,,595.6552816000185,595.6711587000173,596.154846200021,,,,,,,,,,,,596.1713701999979,,,,,,,,,,,,,,,596.1640585000277,596.1713701999979,596.1713701999979,596.1713701999979,599.1550160999759,f,2.3353249999927357,0.1839806999778375,599.1550673000165,599.1550782999839,None,599.1710922999773,599.1710922999773,599.1710922999773,,,,,,,,,,,,,,00049,001,2026-01-25_11h05.12.347,MST_task,2024.2.0,60.0809891675925,2026-01-25 11h05.32.799168 +0530,
,Scenes\012a.jpg,133,0,134,,,,,,,j,0.8545901000034064,0.15195329999551177,None,,,,,,134,0,133,599.1710922999773,,,,,,,,,,,,,,,,,,,,,,,599.1551422000048,599.1710922999773,599.6547108999803,,,,,,,,,,,,599.675903299998,,,,,,,,,,,,,,,599.6734560999903,599.675903299998,599.675903299998,599.675903299998,602.6714164000005,j,0.8545901000034064,0.15195329999551177,602.6714675999829,602.6714794000145,None,,,,,,,,,,,,,,,,,00049,001,2026-01-25_11h05.12.347,MST_task,2024.2.0,60.0809891675925,2026-01-25 11h05.32.799168 +0530,
,Scenes\036a.jpg,134,0,135,,,,,,,j,2.3661512000253424,0.16000989999156445,None,,,,,,135,0,134,602.6878266999847,,,,,,,,,,,,,,,,,,,,,,,602.6715684999945,602.6878266999847,603.1714019000065,,,,,,,,,,,,603.1883743000217,,,,,,,,,,,,,,,603.1831669000094,603.1883743000217,603.1883743000217,603.1883743000217,606.1718372000032,j,2.3661512000253424,0.16000989999156445,606.1719025999773,606.1719155000173,None,606.1876348999795,606.1876348999795,606.1876348999795,,,,,,,,,,,,,,00049,001,2026-01-25_11h05.12.347,MST_task,2024.2.0,60.0809891675925,2026-01-25 11h05.32.799168 +0530,
,Scenes\128a.jpg,135,0,136,,,,,,,j,1.1670606000116095,0.14501959999324754,None,,,,,,136,0,135,606.1876348999795,,,,,,,,,,,,,,,,,,,,,,,606.1719880999881,606.1876348999795,606.6713772999938,,,,,,,,,,,,606.6909907999798,,,,,,,,,,,,,,,606.6887384000001,606.6909907999798,606.6909907999798,606.6909907999798,609.6880717999884,j,1.1670606000116095,0.14501959999324754,609.688124599983,609.6881372000207,None,,,,,,,,,,,,,,,,,00049,001,2026-01-25_11h05.12.347,MST_task,2024.2.0,60.0809891675925,2026-01-25 11h05.32.799168 +0530,
,Scenes\180a.jpg,136,0,137,,,,,,,j,1.940435999946203,0.135932800010778,None,,,,,,137,0,136,609.7044446999789,,,,,,,,,,,,,,,,,,,,,,,609.6882257999969,609.7044446999789,610.1879340999876,,,,,,,,,,,,610.205645399983,,,,,,,,,,,,,,,610.203153599985,610.205645399983,610.205645399983,610.205645399983,613.2047059999895,j,1.940435999946203,0.135932800010778,613.2047567000263,613.2047678999952,None,,,,,,,,,,,,,,,,,00049,001,2026-01-25_11h05.12.347,MST_task,2024.2.0,60.0809891675925,2026-01-25 11h05.32.799168 +0530,
,Scenes\070a.jpg,137,0,138,,,,,,,j,1.7329908999963664,0.13597719999961555,None,,,,,,138,0,137,613.2211355000036,,,,,,,,,,,,,,,,,,,,,,,613.2048349999823,613.2211355000036,613.7048092000186,,,,,,,,,,,,613.7250475999899,,,,,,,,,,,,,,,613.7225449000252,613.7250475999899,613.7250475999899,613.7250475999899,616.7214514000225,j,1.7329908999963664,0.13597719999961555,616.7215027000057,616.7215144999791,None,,,,,,,,,,,,,,,,,00049,001,2026-01-25_11h05.12.347,MST_task,2024.2.0,60.0809891675925,2026-01-25 11h05.32.799168 +0530,
,Scenes\154a.jpg,138,0,139,,,,,,,j,2.0365416000131518,0.14299689995823428,None,,,,,,139,0,138,616.7383645999944,,,,,,,,,,,,,,,,,,,,,,,616.7216003999929,616.7383645999944,617.2213653000072,,,,,,,,,,,,617.238474200014,,,,,,,,,,,,,,,617.2345208000042,617.238474200014,617.238474200014,617.238474200014,620.2215886000195,j,2.0365416000131518,0.14299689995823428,620.2216411000118,620.2216520999791,None,620.2377144999919,620.2377144999919,620.2377144999919,,,,,,,,,,,,,,00049,001,2026-01-25_11h05.12.347,MST_task,2024.2.0,60.0809891675925,2026-01-25 11h05.32.799168 +0530,
,Scenes\007a.jpg,139,0,140,,,,,,,f,1.663690100016538,0.18397970002843067,None,,,,,,140,0,139,620.2377144999919,,,,,,,,,,,,,,,,,,,,,,,620.2217357999762,620.2377144999919,620.7214008999872,,,,,,,,,,,,620.738344900019,,,,,,,,,,,,,,,620.7346893000067,620.738344900019,620.738344900019,620.738344900019,623.7216546999989,f,1.663690100016538,0.18397970002843067,623.7217074999935,623.7217183000175,None,623.7378373999964,623.7378373999964,623.7378373999964,,,,,,,,,,,,,,00049,001,2026-01-25_11h05.12.347,MST_task,2024.2.0,60.0809891675925,2026-01-25 11h05.32.799168 +0530,
,Objects\100a.jpg,140,0,141,,,,,,,f,2.0204976000241004,0.19145039998693392,None,,,,,,141,0,140,623.7378373999964,,,,,,,,,,,,,,,,,,,,,,,623.7217892999761,623.7378373999964,624.2213844999787,,,,,,,,,,,,624.2382545000291,,,,,,,,,,,,,,,624.2316879000282,624.2382545000291,624.2382545000291,624.2382545000291,627.2221781000262,f,2.0204976000241004,0.19145039998693392,627.2222467000247,627.2222586999997,None,627.23782390001,627.23782390001,627.23782390001,,,,,,,,,,,,,,00049,001,2026-01-25_11h05.12.347,MST_task,2024.2.0,60.0809891675925,2026-01-25 11h05.32.799168 +0530,
,Objects\117a.jpg,141,0,142,,,,,,,f,2.600175100029446,0.1759893999551423,None,,,,,,142,0,141,627.23782390001,,,,,,,,,,,,,,,,,,,,,,,627.2223329999833,627.23782390001,627.7216032000142,,,,,,,,,,,,627.7380754000042,,,,,,,,,,,,,,,627.7312834999757,627.7380754000042,627.7380754000042,627.7380754000042,630.7216737000272,f,2.600175100029446,0.1759893999551423,630.7217287999811,630.7217398000066,None,630.7378140999936,630.7378140999936,630.7378140999936,,,,,,,,,,,,,,00049,001,2026-01-25_11h05.12.347,MST_task,2024.2.0,60.0809891675925,2026-01-25 11h05.32.799168 +0530,
,Objects\099a.jpg,142,0,143,,,,,,,f,2.3646423000027426,0.1593486000201665,None,,,,,,143,0,142,630.7378140999936,,,,,,,,,,,,,,,,,,,,,,,630.7218030000222,630.7378140999936,631.2214326999965,,,,,,,,,,,,631.238040999975,,,,,,,,,,,,,,,631.2312389999861,631.238040999975,631.238040999975,631.238040999975,634.2217303999932,f,2.3646423000027426,0.1593486000201665,634.2217824999825,634.2217938000103,None,634.2377659999765,634.2377659999765,634.2377659999765,,,,,,,,,,,,,,00049,001,2026-01-25_11h05.12.347,MST_task,2024.2.0,60.0809891675925,2026-01-25 11h05.32.799168 +0530,
,Objects\130a.jpg,143,0,144,,,,,,,f,1.185362400021404,0.15143670001998544,None,,,,,,144,0,143,634.2377659999765,,,,,,,,,,,,,,,,,,,,,,,634.2218579999753,634.2377659999765,634.7212884000037,,,,,,,,,,,,634.7379548000172,,,,,,,,,,,,,,,634.7311719999998,634.7379548000172,634.7379548000172,634.7379548000172,637.7216259000124,f,1.185362400021404,0.15143670001998544,637.7216784000047,637.7216894000303,None,637.7377963999752,637.7377963999752,637.7377963999752,,,,,,,,,,,,,,00049,001,2026-01-25_11h05.12.347,MST_task,2024.2.0,60.0809891675925,2026-01-25 11h05.32.799168 +0530,
,Objects\187a.jpg,144,0,145,,,,,,,f,1.8205635999911465,0.17702880001161247,None,,,,,,145,0,144,637.7377963999752,,,,,,,,,,,,,,,,,,,,,,,637.7217556000105,637.7377963999752,638.2213109000004,,,,,,,,,,,,638.2380601000041,,,,,,,,,,,,,,,638.2310589000117,638.2380601000041,638.2380601000041,638.2380601000041,641.2217144999886,f,1.8205635999911465,0.17702880001161247,641.2217777000042,641.2217894999776,None,641.2377027000184,641.2377027000184,641.2377027000184,,,,,,,,,,,,,,00049,001,2026-01-25_11h05.12.347,MST_task,2024.2.0,60.0809891675925,2026-01-25 11h05.32.799168 +0530,
,Objects\093a.jpg,145,0,146,,,,,,,j,1.3441272999625653,0.17599810002138838,None,,,,,,146,0,145,641.2377027000184,,,,,,,,,,,,,,,,,,,,,,,641.2218833999941,641.2377027000184,641.72140520002,,,,,,,,,,,,641.7380530000082,,,,,,,,,,,,,,,641.7308790999814,641.7380530000082,641.7380530000082,641.7380530000082,644.72168279998,j,1.3441272999625653,0.17599810002138838,644.721734300023,644.7217455999926,None,644.7376966000302,644.7376966000302,644.7376966000302,,,,,,,,,,,,,,00049,001,2026-01-25_11h05.12.347,MST_task,2024.2.0,60.0809891675925,2026-01-25 11h05.32.799168 +0530,
,Objects\120a.jpg,146,0,147,,,,,,,f,1.292997499986086,0.1680777000146918,None,,,,,,147,0,146,644.7376966000302,,,,,,,,,,,,,,,,,,,,,,,644.7218107000226,644.7376966000302,645.221299100027,,,,,,,,,,,,645.2379192999797,,,,,,,,,,,,,,,645.2307163000223,645.2379192999797,645.2379192999797,645.2379192999797,648.2215238999925,f,1.292997499986086,0.1680777000146918,648.2215765999863,648.2215877000126,None,648.2376533999923,648.2376533999923,648.2376533999923,,,,,,,,,,,,,,00049,001,2026-01-25_11h05.12.347,MST_task,2024.2.0,60.0809891675925,2026-01-25 11h05.32.799168 +0530,
,Scenes\150a.jpg,147,0,148,,,,,,,j,1.3673934999969788,0.11201230000006035,None,,,,,,148,0,147,648.2376533999923,,,,,,,,,,,,,,,,,,,,,,,648.2216516999761,648.2376533999923,648.721193299978,,,,,,,,,,,,648.73901140003,,,,,,,,,,,,,,,648.7366481000208,648.73901140003,648.73901140003,648.73901140003,651.7378430999815,j,1.3673934999969788,0.11201230000006035,651.737901000015,651.7379134999937,None,,,,,,,,,,,,,,,,,00049,001,2026-01-25_11h05.12.347,MST_task,2024.2.0,60.0809891675925,2026-01-25 11h05.32.799168 +0530,
,Scenes\019a.jpg,148,0,149,,,,,,,None,,,j,0.7324216000270098,None,,,,149,0,148,651.7543410999933,,,,,,,,,,,,,,,,,,,,,,,651.7380078000133,651.7543410999933,652.2379841000075,,,,,,,,,,,,652.2580936999875,,,,,,,,,,,,,,,652.2558714000043,652.2580936999875,652.2580936999875,652.2580936999875,655.2546077999868,None,,,655.2546551999985,656.0049252000172,j,,,,655.2709634000203,655.2709634000203,0.7324216000270098,None,,,,,,,,,,00049,001,2026-01-25_11h05.12.347,MST_task,2024.2.0,60.0809891675925,2026-01-25 11h05.32.799168 +0530,
,Scenes\116a.jpg,149,0,150,,,,,,,j,1.6246272000134923,0.13642289995914325,None,,,,,,150,0,149,656.021060900006,,,,,,,,,,,,,,,,,,,,,,,656.0050145999994,656.021060900006,656.5046836999827,,,,,,,,,,,,656.5215694999788,,,,,,,,,,,,,,,656.5183465000009,656.5215694999788,656.5215694999788,656.5215694999788,659.5048908999888,j,1.6246272000134923,0.13642289995914325,659.504942599975,659.5049533999991,None,659.5210062999977,659.5210062999977,659.5210062999977,,,,,,,,,,,,,,00049,001,2026-01-25_11h05.12.347,MST_task,2024.2.0,60.0809891675925,2026-01-25 11h05.32.799168 +0530,
,Scenes\097a.jpg,150,0,151,,,,,,,None,,,f,2.126363500021398,None,,,,151,0,150,659.5210062999977,,,,,,,,,,,,,,,,,,,,,,,659.5050381000037,659.5210062999977,660.0057472999906,,,,,,,,,,,,660.0214957999997,,,,,,,,,,,,,,,660.0160994000034,660.0214957999997,660.0214957999997,660.0214957999997,663.0056607000297,None,,,663.00570899999,665.1547609000118,f,,,,663.020996599982,663.020996599982,2.126363500021398,None,,,,,,,,,,00049,001,2026-01-25_11h05.12.347,MST_task,2024.2.0,60.0809891675925,2026-01-25 11h05.32.799168 +0530,
,Scenes\101a.jpg,151,0,152,,,,,,,None,,,j,0.6193118999945,None,,,,152,0,151,665.1710027999943,,,,,,,,,,,,,,,,,,,,,,,665.1548811999965,665.1710027999943,665.654594600026,,,,,,,,,,,,665.6718613000121,,,,,,,,,,,,,,,665.6694055999978,665.6718613000121,665.6718613000121,665.6718613000121,668.6549620000296,None,,,668.6550109999953,669.3047916999785,j,668.6710354000097,668.6710354000097,668.6710354000097,668.6710354000097,668.6710354000097,0.6193118999945,None,,,,,,,,,,00049,001,2026-01-25_11h05.12.347,MST_task,2024.2.0,60.0809891675925,2026-01-25 11h05.32.799168 +0530,
,Scenes\042a.jpg,152,0,153,,,,,,,j,1.8608195999986492,0.19216839998262003,None,,,,,,153,0,152,669.3210364999832,,,,,,,,,,,,,,,,,,,,,,,669.304876499984,669.3210364999832,669.8045366000151,,,,,,,,,,,,669.8212515999912,,,,,,,,,,,,,,,669.8183952000109,669.8212515999912,669.8212515999912,669.8212515999912,672.804835900024,j,1.8608195999986492,0.19216839998262003,672.8048881000141,672.8048998999875,None,672.821022499993,672.821022499993,672.821022499993,,,,,,,,,,,,,,00049,001,2026-01-25_11h05.12.347,MST_task,2024.2.0,60.0809891675925,2026-01-25 11h05.32.799168 +0530,
,Scenes\153a.jpg,153,0,154,,,,,,,j,0.9208009000285529,0.20810180000262335,None,,,,,,154,0,153,672.821022499993,,,,,,,,,,,,,,,,,,,,,,,672.8049647000153,672.821022499993,673.3046282000141,,,,,,,,,,,,673.3213314000168,,,,,,,,,,,,,,,673.3166827000096,673.3213314000168,673.3213314000168,673.3213314000168,676.3050384999951,j,0.9208009000285529,0.20810180000262335,676.3050968000316,676.3051076999982,None,676.3210248000105,676.3210248000105,676.3210248000105,,,,,,,,,,,,,,00049,001,2026-01-25_11h05.12.347,MST_task,2024.2.0,60.0809891675925,2026-01-25 11h05.32.799168 +0530,
,Objects\072a.jpg,154,0,155,,,,,,,f,2.1090522999875247,0.18399829999543726,None,,,,,,155,0,154,676.3210248000105,,,,,,,,,,,,,,,,,,,,,,,676.3051999000018,676.3210248000105,676.8045227000257,,,,,,,,,,,,676.821497500001,,,,,,,,,,,,,,,676.8151572999777,676.821497500001,676.821497500001,676.821497500001,679.8048637000029,f,2.1090522999875247,0.18399829999543726,679.8049148999853,679.8049258000101,None,679.8210511999787,679.8210511999787,679.8210511999787,,,,,,,,,,,,,,00049,001,2026-01-25_11h05.12.347,MST_task,2024.2.0,60.0809891675925,2026-01-25 11h05.32.799168 +0530,
,Objects\037a.jpg,155,0,156,,,,,,,f,1.529367999988608,0.16000270005315542,None,,,,,,156,0,155,679.8210511999787,,,,,,,,,,,,,,,,,,,,,,,679.8049988999846,679.8210511999787,680.3046183999977,,,,,,,,,,,,680.321266599989,,,,,,,,,,,,,,,680.3138009000104,680.321266599989,680.321266599989,680.321266599989,683.3049131000298,f,1.529367999988608,0.16000270005315542,683.3049664000282,683.3049770999933,None,683.3210291999858,683.3210291999858,683.3210291999858,,,,,,,,,,,,,,00049,001,2026-01-25_11h05.12.347,MST_task,2024.2.0,60.0809891675925,2026-01-25 11h05.32.799168 +0530,
,Objects\106a.jpg,156,0,157,,,,,,,f,2.3095560999936424,0.10399440000765026,None,,,,,,157,0,156,683.3210291999858,,,,,,,,,,,,,,,,,,,,,,,683.3050594999804,683.3210291999858,683.8046188000008,,,,,,,,,,,,683.8212613000069,,,,,,,,,,,,,,,683.8143434000085,683.8212613000069,683.8212613000069,683.8212613000069,686.8047536999802,f,2.3095560999936424,0.10399440000765026,686.8048108000075,686.8048221999779,None,686.8209962000255,686.8209962000255,686.8209962000255,,,,,,,,,,,,,,00049,001,2026-01-25_11h05.12.347,MST_task,2024.2.0,60.0809891675925,2026-01-25 11h05.32.799168 +0530,
,Objects\190a.jpg,157,0,158,,,,,,,f,1.2886974000139162,0.1689839999889955,None,,,,,,158,0,157,686.8209962000255,,,,,,,,,,,,,,,,,,,,,,,686.8049119000207,686.8209962000255,687.3047123000142,,,,,,,,,,,,687.3213511999929,,,,,,,,,,,,,,,687.314433099993,687.3213511999929,687.3213511999929,687.3213511999929,690.3048757999786,f,1.2886974000139162,0.1689839999889955,690.3049272000208,690.3049383999896,None,690.3210508999764,690.3210508999764,690.3210508999764,,,,,,,,,,,,,,00049,001,2026-01-25_11h05.12.347,MST_task,2024.2.0,60.0809891675925,2026-01-25 11h05.32.799168 +0530,
,Objects\058a.jpg,158,0,159,,,,,,,None,,,f,0.6134659999515861,None,,,,159,0,158,690.3210508999764,,,,,,,,,,,,,,,,,,,,,,,690.3050129999756,690.3210508999764,690.804537500022,,,,,,,,,,,,690.8213360999944,,,,,,,,,,,,,,,690.8140834000078,690.8213360999944,690.8213360999944,690.8213360999944,693.8048789000022,None,,,693.8049277000246,694.4379994000192,f,693.8210666999803,693.8210666999803,693.8210666999803,693.8210666999803,693.8210666999803,0.6134659999515861,None,,,,,,,,,,00049,001,2026-01-25_11h05.12.347,MST_task,2024.2.0,60.0809891675925,2026-01-25 11h05.32.799168 +0530,
,Objects\145a.jpg,159,0,160,,,,,,,f,1.0879406000021845,0.14399880002019927,None,,,,,,160,0,159,694.4543417000095,,,,,,,,,,,,,,,,,,,,,,,694.4380864999839,694.4543417000095,694.9378085000208,,,,,,,,,,,,694.9546241000062,,,,,,,,,,,,,,,694.9478394000325,694.9546241000062,694.9546241000062,694.9546241000062,697.9381838000263,f,1.0879406000021845,0.14399880002019927,697.938235300011,697.9382465999806,None,697.9543500000145,697.9543500000145,697.9543500000145,,,,,,,,,,,,,,00049,001,2026-01-25_11h05.12.347,MST_task,2024.2.0,60.0809891675925,2026-01-25 11h05.32.799168 +0530,
,Objects\039a.jpg,160,0,161,,,,,,,j,1.1475914999609813,0.16815480001969263,None,,,,,,161,0,160,697.9543500000145,,,,,,,,,,,,,,,,,,,,,,,697.9383318999899,697.9543500000145,698.4377901999978,,,,,,,,,,,,698.4546147999936,,,,,,,,,,,,,,,698.4469125000178,698.4546147999936,698.4546147999936,698.4546147999936,701.4382141000242,j,1.1475914999609813,0.16815480001969263,701.4382748000207,701.4382862999919,None,701.4543271000148,701.4543271000148,701.4543271000148,,,,,,,,,,,,,,00049,001,2026-01-25_11h05.12.347,MST_task,2024.2.0,60.0809891675925,2026-01-25 11h05.32.799168 +0530,
,Scenes\067a.jpg,161,0,162,,,,,,,f,1.5825410000397824,0.17600219999440014,None,,,,,,162,0,161,701.4543271000148,,,,,,,,,,,,,,,,,,,,,,,701.4383776999894,701.4543271000148,701.9381996000302,,,,,,,,,,,,701.9555181000032,,,,,,,,,,,,,,,701.9531168999965,701.9555181000032,701.9555181000032,701.9555181000032,704.954608400003,f,1.5825410000397824,0.17600219999440014,704.9546606999938,704.9546729000285,None,,,,,,,,,,,,,,,,,00049,001,2026-01-25_11h05.12.347,MST_task,2024.2.0,60.0809891675925,2026-01-25 11h05.32.799168 +0530,
,Scenes\068a.jpg,162,0,163,,,,,,,j,1.3039900999865495,0.11209280003095046,None,,,,,,163,0,162,704.9710095999762,,,,,,,,,,,,,,,,,,,,,,,704.9547616000054,704.9710095999762,705.4545831999858,,,,,,,,,,,,705.4739874000079,,,,,,,,,,,,,,,705.47156179999,705.4739874000079,705.4739874000079,705.4739874000079,708.4713080999791,j,1.3039900999865495,0.11209280003095046,708.4713608000311,708.471372400003,None,,,,,,,,,,,,,,,,,00049,001,2026-01-25_11h05.12.347,MST_task,2024.2.0,60.0809891675925,2026-01-25 11h05.32.799168 +0530,
