thisN,thisTrialN,thisRepN,key_resp_3.keys,key_resp_3.rt,key_resp_3.duration,trials.thisRepN,trials.thisTrialN,trials.thisN,thisRow.t,notes,intro_page.started,text.started,key_resp.started,intro_page.stopped,key_resp.keys,key_resp.rt,key_resp.duration,instructions.started,text_2.started,key_resp_2.started,instructions.stopped,key_resp_2.keys,key_resp_2.rt,key_resp_2.duration,demo1.started,image_1.started,image_2.started,text_7.started,key_resp_6.started,text_9.started,demo1.stopped,key_resp_6.keys,key_resp_6.rt,key_resp_6.duration,demo2.started,image_5.started,image_6.started,text_11.started,text_12.started,key_resp_8.started,demo2.stopped,key_resp_8.keys,key_resp_8.rt,key_resp_8.duration,demo_conclusion.started,text_13.started,key_resp_9.started,demo_conclusion.stopped,key_resp_9.keys,key_resp_9.rt,key_resp_9.duration,start_test.started,text_6.started,key_resp_5.started,start_test.stopped,key_resp_5.keys,key_resp_5.rt,key_resp_5.duration,ISI.started,text_4.started,text_4.stopped,ISI.stopped,routine_1.started,image.started,text_3.started,key_resp_3.started,routine_1.stopped,image_path,position_of_stimuli,trials.key_resp_3.keys,trials.key_resp_3.rt,trials.key_resp_3.duration,End_page.started,text_5.started,key_resp_4.started,End_page.stopped,key_resp_4.keys,key_resp_4.rt,key_resp_4.duration,participant,session,date,expName,psychopyVersion,frameRate,expStart,
,,,,,,,,,,,0.0011674000415951014,0.0037455999990925193,0.0037455999990925193,3.3569155000150204,space,3.3309524999931455,None,,,,,,,,,,,,,,,,,,,,,,,,,,,,,,,,,,,,,,,,,,,,,,,,,,,,,,,,,,,,,,,00041,001,2026-01-23_19h17.51.467,MST_test,2024.2.0,59.960234369923235,2026-01-23 19h17.58.156743 +0530,
,,,,,,,,,,,,,,,,,,3.3569590999977663,3.3672511000186205,3.3672511000186205,18.63371330004884,space,15.263817699975334,None,,,,,,,,,,,,,,,,,,,,,,,,,,,,,,,,,,,,,,,,,,,,,,,,,,,,,,,,00041,001,2026-01-23_19h17.51.467,MST_test,2024.2.0,59.960234369923235,2026-01-23 19h17.58.156743 +0530,
,,,,,,,,,,,,,,,,,,,,,,,,,18.63382420002017,18.67293590004556,18.67293590004556,18.67293590004556,18.67293590004556,18.67293590004556,28.317368699994404,space,9.62993010005448,None,,,,,,,,,,,,,,,,,,,,,,,,,,,,,,,,,,,,,,,,,,,,,,00041,001,2026-01-23_19h17.51.467,MST_test,2024.2.0,59.960234369923235,2026-01-23 19h17.58.156743 +0530,
,,,,,,,,,,,,,,,,,,,,,,,,,,,,,,,,,,,28.317464800027665,28.333956599992234,28.333956599992234,28.333956599992234,28.333956599992234,28.333956599992234,33.66755850001937,space,5.321132600016426,None,,,,,,,,,,,,,,,,,,,,,,,,,,,,,,,,,,,,00041,001,2026-01-23_19h17.51.467,MST_test,2024.2.0,59.960234369923235,2026-01-23 19h17.58.156743 +0530,
,,,,,,,,,,,,,,,,,,,,,,,,,,,,,,,,,,,,,,,,,,,,,33.667711700021755,33.68316860002233,33.68316860002233,48.05044280004222,space,14.355956299987156,None,,,,,,,,,,,,,,,,,,,,,,,,,,,,,00041,001,2026-01-23_19h17.51.467,MST_test,2024.2.0,59.960234369923235,2026-01-23 19h17.58.156743 +0530,
,,,,,,,,,,,,,,,,,,,,,,,,,,,,,,,,,,,,,,,,,,,,,,,,,,,,48.05054210004164,48.06675570004154,48.06675570004154,122.75046400004067,space,74.66805860004388,None,,,,,,,,,,,,,,,,,,,,,,00041,001,2026-01-23_19h17.51.467,MST_test,2024.2.0,59.960234369923235,2026-01-23 19h17.58.156743 +0530,
0,0,1,o,3.061299700057134,None,1,0,0,122.76708100002725,,,,,,,,,,,,,,,,,,,,,,,,,,,,,,,,,,,,,,,,,,,,,,,,,,122.75592389999656,122.76708100002725,123.2730678000371,123.25034080003388,123.27061830001185,123.2730678000371,123.2730678000371,123.2730678000371,126.35057940002298,Objects\043a.jpg,mid,o,3.061299700057134,None,,,,,,,,00041,001,2026-01-23_19h17.51.467,MST_test,2024.2.0,59.960234369923235,2026-01-23 19h17.58.156743 +0530,
1,0,2,n,2.535670300014317,None,2,0,1,126.36650540004484,,,,,,,,,,,,,,,,,,,,,,,,,,,,,,,,,,,,,,,,,,,,,,,,,,126.3509413000429,126.36650540004484,126.87103460001526,126.85013320000144,126.86827229999471,126.87103460001526,126.87103460001526,126.87103460001526,129.41740750003373,Foils\scenes22.jpg,none,n,2.535670300014317,None,,,,,,,,00041,001,2026-01-23_19h17.51.467,MST_test,2024.2.0,59.960234369923235,2026-01-23 19h17.58.156743 +0530,
2,0,3,o,1.828748199972324,None,3,0,2,129.43334780004807,,,,,,,,,,,,,,,,,,,,,,,,,,,,,,,,,,,,,,,,,,,,,,,,,,129.41776139999274,129.43334780004807,129.93772030004766,129.91715749999275,129.93488519999664,129.93772030004766,129.93772030004766,129.93772030004766,131.76771650003502,Scenes\026a.jpg,post,o,1.828748199972324,None,,,,,,,,00041,001,2026-01-23_19h17.51.467,MST_test,2024.2.0,59.960234369923235,2026-01-23 19h17.58.156743 +0530,
3,0,4,n,2.7883053999976255,None,4,0,3,131.78333840001142,,,,,,,,,,,,,,,,,,,,,,,,,,,,,,,,,,,,,,,,,,,,,,,,,,131.76807240000926,131.78333840001142,132.3062381000491,132.26714260003064,132.30367390002357,132.3062381000491,132.3062381000491,132.3062381000491,135.1004399000085,Foils\scenes18.jpg,none,n,2.7883053999976255,None,,,,,,,,00041,001,2026-01-23_19h17.51.467,MST_test,2024.2.0,59.960234369923235,2026-01-23 19h17.58.156743 +0530,
4,0,5,o,5.187227299960796,None,5,0,4,135.1165249000187,,,,,,,,,,,,,,,,,,,,,,,,,,,,,,,,,,,,,,,,,,,,,,,,,,135.10079789999872,135.1165249000187,135.61930140003096,135.60047990002204,135.61648100003367,135.61930140003096,135.61930140003096,135.61930140003096,140.8172502000234,Scenes\110a.jpg,pre,o,5.187227299960796,None,,,,,,,,00041,001,2026-01-23_19h17.51.467,MST_test,2024.2.0,59.960234369923235,2026-01-23 19h17.58.156743 +0530,
5,0,6,o,1.2568890000111423,None,6,0,5,140.8331725000171,,,,,,,,,,,,,,,,,,,,,,,,,,,,,,,,,,,,,,,,,,,,,,,,,,140.81761200004257,140.8331725000171,141.33371249999618,141.31720970000606,141.32371950004017,141.33371249999618,141.33371249999618,141.33371249999618,142.60147230001166,Objects\007a.jpg,mid,o,1.2568890000111423,None,,,,,,,,00041,001,2026-01-23_19h17.51.467,MST_test,2024.2.0,59.960234369923235,2026-01-23 19h17.58.156743 +0530,
6,0,7,n,1.787553999980446,None,7,0,6,142.61655900004553,,,,,,,,,,,,,,,,,,,,,,,,,,,,,,,,,,,,,,,,,,,,,,,,,,142.6018280000426,142.61655900004553,143.14678150002146,143.10040620004293,143.14421370002674,143.14678150002146,143.14678150002146,143.14678150002146,144.95072990003973,Foils\020b.jpg,none,n,1.787553999980446,None,,,,,,,,00041,001,2026-01-23_19h17.51.467,MST_test,2024.2.0,59.960234369923235,2026-01-23 19h17.58.156743 +0530,
7,0,8,s,3.3387906000134535,None,8,0,7,144.96714620001148,,,,,,,,,,,,,,,,,,,,,,,,,,,,,,,,,,,,,,,,,,,,,,,,,,144.95108450000407,144.96714620001148,145.46773309999844,145.4505147000309,145.46535460004816,145.46773309999844,145.46773309999844,145.46773309999844,148.81739450001623,Scenes\160b.jpg,pre,s,3.3387906000134535,None,,,,,,,,00041,001,2026-01-23_19h17.51.467,MST_test,2024.2.0,59.960234369923235,2026-01-23 19h17.58.156743 +0530,
8,0,9,s,4.7814412000007,None,9,0,8,148.83332630002405,,,,,,,,,,,,,,,,,,,,,,,,,,,,,,,,,,,,,,,,,,,,,,,,,,148.81774820003193,148.83332630002405,149.35321040003328,149.31682609999552,149.35040019999724,149.35321040003328,149.35321040003328,149.35321040003328,154.15054940001573,Objects\142b.jpg,pre,s,4.7814412000007,None,,,,,,,,00041,001,2026-01-23_19h17.51.467,MST_test,2024.2.0,59.960234369923235,2026-01-23 19h17.58.156743 +0530,
9,0,10,s,1.6961618000059389,None,10,0,9,154.16658130002907,,,,,,,,,,,,,,,,,,,,,,,,,,,,,,,,,,,,,,,,,,,,,,,,,,154.15093560004607,154.16658130002907,154.69484690000536,154.65032780001638,154.692315399996,154.69484690000536,154.69484690000536,154.69484690000536,156.40104740002425,Scenes\130b.jpg,pre,s,1.6961618000059389,None,,,,,,,,00041,001,2026-01-23_19h17.51.467,MST_test,2024.2.0,59.960234369923235,2026-01-23 19h17.58.156743 +0530,
10,0,11,s,3.953366400033701,None,11,0,10,156.41711270000087,,,,,,,,,,,,,,,,,,,,,,,,,,,,,,,,,,,,,,,,,,,,,,,,,,156.4013984000194,156.41711270000087,156.91710560000502,156.90052500000456,156.90977210004348,156.91710560000502,156.91710560000502,156.91710560000502,160.88397970004007,Objects\051a.jpg,pre,s,3.953366400033701,None,,,,,,,,00041,001,2026-01-23_19h17.51.467,MST_test,2024.2.0,59.960234369923235,2026-01-23 19h17.58.156743 +0530,
11,0,12,s,3.219727999996394,None,12,0,11,160.90008590003708,,,,,,,,,,,,,,,,,,,,,,,,,,,,,,,,,,,,,,,,,,,,,,,,,,160.884332799993,160.90008590003708,161.40312259999337,161.38371230004122,161.40077530004783,161.40312259999337,161.40312259999337,161.40312259999337,164.6339698000229,Scenes\073b.jpg,post,s,3.219727999996394,None,,,,,,,,00041,001,2026-01-23_19h17.51.467,MST_test,2024.2.0,59.960234369923235,2026-01-23 19h17.58.156743 +0530,
12,0,13,s,3.016369500022847,None,13,0,12,164.65014290000545,,,,,,,,,,,,,,,,,,,,,,,,,,,,,,,,,,,,,,,,,,,,,,,,,,164.63432539999485,164.65014290000545,165.15001500002109,165.13374140002998,165.1469457000494,165.15001500002109,165.15001500002109,165.15001500002109,168.16760079999221,Scenes\116b.jpg,mid,s,3.016369500022847,None,,,,,,,,00041,001,2026-01-23_19h17.51.467,MST_test,2024.2.0,59.960234369923235,2026-01-23 19h17.58.156743 +0530,
13,0,14,s,7.962435399997048,None,14,0,13,168.18333700002404,,,,,,,,,,,,,,,,,,,,,,,,,,,,,,,,,,,,,,,,,,,,,,,,,,168.16797260002932,168.18333700002404,168.68395900004543,168.6671447000117,168.67992990004132,168.68395900004543,168.68395900004543,168.68395900004543,176.65155320003396,Scenes\077a.jpg,pre,s,7.962435399997048,None,,,,,,,,00041,001,2026-01-23_19h17.51.467,MST_test,2024.2.0,59.960234369923235,2026-01-23 19h17.58.156743 +0530,
14,0,15,o,3.360150899970904,None,15,0,14,176.66673520003678,,,,,,,,,,,,,,,,,,,,,,,,,,,,,,,,,,,,,,,,,,,,,,,,,,176.65190769999754,176.66673520003678,177.16724760003854,177.1504825000302,177.15845109999646,177.16724760003854,177.16724760003854,177.16724760003854,180.5341581000248,Objects\021a.jpg,pre,o,3.360150899970904,None,,,,,,,,00041,001,2026-01-23_19h17.51.467,MST_test,2024.2.0,59.960234369923235,2026-01-23 19h17.58.156743 +0530,
15,0,16,s,8.372877399960998,None,16,0,15,180.5497422000044,,,,,,,,,,,,,,,,,,,,,,,,,,,,,,,,,,,,,,,,,,,,,,,,,,180.5344996000058,180.5497422000044,181.05021060002036,181.03401750000194,181.03952570003457,181.05021060002036,181.05021060002036,181.05021060002036,189.4341495000408,Objects\161a.jpg,pre,s,8.372877399960998,None,,,,,,,,00041,001,2026-01-23_19h17.51.467,MST_test,2024.2.0,59.960234369923235,2026-01-23 19h17.58.156743 +0530,
16,0,17,n,3.728940600005444,None,17,0,16,189.4499124000431,,,,,,,,,,,,,,,,,,,,,,,,,,,,,,,,,,,,,,,,,,,,,,,,,,189.4345213000197,189.4499124000431,189.95002640003804,189.93338880001102,189.94201630004682,189.95002640003804,189.95002640003804,189.95002640003804,193.6839857000159,Foils\082a.jpg,none,n,3.728940600005444,None,,,,,,,,00041,001,2026-01-23_19h17.51.467,MST_test,2024.2.0,59.960234369923235,2026-01-23 19h17.58.156743 +0530,
17,0,18,o,2.07025099999737,None,18,0,17,193.70008670003153,,,,,,,,,,,,,,,,,,,,,,,,,,,,,,,,,,,,,,,,,,,,,,,,,,193.68433900002856,193.70008670003153,194.20010830002138,194.183330400032,194.19216010003584,194.20010830002138,194.20010830002138,194.20010830002138,196.2843009000062,Objects\152a.jpg,mid,o,2.07025099999737,None,,,,,,,,00041,001,2026-01-23_19h17.51.467,MST_test,2024.2.0,59.960234369923235,2026-01-23 19h17.58.156743 +0530,
18,0,19,s,2.6591789000085555,None,19,0,18,196.29998529999284,,,,,,,,,,,,,,,,,,,,,,,,,,,,,,,,,,,,,,,,,,,,,,,,,,196.28466410003603,196.29998529999284,196.8198137000436,196.78374810004607,196.8172748000361,196.8198137000436,196.8198137000436,196.8198137000436,199.48404160002246,Objects\147b.jpg,mid,s,2.6591789000085555,None,,,,,,,,00041,001,2026-01-23_19h17.51.467,MST_test,2024.2.0,59.960234369923235,2026-01-23 19h17.58.156743 +0530,
19,0,20,o,3.821979900007136,None,20,0,19,199.49989760003518,,,,,,,,,,,,,,,,,,,,,,,,,,,,,,,,,,,,,,,,,,,,,,,,,,199.48444110003766,199.49989760003518,200.000406200008,199.98374590004096,199.99306710000383,200.000406200008,200.000406200008,200.000406200008,203.83402380003827,Objects\095a.jpg,mid,o,3.821979900007136,None,,,,,,,,00041,001,2026-01-23_19h17.51.467,MST_test,2024.2.0,59.960234369923235,2026-01-23 19h17.58.156743 +0530,
20,0,21,s,1.6811331000062637,None,21,0,20,203.85097520001,,,,,,,,,,,,,,,,,,,,,,,,,,,,,,,,,,,,,,,,,,,,,,,,,,203.83444430003874,203.85097520001,204.35026269999798,204.33375770004932,204.3475515000173,204.35026269999798,204.35026269999798,204.35026269999798,206.03410500002792,Scenes\173b.jpg,post,s,1.6811331000062637,None,,,,,,,,00041,001,2026-01-23_19h17.51.467,MST_test,2024.2.0,59.960234369923235,2026-01-23 19h17.58.156743 +0530,
21,0,22,s,6.995683800021652,None,22,0,21,206.05082950001815,,,,,,,,,,,,,,,,,,,,,,,,,,,,,,,,,,,,,,,,,,,,,,,,,,206.0344559000223,206.05082950001815,206.57066970004234,206.533649399993,206.56743370002368,206.57066970004234,206.57066970004234,206.57066970004234,213.5676880000392,Foils\093b.jpg,none,s,6.995683800021652,None,,,,,,,,00041,001,2026-01-23_19h17.51.467,MST_test,2024.2.0,59.960234369923235,2026-01-23 19h17.58.156743 +0530,
22,0,23,n,9.394989499996882,None,23,0,22,213.58389110001735,,,,,,,,,,,,,,,,,,,,,,,,,,,,,,,,,,,,,,,,,,,,,,,,,,213.56804770004237,213.58389110001735,214.083473900042,214.0668117000023,214.07237549999263,214.083473900042,214.083473900042,214.083473900042,223.48403180000605,Foils\scenes14.jpg,none,n,9.394989499996882,None,,,,,,,,00041,001,2026-01-23_19h17.51.467,MST_test,2024.2.0,59.960234369923235,2026-01-23 19h17.58.156743 +0530,
23,0,24,n,4.998524900001939,None,24,0,23,223.5000910999952,,,,,,,,,,,,,,,,,,,,,,,,,,,,,,,,,,,,,,,,,,,,,,,,,,223.48441520001506,223.5000910999952,223.99997609999264,223.9837512000231,223.99290620000102,223.99997609999264,223.99997609999264,223.99997609999264,229.00036900001578,Foils\scenes13.jpg,none,n,4.998524900001939,None,,,,,,,,00041,001,2026-01-23_19h17.51.467,MST_test,2024.2.0,59.960234369923235,2026-01-23 19h17.58.156743 +0530,
24,0,25,s,4.617436400032602,None,25,0,24,229.01657140004681,,,,,,,,,,,,,,,,,,,,,,,,,,,,,,,,,,,,,,,,,,,,,,,,,,229.0007176999934,229.01657140004681,229.51677859999472,229.50048190000234,229.5076751000015,229.51677859999472,229.51677859999472,229.51677859999472,234.15052810002817,Foils\018a.jpg,none,s,4.617436400032602,None,,,,,,,,00041,001,2026-01-23_19h17.51.467,MST_test,2024.2.0,59.960234369923235,2026-01-23 19h17.58.156743 +0530,
25,0,26,o,1.7959263999946415,None,26,0,25,234.16642840002896,,,,,,,,,,,,,,,,,,,,,,,,,,,,,,,,,,,,,,,,,,,,,,,,,,234.15088570001535,234.16642840002896,,234.65075730002718,234.66350800002692,234.66696090000914,234.66696090000914,234.66696090000914,236.4674035999924,Scenes\075a.jpg,post,o,1.7959263999946415,None,,,,,,,,00041,001,2026-01-23_19h17.51.467,MST_test,2024.2.0,59.960234369923235,2026-01-23 19h17.58.156743 +0530,
26,0,27,s,8.599918399995659,None,27,0,26,236.4833581999992,,,,,,,,,,,,,,,,,,,,,,,,,,,,,,,,,,,,,,,,,,,,,,,,,,236.46775579999667,236.4833581999992,,236.96773870004108,236.98004759999458,236.9835180999944,236.9835180999944,236.9835180999944,245.60089930001413,Foils\034a.jpg,none,s,8.599918399995659,None,,,,,,,,00041,001,2026-01-23_19h17.51.467,MST_test,2024.2.0,59.960234369923235,2026-01-23 19h17.58.156743 +0530,
27,0,28,s,8.20149099995615,None,28,0,27,245.61679120000917,,,,,,,,,,,,,,,,,,,,,,,,,,,,,,,,,,,,,,,,,,,,,,,,,,245.60125870001502,245.61679120000917,246.1169554000371,246.10050910001155,246.1088774999953,246.1169554000371,246.1169554000371,246.1169554000371,254.33377369999653,Objects\186a.jpg,mid,s,8.20149099995615,None,,,,,,,,00041,001,2026-01-23_19h17.51.467,MST_test,2024.2.0,59.960234369923235,2026-01-23 19h17.58.156743 +0530,
28,0,29,o,1.9646097000222653,None,29,0,28,254.35009520000312,,,,,,,,,,,,,,,,,,,,,,,,,,,,,,,,,,,,,,,,,,,,,,,,,,254.33413070003735,254.35009520000312,254.8503134000348,254.83375370001886,254.84285459999228,254.8503134000348,254.8503134000348,254.8503134000348,256.8171765000443,Objects\110a.jpg,post,o,1.9646097000222653,None,,,,,,,,00041,001,2026-01-23_19h17.51.467,MST_test,2024.2.0,59.960234369923235,2026-01-23 19h17.58.156743 +0530,
29,0,30,s,2.745355999970343,None,30,0,29,256.83335420000367,,,,,,,,,,,,,,,,,,,,,,,,,,,,,,,,,,,,,,,,,,,,,,,,,,256.8175283000455,256.83335420000367,257.3655875000404,257.3172129000304,257.36259010003414,257.3655875000404,257.3655875000404,257.3655875000404,260.11776850000024,Objects\080b.jpg,mid,s,2.745355999970343,None,,,,,,,,00041,001,2026-01-23_19h17.51.467,MST_test,2024.2.0,59.960234369923235,2026-01-23 19h17.58.156743 +0530,
30,0,31,s,3.0525551000027917,None,31,0,30,260.13342369999737,,,,,,,,,,,,,,,,,,,,,,,,,,,,,,,,,,,,,,,,,,,,,,,,,,260.11812660004944,260.13342369999737,260.63365239999257,260.61725700000534,260.6251565000275,260.63365239999257,260.63365239999257,260.63365239999257,263.7007867000066,Foils\050a.jpg,none,s,3.0525551000027917,None,,,,,,,,00041,001,2026-01-23_19h17.51.467,MST_test,2024.2.0,59.960234369923235,2026-01-23 19h17.58.156743 +0530,
31,0,32,o,2.054616299981717,None,32,0,31,263.7167570000165,,,,,,,,,,,,,,,,,,,,,,,,,,,,,,,,,,,,,,,,,,,,,,,,,,263.7011429000413,263.7167570000165,264.24029350001365,264.20043210004224,264.23803040001076,264.24029350001365,264.24029350001365,264.24029350001365,266.3004659000435,Objects\133b.jpg,pre,o,2.054616299981717,None,,,,,,,,00041,001,2026-01-23_19h17.51.467,MST_test,2024.2.0,59.960234369923235,2026-01-23 19h17.58.156743 +0530,
32,0,33,o,1.2614752000081353,None,33,0,32,266.3174976000446,,,,,,,,,,,,,,,,,,,,,,,,,,,,,,,,,,,,,,,,,,,,,,,,,,266.30083310004557,266.3174976000446,266.8168789000483,266.8002635000157,266.8089433000423,266.8168789000483,266.8168789000483,266.8168789000483,268.083856900048,Objects\089a.jpg,mid,o,1.2614752000081353,None,,,,,,,,00041,001,2026-01-23_19h17.51.467,MST_test,2024.2.0,59.960234369923235,2026-01-23 19h17.58.156743 +0530,
33,0,34,o,1.8602499999688007,None,34,0,33,268.09980230004294,,,,,,,,,,,,,,,,,,,,,,,,,,,,,,,,,,,,,,,,,,,,,,,,,,268.0842246999964,268.09980230004294,268.63443350000307,268.58367429999635,268.6320007000468,268.63443350000307,268.63443350000307,268.63443350000307,270.500822800037,Objects\132b.jpg,post,o,1.8602499999688007,None,,,,,,,,00041,001,2026-01-23_19h17.51.467,MST_test,2024.2.0,59.960234369923235,2026-01-23 19h17.58.156743 +0530,
34,0,35,s,1.770988899981603,None,35,0,34,270.5164103000425,,,,,,,,,,,,,,,,,,,,,,,,,,,,,,,,,,,,,,,,,,,,,,,,,,270.50117370003136,270.5164103000425,271.0357272000401,271.0004303000169,271.03336750000017,271.0357272000401,271.0357272000401,271.0357272000401,272.8175628000172,Objects\071b.jpg,mid,s,1.770988899981603,None,,,,,,,,00041,001,2026-01-23_19h17.51.467,MST_test,2024.2.0,59.960234369923235,2026-01-23 19h17.58.156743 +0530,
35,0,36,s,1.959916100022383,None,36,0,35,272.8334521999932,,,,,,,,,,,,,,,,,,,,,,,,,,,,,,,,,,,,,,,,,,,,,,,,,,272.81792669999413,272.8334521999932,273.33446520002326,273.31686070002615,273.3253610000247,273.33446520002326,273.33446520002326,273.33446520002326,275.3010599000263,Objects\052b.jpg,post,s,1.959916100022383,None,,,,,,,,00041,001,2026-01-23_19h17.51.467,MST_test,2024.2.0,59.960234369923235,2026-01-23 19h17.58.156743 +0530,
36,0,37,o,3.192744300002232,None,37,0,36,275.3170628999942,,,,,,,,,,,,,,,,,,,,,,,,,,,,,,,,,,,,,,,,,,,,,,,,,,275.3014125000336,275.3170628999942,275.8381168000051,275.800501300022,275.83567840000615,275.8381168000051,275.8381168000051,275.8381168000051,279.0339213000261,Scenes\112b.jpg,mid,o,3.192744300002232,None,,,,,,,,00041,001,2026-01-23_19h17.51.467,MST_test,2024.2.0,59.960234369923235,2026-01-23 19h17.58.156743 +0530,
37,0,38,s,1.6225850000046194,None,38,0,37,279.0499469000497,,,,,,,,,,,,,,,,,,,,,,,,,,,,,,,,,,,,,,,,,,,,,,,,,,279.0342693999992,279.0499469000497,279.5758077999926,279.53422910004156,279.5731908000307,279.5758077999926,279.5758077999926,279.5758077999926,281.20040540001355,Scenes\167b.jpg,mid,s,1.6225850000046194,None,,,,,,,,00041,001,2026-01-23_19h17.51.467,MST_test,2024.2.0,59.960234369923235,2026-01-23 19h17.58.156743 +0530,
38,0,39,s,1.7369471999700181,None,39,0,38,281.2168537999969,,,,,,,,,,,,,,,,,,,,,,,,,,,,,,,,,,,,,,,,,,,,,,,,,,281.2007576000178,281.2168537999969,281.7173223000136,281.7004940000479,281.7099737999961,281.7173223000136,281.7173223000136,281.7173223000136,283.46678610000527,Objects\167b.jpg,pre,s,1.7369471999700181,None,,,,,,,,00041,001,2026-01-23_19h17.51.467,MST_test,2024.2.0,59.960234369923235,2026-01-23 19h17.58.156743 +0530,
39,0,40,o,4.702623600023799,None,40,0,39,283.4834058000124,,,,,,,,,,,,,,,,,,,,,,,,,,,,,,,,,,,,,,,,,,,,,,,,,,283.46711730002426,283.4834058000124,283.98365330003435,283.9670854000142,283.97534480004106,283.98365330003435,283.98365330003435,283.98365330003435,288.70074230001774,Objects\143a.jpg,mid,o,4.702623600023799,None,,,,,,,,00041,001,2026-01-23_19h17.51.467,MST_test,2024.2.0,59.960234369923235,2026-01-23 19h17.58.156743 +0530,
40,0,41,s,1.9579400999937207,None,41,0,40,288.71670960000483,,,,,,,,,,,,,,,,,,,,,,,,,,,,,,,,,,,,,,,,,,,,,,,,,,288.7010927000083,288.71670960000483,289.232954600011,289.20048970001517,289.2307681000093,289.232954600011,289.232954600011,289.232954600011,291.200834200019,Objects\163b.jpg,mid,s,1.9579400999937207,None,,,,,,,,00041,001,2026-01-23_19h17.51.467,MST_test,2024.2.0,59.960234369923235,2026-01-23 19h17.58.156743 +0530,
41,0,42,s,2.4233622000319883,None,42,0,41,291.2166817000252,,,,,,,,,,,,,,,,,,,,,,,,,,,,,,,,,,,,,,,,,,,,,,,,,,291.20119009999325,291.2166817000252,291.7193299999926,291.7000661000493,291.71703970001545,291.7193299999926,291.7193299999926,291.7193299999926,294.1507573000272,Scenes\040a.jpg,post,s,2.4233622000319883,None,,,,,,,,00041,001,2026-01-23_19h17.51.467,MST_test,2024.2.0,59.960234369923235,2026-01-23 19h17.58.156743 +0530,
42,0,43,s,1.3276041999924928,None,43,0,42,294.16702789999545,,,,,,,,,,,,,,,,,,,,,,,,,,,,,,,,,,,,,,,,,,,,,,,,,,294.15111310000066,294.16702789999545,294.68719250004506,294.65049890003866,294.68402780004544,294.68719250004506,294.68719250004506,294.68719250004506,296.01694880001014,Objects\029b.jpg,pre,s,1.3276041999924928,None,,,,,,,,00041,001,2026-01-23_19h17.51.467,MST_test,2024.2.0,59.960234369923235,2026-01-23 19h17.58.156743 +0530,
43,0,44,n,1.2003813000046648,None,44,0,43,296.0334427000489,,,,,,,,,,,,,,,,,,,,,,,,,,,,,,,,,,,,,,,,,,,,,,,,,,296.01730840001255,296.0334427000489,296.53385190002155,296.51710060000187,296.52642980002565,296.53385190002155,296.53385190002155,296.53385190002155,297.75075950002065,Scenes\053b.jpg,mid,n,1.2003813000046648,None,,,,,,,,00041,001,2026-01-23_19h17.51.467,MST_test,2024.2.0,59.960234369923235,2026-01-23 19h17.58.156743 +0530,
44,0,45,s,6.789769800030626,None,45,0,44,297.76652160001686,,,,,,,,,,,,,,,,,,,,,,,,,,,,,,,,,,,,,,,,,,,,,,,,,,297.75111730000935,297.76652160001686,298.27266590000363,298.25030150002567,298.2702194000012,298.27266590000363,298.27266590000363,298.27266590000363,305.0676489000325,Scenes\078a.jpg,mid,s,6.789769800030626,None,,,,,,,,00041,001,2026-01-23_19h17.51.467,MST_test,2024.2.0,59.960234369923235,2026-01-23 19h17.58.156743 +0530,
45,0,46,o,1.4699684000224806,None,46,0,45,305.083436200046,,,,,,,,,,,,,,,,,,,,,,,,,,,,,,,,,,,,,,,,,,,,,,,,,,305.06800640001893,305.083436200046,305.5849484000355,305.5669270000071,305.5824938000296,305.5849484000355,305.5849484000355,305.5849484000355,307.0671917000436,Scenes\146a.jpg,mid,o,1.4699684000224806,None,,,,,,,,00041,001,2026-01-23_19h17.51.467,MST_test,2024.2.0,59.960234369923235,2026-01-23 19h17.58.156743 +0530,
46,0,47,n,4.342793699994218,None,47,0,46,307.0834439000464,,,,,,,,,,,,,,,,,,,,,,,,,,,,,,,,,,,,,,,,,,,,,,,,,,307.0675460000057,307.0834439000464,307.5838305000216,307.56713640003,307.57681240001693,307.5838305000216,307.5838305000216,307.5838305000216,311.9338374999934,Foils\065a.jpg,none,n,4.342793699994218,None,,,,,,,,00041,001,2026-01-23_19h17.51.467,MST_test,2024.2.0,59.960234369923235,2026-01-23 19h17.58.156743 +0530,
47,0,48,s,1.441065399965737,None,48,0,47,311.9499939000234,,,,,,,,,,,,,,,,,,,,,,,,,,,,,,,,,,,,,,,,,,,,,,,,,,311.93420680001145,311.9499939000234,312.5014069000026,312.4338759999955,312.4984613000415,312.5014069000026,312.5014069000026,312.5014069000026,313.95068540005013,Scenes\068b.jpg,post,s,1.441065399965737,None,,,,,,,,00041,001,2026-01-23_19h17.51.467,MST_test,2024.2.0,59.960234369923235,2026-01-23 19h17.58.156743 +0530,
48,0,49,s,3.7058894999790937,None,49,0,48,313.96676670003217,,,,,,,,,,,,,,,,,,,,,,,,,,,,,,,,,,,,,,,,,,,,,,,,,,313.95105820003664,313.96676670003217,314.4690279000206,314.4498775000102,314.46643400000175,314.4690279000206,314.4690279000206,314.4690279000206,318.1840149000054,Scenes\038a.jpg,pre,s,3.7058894999790937,None,,,,,,,,00041,001,2026-01-23_19h17.51.467,MST_test,2024.2.0,59.960234369923235,2026-01-23 19h17.58.156743 +0530,
49,0,50,o,3.0333634999697097,None,50,0,49,318.2000159000163,,,,,,,,,,,,,,,,,,,,,,,,,,,,,,,,,,,,,,,,,,,,,,,,,,318.1843984000152,318.2000159000163,318.70084940001834,318.68382470001234,318.6924283000408,318.70084940001834,318.70084940001834,318.70084940001834,321.750739500043,Objects\151a.jpg,mid,o,3.0333634999697097,None,,,,,,,,00041,001,2026-01-23_19h17.51.467,MST_test,2024.2.0,59.960234369923235,2026-01-23 19h17.58.156743 +0530,
50,0,51,o,1.5420445000054315,None,51,0,50,321.7668018999975,,,,,,,,,,,,,,,,,,,,,,,,,,,,,,,,,,,,,,,,,,,,,,,,,,321.7511195000261,321.7668018999975,322.28065870003775,322.25043250003364,322.2779689000454,322.28065870003775,322.28065870003775,322.28065870003775,323.83473820000654,Objects\172b.jpg,mid,o,1.5420445000054315,None,,,,,,,,00041,001,2026-01-23_19h17.51.467,MST_test,2024.2.0,59.960234369923235,2026-01-23 19h17.58.156743 +0530,
51,0,52,o,2.7033872999600135,None,52,0,51,323.85050390003016,,,,,,,,,,,,,,,,,,,,,,,,,,,,,,,,,,,,,,,,,,,,,,,,,,323.8350912000169,323.85050390003016,324.35154400003375,324.33382570004323,324.3493224999984,324.35154400003375,324.35154400003375,324.35154400003375,327.0673561000149,Scenes\107a.jpg,post,o,2.7033872999600135,None,,,,,,,,00041,001,2026-01-23_19h17.51.467,MST_test,2024.2.0,59.960234369923235,2026-01-23 19h17.58.156743 +0530,
52,0,53,o,1.5182008999981917,None,53,0,52,327.08345520001603,,,,,,,,,,,,,,,,,,,,,,,,,,,,,,,,,,,,,,,,,,,,,,,,,,327.0677229000139,327.08345520001603,327.58395190001465,327.5670606000349,327.57471820001956,327.58395190001465,327.58395190001465,327.58395190001465,329.1174485000083,Objects\091a.jpg,pre,o,1.5182008999981917,None,,,,,,,,00041,001,2026-01-23_19h17.51.467,MST_test,2024.2.0,59.960234369923235,2026-01-23 19h17.58.156743 +0530,
53,0,54,o,2.386838699982036,None,54,0,53,329.1334140000399,,,,,,,,,,,,,,,,,,,,,,,,,,,,,,,,,,,,,,,,,,,,,,,,,,329.1178819000488,329.1334140000399,329.6353690000251,329.61716720002005,329.6329396000365,329.6353690000251,329.6353690000251,329.6353690000251,332.03485580004053,Scenes\155a.jpg,mid,o,2.386838699982036,None,,,,,,,,00041,001,2026-01-23_19h17.51.467,MST_test,2024.2.0,59.960234369923235,2026-01-23 19h17.58.156743 +0530,
54,0,55,o,2.5239261999959126,None,55,0,54,332.05003179999767,,,,,,,,,,,,,,,,,,,,,,,,,,,,,,,,,,,,,,,,,,,,,,,,,,332.03523219999624,332.05003179999767,332.5541718000313,332.53387230000226,332.5512239999953,332.5541718000313,332.5541718000313,332.5541718000313,335.08354240003973,Scenes\007a.jpg,mid,o,2.5239261999959126,None,,,,,,,,00041,001,2026-01-23_19h17.51.467,MST_test,2024.2.0,59.960234369923235,2026-01-23 19h17.58.156743 +0530,
55,0,56,o,2.158219899982214,None,56,0,55,335.0999487999943,,,,,,,,,,,,,,,,,,,,,,,,,,,,,,,,,,,,,,,,,,,,,,,,,,335.0837967999978,335.0999487999943,335.6006267000339,335.5838587000035,335.59262760001,335.6006267000339,335.6006267000339,335.6006267000339,337.76751640002476,Objects\016b.jpg,mid,o,2.158219899982214,None,,,,,,,,00041,001,2026-01-23_19h17.51.467,MST_test,2024.2.0,59.960234369923235,2026-01-23 19h17.58.156743 +0530,
56,0,57,s,4.186407300003339,None,57,0,56,337.7833599000005,,,,,,,,,,,,,,,,,,,,,,,,,,,,,,,,,,,,,,,,,,,,,,,,,,337.76791310001863,337.7833599000005,338.283849200001,338.26693400001386,338.28153530001873,338.283849200001,338.283849200001,338.283849200001,342.48399460001383,Scenes\050a.jpg,post,s,4.186407300003339,None,,,,,,,,00041,001,2026-01-23_19h17.51.467,MST_test,2024.2.0,59.960234369923235,2026-01-23 19h17.58.156743 +0530,
57,0,58,n,2.0508663000073284,None,58,0,57,342.5000254000188,,,,,,,,,,,,,,,,,,,,,,,,,,,,,,,,,,,,,,,,,,,,,,,,,,342.4843536000117,342.5000254000188,343.2516928000259,342.9837247999967,343.2449013000005,343.2516928000259,343.2516928000259,343.2516928000259,345.3178579999949,Foils\scenes26.jpg,none,n,2.0508663000073284,None,,,,,,,,00041,001,2026-01-23_19h17.51.467,MST_test,2024.2.0,59.960234369923235,2026-01-23 19h17.58.156743 +0530,
58,0,59,s,1.6455995000433177,None,59,0,58,345.3333763999981,,,,,,,,,,,,,,,,,,,,,,,,,,,,,,,,,,,,,,,,,,,,,,,,,,345.3182266000076,345.3333763999981,345.8967048000195,345.8168828000198,345.8941046000109,345.8967048000195,345.8967048000195,345.8967048000195,347.55041710002115,Objects\038b.jpg,post,s,1.6455995000433177,None,,,,,,,,00041,001,2026-01-23_19h17.51.467,MST_test,2024.2.0,59.960234369923235,2026-01-23 19h17.58.156743 +0530,
59,0,60,s,2.7157920000026934,None,60,0,59,347.56670359999407,,,,,,,,,,,,,,,,,,,,,,,,,,,,,,,,,,,,,,,,,,,,,,,,,,347.5507694000262,347.56670359999407,348.06663790001767,348.0503257000237,348.0594576000003,348.06663790001767,348.06663790001767,348.06663790001767,350.78386460000183,Objects\061a.jpg,post,s,2.7157920000026934,None,,,,,,,,00041,001,2026-01-23_19h17.51.467,MST_test,2024.2.0,59.960234369923235,2026-01-23 19h17.58.156743 +0530,
60,0,61,o,3.642482800001744,None,61,0,60,350.80004060000647,,,,,,,,,,,,,,,,,,,,,,,,,,,,,,,,,,,,,,,,,,,,,,,,,,350.78423300001305,350.80004060000647,351.30019590002485,351.283791200025,351.2971091000363,351.30019590002485,351.30019590002485,351.30019590002485,354.9507893000264,Scenes\122a.jpg,mid,o,3.642482800001744,None,,,,,,,,00041,001,2026-01-23_19h17.51.467,MST_test,2024.2.0,59.960234369923235,2026-01-23 19h17.58.156743 +0530,
61,0,62,n,1.2911068999674171,None,62,0,61,354.96648580004694,,,,,,,,,,,,,,,,,,,,,,,,,,,,,,,,,,,,,,,,,,,,,,,,,,354.9511396000162,354.96648580004694,355.46743040002184,355.4505041000084,355.45984060002957,355.46743040002184,355.46743040002184,355.46743040002184,356.76735390000977,Foils\081a.jpg,none,n,1.2911068999674171,None,,,,,,,,00041,001,2026-01-23_19h17.51.467,MST_test,2024.2.0,59.960234369923235,2026-01-23 19h17.58.156743 +0530,
62,0,63,n,1.4990724999806844,None,63,0,62,356.783445500012,,,,,,,,,,,,,,,,,,,,,,,,,,,,,,,,,,,,,,,,,,,,,,,,,,356.767709900043,356.783445500012,357.28382010001224,357.2669523000368,357.27424050000263,357.28382010001224,357.28382010001224,357.28382010001224,358.7843185000238,Foils\scenes4.jpg,none,n,1.4990724999806844,None,,,,,,,,00041,001,2026-01-23_19h17.51.467,MST_test,2024.2.0,59.960234369923235,2026-01-23 19h17.58.156743 +0530,
63,0,64,n,1.3564043000224046,None,64,0,63,358.80012530001113,,,,,,,,,,,,,,,,,,,,,,,,,,,,,,,,,,,,,,,,,,,,,,,,,,358.7846704000258,358.80012530001113,359.3221862000064,359.2845384000102,359.3192623000359,359.3221862000064,359.3221862000064,359.3221862000064,360.68410130002303,Objects\059b.jpg,post,n,1.3564043000224046,None,,,,,,,,00041,001,2026-01-23_19h17.51.467,MST_test,2024.2.0,59.960234369923235,2026-01-23 19h17.58.156743 +0530,
64,0,65,o,2.7416496999794617,None,65,0,64,360.7001051999978,,,,,,,,,,,,,,,,,,,,,,,,,,,,,,,,,,,,,,,,,,,,,,,,,,360.68446010001935,360.7001051999978,361.2005054000183,361.18350460001966,361.19749550003326,361.2005054000183,361.2005054000183,361.2005054000183,363.95077200001106,Scenes\132a.jpg,pre,o,2.7416496999794617,None,,,,,,,,00041,001,2026-01-23_19h17.51.467,MST_test,2024.2.0,59.960234369923235,2026-01-23 19h17.58.156743 +0530,
65,0,66,n,1.2678826000192203,None,66,0,65,363.96670390001964,,,,,,,,,,,,,,,,,,,,,,,,,,,,,,,,,,,,,,,,,,,,,,,,,,363.95114280004054,363.96670390001964,,364.45110090001253,364.48016190005,364.4828279000358,364.4828279000358,364.4828279000358,365.76732810004614,Foils\073a.jpg,none,n,1.2678826000192203,None,,,,,,,,00041,001,2026-01-23_19h17.51.467,MST_test,2024.2.0,59.960234369923235,2026-01-23 19h17.58.156743 +0530,
66,0,67,o,4.665451099979691,None,67,0,66,365.78330000001006,,,,,,,,,,,,,,,,,,,,,,,,,,,,,,,,,,,,,,,,,,,,,,,,,,365.76767860003747,365.78330000001006,366.29281210002955,366.2671112000244,366.2902024000068,366.29281210002955,366.29281210002955,366.29281210002955,370.9673523000092,Scenes\092a.jpg,mid,o,4.665451099979691,None,,,,,,,,00041,001,2026-01-23_19h17.51.467,MST_test,2024.2.0,59.960234369923235,2026-01-23 19h17.58.156743 +0530,
67,0,68,o,2.91483949997928,None,68,0,67,370.98343389999354,,,,,,,,,,,,,,,,,,,,,,,,,,,,,,,,,,,,,,,,,,,,,,,,,,370.9677050000173,370.98343389999354,371.483581700013,371.4675086000352,371.4765822000336,371.483581700013,371.483581700013,371.483581700013,374.4003503000131,Objects\157a.jpg,pre,o,2.91483949997928,None,,,,,,,,00041,001,2026-01-23_19h17.51.467,MST_test,2024.2.0,59.960234369923235,2026-01-23 19h17.58.156743 +0530,
68,0,69,o,1.2099173000315204,None,69,0,68,374.4166433000355,,,,,,,,,,,,,,,,,,,,,,,,,,,,,,,,,,,,,,,,,,,,,,,,,,374.4007117000292,374.4166433000355,374.91693860001396,374.90056020003976,374.9100272000069,374.91693860001396,374.91693860001396,374.91693860001396,376.1341067000176,Objects\033a.jpg,pre,o,1.2099173000315204,None,,,,,,,,00041,001,2026-01-23_19h17.51.467,MST_test,2024.2.0,59.960234369923235,2026-01-23 19h17.58.156743 +0530,
69,0,70,o,1.4746233999612741,None,70,0,69,376.149773000041,,,,,,,,,,,,,,,,,,,,,,,,,,,,,,,,,,,,,,,,,,,,,,,,,,376.13445860001957,376.149773000041,376.68427070003236,376.6341483000433,376.6818522000103,376.68427070003236,376.68427070003236,376.68427070003236,378.1672236000304,Scenes\059b.jpg,pre,o,1.4746233999612741,None,,,,,,,,00041,001,2026-01-23_19h17.51.467,MST_test,2024.2.0,59.960234369923235,2026-01-23 19h17.58.156743 +0530,
70,0,71,s,4.475142400013283,None,71,0,70,378.18301050004084,,,,,,,,,,,,,,,,,,,,,,,,,,,,,,,,,,,,,,,,,,,,,,,,,,378.1675768000423,378.18301050004084,378.68371750001097,378.66703280003276,378.67567010002676,378.68371750001097,378.68371750001097,378.68371750001097,383.1673507000087,Foils\scenes6.jpg,none,s,4.475142400013283,None,,,,,,,,00041,001,2026-01-23_19h17.51.467,MST_test,2024.2.0,59.960234369923235,2026-01-23 19h17.58.156743 +0530,
71,0,72,o,1.3513084999867715,None,72,0,71,383.18319750000956,,,,,,,,,,,,,,,,,,,,,,,,,,,,,,,,,,,,,,,,,,,,,,,,,,383.1677110000164,383.18319750000956,383.70352440001443,383.6670407000347,383.70087530004093,383.70352440001443,383.70352440001443,383.70352440001443,385.0680257000495,Objects\064b.jpg,pre,o,1.3513084999867715,None,,,,,,,,00041,001,2026-01-23_19h17.51.467,MST_test,2024.2.0,59.960234369923235,2026-01-23 19h17.58.156743 +0530,
72,0,73,s,1.5564046000363305,None,73,0,72,385.0833873000229,,,,,,,,,,,,,,,,,,,,,,,,,,,,,,,,,,,,,,,,,,,,,,,,,,385.06837920000544,385.0833873000229,385.6179817999946,385.56719110003905,385.6155099000316,385.6179817999946,385.6179817999946,385.6179817999946,387.18391030002385,Scenes\076b.jpg,mid,s,1.5564046000363305,None,,,,,,,,00041,001,2026-01-23_19h17.51.467,MST_test,2024.2.0,59.960234369923235,2026-01-23 19h17.58.156743 +0530,
73,0,74,o,1.5136582999839447,None,74,0,73,387.19986180000706,,,,,,,,,,,,,,,,,,,,,,,,,,,,,,,,,,,,,,,,,,,,,,,,,,387.1842620000243,387.19986180000706,387.70117410004605,387.68386990000727,387.6929064000142,387.70117410004605,387.70117410004605,387.70117410004605,389.2176036000019,Objects\092a.jpg,post,o,1.5136582999839447,None,,,,,,,,00041,001,2026-01-23_19h17.51.467,MST_test,2024.2.0,59.960234369923235,2026-01-23 19h17.58.156743 +0530,
74,0,75,s,7.016831299988553,None,75,0,74,389.23343990003923,,,,,,,,,,,,,,,,,,,,,,,,,,,,,,,,,,,,,,,,,,,,,,,,,,389.21795429999474,389.23343990003923,389.73371570004383,389.71705310000107,389.72363900003256,389.73371570004383,389.73371570004383,389.73371570004383,396.7676262000459,Foils\scenes12.jpg,none,s,7.016831299988553,None,,,,,,,,00041,001,2026-01-23_19h17.51.467,MST_test,2024.2.0,59.960234369923235,2026-01-23 19h17.58.156743 +0530,
75,0,76,s,1.7821337000350468,None,76,0,75,396.78346460004104,,,,,,,,,,,,,,,,,,,,,,,,,,,,,,,,,,,,,,,,,,,,,,,,,,396.7680801000097,396.78346460004104,397.3039266000269,397.2671336000203,397.3012241999968,397.3039266000269,397.3039266000269,397.3039266000269,399.10037560004275,Objects\024b.jpg,pre,s,1.7821337000350468,None,,,,,,,,00041,001,2026-01-23_19h17.51.467,MST_test,2024.2.0,59.960234369923235,2026-01-23 19h17.58.156743 +0530,
76,0,77,n,2.879617500002496,None,77,0,76,399.1163790000137,,,,,,,,,,,,,,,,,,,,,,,,,,,,,,,,,,,,,,,,,,,,,,,,,,399.1007323000231,399.1163790000137,399.6306414999999,399.60053680004785,399.6283730000141,399.6306414999999,399.6306414999999,399.6306414999999,402.5173902999959,Foils\098a.jpg,none,n,2.879617500002496,None,,,,,,,,00041,001,2026-01-23_19h17.51.467,MST_test,2024.2.0,59.960234369923235,2026-01-23 19h17.58.156743 +0530,
77,0,78,o,1.3771006999886595,None,78,0,77,402.5334482000326,,,,,,,,,,,,,,,,,,,,,,,,,,,,,,,,,,,,,,,,,,,,,,,,,,402.5177439000108,402.5334482000326,403.0377502000192,403.01718660001643,403.0354920999962,403.0377502000192,403.0377502000192,403.0377502000192,404.4173180999933,Scenes\085a.jpg,pre,o,1.3771006999886595,None,,,,,,,,00041,001,2026-01-23_19h17.51.467,MST_test,2024.2.0,59.960234369923235,2026-01-23 19h17.58.156743 +0530,
78,0,79,o,2.399407999997493,None,79,0,78,404.4332739000092,,,,,,,,,,,,,,,,,,,,,,,,,,,,,,,,,,,,,,,,,,,,,,,,,,404.4176741000265,404.4332739000092,404.934738400043,404.9171876000473,404.92605510004796,404.934738400043,404.934738400043,404.934738400043,407.3504357000347,Objects\108a.jpg,post,o,2.399407999997493,None,,,,,,,,00041,001,2026-01-23_19h17.51.467,MST_test,2024.2.0,59.960234369923235,2026-01-23 19h17.58.156743 +0530,
79,0,80,o,2.0190685999696143,None,80,0,79,407.36640759999864,,,,,,,,,,,,,,,,,,,,,,,,,,,,,,,,,,,,,,,,,,,,,,,,,,407.35079550003866,407.36640759999864,407.86702720000176,407.85045240004547,407.85850970004685,407.86702720000176,407.86702720000176,407.86702720000176,409.9008506000391,Objects\153a.jpg,mid,o,2.0190685999696143,None,,,,,,,,00041,001,2026-01-23_19h17.51.467,MST_test,2024.2.0,59.960234369923235,2026-01-23 19h17.58.156743 +0530,
80,0,81,o,1.6058124999981374,None,81,0,80,409.9170065000071,,,,,,,,,,,,,,,,,,,,,,,,,,,,,,,,,,,,,,,,,,,,,,,,,,409.90120700001717,409.9170065000071,410.41703440004494,410.4003916000365,410.4086466000299,410.41703440004494,410.41703440004494,410.41703440004494,412.0341433000285,Objects\026a.jpg,post,o,1.6058124999981374,None,,,,,,,,00041,001,2026-01-23_19h17.51.467,MST_test,2024.2.0,59.960234369923235,2026-01-23 19h17.58.156743 +0530,
81,0,82,o,8.775302900001407,None,82,0,81,412.0496987000224,,,,,,,,,,,,,,,,,,,,,,,,,,,,,,,,,,,,,,,,,,,,,,,,,,412.0345896999934,412.0496987000224,412.5512309000478,412.533584800025,412.54890480003087,412.5512309000478,412.5512309000478,412.5512309000478,421.3338928000303,Scenes\060a.jpg,pre,o,8.775302900001407,None,,,,,,,,00041,001,2026-01-23_19h17.51.467,MST_test,2024.2.0,59.960234369923235,2026-01-23 19h17.58.156743 +0530,
82,0,83,n,1.8018345999880694,None,83,0,82,421.3500383000355,,,,,,,,,,,,,,,,,,,,,,,,,,,,,,,,,,,,,,,,,,,,,,,,,,421.3343357000267,421.3500383000355,421.8524536000332,421.8334923000075,421.84993500000564,421.8524536000332,421.8524536000332,421.8524536000332,423.6674402000499,Scenes\143a.jpg,pre,n,1.8018345999880694,None,,,,,,,,00041,001,2026-01-23_19h17.51.467,MST_test,2024.2.0,59.960234369923235,2026-01-23 19h17.58.156743 +0530,
83,0,84,n,1.9205746999941766,None,84,0,83,423.68379720003577,,,,,,,,,,,,,,,,,,,,,,,,,,,,,,,,,,,,,,,,,,,,,,,,,,423.6677897000336,423.68379720003577,424.20621800003573,424.16689180000685,424.20307829999365,424.20621800003573,424.20621800003573,424.20621800003573,426.13415570004145,Objects\065b.jpg,pre,n,1.9205746999941766,None,,,,,,,,00041,001,2026-01-23_19h17.51.467,MST_test,2024.2.0,59.960234369923235,2026-01-23 19h17.58.156743 +0530,
84,0,85,s,2.272766900015995,None,85,0,84,426.1501842000289,,,,,,,,,,,,,,,,,,,,,,,,,,,,,,,,,,,,,,,,,,,,,,,,,,426.13450240000384,426.1501842000289,426.6535712000332,426.6337799000321,426.6509857000201,426.6535712000332,426.6535712000332,426.6535712000332,428.93416020000586,Scenes\168b.jpg,mid,s,2.272766900015995,None,,,,,,,,00041,001,2026-01-23_19h17.51.467,MST_test,2024.2.0,59.960234369923235,2026-01-23 19h17.58.156743 +0530,
85,0,86,n,2.2205681999912485,None,86,0,85,428.95006620005006,,,,,,,,,,,,,,,,,,,,,,,,,,,,,,,,,,,,,,,,,,,,,,,,,,428.9345135000185,428.95006620005006,429.4502144000144,429.4336747000343,429.4420671000262,429.4502144000144,429.4502144000144,429.4502144000144,431.68409240001347,Foils\042a.jpg,none,n,2.2205681999912485,None,,,,,,,,00041,001,2026-01-23_19h17.51.467,MST_test,2024.2.0,59.960234369923235,2026-01-23 19h17.58.156743 +0530,
86,0,87,o,1.2225130999577232,None,87,0,86,431.70006290002493,,,,,,,,,,,,,,,,,,,,,,,,,,,,,,,,,,,,,,,,,,,,,,,,,,431.68444640003145,431.70006290002493,432.2003023000434,432.18390930001624,432.1920484000002,432.2003023000434,432.2003023000434,432.2003023000434,433.4340563000296,Objects\068a.jpg,post,o,1.2225130999577232,None,,,,,,,,00041,001,2026-01-23_19h17.51.467,MST_test,2024.2.0,59.960234369923235,2026-01-23 19h17.58.156743 +0530,
87,0,88,s,2.767830499971751,None,88,0,87,433.4500544000184,,,,,,,,,,,,,,,,,,,,,,,,,,,,,,,,,,,,,,,,,,,,,,,,,,433.4344049000065,433.4500544000184,,433.9342525000102,433.9434724000166,433.95047219999833,433.95047219999833,433.95047219999833,436.7341197000351,Objects\113a.jpg,post,s,2.767830499971751,None,,,,,,,,00041,001,2026-01-23_19h17.51.467,MST_test,2024.2.0,59.960234369923235,2026-01-23 19h17.58.156743 +0530,
88,0,89,s,2.1077109000179917,None,89,0,88,436.7500471000094,,,,,,,,,,,,,,,,,,,,,,,,,,,,,,,,,,,,,,,,,,,,,,,,,,436.73447160003707,436.7500471000094,,437.23435470002005,437.27283120003995,437.27530670003034,437.27530670003034,437.27530670003034,439.3846720000147,Scenes\185b.jpg,post,s,2.1077109000179917,None,,,,,,,,00041,001,2026-01-23_19h17.51.467,MST_test,2024.2.0,59.960234369923235,2026-01-23 19h17.58.156743 +0530,
89,0,90,o,1.1857676999643445,None,90,0,89,439.4000564000453,,,,,,,,,,,,,,,,,,,,,,,,,,,,,,,,,,,,,,,,,,,,,,,,,,439.38501880003605,439.4000564000453,439.90036150004016,439.88365510001313,439.8942030000035,439.90036150004016,439.90036150004016,439.90036150004016,441.100533800025,Objects\158a.jpg,mid,o,1.1857676999643445,None,,,,,,,,00041,001,2026-01-23_19h17.51.467,MST_test,2024.2.0,59.960234369923235,2026-01-23 19h17.58.156743 +0530,
90,0,91,o,1.8165920000174083,None,91,0,90,441.11649970000144,,,,,,,,,,,,,,,,,,,,,,,,,,,,,,,,,,,,,,,,,,,,,,,,,,441.1008800000418,441.11649970000144,441.645988400036,441.60042500001146,441.6432475000038,441.645988400036,441.645988400036,441.645988400036,443.4674408000428,Scenes\001b.jpg,pre,o,1.8165920000174083,None,,,,,,,,00041,001,2026-01-23_19h17.51.467,MST_test,2024.2.0,59.960234369923235,2026-01-23 19h17.58.156743 +0530,
91,0,92,s,1.683355399989523,None,92,0,91,443.48328020004556,,,,,,,,,,,,,,,,,,,,,,,,,,,,,,,,,,,,,,,,,,,,,,,,,,443.46778870001435,443.48328020004556,444.01877750002313,443.9676139000221,444.0161337000318,444.01877750002313,444.01877750002313,444.01877750002313,445.71733310003765,Scenes\098b.jpg,mid,s,1.683355399989523,None,,,,,,,,00041,001,2026-01-23_19h17.51.467,MST_test,2024.2.0,59.960234369923235,2026-01-23 19h17.58.156743 +0530,
92,0,93,n,1.3875545000191778,None,93,0,92,445.7334622000344,,,,,,,,,,,,,,,,,,,,,,,,,,,,,,,,,,,,,,,,,,,,,,,,,,445.71768160001375,445.7334622000344,446.23474770004395,446.2170994000044,446.2264893000247,446.23474770004395,446.23474770004395,446.23474770004395,447.6342438000138,Foils\090a.jpg,none,n,1.3875545000191778,None,,,,,,,,00041,001,2026-01-23_19h17.51.467,MST_test,2024.2.0,59.960234369923235,2026-01-23 19h17.58.156743 +0530,
93,0,94,o,1.2521820000256412,None,94,0,93,447.65012200002093,,,,,,,,,,,,,,,,,,,,,,,,,,,,,,,,,,,,,,,,,,,,,,,,,,447.634595600015,447.65012200002093,448.16209660004824,448.1343326999922,448.1598249000381,448.16209660004824,448.16209660004824,448.16209660004824,449.41695990000153,Objects\140b.jpg,pre,o,1.2521820000256412,None,,,,,,,,00041,001,2026-01-23_19h17.51.467,MST_test,2024.2.0,59.960234369923235,2026-01-23 19h17.58.156743 +0530,
94,0,95,o,6.1044807999860495,None,95,0,94,449.43373849999625,,,,,,,,,,,,,,,,,,,,,,,,,,,,,,,,,,,,,,,,,,,,,,,,,,449.41730940004345,449.43373849999625,449.93339260003995,449.9169116000412,449.92591750004794,449.93339260003995,449.93339260003995,449.93339260003995,456.04978350002784,Objects\056a.jpg,mid,o,6.1044807999860495,None,,,,,,,,00041,001,2026-01-23_19h17.51.467,MST_test,2024.2.0,59.960234369923235,2026-01-23 19h17.58.156743 +0530,
95,0,96,o,1.3704576999880373,None,96,0,95,456.0660518000368,,,,,,,,,,,,,,,,,,,,,,,,,,,,,,,,,,,,,,,,,,,,,,,,,,456.0498942999984,456.0660518000368,,456.55018040002324,456.5690736999968,456.57183450000593,456.57183450000593,456.57183450000593,457.95065720001,Scenes\159a.jpg,post,o,1.3704576999880373,None,,,,,,,,00041,001,2026-01-23_19h17.51.467,MST_test,2024.2.0,59.960234369923235,2026-01-23 19h17.58.156743 +0530,
96,0,97,n,2.7625406999723054,None,97,0,96,457.966273500002,,,,,,,,,,,,,,,,,,,,,,,,,,,,,,,,,,,,,,,,,,,,,,,,,,457.9510009000078,457.966273500002,458.467518999998,458.4502922000247,458.45930170000065,458.467518999998,458.467518999998,458.467518999998,461.23358679999365,Foils\097a.jpg,none,n,2.7625406999723054,None,,,,,,,,00041,001,2026-01-23_19h17.51.467,MST_test,2024.2.0,59.960234369923235,2026-01-23 19h17.58.156743 +0530,
97,0,98,s,2.223418199981097,None,98,0,97,461.2497576000169,,,,,,,,,,,,,,,,,,,,,,,,,,,,,,,,,,,,,,,,,,,,,,,,,,461.2337552999961,461.2497576000169,461.76708900002996,461.7331000000122,461.76412480004365,461.76708900002996,461.76708900002996,461.76708900002996,464.0005586000043,Foils\scenes1.jpg,none,s,2.223418199981097,None,,,,,,,,00041,001,2026-01-23_19h17.51.467,MST_test,2024.2.0,59.960234369923235,2026-01-23 19h17.58.156743 +0530,
98,0,99,s,2.2285036999965087,None,99,0,98,464.0165313000325,,,,,,,,,,,,,,,,,,,,,,,,,,,,,,,,,,,,,,,,,,,,,,,,,,464.0009224000387,464.0165313000325,,464.5011112000211,464.5436944999965,464.5461537000374,464.5461537000374,464.5461537000374,466.7841270000208,Scenes\181b.jpg,post,s,2.2285036999965087,None,,,,,,,,00041,001,2026-01-23_19h17.51.467,MST_test,2024.2.0,59.960234369923235,2026-01-23 19h17.58.156743 +0530,
99,0,100,o,2.5683432999649085,None,100,0,99,466.800117900013,,,,,,,,,,,,,,,,,,,,,,,,,,,,,,,,,,,,,,,,,,,,,,,,,,466.78447489999235,466.800117900013,,467.28446019999683,467.29904250003165,467.3017605000059,467.3017605000059,467.3017605000059,469.883833400032,Scenes\124a.jpg,pre,o,2.5683432999649085,None,,,,,,,,00041,001,2026-01-23_19h17.51.467,MST_test,2024.2.0,59.960234369923235,2026-01-23 19h17.58.156743 +0530,
100,0,101,o,5.829450599965639,None,101,0,100,469.89981299999636,,,,,,,,,,,,,,,,,,,,,,,,,,,,,,,,,,,,,,,,,,,,,,,,,,469.88418600003934,469.89981299999636,470.400710100017,470.3838485000306,470.39296480000485,470.400710100017,470.400710100017,470.400710100017,476.23445300001185,Objects\083a.jpg,pre,o,5.829450599965639,None,,,,,,,,00041,001,2026-01-23_19h17.51.467,MST_test,2024.2.0,59.960234369923235,2026-01-23 19h17.58.156743 +0530,
101,0,102,o,4.3113948999671265,None,102,0,101,476.2504086000263,,,,,,,,,,,,,,,,,,,,,,,,,,,,,,,,,,,,,,,,,,,,,,,,,,476.23479840002256,476.2504086000263,476.7514662000467,476.7335430000094,476.7492160000256,476.7514662000467,476.7514662000467,476.7514662000467,481.0673975000391,Scenes\131a.jpg,pre,o,4.3113948999671265,None,,,,,,,,00041,001,2026-01-23_19h17.51.467,MST_test,2024.2.0,59.960234369923235,2026-01-23 19h17.58.156743 +0530,
102,0,103,o,2.5085296999895945,None,103,0,102,481.0833624000079,,,,,,,,,,,,,,,,,,,,,,,,,,,,,,,,,,,,,,,,,,,,,,,,,,481.06775560003007,481.0833624000079,481.617816700018,481.56749919999857,481.61519700003555,481.617816700018,481.617816700018,481.617816700018,484.1340570000466,Scenes\074b.jpg,mid,o,2.5085296999895945,None,,,,,,,,00041,001,2026-01-23_19h17.51.467,MST_test,2024.2.0,59.960234369923235,2026-01-23 19h17.58.156743 +0530,
103,0,104,s,1.6323888000333682,None,104,0,103,484.150122800027,,,,,,,,,,,,,,,,,,,,,,,,,,,,,,,,,,,,,,,,,,,,,,,,,,484.13440560002346,484.150122800027,484.67002520000096,484.63426360004814,484.66672800004017,484.67002520000096,484.67002520000096,484.67002520000096,486.3174349000328,Scenes\033b.jpg,pre,s,1.6323888000333682,None,,,,,,,,00041,001,2026-01-23_19h17.51.467,MST_test,2024.2.0,59.960234369923235,2026-01-23 19h17.58.156743 +0530,
104,0,105,s,2.0366019000066444,None,105,0,104,486.3334059000481,,,,,,,,,,,,,,,,,,,,,,,,,,,,,,,,,,,,,,,,,,,,,,,,,,486.31778230000054,486.3334059000481,486.8335798000335,486.8169390000403,486.83017840003595,486.8335798000335,486.8335798000335,486.8335798000335,488.8840651999926,Scenes\024a.jpg,pre,s,2.0366019000066444,None,,,,,,,,00041,001,2026-01-23_19h17.51.467,MST_test,2024.2.0,59.960234369923235,2026-01-23 19h17.58.156743 +0530,
105,0,106,s,3.043975999986287,None,106,0,105,488.900112000003,,,,,,,,,,,,,,,,,,,,,,,,,,,,,,,,,,,,,,,,,,,,,,,,,,488.88441420003073,488.900112000003,489.41852540004766,489.38420200004475,489.4159147000173,489.41852540004766,489.41852540004766,489.41852540004766,492.46766170003684,Objects\009b.jpg,post,s,3.043975999986287,None,,,,,,,,00041,001,2026-01-23_19h17.51.467,MST_test,2024.2.0,59.960234369923235,2026-01-23 19h17.58.156743 +0530,
106,0,107,s,2.2150899000116624,None,107,0,106,492.48338320001494,,,,,,,,,,,,,,,,,,,,,,,,,,,,,,,,,,,,,,,,,,,,,,,,,,492.4680282000336,492.48338320001494,492.98363590001827,492.9671903999988,492.9805828999961,492.98363590001827,492.98363590001827,492.98363590001827,495.200461200031,Scenes\080b.jpg,pre,s,2.2150899000116624,None,,,,,,,,00041,001,2026-01-23_19h17.51.467,MST_test,2024.2.0,59.960234369923235,2026-01-23 19h17.58.156743 +0530,
107,0,108,o,1.495631800033152,None,108,0,107,495.2167946000118,,,,,,,,,,,,,,,,,,,,,,,,,,,,,,,,,,,,,,,,,,,,,,,,,,495.20082480000565,495.2167946000118,495.71915940003237,495.70028380001895,495.7167666000314,495.71915940003237,495.71915940003237,495.71915940003237,497.21765649999725,Scenes\021b.jpg,post,o,1.495631800033152,None,,,,,,,,00041,001,2026-01-23_19h17.51.467,MST_test,2024.2.0,59.960234369923235,2026-01-23 19h17.58.156743 +0530,
108,0,109,n,1.3521609000163153,None,109,0,108,497.2330217999988,,,,,,,,,,,,,,,,,,,,,,,,,,,,,,,,,,,,,,,,,,,,,,,,,,497.2180038000224,497.2330217999988,497.7338958000182,497.717221400002,497.7245411000331,497.7338958000182,497.7338958000182,497.7338958000182,499.1005070999963,Foils\scenes30.jpg,none,n,1.3521609000163153,None,,,,,,,,00041,001,2026-01-23_19h17.51.467,MST_test,2024.2.0,59.960234369923235,2026-01-23 19h17.58.156743 +0530,
109,0,110,o,5.768380299967248,None,110,0,109,499.11704380001174,,,,,,,,,,,,,,,,,,,,,,,,,,,,,,,,,,,,,,,,,,,,,,,,,,499.1008556000306,499.11704380001174,499.63794710004004,499.6005260000238,499.6354065000196,499.63794710004004,499.63794710004004,499.63794710004004,505.41749180003535,Objects\154b.jpg,pre,o,5.768380299967248,None,,,,,,,,00041,001,2026-01-23_19h17.51.467,MST_test,2024.2.0,59.960234369923235,2026-01-23 19h17.58.156743 +0530,
110,0,111,n,1.0979266000213102,None,111,0,110,505.43338770000264,,,,,,,,,,,,,,,,,,,,,,,,,,,,,,,,,,,,,,,,,,,,,,,,,,505.41785660001915,505.43338770000264,505.94084729999304,505.91725300002145,505.9378676000051,505.94084729999304,505.94084729999304,505.94084729999304,507.0513145000441,Foils\scenes20.jpg,none,n,1.0979266000213102,None,,,,,,,,00041,001,2026-01-23_19h17.51.467,MST_test,2024.2.0,59.960234369923235,2026-01-23 19h17.58.156743 +0530,
111,0,112,s,2.199568799987901,None,112,0,111,507.06664080003975,,,,,,,,,,,,,,,,,,,,,,,,,,,,,,,,,,,,,,,,,,,,,,,,,,507.05166160000954,507.06664080003975,507.5992397000082,507.55053920001956,507.5968324000132,507.5992397000082,507.5992397000082,507.5992397000082,509.8004105000291,Scenes\104b.jpg,mid,s,2.199568799987901,None,,,,,,,,00041,001,2026-01-23_19h17.51.467,MST_test,2024.2.0,59.960234369923235,2026-01-23 19h17.58.156743 +0530,
112,0,113,n,5.257377200003248,None,113,0,112,509.8167946000467,,,,,,,,,,,,,,,,,,,,,,,,,,,,,,,,,,,,,,,,,,,,,,,,,,509.80076250003185,509.8167946000467,510.3173426000285,510.3004695000127,510.30929370003287,510.3173426000285,510.3173426000285,510.3173426000285,515.5839386000298,Foils\033a.jpg,none,n,5.257377200003248,None,,,,,,,,00041,001,2026-01-23_19h17.51.467,MST_test,2024.2.0,59.960234369923235,2026-01-23 19h17.58.156743 +0530,
113,0,114,s,1.6038371999748051,None,114,0,113,515.6004585000337,,,,,,,,,,,,,,,,,,,,,,,,,,,,,,,,,,,,,,,,,,,,,,,,,,515.5843164999969,515.6004585000337,516.1305011000368,516.0837472000276,516.1280999000301,516.1305011000368,516.1305011000368,516.1305011000368,517.750818600005,Scenes\071b.jpg,post,s,1.6038371999748051,None,,,,,,,,00041,001,2026-01-23_19h17.51.467,MST_test,2024.2.0,59.960234369923235,2026-01-23 19h17.58.156743 +0530,
114,0,115,n,2.0106651000096463,None,115,0,114,517.7664954000502,,,,,,,,,,,,,,,,,,,,,,,,,,,,,,,,,,,,,,,,,,,,,,,,,,517.7511679000454,517.7664954000502,518.2676129000029,518.2503204999957,518.259501499997,518.2676129000029,518.2676129000029,518.2676129000029,520.2841168000014,Foils\017a.jpg,none,n,2.0106651000096463,None,,,,,,,,00041,001,2026-01-23_19h17.51.467,MST_test,2024.2.0,59.960234369923235,2026-01-23 19h17.58.156743 +0530,
115,0,116,o,6.924240699969232,None,116,0,115,520.3004765000078,,,,,,,,,,,,,,,,,,,,,,,,,,,,,,,,,,,,,,,,,,,,,,,,,,520.284461800009,520.3004765000078,520.8422391000204,520.7836592000094,520.8389452000265,520.8422391000204,520.8422391000204,520.8422391000204,527.7677572999964,Scenes\192b.jpg,mid,o,6.924240699969232,None,,,,,,,,00041,001,2026-01-23_19h17.51.467,MST_test,2024.2.0,59.960234369923235,2026-01-23 19h17.58.156743 +0530,
116,0,117,s,1.6345816000248305,None,117,0,116,527.783458000049,,,,,,,,,,,,,,,,,,,,,,,,,,,,,,,,,,,,,,,,,,,,,,,,,,527.7681106000091,527.783458000049,528.3156040000031,528.2671277000336,528.3128533000126,528.3156040000031,528.3156040000031,528.3156040000031,529.9509570000228,Scenes\138b.jpg,post,s,1.6345816000248305,None,,,,,,,,00041,001,2026-01-23_19h17.51.467,MST_test,2024.2.0,59.960234369923235,2026-01-23 19h17.58.156743 +0530,
117,0,118,s,6.113532499992289,None,118,0,117,529.9666364000295,,,,,,,,,,,,,,,,,,,,,,,,,,,,,,,,,,,,,,,,,,,,,,,,,,529.9513229000149,529.9666364000295,530.5245187000255,530.4509390000021,530.5217934999964,530.5245187000255,530.5245187000255,530.5245187000255,536.6511672000051,Scenes\035b.jpg,pre,s,6.113532499992289,None,,,,,,,,00041,001,2026-01-23_19h17.51.467,MST_test,2024.2.0,59.960234369923235,2026-01-23 19h17.58.156743 +0530,
118,0,119,s,3.2958431000006385,None,119,0,118,536.6667162000085,,,,,,,,,,,,,,,,,,,,,,,,,,,,,,,,,,,,,,,,,,,,,,,,,,536.6513929000357,536.6667162000085,537.198918100039,537.150522800046,537.1957222000347,537.198918100039,537.198918100039,537.198918100039,540.5004227000172,Scenes\120b.jpg,post,s,3.2958431000006385,None,,,,,,,,00041,001,2026-01-23_19h17.51.467,MST_test,2024.2.0,59.960234369923235,2026-01-23 19h17.58.156743 +0530,
119,0,120,s,2.6591894000303,None,120,0,119,540.5167992000352,,,,,,,,,,,,,,,,,,,,,,,,,,,,,,,,,,,,,,,,,,,,,,,,,,540.500785900047,540.5167992000352,541.0588667000411,541.0003586999956,541.0554616000154,541.0588667000411,541.0588667000411,541.0588667000411,543.7342696000123,Scenes\163b.jpg,pre,s,2.6591894000303,None,,,,,,,,00041,001,2026-01-23_19h17.51.467,MST_test,2024.2.0,59.960234369923235,2026-01-23 19h17.58.156743 +0530,
120,0,121,o,1.9556266000145115,None,121,0,120,543.7498515000334,,,,,,,,,,,,,,,,,,,,,,,,,,,,,,,,,,,,,,,,,,,,,,,,,,543.734520500002,543.7498515000334,544.2506368000177,544.2337212000275,544.2464129000437,544.2506368000177,544.2506368000177,544.2506368000177,546.2174324000371,Objects\045a.jpg,post,o,1.9556266000145115,None,,,,,,,,00041,001,2026-01-23_19h17.51.467,MST_test,2024.2.0,59.960234369923235,2026-01-23 19h17.58.156743 +0530,
121,0,122,o,0.8090740999905393,None,122,0,121,546.2334391000331,,,,,,,,,,,,,,,,,,,,,,,,,,,,,,,,,,,,,,,,,,,,,,,,,,546.2178021,546.2334391000331,546.7336494000047,546.7172012000228,546.7309661000036,546.7336494000047,546.7336494000047,546.7336494000047,547.55039270001,Scenes\079a.jpg,pre,o,0.8090740999905393,None,,,,,,,,00041,001,2026-01-23_19h17.51.467,MST_test,2024.2.0,59.960234369923235,2026-01-23 19h17.58.156743 +0530,
122,0,123,o,1.0431822999962606,None,123,0,122,547.5668394000386,,,,,,,,,,,,,,,,,,,,,,,,,,,,,,,,,,,,,,,,,,,,,,,,,,547.5507378000184,547.5668394000386,548.0673301999923,548.0503755999962,548.0585353000206,548.0673301999923,548.0673301999923,548.0673301999923,549.117517000006,Objects\177a.jpg,post,o,1.0431822999962606,None,,,,,,,,00041,001,2026-01-23_19h17.51.467,MST_test,2024.2.0,59.960234369923235,2026-01-23 19h17.58.156743 +0530,
123,0,124,n,1.828809500031639,None,124,0,123,549.1333080000477,,,,,,,,,,,,,,,,,,,,,,,,,,,,,,,,,,,,,,,,,,,,,,,,,,549.1178910000017,549.1333080000477,549.6337098000222,549.6171883000061,549.6252347000409,549.6337098000222,549.6337098000222,549.6337098000222,551.4674617000273,Foils\106a.jpg,none,n,1.828809500031639,None,,,,,,,,00041,001,2026-01-23_19h17.51.467,MST_test,2024.2.0,59.960234369923235,2026-01-23 19h17.58.156743 +0530,
124,0,125,o,4.52073940000264,None,125,0,124,551.4834663000074,,,,,,,,,,,,,,,,,,,,,,,,,,,,,,,,,,,,,,,,,,,,,,,,,,551.4678073000396,551.4834663000074,551.9973060000339,551.9673419000464,551.9950836999924,551.9973060000339,551.9973060000339,551.9973060000339,556.5338776000426,Objects\121b.jpg,post,o,4.52073940000264,None,,,,,,,,00041,001,2026-01-23_19h17.51.467,MST_test,2024.2.0,59.960234369923235,2026-01-23 19h17.58.156743 +0530,
125,0,126,o,1.252037999976892,None,126,0,125,556.5501198000275,,,,,,,,,,,,,,,,,,,,,,,,,,,,,,,,,,,,,,,,,,,,,,,,,,556.5342531999922,556.5501198000275,557.0503447999945,557.0338599000243,557.042015700019,557.0503447999945,557.0503447999945,557.0503447999945,558.3174590000417,Objects\150a.jpg,mid,o,1.252037999976892,None,,,,,,,,00041,001,2026-01-23_19h17.51.467,MST_test,2024.2.0,59.960234369923235,2026-01-23 19h17.58.156743 +0530,
126,0,127,s,2.3395270999753848,None,127,0,126,558.3337200999958,,,,,,,,,,,,,,,,,,,,,,,,,,,,,,,,,,,,,,,,,,,,,,,,,,558.317806600011,558.3337200999958,558.8668308000197,558.8170556999976,558.8645298000192,558.8668308000197,558.8668308000197,558.8668308000197,561.2171854000189,Scenes\010b.jpg,post,s,2.3395270999753848,None,,,,,,,,00041,001,2026-01-23_19h17.51.467,MST_test,2024.2.0,59.960234369923235,2026-01-23 19h17.58.156743 +0530,
127,0,128,s,1.6744023999781348,None,128,0,127,561.2331532000098,,,,,,,,,,,,,,,,,,,,,,,,,,,,,,,,,,,,,,,,,,,,,,,,,,561.2175483000465,561.2331532000098,561.7482807000051,561.7171987000038,561.7457639000495,561.7482807000051,561.7482807000051,561.7482807000051,563.4338944000192,Objects\098b.jpg,post,s,1.6744023999781348,None,,,,,,,,00041,001,2026-01-23_19h17.51.467,MST_test,2024.2.0,59.960234369923235,2026-01-23 19h17.58.156743 +0530,
128,0,129,s,4.745535299996845,None,129,0,128,563.4501841000165,,,,,,,,,,,,,,,,,,,,,,,,,,,,,,,,,,,,,,,,,,,,,,,,,,563.4342720000423,563.4501841000165,563.9568591000279,563.9338668000419,563.9542653000099,563.9568591000279,563.9568591000279,563.9568591000279,568.7177398000495,Foils\scenes11.jpg,none,s,4.745535299996845,None,,,,,,,,00041,001,2026-01-23_19h17.51.467,MST_test,2024.2.0,59.960234369923235,2026-01-23 19h17.58.156743 +0530,
129,0,130,s,1.8523425000021234,None,130,0,129,568.7332575000473,,,,,,,,,,,,,,,,,,,,,,,,,,,,,,,,,,,,,,,,,,,,,,,,,,568.7181373000494,568.7332575000473,569.2336346000084,569.2169498000294,569.2271008000243,569.2336346000084,569.2336346000084,569.2336346000084,571.1005169000127,Scenes\097a.jpg,pre,s,1.8523425000021234,None,,,,,,,,00041,001,2026-01-23_19h17.51.467,MST_test,2024.2.0,59.960234369923235,2026-01-23 19h17.58.156743 +0530,
130,0,131,o,3.69345359998988,None,131,0,130,571.1168867000379,,,,,,,,,,,,,,,,,,,,,,,,,,,,,,,,,,,,,,,,,,,,,,,,,,571.1008683000109,571.1168867000379,571.6409522000467,571.6005366000463,571.6384683999931,571.6409522000467,571.6409522000467,571.6409522000467,575.3508018000284,Scenes\154b.jpg,mid,o,3.69345359998988,None,,,,,,,,00041,001,2026-01-23_19h17.51.467,MST_test,2024.2.0,59.960234369923235,2026-01-23 19h17.58.156743 +0530,
131,0,132,s,2.962337100005243,None,132,0,131,575.3666589000495,,,,,,,,,,,,,,,,,,,,,,,,,,,,,,,,,,,,,,,,,,,,,,,,,,575.3511502000038,575.3666589000495,575.8677071999991,575.8505430000369,575.8620605000178,575.8677071999991,575.8677071999991,575.8677071999991,578.8336994000128,Objects\107b.jpg,post,s,2.962337100005243,None,,,,,,,,00041,001,2026-01-23_19h17.51.467,MST_test,2024.2.0,59.960234369923235,2026-01-23 19h17.58.156743 +0530,
132,0,133,n,2.8953839000314474,None,133,0,132,578.8501348000136,,,,,,,,,,,,,,,,,,,,,,,,,,,,,,,,,,,,,,,,,,,,,,,,,,578.834059100016,578.8501348000136,579.3507162000169,579.3338470000308,579.3425916000269,579.3507162000169,579.3507162000169,579.3507162000169,582.2508150000358,Scenes\087a.jpg,mid,n,2.8953839000314474,None,,,,,,,,00041,001,2026-01-23_19h17.51.467,MST_test,2024.2.0,59.960234369923235,2026-01-23 19h17.58.156743 +0530,
133,0,134,s,1.8337308999616653,None,134,0,133,582.2670678000432,,,,,,,,,,,,,,,,,,,,,,,,,,,,,,,,,,,,,,,,,,,,,,,,,,582.251173000026,582.2670678000432,582.8049295000383,582.7502075000084,582.8022127000149,582.8049295000383,582.8049295000383,582.8049295000383,584.6505897000316,Scenes\014b.jpg,post,s,1.8337308999616653,None,,,,,,,,00041,001,2026-01-23_19h17.51.467,MST_test,2024.2.0,59.960234369923235,2026-01-23 19h17.58.156743 +0530,
134,0,135,o,1.2232177999685518,None,135,0,134,584.6668041000376,,,,,,,,,,,,,,,,,,,,,,,,,,,,,,,,,,,,,,,,,,,,,,,,,,584.6508794000256,584.6668041000376,585.1670315000229,585.1505398000008,585.1594237000099,585.1670315000229,585.1670315000229,585.1670315000229,586.4009430000442,Objects\063a.jpg,post,o,1.2232177999685518,None,,,,,,,,00041,001,2026-01-23_19h17.51.467,MST_test,2024.2.0,59.960234369923235,2026-01-23 19h17.58.156743 +0530,
135,0,136,n,2.497587299963925,None,136,0,135,586.4174021999934,,,,,,,,,,,,,,,,,,,,,,,,,,,,,,,,,,,,,,,,,,,,,,,,,,586.4012958999956,586.4174021999934,586.9170980000054,586.9005342000164,586.9094382000039,586.9170980000054,586.9170980000054,586.9170980000054,589.4171759000164,Foils\086a.jpg,none,n,2.497587299963925,None,,,,,,,,00041,001,2026-01-23_19h17.51.467,MST_test,2024.2.0,59.960234369923235,2026-01-23 19h17.58.156743 +0530,
136,0,137,o,1.9523638999671675,None,137,0,136,589.4337764999946,,,,,,,,,,,,,,,,,,,,,,,,,,,,,,,,,,,,,,,,,,,,,,,,,,589.4175188000081,589.4337764999946,589.9336161999963,589.9172207000083,589.9243965999922,589.9336161999963,589.9336161999963,589.9336161999963,591.900782700046,Objects\169a.jpg,post,o,1.9523638999671675,None,,,,,,,,00041,001,2026-01-23_19h17.51.467,MST_test,2024.2.0,59.960234369923235,2026-01-23 19h17.58.156743 +0530,
137,0,138,o,2.2769557000137866,None,138,0,137,591.9168088000151,,,,,,,,,,,,,,,,,,,,,,,,,,,,,,,,,,,,,,,,,,,,,,,,,,591.9011440000031,591.9168088000151,592.4170681000105,592.400551400031,592.4085285000037,592.4170681000105,592.4170681000105,592.4170681000105,594.7005125000142,Objects\096b.jpg,pre,o,2.2769557000137866,None,,,,,,,,00041,001,2026-01-23_19h17.51.467,MST_test,2024.2.0,59.960234369923235,2026-01-23 19h17.58.156743 +0530,
138,0,139,s,1.6350152000086382,None,139,0,138,594.7168019000092,,,,,,,,,,,,,,,,,,,,,,,,,,,,,,,,,,,,,,,,,,,,,,,,,,594.7008893000311,594.7168019000092,595.2350122000207,595.200605400023,595.2327415000182,595.2350122000207,595.2350122000207,595.2350122000207,596.8838999000145,Objects\050b.jpg,mid,s,1.6350152000086382,None,,,,,,,,00041,001,2026-01-23_19h17.51.467,MST_test,2024.2.0,59.960234369923235,2026-01-23 19h17.58.156743 +0530,
139,0,140,s,1.349620099994354,None,140,0,139,596.8999846000224,,,,,,,,,,,,,,,,,,,,,,,,,,,,,,,,,,,,,,,,,,,,,,,,,,596.8842719999957,596.8999846000224,597.4004857999971,597.3831906000269,597.3933986000484,597.4004857999971,597.4004857999971,597.4004857999971,598.7510034000152,Scenes\016a.jpg,mid,s,1.349620099994354,None,,,,,,,,00041,001,2026-01-23_19h17.51.467,MST_test,2024.2.0,59.960234369923235,2026-01-23 19h17.58.156743 +0530,
140,0,141,o,1.4830304000061005,None,141,0,140,598.7668197000166,,,,,,,,,,,,,,,,,,,,,,,,,,,,,,,,,,,,,,,,,,,,,,,,,,598.7513634000206,598.7668197000166,599.2670464999974,599.2502582000452,599.2605690000346,599.2670464999974,599.2670464999974,599.2670464999974,600.7509081000462,Objects\165a.jpg,pre,o,1.4830304000061005,None,,,,,,,,00041,001,2026-01-23_19h17.51.467,MST_test,2024.2.0,59.960234369923235,2026-01-23 19h17.58.156743 +0530,
141,0,142,s,7.802057599998079,None,142,0,141,600.7668018999975,,,,,,,,,,,,,,,,,,,,,,,,,,,,,,,,,,,,,,,,,,,,,,,,,,600.7512792000198,600.7668018999975,601.2679801000049,601.2508362000226,601.263836099999,601.2679801000049,601.2679801000049,601.2679801000049,609.084042500006,Scenes\150b.jpg,mid,s,7.802057599998079,None,,,,,,,,00041,001,2026-01-23_19h17.51.467,MST_test,2024.2.0,59.960234369923235,2026-01-23 19h17.58.156743 +0530,
142,0,143,o,1.5577796999714337,None,143,0,142,609.1004243000061,,,,,,,,,,,,,,,,,,,,,,,,,,,,,,,,,,,,,,,,,,,,,,,,,,609.0844236999983,609.1004243000061,609.6004710000125,609.5838087000302,609.593505900004,609.6004710000125,609.6004710000125,609.6004710000125,611.1672839000239,Objects\183b.jpg,pre,o,1.5577796999714337,None,,,,,,,,00041,001,2026-01-23_19h17.51.467,MST_test,2024.2.0,59.960234369923235,2026-01-23 19h17.58.156743 +0530,
143,0,144,s,3.8380143999820575,None,144,0,143,611.1841247000266,,,,,,,,,,,,,,,,,,,,,,,,,,,,,,,,,,,,,,,,,,,,,,,,,,611.167637000035,611.1841247000266,611.7121049000416,611.6672346999985,611.7091302000335,611.7121049000416,611.7121049000416,611.7121049000416,615.5510040000081,Scenes\091b.jpg,post,s,3.8380143999820575,None,,,,,,,,00041,001,2026-01-23_19h17.51.467,MST_test,2024.2.0,59.960234369923235,2026-01-23 19h17.58.156743 +0530,
144,0,145,s,8.768431700009387,None,145,0,144,615.5668025000487,,,,,,,,,,,,,,,,,,,,,,,,,,,,,,,,,,,,,,,,,,,,,,,,,,615.5513827000395,615.5668025000487,616.0702988000121,616.0512591000297,616.0678401000332,616.0702988000121,616.0702988000121,616.0702988000121,624.8507866000291,Scenes\108a.jpg,post,s,8.768431700009387,None,,,,,,,,00041,001,2026-01-23_19h17.51.467,MST_test,2024.2.0,59.960234369923235,2026-01-23 19h17.58.156743 +0530,
145,0,146,s,1.390557499951683,None,146,0,145,624.8676581000327,,,,,,,,,,,,,,,,,,,,,,,,,,,,,,,,,,,,,,,,,,,,,,,,,,624.8511623000377,624.8676581000327,625.3674571000156,625.350542500033,625.3587906000321,625.3674571000156,625.3674571000156,625.3674571000156,626.76746620005,Scenes\166a.jpg,post,s,1.390557499951683,None,,,,,,,,00041,001,2026-01-23_19h17.51.467,MST_test,2024.2.0,59.960234369923235,2026-01-23 19h17.58.156743 +0530,
146,0,147,o,1.234515200019814,None,147,0,146,626.783399100008,,,,,,,,,,,,,,,,,,,,,,,,,,,,,,,,,,,,,,,,,,,,,,,,,,626.7678175000474,626.783399100008,627.2837072000257,627.2671735000331,627.2771071000025,627.2837072000257,627.2837072000257,627.2837072000257,628.5338374000276,Objects\090a.jpg,post,o,1.234515200019814,None,,,,,,,,00041,001,2026-01-23_19h17.51.467,MST_test,2024.2.0,59.960234369923235,2026-01-23 19h17.58.156743 +0530,
147,0,148,o,1.2675108999828808,None,148,0,147,628.5499797000084,,,,,,,,,,,,,,,,,,,,,,,,,,,,,,,,,,,,,,,,,,,,,,,,,,628.5341892000288,628.5499797000084,629.066817700048,629.0335508999997,629.0641059000045,629.066817700048,629.066817700048,629.066817700048,630.3507820999948,Objects\032b.jpg,pre,o,1.2675108999828808,None,,,,,,,,00041,001,2026-01-23_19h17.51.467,MST_test,2024.2.0,59.960234369923235,2026-01-23 19h17.58.156743 +0530,
148,0,149,n,1.0810736999846995,None,149,0,148,630.3666471000179,,,,,,,,,,,,,,,,,,,,,,,,,,,,,,,,,,,,,,,,,,,,,,,,,,630.3511382000288,630.3666471000179,630.9335621999926,630.8504384999978,630.9292701000231,630.9335621999926,630.9335621999926,630.9335621999926,632.0173744000494,Foils\scenes25.jpg,none,n,1.0810736999846995,None,,,,,,,,00041,001,2026-01-23_19h17.51.467,MST_test,2024.2.0,59.960234369923235,2026-01-23 19h17.58.156743 +0530,
149,0,150,n,1.2056521999766119,None,150,0,149,632.0334054999985,,,,,,,,,,,,,,,,,,,,,,,,,,,,,,,,,,,,,,,,,,,,,,,,,,632.0177283000085,632.0334054999985,632.5369515000493,632.5168590000249,632.5259903999977,632.5369515000493,632.5369515000493,632.5369515000493,633.751759900013,Objects\131b.jpg,mid,n,1.2056521999766119,None,,,,,,,,00041,001,2026-01-23_19h17.51.467,MST_test,2024.2.0,59.960234369923235,2026-01-23 19h17.58.156743 +0530,
,,,,,,,,,,,,,,,,,,,,,,,,,,,,,,,,,,,,,,,,,,,,,,,,,,,,,,,,,,,,,,,,,,,,,,,,,633.7520172999939,633.7669074000441,633.7669074000441,636.051174000022,space,2.279214799986221,None,00041,001,2026-01-23_19h17.51.467,MST_test,2024.2.0,59.960234369923235,2026-01-23 19h17.58.156743 +0530,
