thisN,thisTrialN,thisRepN,key_resp_3.keys,key_resp_3.rt,key_resp_3.duration,trials.thisRepN,trials.thisTrialN,trials.thisN,thisRow.t,notes,intro_page.started,text.started,key_resp.started,intro_page.stopped,key_resp.keys,key_resp.rt,key_resp.duration,instructions.started,text_2.started,key_resp_2.started,instructions.stopped,key_resp_2.keys,key_resp_2.rt,key_resp_2.duration,demo1.started,image_1.started,image_2.started,text_7.started,key_resp_6.started,text_9.started,demo1.stopped,key_resp_6.keys,key_resp_6.rt,key_resp_6.duration,demo2.started,image_5.started,image_6.started,text_11.started,text_12.started,key_resp_8.started,demo2.stopped,key_resp_8.keys,key_resp_8.rt,key_resp_8.duration,demo_conclusion.started,text_13.started,key_resp_9.started,demo_conclusion.stopped,key_resp_9.keys,key_resp_9.rt,key_resp_9.duration,start_test.started,text_6.started,key_resp_5.started,start_test.stopped,key_resp_5.keys,key_resp_5.rt,key_resp_5.duration,ISI.started,text_4.started,text_4.stopped,ISI.stopped,routine_1.started,image.started,text_3.started,key_resp_3.started,routine_1.stopped,image_path,position_of_stimuli,trials.key_resp_3.keys,trials.key_resp_3.rt,trials.key_resp_3.duration,End_page.started,text_5.started,key_resp_4.started,End_page.stopped,key_resp_4.keys,key_resp_4.rt,key_resp_4.duration,participant,session,date,expName,psychopyVersion,frameRate,expStart,
,,,,,,,,,,,0.0011647999635897577,0.002556299965362996,0.002556299965362996,2.2489719999721274,space,2.2412953000166453,None,,,,,,,,,,,,,,,,,,,,,,,,,,,,,,,,,,,,,,,,,,,,,,,,,,,,,,,,,,,,,,,00051,001,2026-01-25_12h41.05.232,MST_test,2024.2.0,59.8636425880391,2026-01-25 12h41.13.063545 +0530,
,,,,,,,,,,,,,,,,,,2.2490037999814376,2.263802199973725,2.263802199973725,12.214281299966387,space,9.94027250004001,None,,,,,,,,,,,,,,,,,,,,,,,,,,,,,,,,,,,,,,,,,,,,,,,,,,,,,,,,00051,001,2026-01-25_12h41.05.232,MST_test,2024.2.0,59.8636425880391,2026-01-25 12h41.13.063545 +0530,
,,,,,,,,,,,,,,,,,,,,,,,,,12.214308900001924,12.230916899978183,12.230916899978183,12.230916899978183,12.230916899978183,12.230916899978183,24.931186499947216,space,12.69221040001139,None,,,,,,,,,,,,,,,,,,,,,,,,,,,,,,,,,,,,,,,,,,,,,,00051,001,2026-01-25_12h41.05.232,MST_test,2024.2.0,59.8636425880391,2026-01-25 12h41.13.063545 +0530,
,,,,,,,,,,,,,,,,,,,,,,,,,,,,,,,,,,,24.931215099990368,24.94752889999654,24.94752889999654,24.94752889999654,24.94752889999654,24.94752889999654,29.381025499955285,space,4.417233299987856,None,,,,,,,,,,,,,,,,,,,,,,,,,,,,,,,,,,,,00051,001,2026-01-25_12h41.05.232,MST_test,2024.2.0,59.8636425880391,2026-01-25 12h41.13.063545 +0530,
,,,,,,,,,,,,,,,,,,,,,,,,,,,,,,,,,,,,,,,,,,,,,29.3810541999992,29.397019399970304,29.397019399970304,125.54758229997242,space,96.1421132000396,None,,,,,,,,,,,,,,,,,,,,,,,,,,,,,00051,001,2026-01-25_12h41.05.232,MST_test,2024.2.0,59.8636425880391,2026-01-25 12h41.13.063545 +0530,
,,,,,,,,,,,,,,,,,,,,,,,,,,,,,,,,,,,,,,,,,,,,,,,,,,,,125.54761559999315,125.56367859995225,125.56367859995225,138.9643052999745,space,13.39936929999385,None,,,,,,,,,,,,,,,,,,,,,,00051,001,2026-01-25_12h41.05.232,MST_test,2024.2.0,59.8636425880391,2026-01-25 12h41.13.063545 +0530,
0,0,1,n,9.530884399951901,None,1,0,0,138.98031449998962,,,,,,,,,,,,,,,,,,,,,,,,,,,,,,,,,,,,,,,,,,,,,,,,,,138.96794159995625,138.98031449998962,139.4887761999853,139.46405939996475,139.48639340000227,139.4887761999853,139.4887761999853,139.4887761999853,149.0309552999679,Scenes\192b.jpg,post,n,9.530884399951901,None,,,,,,,,00051,001,2026-01-25_12h41.05.232,MST_test,2024.2.0,59.8636425880391,2026-01-25 12h41.13.063545 +0530,
1,0,2,s,66.77668680000352,None,2,0,1,149.04699999996228,,,,,,,,,,,,,,,,,,,,,,,,,,,,,,,,,,,,,,,,,,,,,,,,,,149.0310527999536,149.04699999996228,149.54732239997247,149.53060790000018,149.53545829997165,149.54732239997247,149.54732239997247,149.54732239997247,216.3309202999808,Objects\129a.jpg,mid,s,66.77668680000352,None,,,,,,,,00051,001,2026-01-25_12h41.05.232,MST_test,2024.2.0,59.8636425880391,2026-01-25 12h41.13.063545 +0530,
2,0,3,o,9.155673100030981,None,3,0,2,216.34686759999022,,,,,,,,,,,,,,,,,,,,,,,,,,,,,,,,,,,,,,,,,,,,,,,,,,216.33101999998325,216.34686759999022,216.84747999999672,216.83041359996423,216.84112589998404,216.84747999999672,216.84747999999672,216.84747999999672,226.01417599996785,Scenes\009a.jpg,post,o,9.155673100030981,None,,,,,,,,00051,001,2026-01-25_12h41.05.232,MST_test,2024.2.0,59.8636425880391,2026-01-25 12h41.13.063545 +0530,
3,0,4,s,6.233018200029619,None,4,0,3,226.0301982999663,,,,,,,,,,,,,,,,,,,,,,,,,,,,,,,,,,,,,,,,,,,,,,,,,,226.01427899999544,226.0301982999663,226.53070479998132,226.51383529999293,226.5234736999846,226.53070479998132,226.53070479998132,226.53070479998132,232.76443319994723,Scenes\035a.jpg,mid,s,6.233018200029619,None,,,,,,,,00051,001,2026-01-25_12h41.05.232,MST_test,2024.2.0,59.8636425880391,2026-01-25 12h41.13.063545 +0530,
4,0,5,n,2.7471341000054963,None,5,0,4,232.78020959999412,,,,,,,,,,,,,,,,,,,,,,,,,,,,,,,,,,,,,,,,,,,,,,,,,,232.76452470000368,232.78020959999412,233.28075619996525,233.26389809994726,233.26725999999326,233.28075619996525,233.28075619996525,233.28075619996525,236.0307089999551,Foils\020b.jpg,none,n,2.7471341000054963,None,,,,,,,,00051,001,2026-01-25_12h41.05.232,MST_test,2024.2.0,59.8636425880391,2026-01-25 12h41.13.063545 +0530,
5,0,6,n,5.03375220001908,None,6,0,5,236.04694359999849,,,,,,,,,,,,,,,,,,,,,,,,,,,,,,,,,,,,,,,,,,,,,,,,,,236.03081809997093,236.04694359999849,236.55374770000344,236.53053139999975,236.55164759996114,236.55374770000344,236.55374770000344,236.55374770000344,241.59749059996102,Scenes\026b.jpg,mid,n,5.03375220001908,None,,,,,,,,00051,001,2026-01-25_12h41.05.232,MST_test,2024.2.0,59.8636425880391,2026-01-25 12h41.13.063545 +0530,
6,0,7,o,2.537791999988258,None,7,0,6,241.61361179995583,,,,,,,,,,,,,,,,,,,,,,,,,,,,,,,,,,,,,,,,,,,,,,,,,,241.59758539998438,241.61361179995583,242.11413959995843,242.09718139999313,242.10046799998963,242.11413959995843,242.11413959995843,242.11413959995843,244.66421919997083,Objects\026a.jpg,pre,o,2.537791999988258,None,,,,,,,,00051,001,2026-01-25_12h41.05.232,MST_test,2024.2.0,59.8636425880391,2026-01-25 12h41.13.063545 +0530,
7,0,8,o,3.0797332999645732,None,8,0,7,244.68013439996867,,,,,,,,,,,,,,,,,,,,,,,,,,,,,,,,,,,,,,,,,,,,,,,,,,244.66431559994817,244.68013439996867,245.18035069998587,245.16399869997986,245.16657349996967,245.18035069998587,245.18035069998587,245.18035069998587,248.26430199999595,Objects\044a.jpg,pre,o,3.0797332999645732,None,,,,,,,,00051,001,2026-01-25_12h41.05.232,MST_test,2024.2.0,59.8636425880391,2026-01-25 12h41.13.063545 +0530,
8,0,9,s,12.798355899984017,None,9,0,8,248.28045269998256,,,,,,,,,,,,,,,,,,,,,,,,,,,,,,,,,,,,,,,,,,,,,,,,,,248.26439309999114,248.28045269998256,248.7808641999727,248.76393489999464,248.77590690000216,248.7808641999727,248.7808641999727,248.7808641999727,261.58078019996174,Scenes\076a.jpg,pre,s,12.798355899984017,None,,,,,,,,00051,001,2026-01-25_12h41.05.232,MST_test,2024.2.0,59.8636425880391,2026-01-25 12h41.13.063545 +0530,
9,0,10,n,6.826061500003561,None,10,0,9,261.5969946999685,,,,,,,,,,,,,,,,,,,,,,,,,,,,,,,,,,,,,,,,,,,,,,,,,,261.58088369999314,261.5969946999685,262.0976186999469,262.08061979996273,262.09489710000344,262.0976186999469,262.0976186999469,262.0976186999469,268.9309932999895,Scenes\173b.jpg,post,n,6.826061500003561,None,,,,,,,,00051,001,2026-01-25_12h41.05.232,MST_test,2024.2.0,59.8636425880391,2026-01-25 12h41.13.063545 +0530,
10,0,11,o,9.880812300019898,None,11,0,10,268.9469406999997,,,,,,,,,,,,,,,,,,,,,,,,,,,,,,,,,,,,,,,,,,,,,,,,,,268.93108499998925,268.9469406999997,269.45025509997504,269.43060769996373,269.4479496999993,269.45025509997504,269.45025509997504,269.45025509997504,279.3475084999809,Scenes\040b.jpg,pre,o,9.880812300019898,None,,,,,,,,00051,001,2026-01-25_12h41.05.232,MST_test,2024.2.0,59.8636425880391,2026-01-25 12h41.13.063545 +0530,
11,0,12,n,10.68469169997843,None,12,0,11,279.3637072999845,,,,,,,,,,,,,,,,,,,,,,,,,,,,,,,,,,,,,,,,,,,,,,,,,,279.34759879997,279.3637072999845,279.864171299967,279.8472002999624,279.8504824999836,279.864171299967,279.864171299967,279.864171299967,290.56425429997034,Scenes\053b.jpg,post,n,10.68469169997843,None,,,,,,,,00051,001,2026-01-25_12h41.05.232,MST_test,2024.2.0,59.8636425880391,2026-01-25 12h41.13.063545 +0530,
12,0,13,o,4.298707799986005,None,13,0,12,290.58033389999764,,,,,,,,,,,,,,,,,,,,,,,,,,,,,,,,,,,,,,,,,,,,,,,,,,290.56434669997543,290.58033389999764,291.0807049999712,291.06397149997065,291.0760455999989,291.0807049999712,291.0807049999712,291.0807049999712,295.3809395999997,Objects\152b.jpg,pre,o,4.298707799986005,None,,,,,,,,00051,001,2026-01-25_12h41.05.232,MST_test,2024.2.0,59.8636425880391,2026-01-25 12h41.13.063545 +0530,
13,0,14,o,8.962010899966117,None,14,0,13,295.397027399973,,,,,,,,,,,,,,,,,,,,,,,,,,,,,,,,,,,,,,,,,,,,,,,,,,295.3810319999466,295.397027399973,295.89723999996204,295.88064549997216,295.88369359995704,295.89723999996204,295.89723999996204,295.89723999996204,304.86435950000305,Objects\126a.jpg,mid,o,8.962010899966117,None,,,,,,,,00051,001,2026-01-25_12h41.05.232,MST_test,2024.2.0,59.8636425880391,2026-01-25 12h41.13.063545 +0530,
14,0,15,o,2.9914701000088826,None,15,0,14,304.88027789996704,,,,,,,,,,,,,,,,,,,,,,,,,,,,,,,,,,,,,,,,,,,,,,,,,,304.8644534999621,304.88027789996704,305.38066749996506,305.36391269997694,305.37406149995513,305.38066749996506,305.38066749996506,305.38066749996506,308.3807514999644,Objects\078b.jpg,mid,o,2.9914701000088826,None,,,,,,,,00051,001,2026-01-25_12h41.05.232,MST_test,2024.2.0,59.8636425880391,2026-01-25 12h41.13.063545 +0530,
15,0,16,o,4.018032299994957,None,16,0,15,308.3968581999652,,,,,,,,,,,,,,,,,,,,,,,,,,,,,,,,,,,,,,,,,,,,,,,,,,308.38084339996567,308.3968581999652,308.8971476999577,308.8804256999865,308.8897419999703,308.8971476999577,308.8971476999577,308.8971476999577,312.93070879997686,Objects\167b.jpg,pre,o,4.018032299994957,None,,,,,,,,00051,001,2026-01-25_12h41.05.232,MST_test,2024.2.0,59.8636425880391,2026-01-25 12h41.13.063545 +0530,
16,0,17,n,2.133611400029622,None,17,0,16,312.946957499953,,,,,,,,,,,,,,,,,,,,,,,,,,,,,,,,,,,,,,,,,,,,,,,,,,312.9308028999949,312.946957499953,313.4470425999607,313.43042160000186,313.4333598999656,313.4470425999607,313.4470425999607,313.4470425999607,315.5974461999722,Foils\033a.jpg,none,n,2.133611400029622,None,,,,,,,,00051,001,2026-01-25_12h41.05.232,MST_test,2024.2.0,59.8636425880391,2026-01-25 12h41.13.063545 +0530,
17,0,18,n,1.9133625000249594,None,18,0,17,315.6136314999894,,,,,,,,,,,,,,,,,,,,,,,,,,,,,,,,,,,,,,,,,,,,,,,,,,315.59754489996703,315.6136314999894,316.113779999956,316.09719689999474,316.09962839999935,316.113779999956,316.113779999956,316.113779999956,318.0305977999815,Foils\106a.jpg,none,n,1.9133625000249594,None,,,,,,,,00051,001,2026-01-25_12h41.05.232,MST_test,2024.2.0,59.8636425880391,2026-01-25 12h41.13.063545 +0530,
18,0,19,o,3.056289400032256,None,19,0,18,318.0469096999732,,,,,,,,,,,,,,,,,,,,,,,,,,,,,,,,,,,,,,,,,,,,,,,,,,318.03069129999494,318.0469096999732,318.54732689994853,318.5303668999695,318.53762229997665,318.54732689994853,318.54732689994853,318.54732689994853,321.61410329997307,Scenes\098a.jpg,mid,o,3.056289400032256,None,,,,,,,,00051,001,2026-01-25_12h41.05.232,MST_test,2024.2.0,59.8636425880391,2026-01-25 12h41.13.063545 +0530,
19,0,20,n,1.6723253999953158,None,20,0,19,321.63018579996424,,,,,,,,,,,,,,,,,,,,,,,,,,,,,,,,,,,,,,,,,,,,,,,,,,321.61419419996673,321.63018579996424,322.1396523999865,322.11386839998886,322.13739259995054,322.1396523999865,322.1396523999865,322.1396523999865,323.8141989999567,Foils\scenes28.jpg,none,n,1.6723253999953158,None,,,,,,,,00051,001,2026-01-25_12h41.05.232,MST_test,2024.2.0,59.8636425880391,2026-01-25 12h41.13.063545 +0530,
20,0,21,o,3.5536882000160404,None,21,0,20,323.83018920000177,,,,,,,,,,,,,,,,,,,,,,,,,,,,,,,,,,,,,,,,,,,,,,,,,,323.81429339997703,323.83018920000177,324.3309409999638,324.3138549999567,324.3200655999826,324.3309409999638,324.3309409999638,324.3309409999638,327.89780869998503,Scenes\066a.jpg,post,o,3.5536882000160404,None,,,,,,,,00051,001,2026-01-25_12h41.05.232,MST_test,2024.2.0,59.8636425880391,2026-01-25 12h41.13.063545 +0530,
21,0,22,n,2.102790700038895,None,22,0,21,327.91365119995316,,,,,,,,,,,,,,,,,,,,,,,,,,,,,,,,,,,,,,,,,,,,,,,,,,327.89791079994757,327.91365119995316,328.4140099999495,328.3972400999628,328.4003036999493,328.4140099999495,328.4140099999495,328.4140099999495,330.5307410999667,Foils\082a.jpg,none,n,2.102790700038895,None,,,,,,,,00051,001,2026-01-25_12h41.05.232,MST_test,2024.2.0,59.8636425880391,2026-01-25 12h41.13.063545 +0530,
22,0,23,o,4.284086900006514,None,23,0,22,330.54695529997116,,,,,,,,,,,,,,,,,,,,,,,,,,,,,,,,,,,,,,,,,,,,,,,,,,330.53108289995,330.54695529997116,331.04718609998235,331.0304424999631,331.0335044999956,331.04718609998235,331.04718609998235,331.04718609998235,335.3474849999766,Objects\084a.jpg,mid,o,4.284086900006514,None,,,,,,,,00051,001,2026-01-25_12h41.05.232,MST_test,2024.2.0,59.8636425880391,2026-01-25 12h41.13.063545 +0530,
23,0,24,s,5.812034200003836,None,24,0,23,335.3635110000032,,,,,,,,,,,,,,,,,,,,,,,,,,,,,,,,,,,,,,,,,,,,,,,,,,335.34758030000376,335.3635110000032,335.8637950999546,335.84726519999094,335.8498246999807,335.8637950999546,335.8637950999546,335.8637950999546,341.68091189995175,Foils\050a.jpg,none,s,5.812034200003836,None,,,,,,,,00051,001,2026-01-25_12h41.05.232,MST_test,2024.2.0,59.8636425880391,2026-01-25 12h41.13.063545 +0530,
24,0,25,n,1.4059725999832153,None,25,0,24,341.6968805999495,,,,,,,,,,,,,,,,,,,,,,,,,,,,,,,,,,,,,,,,,,,,,,,,,,341.68101020000177,341.6968805999495,342.19736509997165,342.1804087999626,342.182738399948,342.19736509997165,342.19736509997165,342.19736509997165,343.6140462999465,Foils\scenes20.jpg,none,n,1.4059725999832153,None,,,,,,,,00051,001,2026-01-25_12h41.05.232,MST_test,2024.2.0,59.8636425880391,2026-01-25 12h41.13.063545 +0530,
25,0,26,s,6.464068599976599,None,26,0,25,343.63010629999917,,,,,,,,,,,,,,,,,,,,,,,,,,,,,,,,,,,,,,,,,,,,,,,,,,343.6141403999645,343.63010629999917,344.1312663999852,344.1137618999928,344.1293926999788,344.1312663999852,344.1312663999852,344.1312663999852,350.5977811999619,Scenes\152b.jpg,post,s,6.464068599976599,None,,,,,,,,00051,001,2026-01-25_12h41.05.232,MST_test,2024.2.0,59.8636425880391,2026-01-25 12h41.13.063545 +0530,
26,0,27,s,4.674594999989495,None,27,0,26,350.6135619999841,,,,,,,,,,,,,,,,,,,,,,,,,,,,,,,,,,,,,,,,,,,,,,,,,,350.59788639994804,350.6135619999841,351.1140094999573,351.097134599986,351.10754439997254,351.1140094999573,351.1140094999573,351.1140094999573,355.79743219999364,Objects\071b.jpg,pre,s,4.674594999989495,None,,,,,,,,00051,001,2026-01-25_12h41.05.232,MST_test,2024.2.0,59.8636425880391,2026-01-25 12h41.13.063545 +0530,
27,0,28,s,10.634337500028778,None,28,0,27,355.8136002999963,,,,,,,,,,,,,,,,,,,,,,,,,,,,,,,,,,,,,,,,,,,,,,,,,,355.7975354999653,355.8136002999963,356.31380669999635,356.29721399996197,356.30713209998794,356.31380669999635,356.31380669999635,356.31380669999635,366.96413759997813,Objects\085b.jpg,mid,s,10.634337500028778,None,,,,,,,,00051,001,2026-01-25_12h41.05.232,MST_test,2024.2.0,59.8636425880391,2026-01-25 12h41.13.063545 +0530,
28,0,29,o,4.322625699976925,None,29,0,28,366.9802210999769,,,,,,,,,,,,,,,,,,,,,,,,,,,,,,,,,,,,,,,,,,,,,,,,,,366.96423279994633,366.9802210999769,367.48040469997795,367.4639756999677,367.4670029999688,367.48040469997795,367.48040469997795,367.48040469997795,371.8142269999953,Objects\149a.jpg,post,o,4.322625699976925,None,,,,,,,,00051,001,2026-01-25_12h41.05.232,MST_test,2024.2.0,59.8636425880391,2026-01-25 12h41.13.063545 +0530,
29,0,30,s,4.920836400007829,None,30,0,29,371.83024899999145,,,,,,,,,,,,,,,,,,,,,,,,,,,,,,,,,,,,,,,,,,,,,,,,,,371.8143190999981,371.83024899999145,372.3306006999919,372.31378319999203,372.3279552999884,372.3306006999919,372.3306006999919,372.3306006999919,377.2641703999834,Scenes\074b.jpg,post,s,4.920836400007829,None,,,,,,,,00051,001,2026-01-25_12h41.05.232,MST_test,2024.2.0,59.8636425880391,2026-01-25 12h41.13.063545 +0530,
30,0,31,o,3.3902370000141673,None,31,0,30,377.2802897999645,,,,,,,,,,,,,,,,,,,,,,,,,,,,,,,,,,,,,,,,,,,,,,,,,,377.26426399999764,377.2802897999645,377.7808765999507,377.7638888999936,377.774503499968,377.7808765999507,377.7808765999507,377.7808765999507,381.1807598999585,Scenes\062a.jpg,post,o,3.3902370000141673,None,,,,,,,,00051,001,2026-01-25_12h41.05.232,MST_test,2024.2.0,59.8636425880391,2026-01-25 12h41.13.063545 +0530,
31,0,32,s,2.4659826999995857,None,32,0,31,381.19699049997143,,,,,,,,,,,,,,,,,,,,,,,,,,,,,,,,,,,,,,,,,,,,,,,,,,381.1808506999514,381.19699049997143,381.6976900000009,381.68054659996415,381.69105839997064,381.6976900000009,381.6976900000009,381.6976900000009,384.1643483999651,Objects\123b.jpg,pre,s,2.4659826999995857,None,,,,,,,,00051,001,2026-01-25_12h41.05.232,MST_test,2024.2.0,59.8636425880391,2026-01-25 12h41.13.063545 +0530,
32,0,33,s,5.116220900032204,None,33,0,32,384.18030389997875,,,,,,,,,,,,,,,,,,,,,,,,,,,,,,,,,,,,,,,,,,,,,,,,,,384.16444109997246,384.18030389997875,384.68050369998673,384.6639115999569,384.67358139995486,384.68050369998673,384.68050369998673,384.68050369998673,389.7976858000038,Objects\151b.jpg,mid,s,5.116220900032204,None,,,,,,,,00051,001,2026-01-25_12h41.05.232,MST_test,2024.2.0,59.8636425880391,2026-01-25 12h41.13.063545 +0530,
33,0,34,s,7.20141139999032,None,34,0,33,389.8136448999867,,,,,,,,,,,,,,,,,,,,,,,,,,,,,,,,,,,,,,,,,,,,,,,,,,389.7977823999827,389.8136448999867,390.3142225999618,390.2972421000013,390.3079691999592,390.3142225999618,390.3142225999618,390.3142225999618,397.53076039999723,Scenes\017a.jpg,pre,s,7.20141139999032,None,,,,,,,,00051,001,2026-01-25_12h41.05.232,MST_test,2024.2.0,59.8636425880391,2026-01-25 12h41.13.063545 +0530,
34,0,35,o,2.2994689000188373,None,35,0,34,397.5468234999571,,,,,,,,,,,,,,,,,,,,,,,,,,,,,,,,,,,,,,,,,,,,,,,,,,397.53085089998785,397.5468234999571,398.0475402000011,398.030602099956,398.0414000999881,398.0475402000011,398.0475402000011,398.0475402000011,400.347695000004,Scenes\081a.jpg,pre,o,2.2994689000188373,None,,,,,,,,00051,001,2026-01-25_12h41.05.232,MST_test,2024.2.0,59.8636425880391,2026-01-25 12h41.13.063545 +0530,
35,0,36,o,3.1084604999632575,None,36,0,35,400.3635568000027,,,,,,,,,,,,,,,,,,,,,,,,,,,,,,,,,,,,,,,,,,,,,,,,,,400.3477879999555,400.3635568000027,400.86411450000014,400.8470601000008,400.8588683999842,400.86411450000014,400.86411450000014,400.86411450000014,403.98075889999745,Scenes\072a.jpg,post,o,3.1084604999632575,None,,,,,,,,00051,001,2026-01-25_12h41.05.232,MST_test,2024.2.0,59.8636425880391,2026-01-25 12h41.13.063545 +0530,
36,0,37,o,4.593995999952313,None,37,0,36,403.99682689999463,,,,,,,,,,,,,,,,,,,,,,,,,,,,,,,,,,,,,,,,,,,,,,,,,,403.98085100000026,403.99682689999463,404.4974758999888,404.48041069996543,404.4915631999611,404.4974758999888,404.4974758999888,404.4974758999888,409.09748299996136,Scenes\102a.jpg,post,o,4.593995999952313,None,,,,,,,,00051,001,2026-01-25_12h41.05.232,MST_test,2024.2.0,59.8636425880391,2026-01-25 12h41.13.063545 +0530,
37,0,38,n,3.40917299996363,None,38,0,37,409.1135063999682,,,,,,,,,,,,,,,,,,,,,,,,,,,,,,,,,,,,,,,,,,,,,,,,,,409.0975767999771,409.1135063999682,409.6185257000034,409.5971684999531,409.6161496999557,409.6185257000034,409.6185257000034,409.6185257000034,413.0308383999509,Foils\scenes23.jpg,none,n,3.40917299996363,None,,,,,,,,00051,001,2026-01-25_12h41.05.232,MST_test,2024.2.0,59.8636425880391,2026-01-25 12h41.13.063545 +0530,
38,0,39,s,13.366529899998568,None,39,0,38,413.0468140000012,,,,,,,,,,,,,,,,,,,,,,,,,,,,,,,,,,,,,,,,,,,,,,,,,,413.03093319997424,413.0468140000012,413.5484950999962,413.530348100001,413.54640609998023,413.5484950999962,413.5484950999962,413.5484950999962,426.9305476999725,Scenes\023a.jpg,pre,s,13.366529899998568,None,,,,,,,,00051,001,2026-01-25_12h41.05.232,MST_test,2024.2.0,59.8636425880391,2026-01-25 12h41.13.063545 +0530,
39,0,40,s,8.948250899964478,None,40,0,39,426.94683079997776,,,,,,,,,,,,,,,,,,,,,,,,,,,,,,,,,,,,,,,,,,,,,,,,,,426.93064879998565,426.94683079997776,427.4475048999884,427.43043299997225,427.4345115000033,427.4475048999884,427.4475048999884,427.4475048999884,436.3974121999927,Foils\066a.jpg,none,s,8.948250899964478,None,,,,,,,,00051,001,2026-01-25_12h41.05.232,MST_test,2024.2.0,59.8636425880391,2026-01-25 12h41.13.063545 +0530,
40,0,41,s,9.929089300043415,None,41,0,40,436.4135275000008,,,,,,,,,,,,,,,,,,,,,,,,,,,,,,,,,,,,,,,,,,,,,,,,,,436.3975091999746,436.4135275000008,436.91390689997934,436.8970752999885,436.90978589997394,436.91390689997934,436.91390689997934,436.91390689997934,446.84743179997895,Objects\144b.jpg,mid,s,9.929089300043415,None,,,,,,,,00051,001,2026-01-25_12h41.05.232,MST_test,2024.2.0,59.8636425880391,2026-01-25 12h41.13.063545 +0530,
41,0,42,n,2.1993660000152886,None,42,0,41,446.8635391999851,,,,,,,,,,,,,,,,,,,,,,,,,,,,,,,,,,,,,,,,,,,,,,,,,,446.84752469998784,446.8635391999851,447.3636933999951,447.3470800999785,447.3505886999774,447.3636933999951,447.3636933999951,447.3636933999951,449.56416479998734,Foils\105a.jpg,none,n,2.1993660000152886,None,,,,,,,,00051,001,2026-01-25_12h41.05.232,MST_test,2024.2.0,59.8636425880391,2026-01-25 12h41.13.063545 +0530,
42,0,43,s,20.683262799982913,None,43,0,42,449.58003869996173,,,,,,,,,,,,,,,,,,,,,,,,,,,,,,,,,,,,,,,,,,,,,,,,,,449.5642562999856,449.58003869996173,450.0806389999925,450.0637206999818,450.0714945999789,450.0806389999925,450.0806389999925,450.0806389999925,470.780518799962,Scenes\101a.jpg,pre,s,20.683262799982913,None,,,,,,,,00051,001,2026-01-25_12h41.05.232,MST_test,2024.2.0,59.8636425880391,2026-01-25 12h41.13.063545 +0530,
43,0,44,o,2.081735999963712,None,44,0,43,470.7968506999896,,,,,,,,,,,,,,,,,,,,,,,,,,,,,,,,,,,,,,,,,,,,,,,,,,470.780612499977,470.7968506999896,471.2974469999899,471.28040749998763,471.2917317999527,471.2974469999899,471.2974469999899,471.2974469999899,473.3807910999749,Scenes\159a.jpg,pre,o,2.081735999963712,None,,,,,,,,00051,001,2026-01-25_12h41.05.232,MST_test,2024.2.0,59.8636425880391,2026-01-25 12h41.13.063545 +0530,
44,0,45,o,7.32173020002665,None,45,0,44,473.3968558999477,,,,,,,,,,,,,,,,,,,,,,,,,,,,,,,,,,,,,,,,,,,,,,,,,,473.3808852999937,473.3968558999477,473.89749529998517,473.8802924999618,473.8904482999933,473.89749529998517,473.89749529998517,473.89749529998517,481.2306606999482,Scenes\093a.jpg,mid,o,7.32173020002665,None,,,,,,,,00051,001,2026-01-25_12h41.05.232,MST_test,2024.2.0,59.8636425880391,2026-01-25 12h41.13.063545 +0530,
45,0,46,o,2.0397297000163235,None,46,0,45,481.24685870000394,,,,,,,,,,,,,,,,,,,,,,,,,,,,,,,,,,,,,,,,,,,,,,,,,,481.23075119999703,481.24685870000394,481.7473048999673,481.73030669998843,481.7335439999588,481.7473048999673,481.7473048999673,481.7473048999673,483.7974324999959,Objects\031a.jpg,post,o,2.0397297000163235,None,,,,,,,,00051,001,2026-01-25_12h41.05.232,MST_test,2024.2.0,59.8636425880391,2026-01-25 12h41.13.063545 +0530,
46,0,47,o,2.321348500030581,None,47,0,46,483.81352339999285,,,,,,,,,,,,,,,,,,,,,,,,,,,,,,,,,,,,,,,,,,,,,,,,,,483.79752429999644,483.81352339999285,484.31371359998593,484.2972412999952,484.29969259997597,484.31371359998593,484.31371359998593,484.31371359998593,486.647497799946,Objects\109a.jpg,mid,o,2.321348500030581,None,,,,,,,,00051,001,2026-01-25_12h41.05.232,MST_test,2024.2.0,59.8636425880391,2026-01-25 12h41.13.063545 +0530,
47,0,48,o,4.271563999995124,None,48,0,47,486.66361499996856,,,,,,,,,,,,,,,,,,,,,,,,,,,,,,,,,,,,,,,,,,,,,,,,,,486.6476046000025,486.66361499996856,487.164162400004,487.147222999949,487.15817499998957,487.164162400004,487.164162400004,487.164162400004,491.44829939998453,Scenes\015a.jpg,mid,o,4.271563999995124,None,,,,,,,,00051,001,2026-01-25_12h41.05.232,MST_test,2024.2.0,59.8636425880391,2026-01-25 12h41.13.063545 +0530,
48,0,49,s,7.113617700000759,None,49,0,48,491.4636377999559,,,,,,,,,,,,,,,,,,,,,,,,,,,,,,,,,,,,,,,,,,,,,,,,,,491.44839279999724,491.4636377999559,491.96937730000354,491.9471087999991,491.96713489998365,491.96937730000354,491.96937730000354,491.96937730000354,499.0974678999628,Scenes\142b.jpg,mid,s,7.113617700000759,None,,,,,,,,00051,001,2026-01-25_12h41.05.232,MST_test,2024.2.0,59.8636425880391,2026-01-25 12h41.13.063545 +0530,
49,0,50,s,3.6610711000394076,None,50,0,49,499.11361619998934,,,,,,,,,,,,,,,,,,,,,,,,,,,,,,,,,,,,,,,,,,,,,,,,,,499.0975638999953,499.11361619998934,499.61410069995327,499.5972023999784,499.6073736999533,499.61410069995327,499.61410069995327,499.61410069995327,503.280720699986,Objects\162b.jpg,pre,s,3.6610711000394076,None,,,,,,,,00051,001,2026-01-25_12h41.05.232,MST_test,2024.2.0,59.8636425880391,2026-01-25 12h41.13.063545 +0530,
50,0,51,s,3.951454800029751,None,51,0,50,503.2969435999985,,,,,,,,,,,,,,,,,,,,,,,,,,,,,,,,,,,,,,,,,,,,,,,,,,503.2808116999804,503.2969435999985,503.7972741999547,503.78044699999737,503.78996629995527,503.7972741999547,503.7972741999547,503.7972741999547,507.7641683999682,Objects\174b.jpg,pre,s,3.951454800029751,None,,,,,,,,00051,001,2026-01-25_12h41.05.232,MST_test,2024.2.0,59.8636425880391,2026-01-25 12h41.13.063545 +0530,
51,0,52,n,1.5873258999781683,None,52,0,51,507.7802683999762,,,,,,,,,,,,,,,,,,,,,,,,,,,,,,,,,,,,,,,,,,,,,,,,,,507.7642663999577,507.7802683999762,508.28056469996227,508.2639874999877,508.2744229999953,508.28056469996227,508.28056469996227,508.28056469996227,509.8808311999892,Foils\002a.jpg,none,n,1.5873258999781683,None,,,,,,,,00051,001,2026-01-25_12h41.05.232,MST_test,2024.2.0,59.8636425880391,2026-01-25 12h41.13.063545 +0530,
52,0,53,s,3.7352902999846265,None,53,0,52,509.8969254999538,,,,,,,,,,,,,,,,,,,,,,,,,,,,,,,,,,,,,,,,,,,,,,,,,,509.8809222999844,509.8969254999538,510.39717679994646,510.380514999968,510.38286589999916,510.39717679994646,510.39717679994646,510.39717679994646,514.1475478999782,Objects\011a.jpg,post,s,3.7352902999846265,None,,,,,,,,00051,001,2026-01-25_12h41.05.232,MST_test,2024.2.0,59.8636425880391,2026-01-25 12h41.13.063545 +0530,
53,0,54,n,10.483488099998794,None,54,0,53,514.1635329999845,,,,,,,,,,,,,,,,,,,,,,,,,,,,,,,,,,,,,,,,,,,,,,,,,,514.1476439999533,514.1635329999845,514.6641718999599,514.6472405999666,514.6595594999962,514.6641718999599,514.6641718999599,514.6641718999599,525.1640846999944,Scenes\166b.jpg,mid,n,10.483488099998794,None,,,,,,,,00051,001,2026-01-25_12h41.05.232,MST_test,2024.2.0,59.8636425880391,2026-01-25 12h41.13.063545 +0530,
54,0,55,n,1.5957987000001594,None,55,0,54,525.1802271999768,,,,,,,,,,,,,,,,,,,,,,,,,,,,,,,,,,,,,,,,,,,,,,,,,,525.1641793999588,525.1802271999768,525.7436121999635,525.6638612999814,525.7406663000002,525.7436121999635,525.7436121999635,525.7436121999635,527.3478076999891,Foils\scenes25.jpg,none,n,1.5957987000001594,None,,,,,,,,00051,001,2026-01-25_12h41.05.232,MST_test,2024.2.0,59.8636425880391,2026-01-25 12h41.13.063545 +0530,
55,0,56,n,1.6842320999712683,None,56,0,55,527.3635588999605,,,,,,,,,,,,,,,,,,,,,,,,,,,,,,,,,,,,,,,,,,,,,,,,,,527.347908900003,527.3635588999605,527.8715687999502,527.8471626999672,527.8680919999606,527.8715687999502,527.8715687999502,527.8715687999502,529.5641591000021,Foils\scenes22.jpg,none,n,1.6842320999712683,None,,,,,,,,00051,001,2026-01-25_12h41.05.232,MST_test,2024.2.0,59.8636425880391,2026-01-25 12h41.13.063545 +0530,
56,0,57,n,43.76239699998405,None,57,0,56,529.5801589999464,,,,,,,,,,,,,,,,,,,,,,,,,,,,,,,,,,,,,,,,,,,,,,,,,,529.5642613999662,529.5801589999464,530.0809352999786,530.0638492999715,530.0681029999978,530.0809352999786,530.0809352999786,530.0809352999786,573.8473987999605,Objects\027b.jpg,mid,n,43.76239699998405,None,,,,,,,,00051,001,2026-01-25_12h41.05.232,MST_test,2024.2.0,59.8636425880391,2026-01-25 12h41.13.063545 +0530,
57,0,58,n,9.116187700012233,None,58,0,57,573.8633544999757,,,,,,,,,,,,,,,,,,,,,,,,,,,,,,,,,,,,,,,,,,,,,,,,,,573.8474950999953,573.8633544999757,574.366847599973,574.3470603000023,574.3647704999894,574.366847599973,574.366847599973,574.366847599973,583.497356399952,Scenes\121b.jpg,mid,n,9.116187700012233,None,,,,,,,,00051,001,2026-01-25_12h41.05.232,MST_test,2024.2.0,59.8636425880391,2026-01-25 12h41.13.063545 +0530,
58,0,59,s,6.189147400029469,None,59,0,58,583.5133464999963,,,,,,,,,,,,,,,,,,,,,,,,,,,,,,,,,,,,,,,,,,,,,,,,,,583.4974469000008,583.5133464999963,584.0138963999925,583.9970652999473,584.0015112999827,584.0138963999925,584.0138963999925,584.0138963999925,590.214109099994,Objects\022a.jpg,post,s,6.189147400029469,None,,,,,,,,00051,001,2026-01-25_12h41.05.232,MST_test,2024.2.0,59.8636425880391,2026-01-25 12h41.13.063545 +0530,
59,0,60,o,27.376989999960642,None,60,0,59,590.2300943000009,,,,,,,,,,,,,,,,,,,,,,,,,,,,,,,,,,,,,,,,,,,,,,,,,,590.2141994999838,590.2300943000009,590.7306748999981,590.7136810999946,590.7240086999955,590.7306748999981,590.7306748999981,590.7306748999981,618.1141040999792,Scenes\122a.jpg,post,o,27.376989999960642,None,,,,,,,,00051,001,2026-01-25_12h41.05.232,MST_test,2024.2.0,59.8636425880391,2026-01-25 12h41.13.063545 +0530,
60,0,61,o,2.5242522999760695,None,61,0,60,618.1302791999769,,,,,,,,,,,,,,,,,,,,,,,,,,,,,,,,,,,,,,,,,,,,,,,,,,618.1141991999466,618.1302791999769,618.6307079999824,618.6138153999927,618.6172649999498,618.6307079999824,618.6307079999824,618.6307079999824,621.1641403999529,Objects\032a.jpg,mid,o,2.5242522999760695,None,,,,,,,,00051,001,2026-01-25_12h41.05.232,MST_test,2024.2.0,59.8636425880391,2026-01-25 12h41.13.063545 +0530,
61,0,62,o,7.946300199953839,None,62,0,61,621.1801784999552,,,,,,,,,,,,,,,,,,,,,,,,,,,,,,,,,,,,,,,,,,,,,,,,,,621.1642297999933,621.1801784999552,621.6807549999794,621.6638438999653,621.6748349999543,621.6807549999794,621.6807549999794,621.6807549999794,629.6307392999879,Scenes\029a.jpg,pre,o,7.946300199953839,None,,,,,,,,00051,001,2026-01-25_12h41.05.232,MST_test,2024.2.0,59.8636425880391,2026-01-25 12h41.13.063545 +0530,
62,0,63,s,19.359957000007853,None,63,0,62,629.6468465999933,,,,,,,,,,,,,,,,,,,,,,,,,,,,,,,,,,,,,,,,,,,,,,,,,,629.6308349999599,629.6468465999933,630.1473751000012,630.1305375999655,630.1416361999582,630.1473751000012,630.1473751000012,630.1473751000012,649.513999799965,Objects\171b.jpg,post,s,19.359957000007853,None,,,,,,,,00051,001,2026-01-25_12h41.05.232,MST_test,2024.2.0,59.8636425880391,2026-01-25 12h41.13.063545 +0530,
63,0,64,n,3.6662026999983937,None,64,0,63,649.530231199984,,,,,,,,,,,,,,,,,,,,,,,,,,,,,,,,,,,,,,,,,,,,,,,,,,649.514091399964,649.530231199984,650.0341861999477,650.013790500001,650.0319772999501,650.0341861999477,650.0341861999477,650.0341861999477,653.7139333999949,Scenes\136b.jpg,post,n,3.6662026999983937,None,,,,,,,,00051,001,2026-01-25_12h41.05.232,MST_test,2024.2.0,59.8636425880391,2026-01-25 12h41.13.063545 +0530,
64,0,65,o,9.700771200004965,None,65,0,64,653.7302386999945,,,,,,,,,,,,,,,,,,,,,,,,,,,,,,,,,,,,,,,,,,,,,,,,,,653.7140270999516,653.7302386999945,654.2305896999897,654.2138878999976,654.2167037999607,654.2305896999897,654.2305896999897,654.2305896999897,663.9473768000025,Objects\100a.jpg,mid,o,9.700771200004965,None,,,,,,,,00051,001,2026-01-25_12h41.05.232,MST_test,2024.2.0,59.8636425880391,2026-01-25 12h41.13.063545 +0530,
65,0,66,n,3.9079585999716073,None,66,0,65,663.9633962999796,,,,,,,,,,,,,,,,,,,,,,,,,,,,,,,,,,,,,,,,,,,,,,,,,,663.9474753999966,663.9633962999796,664.4639156999765,664.4471117999637,664.4494263999513,664.4639156999765,664.4639156999765,664.4639156999765,668.3806341000018,Foils\scenes19.jpg,none,n,3.9079585999716073,None,,,,,,,,00051,001,2026-01-25_12h41.05.232,MST_test,2024.2.0,59.8636425880391,2026-01-25 12h41.13.063545 +0530,
66,0,67,s,3.826708399981726,None,67,0,66,668.3967637000023,,,,,,,,,,,,,,,,,,,,,,,,,,,,,,,,,,,,,,,,,,,,,,,,,,668.3807287999662,668.3967637000023,668.8970431999769,668.8803593999473,668.8907037999597,668.8970431999769,668.8970431999769,668.8970431999769,672.7306946999743,Objects\048b.jpg,pre,s,3.826708399981726,None,,,,,,,,00051,001,2026-01-25_12h41.05.232,MST_test,2024.2.0,59.8636425880391,2026-01-25 12h41.13.063545 +0530,
67,0,68,s,4.676650500041433,None,68,0,67,672.7467993999599,,,,,,,,,,,,,,,,,,,,,,,,,,,,,,,,,,,,,,,,,,,,,,,,,,672.7307936999714,672.7467993999599,673.2469961000024,673.2304419999709,673.2402549999533,673.2469961000024,673.2469961000024,673.2469961000024,677.9307698999764,Objects\089b.jpg,post,s,4.676650500041433,None,,,,,,,,00051,001,2026-01-25_12h41.05.232,MST_test,2024.2.0,59.8636425880391,2026-01-25 12h41.13.063545 +0530,
68,0,69,s,8.756355999968946,None,69,0,68,677.9467180999927,,,,,,,,,,,,,,,,,,,,,,,,,,,,,,,,,,,,,,,,,,,,,,,,,,677.9308625999838,677.9467180999927,678.4469458999811,678.4303623999585,678.4400438999874,678.4469458999811,678.4469458999811,678.4469458999811,687.2138413999928,Objects\148b.jpg,pre,s,8.756355999968946,None,,,,,,,,00051,001,2026-01-25_12h41.05.232,MST_test,2024.2.0,59.8636425880391,2026-01-25 12h41.13.063545 +0530,
69,0,70,o,5.017144999990705,None,70,0,69,687.2301128999679,,,,,,,,,,,,,,,,,,,,,,,,,,,,,,,,,,,,,,,,,,,,,,,,,,687.2139366999618,687.2301128999679,687.7304366999888,687.7135616999585,687.7161568999873,687.7304366999888,687.7304366999888,687.7304366999888,692.7639495999902,Objects\122a.jpg,post,o,5.017144999990705,None,,,,,,,,00051,001,2026-01-25_12h41.05.232,MST_test,2024.2.0,59.8636425880391,2026-01-25 12h41.13.063545 +0530,
70,0,71,o,2.4749158000340685,None,71,0,70,692.7801169999875,,,,,,,,,,,,,,,,,,,,,,,,,,,,,,,,,,,,,,,,,,,,,,,,,,692.7640410999884,692.7801169999875,693.280264699948,693.2637141000014,693.2735718999757,693.280264699948,693.280264699948,693.280264699948,695.7638183999807,Objects\087b.jpg,post,o,2.4749158000340685,None,,,,,,,,00051,001,2026-01-25_12h41.05.232,MST_test,2024.2.0,59.8636425880391,2026-01-25 12h41.13.063545 +0530,
71,0,72,n,66.78444419999141,None,72,0,71,695.7801011999836,,,,,,,,,,,,,,,,,,,,,,,,,,,,,,,,,,,,,,,,,,,,,,,,,,695.7639087999705,695.7801011999836,696.2829678999842,696.263623399951,696.281016199966,696.2829678999842,696.2829678999842,696.2829678999842,763.0806519999751,Scenes\127b.jpg,pre,n,66.78444419999141,None,,,,,,,,00051,001,2026-01-25_12h41.05.232,MST_test,2024.2.0,59.8636425880391,2026-01-25 12h41.13.063545 +0530,
72,0,73,n,18.42192499997327,None,73,0,72,763.0967499999679,,,,,,,,,,,,,,,,,,,,,,,,,,,,,,,,,,,,,,,,,,,,,,,,,,763.0807567999582,763.0967499999679,763.5973403999815,763.5803273999481,763.5840198999504,763.5973403999815,763.5973403999815,763.5973403999815,782.0305980999838,Objects\073a.jpg,post,n,18.42192499997327,None,,,,,,,,00051,001,2026-01-25_12h41.05.232,MST_test,2024.2.0,59.8636425880391,2026-01-25 12h41.13.063545 +0530,
73,0,74,n,1.769226800010074,None,74,0,73,782.0466764000012,,,,,,,,,,,,,,,,,,,,,,,,,,,,,,,,,,,,,,,,,,,,,,,,,,782.0306923000026,782.0466764000012,782.5473720000009,782.5303400999983,782.5395718999789,782.5473720000009,782.5473720000009,782.5473720000009,784.3307351999683,Scenes\038a.jpg,mid,n,1.769226800010074,None,,,,,,,,00051,001,2026-01-25_12h41.05.232,MST_test,2024.2.0,59.8636425880391,2026-01-25 12h41.13.063545 +0530,
74,0,75,o,1.6947818999760784,None,75,0,74,784.3466738999705,,,,,,,,,,,,,,,,,,,,,,,,,,,,,,,,,,,,,,,,,,,,,,,,,,784.3308261999628,784.3466738999705,784.8531899999944,784.8303318999824,784.8510841999669,784.8531899999944,784.8531899999944,784.8531899999944,786.5640263999812,Scenes\114b.jpg,post,o,1.6947818999760784,None,,,,,,,,00051,001,2026-01-25_12h41.05.232,MST_test,2024.2.0,59.8636425880391,2026-01-25 12h41.13.063545 +0530,
75,0,76,o,2.866772400040645,None,76,0,75,786.5800517000025,,,,,,,,,,,,,,,,,,,,,,,,,,,,,,,,,,,,,,,,,,,,,,,,,,786.5641185999848,786.5800517000025,787.0805916999816,787.0636011000024,787.0724744999898,787.0805916999816,787.0805916999816,787.0805916999816,789.9638375999639,Scenes\071a.jpg,post,o,2.866772400040645,None,,,,,,,,00051,001,2026-01-25_12h41.05.232,MST_test,2024.2.0,59.8636425880391,2026-01-25 12h41.13.063545 +0530,
76,0,77,o,1.7865104000084102,None,77,0,76,789.9800722999498,,,,,,,,,,,,,,,,,,,,,,,,,,,,,,,,,,,,,,,,,,,,,,,,,,789.9639271999476,789.9800722999498,790.4807167999679,790.4636666000006,790.4697593000019,790.4807167999679,790.4807167999679,790.4807167999679,792.2806844000006,Scenes\007a.jpg,pre,o,1.7865104000084102,None,,,,,,,,00051,001,2026-01-25_12h41.05.232,MST_test,2024.2.0,59.8636425880391,2026-01-25 12h41.13.063545 +0530,
77,0,78,s,2.6381294000311755,None,78,0,77,792.2967370999977,,,,,,,,,,,,,,,,,,,,,,,,,,,,,,,,,,,,,,,,,,,,,,,,,,792.2807767999475,792.2967370999977,792.797204100003,792.7803120999597,792.7834901000024,792.797204100003,792.797204100003,792.797204100003,795.4473044999759,Objects\158a.jpg,pre,s,2.6381294000311755,None,,,,,,,,00051,001,2026-01-25_12h41.05.232,MST_test,2024.2.0,59.8636425880391,2026-01-25 12h41.13.063545 +0530,
78,0,79,n,7.543232999974862,None,79,0,78,795.4632390999468,,,,,,,,,,,,,,,,,,,,,,,,,,,,,,,,,,,,,,,,,,,,,,,,,,795.4473948999657,795.4632390999468,795.9636691999622,795.9469960999559,795.957132099953,795.9636691999622,795.9636691999622,795.9636691999622,803.5140492999926,Objects\045b.jpg,mid,n,7.543232999974862,None,,,,,,,,00051,001,2026-01-25_12h41.05.232,MST_test,2024.2.0,59.8636425880391,2026-01-25 12h41.13.063545 +0530,
79,0,80,o,12.682004899950698,None,80,0,79,803.5300572999986,,,,,,,,,,,,,,,,,,,,,,,,,,,,,,,,,,,,,,,,,,,,,,,,,,803.5141428999486,803.5300572999986,804.0329758999869,804.0135197999771,804.0308709999663,804.0329758999869,804.0329758999869,804.0329758999869,816.7305518999929,Scenes\047b.jpg,mid,o,12.682004899950698,None,,,,,,,,00051,001,2026-01-25_12h41.05.232,MST_test,2024.2.0,59.8636425880391,2026-01-25 12h41.13.063545 +0530,
80,0,81,n,5.560418000037316,None,81,0,80,816.7467347999918,,,,,,,,,,,,,,,,,,,,,,,,,,,,,,,,,,,,,,,,,,,,,,,,,,816.730646699958,816.7467347999918,817.2504833999556,817.2303045999724,817.2483822999639,817.2504833999556,817.2504833999556,817.2504833999556,822.8139624999603,Scenes\158b.jpg,pre,n,5.560418000037316,None,,,,,,,,00051,001,2026-01-25_12h41.05.232,MST_test,2024.2.0,59.8636425880391,2026-01-25 12h41.13.063545 +0530,
81,0,82,o,2.1372177000157535,None,82,0,81,822.8299976999988,,,,,,,,,,,,,,,,,,,,,,,,,,,,,,,,,,,,,,,,,,,,,,,,,,822.8140520000015,822.8299976999988,823.3306933999993,823.3135705000022,823.3166096999776,823.3306933999993,823.3306933999993,823.3306933999993,825.4805816999869,Objects\009a.jpg,mid,o,2.1372177000157535,None,,,,,,,,00051,001,2026-01-25_12h41.05.232,MST_test,2024.2.0,59.8636425880391,2026-01-25 12h41.13.063545 +0530,
82,0,83,n,2.286664600018412,None,83,0,82,825.4967266999884,,,,,,,,,,,,,,,,,,,,,,,,,,,,,,,,,,,,,,,,,,,,,,,,,,825.4806776999612,825.4967266999884,825.9969466999755,825.9802435999736,825.9909348999499,825.9969466999755,825.9969466999755,825.9969466999755,828.2972445999621,Foils\026a.jpg,none,n,2.286664600018412,None,,,,,,,,00051,001,2026-01-25_12h41.05.232,MST_test,2024.2.0,59.8636425880391,2026-01-25 12h41.13.063545 +0530,
83,0,84,n,2.877333100012038,None,84,0,83,828.313318499946,,,,,,,,,,,,,,,,,,,,,,,,,,,,,,,,,,,,,,,,,,,,,,,,,,828.2973352999543,828.313318499946,828.813997899997,828.7969745000009,828.8111008999986,828.813997899997,828.813997899997,828.813997899997,831.6972740999772,Scenes\169b.jpg,pre,n,2.877333100012038,None,,,,,,,,00051,001,2026-01-25_12h41.05.232,MST_test,2024.2.0,59.8636425880391,2026-01-25 12h41.13.063545 +0530,
84,0,85,s,4.669146700005513,None,85,0,84,831.7132311000023,,,,,,,,,,,,,,,,,,,,,,,,,,,,,,,,,,,,,,,,,,,,,,,,,,831.6973707999568,831.7132311000023,832.2139308999758,832.1970315999934,832.2113295999588,832.2139308999758,832.2139308999758,832.2139308999758,836.8973988999496,Scenes\018b.jpg,pre,s,4.669146700005513,None,,,,,,,,00051,001,2026-01-25_12h41.05.232,MST_test,2024.2.0,59.8636425880391,2026-01-25 12h41.13.063545 +0530,
85,0,86,s,4.94206580001628,None,86,0,85,836.9132293000002,,,,,,,,,,,,,,,,,,,,,,,,,,,,,,,,,,,,,,,,,,,,,,,,,,836.8974887999939,836.9132293000002,837.4137612999766,837.3970828999882,837.4058063999983,837.4137612999766,837.4137612999766,837.4137612999766,842.3638980999822,Foils\scenes1.jpg,none,s,4.94206580001628,None,,,,,,,,00051,001,2026-01-25_12h41.05.232,MST_test,2024.2.0,59.8636425880391,2026-01-25 12h41.13.063545 +0530,
86,0,87,n,1.3147225000429899,None,87,0,86,842.3802585999947,,,,,,,,,,,,,,,,,,,,,,,,,,,,,,,,,,,,,,,,,,,,,,,,,,842.3639940999565,842.3802585999947,842.8804133999511,842.8635459999787,842.8782254999969,842.8804133999511,842.8804133999511,842.8804133999511,844.1973492999678,Scenes\157b.jpg,mid,n,1.3147225000429899,None,,,,,,,,00051,001,2026-01-25_12h41.05.232,MST_test,2024.2.0,59.8636425880391,2026-01-25 12h41.13.063545 +0530,
87,0,88,n,5.689439699985087,None,88,0,87,844.213244899991,,,,,,,,,,,,,,,,,,,,,,,,,,,,,,,,,,,,,,,,,,,,,,,,,,844.1974398999591,844.213244899991,844.7138390999753,844.6970031999517,844.707182299986,844.7138390999753,844.7138390999753,844.7138390999753,850.4138987999759,Foils\065a.jpg,none,n,5.689439699985087,None,,,,,,,,00051,001,2026-01-25_12h41.05.232,MST_test,2024.2.0,59.8636425880391,2026-01-25 12h41.13.063545 +0530,
88,0,89,s,1.8724155999952927,None,89,0,88,850.4301530999946,,,,,,,,,,,,,,,,,,,,,,,,,,,,,,,,,,,,,,,,,,,,,,,,,,850.4139958999585,850.4301530999946,850.9304344999837,850.9136065999628,850.9162629999919,850.9304344999837,850.9304344999837,850.9304344999837,852.8140751000028,Objects\076a.jpg,pre,s,1.8724155999952927,None,,,,,,,,00051,001,2026-01-25_12h41.05.232,MST_test,2024.2.0,59.8636425880391,2026-01-25 12h41.13.063545 +0530,
89,0,90,o,1.0330110999639146,None,90,0,89,852.8300838999567,,,,,,,,,,,,,,,,,,,,,,,,,,,,,,,,,,,,,,,,,,,,,,,,,,852.8141669000033,852.8300838999567,853.3303105999948,853.3137161999475,853.3161258999608,853.3303105999948,853.3303105999948,853.3303105999948,854.3650467999978,Objects\128b.jpg,mid,o,1.0330110999639146,None,,,,,,,,00051,001,2026-01-25_12h41.05.232,MST_test,2024.2.0,59.8636425880391,2026-01-25 12h41.13.063545 +0530,
90,0,91,o,2.9226255000103265,None,91,0,90,854.3801815999905,,,,,,,,,,,,,,,,,,,,,,,,,,,,,,,,,,,,,,,,,,,,,,,,,,854.3651439999812,854.3801815999905,854.8807223999756,854.8637624999974,854.8777617999585,854.8807223999756,854.8807223999756,854.8807223999756,857.8138907999964,Scenes\024b.jpg,mid,o,2.9226255000103265,None,,,,,,,,00051,001,2026-01-25_12h41.05.232,MST_test,2024.2.0,59.8636425880391,2026-01-25 12h41.13.063545 +0530,
91,0,92,o,1.7311645000008866,None,92,0,91,857.8300660999957,,,,,,,,,,,,,,,,,,,,,,,,,,,,,,,,,,,,,,,,,,,,,,,,,,857.8139794999734,857.8300660999957,858.3359120999812,858.313649299962,858.3338496999932,858.3359120999812,858.3359120999812,858.3359120999812,860.0809369999915,Scenes\059b.jpg,pre,o,1.7311645000008866,None,,,,,,,,00051,001,2026-01-25_12h41.05.232,MST_test,2024.2.0,59.8636425880391,2026-01-25 12h41.13.063545 +0530,
92,0,93,o,3.7740557999932207,None,93,0,92,860.0968307000003,,,,,,,,,,,,,,,,,,,,,,,,,,,,,,,,,,,,,,,,,,,,,,,,,,860.0810357999871,860.0968307000003,860.5974354999489,860.5804110000026,860.5865681999712,860.5974354999489,860.5974354999489,860.5974354999489,864.3807087999885,Scenes\153a.jpg,mid,o,3.7740557999932207,None,,,,,,,,00051,001,2026-01-25_12h41.05.232,MST_test,2024.2.0,59.8636425880391,2026-01-25 12h41.13.063545 +0530,
93,0,94,s,3.081533499993384,None,94,0,93,864.3967966999626,,,,,,,,,,,,,,,,,,,,,,,,,,,,,,,,,,,,,,,,,,,,,,,,,,864.3808056999696,864.3967966999626,864.8973095999681,864.8804561999859,864.8903860999853,864.8973095999681,864.8973095999681,864.8973095999681,867.9807307999581,Objects\135b.jpg,pre,s,3.081533499993384,None,,,,,,,,00051,001,2026-01-25_12h41.05.232,MST_test,2024.2.0,59.8636425880391,2026-01-25 12h41.13.063545 +0530,
94,0,95,n,2.683693799946923,None,95,0,94,867.9967857999727,,,,,,,,,,,,,,,,,,,,,,,,,,,,,,,,,,,,,,,,,,,,,,,,,,867.9808202999993,867.9967857999727,868.4970126999542,868.4804550999543,868.4828540000017,868.4970126999542,868.4970126999542,868.4970126999542,871.1972784999525,Foils\073a.jpg,none,n,2.683693799946923,None,,,,,,,,00051,001,2026-01-25_12h41.05.232,MST_test,2024.2.0,59.8636425880391,2026-01-25 12h41.13.063545 +0530,
95,0,96,o,7.946053399995435,None,96,0,95,871.2134127999889,,,,,,,,,,,,,,,,,,,,,,,,,,,,,,,,,,,,,,,,,,,,,,,,,,871.1973685999983,871.2134127999889,871.7137271999964,871.6969898999669,871.6999507999863,871.7137271999964,871.7137271999964,871.7137271999964,879.6639954999555,Objects\178a.jpg,mid,o,7.946053399995435,None,,,,,,,,00051,001,2026-01-25_12h41.05.232,MST_test,2024.2.0,59.8636425880391,2026-01-25 12h41.13.063545 +0530,
96,0,97,n,2.463173799973447,None,97,0,96,879.6800722999615,,,,,,,,,,,,,,,,,,,,,,,,,,,,,,,,,,,,,,,,,,,,,,,,,,879.664093600004,879.6800722999615,880.180322500004,880.1637454999727,880.1753427999793,880.180322500004,880.180322500004,880.180322500004,882.6474674999481,Foils\093b.jpg,none,n,2.463173799973447,None,,,,,,,,00051,001,2026-01-25_12h41.05.232,MST_test,2024.2.0,59.8636425880391,2026-01-25 12h41.13.063545 +0530,
97,0,98,n,4.224486400024034,None,98,0,97,882.6637218999676,,,,,,,,,,,,,,,,,,,,,,,,,,,,,,,,,,,,,,,,,,,,,,,,,,882.6475565999863,882.6637218999676,883.1635761999642,883.1471886999789,883.156762700004,883.1635761999642,883.1635761999642,883.1635761999642,887.3974771999638,Objects\139b.jpg,pre,n,4.224486400024034,None,,,,,,,,00051,001,2026-01-25_12h41.05.232,MST_test,2024.2.0,59.8636425880391,2026-01-25 12h41.13.063545 +0530,
98,0,99,o,1.261444300005678,None,99,0,98,887.4135518999537,,,,,,,,,,,,,,,,,,,,,,,,,,,,,,,,,,,,,,,,,,,,,,,,,,887.3975687999628,887.4135518999537,887.9175119999563,887.8970367999864,887.9152231999906,887.9175119999563,887.9175119999563,887.9175119999563,889.1807718999917,Scenes\003b.jpg,post,o,1.261444300005678,None,,,,,,,,00051,001,2026-01-25_12h41.05.232,MST_test,2024.2.0,59.8636425880391,2026-01-25 12h41.13.063545 +0530,
99,0,100,n,1.4258027999894693,None,100,0,99,889.196805399959,,,,,,,,,,,,,,,,,,,,,,,,,,,,,,,,,,,,,,,,,,,,,,,,,,889.180861699977,889.196805399959,889.6970108999521,889.680434799986,889.6845037000021,889.6970108999521,889.6970108999521,889.6970108999521,891.1307569999481,Foils\scenes17.jpg,none,n,1.4258027999894693,None,,,,,,,,00051,001,2026-01-25_12h41.05.232,MST_test,2024.2.0,59.8636425880391,2026-01-25 12h41.13.063545 +0530,
100,0,101,o,1.9731566999689676,None,101,0,100,891.1467162999907,,,,,,,,,,,,,,,,,,,,,,,,,,,,,,,,,,,,,,,,,,,,,,,,,,891.1308459999855,891.1467162999907,891.6471092999564,891.630335599999,891.6335759999929,891.6471092999564,891.6471092999564,891.6471092999564,893.6306998999789,Objects\169a.jpg,post,o,1.9731566999689676,None,,,,,,,,00051,001,2026-01-25_12h41.05.232,MST_test,2024.2.0,59.8636425880391,2026-01-25 12h41.13.063545 +0530,
101,0,102,n,4.511553300020751,None,102,0,101,893.6468048999668,,,,,,,,,,,,,,,,,,,,,,,,,,,,,,,,,,,,,,,,,,,,,,,,,,893.630789799965,893.6468048999668,894.1472800999763,894.1303713999805,894.1350107999751,894.1472800999763,894.1472800999763,894.1472800999763,898.663978800003,Scenes\096a.jpg,pre,n,4.511553300020751,None,,,,,,,,00051,001,2026-01-25_12h41.05.232,MST_test,2024.2.0,59.8636425880391,2026-01-25 12h41.13.063545 +0530,
102,0,103,n,3.678541100001894,None,103,0,102,898.6801392999478,,,,,,,,,,,,,,,,,,,,,,,,,,,,,,,,,,,,,,,,,,,,,,,,,,898.664070699946,898.6801392999478,899.1805284000002,899.1636250999873,899.1724924999871,899.1805284000002,899.1805284000002,899.1805284000002,902.8638994999928,Foils\scenes5.jpg,none,n,3.678541100001894,None,,,,,,,,00051,001,2026-01-25_12h41.05.232,MST_test,2024.2.0,59.8636425880391,2026-01-25 12h41.13.063545 +0530,
103,0,104,o,3.2470478999894112,None,104,0,103,902.8801103999722,,,,,,,,,,,,,,,,,,,,,,,,,,,,,,,,,,,,,,,,,,,,,,,,,,902.8639916999964,902.8801103999722,903.3803685999592,903.3636345999548,903.3667711999733,903.3803685999592,903.3803685999592,903.3803685999592,906.6306251999922,Objects\002a.jpg,pre,o,3.2470478999894112,None,,,,,,,,00051,001,2026-01-25_12h41.05.232,MST_test,2024.2.0,59.8636425880391,2026-01-25 12h41.13.063545 +0530,
104,0,105,o,1.376853099965956,None,105,0,104,906.6466241999879,,,,,,,,,,,,,,,,,,,,,,,,,,,,,,,,,,,,,,,,,,,,,,,,,,906.630717299995,906.6466241999879,907.146827199962,907.1302990999538,907.1327385999612,907.146827199962,907.146827199962,907.146827199962,908.5305484999553,Objects\185a.jpg,post,o,1.376853099965956,None,,,,,,,,00051,001,2026-01-25_12h41.05.232,MST_test,2024.2.0,59.8636425880391,2026-01-25 12h41.13.063545 +0530,
105,0,106,o,2.3319332000100985,None,106,0,105,908.5467149000033,,,,,,,,,,,,,,,,,,,,,,,,,,,,,,,,,,,,,,,,,,,,,,,,,,908.5306736999773,908.5467149000033,909.0471005999716,909.0303174000001,909.0389263999532,909.0471005999716,909.0471005999716,909.0471005999716,911.3808068999788,Scenes\052a.jpg,mid,o,2.3319332000100985,None,,,,,,,,00051,001,2026-01-25_12h41.05.232,MST_test,2024.2.0,59.8636425880391,2026-01-25 12h41.13.063545 +0530,
106,0,107,s,1.8345998000004329,None,107,0,106,911.3967046999605,,,,,,,,,,,,,,,,,,,,,,,,,,,,,,,,,,,,,,,,,,,,,,,,,,911.3809031999554,911.3967046999605,911.8971629999578,911.880305300001,911.8835939999553,911.8971629999578,911.8971629999578,911.8971629999578,913.7473306999891,Objects\080b.jpg,post,s,1.8345998000004329,None,,,,,,,,00051,001,2026-01-25_12h41.05.232,MST_test,2024.2.0,59.8636425880391,2026-01-25 12h41.13.063545 +0530,
107,0,108,o,1.8435063000069931,None,108,0,107,913.7632889999659,,,,,,,,,,,,,,,,,,,,,,,,,,,,,,,,,,,,,,,,,,,,,,,,,,913.7474233999965,913.7632889999659,914.2638189999852,914.2469322999823,914.2523521999829,914.2638189999852,914.2638189999852,914.2638189999852,916.1138136999798,Scenes\151b.jpg,post,o,1.8435063000069931,None,,,,,,,,00051,001,2026-01-25_12h41.05.232,MST_test,2024.2.0,59.8636425880391,2026-01-25 12h41.13.063545 +0530,
108,0,109,o,2.0847435999894515,None,109,0,108,916.130088099977,,,,,,,,,,,,,,,,,,,,,,,,,,,,,,,,,,,,,,,,,,,,,,,,,,916.113905199978,916.130088099977,916.6306038000039,916.6134369999636,916.6244495999999,916.6306038000039,916.6306038000039,916.6306038000039,918.7306257999735,Scenes\094a.jpg,pre,o,2.0847435999894515,None,,,,,,,,00051,001,2026-01-25_12h41.05.232,MST_test,2024.2.0,59.8636425880391,2026-01-25 12h41.13.063545 +0530,
109,0,110,n,3.660057999950368,None,110,0,109,918.7466937999707,,,,,,,,,,,,,,,,,,,,,,,,,,,,,,,,,,,,,,,,,,,,,,,,,,918.7307162999641,918.7466937999707,919.2472479999997,919.2304208999849,919.2408429999487,919.2472479999997,919.2472479999997,919.2472479999997,922.9137634999934,Scenes\105a.jpg,mid,n,3.660057999950368,None,,,,,,,,00051,001,2026-01-25_12h41.05.232,MST_test,2024.2.0,59.8636425880391,2026-01-25 12h41.13.063545 +0530,
110,0,111,n,3.412393399979919,None,111,0,110,922.930028599978,,,,,,,,,,,,,,,,,,,,,,,,,,,,,,,,,,,,,,,,,,,,,,,,,,922.9138551999931,922.930028599978,923.4305385999614,923.4134959999938,923.4230465999572,923.4305385999614,923.4305385999614,923.4305385999614,926.847282200004,Foils\scenes8.jpg,none,n,3.412393399979919,None,,,,,,,,00051,001,2026-01-25_12h41.05.232,MST_test,2024.2.0,59.8636425880391,2026-01-25 12h41.13.063545 +0530,
111,0,112,n,3.5034154999884777,None,112,0,111,926.863217199978,,,,,,,,,,,,,,,,,,,,,,,,,,,,,,,,,,,,,,,,,,,,,,,,,,926.8473714999855,926.863217199978,927.3635245999903,927.3469042999786,927.3511276999488,927.3635245999903,927.3635245999903,927.3635245999903,930.8805714999908,Scenes\036a.jpg,mid,n,3.5034154999884777,None,,,,,,,,00051,001,2026-01-25_12h41.05.232,MST_test,2024.2.0,59.8636425880391,2026-01-25 12h41.13.063545 +0530,
112,0,113,o,1.3897594999871217,None,113,0,112,930.8966902999673,,,,,,,,,,,,,,,,,,,,,,,,,,,,,,,,,,,,,,,,,,,,,,,,,,930.8806626999867,930.8966902999673,931.3972488999716,931.3802874999819,931.3834579999675,931.3972488999716,931.3972488999716,931.3972488999716,932.7973715999979,Objects\116a.jpg,pre,o,1.3897594999871217,None,,,,,,,,00051,001,2026-01-25_12h41.05.232,MST_test,2024.2.0,59.8636425880391,2026-01-25 12h41.13.063545 +0530,
113,0,114,o,2.603113499993924,None,114,0,113,932.8132124999538,,,,,,,,,,,,,,,,,,,,,,,,,,,,,,,,,,,,,,,,,,,,,,,,,,932.7974611999816,932.8132124999538,933.3134481000016,933.2969070999534,933.3062438999768,933.3134481000016,933.3134481000016,933.3134481000016,935.9306105999858,Objects\086b.jpg,mid,o,2.603113499993924,None,,,,,,,,00051,001,2026-01-25_12h41.05.232,MST_test,2024.2.0,59.8636425880391,2026-01-25 12h41.13.063545 +0530,
114,0,115,n,1.196599500020966,None,115,0,114,935.9474820999894,,,,,,,,,,,,,,,,,,,,,,,,,,,,,,,,,,,,,,,,,,,,,,,,,,935.930701699981,935.9474820999894,936.4471815999714,936.4302707999595,936.4434428999666,936.4471815999714,936.4471815999714,936.4471815999714,937.6472783999634,Scenes\051b.jpg,pre,n,1.196599500020966,None,,,,,,,,00051,001,2026-01-25_12h41.05.232,MST_test,2024.2.0,59.8636425880391,2026-01-25 12h41.13.063545 +0530,
115,0,116,n,10.368404700013343,None,116,0,115,937.6633005999611,,,,,,,,,,,,,,,,,,,,,,,,,,,,,,,,,,,,,,,,,,,,,,,,,,937.6473679999472,937.6633005999611,938.1637908999692,938.1470135999843,938.1590801999555,938.1637908999692,938.1637908999692,938.1637908999692,948.5473025999963,Objects\068b.jpg,post,n,10.368404700013343,None,,,,,,,,00051,001,2026-01-25_12h41.05.232,MST_test,2024.2.0,59.8636425880391,2026-01-25 12h41.13.063545 +0530,
116,0,117,s,6.643750100047328,None,117,0,116,948.5632230999763,,,,,,,,,,,,,,,,,,,,,,,,,,,,,,,,,,,,,,,,,,,,,,,,,,948.5473926999839,948.5632230999763,949.0634333999478,949.0469325999729,949.0580841999617,949.0634333999478,949.0634333999478,949.0634333999478,955.7137620999711,Objects\114b.jpg,mid,s,6.643750100047328,None,,,,,,,,00051,001,2026-01-25_12h41.05.232,MST_test,2024.2.0,59.8636425880391,2026-01-25 12h41.13.063545 +0530,
117,0,118,n,4.484770999988541,None,118,0,117,955.7300181000028,,,,,,,,,,,,,,,,,,,,,,,,,,,,,,,,,,,,,,,,,,,,,,,,,,955.7138545999769,955.7300181000028,956.2305349999806,956.2135693999589,956.2200975999585,956.2305349999806,956.2305349999806,956.2305349999806,960.7306328999694,Scenes\147a.jpg,post,n,4.484770999988541,None,,,,,,,,00051,001,2026-01-25_12h41.05.232,MST_test,2024.2.0,59.8636425880391,2026-01-25 12h41.13.063545 +0530,
118,0,119,o,2.6119258999824524,None,119,0,118,960.7466222999501,,,,,,,,,,,,,,,,,,,,,,,,,,,,,,,,,,,,,,,,,,,,,,,,,,960.7307234999607,960.7466222999501,961.247735699988,961.2302810999681,961.2459640000015,961.247735699988,961.247735699988,961.247735699988,963.8639371999889,Scenes\073b.jpg,mid,o,2.6119258999824524,None,,,,,,,,00051,001,2026-01-25_12h41.05.232,MST_test,2024.2.0,59.8636425880391,2026-01-25 12h41.13.063545 +0530,
119,0,120,s,3.1910839000483975,None,120,0,119,963.8800085999537,,,,,,,,,,,,,,,,,,,,,,,,,,,,,,,,,,,,,,,,,,,,,,,,,,963.8640286999871,963.8800085999537,964.3805511999526,964.363527999958,964.3750710999593,964.3805511999526,964.3805511999526,964.3805511999526,967.5807059999788,Scenes\113b.jpg,mid,s,3.1910839000483975,None,,,,,,,,00051,001,2026-01-25_12h41.05.232,MST_test,2024.2.0,59.8636425880391,2026-01-25 12h41.13.063545 +0530,
120,0,121,n,1.0813931999728084,None,121,0,120,967.596742499969,,,,,,,,,,,,,,,,,,,,,,,,,,,,,,,,,,,,,,,,,,,,,,,,,,967.580796699971,967.596742499969,968.0974770999746,968.0804021999938,968.0840329999919,968.0974770999746,968.0974770999746,968.0974770999746,969.1805972000002,Foils\017a.jpg,none,n,1.0813931999728084,None,,,,,,,,00051,001,2026-01-25_12h41.05.232,MST_test,2024.2.0,59.8636425880391,2026-01-25 12h41.13.063545 +0530,
121,0,122,o,1.3552385999937542,None,122,0,121,969.196690599958,,,,,,,,,,,,,,,,,,,,,,,,,,,,,,,,,,,,,,,,,,,,,,,,,,969.1806855999748,969.196690599958,969.6969106000033,969.6803711999673,969.6826369999908,969.6969106000033,969.6969106000033,969.6969106000033,971.0639209999936,Objects\155a.jpg,post,o,1.3552385999937542,None,,,,,,,,00051,001,2026-01-25_12h41.05.232,MST_test,2024.2.0,59.8636425880391,2026-01-25 12h41.13.063545 +0530,
122,0,123,n,7.054596499947365,None,123,0,122,971.0801120999968,,,,,,,,,,,,,,,,,,,,,,,,,,,,,,,,,,,,,,,,,,,,,,,,,,971.0640118999872,971.0801120999968,971.580290999962,971.5636001999956,971.5730945999967,971.580290999962,971.580290999962,971.580290999962,978.6475844999659,Foils\010a.jpg,none,n,7.054596499947365,None,,,,,,,,00051,001,2026-01-25_12h41.05.232,MST_test,2024.2.0,59.8636425880391,2026-01-25 12h41.13.063545 +0530,
123,0,124,o,2.2472481000004336,None,124,0,123,978.6635110999923,,,,,,,,,,,,,,,,,,,,,,,,,,,,,,,,,,,,,,,,,,,,,,,,,,978.647679799993,978.6635110999923,979.1639318999951,979.1469314999995,979.1545834999997,979.1639318999951,979.1639318999951,979.1639318999951,981.414070400002,Scenes\156a.jpg,pre,o,2.2472481000004336,None,,,,,,,,00051,001,2026-01-25_12h41.05.232,MST_test,2024.2.0,59.8636425880391,2026-01-25 12h41.13.063545 +0530,
124,0,125,o,2.832746699976269,None,125,0,124,981.4300776000018,,,,,,,,,,,,,,,,,,,,,,,,,,,,,,,,,,,,,,,,,,,,,,,,,,981.4141582999728,981.4300776000018,981.9306911999593,981.9136859999853,981.923767899978,981.9306911999593,981.9306911999593,981.9306911999593,984.7641260999953,Scenes\013a.jpg,post,o,2.832746699976269,None,,,,,,,,00051,001,2026-01-25_12h41.05.232,MST_test,2024.2.0,59.8636425880391,2026-01-25 12h41.13.063545 +0530,
125,0,126,n,2.536610200011637,None,126,0,125,984.7801098999917,,,,,,,,,,,,,,,,,,,,,,,,,,,,,,,,,,,,,,,,,,,,,,,,,,984.7642158999806,984.7801098999917,985.2829918999923,985.2637039999827,985.2808222000021,985.2829918999923,985.2829918999923,985.2829918999923,987.8306932999985,Scenes\171b.jpg,post,n,2.536610200011637,None,,,,,,,,00051,001,2026-01-25_12h41.05.232,MST_test,2024.2.0,59.8636425880391,2026-01-25 12h41.13.063545 +0530,
126,0,127,o,1.1275102999643423,None,127,0,126,987.8467006999999,,,,,,,,,,,,,,,,,,,,,,,,,,,,,,,,,,,,,,,,,,,,,,,,,,987.8307833999861,987.8467006999999,988.3472602999536,988.3304499999504,988.334258399962,988.3472602999536,988.3472602999536,988.3472602999536,989.4807352999924,Objects\090a.jpg,post,o,1.1275102999643423,None,,,,,,,,00051,001,2026-01-25_12h41.05.232,MST_test,2024.2.0,59.8636425880391,2026-01-25 12h41.13.063545 +0530,
127,0,128,o,1.7264515000279061,None,128,0,127,989.4967494999873,,,,,,,,,,,,,,,,,,,,,,,,,,,,,,,,,,,,,,,,,,,,,,,,,,989.4808267999906,989.4967494999873,989.9973449999816,989.9803928000038,989.9912045999663,989.9973449999816,989.9973449999816,989.9973449999816,991.7306851999601,Scenes\043a.jpg,mid,o,1.7264515000279061,None,,,,,,,,00051,001,2026-01-25_12h41.05.232,MST_test,2024.2.0,59.8636425880391,2026-01-25 12h41.13.063545 +0530,
128,0,129,s,1.2357154000201263,None,129,0,128,991.7467670999467,,,,,,,,,,,,,,,,,,,,,,,,,,,,,,,,,,,,,,,,,,,,,,,,,,991.7307779999683,991.7467670999467,992.2472576999571,992.2303385999985,992.2331178999739,992.2472576999571,992.2472576999571,992.2472576999571,993.4974105999572,Objects\191b.jpg,pre,s,1.2357154000201263,None,,,,,,,,00051,001,2026-01-25_12h41.05.232,MST_test,2024.2.0,59.8636425880391,2026-01-25 12h41.13.063545 +0530,
129,0,130,n,19.413868500036187,None,130,0,129,993.5133951999596,,,,,,,,,,,,,,,,,,,,,,,,,,,,,,,,,,,,,,,,,,,,,,,,,,993.4975076999981,993.5133951999596,994.0136575999786,993.9970063999644,994.0063520999975,994.0136575999786,994.0136575999786,994.0136575999786,1013.4307279999484,Objects\042b.jpg,post,n,19.413868500036187,None,,,,,,,,00051,001,2026-01-25_12h41.05.232,MST_test,2024.2.0,59.8636425880391,2026-01-25 12h41.13.063545 +0530,
130,0,131,n,11.47581639996497,None,131,0,130,1013.4467103999923,,,,,,,,,,,,,,,,,,,,,,,,,,,,,,,,,,,,,,,,,,,,,,,,,,1013.4308613999747,1013.4467103999923,1013.97558509995,1013.9304625999648,1013.9728646999574,1013.97558509995,1013.97558509995,1013.97558509995,1025.4638153999695,Foils\scenes15.jpg,none,n,11.47581639996497,None,,,,,,,,00051,001,2026-01-25_12h41.05.232,MST_test,2024.2.0,59.8636425880391,2026-01-25 12h41.13.063545 +0530,
131,0,132,n,1.3594668000005186,None,132,0,131,1025.4801576999598,,,,,,,,,,,,,,,,,,,,,,,,,,,,,,,,,,,,,,,,,,,,,,,,,,1025.4639161999803,1025.4801576999598,1025.9812109999475,1025.9634958999814,1025.9667400000035,1025.9812109999475,1025.9812109999475,1025.9812109999475,1027.347215399961,Foils\scenes29.jpg,none,n,1.3594668000005186,None,,,,,,,,00051,001,2026-01-25_12h41.05.232,MST_test,2024.2.0,59.8636425880391,2026-01-25 12h41.13.063545 +0530,
132,0,133,n,2.7558273000176996,None,133,0,132,1027.3632615999668,,,,,,,,,,,,,,,,,,,,,,,,,,,,,,,,,,,,,,,,,,,,,,,,,,1027.3473068999592,1027.3632615999668,1027.863442599948,1027.846912399982,1027.8486915999674,1027.863442599948,1027.863442599948,1027.863442599948,1030.630602499994,Foils\scenes4.jpg,none,n,2.7558273000176996,None,,,,,,,,00051,001,2026-01-25_12h41.05.232,MST_test,2024.2.0,59.8636425880391,2026-01-25 12h41.13.063545 +0530,
133,0,134,o,2.6150813000276685,None,134,0,133,1030.6466241999879,,,,,,,,,,,,,,,,,,,,,,,,,,,,,,,,,,,,,,,,,,,,,,,,,,1030.6306988999713,1030.6466241999879,1031.1494543000008,1031.1302026999765,1031.1474686999572,1031.1494543000008,1031.1494543000008,1031.1494543000008,1033.780604999978,Scenes\106b.jpg,post,o,2.6150813000276685,None,,,,,,,,00051,001,2026-01-25_12h41.05.232,MST_test,2024.2.0,59.8636425880391,2026-01-25 12h41.13.063545 +0530,
134,0,135,n,4.402549599995837,None,135,0,134,1033.7965733999736,,,,,,,,,,,,,,,,,,,,,,,,,,,,,,,,,,,,,,,,,,,,,,,,,,1033.7806943999603,1033.7965733999736,1034.2970744999475,1034.2802486,1034.2907691999571,1034.2970744999475,1034.2970744999475,1034.2970744999475,1038.7138757999637,Foils\121a.jpg,none,n,4.402549599995837,None,,,,,,,,00051,001,2026-01-25_12h41.05.232,MST_test,2024.2.0,59.8636425880391,2026-01-25 12h41.13.063545 +0530,
135,0,136,n,1.5087545000133105,None,136,0,135,1038.7299815999577,,,,,,,,,,,,,,,,,,,,,,,,,,,,,,,,,,,,,,,,,,,,,,,,,,1038.7139703999856,1038.7299815999577,1039.230486699962,1039.2135223999503,1039.2212333999923,1039.230486699962,1039.230486699962,1039.230486699962,1040.7472000999842,Scenes\050a.jpg,pre,n,1.5087545000133105,None,,,,,,,,00051,001,2026-01-25_12h41.05.232,MST_test,2024.2.0,59.8636425880391,2026-01-25 12h41.13.063545 +0530,
136,0,137,n,1.107915700005833,None,137,0,136,1040.7631427999586,,,,,,,,,,,,,,,,,,,,,,,,,,,,,,,,,,,,,,,,,,,,,,,,,,1040.747288399958,1040.7631427999586,1041.2637395999627,1041.2468879999942,1041.2504556999775,1041.2637395999627,1041.2637395999627,1041.2637395999627,1042.3805644999957,Foils\074a.jpg,none,n,1.107915700005833,None,,,,,,,,00051,001,2026-01-25_12h41.05.232,MST_test,2024.2.0,59.8636425880391,2026-01-25 12h41.13.063545 +0530,
137,0,138,n,4.346940900024492,None,138,0,137,1042.3966730999527,,,,,,,,,,,,,,,,,,,,,,,,,,,,,,,,,,,,,,,,,,,,,,,,,,1042.3806598999654,1042.3966730999527,1042.8968023999478,1042.8802710999735,1042.8909339999664,1042.8968023999478,1042.8968023999478,1042.8968023999478,1047.2473582999664,Objects\019b.jpg,post,n,4.346940900024492,None,,,,,,,,00051,001,2026-01-25_12h41.05.232,MST_test,2024.2.0,59.8636425880391,2026-01-25 12h41.13.063545 +0530,
138,0,139,s,3.2954616000060923,None,139,0,138,1047.2631535999826,,,,,,,,,,,,,,,,,,,,,,,,,,,,,,,,,,,,,,,,,,,,,,,,,,1047.2474484999548,1047.2631535999826,1047.7634163999464,1047.746940299985,1047.7572722999612,1047.7634163999464,1047.7634163999464,1047.7634163999464,1051.0638712999644,Objects\047b.jpg,post,s,3.2954616000060923,None,,,,,,,,00051,001,2026-01-25_12h41.05.232,MST_test,2024.2.0,59.8636425880391,2026-01-25 12h41.13.063545 +0530,
139,0,140,o,1.7828154999879189,None,140,0,139,1051.0799996999558,,,,,,,,,,,,,,,,,,,,,,,,,,,,,,,,,,,,,,,,,,,,,,,,,,1051.063961799955,1051.0799996999558,1051.5802961000009,1051.5636118999682,1051.567283899989,1051.5802961000009,1051.5802961000009,1051.5802961000009,1053.3638324999483,Objects\175b.jpg,mid,o,1.7828154999879189,None,,,,,,,,00051,001,2026-01-25_12h41.05.232,MST_test,2024.2.0,59.8636425880391,2026-01-25 12h41.13.063545 +0530,
140,0,141,o,4.322906899964437,None,141,0,140,1053.3799693000037,,,,,,,,,,,,,,,,,,,,,,,,,,,,,,,,,,,,,,,,,,,,,,,,,,1053.3639220999903,1053.3799693000037,1053.8802523999475,1053.8634371999651,1053.866883199953,1053.8802523999475,1053.8802523999475,1053.8802523999475,1058.2138015999808,Objects\145a.jpg,pre,o,4.322906899964437,None,,,,,,,,00051,001,2026-01-25_12h41.05.232,MST_test,2024.2.0,59.8636425880391,2026-01-25 12h41.13.063545 +0530,
141,0,142,o,5.601182000013068,None,142,0,141,1058.2299779999885,,,,,,,,,,,,,,,,,,,,,,,,,,,,,,,,,,,,,,,,,,,,,,,,,,1058.2138898999547,1058.2299779999885,1058.730183399981,1058.713456699974,1058.7171460999525,1058.730183399981,1058.730183399981,1058.730183399981,1064.3471712999744,Objects\107a.jpg,mid,o,5.601182000013068,None,,,,,,,,00051,001,2026-01-25_12h41.05.232,MST_test,2024.2.0,59.8636425880391,2026-01-25 12h41.13.063545 +0530,
142,0,143,n,3.595353100041393,None,143,0,142,1064.3631441000034,,,,,,,,,,,,,,,,,,,,,,,,,,,,,,,,,,,,,,,,,,,,,,,,,,1064.347275899956,1064.3631441000034,1064.8640177999623,1064.8469001999474,1064.8619824999478,1064.8640177999623,1064.8640177999623,1064.8640177999623,1068.463685899973,Scenes\118b.jpg,pre,n,3.595353100041393,None,,,,,,,,00051,001,2026-01-25_12h41.05.232,MST_test,2024.2.0,59.8636425880391,2026-01-25 12h41.13.063545 +0530,
143,0,144,s,3.5586402000044473,None,144,0,143,1068.4799728999496,,,,,,,,,,,,,,,,,,,,,,,,,,,,,,,,,,,,,,,,,,,,,,,,,,1068.4637856999761,1068.4799728999496,1068.980537800002,1068.9634330999688,1068.9743274999782,1068.980537800002,1068.980537800002,1068.980537800002,1072.5472047999501,Foils\042a.jpg,none,s,3.5586402000044473,None,,,,,,,,00051,001,2026-01-25_12h41.05.232,MST_test,2024.2.0,59.8636425880391,2026-01-25 12h41.13.063545 +0530,
144,0,145,o,1.0754078999743797,None,145,0,144,1072.5631296999636,,,,,,,,,,,,,,,,,,,,,,,,,,,,,,,,,,,,,,,,,,,,,,,,,,1072.5473031000001,1072.5631296999636,1073.063439599995,1073.0470716999844,1073.050878799986,1073.063439599995,1073.063439599995,1073.063439599995,1074.14735439996,Objects\157a.jpg,pre,o,1.0754078999743797,None,,,,,,,,00051,001,2026-01-25_12h41.05.232,MST_test,2024.2.0,59.8636425880391,2026-01-25 12h41.13.063545 +0530,
145,0,146,o,1.5317280000308529,None,146,0,145,1074.1631945999688,,,,,,,,,,,,,,,,,,,,,,,,,,,,,,,,,,,,,,,,,,,,,,,,,,1074.1474475999712,1074.1631945999688,1074.6637795999995,1074.6469013000024,1074.6587390999775,1074.6637795999995,1074.6637795999995,1074.6637795999995,1076.1971733999671,Scenes\130a.jpg,mid,o,1.5317280000308529,None,,,,,,,,00051,001,2026-01-25_12h41.05.232,MST_test,2024.2.0,59.8636425880391,2026-01-25 12h41.13.063545 +0530,
146,0,147,o,2.1297276000259444,None,147,0,146,1076.213225399959,,,,,,,,,,,,,,,,,,,,,,,,,,,,,,,,,,,,,,,,,,,,,,,,,,1076.1972659999738,1076.213225399959,1076.7137664999464,1076.696979899949,1076.701141299971,1076.7137664999464,1076.7137664999464,1076.7137664999464,1078.8473627999774,Objects\041b.jpg,post,o,2.1297276000259444,None,,,,,,,,00051,001,2026-01-25_12h41.05.232,MST_test,2024.2.0,59.8636425880391,2026-01-25 12h41.13.063545 +0530,
147,0,148,o,1.1599862999864854,None,148,0,147,1078.863186099974,,,,,,,,,,,,,,,,,,,,,,,,,,,,,,,,,,,,,,,,,,,,,,,,,,1078.8474645999959,1078.863186099974,1079.363416099979,1079.3468770999461,1079.350528399984,1079.363416099979,1079.363416099979,1079.363416099979,1080.5305616999976,Objects\008a.jpg,post,o,1.1599862999864854,None,,,,,,,,00051,001,2026-01-25_12h41.05.232,MST_test,2024.2.0,59.8636425880391,2026-01-25 12h41.13.063545 +0530,
148,0,149,o,1.532043799990788,None,149,0,148,1080.5465621999465,,,,,,,,,,,,,,,,,,,,,,,,,,,,,,,,,,,,,,,,,,,,,,,,,,1080.5306536999997,1080.5465621999465,1081.0467981999973,1081.0302055999637,1081.0405178999645,1081.0467981999973,1081.0467981999973,1081.0467981999973,1082.5804738999577,Objects\003b.jpg,pre,o,1.532043799990788,None,,,,,,,,00051,001,2026-01-25_12h41.05.232,MST_test,2024.2.0,59.8636425880391,2026-01-25 12h41.13.063545 +0530,
149,0,150,o,4.87435480003478,None,150,0,149,1082.5966328999493,,,,,,,,,,,,,,,,,,,,,,,,,,,,,,,,,,,,,,,,,,,,,,,,,,1082.580564099946,1082.5966328999493,1083.0968567999662,1083.0801843999652,1083.090634299966,1083.0968567999662,1083.0968567999662,1083.0968567999662,1087.9806571999798,Objects\054b.jpg,mid,o,4.87435480003478,None,,,,,,,,00051,001,2026-01-25_12h41.05.232,MST_test,2024.2.0,59.8636425880391,2026-01-25 12h41.13.063545 +0530,
,,,,,,,,,,,,,,,,,,,,,,,,,,,,,,,,,,,,,,,,,,,,,,,,,,,,,,,,,,,,,,,,,,,,,,,,,1087.9807246999699,1087.9966456999537,1087.9966456999537,1092.8638718999573,space,4.862466800026596,None,00051,001,2026-01-25_12h41.05.232,MST_test,2024.2.0,59.8636425880391,2026-01-25 12h41.13.063545 +0530,
