Sl_no,image_path,thisN,thisTrialN,thisRepN,key_resp_5.keys,key_resp_7.keys,key_resp_7.rt,key_resp_7.duration,key_resp_5.rt,key_resp_5.duration,key_resp_9.keys,key_resp_9.rt,key_resp_9.duration,key_resp_8.keys,key_resp_8.rt,key_resp_8.duration,practice.thisRepN,practice.thisTrialN,practice.thisN,trials.thisRepN,trials.thisTrialN,trials.thisN,thisRow.t,notes,welcome_page.started,text.started,key_resp.started,welcome_page.stopped,key_resp.keys,key_resp.rt,key_resp.duration,instructions.started,ins.started,key_resp_2.started,instructions.stopped,key_resp_2.keys,key_resp_2.rt,key_resp_2.duration,objects_only_instruction.started,text_3.started,key_resp_3.started,objects_only_instruction.stopped,key_resp_3.keys,key_resp_3.rt,key_resp_3.duration,ISI.started,text_4.started,text_4.stopped,ISI.stopped,practice_block.started,image.started,text_5.started,key_resp_5.started,practice_block.stopped,practice.key_resp_5.keys,indoor_outdoor.started,text_7.started,key_resp_7.started,indoor_outdoor.stopped,practice.key_resp_7.keys,practice.key_resp_7.rt,practice.key_resp_7.duration,image.stopped,text_5.stopped,key_resp_5.stopped,practice.key_resp_5.rt,practice.key_resp_5.duration,practice_to_main.started,text_2.started,key_resp_4.started,practice_to_main.stopped,key_resp_4.keys,key_resp_4.rt,key_resp_4.duration,objects.started,image_2.started,text_9.started,key_resp_9.started,image_2.stopped,text_9.stopped,key_resp_9.stopped,objects.stopped,trials.key_resp_9.keys,trials.key_resp_9.rt,trials.key_resp_9.duration,encoding_task.started,encoding_task.stopped,trials.key_resp_8.keys,text_8.started,key_resp_8.started,trials.key_resp_8.rt,trials.key_resp_8.duration,end_experiment.started,text_6.started,key_resp_6.started,end_experiment.stopped,key_resp_6.keys,key_resp_6.rt,key_resp_6.duration,list_of_stimuli,encoding_task_accuracy,participant,session,date,expName,psychopyVersion,frameRate,expStart,
,,,,,,,,,,,,,,,,,,,,,,,,,0.0012153999996371567,0.00342839999939315,0.00342839999939315,15.424616500000411,space,15.400532100000419,None,,,,,,,,,,,,,,,,,,,,,,,,,,,,,,,,,,,,,,,,,,,,,,,,,,,,,,,,,,,,,,,,,,,,,,,00053,001,2026-01-25_14h59.52.341,MST_task,2024.2.0,59.96616708854998,2026-01-25 15h00.26.264346 +0530,
,,,,,,,,,,,,,,,,,,,,,,,,,,,,,,,,15.424702299998899,15.439189900000201,15.439189900000201,55.351865499998894,space,39.90948759999992,None,,,,,,,,,,,,,,,,,,,,,,,,,,,,,,,,,,,,,,,,,,,,,,,,,,,,,,,,,,,,,,,,00053,001,2026-01-25_14h59.52.341,MST_task,2024.2.0,59.96616708854998,2026-01-25 15h00.26.264346 +0530,
,,,,,,,,,,,,,,,,,,,,,,,,,,,,,,,,,,,,,,,55.35199439999997,55.37626850000015,55.37626850000015,83.76841249999961,space,28.379893499999525,None,,,,,,,,,,,,,,,,,,,,,,,,,,,,,,,,,,,,,,,,,,,,,,,,,,,,,,,,,00053,001,2026-01-25_14h59.52.341,MST_task,2024.2.0,59.96616708854998,2026-01-25 15h00.26.264346 +0530,
8,practice_images/178a.jpg,0,0,1,None,j,5.399040800000876,None,,,,,,,,,1,0,0,,,,83.78442779999932,,,,,,,,,,,,,,,,,,,,,,,83.77919180000026,83.78442779999932,84.31492160000016,84.2683820000002,84.28189339999881,84.31492160000016,84.31492160000016,84.31492160000016,87.28482780000013,None,87.29229449999912,87.30097509999905,87.30097509999905,92.70153290000053,j,5.399040800000876,None,,,,,,,,,,,,,,,,,,,,,,,,,,,,,,,,,,,,,,,,00053,001,2026-01-25_14h59.52.341,MST_task,2024.2.0,59.96616708854998,2026-01-25 15h00.26.264346 +0530,
2,practice_images/031a.jpg,1,1,1,None,f,0.0022998000004008645,None,,,,,,,,,1,1,1,,,,92.71786749999956,,,,,,,,,,,,,,,,,,,,,,,92.70189029999892,92.71786749999956,93.21802209999987,93.20160469999973,93.20731890000025,93.21802209999987,93.21802209999987,93.21802209999987,96.20164509999995,None,96.20183939999879,96.21763900000042,96.21763900000042,96.2348407999998,f,0.0022998000004008645,None,96.21763900000042,96.21763900000042,96.21763900000042,,,,,,,,,,,,,,,,,,,,,,,,,,,,,,,,,,,,,00053,001,2026-01-25_14h59.52.341,MST_task,2024.2.0,59.96616708854998,2026-01-25 15h00.26.264346 +0530,
5,practice_images/139a.jpg,2,2,1,None,j,0.9328038999992714,None,,,,,,,,,1,2,2,,,,96.25103099999978,,,,,,,,,,,,,,,,,,,,,,,96.23516469999959,96.25103099999978,96.75144419999924,96.73486950000006,96.74005459999898,96.75144419999924,96.75144419999924,96.75144419999924,99.73496559999876,None,99.73515049999878,99.75121559999934,99.75121559999934,100.68483849999939,j,0.9328038999992714,None,99.75121559999934,99.75121559999934,99.75121559999934,,,,,,,,,,,,,,,,,,,,,,,,,,,,,,,,,,,,,00053,001,2026-01-25_14h59.52.341,MST_task,2024.2.0,59.96616708854998,2026-01-25 15h00.26.264346 +0530,
10,practice_images/182a.jpg,3,3,1,f,None,,,2.930848199999673,None,,,,,,,1,3,3,,,,100.70096399999966,,,,,,,,,,,,,,,,,,,,,,,100.6851702999993,100.70096399999966,101.20132790000025,101.18486080000002,101.1903586999997,101.20132790000025,101.20132790000025,101.20132790000025,104.18504899999971,f,104.18523470000036,,,104.18529829999898,None,,,104.2012491000005,104.2012491000005,104.2012491000005,2.930848199999673,None,,,,,,,,,,,,,,,,,,,,,,,,,,,,,,,,,,,00053,001,2026-01-25_14h59.52.341,MST_task,2024.2.0,59.96616708854998,2026-01-25 15h00.26.264346 +0530,
7,practice_images/166a.jpg,4,4,1,None,f,0.671333100000993,None,,,,,,,,,1,4,4,,,,104.2012491000005,,,,,,,,,,,,,,,,,,,,,,,104.18556650000028,104.2012491000005,104.70135139999911,104.68489229999977,104.69036620000043,104.70135139999911,104.70135139999911,104.70135139999911,107.68503500000043,None,107.68519790000028,107.7011652000001,107.7011652000001,108.38499389999924,f,0.671333100000993,None,107.7011652000001,107.7011652000001,107.7011652000001,,,,,,,,,,,,,,,,,,,,,,,,,,,,,,,,,,,,,00053,001,2026-01-25_14h59.52.341,MST_task,2024.2.0,59.96616708854998,2026-01-25 15h00.26.264346 +0530,
9,practice_images/180a.jpg,5,5,1,f,None,,,1.7746741000009933,0.19203729999935604,,,,,,,1,5,5,,,,108.40103699999963,,,,,,,,,,,,,,,,,,,,,,,108.38531879999937,108.40103699999963,108.90129239999987,108.88458229999924,108.89018219999889,108.90129239999987,108.90129239999987,108.90129239999987,111.88494840000021,f,111.88513310000053,,,111.88519769999948,None,,,111.90085429999999,111.90085429999999,111.90085429999999,1.7746741000009933,0.19203729999935604,,,,,,,,,,,,,,,,,,,,,,,,,,,,,,,,,,,00053,001,2026-01-25_14h59.52.341,MST_task,2024.2.0,59.96616708854998,2026-01-25 15h00.26.264346 +0530,
3,practice_images/037a.jpg,6,6,1,None,f,0.9153987999998208,None,,,,,,,,,1,6,6,,,,111.90085429999999,,,,,,,,,,,,,,,,,,,,,,,111.88548189999892,111.90085429999999,112.40141969999968,112.38458629999877,112.3899726999989,112.40141969999968,112.40141969999968,112.40141969999968,115.38467990000026,None,115.3848481999994,115.40121659999932,115.40121659999932,116.31813510000029,f,0.9153987999998208,None,115.40121659999932,115.40121659999932,115.40121659999932,,,,,,,,,,,,,,,,,,,,,,,,,,,,,,,,,,,,,00053,001,2026-01-25_14h59.52.341,MST_task,2024.2.0,59.96616708854998,2026-01-25 15h00.26.264346 +0530,
6,practice_images/158a.jpg,7,7,1,j,None,,,1.8405588000005082,0.16850180000074033,,,,,,,1,7,7,,,,116.33623540000008,,,,,,,,,,,,,,,,,,,,,,,116.31845760000033,116.33623540000008,,116.83472429999892,116.84015259999978,116.8514352000002,116.8514352000002,116.8514352000002,119.83485959999962,j,119.83505899999909,,,119.83512419999897,None,,,,,,1.8405588000005082,0.16850180000074033,,,,,,,,,,,,,,,,,,,,,,,,,,,,,,,,,,,00053,001,2026-01-25_14h59.52.341,MST_task,2024.2.0,59.96616708854998,2026-01-25 15h00.26.264346 +0530,
1,practice_images/013a.jpg,8,8,1,j,None,,,2.4211714000011852,0.15196869999999763,,,,,,,1,8,8,,,,119.85123050000038,,,,,,,,,,,,,,,,,,,,,,,119.83540410000023,119.85123050000038,,120.33539439999913,120.3413187999995,120.35145170000033,120.35145170000033,120.35145170000033,123.33480190000046,j,123.33498419999887,,,123.33504270000049,None,,,123.35125059999882,123.35125059999882,123.35125059999882,2.4211714000011852,0.15196869999999763,,,,,,,,,,,,,,,,,,,,,,,,,,,,,,,,,,,00053,001,2026-01-25_14h59.52.341,MST_task,2024.2.0,59.96616708854998,2026-01-25 15h00.26.264346 +0530,
4,practice_images/002b.jpg,9,9,1,f,None,,,2.8323555999995733,None,,,,,,,1,9,9,,,,123.35125059999882,,,,,,,,,,,,,,,,,,,,,,,123.3353747000001,123.35125059999882,123.85159500000009,123.83491700000013,123.84153979999974,123.85159500000009,123.85159500000009,123.85159500000009,126.83508849999998,f,126.83528819999992,,,126.83535839999968,None,,,126.85132410000006,126.85132410000006,126.85132410000006,2.8323555999995733,None,,,,,,,,,,,,,,,,,,,,,,,,,,,,,,,,,,,00053,001,2026-01-25_14h59.52.341,MST_task,2024.2.0,59.96616708854998,2026-01-25 15h00.26.264346 +0530,
,,,,,,,,,,,,,,,,,,,,,,,,,,,,,,,,,,,,,,,,,,,,,,,,,,,,,,,,,,,,,,,,,,,,126.8355603,126.85132410000006,126.85132410000006,136.4017055000004,space,9.537313799999538,None,,,,,,,,,,,,,,,,,,,,,,,,,,,,00053,001,2026-01-25_14h59.52.341,MST_task,2024.2.0,59.96616708854998,2026-01-25 15h00.26.264346 +0530,
,Objects\182a.jpg,0,0,1,,,,,,,f,1.854468600000473,None,None,,,,,,1,0,0,136.4177010000003,,,,,,,,,,,,,,,,,,,,,,,136.40501790000053,136.4177010000003,136.91815209999913,136.90134059999946,,,,,,,,,,,,,,,,,,,,,,,,,,136.91260169999987,136.91815209999913,136.91815209999913,136.91815209999913,139.9176255000002,139.9176255000002,139.9176255000002,139.90241950000018,f,1.854468600000473,None,139.90929490000053,139.9093524,None,,,,,,,,,,,,,,00053,001,2026-01-25_14h59.52.341,MST_task,2024.2.0,59.96616708854998,2026-01-25 15h00.26.264346 +0530,
,Objects\120a.jpg,1,0,2,,,,,,,f,1.2497905000000173,None,None,,,,,,2,0,1,139.9176255000002,,,,,,,,,,,,,,,,,,,,,,,139.90957619999972,139.9176255000002,140.41821460000028,140.40164849999928,,,,,,,,,,,,,,,,,,,,,,,,,,140.40828560000045,140.41821460000028,140.41821460000028,140.41821460000028,143.41764969999895,143.41764969999895,143.41764969999895,143.4022229000002,f,1.2497905000000173,None,143.40244530000018,143.40251119999994,None,,,,,,,,,,,,,,00053,001,2026-01-25_14h59.52.341,MST_task,2024.2.0,59.96616708854998,2026-01-25 15h00.26.264346 +0530,
,Objects\145a.jpg,2,0,3,,,,,,,f,1.6856521000008797,None,None,,,,,,3,0,2,143.41764969999895,,,,,,,,,,,,,,,,,,,,,,,143.40284119999887,143.41764969999895,143.91824110000016,143.90164530000038,,,,,,,,,,,,,,,,,,,,,,,,,,143.91021910000018,143.91824110000016,143.91824110000016,143.91824110000016,146.917818599999,146.917818599999,146.917818599999,146.9025602999991,f,1.6856521000008797,None,146.90276599999925,146.9028261000003,None,,,,,,,,,,,,,,00053,001,2026-01-25_14h59.52.341,MST_task,2024.2.0,59.96616708854998,2026-01-25 15h00.26.264346 +0530,
,Objects\146a.jpg,3,0,4,,,,,,,j,2.0338324999993347,0.20862570000099367,None,,,,,,4,0,3,146.917818599999,,,,,,,,,,,,,,,,,,,,,,,146.90317659999891,146.917818599999,147.4181327999995,147.4016546999992,,,,,,,,,,,,,,,,,,,,,,,,,,147.41020879999996,147.4181327999995,147.4181327999995,147.4181327999995,150.41792759999953,150.41792759999953,150.41792759999953,150.40248409999913,j,2.0338324999993347,0.20862570000099367,150.40268879999894,150.40275079999992,None,,,,,,,,,,,,,,00053,001,2026-01-25_14h59.52.341,MST_task,2024.2.0,59.96616708854998,2026-01-25 15h00.26.264346 +0530,
,Objects\016a.jpg,4,0,5,,,,,,,f,1.1978101999993669,None,None,,,,,,5,0,4,150.41792759999953,,,,,,,,,,,,,,,,,,,,,,,150.40304979999928,150.41792759999953,150.91816160000053,150.90168230000018,,,,,,,,,,,,,,,,,,,,,,,,,,150.90837250000004,150.91816160000053,150.91816160000053,150.91816160000053,153.91778270000032,153.91778270000032,153.91778270000032,153.90241400000014,f,1.1978101999993669,None,153.90262369999982,153.9026819999999,None,,,,,,,,,,,,,,00053,001,2026-01-25_14h59.52.341,MST_task,2024.2.0,59.96616708854998,2026-01-25 15h00.26.264346 +0530,
,Objects\087a.jpg,5,0,6,,,,,,,j,1.7166861000005156,0.19221269999979995,None,,,,,,6,0,5,153.91778270000032,,,,,,,,,,,,,,,,,,,,,,,153.90306380000038,153.91778270000032,154.4233867999992,154.40167180000026,,,,,,,,,,,,,,,,,,,,,,,,,,154.4206622999991,154.4233867999992,154.4233867999992,154.4233867999992,,,,157.4183357999991,j,1.7166861000005156,0.19221269999979995,157.41855219999889,157.41861880000033,None,,,,,,,,,,,,,,00053,001,2026-01-25_14h59.52.341,MST_task,2024.2.0,59.96616708854998,2026-01-25 15h00.26.264346 +0530,
,Objects\175a.jpg,6,0,7,,,,,,,f,1.405511299999489,None,None,,,,,,7,0,6,157.43446609999955,,,,,,,,,,,,,,,,,,,,,,,157.41898629999923,157.43446609999955,157.9348743999999,157.91833450000013,,,,,,,,,,,,,,,,,,,,,,,,,,157.9270292000001,157.9348743999999,157.9348743999999,157.9348743999999,160.9353147999991,160.9353147999991,160.9353147999991,160.91910219999954,f,1.405511299999489,None,160.91930370000046,160.91936299999907,None,,,,,,,,,,,,,,00053,001,2026-01-25_14h59.52.341,MST_task,2024.2.0,59.96616708854998,2026-01-25 15h00.26.264346 +0530,
,Scenes\051a.jpg,7,0,8,,,,,,,j,2.3344186000012996,0.22355959999913466,None,,,,,,8,0,7,160.9353147999991,,,,,,,,,,,,,,,,,,,,,,,160.91966499999944,160.9353147999991,161.43823650000013,161.4183400999991,,,,,,,,,,,,,,,,,,,,,,,,,,161.43551099999968,161.43823650000013,161.43823650000013,161.43823650000013,,,,164.43493639999906,j,2.3344186000012996,0.22355959999913466,164.4351587000001,164.43522399999893,None,,,,,,,,,,,,,,00053,001,2026-01-25_14h59.52.341,MST_task,2024.2.0,59.96616708854998,2026-01-25 15h00.26.264346 +0530,
,Scenes\190a.jpg,8,0,9,,,,,,,j,1.9101267000005464,0.20799350000015693,None,,,,,,9,0,8,164.45128440000008,,,,,,,,,,,,,,,,,,,,,,,164.43559959999948,164.45128440000008,164.97390079999968,164.9349388999999,,,,,,,,,,,,,,,,,,,,,,,,,,164.97112939999897,164.97390079999968,164.97390079999968,164.97390079999968,,,,167.95166400000016,j,1.9101267000005464,0.20799350000015693,167.9518735999991,167.95193850000032,None,,,,,,,,,,,,,,00053,001,2026-01-25_14h59.52.341,MST_task,2024.2.0,59.96616708854998,2026-01-25 15h00.26.264346 +0530,
,Scenes\076a.jpg,9,0,10,,,,,,,None,,,j,0.5985949999994773,None,,,,10,0,9,167.96794810000029,,,,,,,,,,,,,,,,,,,,,,,167.95223389999956,167.96794810000029,168.4897605999995,168.4514949000004,,,,,,,,,,,,,,,,,,,,,,,,,,168.4867104999994,168.4897605999995,168.4897605999995,168.4897605999995,,,,171.46833929999957,None,,,171.46852729999955,172.08514379999906,j,171.4854137000002,171.4854137000002,0.5985949999994773,None,,,,,,,,,,00053,001,2026-01-25_14h59.52.341,MST_task,2024.2.0,59.96616708854998,2026-01-25 15h00.26.264346 +0530,
,Scenes\188a.jpg,10,0,11,,,,,,,None,,,j,0.1386502000004839,None,,,,11,0,10,172.10129769999912,,,,,,,,,,,,,,,,,,,,,,,172.08568989999912,172.10129769999912,172.6088318000002,172.58496269999887,,,,,,,,,,,,,,,,,,,,,,,,,,172.60551049999958,172.6088318000002,172.6088318000002,172.6088318000002,,,,175.60170300000027,None,,,175.60190859999966,175.76840300000003,j,175.6179702999998,175.6179702999998,0.1386502000004839,None,,,,,,,,,,00053,001,2026-01-25_14h59.52.341,MST_task,2024.2.0,59.96616708854998,2026-01-25 15h00.26.264346 +0530,
,Scenes\043a.jpg,11,0,12,,,,,,,j,2.9443539999992936,None,None,,,,,,12,0,11,175.784225899999,,,,,,,,,,,,,,,,,,,,,,,175.7687494999991,175.784225899999,176.29165359999934,176.2682550999998,,,,,,,,,,,,,,,,,,,,,,,,,,176.28886000000057,176.29165359999934,176.29165359999934,176.29165359999934,,,,179.28498749999926,j,2.9443539999992936,None,179.28523270000005,179.2853068000004,None,,,,,,,,,,,,,,00053,001,2026-01-25_14h59.52.341,MST_task,2024.2.0,59.96616708854998,2026-01-25 15h00.26.264346 +0530,
,Scenes\041a.jpg,12,0,13,,,,,,,None,,,j,0.674807300001703,None,,,,13,0,12,179.3013274999994,,,,,,,,,,,,,,,,,,,,,,,179.28577679999944,179.3013274999994,179.82196629999999,179.78499819999888,,,,,,,,,,,,,,,,,,,,,,,,,,179.8190281999996,179.82196629999999,179.82196629999999,179.82196629999999,,,,182.80191620000005,None,,,182.80211079999935,183.50158550000015,j,182.81782290000046,182.81782290000046,0.674807300001703,None,,,,,,,,,,00053,001,2026-01-25_14h59.52.341,MST_task,2024.2.0,59.96616708854998,2026-01-25 15h00.26.264346 +0530,
,Scenes\005a.jpg,13,0,14,,,,,,,f,2.5175042000009853,None,None,,,,,,14,0,13,183.51796900000045,,,,,,,,,,,,,,,,,,,,,,,183.50193219999892,183.51796900000045,184.02259249999952,184.0016830000004,,,,,,,,,,,,,,,,,,,,,,,,,,184.01994509999895,184.02259249999952,184.02259249999952,184.02259249999952,,,,187.01843319999898,f,2.5175042000009853,None,187.01864430000023,187.01870989999952,None,,,,,,,,,,,,,,00053,001,2026-01-25_14h59.52.341,MST_task,2024.2.0,59.96616708854998,2026-01-25 15h00.26.264346 +0530,
,Objects\027a.jpg,14,0,15,,,,,,,None,,,f,2.7976708999995026,None,,,,15,0,14,187.03449609999916,,,,,,,,,,,,,,,,,,,,,,,187.0190062999991,187.03449609999916,187.54676449999897,187.5181582999994,,,,,,,,,,,,,,,,,,,,,,,,,,187.54283209999994,187.54676449999897,187.54676449999897,187.54676449999897,,,,190.5349525999991,None,,,190.53513960000055,193.35156950000055,f,190.55091129999892,190.55091129999892,2.7976708999995026,None,,,,,,,,,,00053,001,2026-01-25_14h59.52.341,MST_task,2024.2.0,59.96616708854998,2026-01-25 15h00.26.264346 +0530,
,Objects\167a.jpg,15,0,16,,,,,,,None,,,f,0.7355735000001005,None,,,,16,0,15,193.36796839999988,,,,,,,,,,,,,,,,,,,,,,,193.35191719999966,193.36796839999988,193.87640920000013,193.85170909999943,,,,,,,,,,,,,,,,,,,,,,,,,,193.8738433999988,193.87640920000013,193.87640920000013,193.87640920000013,,,,196.8689513999998,None,,,196.869147899999,197.63509189999968,f,196.88438469999892,196.88438469999892,0.7355735000001005,None,,,,,,,,,,00053,001,2026-01-25_14h59.52.341,MST_task,2024.2.0,59.96616708854998,2026-01-25 15h00.26.264346 +0530,
,Objects\104a.jpg,16,0,17,,,,,,,None,,,j,0.1573264000016934,None,,,,17,0,16,197.65137049999976,,,,,,,,,,,,,,,,,,,,,,,197.63544720000027,197.65137049999976,198.15170089999992,198.1349467,,,,,,,,,,,,,,,,,,,,,,,,,,198.14385869999933,198.15170089999992,198.15170089999992,198.15170089999992,201.15131669999937,201.15131669999937,201.15131669999937,201.13578489999963,None,,,201.13598479999928,201.31848600000012,j,201.15131669999937,201.15131669999937,0.1573264000016934,None,,,,,,,,,,00053,001,2026-01-25_14h59.52.341,MST_task,2024.2.0,59.96616708854998,2026-01-25 15h00.26.264346 +0530,
,Objects\063a.jpg,17,0,18,,,,,,,f,1.9938012000002345,0.263946399998531,None,,,,,,18,0,17,201.33456970000043,,,,,,,,,,,,,,,,,,,,,,,201.31876609999927,201.33456970000043,201.83485250000012,201.81839819999914,,,,,,,,,,,,,,,,,,,,,,,,,,201.82515749999948,201.83485250000012,201.83485250000012,201.83485250000012,204.83444620000046,204.83444620000046,204.83444620000046,204.81918049999877,f,1.9938012000002345,0.263946399998531,204.81938339999942,204.8194435000005,None,,,,,,,,,,,,,,00053,001,2026-01-25_14h59.52.341,MST_task,2024.2.0,59.96616708854998,2026-01-25 15h00.26.264346 +0530,
,Objects\111a.jpg,18,0,19,,,,,,,f,2.1814541000003373,0.216396400001031,None,,,,,,19,0,18,204.83444620000046,,,,,,,,,,,,,,,,,,,,,,,204.81982079999943,204.83444620000046,205.33477959999982,205.31844780000029,,,,,,,,,,,,,,,,,,,,,,,,,,205.32813429999987,205.33477959999982,205.33477959999982,205.33477959999982,208.33427269999993,208.33427269999993,208.33427269999993,208.31859330000043,f,2.1814541000003373,0.216396400001031,208.3186980999999,208.3187268999991,None,,,,,,,,,,,,,,00053,001,2026-01-25_14h59.52.341,MST_task,2024.2.0,59.96616708854998,2026-01-25 15h00.26.264346 +0530,
,Objects\006a.jpg,19,0,20,,,,,,,f,2.3057079000009253,0.19996390000051179,None,,,,,,20,0,19,208.33427269999993,,,,,,,,,,,,,,,,,,,,,,,208.31892179999886,208.33427269999993,208.83491999999933,208.81837809999888,,,,,,,,,,,,,,,,,,,,,,,,,,208.8268162000004,208.83491999999933,208.83491999999933,208.83491999999933,211.8342386000004,211.8342386000004,211.8342386000004,211.81888640000034,f,2.3057079000009253,0.19996390000051179,211.81909259999884,211.81915169999957,None,,,,,,,,,,,,,,00053,001,2026-01-25_14h59.52.341,MST_task,2024.2.0,59.96616708854998,2026-01-25 15h00.26.264346 +0530,
,Objects\128a.jpg,20,0,21,,,,,,,None,,,f,0.5242460999998002,None,,,,21,0,20,211.8342386000004,,,,,,,,,,,,,,,,,,,,,,,211.8194552999994,211.8342386000004,212.3376619999999,212.31839279999986,,,,,,,,,,,,,,,,,,,,,,,,,,212.33490510000047,212.3376619999999,212.3376619999999,212.3376619999999,,,,215.33498229999896,None,,,215.3351774999992,215.8851520999997,f,215.35240410000006,215.35240410000006,0.5242460999998002,None,,,,,,,,,,00053,001,2026-01-25_14h59.52.341,MST_task,2024.2.0,59.96616708854998,2026-01-25 15h00.26.264346 +0530,
,Scenes\111a.jpg,21,0,22,,,,,,,j,2.1608908000016527,0.23256689999834634,None,,,,,,22,0,21,215.90134880000005,,,,,,,,,,,,,,,,,,,,,,,215.8855427999988,215.90134880000005,216.40318259999913,216.38499799999954,,,,,,,,,,,,,,,,,,,,,,,,,,216.40043799999876,216.40318259999913,216.40318259999913,216.40318259999913,,,,219.4015376999996,j,2.1608908000016527,0.23256689999834634,219.40175629999976,219.40182319999985,None,,,,,,,,,,,,,,00053,001,2026-01-25_14h59.52.341,MST_task,2024.2.0,59.96616708854998,2026-01-25 15h00.26.264346 +0530,
,Scenes\035a.jpg,22,0,23,,,,,,,None,,,j,0.44563510000079987,None,,,,23,0,22,219.41791729999932,,,,,,,,,,,,,,,,,,,,,,,219.40212289999909,219.41791729999932,219.92280749999918,219.90158789999987,,,,,,,,,,,,,,,,,,,,,,,,,,219.91982309999912,219.92280749999918,219.92280749999918,219.92280749999918,,,,222.91850720000002,None,,,222.91871159999937,223.38517539999884,j,222.93464359999962,222.93464359999962,0.44563510000079987,None,,,,,,,,,,00053,001,2026-01-25_14h59.52.341,MST_task,2024.2.0,59.96616708854998,2026-01-25 15h00.26.264346 +0530,
,Scenes\037a.jpg,23,0,24,,,,,,,None,,,j,0.5348452999987785,None,,,,24,0,23,223.4013699999996,,,,,,,,,,,,,,,,,,,,,,,223.38555280000037,223.4013699999996,223.9019802999992,223.88503339999988,,,,,,,,,,,,,,,,,,,,,,,,,,223.8974521,223.9019802999992,223.9019802999992,223.9019802999992,226.90135819999887,226.90135819999887,226.90135819999887,226.88579050000044,None,,,226.8859782999989,227.45189140000002,j,226.90135819999887,226.90135819999887,0.5348452999987785,None,,,,,,,,,,00053,001,2026-01-25_14h59.52.341,MST_task,2024.2.0,59.96616708854998,2026-01-25 15h00.26.264346 +0530,
,Scenes\153a.jpg,24,0,25,,,,,,,j,1.9481570000007196,0.223338199999489,None,,,,,,25,0,24,227.46852000000035,,,,,,,,,,,,,,,,,,,,,,,227.4522407000004,227.46852000000035,227.96848789999967,227.9517481999992,,,,,,,,,,,,,,,,,,,,,,,,,,227.9644647999994,227.96848789999967,227.96848789999967,227.96848789999967,230.96803159999945,230.96803159999945,230.96803159999945,230.95221569999921,j,1.9481570000007196,0.223338199999489,230.95242139999937,230.95248189999984,None,,,,,,,,,,,,,,00053,001,2026-01-25_14h59.52.341,MST_task,2024.2.0,59.96616708854998,2026-01-25 15h00.26.264346 +0530,
,Scenes\155a.jpg,25,0,26,,,,,,,j,2.199737000000823,0.2321436000001995,None,,,,,,26,0,25,230.96803159999945,,,,,,,,,,,,,,,,,,,,,,,230.95286440000018,230.96803159999945,231.46838810000008,231.45180559999972,,,,,,,,,,,,,,,,,,,,,,,,,,231.46512429999893,231.46838810000008,231.46838810000008,231.46838810000008,234.46855030000006,234.46855030000006,234.46855030000006,234.45237540000016,j,2.199737000000823,0.2321436000001995,234.45258049999939,234.45263999999952,None,,,,,,,,,,,,,,00053,001,2026-01-25_14h59.52.341,MST_task,2024.2.0,59.96616708854998,2026-01-25 15h00.26.264346 +0530,
,Scenes\098a.jpg,26,0,27,,,,,,,f,2.949718899999425,None,None,,,,,,27,0,26,234.46855030000006,,,,,,,,,,,,,,,,,,,,,,,234.45302309999897,234.46855030000006,234.98293299999932,234.951763699999,,,,,,,,,,,,,,,,,,,,,,,,,,234.9803026999998,234.98293299999932,234.98293299999932,234.98293299999932,,,,237.96841459999996,f,2.949718899999425,None,237.9686230999996,237.9686873999999,None,,,,,,,,,,,,,,00053,001,2026-01-25_14h59.52.341,MST_task,2024.2.0,59.96616708854998,2026-01-25 15h00.26.264346 +0530,
,Scenes\137a.jpg,27,0,28,,,,,,,j,1.6073379000008572,0.19214049999936833,None,,,,,,28,0,27,237.98462569999901,,,,,,,,,,,,,,,,,,,,,,,237.9690133999993,237.98462569999901,238.48489829999926,238.46829389999948,,,,,,,,,,,,,,,,,,,,,,,,,,238.482058399999,238.48489829999926,238.48489829999926,238.48489829999926,241.4846177999989,241.4846177999989,241.4846177999989,241.468931899999,j,1.6073379000008572,0.19214049999936833,241.4691404999994,241.46919989999878,None,,,,,,,,,,,,,,00053,001,2026-01-25_14h59.52.341,MST_task,2024.2.0,59.96616708854998,2026-01-25 15h00.26.264346 +0530,
,Objects\050a.jpg,28,0,29,,,,,,,None,,,f,0.4041708999993716,None,,,,29,0,28,241.4846177999989,,,,,,,,,,,,,,,,,,,,,,,241.46956069999942,241.4846177999989,241.9851884999989,241.96843459999945,,,,,,,,,,,,,,,,,,,,,,,,,,241.97802339999907,241.9851884999989,241.9851884999989,241.9851884999989,244.98443450000013,244.98443450000013,244.98443450000013,244.96910229999958,None,,,244.9692912999999,245.40191980000054,f,244.98443450000013,244.98443450000013,0.4041708999993716,None,,,,,,,,,,00053,001,2026-01-25_14h59.52.341,MST_task,2024.2.0,59.96616708854998,2026-01-25 15h00.26.264346 +0530,
,Objects\152a.jpg,29,0,30,,,,,,,f,1.477019800000562,0.256578399999853,None,,,,,,30,0,29,245.4180354,,,,,,,,,,,,,,,,,,,,,,,245.4022702000002,245.4180354,245.92694420000043,245.90163229999962,,,,,,,,,,,,,,,,,,,,,,,,,,245.92418519999956,245.92694420000043,245.92694420000043,245.92694420000043,,,,248.91842969999925,f,1.477019800000562,0.256578399999853,248.91870019999988,248.91876760000014,None,,,,,,,,,,,,,,00053,001,2026-01-25_14h59.52.341,MST_task,2024.2.0,59.96616708854998,2026-01-25 15h00.26.264346 +0530,
,Objects\094a.jpg,30,0,31,,,,,,,f,1.713103100000808,0.23200859999997192,None,,,,,,31,0,30,248.9345715999989,,,,,,,,,,,,,,,,,,,,,,,248.91915449999942,248.9345715999989,249.43486010000015,249.41850030000023,,,,,,,,,,,,,,,,,,,,,,,,,,249.4275505000005,249.43486010000015,249.43486010000015,249.43486010000015,252.4345962999996,252.4345962999996,252.4345962999996,252.41921770000044,f,1.713103100000808,0.23200859999997192,252.41942139999992,252.4194807999993,None,,,,,,,,,,,,,,00053,001,2026-01-25_14h59.52.341,MST_task,2024.2.0,59.96616708854998,2026-01-25 15h00.26.264346 +0530,
,Objects\191a.jpg,31,0,32,,,,,,,j,2.261942299999646,0.17596310000044468,None,,,,,,32,0,31,252.4345962999996,,,,,,,,,,,,,,,,,,,,,,,252.41986240000006,252.4345962999996,252.934685799999,252.91827629999898,,,,,,,,,,,,,,,,,,,,,,,,,,252.92711000000054,252.934685799999,252.934685799999,252.934685799999,255.93440849999934,255.93440849999934,255.93440849999934,255.91897299999982,j,2.261942299999646,0.17596310000044468,255.91917749999993,255.91923659999884,None,,,,,,,,,,,,,,00053,001,2026-01-25_14h59.52.341,MST_task,2024.2.0,59.96616708854998,2026-01-25 15h00.26.264346 +0530,
,Objects\174a.jpg,32,0,33,,,,,,,f,1.2731507000007696,0.23212830000011309,None,,,,,,33,0,32,255.93440849999934,,,,,,,,,,,,,,,,,,,,,,,255.91961459999948,255.93440849999934,256.43489469999986,256.41845079999985,,,,,,,,,,,,,,,,,,,,,,,,,,256.4267139000003,256.43489469999986,256.43489469999986,256.43489469999986,259.43467749999945,259.43467749999945,259.43467749999945,259.41920410000057,f,1.2731507000007696,0.23212830000011309,259.4194104999988,259.41947009999967,None,,,,,,,,,,,,,,00053,001,2026-01-25_14h59.52.341,MST_task,2024.2.0,59.96616708854998,2026-01-25 15h00.26.264346 +0530,
,Objects\052a.jpg,33,0,34,,,,,,,j,2.949153199999273,None,None,,,,,,34,0,33,259.43467749999945,,,,,,,,,,,,,,,,,,,,,,,259.4198486999994,259.43467749999945,259.9348095999994,259.91853210000045,,,,,,,,,,,,,,,,,,,,,,,,,,259.92758089999916,259.9348095999994,259.9348095999994,259.9348095999994,262.9346530999992,262.9346530999992,262.9346530999992,262.91925509999965,j,2.949153199999273,None,262.9194841999997,262.91954369999985,None,,,,,,,,,,,,,,00053,001,2026-01-25_14h59.52.341,MST_task,2024.2.0,59.96616708854998,2026-01-25 15h00.26.264346 +0530,
,Objects\179a.jpg,34,0,35,,,,,,,f,1.2819830000007642,0.2157043999995949,None,,,,,,35,0,34,262.9346530999992,,,,,,,,,,,,,,,,,,,,,,,262.91985249999925,262.9346530999992,263.43491689999973,263.4184889999997,,,,,,,,,,,,,,,,,,,,,,,,,,263.4269358999991,263.43491689999973,263.43491689999973,263.43491689999973,266.43446609999955,266.43446609999955,266.43446609999955,266.41924709999876,f,1.2819830000007642,0.2157043999995949,266.41946049999933,266.4195203999989,None,,,,,,,,,,,,,,00053,001,2026-01-25_14h59.52.341,MST_task,2024.2.0,59.96616708854998,2026-01-25 15h00.26.264346 +0530,
,Scenes\161a.jpg,35,0,36,,,,,,,j,1.3269302000007883,0.17583930000000692,None,,,,,,36,0,35,266.43446609999955,,,,,,,,,,,,,,,,,,,,,,,266.4199018999989,266.43446609999955,266.941247499999,266.91847400000006,,,,,,,,,,,,,,,,,,,,,,,,,,266.93664179999905,266.941247499999,266.941247499999,266.941247499999,,,,269.93472680000013,j,1.3269302000007883,0.17583930000000692,269.9349287999994,269.9350061999994,None,,,,,,,,,,,,,,00053,001,2026-01-25_14h59.52.341,MST_task,2024.2.0,59.96616708854998,2026-01-25 15h00.26.264346 +0530,
,Scenes\101a.jpg,36,0,37,,,,,,,None,,,f,0.5119273999989673,None,,,,37,0,36,269.9511129000002,,,,,,,,,,,,,,,,,,,,,,,269.93538850000004,269.9511129000002,270.45512119999876,270.4351108999999,,,,,,,,,,,,,,,,,,,,,,,,,,270.4521139999997,270.45512119999876,270.45512119999876,270.45512119999876,,,,273.4517942000002,None,,,273.45198510000046,273.98511580000013,f,273.46845459999895,273.46845459999895,0.5119273999989673,None,,,,,,,,,,00053,001,2026-01-25_14h59.52.341,MST_task,2024.2.0,59.96616708854998,2026-01-25 15h00.26.264346 +0530,
,Scenes\073a.jpg,37,0,38,,,,,,,j,1.1823433999998088,0.19259430000056454,None,,,,,,38,0,37,274.0014644999992,,,,,,,,,,,,,,,,,,,,,,,273.98546480000005,274.0014644999992,274.501672299999,274.4851423,,,,,,,,,,,,,,,,,,,,,,,,,,274.49629509999977,274.501672299999,274.501672299999,274.501672299999,277.50189899999896,277.50189899999896,277.50189899999896,277.4858497999994,j,1.1823433999998088,0.19259430000056454,277.4860630999992,277.4861242999996,None,,,,,,,,,,,,,,00053,001,2026-01-25_14h59.52.341,MST_task,2024.2.0,59.96616708854998,2026-01-25 15h00.26.264346 +0530,
,Scenes\182a.jpg,38,0,39,,,,,,,f,2.201249399999142,0.2319814000002225,None,,,,,,39,0,38,277.50189899999896,,,,,,,,,,,,,,,,,,,,,,,277.48652369999945,277.50189899999896,278.00273969999944,277.98506459999953,,,,,,,,,,,,,,,,,,,,,,,,,,278.0000304999994,278.00273969999944,278.00273969999944,278.00273969999944,,,,281.00173859999995,f,2.201249399999142,0.2319814000002225,281.00195519999943,281.0020210999992,None,,,,,,,,,,,,,,00053,001,2026-01-25_14h59.52.341,MST_task,2024.2.0,59.96616708854998,2026-01-25 15h00.26.264346 +0530,
,Scenes\028a.jpg,39,0,40,,,,,,,j,1.6366674000000785,0.23997000000053959,None,,,,,,40,0,39,281.0180698999993,,,,,,,,,,,,,,,,,,,,,,,281.0023435999992,281.0180698999993,281.5200253999992,281.50182420000056,,,,,,,,,,,,,,,,,,,,,,,,,,281.5178477999998,281.5200253999992,281.5200253999992,281.5200253999992,,,,284.5184737999989,j,1.6366674000000785,0.23997000000053959,284.51868680000007,284.51875219999965,None,,,,,,,,,,,,,,00053,001,2026-01-25_14h59.52.341,MST_task,2024.2.0,59.96616708854998,2026-01-25 15h00.26.264346 +0530,
,Scenes\027a.jpg,40,0,41,,,,,,,f,2.8226257000005717,None,None,,,,,,41,0,40,284.53469179999956,,,,,,,,,,,,,,,,,,,,,,,284.5191245999995,284.53469179999956,285.03802369999903,285.0185122999992,,,,,,,,,,,,,,,,,,,,,,,,,,285.0350091,285.03802369999903,285.03802369999903,285.03802369999903,,,,288.03509490000033,f,2.8226257000005717,None,288.03529870000057,288.03536259999964,None,,,,,,,,,,,,,,00053,001,2026-01-25_14h59.52.341,MST_task,2024.2.0,59.96616708854998,2026-01-25 15h00.26.264346 +0530,
,Scenes\013a.jpg,41,0,42,,,,,,,j,1.4828797999998642,0.19938849999925878,None,,,,,,42,0,41,288.0510971999993,,,,,,,,,,,,,,,,,,,,,,,288.03566109999883,288.0510971999993,288.5617507999996,288.5344198999992,,,,,,,,,,,,,,,,,,,,,,,,,,288.5588647000004,288.5617507999996,288.5617507999996,288.5617507999996,,,,291.5360148,j,1.4828797999998642,0.19938849999925878,291.5362320000004,291.5362974999989,None,,,,,,,,,,,,,,00053,001,2026-01-25_14h59.52.341,MST_task,2024.2.0,59.96616708854998,2026-01-25 15h00.26.264346 +0530,
,Objects\144a.jpg,42,0,43,,,,,,,None,,,f,0.5759646000005887,None,,,,43,0,42,291.55189059999975,,,,,,,,,,,,,,,,,,,,,,,291.536677099999,291.55189059999975,,292.0511644999988,,,,,,,,,,,,,,,,,,,,,,,,,,292.06402270000035,292.06847339999877,292.06847339999877,292.06847339999877,,,,295.051655199999,None,,,295.05185249999886,295.65199439999924,f,295.06809769999927,295.06809769999927,0.5759646000005887,None,,,,,,,,,,00053,001,2026-01-25_14h59.52.341,MST_task,2024.2.0,59.96616708854998,2026-01-25 15h00.26.264346 +0530,
,Objects\117a.jpg,43,0,44,,,,,,,j,2.2196922000002814,0.28003090000129305,None,,,,,,44,0,43,295.66803900000014,,,,,,,,,,,,,,,,,,,,,,,295.65251720000015,295.66803900000014,296.1683472000004,296.151370399999,,,,,,,,,,,,,,,,,,,,,,,,,,296.1585034,296.1683472000004,296.1683472000004,296.1683472000004,299.1679435999995,299.1679435999995,299.1679435999995,299.15242749999925,j,2.2196922000002814,0.28003090000129305,299.15264690000004,299.1527100000003,None,,,,,,,,,,,,,,00053,001,2026-01-25_14h59.52.341,MST_task,2024.2.0,59.96616708854998,2026-01-25 15h00.26.264346 +0530,
,Objects\107a.jpg,44,0,45,,,,,,,f,2.032477700000527,0.24040120000063325,None,,,,,,45,0,44,299.1679435999995,,,,,,,,,,,,,,,,,,,,,,,299.15302150000025,299.1679435999995,299.66830019999907,299.6514774999996,,,,,,,,,,,,,,,,,,,,,,,,,,299.66052820000004,299.66830019999907,299.66830019999907,299.66830019999907,302.6681138999993,302.6681138999993,302.6681138999993,302.6526020000001,f,2.032477700000527,0.24040120000063325,302.6528034999992,302.65286259999993,None,,,,,,,,,,,,,,00053,001,2026-01-25_14h59.52.341,MST_task,2024.2.0,59.96616708854998,2026-01-25 15h00.26.264346 +0530,
,Objects\043a.jpg,45,0,46,,,,,,,None,,,j,0.4766914000010729,None,,,,46,0,45,302.6681138999993,,,,,,,,,,,,,,,,,,,,,,,302.6532453999989,302.6681138999993,303.1684514999997,303.1518328000002,,,,,,,,,,,,,,,,,,,,,,,,,,303.1574922999989,303.1684514999997,303.1684514999997,303.1684514999997,306.1681093999996,306.1681093999996,306.1681093999996,306.1525726,None,,,306.15277760000026,306.6517568999989,j,306.1681093999996,306.1681093999996,0.4766914000010729,None,,,,,,,,,,00053,001,2026-01-25_14h59.52.341,MST_task,2024.2.0,59.96616708854998,2026-01-25 15h00.26.264346 +0530,
,Objects\015a.jpg,46,0,47,,,,,,,j,1.5798145000007935,0.1526348000006692,None,,,,,,47,0,46,306.66811620000044,,,,,,,,,,,,,,,,,,,,,,,306.6520985999996,306.66811620000044,307.1681305000002,307.15192099999877,,,,,,,,,,,,,,,,,,,,,,,,,,307.15860450000037,307.1681305000002,307.1681305000002,307.1681305000002,310.1677650999991,310.1677650999991,310.1677650999991,310.15244820000044,j,1.5798145000007935,0.1526348000006692,310.1526821999996,310.15274469999895,None,,,,,,,,,,,,,,00053,001,2026-01-25_14h59.52.341,MST_task,2024.2.0,59.96616708854998,2026-01-25 15h00.26.264346 +0530,
,Objects\138a.jpg,47,0,48,,,,,,,j,1.3037677000011172,0.20841549999931885,None,,,,,,48,0,47,310.1677650999991,,,,,,,,,,,,,,,,,,,,,,,310.15313779999997,310.1677650999991,310.6680772999989,310.65172489999895,,,,,,,,,,,,,,,,,,,,,,,,,,310.6598923999991,310.6680772999989,310.6680772999989,310.6680772999989,313.6681212000003,313.6681212000003,313.6681212000003,313.65269479999915,j,1.3037677000011172,0.20841549999931885,313.6528985999994,313.65295719999995,None,,,,,,,,,,,,,,00053,001,2026-01-25_14h59.52.341,MST_task,2024.2.0,59.96616708854998,2026-01-25 15h00.26.264346 +0530,
,Objects\108a.jpg,48,0,49,,,,,,,j,2.1317057000014756,0.26322309999886784,None,,,,,,49,0,48,313.6681212000003,,,,,,,,,,,,,,,,,,,,,,,313.65335289999894,313.6681212000003,314.176942099999,314.1517877999995,,,,,,,,,,,,,,,,,,,,,,,,,,314.1746891999992,314.176942099999,314.176942099999,314.176942099999,,,,317.16831789999924,j,2.1317057000014756,0.26322309999886784,317.16852350000045,317.1685878999997,None,,,,,,,,,,,,,,00053,001,2026-01-25_14h59.52.341,MST_task,2024.2.0,59.96616708854998,2026-01-25 15h00.26.264346 +0530,
,Scenes\133a.jpg,49,0,50,,,,,,,j,1.4584780000004685,0.2157774999996036,None,,,,,,50,0,49,317.1846487999992,,,,,,,,,,,,,,,,,,,,,,,317.16903400000047,317.1846487999992,317.6901657999988,317.6685379999999,,,,,,,,,,,,,,,,,,,,,,,,,,317.6874005999998,317.6901657999988,317.6901657999988,317.6901657999988,,,,320.68517559999964,j,1.4584780000004685,0.2157774999996036,320.68540120000034,320.6854733,None,,,,,,,,,,,,,,00053,001,2026-01-25_14h59.52.341,MST_task,2024.2.0,59.96616708854998,2026-01-25 15h00.26.264346 +0530,
,Scenes\079a.jpg,50,0,51,,,,,,,j,1.6326336000001902,0.19240499999978056,None,,,,,,51,0,50,320.7014737999998,,,,,,,,,,,,,,,,,,,,,,,320.6858814999996,320.7014737999998,321.20358750000014,321.18489169999884,,,,,,,,,,,,,,,,,,,,,,,,,,321.20084250000036,321.20358750000014,321.20358750000014,321.20358750000014,,,,324.20184320000044,j,1.6326336000001902,0.19240499999978056,324.20205050000004,324.20211519999975,None,,,,,,,,,,,,,,00053,001,2026-01-25_14h59.52.341,MST_task,2024.2.0,59.96616708854998,2026-01-25 15h00.26.264346 +0530,
,Scenes\075a.jpg,51,0,52,,,,,,,None,,,j,0.8138304999993125,None,,,,52,0,51,324.21811960000014,,,,,,,,,,,,,,,,,,,,,,,324.20248530000026,324.21811960000014,324.72014130000025,324.7018449999996,,,,,,,,,,,,,,,,,,,,,,,,,,324.7171129999988,324.72014130000025,324.72014130000025,324.72014130000025,,,,327.7184665999994,None,,,327.7186547000001,328.5514688000003,j,327.7346226999998,327.7346226999998,0.8138304999993125,None,,,,,,,,,,00053,001,2026-01-25_14h59.52.341,MST_task,2024.2.0,59.96616708854998,2026-01-25 15h00.26.264346 +0530,
,Scenes\042a.jpg,52,0,53,,,,,,,j,1.4770755999998073,0.23132909999912954,None,,,,,,53,0,52,328.5676117999992,,,,,,,,,,,,,,,,,,,,,,,328.551786,328.5676117999992,329.0796174999996,329.0515773999996,,,,,,,,,,,,,,,,,,,,,,,,,,329.07709690000047,329.0796174999996,329.0796174999996,329.0796174999996,,,,332.0683819999995,j,1.4770755999998073,0.23132909999912954,332.0685851999988,332.06865259999904,None,,,,,,,,,,,,,,00053,001,2026-01-25_14h59.52.341,MST_task,2024.2.0,59.96616708854998,2026-01-25 15h00.26.264346 +0530,
,Scenes\060a.jpg,53,0,54,,,,,,,None,,,j,0.6911966999996366,None,,,,54,0,53,332.0847037000003,,,,,,,,,,,,,,,,,,,,,,,332.0689463999988,332.0847037000003,332.5913848,332.5685993999996,,,,,,,,,,,,,,,,,,,,,,,,,,332.588708199999,332.5913848,332.5913848,332.5913848,,,,335.58513010000024,None,,,335.5853164,336.3020510999995,j,335.60147139999935,335.60147139999935,0.6911966999996366,None,,,,,,,,,,00053,001,2026-01-25_14h59.52.341,MST_task,2024.2.0,59.96616708854998,2026-01-25 15h00.26.264346 +0530,
,Scenes\019a.jpg,54,0,55,,,,,,,j,2.5132743999984086,0.19902710000133084,None,,,,,,55,0,54,336.3181473000004,,,,,,,,,,,,,,,,,,,,,,,336.30258089999916,336.3181473000004,336.82037149999996,336.80158010000014,,,,,,,,,,,,,,,,,,,,,,,,,,336.8176201999995,336.82037149999996,336.82037149999996,336.82037149999996,,,,339.8185343999994,j,2.5132743999984086,0.19902710000133084,339.81876009999905,339.81882570000016,None,,,,,,,,,,,,,,00053,001,2026-01-25_14h59.52.341,MST_task,2024.2.0,59.96616708854998,2026-01-25 15h00.26.264346 +0530,
,Scenes\149a.jpg,55,0,56,,,,,,,f,2.2424198999997316,0.23935879999953613,None,,,,,,56,0,55,339.83472230000007,,,,,,,,,,,,,,,,,,,,,,,339.8191207,339.83472230000007,340.3382937999995,340.31848119999995,,,,,,,,,,,,,,,,,,,,,,,,,,340.33559219999916,340.3382937999995,340.3382937999995,340.3382937999995,,,,343.33544040000015,f,2.2424198999997316,0.23935879999953613,343.33564829999887,343.3357130000004,None,,,,,,,,,,,,,,00053,001,2026-01-25_14h59.52.341,MST_task,2024.2.0,59.96616708854998,2026-01-25 15h00.26.264346 +0530,
,Objects\071a.jpg,56,0,57,,,,,,,f,1.9599048999989463,0.36060660000111966,None,,,,,,57,0,56,343.35150350000004,,,,,,,,,,,,,,,,,,,,,,,343.33600540000043,343.35150350000004,343.8520981999991,343.8351882999996,,,,,,,,,,,,,,,,,,,,,,,,,,343.84446129999924,343.8520981999991,343.8520981999991,343.8520981999991,346.85148089999893,346.85148089999893,346.85148089999893,346.8359651999999,f,1.9599048999989463,0.36060660000111966,346.8361726999992,346.83623179999995,None,,,,,,,,,,,,,,00053,001,2026-01-25_14h59.52.341,MST_task,2024.2.0,59.96616708854998,2026-01-25 15h00.26.264346 +0530,
,Objects\150a.jpg,57,0,58,,,,,,,None,,,j,0.11649039999974775,None,,,,58,0,57,346.85148089999893,,,,,,,,,,,,,,,,,,,,,,,346.83661519999987,346.85148089999893,347.3517544999995,347.3351621999991,,,,,,,,,,,,,,,,,,,,,,,,,,347.3441290999999,347.3517544999995,347.3517544999995,347.3517544999995,350.35157830000026,350.35157830000026,350.35157830000026,350.3359241999988,None,,,350.33610790000057,350.4687377999999,j,350.35157830000026,350.35157830000026,0.11649039999974775,None,,,,,,,,,,00053,001,2026-01-25_14h59.52.341,MST_task,2024.2.0,59.96616708854998,2026-01-25 15h00.26.264346 +0530,
,Objects\037a.jpg,58,0,59,,,,,,,f,0.8993110999999772,0.20011429999976826,None,,,,,,59,0,58,350.484744899999,,,,,,,,,,,,,,,,,,,,,,,350.46908489999987,350.484744899999,350.98491809999905,350.96856859999934,,,,,,,,,,,,,,,,,,,,,,,,,,350.97830369999974,350.98491809999905,350.98491809999905,350.98491809999905,353.98478819999946,353.98478819999946,353.98478819999946,353.9693642000002,f,0.8993110999999772,0.20011429999976826,353.9695706000002,353.9696320999992,None,,,,,,,,,,,,,,00053,001,2026-01-25_14h59.52.341,MST_task,2024.2.0,59.96616708854998,2026-01-25 15h00.26.264346 +0530,
,Objects\077a.jpg,59,0,60,,,,,,,j,1.0159144000008382,0.22397589999854972,None,,,,,,60,0,59,353.98478819999946,,,,,,,,,,,,,,,,,,,,,,,353.9700128000004,353.98478819999946,354.49227710000014,354.4683434999988,,,,,,,,,,,,,,,,,,,,,,,,,,354.4895808000001,354.49227710000014,354.49227710000014,354.49227710000014,,,,357.48515719999887,j,1.0159144000008382,0.22397589999854972,357.4853600999995,357.4854233999995,None,,,,,,,,,,,,,,00053,001,2026-01-25_14h59.52.341,MST_task,2024.2.0,59.96616708854998,2026-01-25 15h00.26.264346 +0530,
,Objects\136a.jpg,60,0,61,,,,,,,f,1.3071202999999514,0.24000549999982468,None,,,,,,61,0,60,357.5011739999991,,,,,,,,,,,,,,,,,,,,,,,357.48578929999894,357.5011739999991,358.0015180999999,357.9848801999997,,,,,,,,,,,,,,,,,,,,,,,,,,357.9896454999998,358.0015180999999,358.0015180999999,358.0015180999999,361.0015093999991,361.0015093999991,361.0015093999991,360.9855652999995,f,1.3071202999999514,0.24000549999982468,360.9857637999994,360.985824899999,None,,,,,,,,,,,,,,00053,001,2026-01-25_14h59.52.341,MST_task,2024.2.0,59.96616708854998,2026-01-25 15h00.26.264346 +0530,
,Objects\127a.jpg,61,0,62,,,,,,,j,2.3989771000015025,0.23124250000000757,None,,,,,,62,0,61,361.0015093999991,,,,,,,,,,,,,,,,,,,,,,,360.9861989000001,361.0015093999991,361.501720799999,361.48492479999913,,,,,,,,,,,,,,,,,,,,,,,,,,361.4935220999996,361.501720799999,361.501720799999,361.501720799999,364.50119689999883,364.50119689999883,364.50119689999883,364.48580949999996,j,2.3989771000015025,0.23124250000000757,364.48601549999876,364.4860762999997,None,,,,,,,,,,,,,,00053,001,2026-01-25_14h59.52.341,MST_task,2024.2.0,59.96616708854998,2026-01-25 15h00.26.264346 +0530,
,Objects\163a.jpg,62,0,63,,,,,,,j,1.41091729999971,0.17533779999939725,None,,,,,,63,0,62,364.50119689999883,,,,,,,,,,,,,,,,,,,,,,,364.4863736999996,364.50119689999883,365.00172569999995,364.9851398999999,,,,,,,,,,,,,,,,,,,,,,,,,,364.9936677000005,365.00172569999995,365.00172569999995,365.00172569999995,368.00149799999963,368.00149799999963,368.00149799999963,367.98593099999925,j,1.41091729999971,0.17533779999939725,367.98612949999915,367.9861889999993,None,,,,,,,,,,,,,,00053,001,2026-01-25_14h59.52.341,MST_task,2024.2.0,59.96616708854998,2026-01-25 15h00.26.264346 +0530,
,Scenes\124a.jpg,63,0,64,,,,,,,j,2.755305700000463,0.1685589999997319,None,,,,,,64,0,63,368.00149799999963,,,,,,,,,,,,,,,,,,,,,,,367.98648709999907,368.00149799999963,368.50480590000006,368.4850289999995,,,,,,,,,,,,,,,,,,,,,,,,,,368.50220400000035,368.50480590000006,368.50480590000006,368.50480590000006,,,,371.50194419999934,j,2.755305700000463,0.1685589999997319,371.5021502999989,371.50221450000026,None,,,,,,,,,,,,,,00053,001,2026-01-25_14h59.52.341,MST_task,2024.2.0,59.96616708854998,2026-01-25 15h00.26.264346 +0530,
,Scenes\104a.jpg,64,0,65,,,,,,,None,,,j,0.0898737000006804,None,,,,65,0,64,371.51817780000056,,,,,,,,,,,,,,,,,,,,,,,371.5026003999992,371.51817780000056,372.01999500000056,372.0019195999994,,,,,,,,,,,,,,,,,,,,,,,,,,372.01700639999945,372.01999500000056,372.01999500000056,372.01999500000056,,,,375.0184630999993,None,,,375.01865109999926,375.1350010999995,j,375.03479569999945,375.03479569999945,0.0898737000006804,None,,,,,,,,,,00053,001,2026-01-25_14h59.52.341,MST_task,2024.2.0,59.96616708854998,2026-01-25 15h00.26.264346 +0530,
,Scenes\152a.jpg,65,0,66,,,,,,,j,1.2087004000004526,0.16798480000034033,None,,,,,,66,0,65,375.15116390000003,,,,,,,,,,,,,,,,,,,,,,,375.13536919999933,375.15116390000003,375.6519862999994,375.6351037000004,,,,,,,,,,,,,,,,,,,,,,,,,,375.6492479999997,375.6519862999994,375.6519862999994,375.6519862999994,378.65151539999897,378.65151539999897,378.65151539999897,378.6359973999988,j,1.2087004000004526,0.16798480000034033,378.6362066999991,378.6362661000003,None,,,,,,,,,,,,,,00053,001,2026-01-25_14h59.52.341,MST_task,2024.2.0,59.96616708854998,2026-01-25 15h00.26.264346 +0530,
,Scenes\156a.jpg,66,0,67,,,,,,,j,1.991360900001382,0.1839734999994107,None,,,,,,67,0,66,378.65151539999897,,,,,,,,,,,,,,,,,,,,,,,378.6366582999999,378.65151539999897,379.1653389999992,379.1349004999993,,,,,,,,,,,,,,,,,,,,,,,,,,379.16251849999935,379.1653389999992,379.1653389999992,379.1653389999992,,,,382.1519272000005,j,1.991360900001382,0.1839734999994107,382.15213699999913,382.15220190000036,None,,,,,,,,,,,,,,00053,001,2026-01-25_14h59.52.341,MST_task,2024.2.0,59.96616708854998,2026-01-25 15h00.26.264346 +0530,
,Scenes\084a.jpg,67,0,68,,,,,,,j,1.592925599999944,0.13649210000039602,None,,,,,,68,0,67,382.16804989999946,,,,,,,,,,,,,,,,,,,,,,,382.1525738,382.16804989999946,382.68327169999975,382.65149389999897,,,,,,,,,,,,,,,,,,,,,,,,,,382.68055599999934,382.68327169999975,382.68327169999975,382.68327169999975,,,,385.6685626999988,j,1.592925599999944,0.13649210000039602,385.66876559999946,385.6688312999995,None,,,,,,,,,,,,,,00053,001,2026-01-25_14h59.52.341,MST_task,2024.2.0,59.96616708854998,2026-01-25 15h00.26.264346 +0530,
,Scenes\172a.jpg,68,0,69,,,,,,,j,2.1614050999996834,0.1764435000004596,None,,,,,,69,0,68,385.6845978000001,,,,,,,,,,,,,,,,,,,,,,,385.6691964999991,385.6845978000001,386.1868209999993,386.1685892000005,,,,,,,,,,,,,,,,,,,,,,,,,,386.1841446999988,386.1868209999993,386.1868209999993,386.1868209999993,,,,389.18501540000034,j,2.1614050999996834,0.1764435000004596,389.18521429999964,389.185277999999,None,,,,,,,,,,,,,,00053,001,2026-01-25_14h59.52.341,MST_task,2024.2.0,59.96616708854998,2026-01-25 15h00.26.264346 +0530,
,Scenes\070a.jpg,69,0,70,,,,,,,f,2.49816490000012,0.23196160000043164,None,,,,,,70,0,69,389.2012343999995,,,,,,,,,,,,,,,,,,,,,,,389.1855754999997,389.2012343999995,389.7058655000001,389.68519319999905,,,,,,,,,,,,,,,,,,,,,,,,,,389.7030520999997,389.7058655000001,389.7058655000001,389.7058655000001,,,,392.70193709999876,f,2.49816490000012,0.23196160000043164,392.70216380000056,392.7022287999989,None,,,,,,,,,,,,,,00053,001,2026-01-25_14h59.52.341,MST_task,2024.2.0,59.96616708854998,2026-01-25 15h00.26.264346 +0530,
,Objects\022a.jpg,70,0,71,,,,,,,f,1.6258629000003566,0.1913167999991856,None,,,,,,71,0,70,392.71819510000023,,,,,,,,,,,,,,,,,,,,,,,392.70265389999986,392.71819510000023,393.2187959999992,393.20186289999947,,,,,,,,,,,,,,,,,,,,,,,,,,393.21088509999936,393.2187959999992,393.2187959999992,393.2187959999992,396.2182071999996,396.2182071999996,396.2182071999996,396.2027096999991,f,1.6258629000003566,0.1913167999991856,396.2029072999994,396.20296659999985,None,,,,,,,,,,,,,,00053,001,2026-01-25_14h59.52.341,MST_task,2024.2.0,59.96616708854998,2026-01-25 15h00.26.264346 +0530,
,Objects\172a.jpg,71,0,72,,,,,,,j,2.6620809999985795,0.19239440000092145,None,,,,,,72,0,71,396.2182071999996,,,,,,,,,,,,,,,,,,,,,,,396.2032667000003,396.2182071999996,396.71816279999985,396.70189629999913,,,,,,,,,,,,,,,,,,,,,,,,,,396.71004749999884,396.71816279999985,396.71816279999985,396.71816279999985,399.7182123999992,399.7182123999992,399.7182123999992,399.7025163999988,j,2.6620809999985795,0.19239440000092145,399.70272920000025,399.702787799999,None,,,,,,,,,,,,,,00053,001,2026-01-25_14h59.52.341,MST_task,2024.2.0,59.96616708854998,2026-01-25 15h00.26.264346 +0530,
,Objects\073a.jpg,72,0,73,,,,,,,f,1.2261650000000373,0.19125789999998233,None,,,,,,73,0,72,399.7182123999992,,,,,,,,,,,,,,,,,,,,,,,399.70316730000013,399.7182123999992,400.21849099999963,400.2019301,,,,,,,,,,,,,,,,,,,,,,,,,,400.2072561999994,400.21849099999963,400.21849099999963,400.21849099999963,403.2181980999994,403.2181980999994,403.2181980999994,403.2027460999998,f,1.2261650000000373,0.19125789999998233,403.2029502000005,403.20300899999893,None,,,,,,,,,,,,,,00053,001,2026-01-25_14h59.52.341,MST_task,2024.2.0,59.96616708854998,2026-01-25 15h00.26.264346 +0530,
,Objects\075a.jpg,73,0,74,,,,,,,f,2.5015831000000617,0.2480532999998104,None,,,,,,74,0,73,403.2181980999994,,,,,,,,,,,,,,,,,,,,,,,403.2033902000003,403.2181980999994,403.7184340999993,403.70193970000037,,,,,,,,,,,,,,,,,,,,,,,,,,403.71111459999884,403.7184340999993,403.7184340999993,403.7184340999993,406.7182107999997,406.7182107999997,406.7182107999997,406.7027443999996,f,2.5015831000000617,0.2480532999998104,406.70294139999896,406.7030006999994,None,,,,,,,,,,,,,,00053,001,2026-01-25_14h59.52.341,MST_task,2024.2.0,59.96616708854998,2026-01-25 15h00.26.264346 +0530,
,Objects\140a.jpg,74,0,75,,,,,,,j,1.0153116000001319,0.18400819999988016,None,,,,,,75,0,74,406.7182107999997,,,,,,,,,,,,,,,,,,,,,,,406.70337479999944,406.7182107999997,407.22935719999987,407.2019502999992,,,,,,,,,,,,,,,,,,,,,,,,,,407.2263681000004,407.22935719999987,407.22935719999987,407.22935719999987,,,,410.2187431000002,j,1.0153116000001319,0.18400819999988016,410.2191591999999,410.2192307000005,None,,,,,,,,,,,,,,00053,001,2026-01-25_14h59.52.341,MST_task,2024.2.0,59.96616708854998,2026-01-25 15h00.26.264346 +0530,
,Objects\187a.jpg,75,0,76,,,,,,,f,0.8127473000004102,0.2167198000006465,None,,,,,,76,0,75,410.23479020000013,,,,,,,,,,,,,,,,,,,,,,,410.2195532000005,410.23479020000013,410.7351495999992,410.7186185999999,,,,,,,,,,,,,,,,,,,,,,,,,,410.7276158000004,410.7351495999992,410.7351495999992,410.7351495999992,413.73483250000027,413.73483250000027,413.73483250000027,413.71940840000025,f,0.8127473000004102,0.2167198000006465,413.71961199999896,413.71967140000015,None,,,,,,,,,,,,,,00053,001,2026-01-25_14h59.52.341,MST_task,2024.2.0,59.96616708854998,2026-01-25 15h00.26.264346 +0530,
,Objects\049a.jpg,76,0,77,,,,,,,f,2.657566699999734,0.2554455000008602,None,,,,,,77,0,76,413.73483250000027,,,,,,,,,,,,,,,,,,,,,,,413.7200518999998,413.73483250000027,414.23507319999953,414.21862599999986,,,,,,,,,,,,,,,,,,,,,,,,,,414.22772649999933,414.23507319999953,414.23507319999953,414.23507319999953,417.23470780000025,417.23470780000025,417.23470780000025,417.21946769999886,f,2.657566699999734,0.2554455000008602,417.21967249999943,417.2197302000004,None,,,,,,,,,,,,,,00053,001,2026-01-25_14h59.52.341,MST_task,2024.2.0,59.96616708854998,2026-01-25 15h00.26.264346 +0530,
,Scenes\106a.jpg,77,0,78,,,,,,,j,0.8052115000009508,0.216642999999749,None,,,,,,78,0,77,417.23470780000025,,,,,,,,,,,,,,,,,,,,,,,417.22003399999994,417.23470780000025,417.742802499999,417.7181289,,,,,,,,,,,,,,,,,,,,,,,,,,417.74013430000014,417.742802499999,417.742802499999,417.742802499999,,,,420.7352276999991,j,0.8052115000009508,0.216642999999749,420.73543529999915,420.73549809999895,None,,,,,,,,,,,,,,00053,001,2026-01-25_14h59.52.341,MST_task,2024.2.0,59.96616708854998,2026-01-25 15h00.26.264346 +0530,
,Scenes\052a.jpg,78,0,79,,,,,,,f,1.9869908000000578,0.25575409999873955,None,,,,,,79,0,78,420.75157489999947,,,,,,,,,,,,,,,,,,,,,,,420.73587039999984,420.75157489999947,421.2650126999997,421.2351839999992,,,,,,,,,,,,,,,,,,,,,,,,,,421.26264769999943,421.2650126999997,421.2650126999997,421.2650126999997,,,,424.2524470999997,f,1.9869908000000578,0.25575409999873955,424.2526550999992,424.2527191999998,None,,,,,,,,,,,,,,00053,001,2026-01-25_14h59.52.341,MST_task,2024.2.0,59.96616708854998,2026-01-25 15h00.26.264346 +0530,
,Scenes\030a.jpg,79,0,80,,,,,,,j,1.0944266999995307,0.20812910000131524,None,,,,,,80,0,79,424.2682255999989,,,,,,,,,,,,,,,,,,,,,,,424.2530200000001,424.2682255999989,424.7737118999994,424.7519804000003,,,,,,,,,,,,,,,,,,,,,,,,,,424.7703576999993,424.7737118999994,424.7737118999994,424.7737118999994,,,,427.7686515000005,j,1.0944266999995307,0.20812910000131524,427.7688548999995,427.76891930000056,None,,,,,,,,,,,,,,00053,001,2026-01-25_14h59.52.341,MST_task,2024.2.0,59.96616708854998,2026-01-25 15h00.26.264346 +0530,
,Scenes\174a.jpg,80,0,81,,,,,,,j,1.5876026000005368,0.19135909999931755,None,,,,,,81,0,80,427.7847406000001,,,,,,,,,,,,,,,,,,,,,,,427.76921140000013,427.7847406000001,428.28910410000026,428.2686421999988,,,,,,,,,,,,,,,,,,,,,,,,,,428.28663589999996,428.28910410000026,428.28910410000026,428.28910410000026,,,,431.28523060000043,j,1.5876026000005368,0.19135909999931755,431.28543759999957,431.2855020999996,None,,,,,,,,,,,,,,00053,001,2026-01-25_14h59.52.341,MST_task,2024.2.0,59.96616708854998,2026-01-25 15h00.26.264346 +0530,
,Scenes\173a.jpg,81,0,82,,,,,,,j,1.4934018000003562,0.19246759999987262,None,,,,,,82,0,81,431.3014543999998,,,,,,,,,,,,,,,,,,,,,,,431.2858483,431.3014543999998,431.8148526999994,431.78492069999993,,,,,,,,,,,,,,,,,,,,,,,,,,431.81183989999954,431.8148526999994,431.8148526999994,431.8148526999994,,,,434.8019798999994,j,1.4934018000003562,0.19246759999987262,434.80220139999983,434.8022672999996,None,,,,,,,,,,,,,,00053,001,2026-01-25_14h59.52.341,MST_task,2024.2.0,59.96616708854998,2026-01-25 15h00.26.264346 +0530,
,Scenes\157a.jpg,82,0,83,,,,,,,j,2.7119650000004185,0.2162282999997842,None,,,,,,83,0,82,434.8180085999993,,,,,,,,,,,,,,,,,,,,,,,434.802560099999,434.8180085999993,435.3240824000004,435.30169019999994,,,,,,,,,,,,,,,,,,,,,,,,,,435.31892419999895,435.3240824000004,435.3240824000004,435.3240824000004,,,,438.3184103000003,j,2.7119650000004185,0.2162282999997842,438.31861089999984,438.3186740000001,None,,,,,,,,,,,,,,00053,001,2026-01-25_14h59.52.341,MST_task,2024.2.0,59.96616708854998,2026-01-25 15h00.26.264346 +0530,
,Scenes\034a.jpg,83,0,84,,,,,,,j,2.8786273000005167,None,None,,,,,,84,0,83,438.33453589999954,,,,,,,,,,,,,,,,,,,,,,,438.31890179999937,438.33453589999954,438.8696435999991,438.8186403999989,,,,,,,,,,,,,,,,,,,,,,,,,,438.86676590000025,438.8696435999991,438.8696435999991,438.8696435999991,,,,441.8352794000002,j,2.8786273000005167,None,441.8354791999991,441.8355436999991,None,,,,,,,,,,,,,,00053,001,2026-01-25_14h59.52.341,MST_task,2024.2.0,59.96616708854998,2026-01-25 15h00.26.264346 +0530,
,Objects\069a.jpg,84,0,85,,,,,,,j,1.1242629999997007,0.13599000000067463,None,,,,,,85,0,84,441.8512716999994,,,,,,,,,,,,,,,,,,,,,,,441.8359110000001,441.8512716999994,442.3523779999996,442.3353169000002,,,,,,,,,,,,,,,,,,,,,,,,,,442.34860879999906,442.3523779999996,442.3523779999996,442.3523779999996,445.3512439999995,445.3512439999995,445.3512439999995,445.3360819999998,j,1.1242629999997007,0.13599000000067463,445.3362780999996,445.3363367999991,None,,,,,,,,,,,,,,00053,001,2026-01-25_14h59.52.341,MST_task,2024.2.0,59.96616708854998,2026-01-25 15h00.26.264346 +0530,
,Objects\184a.jpg,85,0,86,,,,,,,None,,,f,2.897544299999936,None,,,,86,0,85,445.3512439999995,,,,,,,,,,,,,,,,,,,,,,,445.3367168999994,445.3512439999995,445.8517790999995,445.8353268999999,,,,,,,,,,,,,,,,,,,,,,,,,,445.84173399999963,445.8517790999995,445.8517790999995,445.8517790999995,448.85112389999995,448.85112389999995,448.85112389999995,448.83578060000036,None,,,448.83594319999975,451.75212049999936,f,448.85112389999995,448.85112389999995,2.897544299999936,None,,,,,,,,,,00053,001,2026-01-25_14h59.52.341,MST_task,2024.2.0,59.96616708854998,2026-01-25 15h00.26.264346 +0530,
,Objects\114a.jpg,86,0,87,,,,,,,f,1.2147701000012603,0.3113240999991831,None,,,,,,87,0,86,451.76899909999884,,,,,,,,,,,,,,,,,,,,,,,451.75260080000044,451.76899909999884,,452.2685158000004,,,,,,,,,,,,,,,,,,,,,,,,,,452.2777308000004,452.285952799999,452.285952799999,452.285952799999,,,,455.26866100000007,f,1.2147701000012603,0.3113240999991831,455.26886249999916,455.26892939999925,None,,,,,,,,,,,,,,00053,001,2026-01-25_14h59.52.341,MST_task,2024.2.0,59.96616708854998,2026-01-25 15h00.26.264346 +0530,
,Objects\041a.jpg,87,0,88,,,,,,,j,1.0187631999997393,0.24068070000066655,None,,,,,,88,0,87,455.2848484999995,,,,,,,,,,,,,,,,,,,,,,,455.26921969999967,455.2848484999995,455.7852263999994,455.76866639999935,,,,,,,,,,,,,,,,,,,,,,,,,,455.7774470000004,455.7852263999994,455.7852263999994,455.7852263999994,458.7849375000005,458.7849375000005,458.7849375000005,458.7694993999994,j,1.0187631999997393,0.24068070000066655,458.7696971999994,458.76975610000045,None,,,,,,,,,,,,,,00053,001,2026-01-25_14h59.52.341,MST_task,2024.2.0,59.96616708854998,2026-01-25 15h00.26.264346 +0530,
,Objects\186a.jpg,88,0,89,,,,,,,f,2.175469300000259,0.30399779999970633,None,,,,,,89,0,88,458.7849375000005,,,,,,,,,,,,,,,,,,,,,,,458.77012730000024,458.7849375000005,459.2851721999996,459.2686847999994,,,,,,,,,,,,,,,,,,,,,,,,,,459.27541419999943,459.2851721999996,459.2851721999996,459.2851721999996,462.2849576999997,462.2849576999997,462.2849576999997,462.26944749999893,f,2.175469300000259,0.30399779999970633,462.2696452,462.2697212999992,None,,,,,,,,,,,,,,00053,001,2026-01-25_14h59.52.341,MST_task,2024.2.0,59.96616708854998,2026-01-25 15h00.26.264346 +0530,
,Objects\051a.jpg,89,0,90,,,,,,,j,1.7475233999994089,0.2873053000002983,None,,,,,,90,0,89,462.2849576999997,,,,,,,,,,,,,,,,,,,,,,,462.2700342999997,462.2849576999997,462.7851197,462.7686787999992,,,,,,,,,,,,,,,,,,,,,,,,,,462.77718379999897,462.7851197,462.7851197,462.7851197,465.78466649999973,465.78466649999973,465.78466649999973,465.76925739999933,j,1.7475233999994089,0.2873053000002983,465.76946419999877,465.7695213999996,None,,,,,,,,,,,,,,00053,001,2026-01-25_14h59.52.341,MST_task,2024.2.0,59.96616708854998,2026-01-25 15h00.26.264346 +0530,
,Objects\080a.jpg,90,0,91,,,,,,,f,0.7261822999989818,0.27278880000085337,None,,,,,,91,0,90,465.78466649999973,,,,,,,,,,,,,,,,,,,,,,,465.76982099999987,465.78466649999973,466.29385360000015,466.26868379999905,,,,,,,,,,,,,,,,,,,,,,,,,,466.2910505999989,466.29385360000015,466.29385360000015,466.29385360000015,,,,469.2851071999994,f,0.7261822999989818,0.27278880000085337,469.28531029999976,469.28537589999905,None,,,,,,,,,,,,,,00053,001,2026-01-25_14h59.52.341,MST_task,2024.2.0,59.96616708854998,2026-01-25 15h00.26.264346 +0530,
,Scenes\169a.jpg,91,0,92,,,,,,,j,0.8095080000002781,0.2156472999995458,None,,,,,,92,0,91,469.3012990999996,,,,,,,,,,,,,,,,,,,,,,,469.28566990000036,469.3012990999996,469.8031613999992,469.7853450999992,,,,,,,,,,,,,,,,,,,,,,,,,,469.8005527999994,469.8031613999992,469.8031613999992,469.8031613999992,,,,472.8019585999991,j,0.8095080000002781,0.2156472999995458,472.80217599999924,472.80224180000005,None,,,,,,,,,,,,,,00053,001,2026-01-25_14h59.52.341,MST_task,2024.2.0,59.96616708854998,2026-01-25 15h00.26.264346 +0530,
,Scenes\036a.jpg,92,0,93,,,,,,,j,0.9817676000002393,0.19125959999837505,None,,,,,,93,0,92,472.81828529999984,,,,,,,,,,,,,,,,,,,,,,,472.80259359999945,472.81828529999984,473.318981299999,473.30147279999983,,,,,,,,,,,,,,,,,,,,,,,,,,473.31059359999927,473.318981299999,473.318981299999,473.318981299999,476.3179662000002,476.3179662000002,476.3179662000002,476.30279379999956,j,0.9817676000002393,0.19125959999837505,476.3030039999994,476.3030644999999,None,,,,,,,,,,,,,,00053,001,2026-01-25_14h59.52.341,MST_task,2024.2.0,59.96616708854998,2026-01-25 15h00.26.264346 +0530,
,Scenes\189a.jpg,93,0,94,,,,,,,j,0.917663199999879,0.18381109999972978,None,,,,,,94,0,93,476.3179662000002,,,,,,,,,,,,,,,,,,,,,,,476.30337320000035,476.3179662000002,476.82304209999893,476.8020015000002,,,,,,,,,,,,,,,,,,,,,,,,,,476.82030490000034,476.82304209999893,476.82304209999893,476.82304209999893,,,,479.8185190999993,j,0.917663199999879,0.18381109999972978,479.8187399999988,479.81880439999986,None,,,,,,,,,,,,,,00053,001,2026-01-25_14h59.52.341,MST_task,2024.2.0,59.96616708854998,2026-01-25 15h00.26.264346 +0530,
,Scenes\151a.jpg,94,0,95,,,,,,,j,1.0291168000003381,0.23131939999984752,None,,,,,,95,0,94,479.8347627999992,,,,,,,,,,,,,,,,,,,,,,,479.81910679999964,479.8347627999992,480.33556169999974,480.31858329999886,,,,,,,,,,,,,,,,,,,,,,,,,,480.3295032999995,480.33556169999974,480.33556169999974,480.33556169999974,483.3349648000003,483.3349648000003,483.3349648000003,483.3195042999996,j,1.0291168000003381,0.23131939999984752,483.31970550000005,483.31976529999883,None,,,,,,,,,,,,,,00053,001,2026-01-25_14h59.52.341,MST_task,2024.2.0,59.96616708854998,2026-01-25 15h00.26.264346 +0530,
,Scenes\055a.jpg,95,0,96,,,,,,,j,1.235281600000235,0.1914139000000432,None,,,,,,96,0,95,483.3349648000003,,,,,,,,,,,,,,,,,,,,,,,483.32005930000014,483.3349648000003,483.84138879999955,483.8187154999996,,,,,,,,,,,,,,,,,,,,,,,,,,483.8385161999995,483.84138879999955,483.84138879999955,483.84138879999955,,,,486.8351803000005,j,1.235281600000235,0.1914139000000432,486.83538690000023,486.83545159999994,None,,,,,,,,,,,,,,00053,001,2026-01-25_14h59.52.341,MST_task,2024.2.0,59.96616708854998,2026-01-25 15h00.26.264346 +0530,
,Scenes\132a.jpg,96,0,97,,,,,,,j,1.4259638000003179,0.21561969999856956,None,,,,,,97,0,96,486.8513751999999,,,,,,,,,,,,,,,,,,,,,,,486.8357452,486.8513751999999,487.3627820999991,487.33519499999966,,,,,,,,,,,,,,,,,,,,,,,,,,487.36008369999945,487.3627820999991,487.3627820999991,487.3627820999991,,,,490.35199939999984,j,1.4259638000003179,0.21561969999856956,490.3522142999991,490.352279499999,None,,,,,,,,,,,,,,00053,001,2026-01-25_14h59.52.341,MST_task,2024.2.0,59.96616708854998,2026-01-25 15h00.26.264346 +0530,
,Scenes\110a.jpg,97,0,98,,,,,,,j,1.3996157000001404,0.20805980000113777,None,,,,,,98,0,97,490.36884350000037,,,,,,,,,,,,,,,,,,,,,,,490.3525771000004,490.36884350000037,490.86854870000025,490.8517983999991,,,,,,,,,,,,,,,,,,,,,,,,,,490.86530850000054,490.86854870000025,490.86854870000025,490.86854870000025,493.86837679999917,493.86837679999917,493.86837679999917,493.8527656999995,j,1.3996157000001404,0.20805980000113777,493.85296819999894,493.8530262999993,None,,,,,,,,,,,,,,00053,001,2026-01-25_14h59.52.341,MST_task,2024.2.0,59.96616708854998,2026-01-25 15h00.26.264346 +0530,
,Objects\088a.jpg,98,0,99,,,,,,,j,2.459742000000915,None,None,,,,,,99,0,98,493.86837679999917,,,,,,,,,,,,,,,,,,,,,,,493.8534146000002,493.86837679999917,494.36893939999936,494.3519715000002,,,,,,,,,,,,,,,,,,,,,,,,,,494.36148109999885,494.36893939999936,494.36893939999936,494.36893939999936,497.3684426,497.3684426,497.3684426,497.35262990000047,j,2.459742000000915,None,497.35283249999884,497.35289120000016,None,,,,,,,,,,,,,,00053,001,2026-01-25_14h59.52.341,MST_task,2024.2.0,59.96616708854998,2026-01-25 15h00.26.264346 +0530,
,Objects\100a.jpg,99,0,100,,,,,,,f,1.4559310999993613,0.2881747000010364,None,,,,,,100,0,99,497.3684426,,,,,,,,,,,,,,,,,,,,,,,497.35327139999936,497.3684426,497.86857129999953,497.8519620999996,,,,,,,,,,,,,,,,,,,,,,,,,,497.8609545999989,497.86857129999953,497.86857129999953,497.86857129999953,500.8683184999991,500.8683184999991,500.8683184999991,500.85280740000053,f,1.4559310999993613,0.2881747000010364,500.85302279999996,500.85308239999904,None,,,,,,,,,,,,,,00053,001,2026-01-25_14h59.52.341,MST_task,2024.2.0,59.96616708854998,2026-01-25 15h00.26.264346 +0530,
,Objects\113a.jpg,100,0,101,,,,,,,f,2.0187917000002926,0.31261999999878753,None,,,,,,101,0,100,500.8683184999991,,,,,,,,,,,,,,,,,,,,,,,500.8534086999989,500.8683184999991,501.36926610000046,501.35197080000034,,,,,,,,,,,,,,,,,,,,,,,,,,501.36162499999955,501.36926610000046,501.36926610000046,501.36926610000046,504.3681777999991,504.3681777999991,504.3681777999991,504.35270219999984,f,2.0187917000002926,0.31261999999878753,504.3529020999995,504.3529605999993,None,,,,,,,,,,,,,,00053,001,2026-01-25_14h59.52.341,MST_task,2024.2.0,59.96616708854998,2026-01-25 15h00.26.264346 +0530,
,Objects\004a.jpg,101,0,102,,,,,,,None,,,f,1.0636666000009427,None,,,,102,0,101,504.3681777999991,,,,,,,,,,,,,,,,,,,,,,,504.3532572999993,504.3681777999991,504.86849769999935,504.85202299999946,,,,,,,,,,,,,,,,,,,,,,,,,,504.86164780000036,504.86849769999935,504.86849769999935,504.86849769999935,507.86832610000056,507.86832610000056,507.86832610000056,507.8526509000003,None,,,507.85282729999926,508.93512399999963,f,507.86832610000056,507.86832610000056,1.0636666000009427,None,,,,,,,,,,00053,001,2026-01-25_14h59.52.341,MST_task,2024.2.0,59.96616708854998,2026-01-25 15h00.26.264346 +0530,
,Objects\096a.jpg,102,0,103,,,,,,,j,1.6797860999995464,0.19247970000105852,None,,,,,,103,0,102,508.95105800000056,,,,,,,,,,,,,,,,,,,,,,,508.93547919999946,508.95105800000056,509.4604559999989,509.4353840999993,,,,,,,,,,,,,,,,,,,,,,,,,,509.45771310000055,509.4604559999989,509.4604559999989,509.4604559999989,,,,512.4520006999992,j,1.6797860999995464,0.19247970000105852,512.4522056000005,512.4522706999996,None,,,,,,,,,,,,,,00053,001,2026-01-25_14h59.52.341,MST_task,2024.2.0,59.96616708854998,2026-01-25 15h00.26.264346 +0530,
,Objects\143a.jpg,103,0,104,,,,,,,None,,,f,0.7161247000003641,None,,,,104,0,103,512.4683284999992,,,,,,,,,,,,,,,,,,,,,,,512.4525605999988,512.4683284999992,512.9772675999993,512.9520250999994,,,,,,,,,,,,,,,,,,,,,,,,,,512.9750673999988,512.9772675999993,512.9772675999993,512.9772675999993,,,,515.9526047999989,None,,,515.9528073999991,516.685486299999,f,515.9681142999998,515.9681142999998,0.7161247000003641,None,,,,,,,,,,00053,001,2026-01-25_14h59.52.341,MST_task,2024.2.0,59.96616708854998,2026-01-25 15h00.26.264346 +0530,
,Objects\018a.jpg,104,0,105,,,,,,,f,1.0108016999984102,0.2633413000003202,None,,,,,,105,0,104,516.7014290999996,,,,,,,,,,,,,,,,,,,,,,,516.6858297999988,516.7014290999996,517.2018475000004,517.185391699999,,,,,,,,,,,,,,,,,,,,,,,,,,517.1948248999997,517.2018475000004,517.2018475000004,517.2018475000004,520.2016153000004,520.2016153000004,520.2016153000004,520.1861883000001,f,1.0108016999984102,0.2633413000003202,520.1863868,520.1864471999997,None,,,,,,,,,,,,,,00053,001,2026-01-25_14h59.52.341,MST_task,2024.2.0,59.96616708854998,2026-01-25 15h00.26.264346 +0530,
,Scenes\112a.jpg,105,0,106,,,,,,,j,0.8000558000003366,0.2397698999993736,None,,,,,,106,0,105,520.2016153000004,,,,,,,,,,,,,,,,,,,,,,,520.1867463999988,520.2016153000004,520.7081927999989,520.6849967999988,,,,,,,,,,,,,,,,,,,,,,,,,,520.7053861000004,520.7081927999989,520.7081927999989,520.7081927999989,,,,523.7019968000004,j,0.8000558000003366,0.2397698999993736,523.7022015999992,523.7022672999992,None,,,,,,,,,,,,,,00053,001,2026-01-25_14h59.52.341,MST_task,2024.2.0,59.96616708854998,2026-01-25 15h00.26.264346 +0530,
,Scenes\145a.jpg,106,0,107,,,,,,,j,0.7421848000012687,0.23961309999867808,None,,,,,,107,0,106,523.7183535999993,,,,,,,,,,,,,,,,,,,,,,,523.7025601000005,523.7183535999993,524.2224834999997,524.2017943999999,,,,,,,,,,,,,,,,,,,,,,,,,,524.2195235999989,524.2224834999997,524.2224834999997,524.2224834999997,,,,527.2189438000005,j,0.7421848000012687,0.23961309999867808,527.2191452999996,527.2192107999999,None,,,,,,,,,,,,,,00053,001,2026-01-25_14h59.52.341,MST_task,2024.2.0,59.96616708854998,2026-01-25 15h00.26.264346 +0530,
,Scenes\014a.jpg,107,0,108,,,,,,,f,2.725007099999857,0.2244128999991517,None,,,,,,108,0,107,527.2350133999989,,,,,,,,,,,,,,,,,,,,,,,527.2195974000006,527.2350133999989,527.735650999999,527.719568999999,,,,,,,,,,,,,,,,,,,,,,,,,,527.7280587999994,527.735650999999,527.735650999999,527.735650999999,530.7350172999995,530.7350172999995,530.7350172999995,530.7195570000003,f,2.725007099999857,0.2244128999991517,530.7197548000004,530.719814,None,,,,,,,,,,,,,,00053,001,2026-01-25_14h59.52.341,MST_task,2024.2.0,59.96616708854998,2026-01-25 15h00.26.264346 +0530,
,Scenes\047a.jpg,108,0,109,,,,,,,j,1.528872599999886,0.24732650000078138,None,,,,,,109,0,108,530.7350172999995,,,,,,,,,,,,,,,,,,,,,,,530.7201169999989,530.7350172999995,531.235842099999,531.2187527000006,,,,,,,,,,,,,,,,,,,,,,,,,,531.2331620999994,531.235842099999,531.235842099999,531.235842099999,534.2350052999991,534.2350052999991,534.2350052999991,534.2196181999989,j,1.528872599999886,0.24732650000078138,534.2198188999992,534.2198783999993,None,,,,,,,,,,,,,,00053,001,2026-01-25_14h59.52.341,MST_task,2024.2.0,59.96616708854998,2026-01-25 15h00.26.264346 +0530,
,Scenes\129a.jpg,109,0,110,,,,,,,None,,,j,0.8452550999991217,None,,,,110,0,109,534.2350052999991,,,,,,,,,,,,,,,,,,,,,,,534.2202529999995,534.2350052999991,534.7362121000006,534.7187596000003,,,,,,,,,,,,,,,,,,,,,,,,,,534.7335604,534.7362121000006,534.7362121000006,534.7362121000006,,,,537.7354233000005,None,,,537.7356091999991,538.6021287000003,j,537.7514245999992,537.7514245999992,0.8452550999991217,None,,,,,,,,,,00053,001,2026-01-25_14h59.52.341,MST_task,2024.2.0,59.96616708854998,2026-01-25 15h00.26.264346 +0530,
,Scenes\131a.jpg,110,0,111,,,,,,,None,,,j,0.4689730000009149,None,,,,111,0,110,538.6183027999996,,,,,,,,,,,,,,,,,,,,,,,538.6024657999988,538.6183027999996,539.1211337000004,539.1017969000004,,,,,,,,,,,,,,,,,,,,,,,,,,539.1182140000001,539.1211337000004,539.1211337000004,539.1211337000004,,,,542.1186870000001,None,,,542.1188714,542.6189032999991,j,542.1350333999999,542.1350333999999,0.4689730000009149,None,,,,,,,,,,00053,001,2026-01-25_14h59.52.341,MST_task,2024.2.0,59.96616708854998,2026-01-25 15h00.26.264346 +0530,
,Scenes\162a.jpg,111,0,112,,,,,,,j,2.9431932999996206,None,None,,,,,,112,0,111,542.6350246000002,,,,,,,,,,,,,,,,,,,,,,,542.619246799999,542.6350246000002,543.1489015999996,543.1187623000005,,,,,,,,,,,,,,,,,,,,,,,,,,543.1461796000003,543.1489015999996,543.1489015999996,543.1489015999996,,,,546.1355110999993,j,2.9431932999996206,None,546.1357160999996,546.1357828,None,,,,,,,,,,,,,,00053,001,2026-01-25_14h59.52.341,MST_task,2024.2.0,59.96616708854998,2026-01-25 15h00.26.264346 +0530,
,Objects\156a.jpg,112,0,113,,,,,,,f,2.0808097000008274,0.263976599999296,None,,,,,,113,0,112,546.1516312000003,,,,,,,,,,,,,,,,,,,,,,,546.1361557,546.1516312000003,546.6518715000002,546.6354572,,,,,,,,,,,,,,,,,,,,,,,,,,546.6471934000001,546.6518715000002,546.6518715000002,546.6518715000002,549.6510942000004,549.6510942000004,549.6510942000004,549.6349768,f,2.0808097000008274,0.263976599999296,549.6350557999995,549.6350750999991,None,,,,,,,,,,,,,,00053,001,2026-01-25_14h59.52.341,MST_task,2024.2.0,59.96616708854998,2026-01-25 15h00.26.264346 +0530,
,Objects\045a.jpg,113,0,114,,,,,,,j,2.1322018999999273,0.2720239999998739,None,,,,,,114,0,113,549.6510942000004,,,,,,,,,,,,,,,,,,,,,,,549.6351782000002,549.6510942000004,,550.1352827999999,,,,,,,,,,,,,,,,,,,,,,,,,,550.1447403000002,550.1519690000005,550.1519690000005,550.1519690000005,,,,553.1353631000002,j,2.1322018999999273,0.2720239999998739,553.1355650000005,553.1356483,None,,,,,,,,,,,,,,00053,001,2026-01-25_14h59.52.341,MST_task,2024.2.0,59.96616708854998,2026-01-25 15h00.26.264346 +0530,
,Objects\038a.jpg,114,0,115,,,,,,,None,,,f,0.057038000000829925,None,,,,115,0,114,553.1516398999993,,,,,,,,,,,,,,,,,,,,,,,553.1360327999992,553.1516398999993,553.6516976999992,553.6351233000005,,,,,,,,,,,,,,,,,,,,,,,,,,553.6431500999988,553.6516976999992,553.6516976999992,553.6516976999992,556.6516281000004,556.6516281000004,556.6516281000004,556.6362073,None,,,556.6363904999998,556.7189505999995,f,556.6516281000004,556.6516281000004,0.057038000000829925,None,,,,,,,,,,00053,001,2026-01-25_14h59.52.341,MST_task,2024.2.0,59.96616708854998,2026-01-25 15h00.26.264346 +0530,
,Objects\019a.jpg,115,0,116,,,,,,,f,1.8733437999999296,0.2792883999991318,None,,,,,,116,0,115,556.7350521999997,,,,,,,,,,,,,,,,,,,,,,,556.7195004000005,556.7350521999997,,557.2193382000005,,,,,,,,,,,,,,,,,,,,,,,,,,557.2280821999993,557.2353131,557.2353131,557.2353131,560.2348683,560.2348683,560.2348683,560.2194405999999,f,1.8733437999999296,0.2792883999991318,560.2196313999993,560.2196903999993,None,,,,,,,,,,,,,,00053,001,2026-01-25_14h59.52.341,MST_task,2024.2.0,59.96616708854998,2026-01-25 15h00.26.264346 +0530,
,Objects\142a.jpg,116,0,117,,,,,,,f,2.021267699999953,0.3039917999994941,None,,,,,,117,0,116,560.2348683,,,,,,,,,,,,,,,,,,,,,,,560.2199701999998,560.2348683,560.7353814999988,560.7188430999995,,,,,,,,,,,,,,,,,,,,,,,,,,560.7278358999993,560.7353814999988,560.7353814999988,560.7353814999988,563.7350250999989,563.7350250999989,563.7350250999989,563.7196598999999,f,2.021267699999953,0.3039917999994941,563.7198564999999,563.7199153000001,None,,,,,,,,,,,,,,00053,001,2026-01-25_14h59.52.341,MST_task,2024.2.0,59.96616708854998,2026-01-25 15h00.26.264346 +0530,
,Objects\188a.jpg,117,0,118,,,,,,,f,2.9294785000001866,None,None,,,,,,118,0,117,563.7350250999989,,,,,,,,,,,,,,,,,,,,,,,563.7202976999997,563.7350250999989,564.2352025,564.218517199999,,,,,,,,,,,,,,,,,,,,,,,,,,564.2240517999999,564.2352025,564.2352025,564.2352025,567.2350843000004,567.2350843000004,567.2350843000004,567.2193098999996,f,2.9294785000001866,None,567.2195124999998,567.2195711999993,None,,,,,,,,,,,,,,00053,001,2026-01-25_14h59.52.341,MST_task,2024.2.0,59.96616708854998,2026-01-25 15h00.26.264346 +0530,
,Objects\173a.jpg,118,0,119,,,,,,,f,1.6561159000011685,0.19137149999914982,None,,,,,,119,0,118,567.2350843000004,,,,,,,,,,,,,,,,,,,,,,,567.2199495999994,567.2350843000004,567.7405846000001,567.7195563999994,,,,,,,,,,,,,,,,,,,,,,,,,,567.7382975,567.7405846000001,567.7405846000001,567.7405846000001,,,,570.7354376000003,f,1.6561159000011685,0.19137149999914982,570.7356390999994,570.7357032,None,,,,,,,,,,,,,,00053,001,2026-01-25_14h59.52.341,MST_task,2024.2.0,59.96616708854998,2026-01-25 15h00.26.264346 +0530,
,Scenes\122a.jpg,119,0,120,,,,,,,f,2.9045274000000063,None,None,,,,,,120,0,119,570.7516833999998,,,,,,,,,,,,,,,,,,,,,,,570.736065699999,570.7516833999998,571.2521613999997,571.2354495,,,,,,,,,,,,,,,,,,,,,,,,,,571.2495144000004,571.2521613999997,571.2521613999997,571.2521613999997,574.251698,574.251698,574.251698,574.2356421999993,f,2.9045274000000063,None,574.2357085000003,574.2357250000005,None,,,,,,,,,,,,,,00053,001,2026-01-25_14h59.52.341,MST_task,2024.2.0,59.96616708854998,2026-01-25 15h00.26.264346 +0530,
,Scenes\141a.jpg,120,0,121,,,,,,,j,2.227182200000243,0.2952470000000176,None,,,,,,121,0,120,574.251698,,,,,,,,,,,,,,,,,,,,,,,574.2358377,574.251698,574.7534925999989,574.7355564999998,,,,,,,,,,,,,,,,,,,,,,,,,,574.750742799999,574.7534925999989,574.7534925999989,574.7534925999989,,,,577.7520930999999,j,2.227182200000243,0.2952470000000176,577.7522994999999,577.7523671999988,None,,,,,,,,,,,,,,00053,001,2026-01-25_14h59.52.341,MST_task,2024.2.0,59.96616708854998,2026-01-25 15h00.26.264346 +0530,
,Scenes\031a.jpg,121,0,122,,,,,,,None,,,f,3.0950405999992654,None,,,,122,0,121,577.7684164999991,,,,,,,,,,,,,,,,,,,,,,,577.7527513999994,577.7684164999991,578.2706484999999,578.2520760999996,,,,,,,,,,,,,,,,,,,,,,,,,,578.2676855999998,578.2706484999999,578.2706484999999,578.2706484999999,,,,581.2688173999995,None,,,581.2690167000001,584.3856133999998,f,581.2850818999996,581.2850818999996,3.0950405999992654,None,,,,,,,,,,00053,001,2026-01-25_14h59.52.341,MST_task,2024.2.0,59.96616708854998,2026-01-25 15h00.26.264346 +0530,
,Scenes\025a.jpg,122,0,123,,,,,,,j,1.7004460000007384,0.30434389999936684,None,,,,,,123,0,122,584.4016654999996,,,,,,,,,,,,,,,,,,,,,,,584.3861016999999,584.4016654999996,584.9118758999994,584.8854750999999,,,,,,,,,,,,,,,,,,,,,,,,,,584.9088620999992,584.9118758999994,584.9118758999994,584.9118758999994,,,,587.9020712000001,j,1.7004460000007384,0.30434389999936684,587.9022712999995,587.9023379999999,None,,,,,,,,,,,,,,00053,001,2026-01-25_14h59.52.341,MST_task,2024.2.0,59.96616708854998,2026-01-25 15h00.26.264346 +0530,
,Scenes\165a.jpg,123,0,124,,,,,,,None,,,j,0.497926500000176,None,,,,124,0,123,587.9184399000005,,,,,,,,,,,,,,,,,,,,,,,587.9026328,587.9184399000005,588.4267483000003,588.4020693000002,,,,,,,,,,,,,,,,,,,,,,,,,,588.4237100999999,588.4267483000003,588.4267483000003,588.4267483000003,,,,591.4184662999996,None,,,591.4186479,591.9354977999992,j,591.4347796999991,591.4347796999991,0.497926500000176,None,,,,,,,,,,00053,001,2026-01-25_14h59.52.341,MST_task,2024.2.0,59.96616708854998,2026-01-25 15h00.26.264346 +0530,
,Scenes\044a.jpg,124,0,125,,,,,,,j,2.4304043000011006,0.2563427999994019,None,,,,,,125,0,124,591.9516053999996,,,,,,,,,,,,,,,,,,,,,,,591.9358649000005,591.9516053999996,592.4539497999995,592.4355235000003,,,,,,,,,,,,,,,,,,,,,,,,,,592.451248899999,592.4539497999995,592.4539497999995,592.4539497999995,,,,595.4519474999997,j,2.4304043000011006,0.2563427999994019,595.4521640000003,595.4522357999995,None,,,,,,,,,,,,,,00053,001,2026-01-25_14h59.52.341,MST_task,2024.2.0,59.96616708854998,2026-01-25 15h00.26.264346 +0530,
,Scenes\180a.jpg,125,0,126,,,,,,,j,1.6984728000006726,0.31192919999921287,None,,,,,,126,0,125,595.4682914000005,,,,,,,,,,,,,,,,,,,,,,,595.4525727,595.4682914000005,595.9697135999995,595.9521208999995,,,,,,,,,,,,,,,,,,,,,,,,,,595.9673999999995,595.9697135999995,595.9697135999995,595.9697135999995,,,,598.968859999999,j,1.6984728000006726,0.31192919999921287,598.9690640999997,598.9691303999989,None,,,,,,,,,,,,,,00053,001,2026-01-25_14h59.52.341,MST_task,2024.2.0,59.96616708854998,2026-01-25 15h00.26.264346 +0530,
,Objects\005a.jpg,126,0,127,,,,,,,f,2.4712464999993244,0.2717286000006425,None,,,,,,127,0,126,598.9848695000001,,,,,,,,,,,,,,,,,,,,,,,598.9694297999995,598.9848695000001,599.4854603999993,599.4689068999996,,,,,,,,,,,,,,,,,,,,,,,,,,599.4810450999994,599.4854603999993,599.4854603999993,599.4854603999993,602.4851154999997,602.4851154999997,602.4851154999997,602.4696741999996,f,2.4712464999993244,0.2717286000006425,602.469890299999,602.4699502000003,None,,,,,,,,,,,,,,00053,001,2026-01-25_14h59.52.341,MST_task,2024.2.0,59.96616708854998,2026-01-25 15h00.26.264346 +0530,
,Objects\060a.jpg,127,0,128,,,,,,,f,2.291300599999886,0.3033099000003858,None,,,,,,128,0,127,602.4851154999997,,,,,,,,,,,,,,,,,,,,,,,602.4703356999999,602.4851154999997,602.9854051000002,602.968854499999,,,,,,,,,,,,,,,,,,,,,,,,,,602.9756495999991,602.9854051000002,602.9854051000002,602.9854051000002,605.9851022000003,605.9851022000003,605.9851022000003,605.9695978999989,f,2.291300599999886,0.3033099000003858,605.9697909999995,605.9698482000003,None,,,,,,,,,,,,,,00053,001,2026-01-25_14h59.52.341,MST_task,2024.2.0,59.96616708854998,2026-01-25 15h00.26.264346 +0530,
,Objects\028a.jpg,128,0,129,,,,,,,f,1.9424634000006336,0.32066219999978784,None,,,,,,129,0,128,605.9851022000003,,,,,,,,,,,,,,,,,,,,,,,605.9701413999992,605.9851022000003,606.4935459999997,606.468881499999,,,,,,,,,,,,,,,,,,,,,,,,,,606.4912862000001,606.4935459999997,606.4935459999997,606.4935459999997,,,,609.4855119999993,f,1.9424634000006336,0.32066219999978784,609.4857114999995,609.4857747000005,None,,,,,,,,,,,,,,00053,001,2026-01-25_14h59.52.341,MST_task,2024.2.0,59.96616708854998,2026-01-25 15h00.26.264346 +0530,
,Objects\170a.jpg,129,0,130,,,,,,,f,1.946053600000596,0.2880015999999159,None,,,,,,130,0,129,609.5025261999999,,,,,,,,,,,,,,,,,,,,,,,609.4861447000003,609.5025261999999,610.0019381999991,609.9855673000002,,,,,,,,,,,,,,,,,,,,,,,,,,609.9948707000003,610.0019381999991,610.0019381999991,610.0019381999991,613.0017202999989,613.0017202999989,613.0017202999989,612.9862405999993,f,1.946053600000596,0.2880015999999159,612.9864485999988,612.9865121000003,None,,,,,,,,,,,,,,00053,001,2026-01-25_14h59.52.341,MST_task,2024.2.0,59.96616708854998,2026-01-25 15h00.26.264346 +0530,
,Objects\181a.jpg,130,0,131,,,,,,,j,1.446042399998987,0.2878063000007387,None,,,,,,131,0,130,613.0017202999989,,,,,,,,,,,,,,,,,,,,,,,612.986836099999,613.0017202999989,613.5021500000003,613.4855663999988,,,,,,,,,,,,,,,,,,,,,,,,,,613.4947630999995,613.5021500000003,613.5021500000003,613.5021500000003,616.5017776000004,616.5017776000004,616.5017776000004,616.4863071,j,1.446042399998987,0.2878063000007387,616.4865099999988,616.4865706,None,,,,,,,,,,,,,,00053,001,2026-01-25_14h59.52.341,MST_task,2024.2.0,59.96616708854998,2026-01-25 15h00.26.264346 +0530,
,Objects\177a.jpg,131,0,132,,,,,,,j,1.930104900000515,0.21596239999962563,None,,,,,,132,0,131,616.5017776000004,,,,,,,,,,,,,,,,,,,,,,,616.4868657999996,616.5017776000004,617.0019451999997,616.9853526999996,,,,,,,,,,,,,,,,,,,,,,,,,,616.9943518,617.0019451999997,617.0019451999997,617.0019451999997,620.0017212000002,620.0017212000002,620.0017212000002,619.986291199999,j,1.930104900000515,0.21596239999962563,619.9864908,619.9865494999995,None,,,,,,,,,,,,,,00053,001,2026-01-25_14h59.52.341,MST_task,2024.2.0,59.96616708854998,2026-01-25 15h00.26.264346 +0530,
,Objects\159a.jpg,132,0,133,,,,,,,f,2.6860398999997415,0.24827250000089407,None,,,,,,133,0,132,620.0017212000002,,,,,,,,,,,,,,,,,,,,,,,619.9869282,620.0017212000002,620.5019842999991,620.4854670000004,,,,,,,,,,,,,,,,,,,,,,,,,,620.4941546999999,620.5019842999991,620.5019842999991,620.5019842999991,623.5016646000004,623.5016646000004,623.5016646000004,623.4863363000004,f,2.6860398999997415,0.24827250000089407,623.4865324999992,623.4865941999997,None,,,,,,,,,,,,,,00053,001,2026-01-25_14h59.52.341,MST_task,2024.2.0,59.96616708854998,2026-01-25 15h00.26.264346 +0530,
,Scenes\175a.jpg,133,0,134,,,,,,,j,1.6896475000012288,0.24066969999876164,None,,,,,,134,0,133,623.5016646000004,,,,,,,,,,,,,,,,,,,,,,,623.4869915999989,623.5016646000004,624.0023641999996,623.9855093999995,,,,,,,,,,,,,,,,,,,,,,,,,,623.9971704999989,624.0023641999996,624.0023641999996,624.0023641999996,627.0017649000001,627.0017649000001,627.0017649000001,626.9865083000004,j,1.6896475000012288,0.24066969999876164,626.9867226999995,626.9868002000003,None,,,,,,,,,,,,,,00053,001,2026-01-25_14h59.52.341,MST_task,2024.2.0,59.96616708854998,2026-01-25 15h00.26.264346 +0530,
,Scenes\093a.jpg,134,0,135,,,,,,,f,2.378562599998986,0.17600990000028105,None,,,,,,135,0,134,627.0017649000001,,,,,,,,,,,,,,,,,,,,,,,626.9871089999997,627.0017649000001,627.5055522000002,627.4855201999999,,,,,,,,,,,,,,,,,,,,,,,,,,627.5027353999994,627.5055522000002,627.5055522000002,627.5055522000002,,,,630.5021125000003,f,2.378562599998986,0.17600990000028105,630.5023146999993,630.5023796000005,None,,,,,,,,,,,,,,00053,001,2026-01-25_14h59.52.341,MST_task,2024.2.0,59.96616708854998,2026-01-25 15h00.26.264346 +0530,
,Scenes\078a.jpg,135,0,136,,,,,,,j,1.7932366999993974,0.19195960000070045,None,,,,,,136,0,135,630.5184853999999,,,,,,,,,,,,,,,,,,,,,,,630.5027470000005,630.5184853999999,631.0188258999988,631.0021032000004,,,,,,,,,,,,,,,,,,,,,,,,,,631.0152916999996,631.0188258999988,631.0188258999988,631.0188258999988,634.0183966000004,634.0183966000004,634.0183966000004,634.0028246999991,j,1.7932366999993974,0.19195960000070045,634.0030164,634.0030778,None,,,,,,,,,,,,,,00053,001,2026-01-25_14h59.52.341,MST_task,2024.2.0,59.96616708854998,2026-01-25 15h00.26.264346 +0530,
,Scenes\103a.jpg,136,0,137,,,,,,,None,,,j,0.1253166999995301,None,,,,137,0,136,634.0183966000004,,,,,,,,,,,,,,,,,,,,,,,634.0034563999998,634.0183966000004,634.5248372999995,634.5020540000005,,,,,,,,,,,,,,,,,,,,,,,,,,634.5215270999997,634.5248372999995,634.5248372999995,634.5248372999995,,,,637.5189030000001,None,,,637.5190977000002,637.6690034000003,j,637.5350144999993,637.5350144999993,0.1253166999995301,None,,,,,,,,,,00053,001,2026-01-25_14h59.52.341,MST_task,2024.2.0,59.96616708854998,2026-01-25 15h00.26.264346 +0530,
,Scenes\068a.jpg,137,0,138,,,,,,,j,2.186631099999431,0.19335769999997865,None,,,,,,138,0,137,637.684912499999,,,,,,,,,,,,,,,,,,,,,,,637.6694590999996,637.684912499999,638.1855586999991,638.1685440000001,,,,,,,,,,,,,,,,,,,,,,,,,,638.1819304,638.1855586999991,638.1855586999991,638.1855586999991,641.185136099999,641.185136099999,641.185136099999,641.1696646,j,2.186631099999431,0.19335769999997865,641.1698787000005,641.1699394999996,None,,,,,,,,,,,,,,00053,001,2026-01-25_14h59.52.341,MST_task,2024.2.0,59.96616708854998,2026-01-25 15h00.26.264346 +0530,
,Scenes\029a.jpg,138,0,139,,,,,,,j,1.7773659999984375,0.22389560000010533,None,,,,,,139,0,138,641.185136099999,,,,,,,,,,,,,,,,,,,,,,,641.1703163999991,641.185136099999,641.690824199999,641.6686104,,,,,,,,,,,,,,,,,,,,,,,,,,641.6880048000003,641.690824199999,641.690824199999,641.690824199999,,,,644.6855687999996,j,1.7773659999984375,0.22389560000010533,644.6857805999989,644.6858455999991,None,,,,,,,,,,,,,,00053,001,2026-01-25_14h59.52.341,MST_task,2024.2.0,59.96616708854998,2026-01-25 15h00.26.264346 +0530,
,Scenes\168a.jpg,139,0,140,,,,,,,j,2.00827930000014,0.26445330000024114,None,,,,,,140,0,139,644.7017328000002,,,,,,,,,,,,,,,,,,,,,,,644.6862215000001,644.7017328000002,645.211736199999,645.1855310999999,,,,,,,,,,,,,,,,,,,,,,,,,,645.2083416999994,645.211736199999,645.211736199999,645.211736199999,,,,648.2021403999988,j,2.00827930000014,0.26445330000024114,648.2023494000005,648.2024134999992,None,,,,,,,,,,,,,,00053,001,2026-01-25_14h59.52.341,MST_task,2024.2.0,59.96616708854998,2026-01-25 15h00.26.264346 +0530,
,Objects\123a.jpg,140,0,141,,,,,,,j,2.1417223000007652,0.24799009999878763,None,,,,,,141,0,140,648.2185064000005,,,,,,,,,,,,,,,,,,,,,,,648.2027153999989,648.2185064000005,648.7189662000001,648.7023181000004,,,,,,,,,,,,,,,,,,,,,,,,,,648.7134023999988,648.7189662000001,648.7189662000001,648.7189662000001,651.7192611999999,651.7192611999999,651.7192611999999,651.7028286000004,j,2.1417223000007652,0.24799009999878763,651.7030255999998,651.7030861999992,None,,,,,,,,,,,,,,00053,001,2026-01-25_14h59.52.341,MST_task,2024.2.0,59.96616708854998,2026-01-25 15h00.26.264346 +0530,
,Objects\147a.jpg,141,0,142,,,,,,,f,2.1852505000006204,0.2639689999996335,None,,,,,,142,0,141,651.7192611999999,,,,,,,,,,,,,,,,,,,,,,,651.7033701,651.7192611999999,652.2274672000003,652.202158099999,,,,,,,,,,,,,,,,,,,,,,,,,,652.2247621999995,652.2274672000003,652.2274672000003,652.2274672000003,,,,655.2188765999999,f,2.1852505000006204,0.2639689999996335,655.2190742000003,655.2191371999998,None,,,,,,,,,,,,,,00053,001,2026-01-25_14h59.52.341,MST_task,2024.2.0,59.96616708854998,2026-01-25 15h00.26.264346 +0530,
,Objects\046a.jpg,142,0,143,,,,,,,f,2.4452770999996574,0.1914773000007699,None,,,,,,143,0,142,655.2352147999991,,,,,,,,,,,,,,,,,,,,,,,655.2194261000004,655.2352147999991,655.7354032000003,655.7189003000003,,,,,,,,,,,,,,,,,,,,,,,,,,655.7275570000002,655.7354032000003,655.7354032000003,655.7354032000003,658.7350516999995,658.7350516999995,658.7350516999995,658.7197319999996,f,2.4452770999996574,0.1914773000007699,658.7199307999999,658.7199904999998,None,,,,,,,,,,,,,,00053,001,2026-01-25_14h59.52.341,MST_task,2024.2.0,59.96616708854998,2026-01-25 15h00.26.264346 +0530,
,Objects\115a.jpg,143,0,144,,,,,,,f,1.621758500001306,0.21658669999851554,None,,,,,,144,0,143,658.7350516999995,,,,,,,,,,,,,,,,,,,,,,,658.7202877999989,658.7350516999995,659.2383809000003,659.2188569999998,,,,,,,,,,,,,,,,,,,,,,,,,,659.2360319,659.2383809000003,659.2383809000003,659.2383809000003,,,,662.2355924999993,f,1.621758500001306,0.21658669999851554,662.2358007000003,662.2358654999989,None,,,,,,,,,,,,,,00053,001,2026-01-25_14h59.52.341,MST_task,2024.2.0,59.96616708854998,2026-01-25 15h00.26.264346 +0530,
,Objects\085a.jpg,144,0,145,,,,,,,j,2.044572700000572,0.19999250000000757,None,,,,,,145,0,144,662.2517399999997,,,,,,,,,,,,,,,,,,,,,,,662.2362476999988,662.2517399999997,662.7515253999991,662.7357360000005,,,,,,,,,,,,,,,,,,,,,,,,,,662.7451789999996,662.7515253999991,662.7515253999991,662.7515253999991,665.7517835999988,665.7517835999988,665.7517835999988,665.7364373,j,2.044572700000572,0.19999250000000757,665.736644999999,665.7367044999992,None,,,,,,,,,,,,,,00053,001,2026-01-25_14h59.52.341,MST_task,2024.2.0,59.96616708854998,2026-01-25 15h00.26.264346 +0530,
,Objects\148a.jpg,145,0,146,,,,,,,f,2.9359739999999874,None,None,,,,,,146,0,145,665.7517835999988,,,,,,,,,,,,,,,,,,,,,,,665.7370922999999,665.7517835999988,666.2520114999988,666.2355888999991,,,,,,,,,,,,,,,,,,,,,,,,,,666.2413465999998,666.2520114999988,666.2520114999988,666.2520114999988,669.2514403999994,669.2514403999994,669.2514403999994,669.2358206999997,f,2.9359739999999874,None,669.2359462000004,669.2359813000003,None,,,,,,,,,,,,,,00053,001,2026-01-25_14h59.52.341,MST_task,2024.2.0,59.96616708854998,2026-01-25 15h00.26.264346 +0530,
,Objects\057a.jpg,146,0,147,,,,,,,f,1.5724469999986468,0.2800641000012547,None,,,,,,147,0,146,669.2514403999994,,,,,,,,,,,,,,,,,,,,,,,669.2361562999995,669.2514403999994,669.7517938000001,669.7352747999994,,,,,,,,,,,,,,,,,,,,,,,,,,669.7440621000005,669.7517938000001,669.7517938000001,669.7517938000001,,,,672.7365957999991,f,1.5724469999986468,0.2800641000012547,672.7367990999992,672.7368821,None,,,,,,,,,,,,,,00053,001,2026-01-25_14h59.52.341,MST_task,2024.2.0,59.96616708854998,2026-01-25 15h00.26.264346 +0530,
,Scenes\050a.jpg,147,0,148,,,,,,,j,1.7522879000007379,0.2398838999997679,None,,,,,,148,0,147,672.751376799999,,,,,,,,,,,,,,,,,,,,,,,672.7371712000004,672.751376799999,673.2598751000005,673.2354121999997,,,,,,,,,,,,,,,,,,,,,,,,,,673.2573369999991,673.2598751000005,673.2598751000005,673.2598751000005,,,,676.2521579000004,j,1.7522879000007379,0.2398838999997679,676.2523633000001,676.2524288000004,None,,,,,,,,,,,,,,00053,001,2026-01-25_14h59.52.341,MST_task,2024.2.0,59.96616708854998,2026-01-25 15h00.26.264346 +0530,
,Scenes\118a.jpg,148,0,149,,,,,,,j,1.9377361000006204,0.22438320000037493,None,,,,,,149,0,148,676.2684107999994,,,,,,,,,,,,,,,,,,,,,,,676.2527962999993,676.2684107999994,676.7706123999997,676.7519675000003,,,,,,,,,,,,,,,,,,,,,,,,,,676.7679943000003,676.7706123999997,676.7706123999997,676.7706123999997,,,,679.7688675999998,j,1.9377361000006204,0.22438320000037493,679.7690782999998,679.7691436999994,None,,,,,,,,,,,,,,00053,001,2026-01-25_14h59.52.341,MST_task,2024.2.0,59.96616708854998,2026-01-25 15h00.26.264346 +0530,
,Scenes\080a.jpg,149,0,150,,,,,,,j,1.9816666999995505,0.3124487000004592,None,,,,,,150,0,149,679.7849989999995,,,,,,,,,,,,,,,,,,,,,,,679.7695368999994,679.7849989999995,680.2864210999996,680.2689190000001,,,,,,,,,,,,,,,,,,,,,,,,,,680.2838174999997,680.2864210999996,680.2864210999996,680.2864210999996,,,,683.2860287999993,j,1.9816666999995505,0.3124487000004592,683.2862480999993,683.286313999999,None,,,,,,,,,,,,,,00053,001,2026-01-25_14h59.52.341,MST_task,2024.2.0,59.96616708854998,2026-01-25 15h00.26.264346 +0530,
,Scenes\125a.jpg,150,0,151,,,,,,,j,1.7431992000001628,0.28774779999912425,None,,,,,,151,0,150,683.3018047000005,,,,,,,,,,,,,,,,,,,,,,,683.2866876999997,683.3018047000005,683.8134472000002,683.7853531000001,,,,,,,,,,,,,,,,,,,,,,,,,,683.8107304000005,683.8134472000002,683.8134472000002,683.8134472000002,,,,686.8021403999992,j,1.7431992000001628,0.28774779999912425,686.8023426,686.8024083,None,,,,,,,,,,,,,,00053,001,2026-01-25_14h59.52.341,MST_task,2024.2.0,59.96616708854998,2026-01-25 15h00.26.264346 +0530,
,Scenes\006a.jpg,151,0,152,,,,,,,j,2.3018420999997034,0.28028529999937746,None,,,,,,152,0,151,686.8184131999988,,,,,,,,,,,,,,,,,,,,,,,686.8027695000001,686.8184131999988,687.3341822000002,687.3022268000004,,,,,,,,,,,,,,,,,,,,,,,,,,687.3312222999994,687.3341822000002,687.3341822000002,687.3341822000002,,,,690.3188993999993,j,2.3018420999997034,0.28028529999937746,690.3191169999991,690.3191898000005,None,,,,,,,,,,,,,,00053,001,2026-01-25_14h59.52.341,MST_task,2024.2.0,59.96616708854998,2026-01-25 15h00.26.264346 +0530,
,Scenes\179a.jpg,152,0,153,,,,,,,j,2.002665899999556,0.3040584000009403,None,,,,,,153,0,152,690.3352049999994,,,,,,,,,,,,,,,,,,,,,,,690.3195149000003,690.3352049999994,690.8495082999998,690.8189232999994,,,,,,,,,,,,,,,,,,,,,,,,,,690.8467951000002,690.8495082999998,690.8495082999998,690.8495082999998,,,,693.8365175999988,j,2.002665899999556,0.3040584000009403,693.8367258999988,693.8367914999999,None,,,,,,,,,,,,,,00053,001,2026-01-25_14h59.52.341,MST_task,2024.2.0,59.96616708854998,2026-01-25 15h00.26.264346 +0530,
,Scenes\082a.jpg,153,0,154,,,,,,,f,1.894477600000755,0.2885387999995146,None,,,,,,154,0,153,693.8518456000002,,,,,,,,,,,,,,,,,,,,,,,693.8370859999995,693.8518456000002,694.3577079999995,694.3353852,,,,,,,,,,,,,,,,,,,,,,,,,,694.3547536999995,694.3577079999995,694.3577079999995,694.3577079999995,,,,697.3522374000004,f,1.894477600000755,0.2885387999995146,697.3524407000004,697.352504299999,None,,,,,,,,,,,,,,00053,001,2026-01-25_14h59.52.341,MST_task,2024.2.0,59.96616708854998,2026-01-25 15h00.26.264346 +0530,
,Objects\062a.jpg,154,0,155,,,,,,,f,2.15943150000021,0.31173949999902106,None,,,,,,155,0,154,697.3686161999995,,,,,,,,,,,,,,,,,,,,,,,697.3529313999989,697.3686161999995,697.8688796999995,697.8513841000004,,,,,,,,,,,,,,,,,,,,,,,,,,697.8589515000003,697.8688796999995,697.8688796999995,697.8688796999995,700.8685425000003,700.8685425000003,700.8685425000003,700.8529595,f,2.15943150000021,0.31173949999902106,700.8531592999989,700.8532180999991,None,,,,,,,,,,,,,,00053,001,2026-01-25_14h59.52.341,MST_task,2024.2.0,59.96616708854998,2026-01-25 15h00.26.264346 +0530,
,Objects\093a.jpg,155,0,156,,,,,,,j,1.7559262000013405,0.3113011999994342,None,,,,,,156,0,155,700.8685425000003,,,,,,,,,,,,,,,,,,,,,,,700.8535353999996,700.8685425000003,701.3687935999988,701.3521906000005,,,,,,,,,,,,,,,,,,,,,,,,,,701.361576199999,701.3687935999988,701.3687935999988,701.3687935999988,704.3682286000003,704.3682286000003,704.3682286000003,704.3533195999989,j,1.7559262000013405,0.3113011999994342,704.3535369000001,704.3535971999991,None,,,,,,,,,,,,,,00053,001,2026-01-25_14h59.52.341,MST_task,2024.2.0,59.96616708854998,2026-01-25 15h00.26.264346 +0530,
,Objects\039a.jpg,156,0,157,,,,,,,j,1.9515905000007479,0.23236100000031001,None,,,,,,157,0,156,704.3682286000003,,,,,,,,,,,,,,,,,,,,,,,704.3538852999991,704.3682286000003,704.8684422999995,704.8524937999991,,,,,,,,,,,,,,,,,,,,,,,,,,704.8624865000002,704.8684422999995,704.8684422999995,704.8684422999995,707.8689285,707.8689285,707.8689285,707.8528019000005,j,1.9515905000007479,0.23236100000031001,707.8529975000001,707.8530560999989,None,,,,,,,,,,,,,,00053,001,2026-01-25_14h59.52.341,MST_task,2024.2.0,59.96616708854998,2026-01-25 15h00.26.264346 +0530,
,Objects\121a.jpg,157,0,158,,,,,,,j,2.761963299999479,None,None,,,,,,158,0,157,707.8689285,,,,,,,,,,,,,,,,,,,,,,,707.8534311999992,707.8689285,708.3782945000003,708.352004299999,,,,,,,,,,,,,,,,,,,,,,,,,,708.3754541999988,708.3782945000003,708.3782945000003,708.3782945000003,,,,711.3687910999997,j,2.761963299999479,None,711.3689906999989,711.369054499999,None,,,,,,,,,,,,,,00053,001,2026-01-25_14h59.52.341,MST_task,2024.2.0,59.96616708854998,2026-01-25 15h00.26.264346 +0530,
,Objects\076a.jpg,158,0,159,,,,,,,j,2.3188429000001634,0.22473119999995106,None,,,,,,159,0,158,711.3852430999996,,,,,,,,,,,,,,,,,,,,,,,711.3693442999993,711.3852430999996,711.8851216999992,711.8692183999992,,,,,,,,,,,,,,,,,,,,,,,,,,711.8773344000001,711.8851216999992,711.8851216999992,711.8851216999992,714.8852193999992,714.8852193999992,714.8852193999992,714.8697245000003,j,2.3188429000001634,0.22473119999995106,714.8699185999994,714.8699766999998,None,,,,,,,,,,,,,,00053,001,2026-01-25_14h59.52.341,MST_task,2024.2.0,59.96616708854998,2026-01-25 15h00.26.264346 +0530,
,Objects\160a.jpg,159,0,160,,,,,,,j,2.4272188000013557,0.2319721000003483,None,,,,,,160,0,159,714.8852193999992,,,,,,,,,,,,,,,,,,,,,,,714.870363,714.8852193999992,715.3854900999995,715.3689486000003,,,,,,,,,,,,,,,,,,,,,,,,,,715.3774720000001,715.3854900999995,715.3854900999995,715.3854900999995,718.3849812999997,718.3849812999997,718.3849812999997,718.3697331000003,j,2.4272188000013557,0.2319721000003483,718.3699276999996,718.3699876999999,None,,,,,,,,,,,,,,00053,001,2026-01-25_14h59.52.341,MST_task,2024.2.0,59.96616708854998,2026-01-25 15h00.26.264346 +0530,
,Objects\098a.jpg,160,0,161,,,,,,,f,1.9505093000007037,0.256670299999314,None,,,,,,161,0,160,718.3849812999997,,,,,,,,,,,,,,,,,,,,,,,718.3702702999999,718.3849812999997,718.8855058999998,718.868983299999,,,,,,,,,,,,,,,,,,,,,,,,,,718.8776486999996,718.8855058999998,718.8855058999998,718.8855058999998,721.8852430999996,721.8852430999996,721.8852430999996,721.8697494999997,f,1.9505093000007037,0.256670299999314,721.8699416999989,721.8700018,None,,,,,,,,,,,,,,00053,001,2026-01-25_14h59.52.341,MST_task,2024.2.0,59.96616708854998,2026-01-25 15h00.26.264346 +0530,
,Scenes\143a.jpg,161,0,162,,,,,,,j,1.73585809999895,0.3037660000009055,None,,,,,,162,0,161,721.8852430999996,,,,,,,,,,,,,,,,,,,,,,,721.8703797999988,721.8852430999996,722.3890966999988,722.3690155999993,,,,,,,,,,,,,,,,,,,,,,,,,,722.3861381999996,722.3890966999988,722.3890966999988,722.3890966999988,,,,725.3854336000004,j,1.73585809999895,0.3037660000009055,725.3856364999992,725.3857021999993,None,,,,,,,,,,,,,,00053,001,2026-01-25_14h59.52.341,MST_task,2024.2.0,59.96616708854998,2026-01-25 15h00.26.264346 +0530,
,Scenes\181a.jpg,162,0,163,,,,,,,f,1.7223458999997092,0.33664429999953427,None,,,,,,163,0,162,725.4018295000005,,,,,,,,,,,,,,,,,,,,,,,725.3860681000006,725.4018295000005,725.9057529000002,725.8856514999989,,,,,,,,,,,,,,,,,,,,,,,,,,725.9030261999997,725.9057529000002,725.9057529000002,725.9057529000002,,,,728.9020075999997,f,1.7223458999997092,0.33664429999953427,728.9022155999992,728.9022853999995,None,,,,,,,,,,,,,,00053,001,2026-01-25_14h59.52.341,MST_task,2024.2.0,59.96616708854998,2026-01-25 15h00.26.264346 +0530,
,Scenes\123a.jpg,163,0,164,,,,,,,None,,,j,3.441685099998722,None,,,,164,0,163,728.9185902999998,,,,,,,,,,,,,,,,,,,,,,,728.9026015999989,728.9185902999998,729.4256406999993,729.4021104000003,,,,,,,,,,,,,,,,,,,,,,,,,,729.4228827999996,729.4256406999993,729.4256406999993,729.4256406999993,,,,732.4187999999995,None,,,732.4189824000005,735.8857515999989,j,732.435016899999,732.435016899999,3.441685099998722,None,,,,,,,,,,00053,001,2026-01-25_14h59.52.341,MST_task,2024.2.0,59.96616708854998,2026-01-25 15h00.26.264346 +0530,
,Scenes\083a.jpg,164,0,165,,,,,,,j,0.8627785999997286,0.3445692000004783,None,,,,,,165,0,164,735.9018429999996,,,,,,,,,,,,,,,,,,,,,,,735.8862128000001,735.9018429999996,736.4053669000004,736.3854699000003,,,,,,,,,,,,,,,,,,,,,,,,,,736.4025968999995,736.4053669000004,736.4053669000004,736.4053669000004,,,,739.4021381999992,j,0.8627785999997286,0.3445692000004783,739.402338599999,739.4024066999991,None,,,,,,,,,,,,,,00053,001,2026-01-25_14h59.52.341,MST_task,2024.2.0,59.96616708854998,2026-01-25 15h00.26.264346 +0530,
,Scenes\039a.jpg,165,0,166,,,,,,,j,2.1097411000009743,0.2557901000000129,None,,,,,,166,0,165,739.4185749999997,,,,,,,,,,,,,,,,,,,,,,,739.4027800999993,739.4185749999997,739.9189422999989,739.9020777000005,,,,,,,,,,,,,,,,,,,,,,,,,,739.9135891999995,739.9189422999989,739.9189422999989,739.9189422999989,742.9185887999993,742.9185887999993,742.9185887999993,742.9030382000001,j,2.1097411000009743,0.2557901000000129,742.9032354999999,742.9032950000001,None,,,,,,,,,,,,,,00053,001,2026-01-25_14h59.52.341,MST_task,2024.2.0,59.96616708854998,2026-01-25 15h00.26.264346 +0530,
,Scenes\086a.jpg,166,0,167,,,,,,,j,1.9652679999999236,0.2641488000008394,None,,,,,,167,0,166,742.9185887999993,,,,,,,,,,,,,,,,,,,,,,,742.9036727999992,742.9185887999993,743.4227955999995,743.4021121000005,,,,,,,,,,,,,,,,,,,,,,,,,,743.4200500999996,743.4227955999995,743.4227955999995,743.4227955999995,,,,746.4186979000006,j,1.9652679999999236,0.2641488000008394,746.4188973,746.4189628000004,None,,,,,,,,,,,,,,00053,001,2026-01-25_14h59.52.341,MST_task,2024.2.0,59.96616708854998,2026-01-25 15h00.26.264346 +0530,
,Scenes\046a.jpg,167,0,168,,,,,,,j,2.4711401000004116,0.24802180000006047,None,,,,,,168,0,167,746.4352749999998,,,,,,,,,,,,,,,,,,,,,,,746.419254299999,746.4352749999998,746.9415991999995,746.9187791000004,,,,,,,,,,,,,,,,,,,,,,,,,,746.9387366999999,746.9415991999995,746.9415991999995,746.9415991999995,,,,749.9353852000004,j,2.4711401000004116,0.24802180000006047,749.9356059999991,749.9356716000002,None,,,,,,,,,,,,,,00053,001,2026-01-25_14h59.52.341,MST_task,2024.2.0,59.96616708854998,2026-01-25 15h00.26.264346 +0530,
