thisN,thisTrialN,thisRepN,key_resp_3.keys,key_resp_3.rt,key_resp_3.duration,trials.thisRepN,trials.thisTrialN,trials.thisN,thisRow.t,notes,intro_page.started,text.started,key_resp.started,intro_page.stopped,key_resp.keys,key_resp.rt,key_resp.duration,instructions.started,text_2.started,key_resp_2.started,instructions.stopped,key_resp_2.keys,key_resp_2.rt,key_resp_2.duration,demo1.started,image_1.started,image_2.started,text_7.started,key_resp_6.started,text_9.started,demo1.stopped,key_resp_6.keys,key_resp_6.rt,key_resp_6.duration,demo2.started,image_5.started,image_6.started,text_11.started,text_12.started,key_resp_8.started,demo2.stopped,key_resp_8.keys,key_resp_8.rt,key_resp_8.duration,demo_conclusion.started,text_13.started,key_resp_9.started,demo_conclusion.stopped,key_resp_9.keys,key_resp_9.rt,key_resp_9.duration,start_test.started,text_6.started,key_resp_5.started,start_test.stopped,key_resp_5.keys,key_resp_5.rt,key_resp_5.duration,ISI.started,text_4.started,text_4.stopped,ISI.stopped,routine_1.started,image.started,text_3.started,key_resp_3.started,routine_1.stopped,image_path,position_of_stimuli,trials.key_resp_3.keys,trials.key_resp_3.rt,trials.key_resp_3.duration,End_page.started,text_5.started,key_resp_4.started,End_page.stopped,key_resp_4.keys,key_resp_4.rt,key_resp_4.duration,participant,session,date,expName,psychopyVersion,frameRate,expStart,
,,,,,,,,,,,0.001805500010959804,0.003870900021865964,0.003870900021865964,2.5425779999932274,space,2.486764800036326,None,,,,,,,,,,,,,,,,,,,,,,,,,,,,,,,,,,,,,,,,,,,,,,,,,,,,,,,,,,,,,,,00018,001,2025-11-21_17h08.33.541,MST_test,2024.2.0,59.97264048951357,2025-11-21 17h08.42.074837 +0530,
,,,,,,,,,,,,,,,,,,2.5426206000265665,2.551256100006867,2.551256100006867,11.830540199996904,space,9.267486900032964,None,,,,,,,,,,,,,,,,,,,,,,,,,,,,,,,,,,,,,,,,,,,,,,,,,,,,,,,,00018,001,2025-11-21_17h08.33.541,MST_test,2024.2.0,59.97264048951357,2025-11-21 17h08.42.074837 +0530,
,,,,,,,,,,,,,,,,,,,,,,,,,11.830662799999118,11.847894000005908,11.847894000005908,11.847894000005908,11.847894000005908,11.847894000005908,17.530859899998177,space,5.674654299975373,None,,,,,,,,,,,,,,,,,,,,,,,,,,,,,,,,,,,,,,,,,,,,,,00018,001,2025-11-21_17h08.33.541,MST_test,2024.2.0,59.97264048951357,2025-11-21 17h08.42.074837 +0530,
,,,,,,,,,,,,,,,,,,,,,,,,,,,,,,,,,,,17.530984700017143,17.545335400034674,17.545335400034674,17.545335400034674,17.545335400034674,17.545335400034674,22.397831200039946,space,4.849832099978812,None,,,,,,,,,,,,,,,,,,,,,,,,,,,,,,,,,,,,00018,001,2025-11-21_17h08.33.541,MST_test,2024.2.0,59.97264048951357,2025-11-21 17h08.42.074837 +0530,
,,,,,,,,,,,,,,,,,,,,,,,,,,,,,,,,,,,,,,,,,,,,,22.397939199989196,22.41142309998395,22.41142309998395,43.51365450001322,space,21.095491099986248,None,,,,,,,,,,,,,,,,,,,,,,,,,,,,,00018,001,2025-11-21_17h08.33.541,MST_test,2024.2.0,59.97264048951357,2025-11-21 17h08.42.074837 +0530,
,,,,,,,,,,,,,,,,,,,,,,,,,,,,,,,,,,,,,,,,,,,,,,,,,,,,43.51377710001543,43.528188100026455,43.528188100026455,83.9468777999864,space,40.402586699987296,None,,,,,,,,,,,,,,,,,,,,,,00018,001,2025-11-21_17h08.33.541,MST_test,2024.2.0,59.97264048951357,2025-11-21 17h08.42.074837 +0530,
0,0,1,o,5.579896799987182,None,1,0,0,83.96118220000062,,,,,,,,,,,,,,,,,,,,,,,,,,,,,,,,,,,,,,,,,,,,,,,,,,83.95605239999713,83.96118220000062,84.47042880003573,84.44602979999036,84.46760340000037,84.47042880003573,84.47042880003573,84.47042880003573,90.06408450001618,Objects\043a.jpg,mid,o,5.579896799987182,None,,,,,,,,00018,001,2025-11-21_17h08.33.541,MST_test,2024.2.0,59.97264048951357,2025-11-21 17h08.42.074837 +0530,
1,0,2,n,2.3551233000471257,None,2,0,1,90.0782497000182,,,,,,,,,,,,,,,,,,,,,,,,,,,,,,,,,,,,,,,,,,,,,,,,,,90.06447520002257,90.0782497000182,90.58380190003663,90.56281339999987,90.58122450002702,90.58380190003663,90.58380190003663,90.58380190003663,92.94667320000008,Foils\105a.jpg,none,n,2.3551233000471257,None,,,,,,,,00018,001,2025-11-21_17h08.33.541,MST_test,2024.2.0,59.97264048951357,2025-11-21 17h08.42.074837 +0530,
2,0,3,o,1.8881892000208609,None,3,0,2,92.96156860003248,,,,,,,,,,,,,,,,,,,,,,,,,,,,,,,,,,,,,,,,,,,,,,,,,,92.94702680001501,92.96156860003248,93.46626170002855,93.44599849998485,93.46347060002154,93.46626170002855,93.46626170002855,93.46626170002855,95.36391780001577,Objects\078a.jpg,mid,o,1.8881892000208609,None,,,,,,,,00018,001,2025-11-21_17h08.33.541,MST_test,2024.2.0,59.97264048951357,2025-11-21 17h08.42.074837 +0530,
3,0,4,s,3.9218060999992304,None,4,0,3,95.37829459999921,,,,,,,,,,,,,,,,,,,,,,,,,,,,,,,,,,,,,,,,,,,,,,,,,,95.36434580001514,95.37829459999921,95.88823610002873,95.86274270003196,95.88516479998361,95.88823610002873,95.88823610002873,95.88823610002873,99.81418570003007,Scenes\106a.jpg,mid,s,3.9218060999992304,None,,,,,,,,00018,001,2025-11-21_17h08.33.541,MST_test,2024.2.0,59.97264048951357,2025-11-21 17h08.42.074837 +0530,
4,0,5,n,2.3336895999964327,None,5,0,4,99.82834270002786,,,,,,,,,,,,,,,,,,,,,,,,,,,,,,,,,,,,,,,,,,,,,,,,,,99.81457079999382,99.82834270002786,100.34039289999055,100.31248610001057,100.33733320003375,100.34039289999055,100.34039289999055,100.34039289999055,102.68054969998775,Scenes\028b.jpg,pre,n,2.3336895999964327,None,,,,,,,,00018,001,2025-11-21_17h08.33.541,MST_test,2024.2.0,59.97264048951357,2025-11-21 17h08.42.074837 +0530,
5,0,6,s,4.2172928000218235,None,6,0,5,102.69474679999985,,,,,,,,,,,,,,,,,,,,,,,,,,,,,,,,,,,,,,,,,,,,,,,,,,102.68089499999769,102.69474679999985,103.20089849998476,103.17965689999983,103.19848240003921,103.20089849998476,103.20089849998476,103.20089849998476,107.4308378000278,Foils\scenes13.jpg,none,s,4.2172928000218235,None,,,,,,,,00018,001,2025-11-21_17h08.33.541,MST_test,2024.2.0,59.97264048951357,2025-11-21 17h08.42.074837 +0530,
6,0,7,o,2.007094500004314,None,7,0,6,107.44479340000544,,,,,,,,,,,,,,,,,,,,,,,,,,,,,,,,,,,,,,,,,,,,,,,,,,107.43122750002658,107.44479340000544,107.94689080002718,107.92934110003989,107.94429579999996,107.94689080002718,107.94689080002718,107.94689080002718,109.96357020002324,Scenes\036b.jpg,pre,o,2.007094500004314,None,,,,,,,,00018,001,2025-11-21_17h08.33.541,MST_test,2024.2.0,59.97264048951357,2025-11-21 17h08.42.074837 +0530,
7,0,8,o,1.5453880000277422,None,8,0,7,109.97809849999612,,,,,,,,,,,,,,,,,,,,,,,,,,,,,,,,,,,,,,,,,,,,,,,,,,109.96392230002675,109.97809849999612,110.48098230001051,110.46242629998596,110.47825749998447,110.48098230001051,110.48098230001051,110.48098230001051,112.03066610003589,Objects\059a.jpg,post,o,1.5453880000277422,None,,,,,,,,00018,001,2025-11-21_17h08.33.541,MST_test,2024.2.0,59.97264048951357,2025-11-21 17h08.42.074837 +0530,
8,0,9,o,1.9081248000147752,None,9,0,8,112.04463449999457,,,,,,,,,,,,,,,,,,,,,,,,,,,,,,,,,,,,,,,,,,,,,,,,,,112.03104810003424,112.04463449999457,112.55002999998396,112.52905230002943,112.54691080003977,112.55002999998396,112.55002999998396,112.55002999998396,114.46378460002597,Scenes\152a.jpg,post,o,1.9081248000147752,None,,,,,,,,00018,001,2025-11-21_17h08.33.541,MST_test,2024.2.0,59.97264048951357,2025-11-21 17h08.42.074837 +0530,
9,0,10,s,7.406530800042674,None,10,0,9,114.47811480000382,,,,,,,,,,,,,,,,,,,,,,,,,,,,,,,,,,,,,,,,,,,,,,,,,,114.46410740003921,114.47811480000382,114.98772209999152,114.96276820002822,114.98475110001164,114.98772209999152,114.98772209999152,114.98772209999152,122.39725360000739,Scenes\105a.jpg,mid,s,7.406530800042674,None,,,,,,,,00018,001,2025-11-21_17h08.33.541,MST_test,2024.2.0,59.97264048951357,2025-11-21 17h08.42.074837 +0530,
10,0,11,s,4.425510499975644,None,11,0,10,122.41147600003751,,,,,,,,,,,,,,,,,,,,,,,,,,,,,,,,,,,,,,,,,,,,,,,,,,122.39759970002342,122.41147600003751,122.91314290004084,122.8958918999997,122.91014510003151,122.91314290004084,122.91314290004084,122.91314290004084,127.3470735999872,Objects\069b.jpg,pre,s,4.425510499975644,None,,,,,,,,00018,001,2025-11-21_17h08.33.541,MST_test,2024.2.0,59.97264048951357,2025-11-21 17h08.42.074837 +0530,
11,0,12,s,2.8070189999998547,None,12,0,11,127.36138010001741,,,,,,,,,,,,,,,,,,,,,,,,,,,,,,,,,,,,,,,,,,,,,,,,,,127.34746339998674,127.36138010001741,127.86783110001124,127.84581740002614,127.86489450000226,127.86783110001124,127.86783110001124,127.86783110001124,130.68030700000236,Scenes\143b.jpg,mid,s,2.8070189999998547,None,,,,,,,,00018,001,2025-11-21_17h08.33.541,MST_test,2024.2.0,59.97264048951357,2025-11-21 17h08.42.074837 +0530,
12,0,13,n,1.5809918000013568,None,13,0,12,130.6946222000406,,,,,,,,,,,,,,,,,,,,,,,,,,,,,,,,,,,,,,,,,,,,,,,,,,130.68063620000612,130.6946222000406,131.19742670003325,131.1790239000111,131.19463650003308,131.19742670003325,131.19742670003325,131.19742670003325,132.7801005000365,Foils\scenes6.jpg,none,n,1.5809918000013568,None,,,,,,,,00018,001,2025-11-21_17h08.33.541,MST_test,2024.2.0,59.97264048951357,2025-11-21 17h08.42.074837 +0530,
13,0,14,s,5.557141400000546,None,14,0,13,132.79465130000608,,,,,,,,,,,,,,,,,,,,,,,,,,,,,,,,,,,,,,,,,,,,,,,,,,132.7803445000318,132.79465130000608,133.30190299998503,133.27941550000105,133.29899229999864,133.30190299998503,133.30190299998503,133.30190299998503,138.86413280002307,Scenes\126b.jpg,pre,s,5.557141400000546,None,,,,,,,,00018,001,2025-11-21_17h08.33.541,MST_test,2024.2.0,59.97264048951357,2025-11-21 17h08.42.074837 +0530,
14,0,15,n,2.0559935999917798,None,15,0,14,138.87809700000798,,,,,,,,,,,,,,,,,,,,,,,,,,,,,,,,,,,,,,,,,,,,,,,,,,138.8645374000189,138.87809700000798,139.38671190000605,139.3626021000091,139.38373120001052,139.38671190000605,139.38671190000605,139.38671190000605,141.44732730003307,Foils\scenes27.jpg,none,n,2.0559935999917798,None,,,,,,,,00018,001,2025-11-21_17h08.33.541,MST_test,2024.2.0,59.97264048951357,2025-11-21 17h08.42.074837 +0530,
15,0,16,o,1.5717663000104949,None,16,0,15,141.46150510001462,,,,,,,,,,,,,,,,,,,,,,,,,,,,,,,,,,,,,,,,,,,,,,,,,,141.44770090002567,141.46150510001462,141.96665650000796,141.94644949998474,141.96380610001506,141.96665650000796,141.96665650000796,141.96665650000796,143.54717740003252,Objects\142b.jpg,post,o,1.5717663000104949,None,,,,,,,,00018,001,2025-11-21_17h08.33.541,MST_test,2024.2.0,59.97264048951357,2025-11-21 17h08.42.074837 +0530,
16,0,17,n,4.456919599964749,None,17,0,16,143.56139759998769,,,,,,,,,,,,,,,,,,,,,,,,,,,,,,,,,,,,,,,,,,,,,,,,,,143.5475676000351,143.56139759998769,144.06576870003482,144.04604350001318,144.063329000026,144.06576870003482,144.06576870003482,144.06576870003482,148.52954130002763,Foils\049a.jpg,none,n,4.456919599964749,None,,,,,,,,00018,001,2025-11-21_17h08.33.541,MST_test,2024.2.0,59.97264048951357,2025-11-21 17h08.42.074837 +0530,
17,0,18,s,1.9551238999702036,None,18,0,17,148.54453830001876,,,,,,,,,,,,,,,,,,,,,,,,,,,,,,,,,,,,,,,,,,,,,,,,,,148.5296405000263,148.54453830001876,149.05558049998945,149.02929630002473,149.0525398000027,149.05558049998945,149.05558049998945,149.05558049998945,151.01379390002694,Scenes\082a.jpg,mid,s,1.9551238999702036,None,,,,,,,,00018,001,2025-11-21_17h08.33.541,MST_test,2024.2.0,59.97264048951357,2025-11-21 17h08.42.074837 +0530,
18,0,19,s,4.519018599996343,None,19,0,18,151.02810920000775,,,,,,,,,,,,,,,,,,,,,,,,,,,,,,,,,,,,,,,,,,,,,,,,,,151.01409770001192,151.02810920000775,151.53985520004062,151.51276850001886,151.53674290003255,151.53985520004062,151.53985520004062,151.53985520004062,156.06381110002985,Scenes\060b.jpg,post,s,4.519018599996343,None,,,,,,,,00018,001,2025-11-21_17h08.33.541,MST_test,2024.2.0,59.97264048951357,2025-11-21 17h08.42.074837 +0530,
19,0,20,o,1.7030484999995679,None,20,0,19,156.0781219000346,,,,,,,,,,,,,,,,,,,,,,,,,,,,,,,,,,,,,,,,,,,,,,,,,,156.06421700003557,156.0781219000346,156.57933360000607,156.56274930003565,156.57632719998946,156.57933360000607,156.57933360000607,156.57933360000607,158.29730590002146,Objects\051a.jpg,mid,o,1.7030484999995679,None,,,,,,,,00018,001,2025-11-21_17h08.33.541,MST_test,2024.2.0,59.97264048951357,2025-11-21 17h08.42.074837 +0530,
20,0,21,n,2.3486242999788374,None,21,0,20,158.31153230002383,,,,,,,,,,,,,,,,,,,,,,,,,,,,,,,,,,,,,,,,,,,,,,,,,,158.29771910002455,158.31153230002383,158.81419860001188,158.79575759998988,158.8118452000199,158.81419860001188,158.81419860001188,158.81419860001188,161.17992070002947,Foils\018a.jpg,none,n,2.3486242999788374,None,,,,,,,,00018,001,2025-11-21_17h08.33.541,MST_test,2024.2.0,59.97264048951357,2025-11-21 17h08.42.074837 +0530,
21,0,22,o,1.8678263000329025,None,22,0,21,161.19474649999756,,,,,,,,,,,,,,,,,,,,,,,,,,,,,,,,,,,,,,,,,,,,,,,,,,161.18031600001268,161.19474649999756,161.703131199989,161.67922009999165,161.70027120003942,161.703131199989,161.703131199989,161.703131199989,163.5795651000226,Scenes\005a.jpg,mid,o,1.8678263000329025,None,,,,,,,,00018,001,2025-11-21_17h08.33.541,MST_test,2024.2.0,59.97264048951357,2025-11-21 17h08.42.074837 +0530,
22,0,23,s,2.1591008999967016,None,23,0,22,163.59457489999477,,,,,,,,,,,,,,,,,,,,,,,,,,,,,,,,,,,,,,,,,,,,,,,,,,163.57980890001636,163.59457489999477,164.10719130001962,164.0795516000362,164.10409189999336,164.10719130001962,164.10719130001962,164.10719130001962,166.28034480003407,Scenes\120b.jpg,mid,s,2.1591008999967016,None,,,,,,,,00018,001,2025-11-21_17h08.33.541,MST_test,2024.2.0,59.97264048951357,2025-11-21 17h08.42.074837 +0530,
23,0,24,s,1.96493219997501,None,24,0,23,166.2946959999972,,,,,,,,,,,,,,,,,,,,,,,,,,,,,,,,,,,,,,,,,,,,,,,,,,166.28066180000314,166.2946959999972,166.80546360003063,166.77898860001005,166.80218100000639,166.80546360003063,166.80546360003063,166.80546360003063,168.77937330002896,Scenes\038b.jpg,post,s,1.96493219997501,None,,,,,,,,00018,001,2025-11-21_17h08.33.541,MST_test,2024.2.0,59.97264048951357,2025-11-21 17h08.42.074837 +0530,
24,0,25,s,0.9774516000179574,None,25,0,24,168.7944787000306,,,,,,,,,,,,,,,,,,,,,,,,,,,,,,,,,,,,,,,,,,,,,,,,,,168.77948299999116,168.7944787000306,169.30474490002962,169.27928970003268,169.30111470003612,169.30474490002962,169.30474490002962,169.30474490002962,170.2970150000183,Scenes\068a.jpg,pre,s,0.9774516000179574,None,,,,,,,,00018,001,2025-11-21_17h08.33.541,MST_test,2024.2.0,59.97264048951357,2025-11-21 17h08.42.074837 +0530,
25,0,26,s,2.4147555000381544,None,26,0,25,170.31142480002018,,,,,,,,,,,,,,,,,,,,,,,,,,,,,,,,,,,,,,,,,,,,,,,,,,170.2973411999992,170.31142480002018,170.81998269999167,170.79581149999285,170.81703999999445,170.81998269999167,170.81998269999167,170.81998269999167,173.24669930001255,Objects\072b.jpg,mid,s,2.4147555000381544,None,,,,,,,,00018,001,2025-11-21_17h08.33.541,MST_test,2024.2.0,59.97264048951357,2025-11-21 17h08.42.074837 +0530,
26,0,27,o,1.6723666000179946,None,27,0,26,173.26188080001157,,,,,,,,,,,,,,,,,,,,,,,,,,,,,,,,,,,,,,,,,,,,,,,,,,173.24703020002926,173.26188080001157,173.76165749999927,173.7460168999969,173.75246210000478,173.76165749999927,173.76165749999927,173.76165749999927,175.4465862000361,Objects\065a.jpg,post,o,1.6723666000179946,None,,,,,,,,00018,001,2025-11-21_17h08.33.541,MST_test,2024.2.0,59.97264048951357,2025-11-21 17h08.42.074837 +0530,
27,0,28,s,2.6324175999616273,None,28,0,27,175.46152419998543,,,,,,,,,,,,,,,,,,,,,,,,,,,,,,,,,,,,,,,,,,,,,,,,,,175.44694540003547,175.46152419998543,175.97102609998547,175.9457613999839,175.9681658000336,175.97102609998547,175.97102609998547,175.97102609998547,178.61371270002564,Scenes\186a.jpg,mid,s,2.6324175999616273,None,,,,,,,,00018,001,2025-11-21_17h08.33.541,MST_test,2024.2.0,59.97264048951357,2025-11-21 17h08.42.074837 +0530,
28,0,29,s,2.2567163999774493,None,29,0,28,178.6280760000227,,,,,,,,,,,,,,,,,,,,,,,,,,,,,,,,,,,,,,,,,,,,,,,,,,178.61405040003592,178.6280760000227,179.12936100002844,179.1126735000289,179.12641279998934,179.12936100002844,179.12936100002844,179.12936100002844,181.39724570000544,Objects\112b.jpg,pre,s,2.2567163999774493,None,,,,,,,,00018,001,2025-11-21_17h08.33.541,MST_test,2024.2.0,59.97264048951357,2025-11-21 17h08.42.074837 +0530,
29,0,30,s,1.7770009000087157,None,30,0,29,181.41169780003838,,,,,,,,,,,,,,,,,,,,,,,,,,,,,,,,,,,,,,,,,,,,,,,,,,181.3976510000066,181.41169780003838,181.91315780003788,181.89608139998745,181.91091360000428,181.91315780003788,181.91315780003788,181.91315780003788,183.69734350004,Objects\002b.jpg,mid,s,1.7770009000087157,None,,,,,,,,00018,001,2025-11-21_17h08.33.541,MST_test,2024.2.0,59.97264048951357,2025-11-21 17h08.42.074837 +0530,
30,0,31,s,3.061984600033611,None,31,0,30,183.71159090002766,,,,,,,,,,,,,,,,,,,,,,,,,,,,,,,,,,,,,,,,,,,,,,,,,,183.69775480002863,183.71159090002766,184.22026450000703,184.1959270000225,184.21732190001057,184.22026450000703,184.22026450000703,184.22026450000703,187.29729630000656,Scenes\182b.jpg,pre,s,3.061984600033611,None,,,,,,,,00018,001,2025-11-21_17h08.33.541,MST_test,2024.2.0,59.97264048951357,2025-11-21 17h08.42.074837 +0530,
31,0,32,o,1.5097431999747641,None,32,0,31,187.3116615000181,,,,,,,,,,,,,,,,,,,,,,,,,,,,,,,,,,,,,,,,,,,,,,,,,,187.29768720001448,187.3116615000181,187.81223600002704,187.79620079998858,187.80318099999567,187.81223600002704,187.81223600002704,187.81223600002704,189.33035509998444,Objects\063a.jpg,pre,o,1.5097431999747641,None,,,,,,,,00018,001,2025-11-21_17h08.33.541,MST_test,2024.2.0,59.97264048951357,2025-11-21 17h08.42.074837 +0530,
32,0,33,s,3.026573400013149,None,33,0,32,189.3455800000229,,,,,,,,,,,,,,,,,,,,,,,,,,,,,,,,,,,,,,,,,,,,,,,,,,189.33074489998398,189.3455800000229,189.84782930003712,189.8291404999909,189.8455924000009,189.84782930003712,189.84782930003712,189.84782930003712,192.88057239999762,Objects\018b.jpg,mid,s,3.026573400013149,None,,,,,,,,00018,001,2025-11-21_17h08.33.541,MST_test,2024.2.0,59.97264048951357,2025-11-21 17h08.42.074837 +0530,
33,0,34,o,1.4392980000120588,None,34,0,33,192.89489619998494,,,,,,,,,,,,,,,,,,,,,,,,,,,,,,,,,,,,,,,,,,,,,,,,,,192.88097850000486,192.89489619998494,193.39549219998298,193.37921149999602,193.3928789999918,193.39549219998298,193.39549219998298,193.39549219998298,194.84720680001192,Objects\016a.jpg,pre,o,1.4392980000120588,None,,,,,,,,00018,001,2025-11-21_17h08.33.541,MST_test,2024.2.0,59.97264048951357,2025-11-21 17h08.42.074837 +0530,
34,0,35,o,5.2047927000094205,None,35,0,34,194.86148040002445,,,,,,,,,,,,,,,,,,,,,,,,,,,,,,,,,,,,,,,,,,,,,,,,,,194.84760390000883,194.86148040002445,195.37336189998314,195.34600570000475,195.3704751000041,195.37336189998314,195.37336189998314,195.37336189998314,200.580805900041,Scenes\029a.jpg,post,o,5.2047927000094205,None,,,,,,,,00018,001,2025-11-21_17h08.33.541,MST_test,2024.2.0,59.97264048951357,2025-11-21 17h08.42.074837 +0530,
35,0,36,o,3.657857000012882,None,36,0,35,200.5947879999876,,,,,,,,,,,,,,,,,,,,,,,,,,,,,,,,,,,,,,,,,,,,,,,,,,200.5811379000079,200.5947879999876,201.09715180000057,201.0795576000237,201.0942544999998,201.09715180000057,201.09715180000057,201.09715180000057,204.76426730002277,Objects\104a.jpg,post,o,3.657857000012882,None,,,,,,,,00018,001,2025-11-21_17h08.33.541,MST_test,2024.2.0,59.97264048951357,2025-11-21 17h08.42.074837 +0530,
36,0,37,s,1.7161244999733754,None,37,0,36,204.778003000014,,,,,,,,,,,,,,,,,,,,,,,,,,,,,,,,,,,,,,,,,,,,,,,,,,204.76463560003322,204.778003000014,205.2869645000319,205.26252099999692,205.2843384000007,205.2869645000319,205.2869645000319,205.2869645000319,207.0138222000096,Objects\075b.jpg,pre,s,1.7161244999733754,None,,,,,,,,00018,001,2025-11-21_17h08.33.541,MST_test,2024.2.0,59.97264048951357,2025-11-21 17h08.42.074837 +0530,
37,0,38,s,1.6082334999809973,None,38,0,37,207.02831120003248,,,,,,,,,,,,,,,,,,,,,,,,,,,,,,,,,,,,,,,,,,,,,,,,,,207.01418940001167,207.02831120003248,207.53015980002237,207.51289579999866,207.52763190004043,207.53015980002237,207.53015980002237,207.53015980002237,209.1470197000308,Objects\134b.jpg,pre,s,1.6082334999809973,None,,,,,,,,00018,001,2025-11-21_17h08.33.541,MST_test,2024.2.0,59.97264048951357,2025-11-21 17h08.42.074837 +0530,
38,0,39,n,1.2906348999822512,None,39,0,38,209.16149349999614,,,,,,,,,,,,,,,,,,,,,,,,,,,,,,,,,,,,,,,,,,,,,,,,,,209.14734790002694,209.16149349999614,209.6637663000147,209.64572900003986,209.66139560000738,209.6637663000147,209.6637663000147,209.6637663000147,210.9641169999959,Foils\074a.jpg,none,n,1.2906348999822512,None,,,,,,,,00018,001,2025-11-21_17h08.33.541,MST_test,2024.2.0,59.97264048951357,2025-11-21 17h08.42.074837 +0530,
39,0,40,n,1.5264567999984138,None,40,0,39,210.97812490002252,,,,,,,,,,,,,,,,,,,,,,,,,,,,,,,,,,,,,,,,,,,,,,,,,,210.96450709999772,210.97812490002252,211.48417489998974,211.4628518000245,211.48119040002348,211.48417489998974,211.48417489998974,211.48417489998974,213.01401759998407,Scenes\007b.jpg,post,n,1.5264567999984138,None,,,,,,,,00018,001,2025-11-21_17h08.33.541,MST_test,2024.2.0,59.97264048951357,2025-11-21 17h08.42.074837 +0530,
40,0,41,o,1.9012347999960184,None,41,0,40,213.0284397000214,,,,,,,,,,,,,,,,,,,,,,,,,,,,,,,,,,,,,,,,,,,,,,,,,,213.01443929999368,213.0284397000214,213.5329056000337,213.51256280002417,213.52987860003486,213.5329056000337,213.5329056000337,213.5329056000337,215.44738279999,Objects\122a.jpg,mid,o,1.9012347999960184,None,,,,,,,,00018,001,2025-11-21_17h08.33.541,MST_test,2024.2.0,59.97264048951357,2025-11-21 17h08.42.074837 +0530,
41,0,42,n,1.2485053000273183,None,42,0,41,215.46139609999955,,,,,,,,,,,,,,,,,,,,,,,,,,,,,,,,,,,,,,,,,,,,,,,,,,215.4477595000062,215.46139609999955,215.96213739999803,215.94608230004087,215.95577679999406,215.96213739999803,215.96213739999803,215.96213739999803,217.21383150003385,Foils\scenes14.jpg,none,n,1.2485053000273183,None,,,,,,,,00018,001,2025-11-21_17h08.33.541,MST_test,2024.2.0,59.97264048951357,2025-11-21 17h08.42.074837 +0530,
42,0,43,n,1.7053092999849468,None,43,0,42,217.22817010001745,,,,,,,,,,,,,,,,,,,,,,,,,,,,,,,,,,,,,,,,,,,,,,,,,,217.21422850003,217.22817010001745,217.73686020000605,217.7128235999844,217.73415899998508,217.73686020000605,217.73686020000605,217.73686020000605,219.4470506000216,Scenes\166b.jpg,post,n,1.7053092999849468,None,,,,,,,,00018,001,2025-11-21_17h08.33.541,MST_test,2024.2.0,59.97264048951357,2025-11-21 17h08.42.074837 +0530,
43,0,44,s,1.3630162000190467,None,44,0,43,219.46145440003602,,,,,,,,,,,,,,,,,,,,,,,,,,,,,,,,,,,,,,,,,,,,,,,,,,219.44741500000237,219.46145440003602,219.96720350004034,219.94592740002554,219.96387289999984,219.96720350004034,219.96720350004034,219.96720350004034,221.3471115999855,Objects\167b.jpg,post,s,1.3630162000190467,None,,,,,,,,00018,001,2025-11-21_17h08.33.541,MST_test,2024.2.0,59.97264048951357,2025-11-21 17h08.42.074837 +0530,
44,0,45,s,2.5988461999804713,None,45,0,44,221.36164270003792,,,,,,,,,,,,,,,,,,,,,,,,,,,,,,,,,,,,,,,,,,,,,,,,,,221.34745800000383,221.36164270003792,221.86776039999677,221.84575610002503,221.865108900005,221.86776039999677,221.86776039999677,221.86776039999677,224.48053130001063,Objects\137b.jpg,pre,s,2.5988461999804713,None,,,,,,,,00018,001,2025-11-21_17h08.33.541,MST_test,2024.2.0,59.97264048951357,2025-11-21 17h08.42.074837 +0530,
45,0,46,n,1.2161444000084884,None,46,0,45,224.49466620001476,,,,,,,,,,,,,,,,,,,,,,,,,,,,,,,,,,,,,,,,,,,,,,,,,,224.48083469999256,224.49466620001476,225.00272220000625,224.97929809999187,224.99985259998357,225.00272220000625,225.00272220000625,225.00272220000625,226.23028990003513,Scenes\168b.jpg,mid,n,1.2161444000084884,None,,,,,,,,00018,001,2025-11-21_17h08.33.541,MST_test,2024.2.0,59.97264048951357,2025-11-21 17h08.42.074837 +0530,
46,0,47,s,1.766290699946694,None,47,0,46,226.2446387000382,,,,,,,,,,,,,,,,,,,,,,,,,,,,,,,,,,,,,,,,,,,,,,,,,,226.23038429999724,226.2446387000382,226.74781010003062,226.72928979998687,226.74500210001133,226.74781010003062,226.74781010003062,226.74781010003062,228.53007239999715,Objects\103b.jpg,mid,s,1.766290699946694,None,,,,,,,,00018,001,2025-11-21_17h08.33.541,MST_test,2024.2.0,59.97264048951357,2025-11-21 17h08.42.074837 +0530,
47,0,48,o,1.372674799989909,None,48,0,47,228.5446523000137,,,,,,,,,,,,,,,,,,,,,,,,,,,,,,,,,,,,,,,,,,,,,,,,,,228.5303447000333,228.5446523000137,229.04645490000257,229.02937800000655,229.04400090000127,229.04645490000257,229.04645490000257,229.04645490000257,230.43061720003607,Objects\166a.jpg,mid,o,1.372674799989909,None,,,,,,,,00018,001,2025-11-21_17h08.33.541,MST_test,2024.2.0,59.97264048951357,2025-11-21 17h08.42.074837 +0530,
48,0,49,o,1.0179671000223607,None,49,0,48,230.44470049999654,,,,,,,,,,,,,,,,,,,,,,,,,,,,,,,,,,,,,,,,,,,,,,,,,,230.43099449999863,230.44470049999654,230.9448698000051,230.9286996999872,230.94115870003588,230.9448698000051,230.9448698000051,230.9448698000051,231.97969870001543,Objects\145a.jpg,mid,o,1.0179671000223607,None,,,,,,,,00018,001,2025-11-21_17h08.33.541,MST_test,2024.2.0,59.97264048951357,2025-11-21 17h08.42.074837 +0530,
49,0,50,n,1.0827645999961533,None,50,0,49,231.99471739999717,,,,,,,,,,,,,,,,,,,,,,,,,,,,,,,,,,,,,,,,,,,,,,,,,,231.98002070002258,231.99471739999717,232.4960308999871,232.4795399000286,232.4936321999994,232.4960308999871,232.4960308999871,232.4960308999871,233.580699299986,Foils\082a.jpg,none,n,1.0827645999961533,None,,,,,,,,00018,001,2025-11-21_17h08.33.541,MST_test,2024.2.0,59.97264048951357,2025-11-21 17h08.42.074837 +0530,
50,0,51,n,2.9540332999895327,None,51,0,50,233.59473559999606,,,,,,,,,,,,,,,,,,,,,,,,,,,,,,,,,,,,,,,,,,,,,,,,,,233.58105460001389,233.59473559999606,234.09616980003193,234.07936700002756,234.09346910001477,234.09616980003193,234.09616980003193,234.09616980003193,237.06400000001304,Foils\scenes19.jpg,none,n,2.9540332999895327,None,,,,,,,,00018,001,2025-11-21_17h08.33.541,MST_test,2024.2.0,59.97264048951357,2025-11-21 17h08.42.074837 +0530,
51,0,52,o,1.9996291999705136,None,52,0,51,237.07821860001422,,,,,,,,,,,,,,,,,,,,,,,,,,,,,,,,,,,,,,,,,,,,,,,,,,237.06438960001105,237.07821860001422,237.57936139998492,237.5626850000117,237.57677270000568,237.57936139998492,237.57936139998492,237.57936139998492,239.58059680002043,Objects\004a.jpg,pre,o,1.9996291999705136,None,,,,,,,,00018,001,2025-11-21_17h08.33.541,MST_test,2024.2.0,59.97264048951357,2025-11-21 17h08.42.074837 +0530,
52,0,53,n,1.2902650000178255,None,53,0,52,239.59454160003224,,,,,,,,,,,,,,,,,,,,,,,,,,,,,,,,,,,,,,,,,,,,,,,,,,239.5809973999858,239.59454160003224,240.0961968000047,240.07914640003582,240.09349060000386,240.0961968000047,240.0961968000047,240.0961968000047,241.3969775000005,Foils\scenes2.jpg,none,n,1.2902650000178255,None,,,,,,,,00018,001,2025-11-21_17h08.33.541,MST_test,2024.2.0,59.97264048951357,2025-11-21 17h08.42.074837 +0530,
53,0,54,s,2.73032830003649,None,54,0,53,241.4115190000157,,,,,,,,,,,,,,,,,,,,,,,,,,,,,,,,,,,,,,,,,,,,,,,,,,241.3972969999886,241.4115190000157,241.91991029999917,241.8960104000289,241.91714830003912,241.91991029999917,241.91991029999917,241.91991029999917,244.6639157999889,Scenes\110b.jpg,post,s,2.73032830003649,None,,,,,,,,00018,001,2025-11-21_17h08.33.541,MST_test,2024.2.0,59.97264048951357,2025-11-21 17h08.42.074837 +0530,
54,0,55,o,7.62658390001161,None,55,0,54,244.67818520002766,,,,,,,,,,,,,,,,,,,,,,,,,,,,,,,,,,,,,,,,,,,,,,,,,,244.66428229998564,244.67818520002766,245.18435280001722,245.1629026000155,245.18124050000915,245.18435280001722,245.18435280001722,245.18435280001722,252.8130710000405,Objects\058b.jpg,pre,o,7.62658390001161,None,,,,,,,,00018,001,2025-11-21_17h08.33.541,MST_test,2024.2.0,59.97264048951357,2025-11-21 17h08.42.074837 +0530,
55,0,56,s,8.970297900028527,None,56,0,55,252.82825379999122,,,,,,,,,,,,,,,,,,,,,,,,,,,,,,,,,,,,,,,,,,,,,,,,,,252.81328080000822,252.82825379999122,253.32838419999462,253.31289050000487,253.32000000000698,253.32838419999462,253.32838419999462,253.32838419999462,262.31405869999435,Objects\041a.jpg,post,s,8.970297900028527,None,,,,,,,,00018,001,2025-11-21_17h08.33.541,MST_test,2024.2.0,59.97264048951357,2025-11-21 17h08.42.074837 +0530,
56,0,57,n,1.2218714999617077,None,57,0,56,262.3282784000039,,,,,,,,,,,,,,,,,,,,,,,,,,,,,,,,,,,,,,,,,,,,,,,,,,262.3144599000225,262.3282784000039,262.8286803000374,262.8126928000129,262.82589899998857,262.8286803000374,262.8286803000374,262.8286803000374,264.06242800003383,Foils\scenes4.jpg,none,n,1.2218714999617077,None,,,,,,,,00018,001,2025-11-21_17h08.33.541,MST_test,2024.2.0,59.97264048951357,2025-11-21 17h08.42.074837 +0530,
57,0,58,s,2.679073100036476,None,58,0,57,264.0782607999863,,,,,,,,,,,,,,,,,,,,,,,,,,,,,,,,,,,,,,,,,,,,,,,,,,264.06258730002446,264.0782607999863,264.59543180000037,264.5625830999925,264.5923899000045,264.59543180000037,264.59543180000037,264.59543180000037,267.2805722000194,Foils\scenes23.jpg,none,s,2.679073100036476,None,,,,,,,,00018,001,2025-11-21_17h08.33.541,MST_test,2024.2.0,59.97264048951357,2025-11-21 17h08.42.074837 +0530,
58,0,59,s,1.5484999000327662,None,59,0,58,267.29470620001666,,,,,,,,,,,,,,,,,,,,,,,,,,,,,,,,,,,,,,,,,,,,,,,,,,267.28099599998677,267.29470620001666,267.7983111999929,267.7791025000042,267.79582759999903,267.7983111999929,267.7983111999929,267.7983111999929,269.3636497000116,Objects\033b.jpg,post,s,1.5484999000327662,None,,,,,,,,00018,001,2025-11-21_17h08.33.541,MST_test,2024.2.0,59.97264048951357,2025-11-21 17h08.42.074837 +0530,
59,0,60,s,3.2431458000210114,None,60,0,59,269.3782144000288,,,,,,,,,,,,,,,,,,,,,,,,,,,,,,,,,,,,,,,,,,,,,,,,,,269.3640112000285,269.3782144000288,269.88717290002387,269.86290050001116,269.8842325999867,269.88717290002387,269.88717290002387,269.88717290002387,273.1470013000071,Scenes\121a.jpg,post,s,3.2431458000210114,None,,,,,,,,00018,001,2025-11-21_17h08.33.541,MST_test,2024.2.0,59.97264048951357,2025-11-21 17h08.42.074837 +0530,
60,0,61,o,1.182162800047081,None,61,0,60,273.1615560000064,,,,,,,,,,,,,,,,,,,,,,,,,,,,,,,,,,,,,,,,,,,,,,,,,,273.1474249000312,273.1615560000064,273.6684176999843,273.64639730000636,273.66552680003224,273.6684176999843,273.6684176999843,273.6684176999843,274.8635304000345,Scenes\080a.jpg,pre,o,1.182162800047081,None,,,,,,,,00018,001,2025-11-21_17h08.33.541,MST_test,2024.2.0,59.97264048951357,2025-11-21 17h08.42.074837 +0530,
61,0,62,o,0.9841551000135951,None,62,0,61,274.87818270002026,,,,,,,,,,,,,,,,,,,,,,,,,,,,,,,,,,,,,,,,,,,,,,,,,,274.8638952000183,274.87818270002026,275.3787694000057,275.3622419000021,275.37559599999804,275.3787694000057,275.3787694000057,275.3787694000057,276.3800190000329,Objects\081a.jpg,post,o,0.9841551000135951,None,,,,,,,,00018,001,2025-11-21_17h08.33.541,MST_test,2024.2.0,59.97264048951357,2025-11-21 17h08.42.074837 +0530,
62,0,63,n,1.149408700002823,None,63,0,62,276.3946850000066,,,,,,,,,,,,,,,,,,,,,,,,,,,,,,,,,,,,,,,,,,,,,,,,,,276.3803715000395,276.3946850000066,276.9009185000323,276.8795914000366,276.8979596000281,276.9009185000323,276.9009185000323,276.9009185000323,278.06346520001534,Scenes\137b.jpg,pre,n,1.149408700002823,None,,,,,,,,00018,001,2025-11-21_17h08.33.541,MST_test,2024.2.0,59.97264048951357,2025-11-21 17h08.42.074837 +0530,
63,0,64,n,4.076563100039493,None,64,0,63,278.0781672000303,,,,,,,,,,,,,,,,,,,,,,,,,,,,,,,,,,,,,,,,,,,,,,,,,,278.0638485000236,278.0781672000303,278.58170999999857,278.56271979998564,278.5787473000237,278.58170999999857,278.58170999999857,278.58170999999857,282.66356740001356,Foils\010a.jpg,none,n,4.076563100039493,None,,,,,,,,00018,001,2025-11-21_17h08.33.541,MST_test,2024.2.0,59.97264048951357,2025-11-21 17h08.42.074837 +0530,
64,0,65,n,4.829526400018949,None,65,0,64,282.6781551000313,,,,,,,,,,,,,,,,,,,,,,,,,,,,,,,,,,,,,,,,,,,,,,,,,,282.6639570000116,282.6781551000313,283.18132640002295,283.1627490000101,283.1789579000324,283.18132640002295,283.18132640002295,283.18132640002295,288.01417680003215,Objects\060b.jpg,post,n,4.829526400018949,None,,,,,,,,00018,001,2025-11-21_17h08.33.541,MST_test,2024.2.0,59.97264048951357,2025-11-21 17h08.42.074837 +0530,
65,0,66,o,3.9209040999994613,None,66,0,65,288.0282123000361,,,,,,,,,,,,,,,,,,,,,,,,,,,,,,,,,,,,,,,,,,,,,,,,,,288.0145765999914,288.0282123000361,288.5377596000326,288.512577800022,288.5349486999912,288.5377596000326,288.5377596000326,288.5377596000326,292.4629421000136,Scenes\104b.jpg,mid,o,3.9209040999994613,None,,,,,,,,00018,001,2025-11-21_17h08.33.541,MST_test,2024.2.0,59.97264048951357,2025-11-21 17h08.42.074837 +0530,
66,0,67,o,1.4455071999691427,None,67,0,66,292.4781831,,,,,,,,,,,,,,,,,,,,,,,,,,,,,,,,,,,,,,,,,,,,,,,,,,292.4631882000249,292.4781831,292.98093040002277,292.9629740000237,292.9779305999982,292.98093040002277,292.98093040002277,292.98093040002277,294.4308097999892,Objects\045b.jpg,pre,o,1.4455071999691427,None,,,,,,,,00018,001,2025-11-21_17h08.33.541,MST_test,2024.2.0,59.97264048951357,2025-11-21 17h08.42.074837 +0530,
67,0,68,o,1.2252972000278533,None,68,0,67,294.44472770002903,,,,,,,,,,,,,,,,,,,,,,,,,,,,,,,,,,,,,,,,,,,,,,,,,,294.4311468999949,294.44472770002903,294.9535848000087,294.9294391000294,294.9507807000191,294.9535848000087,294.9535848000087,294.9535848000087,296.1808781999862,Scenes\133a.jpg,pre,o,1.2252972000278533,None,,,,,,,,00018,001,2025-11-21_17h08.33.541,MST_test,2024.2.0,59.97264048951357,2025-11-21 17h08.42.074837 +0530,
68,0,69,o,1.1144569999887608,None,69,0,68,296.1956832000287,,,,,,,,,,,,,,,,,,,,,,,,,,,,,,,,,,,,,,,,,,,,,,,,,,296.18146719998913,296.1956832000287,296.70430390001275,296.679475300014,296.701385900029,296.70430390001275,296.70430390001275,296.70430390001275,297.8297115000314,Scenes\013a.jpg,post,o,1.1144569999887608,None,,,,,,,,00018,001,2025-11-21_17h08.33.541,MST_test,2024.2.0,59.97264048951357,2025-11-21 17h08.42.074837 +0530,
69,0,70,n,2.9871876999968663,None,70,0,69,297.8445084000123,,,,,,,,,,,,,,,,,,,,,,,,,,,,,,,,,,,,,,,,,,,,,,,,,,297.8299497999833,297.8445084000123,298.35109070001636,298.32948190002935,298.3480522999889,298.35109070001636,298.35109070001636,298.35109070001636,301.3473873999901,Scenes\140b.jpg,post,n,2.9871876999968663,None,,,,,,,,00018,001,2025-11-21_17h08.33.541,MST_test,2024.2.0,59.97264048951357,2025-11-21 17h08.42.074837 +0530,
70,0,71,o,1.300275599991437,None,71,0,70,301.3614715000149,,,,,,,,,,,,,,,,,,,,,,,,,,,,,,,,,,,,,,,,,,,,,,,,,,301.3477504000184,301.3614715000149,301.8622476999881,301.8454905000399,301.8563026000047,301.8622476999881,301.8622476999881,301.8622476999881,303.1644675999996,Objects\084a.jpg,post,o,1.300275599991437,None,,,,,,,,00018,001,2025-11-21_17h08.33.541,MST_test,2024.2.0,59.97264048951357,2025-11-21 17h08.42.074837 +0530,
71,0,72,s,1.3910531000001356,None,72,0,71,303.17823880002834,,,,,,,,,,,,,,,,,,,,,,,,,,,,,,,,,,,,,,,,,,,,,,,,,,303.16494280000916,303.17823880002834,303.683222200023,303.66258190001827,303.6801710000145,303.683222200023,303.683222200023,303.683222200023,305.08023220003815,Scenes\098b.jpg,mid,s,1.3910531000001356,None,,,,,,,,00018,001,2025-11-21_17h08.33.541,MST_test,2024.2.0,59.97264048951357,2025-11-21 17h08.42.074837 +0530,
72,0,73,s,1.9754368000430986,None,73,0,72,305.0947279999964,,,,,,,,,,,,,,,,,,,,,,,,,,,,,,,,,,,,,,,,,,,,,,,,,,305.080555499997,305.0947279999964,305.5953344000154,305.5793709999998,305.58612649998395,305.5953344000154,305.5953344000154,305.5953344000154,307.57985030004056,Objects\180a.jpg,pre,s,1.9754368000430986,None,,,,,,,,00018,001,2025-11-21_17h08.33.541,MST_test,2024.2.0,59.97264048951357,2025-11-21 17h08.42.074837 +0530,
73,0,74,s,4.8035777999903075,None,74,0,73,307.594628699997,,,,,,,,,,,,,,,,,,,,,,,,,,,,,,,,,,,,,,,,,,,,,,,,,,307.58007180003915,307.594628699997,308.09539380000206,308.0781558000017,308.09218720003264,308.09539380000206,308.09539380000206,308.09539380000206,312.91360359999817,Scenes\116b.jpg,post,s,4.8035777999903075,None,,,,,,,,00018,001,2025-11-21_17h08.33.541,MST_test,2024.2.0,59.97264048951357,2025-11-21 17h08.42.074837 +0530,
74,0,75,n,1.4739800000097603,None,75,0,74,312.92825220001396,,,,,,,,,,,,,,,,,,,,,,,,,,,,,,,,,,,,,,,,,,,,,,,,,,312.91390510002384,312.92825220001396,313.44055420003133,313.4129399000085,313.4374319000053,313.44055420003133,313.44055420003133,313.44055420003133,314.93041850003647,Scenes\065b.jpg,mid,n,1.4739800000097603,None,,,,,,,,00018,001,2025-11-21_17h08.33.541,MST_test,2024.2.0,59.97264048951357,2025-11-21 17h08.42.074837 +0530,
75,0,76,o,1.5473357000155374,None,76,0,75,314.9449552000151,,,,,,,,,,,,,,,,,,,,,,,,,,,,,,,,,,,,,,,,,,,,,,,,,,314.93076700001257,314.9449552000151,315.44753609999316,315.4296515000169,315.444454499986,315.44753609999316,315.44753609999316,315.44753609999316,316.99773420003476,Objects\091b.jpg,pre,o,1.5473357000155374,None,,,,,,,,00018,001,2025-11-21_17h08.33.541,MST_test,2024.2.0,59.97264048951357,2025-11-21 17h08.42.074837 +0530,
76,0,77,s,4.712781200010795,None,77,0,76,317.01166459999513,,,,,,,,,,,,,,,,,,,,,,,,,,,,,,,,,,,,,,,,,,,,,,,,,,316.998075600015,317.01166459999513,317.513525700022,317.49613829999,317.51116420002654,317.513525700022,317.513525700022,317.513525700022,322.2306128999917,Objects\061b.jpg,mid,s,4.712781200010795,None,,,,,,,,00018,001,2025-11-21_17h08.33.541,MST_test,2024.2.0,59.97264048951357,2025-11-21 17h08.42.074837 +0530,
77,0,78,s,1.1364694000221789,None,78,0,77,322.2448438000283,,,,,,,,,,,,,,,,,,,,,,,,,,,,,,,,,,,,,,,,,,,,,,,,,,322.23093180003343,322.2448438000283,322.7459660000168,322.7296365000075,322.74355060001835,322.7459660000168,322.7459660000168,322.7459660000168,323.89752380002756,Objects\157b.jpg,pre,s,1.1364694000221789,None,,,,,,,,00018,001,2025-11-21_17h08.33.541,MST_test,2024.2.0,59.97264048951357,2025-11-21 17h08.42.074837 +0530,
78,0,79,s,1.3184397000004537,None,79,0,78,323.9115728000179,,,,,,,,,,,,,,,,,,,,,,,,,,,,,,,,,,,,,,,,,,,,,,,,,,323.8979096999974,323.9115728000179,324.41302229999565,324.3963715999853,324.4104236999992,324.41302229999565,324.41302229999565,324.41302229999565,325.7471779999905,Objects\077b.jpg,post,s,1.3184397000004537,None,,,,,,,,00018,001,2025-11-21_17h08.33.541,MST_test,2024.2.0,59.97264048951357,2025-11-21 17h08.42.074837 +0530,
79,0,80,o,1.9706352000357583,None,80,0,79,325.7615583000006,,,,,,,,,,,,,,,,,,,,,,,,,,,,,,,,,,,,,,,,,,,,,,,,,,325.7475729000289,325.7615583000006,326.2635891000391,326.24617310002213,326.260976199992,326.2635891000391,326.2635891000391,326.2635891000391,328.2474052000325,Objects\164a.jpg,post,o,1.9706352000357583,None,,,,,,,,00018,001,2025-11-21_17h08.33.541,MST_test,2024.2.0,59.97264048951357,2025-11-21 17h08.42.074837 +0530,
80,0,81,n,1.5044503000099212,None,81,0,80,328.2616292000166,,,,,,,,,,,,,,,,,,,,,,,,,,,,,,,,,,,,,,,,,,,,,,,,,,328.24779290001607,328.2616292000166,328.7705788000021,328.7462332000141,328.76760750001995,328.7705788000021,328.7705788000021,328.7705788000021,330.28071479999926,Scenes\192b.jpg,post,n,1.5044503000099212,None,,,,,,,,00018,001,2025-11-21_17h08.33.541,MST_test,2024.2.0,59.97264048951357,2025-11-21 17h08.42.074837 +0530,
81,0,82,o,4.942363900016062,None,82,0,81,330.2948725000024,,,,,,,,,,,,,,,,,,,,,,,,,,,,,,,,,,,,,,,,,,,,,,,,,,330.28106900001876,330.2948725000024,330.79574420000426,330.7791229999857,330.79073609999614,330.79574420000426,330.79574420000426,330.79574420000426,335.74688900000183,Objects\052a.jpg,mid,o,4.942363900016062,None,,,,,,,,00018,001,2025-11-21_17h08.33.541,MST_test,2024.2.0,59.97264048951357,2025-11-21 17h08.42.074837 +0530,
82,0,83,o,2.560950100014452,None,83,0,82,335.76164099999005,,,,,,,,,,,,,,,,,,,,,,,,,,,,,,,,,,,,,,,,,,,,,,,,,,335.74723410001025,335.76164099999005,336.273285400006,336.24605970003176,336.27022170001874,336.273285400006,336.273285400006,336.273285400006,338.84720750001725,Scenes\088a.jpg,mid,o,2.560950100014452,None,,,,,,,,00018,001,2025-11-21_17h08.33.541,MST_test,2024.2.0,59.97264048951357,2025-11-21 17h08.42.074837 +0530,
83,0,84,o,1.3363286999519914,None,84,0,83,338.86155540001346,,,,,,,,,,,,,,,,,,,,,,,,,,,,,,,,,,,,,,,,,,,,,,,,,,338.8476035000058,338.86155540001346,339.363451000012,339.34626810002374,339.36046230001375,339.363451000012,339.363451000012,339.363451000012,340.71354740002425,Objects\185a.jpg,pre,o,1.3363286999519914,None,,,,,,,,00018,001,2025-11-21_17h08.33.541,MST_test,2024.2.0,59.97264048951357,2025-11-21 17h08.42.074837 +0530,
84,0,85,s,1.3805461000301875,None,85,0,84,340.7282822999987,,,,,,,,,,,,,,,,,,,,,,,,,,,,,,,,,,,,,,,,,,,,,,,,,,340.71385010000085,340.7282822999987,341.23031419998733,341.21282010001596,341.2278251000098,341.23031419998733,341.23031419998733,341.23031419998733,342.6137493000133,Objects\024b.jpg,mid,s,1.3805461000301875,None,,,,,,,,00018,001,2025-11-21_17h08.33.541,MST_test,2024.2.0,59.97264048951357,2025-11-21 17h08.42.074837 +0530,
85,0,86,o,1.2172909999499097,None,86,0,85,342.62831669999287,,,,,,,,,,,,,,,,,,,,,,,,,,,,,,,,,,,,,,,,,,,,,,,,,,342.61405500001274,342.62831669999287,343.129247200035,343.11290549999103,343.1267562999856,343.129247200035,343.129247200035,343.129247200035,344.36389899998903,Objects\095a.jpg,pre,o,1.2172909999499097,None,,,,,,,,00018,001,2025-11-21_17h08.33.541,MST_test,2024.2.0,59.97264048951357,2025-11-21 17h08.42.074837 +0530,
86,0,87,s,1.6227605000021867,None,87,0,86,344.37841740000295,,,,,,,,,,,,,,,,,,,,,,,,,,,,,,,,,,,,,,,,,,,,,,,,,,344.36422749998746,344.37841740000295,344.8914865000406,344.86294399999315,344.8882912999834,344.8914865000406,344.8914865000406,344.8914865000406,346.5302942999988,Scenes\142b.jpg,mid,s,1.6227605000021867,None,,,,,,,,00018,001,2025-11-21_17h08.33.541,MST_test,2024.2.0,59.97264048951357,2025-11-21 17h08.42.074837 +0530,
87,0,88,s,5.444948400021531,None,88,0,87,346.5447209000122,,,,,,,,,,,,,,,,,,,,,,,,,,,,,,,,,,,,,,,,,,,,,,,,,,346.5306423000293,346.5447209000122,347.045420999988,347.02925660001347,347.03811860003043,347.045420999988,347.045420999988,347.045420999988,352.49717410001904,Objects\111a.jpg,pre,s,5.444948400021531,None,,,,,,,,00018,001,2025-11-21_17h08.33.541,MST_test,2024.2.0,59.97264048951357,2025-11-21 17h08.42.074837 +0530,
88,0,89,n,1.1148512000218034,None,89,0,88,352.511465699994,,,,,,,,,,,,,,,,,,,,,,,,,,,,,,,,,,,,,,,,,,,,,,,,,,352.4975043000304,352.511465699994,353.015300100029,352.99589910003124,353.01262600003975,353.015300100029,353.015300100029,353.015300100029,354.1471565000247,Foils\scenes5.jpg,none,n,1.1148512000218034,None,,,,,,,,00018,001,2025-11-21_17h08.33.541,MST_test,2024.2.0,59.97264048951357,2025-11-21 17h08.42.074837 +0530,
89,0,90,n,0.7306465000147,None,90,0,89,354.1622449000133,,,,,,,,,,,,,,,,,,,,,,,,,,,,,,,,,,,,,,,,,,,,,,,,,,354.14754109998466,354.1622449000133,354.66436560003785,354.64611400000285,354.66192560002673,354.66436560003785,354.66436560003785,354.66436560003785,355.39780740003334,Foils\scenes18.jpg,none,n,0.7306465000147,None,,,,,,,,00018,001,2025-11-21_17h08.33.541,MST_test,2024.2.0,59.97264048951357,2025-11-21 17h08.42.074837 +0530,
90,0,91,s,1.8886976000503637,None,91,0,90,355.4115097000031,,,,,,,,,,,,,,,,,,,,,,,,,,,,,,,,,,,,,,,,,,,,,,,,,,355.3982018000097,355.4115097000031,355.9135651999968,355.89624470000854,355.9110822000075,355.9135651999968,355.9135651999968,355.9135651999968,357.81350089999614,Objects\055b.jpg,post,s,1.8886976000503637,None,,,,,,,,00018,001,2025-11-21_17h08.33.541,MST_test,2024.2.0,59.97264048951357,2025-11-21 17h08.42.074837 +0530,
91,0,92,n,1.3357899999828078,None,92,0,91,357.82818960002623,,,,,,,,,,,,,,,,,,,,,,,,,,,,,,,,,,,,,,,,,,,,,,,,,,357.8138365999912,357.82818960002623,358.3305531000369,358.3126007000101,358.32778910000343,358.3305531000369,358.3305531000369,358.3305531000369,359.6807294000173,Foils\scenes11.jpg,none,n,1.3357899999828078,None,,,,,,,,00018,001,2025-11-21_17h08.33.541,MST_test,2024.2.0,59.97264048951357,2025-11-21 17h08.42.074837 +0530,
92,0,93,o,2.3171228999854065,None,93,0,92,359.6949314000085,,,,,,,,,,,,,,,,,,,,,,,,,,,,,,,,,,,,,,,,,,,,,,,,,,359.6811258000089,359.6949314000085,360.1977215000079,360.17947179998737,360.1952195999911,360.1977215000079,360.1977215000079,360.1977215000079,362.5300208000117,Objects\109a.jpg,pre,o,2.3171228999854065,None,,,,,,,,00018,001,2025-11-21_17h08.33.541,MST_test,2024.2.0,59.97264048951357,2025-11-21 17h08.42.074837 +0530,
93,0,94,s,2.8156379999709316,None,94,0,93,362.54471990000457,,,,,,,,,,,,,,,,,,,,,,,,,,,,,,,,,,,,,,,,,,,,,,,,,,362.5303402999998,362.54471990000457,363.05069569998886,363.0292785000056,363.04793390003033,363.05069569998886,363.05069569998886,363.05069569998886,365.88039200002095,Objects\090b.jpg,mid,s,2.8156379999709316,None,,,,,,,,00018,001,2025-11-21_17h08.33.541,MST_test,2024.2.0,59.97264048951357,2025-11-21 17h08.42.074837 +0530,
94,0,95,n,1.8511054000118747,None,95,0,94,365.894703100028,,,,,,,,,,,,,,,,,,,,,,,,,,,,,,,,,,,,,,,,,,,,,,,,,,365.8807411000016,365.894703100028,366.4079842999927,366.3793638999923,366.40499660000205,366.4079842999927,366.4079842999927,366.4079842999927,368.2644339000108,Scenes\020b.jpg,pre,n,1.8511054000118747,None,,,,,,,,00018,001,2025-11-21_17h08.33.541,MST_test,2024.2.0,59.97264048951357,2025-11-21 17h08.42.074837 +0530,
95,0,96,s,2.8808452999801375,None,96,0,95,368.2785011000233,,,,,,,,,,,,,,,,,,,,,,,,,,,,,,,,,,,,,,,,,,,,,,,,,,368.2648266000324,368.2785011000233,368.7855358000379,368.7627927000285,368.78232689999277,368.7855358000379,368.7855358000379,368.7855358000379,371.680777200032,Scenes\176b.jpg,post,s,2.8808452999801375,None,,,,,,,,00018,001,2025-11-21_17h08.33.541,MST_test,2024.2.0,59.97264048951357,2025-11-21 17h08.42.074837 +0530,
96,0,97,n,1.0103606000193395,None,97,0,96,371.6949554000166,,,,,,,,,,,,,,,,,,,,,,,,,,,,,,,,,,,,,,,,,,,,,,,,,,371.6811881000176,371.6949554000166,372.2009173000115,372.17952390003484,372.19788590003736,372.2009173000115,372.2009173000115,372.2009173000115,373.2140766000375,Foils\121a.jpg,none,n,1.0103606000193395,None,,,,,,,,00018,001,2025-11-21_17h08.33.541,MST_test,2024.2.0,59.97264048951357,2025-11-21 17h08.42.074837 +0530,
97,0,98,s,2.417908300005365,None,98,0,97,373.2281275999849,,,,,,,,,,,,,,,,,,,,,,,,,,,,,,,,,,,,,,,,,,,,,,,,,,373.2144394000061,373.2281275999849,373.72890670003835,373.71284990001004,373.72625920001883,373.72890670003835,373.72890670003835,373.72890670003835,376.16377360001206,Objects\136a.jpg,post,s,2.417908300005365,None,,,,,,,,00018,001,2025-11-21_17h08.33.541,MST_test,2024.2.0,59.97264048951357,2025-11-21 17h08.42.074837 +0530,
98,0,99,o,1.4446705999434926,None,99,0,98,376.1782169000362,,,,,,,,,,,,,,,,,,,,,,,,,,,,,,,,,,,,,,,,,,,,,,,,,,376.16418240003986,376.1782169000362,376.68596120004077,376.6627867000061,376.68307309999363,376.68596120004077,376.68596120004077,376.68596120004077,378.14743840001756,Scenes\004b.jpg,mid,o,1.4446705999434926,None,,,,,,,,00018,001,2025-11-21_17h08.33.541,MST_test,2024.2.0,59.97264048951357,2025-11-21 17h08.42.074837 +0530,
99,0,100,s,2.306706400006078,None,100,0,99,378.1616789000109,,,,,,,,,,,,,,,,,,,,,,,,,,,,,,,,,,,,,,,,,,,,,,,,,,378.14781930000754,378.1616789000109,378.67253280000295,378.6461001000134,378.6694389000186,378.67253280000295,378.67253280000295,378.67253280000295,380.980963399983,Scenes\011a.jpg,pre,s,2.306706400006078,None,,,,,,,,00018,001,2025-11-21_17h08.33.541,MST_test,2024.2.0,59.97264048951357,2025-11-21 17h08.42.074837 +0530,
100,0,101,s,1.9862153999856673,None,101,0,100,380.99472419999074,,,,,,,,,,,,,,,,,,,,,,,,,,,,,,,,,,,,,,,,,,,,,,,,,,380.9813714000047,380.99472419999074,381.4967059000046,381.479705500009,381.49370370002,381.4967059000046,381.4967059000046,381.4967059000046,383.4975361000397,Objects\042b.jpg,post,s,1.9862153999856673,None,,,,,,,,00018,001,2025-11-21_17h08.33.541,MST_test,2024.2.0,59.97264048951357,2025-11-21 17h08.42.074837 +0530,
101,0,102,s,2.2307769000180997,None,102,0,101,383.511557299993,,,,,,,,,,,,,,,,,,,,,,,,,,,,,,,,,,,,,,,,,,,,,,,,,,383.49792970001,383.511557299993,384.0117656000075,383.996038399986,384.00208750000456,384.0117656000075,384.0117656000075,384.0117656000075,386.24742840003455,Objects\110a.jpg,post,s,2.2307769000180997,None,,,,,,,,00018,001,2025-11-21_17h08.33.541,MST_test,2024.2.0,59.97264048951357,2025-11-21 17h08.42.074837 +0530,
102,0,103,s,1.4813688999856822,None,103,0,102,386.261524200032,,,,,,,,,,,,,,,,,,,,,,,,,,,,,,,,,,,,,,,,,,,,,,,,,,386.24774610000895,386.261524200032,386.7616976000136,386.746261399996,386.7590903000091,386.7616976000136,386.7616976000136,386.7616976000136,388.24736600002507,Objects\030a.jpg,post,s,1.4813688999856822,None,,,,,,,,00018,001,2025-11-21_17h08.33.541,MST_test,2024.2.0,59.97264048951357,2025-11-21 17h08.42.074837 +0530,
103,0,104,n,1.7673291999963112,None,104,0,103,388.2615762000205,,,,,,,,,,,,,,,,,,,,,,,,,,,,,,,,,,,,,,,,,,,,,,,,,,388.2477510999888,388.2615762000205,388.7638663999969,388.74621730000945,388.7612406000262,388.7638663999969,388.7638663999969,388.7638663999969,390.5471211000113,Foils\scenes7.jpg,none,n,1.7673291999963112,None,,,,,,,,00018,001,2025-11-21_17h08.33.541,MST_test,2024.2.0,59.97264048951357,2025-11-21 17h08.42.074837 +0530,
104,0,105,n,1.868581400020048,None,105,0,104,390.5615164000192,,,,,,,,,,,,,,,,,,,,,,,,,,,,,,,,,,,,,,,,,,,,,,,,,,390.5474688000395,390.5615164000192,391.0618811000022,391.04602310003247,391.05891890003113,391.0618811000022,391.0618811000022,391.0618811000022,392.9468354000128,Foils\scenes17.jpg,none,n,1.868581400020048,None,,,,,,,,00018,001,2025-11-21_17h08.33.541,MST_test,2024.2.0,59.97264048951357,2025-11-21 17h08.42.074837 +0530,
105,0,106,o,2.360362899955362,None,106,0,105,392.96153299999423,,,,,,,,,,,,,,,,,,,,,,,,,,,,,,,,,,,,,,,,,,,,,,,,,,392.9472448999877,392.96153299999423,393.4663029999938,393.4459303999902,393.4635663999943,393.4663029999938,393.4663029999938,393.4663029999938,395.831250999996,Objects\050a.jpg,mid,o,2.360362899955362,None,,,,,,,,00018,001,2025-11-21_17h08.33.541,MST_test,2024.2.0,59.97264048951357,2025-11-21 17h08.42.074837 +0530,
106,0,107,s,3.9471147999865934,None,107,0,106,395.8448863000376,,,,,,,,,,,,,,,,,,,,,,,,,,,,,,,,,,,,,,,,,,,,,,,,,,395.8316343000042,395.8448863000376,396.35988920001546,396.32913570001256,396.35695089999354,396.35988920001546,396.35988920001546,396.35988920001546,400.3140695000184,Scenes\145a.jpg,pre,s,3.9471147999865934,None,,,,,,,,00018,001,2025-11-21_17h08.33.541,MST_test,2024.2.0,59.97264048951357,2025-11-21 17h08.42.074837 +0530,
107,0,108,n,1.0116245000390336,None,108,0,107,400.32833160000155,,,,,,,,,,,,,,,,,,,,,,,,,,,,,,,,,,,,,,,,,,,,,,,,,,400.31445890001487,400.32833160000155,400.8308077999973,400.8125642000232,400.8281348000164,400.8308077999973,400.8308077999973,400.8308077999973,401.8471911000088,Foils\scenes20.jpg,none,n,1.0116245000390336,None,,,,,,,,00018,001,2025-11-21_17h08.33.541,MST_test,2024.2.0,59.97264048951357,2025-11-21 17h08.42.074837 +0530,
108,0,109,s,1.6308782999985851,None,109,0,108,401.86150890000863,,,,,,,,,,,,,,,,,,,,,,,,,,,,,,,,,,,,,,,,,,,,,,,,,,401.84759349998785,401.86150890000863,402.36333910003304,402.3462312000338,402.36062739999034,402.36333910003304,402.36333910003304,402.36333910003304,403.99726949998876,Objects\159a.jpg,pre,s,1.6308782999985851,None,,,,,,,,00018,001,2025-11-21_17h08.33.541,MST_test,2024.2.0,59.97264048951357,2025-11-21 17h08.42.074837 +0530,
109,0,110,o,1.0960329999797978,None,110,0,109,404.0115772000281,,,,,,,,,,,,,,,,,,,,,,,,,,,,,,,,,,,,,,,,,,,,,,,,,,403.997686000017,404.0115772000281,404.5223521000007,404.49599610001314,404.51922220003325,404.5223521000007,404.5223521000007,404.5223521000007,405.63072519999696,Scenes\066b.jpg,pre,o,1.0960329999797978,None,,,,,,,,00018,001,2025-11-21_17h08.33.541,MST_test,2024.2.0,59.97264048951357,2025-11-21 17h08.42.074837 +0530,
110,0,111,s,1.6988808999885805,None,111,0,110,405.6448172000237,,,,,,,,,,,,,,,,,,,,,,,,,,,,,,,,,,,,,,,,,,,,,,,,,,405.631114799995,405.6448172000237,406.15959799999837,406.12923240003875,406.15615779999644,406.15959799999837,406.15959799999837,406.15959799999837,407.8636109000072,Scenes\070b.jpg,post,s,1.6988808999885805,None,,,,,,,,00018,001,2025-11-21_17h08.33.541,MST_test,2024.2.0,59.97264048951357,2025-11-21 17h08.42.074837 +0530,
111,0,112,n,1.0363368000253104,None,112,0,111,407.8781779999845,,,,,,,,,,,,,,,,,,,,,,,,,,,,,,,,,,,,,,,,,,,,,,,,,,407.8639896000386,407.8781779999845,408.3899745999952,408.3629057999933,408.387006999983,408.3899745999952,408.3899745999952,408.3899745999952,409.43089720001444,Scenes\164b.jpg,pre,n,1.0363368000253104,None,,,,,,,,00018,001,2025-11-21_17h08.33.541,MST_test,2024.2.0,59.97264048951357,2025-11-21 17h08.42.074837 +0530,
112,0,113,o,2.2397396999876946,None,113,0,112,409.4448376999935,,,,,,,,,,,,,,,,,,,,,,,,,,,,,,,,,,,,,,,,,,,,,,,,,,409.43117480003275,409.4448376999935,409.9473190000281,409.92952830001013,409.9445257000043,409.9473190000281,409.9473190000281,409.9473190000281,412.197026800015,Objects\007b.jpg,mid,o,2.2397396999876946,None,,,,,,,,00018,001,2025-11-21_17h08.33.541,MST_test,2024.2.0,59.97264048951357,2025-11-21 17h08.42.074837 +0530,
113,0,114,n,3.922950399981346,None,114,0,113,412.21176169998944,,,,,,,,,,,,,,,,,,,,,,,,,,,,,,,,,,,,,,,,,,,,,,,,,,412.1974113000324,412.21176169998944,412.7205210000393,412.69680259999586,412.71749250002904,412.7205210000393,412.7205210000393,412.7205210000393,416.647229299997,Scenes\180a.jpg,pre,n,3.922950399981346,None,,,,,,,,00018,001,2025-11-21_17h08.33.541,MST_test,2024.2.0,59.97264048951357,2025-11-21 17h08.42.074837 +0530,
114,0,115,s,1.889074000006076,None,115,0,114,416.66146860003937,,,,,,,,,,,,,,,,,,,,,,,,,,,,,,,,,,,,,,,,,,,,,,,,,,416.64749460003804,416.66146860003937,417.1691741000395,417.1461180000333,417.16615880001336,417.1691741000395,417.1691741000395,417.1691741000395,419.06397620000644,Scenes\156b.jpg,pre,s,1.889074000006076,None,,,,,,,,00018,001,2025-11-21_17h08.33.541,MST_test,2024.2.0,59.97264048951357,2025-11-21 17h08.42.074837 +0530,
115,0,116,s,4.364498300012201,None,116,0,115,419.0782732000225,,,,,,,,,,,,,,,,,,,,,,,,,,,,,,,,,,,,,,,,,,,,,,,,,,419.064341099991,419.0782732000225,419.5898670000024,419.5631011000369,419.5866102,419.5898670000024,419.5898670000024,419.5898670000024,423.96418519999133,Scenes\023b.jpg,pre,s,4.364498300012201,None,,,,,,,,00018,001,2025-11-21_17h08.33.541,MST_test,2024.2.0,59.97264048951357,2025-11-21 17h08.42.074837 +0530,
116,0,117,n,0.953876500017941,None,117,0,116,423.97821800003294,,,,,,,,,,,,,,,,,,,,,,,,,,,,,,,,,,,,,,,,,,,,,,,,,,423.96455259999493,423.97821800003294,424.48062980000395,424.4627111000009,424.477225300041,424.48062980000395,424.48062980000395,424.48062980000395,425.4468201000127,Foils\098a.jpg,none,n,0.953876500017941,None,,,,,,,,00018,001,2025-11-21_17h08.33.541,MST_test,2024.2.0,59.97264048951357,2025-11-21 17h08.42.074837 +0530,
117,0,118,n,1.0805517999688163,None,118,0,117,425.4614944999921,,,,,,,,,,,,,,,,,,,,,,,,,,,,,,,,,,,,,,,,,,,,,,,,,,425.4471676000394,425.4614944999921,426.2424899000325,425.9457609000383,426.23613810003735,426.2424899000325,426.2424899000325,426.2424899000325,427.3308437000378,Foils\scenes26.jpg,none,n,1.0805517999688163,None,,,,,,,,00018,001,2025-11-21_17h08.33.541,MST_test,2024.2.0,59.97264048951357,2025-11-21 17h08.42.074837 +0530,
118,0,119,n,1.078953099960927,None,119,0,118,427.34486190002644,,,,,,,,,,,,,,,,,,,,,,,,,,,,,,,,,,,,,,,,,,,,,,,,,,427.3312113999855,427.34486190002644,427.8834722000174,427.8295822000364,427.88075449998723,427.8834722000174,427.8834722000174,427.8834722000174,428.96471820003353,Foils\scenes22.jpg,none,n,1.078953099960927,None,,,,,,,,00018,001,2025-11-21_17h08.33.541,MST_test,2024.2.0,59.97264048951357,2025-11-21 17h08.42.074837 +0530,
119,0,120,s,1.665497400041204,None,120,0,119,428.97820270003285,,,,,,,,,,,,,,,,,,,,,,,,,,,,,,,,,,,,,,,,,,,,,,,,,,428.9650971000083,428.97820270003285,429.4886668000254,429.4624855000293,429.48533789999783,429.4886668000254,429.4886668000254,429.4886668000254,431.1639079999877,Scenes\174a.jpg,pre,s,1.665497400041204,None,,,,,,,,00018,001,2025-11-21_17h08.33.541,MST_test,2024.2.0,59.97264048951357,2025-11-21 17h08.42.074837 +0530,
120,0,121,n,1.0885326000279747,None,121,0,120,431.178196199995,,,,,,,,,,,,,,,,,,,,,,,,,,,,,,,,,,,,,,,,,,,,,,,,,,431.1642498000292,431.178196199995,431.6818083000253,431.6626704999944,431.6788983999868,431.6818083000253,431.6818083000253,431.6818083000253,432.7794368999894,Foils\066a.jpg,none,n,1.0885326000279747,None,,,,,,,,00018,001,2025-11-21_17h08.33.541,MST_test,2024.2.0,59.97264048951357,2025-11-21 17h08.42.074837 +0530,
121,0,122,n,0.755296699993778,None,122,0,121,432.79485110001406,,,,,,,,,,,,,,,,,,,,,,,,,,,,,,,,,,,,,,,,,,,,,,,,,,432.7796673999983,432.79485110001406,433.3111665000324,433.27956530003576,433.30810750002274,433.3111665000324,433.3111665000324,433.3111665000324,434.0806564000086,Scenes\086b.jpg,pre,n,0.755296699993778,None,,,,,,,,00018,001,2025-11-21_17h08.33.541,MST_test,2024.2.0,59.97264048951357,2025-11-21 17h08.42.074837 +0530,
122,0,123,s,4.180987300002016,None,123,0,122,434.0950920000323,,,,,,,,,,,,,,,,,,,,,,,,,,,,,,,,,,,,,,,,,,,,,,,,,,434.08102240000153,434.0950920000323,434.6052196000237,434.57955249998486,434.60207230004016,434.6052196000237,434.6052196000237,434.6052196000237,438.79795660002856,Scenes\131a.jpg,pre,s,4.180987300002016,None,,,,,,,,00018,001,2025-11-21_17h08.33.541,MST_test,2024.2.0,59.97264048951357,2025-11-21 17h08.42.074837 +0530,
123,0,124,o,2.9482940000016242,None,124,0,123,438.8116194999893,,,,,,,,,,,,,,,,,,,,,,,,,,,,,,,,,,,,,,,,,,,,,,,,,,438.7983078000252,438.8116194999893,439.3181639999966,439.2962847999879,439.31511200004024,439.3181639999966,439.3181639999966,439.3181639999966,442.27998190000653,Scenes\178a.jpg,post,o,2.9482940000016242,None,,,,,,,,00018,001,2025-11-21_17h08.33.541,MST_test,2024.2.0,59.97264048951357,2025-11-21 17h08.42.074837 +0530,
124,0,125,o,5.7111733999918215,None,125,0,124,442.2949451000313,,,,,,,,,,,,,,,,,,,,,,,,,,,,,,,,,,,,,,,,,,,,,,,,,,442.28023750003194,442.2949451000313,442.79562190000433,442.7793738000328,442.7858954000403,442.79562190000433,442.79562190000433,442.79562190000433,448.51393980003195,Objects\131a.jpg,post,o,5.7111733999918215,None,,,,,,,,00018,001,2025-11-21_17h08.33.541,MST_test,2024.2.0,59.97264048951357,2025-11-21 17h08.42.074837 +0530,
125,0,126,o,1.059800199989695,None,126,0,125,448.5283824999933,,,,,,,,,,,,,,,,,,,,,,,,,,,,,,,,,,,,,,,,,,,,,,,,,,448.5143253999995,448.5283824999933,449.03042249998543,449.0127657999983,449.0281342000235,449.03042249998543,449.03042249998543,449.03042249998543,450.0972844000207,Objects\120a.jpg,mid,o,1.059800199989695,None,,,,,,,,00018,001,2025-11-21_17h08.33.541,MST_test,2024.2.0,59.97264048951357,2025-11-21 17h08.42.074837 +0530,
126,0,127,n,1.1660830000182614,None,127,0,126,450.11154379998334,,,,,,,,,,,,,,,,,,,,,,,,,,,,,,,,,,,,,,,,,,,,,,,,,,450.09760590002406,450.11154379998334,450.6204441000009,450.5957209999906,450.61736430000747,450.6204441000009,450.6204441000009,450.6204441000009,451.79718739999225,Scenes\046b.jpg,post,n,1.1660830000182614,None,,,,,,,,00018,001,2025-11-21_17h08.33.541,MST_test,2024.2.0,59.97264048951357,2025-11-21 17h08.42.074837 +0530,
127,0,128,o,1.460478900000453,None,128,0,127,451.8115988000063,,,,,,,,,,,,,,,,,,,,,,,,,,,,,,,,,,,,,,,,,,,,,,,,,,451.7976033000159,451.8115988000063,452.3183602000354,452.2962922999868,452.3151813999866,452.3183602000354,452.3183602000354,452.3183602000354,453.7798244000296,Scenes\044a.jpg,post,o,1.460478900000453,None,,,,,,,,00018,001,2025-11-21_17h08.33.541,MST_test,2024.2.0,59.97264048951357,2025-11-21 17h08.42.074837 +0530,
128,0,129,o,1.2006748999701813,None,129,0,128,453.79499470000155,,,,,,,,,,,,,,,,,,,,,,,,,,,,,,,,,,,,,,,,,,,,,,,,,,453.78003080002964,453.79499470000155,454.2979117000359,454.27960509998957,454.2950267000124,454.2979117000359,454.2979117000359,454.2979117000359,455.51426760002505,Objects\025a.jpg,mid,o,1.2006748999701813,None,,,,,,,,00018,001,2025-11-21_17h08.33.541,MST_test,2024.2.0,59.97264048951357,2025-11-21 17h08.42.074837 +0530,
129,0,130,n,1.467311700049322,None,130,0,129,455.52846669999417,,,,,,,,,,,,,,,,,,,,,,,,,,,,,,,,,,,,,,,,,,,,,,,,,,455.5145800000173,455.52846669999417,456.0635429000249,456.01287380000576,456.0595660000108,456.0635429000249,456.0635429000249,456.0635429000249,457.5474649000098,Foils\scenes15.jpg,none,n,1.467311700049322,None,,,,,,,,00018,001,2025-11-21_17h08.33.541,MST_test,2024.2.0,59.97264048951357,2025-11-21 17h08.42.074837 +0530,
130,0,131,o,3.1160678999731317,None,131,0,130,457.5618872999912,,,,,,,,,,,,,,,,,,,,,,,,,,,,,,,,,,,,,,,,,,,,,,,,,,457.5478359000408,457.5618872999912,458.0707674000296,458.0461869999999,458.06591529998695,458.0707674000296,458.0707674000296,458.0707674000296,461.197210000013,Scenes\154a.jpg,mid,o,3.1160678999731317,None,,,,,,,,00018,001,2025-11-21_17h08.33.541,MST_test,2024.2.0,59.97264048951357,2025-11-21 17h08.42.074837 +0530,
131,0,132,n,1.5982407999690622,None,132,0,131,461.21168639999814,,,,,,,,,,,,,,,,,,,,,,,,,,,,,,,,,,,,,,,,,,,,,,,,,,461.1976010000217,461.21168639999814,461.71674270002404,461.6960140999872,461.71398030000273,461.71674270002404,461.71674270002404,461.71674270002404,463.3306149999844,Foils\scenes30.jpg,none,n,1.5982407999690622,None,,,,,,,,00018,001,2025-11-21_17h08.33.541,MST_test,2024.2.0,59.97264048951357,2025-11-21 17h08.42.074837 +0530,
132,0,133,o,1.5392425999743864,None,133,0,132,463.3450390000362,,,,,,,,,,,,,,,,,,,,,,,,,,,,,,,,,,,,,,,,,,,,,,,,,,463.3310175000224,463.3450390000362,463.85576850001235,463.8294288000325,463.85291760001564,463.85576850001235,463.85576850001235,463.85576850001235,465.39753260003636,Scenes\043b.jpg,mid,o,1.5392425999743864,None,,,,,,,,00018,001,2025-11-21_17h08.33.541,MST_test,2024.2.0,59.97264048951357,2025-11-21 17h08.42.074837 +0530,
133,0,134,o,1.1358677000389434,None,134,0,133,465.4116132000345,,,,,,,,,,,,,,,,,,,,,,,,,,,,,,,,,,,,,,,,,,,,,,,,,,465.3979260000051,465.4116132000345,465.9149469000404,465.89625300001353,465.911925900029,465.9149469000404,465.9149469000404,465.9149469000404,467.06398289999925,Objects\152a.jpg,mid,o,1.1358677000389434,None,,,,,,,,00018,001,2025-11-21_17h08.33.541,MST_test,2024.2.0,59.97264048951357,2025-11-21 17h08.42.074837 +0530,
134,0,135,s,4.205414200027008,None,135,0,134,467.07823300000746,,,,,,,,,,,,,,,,,,,,,,,,,,,,,,,,,,,,,,,,,,,,,,,,,,467.06432230002247,467.07823300000746,467.58140600001207,467.56275600002846,467.57855949999066,467.58140600001207,467.58140600001207,467.58140600001207,471.795319100027,Scenes\033b.jpg,post,s,4.205414200027008,None,,,,,,,,00018,001,2025-11-21_17h08.33.541,MST_test,2024.2.0,59.97264048951357,2025-11-21 17h08.42.074837 +0530,
135,0,136,n,0.9560085000121035,None,136,0,135,471.8112633000128,,,,,,,,,,,,,,,,,,,,,,,,,,,,,,,,,,,,,,,,,,,,,,,,,,471.79542730003595,471.8112633000128,472.3189234000165,472.29635200003395,472.31593779998366,472.3189234000165,472.3189234000165,472.3189234000165,473.28067629999714,Foils\057a.jpg,none,n,0.9560085000121035,None,,,,,,,,00018,001,2025-11-21_17h08.33.541,MST_test,2024.2.0,59.97264048951357,2025-11-21 17h08.42.074837 +0530,
136,0,137,o,2.1758007000316866,None,137,0,136,473.29510160000063,,,,,,,,,,,,,,,,,,,,,,,,,,,,,,,,,,,,,,,,,,,,,,,,,,473.2810389000224,473.29510160000063,473.79512329999125,473.7794625000097,473.7920904000057,473.79512329999125,473.79512329999125,473.79512329999125,475.98055610002484,Objects\086a.jpg,pre,o,2.1758007000316866,None,,,,,,,,00018,001,2025-11-21_17h08.33.541,MST_test,2024.2.0,59.97264048951357,2025-11-21 17h08.42.074837 +0530,
137,0,138,n,2.5703768999665044,None,138,0,137,475.9950940000126,,,,,,,,,,,,,,,,,,,,,,,,,,,,,,,,,,,,,,,,,,,,,,,,,,475.98093299998436,475.9950940000126,476.49585430003935,476.4794358999934,476.49324510002043,476.49585430003935,476.49585430003935,476.49585430003935,479.0805086999899,Foils\058a.jpg,none,n,2.5703768999665044,None,,,,,,,,00018,001,2025-11-21_17h08.33.541,MST_test,2024.2.0,59.97264048951357,2025-11-21 17h08.42.074837 +0530,
138,0,139,o,3.4717898999806494,None,139,0,138,479.0950806000037,,,,,,,,,,,,,,,,,,,,,,,,,,,,,,,,,,,,,,,,,,,,,,,,,,479.08091270003933,479.0950806000037,479.59512090001954,479.5789950999897,479.5842855999945,479.59512090001954,479.59512090001954,479.59512090001954,483.08072150003863,Objects\097a.jpg,pre,o,3.4717898999806494,None,,,,,,,,00018,001,2025-11-21_17h08.33.541,MST_test,2024.2.0,59.97264048951357,2025-11-21 17h08.42.074837 +0530,
139,0,140,s,2.0920913000009023,None,140,0,139,483.09498220001115,,,,,,,,,,,,,,,,,,,,,,,,,,,,,,,,,,,,,,,,,,,,,,,,,,483.08112380001694,483.09498220001115,483.5982595999958,483.5797728000325,483.5958563000313,483.5982595999958,483.5982595999958,483.5982595999958,485.6978502999991,Objects\022b.jpg,mid,s,2.0920913000009023,None,,,,,,,,00018,001,2025-11-21_17h08.33.541,MST_test,2024.2.0,59.97264048951357,2025-11-21 17h08.42.074837 +0530,
140,0,141,o,3.646245200012345,None,141,0,140,485.7117324999999,,,,,,,,,,,,,,,,,,,,,,,,,,,,,,,,,,,,,,,,,,,,,,,,,,485.6982480000006,485.7117324999999,486.21184140001424,486.1950896999915,486.20461930002784,486.21184140001424,486.21184140001424,486.21184140001424,489.8641638000263,Objects\175b.jpg,post,o,3.646245200012345,None,,,,,,,,00018,001,2025-11-21_17h08.33.541,MST_test,2024.2.0,59.97264048951357,2025-11-21 17h08.42.074837 +0530,
141,0,142,n,0.8055482999770902,None,142,0,141,489.87810670002364,,,,,,,,,,,,,,,,,,,,,,,,,,,,,,,,,,,,,,,,,,,,,,,,,,489.8644546000287,489.87810670002364,490.3806420000037,490.3628200000385,490.3781815000111,490.3806420000037,490.3806420000037,490.3806420000037,491.19691470003454,Foils\002a.jpg,none,n,0.8055482999770902,None,,,,,,,,00018,001,2025-11-21_17h08.33.541,MST_test,2024.2.0,59.97264048951357,2025-11-21 17h08.42.074837 +0530,
142,0,143,o,1.7768778000026941,None,143,0,142,491.2115651000058,,,,,,,,,,,,,,,,,,,,,,,,,,,,,,,,,,,,,,,,,,,,,,,,,,491.19722329999786,491.2115651000058,491.72145230002934,491.6960543000023,491.71854370000074,491.72145230002934,491.72145230002934,491.72145230002934,493.51422800001455,Scenes\107a.jpg,pre,o,1.7768778000026941,None,,,,,,,,00018,001,2025-11-21_17h08.33.541,MST_test,2024.2.0,59.97264048951357,2025-11-21 17h08.42.074837 +0530,
143,0,144,n,1.2070648000226356,None,144,0,143,493.52825949998805,,,,,,,,,,,,,,,,,,,,,,,,,,,,,,,,,,,,,,,,,,,,,,,,,,493.51461429998744,493.52825949998805,494.0359550000285,494.012578200025,494.03302600001916,494.0359550000285,494.0359550000285,494.0359550000285,495.2471440000227,Scenes\138a.jpg,mid,n,1.2070648000226356,None,,,,,,,,00018,001,2025-11-21_17h08.33.541,MST_test,2024.2.0,59.97264048951357,2025-11-21 17h08.42.074837 +0530,
144,0,145,o,1.8571976000093855,None,145,0,144,495.26153100002557,,,,,,,,,,,,,,,,,,,,,,,,,,,,,,,,,,,,,,,,,,,,,,,,,,495.2474658000283,495.26153100002557,495.7692849999876,495.7462099000113,495.76625490002334,495.7692849999876,495.7692849999876,495.7692849999876,497.6304637999856,Scenes\095a.jpg,post,o,1.8571976000093855,None,,,,,,,,00018,001,2025-11-21_17h08.33.541,MST_test,2024.2.0,59.97264048951357,2025-11-21 17h08.42.074837 +0530,
145,0,146,s,2.0379868000163697,None,146,0,145,497.6450347999926,,,,,,,,,,,,,,,,,,,,,,,,,,,,,,,,,,,,,,,,,,,,,,,,,,497.63083979999647,497.6450347999926,498.14888990001054,498.1290059000021,498.14581960003125,498.14888990001054,498.14888990001054,498.14888990001054,500.1960149999941,Objects\191a.jpg,post,s,2.0379868000163697,None,,,,,,,,00018,001,2025-11-21_17h08.33.541,MST_test,2024.2.0,59.97264048951357,2025-11-21 17h08.42.074837 +0530,
146,0,147,s,2.1220901999622583,None,147,0,146,500.211377300031,,,,,,,,,,,,,,,,,,,,,,,,,,,,,,,,,,,,,,,,,,,,,,,,,,500.1961760999984,500.211377300031,500.721028800006,500.6960123000317,500.71797500003595,500.721028800006,500.721028800006,500.721028800006,502.8474169000401,Scenes\159a.jpg,mid,s,2.1220901999622583,None,,,,,,,,00018,001,2025-11-21_17h08.33.541,MST_test,2024.2.0,59.97264048951357,2025-11-21 17h08.42.074837 +0530,
147,0,148,n,0.9899138999753632,None,148,0,147,502.86155209998833,,,,,,,,,,,,,,,,,,,,,,,,,,,,,,,,,,,,,,,,,,,,,,,,,,502.8478235999937,502.86155209998833,503.3730538000236,503.3461046000011,503.3698822000297,503.3730538000236,503.3730538000236,503.3730538000236,504.3805103999912,Scenes\010b.jpg,mid,n,0.9899138999753632,None,,,,,,,,00018,001,2025-11-21_17h08.33.541,MST_test,2024.2.0,59.97264048951357,2025-11-21 17h08.42.074837 +0530,
148,0,149,s,2.3637414000113495,None,149,0,148,504.39509200002067,,,,,,,,,,,,,,,,,,,,,,,,,,,,,,,,,,,,,,,,,,,,,,,,,,504.3809015000006,504.39509200002067,504.8957706000074,504.8796221000375,504.88950900000054,504.8957706000074,504.8957706000074,504.8957706000074,507.2633330000099,Scenes\129a.jpg,post,s,2.3637414000113495,None,,,,,,,,00018,001,2025-11-21_17h08.33.541,MST_test,2024.2.0,59.97264048951357,2025-11-21 17h08.42.074837 +0530,
149,0,150,s,1.4821134000085294,None,150,0,149,507.27817619999405,,,,,,,,,,,,,,,,,,,,,,,,,,,,,,,,,,,,,,,,,,,,,,,,,,507.2635852000094,507.27817619999405,507.7926518000313,507.7625204999931,507.7897271999973,507.7926518000313,507.7926518000313,507.7926518000313,509.2797631000285,Scenes\026b.jpg,mid,s,1.4821134000085294,None,,,,,,,,00018,001,2025-11-21_17h08.33.541,MST_test,2024.2.0,59.97264048951357,2025-11-21 17h08.42.074837 +0530,
,,,,,,,,,,,,,,,,,,,,,,,,,,,,,,,,,,,,,,,,,,,,,,,,,,,,,,,,,,,,,,,,,,,,,,,,,509.2799763000221,509.2947855000384,509.2947855000384,512.4464858000283,space,3.140313600015361,None,00018,001,2025-11-21_17h08.33.541,MST_test,2024.2.0,59.97264048951357,2025-11-21 17h08.42.074837 +0530,
