thisN,thisTrialN,thisRepN,key_resp_3.keys,key_resp_3.rt,key_resp_3.duration,trials.thisRepN,trials.thisTrialN,trials.thisN,thisRow.t,notes,intro_page.started,text.started,key_resp.started,intro_page.stopped,key_resp.keys,key_resp.rt,key_resp.duration,instructions.started,text_2.started,key_resp_2.started,instructions.stopped,key_resp_2.keys,key_resp_2.rt,key_resp_2.duration,demo1.started,image_1.started,image_2.started,text_7.started,key_resp_6.started,text_9.started,demo1.stopped,key_resp_6.keys,key_resp_6.rt,key_resp_6.duration,demo2.started,image_5.started,image_6.started,text_11.started,text_12.started,key_resp_8.started,demo2.stopped,key_resp_8.keys,key_resp_8.rt,key_resp_8.duration,demo_conclusion.started,text_13.started,key_resp_9.started,demo_conclusion.stopped,key_resp_9.keys,key_resp_9.rt,key_resp_9.duration,start_test.started,text_6.started,key_resp_5.started,start_test.stopped,key_resp_5.keys,key_resp_5.rt,key_resp_5.duration,ISI.started,text_4.started,text_4.stopped,ISI.stopped,routine_1.started,image.started,text_3.started,key_resp_3.started,routine_1.stopped,image_path,position_of_stimuli,trials.key_resp_3.keys,trials.key_resp_3.rt,trials.key_resp_3.duration,End_page.started,text_5.started,key_resp_4.started,End_page.stopped,key_resp_4.keys,key_resp_4.rt,key_resp_4.duration,participant,session,date,expName,psychopyVersion,frameRate,expStart,
,,,,,,,,,,,0.001256699999430566,0.0034420000001773587,0.0034420000001773587,3.3688725000001796,space,3.3525767999999516,None,,,,,,,,,,,,,,,,,,,,,,,,,,,,,,,,,,,,,,,,,,,,,,,,,,,,,,,,,,,,,,,00052,001,2026-01-25_13h08.47.205,MST_test,2024.2.0,59.98080614197393,2026-01-25 13h08.59.504409 +0530,
,,,,,,,,,,,,,,,,,,3.368948999999702,3.3796385999994527,3.3796385999994527,10.694575800000166,space,7.303667300000598,None,,,,,,,,,,,,,,,,,,,,,,,,,,,,,,,,,,,,,,,,,,,,,,,,,,,,,,,,00052,001,2026-01-25_13h08.47.205,MST_test,2024.2.0,59.98080614197393,2026-01-25 13h08.59.504409 +0530,
,,,,,,,,,,,,,,,,,,,,,,,,,10.694663899999796,10.735463799999707,10.735463799999707,10.735463799999707,10.735463799999707,10.735463799999707,14.645431099999769,space,3.9080957999995007,None,,,,,,,,,,,,,,,,,,,,,,,,,,,,,,,,,,,,,,,,,,,,,,00052,001,2026-01-25_13h08.47.205,MST_test,2024.2.0,59.98080614197393,2026-01-25 13h08.59.504409 +0530,
,,,,,,,,,,,,,,,,,,,,,,,,,,,,,,,,,,,14.6455433000001,14.66180439999971,14.66180439999971,14.66180439999971,14.66180439999971,14.66180439999971,18.728536599999643,space,4.062161199999537,None,,,,,,,,,,,,,,,,,,,,,,,,,,,,,,,,,,,,00052,001,2026-01-25_13h08.47.205,MST_test,2024.2.0,59.98080614197393,2026-01-25 13h08.59.504409 +0530,
,,,,,,,,,,,,,,,,,,,,,,,,,,,,,,,,,,,,,,,,,,,,,18.72863150000012,18.744514799999706,18.744514799999706,37.11177829999997,space,18.355948600000374,None,,,,,,,,,,,,,,,,,,,,,,,,,,,,,00052,001,2026-01-25_13h08.47.205,MST_test,2024.2.0,59.98080614197393,2026-01-25 13h08.59.504409 +0530,
,,,,,,,,,,,,,,,,,,,,,,,,,,,,,,,,,,,,,,,,,,,,,,,,,,,,37.111878499999875,37.12781659999928,37.12781659999928,85.9118297999994,space,48.77234419999968,None,,,,,,,,,,,,,,,,,,,,,,00052,001,2026-01-25_13h08.47.205,MST_test,2024.2.0,59.98080614197393,2026-01-25 13h08.59.504409 +0530,
0,0,1,n,2.1588247999998202,None,1,0,0,85.92779029999929,,,,,,,,,,,,,,,,,,,,,,,,,,,,,,,,,,,,,,,,,,,,,,,,,,85.91935509999985,85.92779029999929,86.43664519999948,86.4115643999994,86.43312460000016,86.43664519999948,86.43664519999948,86.43664519999948,88.61187650000011,Scenes\014a.jpg,pre,n,2.1588247999998202,None,,,,,,,,00052,001,2026-01-25_13h08.47.205,MST_test,2024.2.0,59.98080614197393,2026-01-25 13h08.59.504409 +0530,
1,0,2,o,2.6268349000001763,None,2,0,1,88.6277098999999,,,,,,,,,,,,,,,,,,,,,,,,,,,,,,,,,,,,,,,,,,,,,,,,,,88.61223179999979,88.6277098999999,89.12918629999967,89.11160860000018,89.12679130000015,89.12918629999967,89.12918629999967,89.12918629999967,91.76191159999962,Scenes\017a.jpg,pre,o,2.6268349000001763,None,,,,,,,,00052,001,2026-01-25_13h08.47.205,MST_test,2024.2.0,59.98080614197393,2026-01-25 13h08.59.504409 +0530,
2,0,3,n,2.317200999999841,None,3,0,2,91.77747579999959,,,,,,,,,,,,,,,,,,,,,,,,,,,,,,,,,,,,,,,,,,,,,,,,,,91.7622935999998,91.77747579999959,92.27809470000011,92.26172020000013,92.27299779999976,92.27809470000011,92.27809470000011,92.27809470000011,94.61187079999945,Foils\scenes30.jpg,none,n,2.317200999999841,None,,,,,,,,00052,001,2026-01-25_13h08.47.205,MST_test,2024.2.0,59.98080614197393,2026-01-25 13h08.59.504409 +0530,
3,0,4,s,2.6115774999998393,None,4,0,3,94.62782470000002,,,,,,,,,,,,,,,,,,,,,,,,,,,,,,,,,,,,,,,,,,,,,,,,,,94.61227419999977,94.62782470000002,95.12844069999937,95.11163919999944,95.12622969999939,95.12844069999937,95.12844069999937,95.12844069999937,97.74523569999928,Scenes\075a.jpg,mid,s,2.6115774999998393,None,,,,,,,,00052,001,2026-01-25_13h08.47.205,MST_test,2024.2.0,59.98080614197393,2026-01-25 13h08.59.504409 +0530,
4,0,5,n,2.40324099999998,None,5,0,4,97.76125219999994,,,,,,,,,,,,,,,,,,,,,,,,,,,,,,,,,,,,,,,,,,,,,,,,,,97.74562229999992,97.76125219999994,98.2887553999999,98.24498129999938,98.28632879999986,98.2887553999999,98.2887553999999,98.2887553999999,100.69521470000018,Objects\110b.jpg,pre,n,2.40324099999998,None,,,,,,,,00052,001,2026-01-25_13h08.47.205,MST_test,2024.2.0,59.98080614197393,2026-01-25 13h08.59.504409 +0530,
5,0,6,n,1.5662593000006382,None,6,0,5,100.71107409999968,,,,,,,,,,,,,,,,,,,,,,,,,,,,,,,,,,,,,,,,,,,,,,,,,,100.69557529999929,100.71107409999968,,101.19571339999948,101.21920119999959,101.22173070000008,101.22173070000008,101.22173070000008,102.79522449999968,Foils\082a.jpg,none,n,1.5662593000006382,None,,,,,,,,00052,001,2026-01-25_13h08.47.205,MST_test,2024.2.0,59.98080614197393,2026-01-25 13h08.59.504409 +0530,
6,0,7,o,2.4042724000000817,None,7,0,6,102.81124159999945,,,,,,,,,,,,,,,,,,,,,,,,,,,,,,,,,,,,,,,,,,,,,,,,,,102.79558029999953,102.81124159999945,103.31111839999994,103.29467320000003,103.30327599999964,103.31111839999994,103.31111839999994,103.31111839999994,105.72847469999942,Objects\135a.jpg,mid,o,2.4042724000000817,None,,,,,,,,00052,001,2026-01-25_13h08.47.205,MST_test,2024.2.0,59.98080614197393,2026-01-25 13h08.59.504409 +0530,
7,0,8,s,5.311667599999964,None,8,0,7,105.74457660000007,,,,,,,,,,,,,,,,,,,,,,,,,,,,,,,,,,,,,,,,,,,,,,,,,,105.72882899999968,105.74457660000007,106.25166319999971,106.22833129999981,106.24881539999933,106.25166319999971,106.25166319999971,106.25166319999971,111.57849009999973,Foils\scenes19.jpg,none,s,5.311667599999964,None,,,,,,,,00052,001,2026-01-25_13h08.47.205,MST_test,2024.2.0,59.98080614197393,2026-01-25 13h08.59.504409 +0530,
8,0,9,n,1.3184762999999293,None,9,0,8,111.59458459999951,,,,,,,,,,,,,,,,,,,,,,,,,,,,,,,,,,,,,,,,,,,,,,,,,,111.57885129999977,111.59458459999951,112.12502409999979,112.07818129999941,112.12289650000002,112.12502409999979,112.12502409999979,112.12502409999979,113.44497779999983,Foils\101b.jpg,none,n,1.3184762999999293,None,,,,,,,,00052,001,2026-01-25_13h08.47.205,MST_test,2024.2.0,59.98080614197393,2026-01-25 13h08.59.504409 +0530,
9,0,10,s,4.0596034999998665,None,10,0,9,113.46124789999976,,,,,,,,,,,,,,,,,,,,,,,,,,,,,,,,,,,,,,,,,,,,,,,,,,113.44535850000011,113.46124789999976,113.99241219999931,113.94502719999946,113.99002099999962,113.99241219999931,113.99241219999931,113.99241219999931,118.0619330999998,Scenes\124b.jpg,mid,s,4.0596034999998665,None,,,,,,,,00052,001,2026-01-25_13h08.47.205,MST_test,2024.2.0,59.98080614197393,2026-01-25 13h08.59.504409 +0530,
10,0,11,o,3.8585938000005626,None,11,0,10,118.07787069999995,,,,,,,,,,,,,,,,,,,,,,,,,,,,,,,,,,,,,,,,,,,,,,,,,,118.06232389999968,118.07787069999995,118.58483579999938,118.56163949999973,118.58178009999938,118.58483579999938,118.58483579999938,118.58483579999938,122.44496069999968,Scenes\020a.jpg,post,o,3.8585938000005626,None,,,,,,,,00052,001,2026-01-25_13h08.47.205,MST_test,2024.2.0,59.98080614197393,2026-01-25 13h08.59.504409 +0530,
11,0,12,o,1.799188399999366,None,12,0,11,122.46125299999949,,,,,,,,,,,,,,,,,,,,,,,,,,,,,,,,,,,,,,,,,,,,,,,,,,122.44531670000015,122.46125299999949,,122.94558319999942,122.96129159999964,122.96415389999947,122.96415389999947,122.96415389999947,124.77828749999935,Scenes\111a.jpg,mid,o,1.799188399999366,None,,,,,,,,00052,001,2026-01-25_13h08.47.205,MST_test,2024.2.0,59.98080614197393,2026-01-25 13h08.59.504409 +0530,
12,0,13,o,2.277086199999758,None,13,0,12,124.79494609999983,,,,,,,,,,,,,,,,,,,,,,,,,,,,,,,,,,,,,,,,,,,,,,,,,,124.77870660000008,124.79494609999983,125.2948981999998,125.27775949999977,125.28413229999933,125.2948981999998,125.2948981999998,125.2948981999998,127.57860160000018,Objects\098a.jpg,mid,o,2.277086199999758,None,,,,,,,,00052,001,2026-01-25_13h08.47.205,MST_test,2024.2.0,59.98080614197393,2026-01-25 13h08.59.504409 +0530,
13,0,14,o,1.4911931999995431,None,14,0,13,127.59459679999964,,,,,,,,,,,,,,,,,,,,,,,,,,,,,,,,,,,,,,,,,,,,,,,,,,127.57895310000004,127.59459679999964,128.12854719999996,128.07824459999938,128.12602909999987,128.12854719999996,128.12854719999996,128.12854719999996,129.6286317999993,Scenes\044b.jpg,pre,o,1.4911931999995431,None,,,,,,,,00052,001,2026-01-25_13h08.47.205,MST_test,2024.2.0,59.98080614197393,2026-01-25 13h08.59.504409 +0530,
14,0,15,s,4.1821850000005725,None,15,0,14,129.64452100000017,,,,,,,,,,,,,,,,,,,,,,,,,,,,,,,,,,,,,,,,,,,,,,,,,,129.62898659999973,129.64452100000017,130.1498361999993,130.12861109999994,130.14730019999934,130.1498361999993,130.1498361999993,130.1498361999993,134.3451925999998,Scenes\125a.jpg,mid,s,4.1821850000005725,None,,,,,,,,00052,001,2026-01-25_13h08.47.205,MST_test,2024.2.0,59.98080614197393,2026-01-25 13h08.59.504409 +0530,
15,0,16,s,4.463037400000758,None,16,0,15,134.3612865999994,,,,,,,,,,,,,,,,,,,,,,,,,,,,,,,,,,,,,,,,,,,,,,,,,,134.34557469999982,134.3612865999994,134.86182370000006,134.84492510000018,134.85596709999936,134.86182370000006,134.86182370000006,134.86182370000006,139.32858299999953,Objects\137a.jpg,mid,s,4.463037400000758,None,,,,,,,,00052,001,2026-01-25_13h08.47.205,MST_test,2024.2.0,59.98080614197393,2026-01-25 13h08.59.504409 +0530,
16,0,17,o,12.67944979999993,None,17,0,16,139.34436800000003,,,,,,,,,,,,,,,,,,,,,,,,,,,,,,,,,,,,,,,,,,,,,,,,,,139.32894099999976,139.34436800000003,139.84460809999928,139.82824059999984,139.83500339999955,139.84460809999928,139.84460809999928,139.84460809999928,152.52860069999952,Objects\103a.jpg,mid,o,12.67944979999993,None,,,,,,,,00052,001,2026-01-25_13h08.47.205,MST_test,2024.2.0,59.98080614197393,2026-01-25 13h08.59.504409 +0530,
17,0,18,n,4.159617999999682,None,18,0,17,152.5445611999994,,,,,,,,,,,,,,,,,,,,,,,,,,,,,,,,,,,,,,,,,,,,,,,,,,152.5290589999995,152.5445611999994,153.04482349999944,153.02834100000018,153.03739459999997,153.04482349999944,153.04482349999944,153.04482349999944,157.21185249999962,Objects\130b.jpg,post,n,4.159617999999682,None,,,,,,,,00052,001,2026-01-25_13h08.47.205,MST_test,2024.2.0,59.98080614197393,2026-01-25 13h08.59.504409 +0530,
18,0,19,n,0.8285099000004266,None,19,0,18,157.22780169999987,,,,,,,,,,,,,,,,,,,,,,,,,,,,,,,,,,,,,,,,,,,,,,,,,,157.2122105999997,157.22780169999987,157.7278778,157.71168279999983,157.7204345,157.7278778,157.7278778,157.7278778,158.56175239999993,Objects\156a.jpg,post,n,0.8285099000004266,None,,,,,,,,00052,001,2026-01-25_13h08.47.205,MST_test,2024.2.0,59.98080614197393,2026-01-25 13h08.59.504409 +0530,
19,0,20,s,5.372706199999811,None,20,0,19,158.5776855999993,,,,,,,,,,,,,,,,,,,,,,,,,,,,,,,,,,,,,,,,,,,,,,,,,,158.56213039999966,158.5776855999993,159.07932989999972,159.06169109999973,159.0770576999994,159.07932989999972,159.07932989999972,159.07932989999972,164.46197940000002,Scenes\071a.jpg,mid,s,5.372706199999811,None,,,,,,,,00052,001,2026-01-25_13h08.47.205,MST_test,2024.2.0,59.98080614197393,2026-01-25 13h08.59.504409 +0530,
20,0,21,n,1.7251591000003828,None,21,0,20,164.47822029999952,,,,,,,,,,,,,,,,,,,,,,,,,,,,,,,,,,,,,,,,,,,,,,,,,,164.46237419999943,164.47822029999952,164.99085449999984,164.9617601,164.9883203999998,164.99085449999984,164.99085449999984,164.99085449999984,166.72871940000005,Foils\090a.jpg,none,n,1.7251591000003828,None,,,,,,,,00052,001,2026-01-25_13h08.47.205,MST_test,2024.2.0,59.98080614197393,2026-01-25 13h08.59.504409 +0530,
21,0,22,n,5.789836699999796,None,22,0,21,166.74424689999978,,,,,,,,,,,,,,,,,,,,,,,,,,,,,,,,,,,,,,,,,,,,,,,,,,166.72910390000015,166.74424689999978,167.2702301999998,167.22835909999958,167.26773869999943,167.2702301999998,167.2702301999998,167.2702301999998,173.06182179999996,Scenes\061b.jpg,mid,n,5.789836699999796,None,,,,,,,,00052,001,2026-01-25_13h08.47.205,MST_test,2024.2.0,59.98080614197393,2026-01-25 13h08.59.504409 +0530,
22,0,23,o,1.6087673000001814,None,23,0,22,173.0778719,,,,,,,,,,,,,,,,,,,,,,,,,,,,,,,,,,,,,,,,,,,,,,,,,,173.06217379999998,173.0778719,173.57921319999969,173.56173510000008,173.57150209999963,173.57921319999969,173.57921319999969,173.57921319999969,175.19520680000005,Objects\093a.jpg,post,o,1.6087673000001814,None,,,,,,,,00052,001,2026-01-25_13h08.47.205,MST_test,2024.2.0,59.98080614197393,2026-01-25 13h08.59.504409 +0530,
23,0,24,s,2.0058881000004476,None,24,0,23,175.21131549999973,,,,,,,,,,,,,,,,,,,,,,,,,,,,,,,,,,,,,,,,,,,,,,,,,,175.1955795999993,175.21131549999973,175.73426589999963,175.69497429999956,175.73156319999998,175.73426589999963,175.73426589999963,175.73426589999963,177.74499959999957,Objects\136b.jpg,post,s,2.0058881000004476,None,,,,,,,,00052,001,2026-01-25_13h08.47.205,MST_test,2024.2.0,59.98080614197393,2026-01-25 13h08.59.504409 +0530,
24,0,25,s,3.839523499999814,None,25,0,24,177.76136709999992,,,,,,,,,,,,,,,,,,,,,,,,,,,,,,,,,,,,,,,,,,,,,,,,,,177.74535250000008,177.76136709999992,178.26811309999994,178.24497489999976,178.2658093,178.26811309999994,178.26811309999994,178.26811309999994,182.11199739999938,Foils\086a.jpg,none,s,3.839523499999814,None,,,,,,,,00052,001,2026-01-25_13h08.47.205,MST_test,2024.2.0,59.98080614197393,2026-01-25 13h08.59.504409 +0530,
25,0,26,n,4.0481730000001335,None,26,0,25,182.12782089999928,,,,,,,,,,,,,,,,,,,,,,,,,,,,,,,,,,,,,,,,,,,,,,,,,,182.1123950000001,182.12782089999928,182.6991736,182.6117878999994,182.69654910000008,182.6991736,182.6991736,182.6991736,186.76198680000016,Scenes\015b.jpg,mid,n,4.0481730000001335,None,,,,,,,,00052,001,2026-01-25_13h08.47.205,MST_test,2024.2.0,59.98080614197393,2026-01-25 13h08.59.504409 +0530,
26,0,27,n,1.173388199999863,None,27,0,26,186.7779916999998,,,,,,,,,,,,,,,,,,,,,,,,,,,,,,,,,,,,,,,,,,,,,,,,,,186.76234320000003,186.7779916999998,187.27858359999937,187.26211739999962,187.2694281999993,187.27858359999937,187.27858359999937,187.27858359999937,188.4620049999994,Foils\scenes1.jpg,none,n,1.173388199999863,None,,,,,,,,00052,001,2026-01-25_13h08.47.205,MST_test,2024.2.0,59.98080614197393,2026-01-25 13h08.59.504409 +0530,
27,0,28,s,2.620269400000325,None,28,0,27,188.47874880000018,,,,,,,,,,,,,,,,,,,,,,,,,,,,,,,,,,,,,,,,,,,,,,,,,,188.4623818,188.47874880000018,188.99111569999968,188.96168089999992,188.9889336999995,188.99111569999968,188.99111569999968,188.99111569999968,191.6119646999996,Objects\157b.jpg,post,s,2.620269400000325,None,,,,,,,,00052,001,2026-01-25_13h08.47.205,MST_test,2024.2.0,59.98080614197393,2026-01-25 13h08.59.504409 +0530,
28,0,29,o,1.4349436000002243,None,29,0,28,191.62791169999946,,,,,,,,,,,,,,,,,,,,,,,,,,,,,,,,,,,,,,,,,,,,,,,,,,191.61232119999931,191.62791169999946,192.12837049999962,192.11173409999992,192.11828689999948,192.12837049999962,192.12837049999962,192.12837049999962,193.57841499999995,Objects\129a.jpg,mid,o,1.4349436000002243,None,,,,,,,,00052,001,2026-01-25_13h08.47.205,MST_test,2024.2.0,59.98080614197393,2026-01-25 13h08.59.504409 +0530,
29,0,30,s,3.553851699999541,None,30,0,29,193.59461349999947,,,,,,,,,,,,,,,,,,,,,,,,,,,,,,,,,,,,,,,,,,,,,,,,,,193.57879319999938,193.59461349999947,194.13815749999958,194.07839849999982,194.13609309999993,194.13815749999958,194.13815749999958,194.13815749999958,197.69501739999941,Objects\086b.jpg,post,s,3.553851699999541,None,,,,,,,,00052,001,2026-01-25_13h08.47.205,MST_test,2024.2.0,59.98080614197393,2026-01-25 13h08.59.504409 +0530,
30,0,31,n,1.4042798999998922,None,31,0,30,197.7111200999998,,,,,,,,,,,,,,,,,,,,,,,,,,,,,,,,,,,,,,,,,,,,,,,,,,197.69544119999955,197.7111200999998,198.32735779999985,198.19506869999987,198.32344899999953,198.32735779999985,198.32735779999985,198.32735779999985,199.74515410000004,Foils\scenes25.jpg,none,n,1.4042798999998922,None,,,,,,,,00052,001,2026-01-25_13h08.47.205,MST_test,2024.2.0,59.98080614197393,2026-01-25 13h08.59.504409 +0530,
31,0,32,n,2.5723550000002433,None,32,0,31,199.76129020000008,,,,,,,,,,,,,,,,,,,,,,,,,,,,,,,,,,,,,,,,,,,,,,,,,,199.7455129,199.76129020000008,200.30308149999928,200.2450662000001,200.30117939999946,200.30308149999928,200.30308149999928,200.30308149999928,202.87834250000014,Foils\scenes2.jpg,none,n,2.5723550000002433,None,,,,,,,,00052,001,2026-01-25_13h08.47.205,MST_test,2024.2.0,59.98080614197393,2026-01-25 13h08.59.504409 +0530,
32,0,33,s,1.525026600000274,None,33,0,32,202.8946718999996,,,,,,,,,,,,,,,,,,,,,,,,,,,,,,,,,,,,,,,,,,,,,,,,,,202.87874339999962,202.8946718999996,203.4223581999995,203.37833760000012,203.4200338999999,203.4223581999995,203.4223581999995,203.4223581999995,204.96197119999943,Objects\155b.jpg,pre,s,1.525026600000274,None,,,,,,,,00052,001,2026-01-25_13h08.47.205,MST_test,2024.2.0,59.98080614197393,2026-01-25 13h08.59.504409 +0530,
33,0,34,n,1.1149599000000308,None,34,0,33,204.97797050000008,,,,,,,,,,,,,,,,,,,,,,,,,,,,,,,,,,,,,,,,,,,,,,,,,,204.9623289000001,204.97797050000008,205.48037919999933,205.4617430999997,205.4778821,205.48037919999933,205.48037919999933,205.48037919999933,206.6118123999995,Scenes\120a.jpg,pre,n,1.1149599000000308,None,,,,,,,,00052,001,2026-01-25_13h08.47.205,MST_test,2024.2.0,59.98080614197393,2026-01-25 13h08.59.504409 +0530,
34,0,35,n,0.9634328000001915,None,35,0,34,206.62781379999979,,,,,,,,,,,,,,,,,,,,,,,,,,,,,,,,,,,,,,,,,,,,,,,,,,206.61216669999976,206.62781379999979,207.12854309999966,207.11201699999947,207.12083900000016,207.12854309999966,207.12854309999966,207.12854309999966,208.09511209999982,Scenes\053a.jpg,post,n,0.9634328000001915,None,,,,,,,,00052,001,2026-01-25_13h08.47.205,MST_test,2024.2.0,59.98080614197393,2026-01-25 13h08.59.504409 +0530,
35,0,36,n,1.1358399000000645,None,36,0,35,208.11134839999977,,,,,,,,,,,,,,,,,,,,,,,,,,,,,,,,,,,,,,,,,,,,,,,,,,208.09547680000014,208.11134839999977,208.61152690000017,208.59479099999953,208.6081310999998,208.61152690000017,208.61152690000017,208.61152690000017,209.76203039999928,Scenes\152a.jpg,post,n,1.1358399000000645,None,,,,,,,,00052,001,2026-01-25_13h08.47.205,MST_test,2024.2.0,59.98080614197393,2026-01-25 13h08.59.504409 +0530,
36,0,37,n,1.041537000000062,None,37,0,36,209.77812949999952,,,,,,,,,,,,,,,,,,,,,,,,,,,,,,,,,,,,,,,,,,,,,,,,,,209.76238490000014,209.77812949999952,210.31448850000015,210.26175759999933,210.31109089999973,210.31448850000015,210.31448850000015,210.31448850000015,211.3618435999997,Scenes\090b.jpg,post,n,1.041537000000062,None,,,,,,,,00052,001,2026-01-25_13h08.47.205,MST_test,2024.2.0,59.98080614197393,2026-01-25 13h08.59.504409 +0530,
37,0,38,s,2.965219299999262,None,38,0,37,211.37795219999953,,,,,,,,,,,,,,,,,,,,,,,,,,,,,,,,,,,,,,,,,,,,,,,,,,211.36220520000006,211.37795219999953,211.87864199999967,211.86179829999946,211.8703390999999,211.87864199999967,211.87864199999967,211.87864199999967,214.84536349999962,Objects\022a.jpg,pre,s,2.965219299999262,None,,,,,,,,00052,001,2026-01-25_13h08.47.205,MST_test,2024.2.0,59.98080614197393,2026-01-25 13h08.59.504409 +0530,
38,0,39,s,1.865282799999477,None,39,0,38,214.8612177999994,,,,,,,,,,,,,,,,,,,,,,,,,,,,,,,,,,,,,,,,,,,,,,,,,,214.84572729999945,214.8612177999994,215.3790070999994,215.34496020000006,215.37695559999975,215.3790070999994,215.3790070999994,215.3790070999994,217.24570559999938,Objects\166b.jpg,mid,s,1.865282799999477,None,,,,,,,,00052,001,2026-01-25_13h08.47.205,MST_test,2024.2.0,59.98080614197393,2026-01-25 13h08.59.504409 +0530,
39,0,40,o,4.723087100000157,None,40,0,39,217.26181859999997,,,,,,,,,,,,,,,,,,,,,,,,,,,,,,,,,,,,,,,,,,,,,,,,,,217.24610409999968,217.26181859999997,217.7844513,217.74495579999984,217.78184019999935,217.7844513,217.7844513,217.7844513,222.51167879999957,Scenes\097b.jpg,mid,o,4.723087100000157,None,,,,,,,,00052,001,2026-01-25_13h08.47.205,MST_test,2024.2.0,59.98080614197393,2026-01-25 13h08.59.504409 +0530,
40,0,41,s,1.4016081999998278,None,41,0,40,222.52767390000008,,,,,,,,,,,,,,,,,,,,,,,,,,,,,,,,,,,,,,,,,,,,,,,,,,222.51203429999987,222.52767390000008,223.07437949999985,223.01177000000007,223.07121599999937,223.07437949999985,223.07437949999985,223.07437949999985,224.47835169999962,Objects\097b.jpg,mid,s,1.4016081999998278,None,,,,,,,,00052,001,2026-01-25_13h08.47.205,MST_test,2024.2.0,59.98080614197393,2026-01-25 13h08.59.504409 +0530,
41,0,42,s,3.951583000000028,None,42,0,41,224.49465979999968,,,,,,,,,,,,,,,,,,,,,,,,,,,,,,,,,,,,,,,,,,,,,,,,,,224.47870729999977,224.49465979999968,225.02773819999948,224.9784399,225.02553809999972,225.02773819999948,225.02773819999948,225.02773819999948,228.99538639999992,Objects\072b.jpg,mid,s,3.951583000000028,None,,,,,,,,00052,001,2026-01-25_13h08.47.205,MST_test,2024.2.0,59.98080614197393,2026-01-25 13h08.59.504409 +0530,
42,0,43,n,2.2603589000000284,None,43,0,42,229.01106509999954,,,,,,,,,,,,,,,,,,,,,,,,,,,,,,,,,,,,,,,,,,,,,,,,,,228.99573650000002,229.01106509999954,229.5116269,229.49504549999983,229.50391020000006,229.5116269,229.5116269,229.5116269,231.77784619999966,Foils\018a.jpg,none,n,2.2603589000000284,None,,,,,,,,00052,001,2026-01-25_13h08.47.205,MST_test,2024.2.0,59.98080614197393,2026-01-25 13h08.59.504409 +0530,
43,0,44,s,8.106263700000454,None,44,0,43,231.79411639999944,,,,,,,,,,,,,,,,,,,,,,,,,,,,,,,,,,,,,,,,,,,,,,,,,,231.77796369999942,231.79411639999944,,232.27827009999965,232.3350894999994,232.33745629999976,232.33745629999976,232.33745629999976,240.44512359999953,Scenes\136b.jpg,pre,s,8.106263700000454,None,,,,,,,,00052,001,2026-01-25_13h08.47.205,MST_test,2024.2.0,59.98080614197393,2026-01-25 13h08.59.504409 +0530,
44,0,45,n,5.105887699999585,None,45,0,44,240.4615114999997,,,,,,,,,,,,,,,,,,,,,,,,,,,,,,,,,,,,,,,,,,,,,,,,,,240.44549109999934,240.4615114999997,241.0256978999996,240.9450552999997,241.02312639999946,241.0256978999996,241.0256978999996,241.0256978999996,246.14537500000006,Scenes\054b.jpg,pre,n,5.105887699999585,None,,,,,,,,00052,001,2026-01-25_13h08.47.205,MST_test,2024.2.0,59.98080614197393,2026-01-25 13h08.59.504409 +0530,
45,0,46,n,1.5841554999997243,None,46,0,45,246.16113210000003,,,,,,,,,,,,,,,,,,,,,,,,,,,,,,,,,,,,,,,,,,,,,,,,,,246.1457309999996,246.16113210000003,246.6833659999993,246.64500709999993,246.68119119999938,246.6833659999993,246.6833659999993,246.6833659999993,248.27853049999976,Foils\scenes17.jpg,none,n,1.5841554999997243,None,,,,,,,,00052,001,2026-01-25_13h08.47.205,MST_test,2024.2.0,59.98080614197393,2026-01-25 13h08.59.504409 +0530,
46,0,47,n,2.35022409999965,None,47,0,46,248.29455809999945,,,,,,,,,,,,,,,,,,,,,,,,,,,,,,,,,,,,,,,,,,,,,,,,,,248.27891229999932,248.29455809999945,248.8217139999997,248.77826379999988,248.8193572,248.8217139999997,248.8217139999997,248.8217139999997,251.17839800000002,Scenes\140b.jpg,post,n,2.35022409999965,None,,,,,,,,00052,001,2026-01-25_13h08.47.205,MST_test,2024.2.0,59.98080614197393,2026-01-25 13h08.59.504409 +0530,
47,0,48,o,3.8769929000000047,None,48,0,47,251.19454570000016,,,,,,,,,,,,,,,,,,,,,,,,,,,,,,,,,,,,,,,,,,,,,,,,,,251.17873859999963,251.19454570000016,251.69504830000005,251.67829079999956,251.6871556999995,251.69504830000005,251.69504830000005,251.69504830000005,255.57832989999952,Objects\091a.jpg,mid,o,3.8769929000000047,None,,,,,,,,00052,001,2026-01-25_13h08.47.205,MST_test,2024.2.0,59.98080614197393,2026-01-25 13h08.59.504409 +0530,
48,0,49,o,2.089915500000643,None,49,0,48,255.59478909999962,,,,,,,,,,,,,,,,,,,,,,,,,,,,,,,,,,,,,,,,,,,,,,,,,,255.5786862999994,255.59478909999962,256.0984828999999,256.0784331999994,256.09550839999974,256.0984828999999,256.0984828999999,256.0984828999999,258.1953980999997,Scenes\078a.jpg,pre,o,2.089915500000643,None,,,,,,,,00052,001,2026-01-25_13h08.47.205,MST_test,2024.2.0,59.98080614197393,2026-01-25 13h08.59.504409 +0530,
49,0,50,n,0.8631550000000061,None,50,0,49,258.21140379999997,,,,,,,,,,,,,,,,,,,,,,,,,,,,,,,,,,,,,,,,,,,,,,,,,,258.1957533999994,258.21140379999997,258.74084649999986,258.69480979999935,258.7376370000002,258.74084649999986,258.74084649999986,258.74084649999986,259.61209189999954,Objects\100b.jpg,pre,n,0.8631550000000061,None,,,,,,,,00052,001,2026-01-25_13h08.47.205,MST_test,2024.2.0,59.98080614197393,2026-01-25 13h08.59.504409 +0530,
50,0,51,s,1.8560986999991655,None,51,0,50,259.6279518000001,,,,,,,,,,,,,,,,,,,,,,,,,,,,,,,,,,,,,,,,,,,,,,,,,,259.6124629999995,259.6279518000001,260.15532619999976,260.1117343999995,260.15263369999957,260.15532619999976,260.15532619999976,260.15532619999976,262.0121288999999,Objects\139b.jpg,post,s,1.8560986999991655,None,,,,,,,,00052,001,2026-01-25_13h08.47.205,MST_test,2024.2.0,59.98080614197393,2026-01-25 13h08.59.504409 +0530,
51,0,52,o,4.58483939999951,None,52,0,51,262.02792359999967,,,,,,,,,,,,,,,,,,,,,,,,,,,,,,,,,,,,,,,,,,,,,,,,,,262.01248039999973,262.02792359999967,262.5471564999998,262.5118542,262.5450387000001,262.5471564999998,262.5471564999998,262.5471564999998,267.14537070000006,Objects\045b.jpg,mid,o,4.58483939999951,None,,,,,,,,00052,001,2026-01-25_13h08.47.205,MST_test,2024.2.0,59.98080614197393,2026-01-25 13h08.59.504409 +0530,
52,0,53,o,1.3341342000003351,None,53,0,52,267.16137139999955,,,,,,,,,,,,,,,,,,,,,,,,,,,,,,,,,,,,,,,,,,,,,,,,,,267.14579669999966,267.16137139999955,267.66133420000006,267.64470749999964,267.6528794999995,267.66133420000006,267.66133420000006,267.66133420000006,269.0120868999993,Objects\058a.jpg,post,o,1.3341342000003351,None,,,,,,,,00052,001,2026-01-25_13h08.47.205,MST_test,2024.2.0,59.98080614197393,2026-01-25 13h08.59.504409 +0530,
53,0,54,s,2.5237366000001202,None,54,0,53,269.0280180999998,,,,,,,,,,,,,,,,,,,,,,,,,,,,,,,,,,,,,,,,,,,,,,,,,,269.0124399999995,269.0280180999998,269.5281924000001,269.5117995999999,269.5203222,269.5281924000001,269.5281924000001,269.5281924000001,272.0625366999993,Objects\150a.jpg,mid,s,2.5237366000001202,None,,,,,,,,00052,001,2026-01-25_13h08.47.205,MST_test,2024.2.0,59.98080614197393,2026-01-25 13h08.59.504409 +0530,
54,0,55,s,1.3212496999994983,None,55,0,54,272.0780212999998,,,,,,,,,,,,,,,,,,,,,,,,,,,,,,,,,,,,,,,,,,,,,,,,,,272.0629248999994,272.0780212999998,272.5782959999997,272.56181769999966,272.5686762999994,272.5782959999997,272.5782959999997,272.5782959999997,273.9124056999999,Objects\099a.jpg,post,s,1.3212496999994983,None,,,,,,,,00052,001,2026-01-25_13h08.47.205,MST_test,2024.2.0,59.98080614197393,2026-01-25 13h08.59.504409 +0530,
55,0,56,o,1.1437642999999298,None,56,0,55,273.9277855,,,,,,,,,,,,,,,,,,,,,,,,,,,,,,,,,,,,,,,,,,,,,,,,,,273.9127761999998,273.9277855,274.42823640000006,274.4117556000001,274.4201261999997,274.42823640000006,274.42823640000006,274.42823640000006,275.57874079999965,Objects\030a.jpg,post,o,1.1437642999999298,None,,,,,,,,00052,001,2026-01-25_13h08.47.205,MST_test,2024.2.0,59.98080614197393,2026-01-25 13h08.59.504409 +0530,
56,0,57,n,2.555890200000249,None,57,0,56,275.5948258999997,,,,,,,,,,,,,,,,,,,,,,,,,,,,,,,,,,,,,,,,,,,,,,,,,,275.5791484000001,275.5948258999997,276.1435075999998,276.07841709999957,276.1403972999997,276.1435075999998,276.1435075999998,276.1435075999998,278.7121638999997,Scenes\127b.jpg,pre,n,2.555890200000249,None,,,,,,,,00052,001,2026-01-25_13h08.47.205,MST_test,2024.2.0,59.98080614197393,2026-01-25 13h08.59.504409 +0530,
57,0,58,s,4.558957100000043,None,58,0,57,278.7288176000002,,,,,,,,,,,,,,,,,,,,,,,,,,,,,,,,,,,,,,,,,,,,,,,,,,278.71263739999995,278.7288176000002,279.2286749999994,279.2118338999999,279.22623229999954,279.2286749999994,279.2286749999994,279.2286749999994,283.79536539999935,Scenes\073a.jpg,post,s,4.558957100000043,None,,,,,,,,00052,001,2026-01-25_13h08.47.205,MST_test,2024.2.0,59.98080614197393,2026-01-25 13h08.59.504409 +0530,
58,0,59,n,0.8917480999998588,None,59,0,58,283.81120849999934,,,,,,,,,,,,,,,,,,,,,,,,,,,,,,,,,,,,,,,,,,,,,,,,,,283.7957430999995,283.81120849999934,284.3117063999998,284.2954018999999,284.30800139999974,284.3117063999998,284.3117063999998,284.3117063999998,285.21219329999985,Foils\009a.jpg,none,n,0.8917480999998588,None,,,,,,,,00052,001,2026-01-25_13h08.47.205,MST_test,2024.2.0,59.98080614197393,2026-01-25 13h08.59.504409 +0530,
59,0,60,o,1.4909751999994114,None,60,0,59,285.2277760999996,,,,,,,,,,,,,,,,,,,,,,,,,,,,,,,,,,,,,,,,,,,,,,,,,,285.2125559999995,285.2277760999996,285.7283546999997,285.7118475999996,285.71744989999934,285.7283546999997,285.7283546999997,285.7283546999997,287.2284523999997,Objects\037a.jpg,mid,o,1.4909751999994114,None,,,,,,,,00052,001,2026-01-25_13h08.47.205,MST_test,2024.2.0,59.98080614197393,2026-01-25 13h08.59.504409 +0530,
60,0,61,o,1.0183566000005158,None,61,0,60,287.24447770000006,,,,,,,,,,,,,,,,,,,,,,,,,,,,,,,,,,,,,,,,,,,,,,,,,,287.22869399999945,287.24447770000006,287.7449692,287.72871209999994,287.7349691999998,287.7449692,287.7449692,287.7449692,288.7787502000001,Objects\117a.jpg,mid,o,1.0183566000005158,None,,,,,,,,00052,001,2026-01-25_13h08.47.205,MST_test,2024.2.0,59.98080614197393,2026-01-25 13h08.59.504409 +0530,
61,0,62,n,1.1491837000003216,None,62,0,61,288.79454989999977,,,,,,,,,,,,,,,,,,,,,,,,,,,,,,,,,,,,,,,,,,,,,,,,,,288.77911529999983,288.79454989999977,289.2953486999995,289.2785758,289.2858323999999,289.2953486999995,289.2953486999995,289.2953486999995,290.44562640000004,Foils\scenes4.jpg,none,n,1.1491837000003216,None,,,,,,,,00052,001,2026-01-25_13h08.47.205,MST_test,2024.2.0,59.98080614197393,2026-01-25 13h08.59.504409 +0530,
62,0,63,n,1.2451098000001366,None,63,0,62,290.4614628999998,,,,,,,,,,,,,,,,,,,,,,,,,,,,,,,,,,,,,,,,,,,,,,,,,,290.4460204999996,290.4614628999998,290.9753774999999,290.9451024,290.9731480999999,290.9753774999999,290.9753774999999,290.9753774999999,292.2287437999994,Objects\064b.jpg,post,n,1.2451098000001366,None,,,,,,,,00052,001,2026-01-25_13h08.47.205,MST_test,2024.2.0,59.98080614197393,2026-01-25 13h08.59.504409 +0530,
63,0,64,s,5.2434194000006755,None,64,0,63,292.2447155,,,,,,,,,,,,,,,,,,,,,,,,,,,,,,,,,,,,,,,,,,,,,,,,,,292.22910049999973,292.2447155,292.7445715999993,292.72833829999945,292.7369861999996,292.7445715999993,292.7445715999993,292.7445715999993,297.99536309999985,Objects\008b.jpg,mid,s,5.2434194000006755,None,,,,,,,,00052,001,2026-01-25_13h08.47.205,MST_test,2024.2.0,59.98080614197393,2026-01-25 13h08.59.504409 +0530,
64,0,65,n,1.2122392000001128,None,65,0,64,298.01147690000016,,,,,,,,,,,,,,,,,,,,,,,,,,,,,,,,,,,,,,,,,,,,,,,,,,297.99578139999994,298.01147690000016,298.5511300999997,298.49511689999963,298.5482267999996,298.5511300999997,298.5511300999997,298.5511300999997,299.7784332000001,Scenes\040b.jpg,pre,n,1.2122392000001128,None,,,,,,,,00052,001,2026-01-25_13h08.47.205,MST_test,2024.2.0,59.98080614197393,2026-01-25 13h08.59.504409 +0530,
65,0,66,n,0.9782480999992913,None,66,0,65,299.7947753999997,,,,,,,,,,,,,,,,,,,,,,,,,,,,,,,,,,,,,,,,,,,,,,,,,,299.77879440000015,299.7947753999997,300.3217715999999,300.27849100000003,300.3191982999997,300.3217715999999,300.3217715999999,300.3217715999999,301.31183489999967,Objects\073b.jpg,mid,n,0.9782480999992913,None,,,,,,,,00052,001,2026-01-25_13h08.47.205,MST_test,2024.2.0,59.98080614197393,2026-01-25 13h08.59.504409 +0530,
66,0,67,n,0.9327857999996922,None,67,0,66,301.3281164,,,,,,,,,,,,,,,,,,,,,,,,,,,,,,,,,,,,,,,,,,,,,,,,,,301.31221279999954,301.3281164,301.8305985999996,301.8119612999999,301.82799459999933,301.8305985999996,301.8305985999996,301.8305985999996,302.77879870000015,Scenes\183a.jpg,post,n,0.9327857999996922,None,,,,,,,,00052,001,2026-01-25_13h08.47.205,MST_test,2024.2.0,59.98080614197393,2026-01-25 13h08.59.504409 +0530,
67,0,68,o,6.100330799999938,None,68,0,67,302.7947783999998,,,,,,,,,,,,,,,,,,,,,,,,,,,,,,,,,,,,,,,,,,,,,,,,,,302.7791505999994,302.7947783999998,303.29525829999966,303.2785106000001,303.2899024999997,303.29525829999966,303.29525829999966,303.29525829999966,309.4120800999999,Scenes\164a.jpg,post,o,6.100330799999938,None,,,,,,,,00052,001,2026-01-25_13h08.47.205,MST_test,2024.2.0,59.98080614197393,2026-01-25 13h08.59.504409 +0530,
68,0,69,n,1.2349770999999237,None,69,0,68,309.4281194999994,,,,,,,,,,,,,,,,,,,,,,,,,,,,,,,,,,,,,,,,,,,,,,,,,,309.4124376999998,309.4281194999994,309.92836089999946,309.91179889999967,309.9216284999993,309.92836089999946,309.92836089999946,309.92836089999946,311.17877099999987,Objects\094b.jpg,mid,n,1.2349770999999237,None,,,,,,,,00052,001,2026-01-25_13h08.47.205,MST_test,2024.2.0,59.98080614197393,2026-01-25 13h08.59.504409 +0530,
69,0,70,n,1.2329247999996369,None,70,0,69,311.1946342000001,,,,,,,,,,,,,,,,,,,,,,,,,,,,,,,,,,,,,,,,,,,,,,,,,,311.1791317999996,311.1946342000001,311.7144051999994,311.67855659999987,311.71145590000015,311.7144051999994,311.7144051999994,311.7144051999994,312.9617886999995,Foils\034a.jpg,none,n,1.2329247999996369,None,,,,,,,,00052,001,2026-01-25_13h08.47.205,MST_test,2024.2.0,59.98080614197393,2026-01-25 13h08.59.504409 +0530,
70,0,71,n,0.9201575999995839,None,71,0,70,312.9777977999993,,,,,,,,,,,,,,,,,,,,,,,,,,,,,,,,,,,,,,,,,,,,,,,,,,312.9621532000001,312.9777977999993,313.49985109999943,313.46159589999934,313.4961530999999,313.49985109999943,313.49985109999943,313.49985109999943,314.42879360000006,Foils\scenes11.jpg,none,n,0.9201575999995839,None,,,,,,,,00052,001,2026-01-25_13h08.47.205,MST_test,2024.2.0,59.98080614197393,2026-01-25 13h08.59.504409 +0530,
71,0,72,s,1.4846448999996937,None,72,0,71,314.4447984999997,,,,,,,,,,,,,,,,,,,,,,,,,,,,,,,,,,,,,,,,,,,,,,,,,,314.4291766999995,314.4447984999997,314.96782259999964,314.92837319999944,314.96549270000014,314.96782259999964,314.96782259999964,314.96782259999964,316.4619425000001,Scenes\123b.jpg,mid,s,1.4846448999996937,None,,,,,,,,00052,001,2026-01-25_13h08.47.205,MST_test,2024.2.0,59.98080614197393,2026-01-25 13h08.59.504409 +0530,
72,0,73,s,1.3922611000007237,None,73,0,72,316.4781548000001,,,,,,,,,,,,,,,,,,,,,,,,,,,,,,,,,,,,,,,,,,,,,,,,,,316.4622905999995,316.4781548000001,316.97971059999963,316.96162709999953,316.97691639999994,316.97971059999963,316.97971059999963,316.97971059999963,318.3787818999999,Scenes\121a.jpg,pre,s,1.3922611000007237,None,,,,,,,,00052,001,2026-01-25_13h08.47.205,MST_test,2024.2.0,59.98080614197393,2026-01-25 13h08.59.504409 +0530,
73,0,74,s,3.591019700000288,None,74,0,73,318.39551519999986,,,,,,,,,,,,,,,,,,,,,,,,,,,,,,,,,,,,,,,,,,,,,,,,,,318.3791326999999,318.39551519999986,318.90060170000015,318.8785838999993,318.8977544999998,318.90060170000015,318.90060170000015,318.90060170000015,322.49551449999944,Foils\scenes28.jpg,none,s,3.591019700000288,None,,,,,,,,00052,001,2026-01-25_13h08.47.205,MST_test,2024.2.0,59.98080614197393,2026-01-25 13h08.59.504409 +0530,
74,0,75,o,1.6769194999997126,None,75,0,74,322.5115294999996,,,,,,,,,,,,,,,,,,,,,,,,,,,,,,,,,,,,,,,,,,,,,,,,,,322.4958921999996,322.5115294999996,323.01510489999964,322.9952014999999,323.01206420000017,323.01510489999964,323.01510489999964,323.01510489999964,324.6955229999994,Scenes\093a.jpg,post,o,1.6769194999997126,None,,,,,,,,00052,001,2026-01-25_13h08.47.205,MST_test,2024.2.0,59.98080614197393,2026-01-25 13h08.59.504409 +0530,
75,0,76,o,1.3835257999999158,None,76,0,75,324.7114094999997,,,,,,,,,,,,,,,,,,,,,,,,,,,,,,,,,,,,,,,,,,,,,,,,,,324.69596569999976,324.7114094999997,325.2120587999998,325.1952032999998,325.20480039999984,325.2120587999998,325.2120587999998,325.2120587999998,326.61203939999996,Objects\036a.jpg,pre,o,1.3835257999999158,None,,,,,,,,00052,001,2026-01-25_13h08.47.205,MST_test,2024.2.0,59.98080614197393,2026-01-25 13h08.59.504409 +0530,
76,0,77,o,4.915892299999541,None,77,0,76,326.6278223999998,,,,,,,,,,,,,,,,,,,,,,,,,,,,,,,,,,,,,,,,,,,,,,,,,,326.61239039999964,326.6278223999998,327.12809370000014,327.1116340999997,327.12089190000006,327.12809370000014,327.12809370000014,327.12809370000014,332.0456463999999,Objects\089b.jpg,post,o,4.915892299999541,None,,,,,,,,00052,001,2026-01-25_13h08.47.205,MST_test,2024.2.0,59.98080614197393,2026-01-25 13h08.59.504409 +0530,
77,0,78,o,2.1500919999998587,None,78,0,77,332.06145190000007,,,,,,,,,,,,,,,,,,,,,,,,,,,,,,,,,,,,,,,,,,,,,,,,,,332.0461175999999,332.06145190000007,332.5659563999998,332.5449957999999,332.56343709999965,332.5659563999998,332.5659563999998,332.5659563999998,334.7289442000001,Scenes\001a.jpg,post,o,2.1500919999998587,None,,,,,,,,00052,001,2026-01-25_13h08.47.205,MST_test,2024.2.0,59.98080614197393,2026-01-25 13h08.59.504409 +0530,
78,0,79,s,1.6761382999993657,None,79,0,78,334.74479789999987,,,,,,,,,,,,,,,,,,,,,,,,,,,,,,,,,,,,,,,,,,,,,,,,,,334.7293304999994,334.74479789999987,335.2481807999993,335.2285917999998,335.2456014999998,335.2481807999993,335.2481807999993,335.2481807999993,336.9285784999993,Scenes\019b.jpg,post,s,1.6761382999993657,None,,,,,,,,00052,001,2026-01-25_13h08.47.205,MST_test,2024.2.0,59.98080614197393,2026-01-25 13h08.59.504409 +0530,
79,0,80,n,5.559893999999986,None,80,0,79,336.9448451999997,,,,,,,,,,,,,,,,,,,,,,,,,,,,,,,,,,,,,,,,,,,,,,,,,,336.92893319999985,336.9448451999997,337.4842100999995,337.42856479999955,337.4818545999997,337.4842100999995,337.4842100999995,337.4842100999995,343.04565980000007,Objects\188b.jpg,mid,n,5.559893999999986,None,,,,,,,,00052,001,2026-01-25_13h08.47.205,MST_test,2024.2.0,59.98080614197393,2026-01-25 13h08.59.504409 +0530,
80,0,81,s,2.2336662999996406,None,81,0,80,343.0614904999993,,,,,,,,,,,,,,,,,,,,,,,,,,,,,,,,,,,,,,,,,,,,,,,,,,343.0460521999994,343.0614904999993,343.5617843,343.5452335,343.5539362999998,343.5617843,343.5617843,343.5617843,345.81179079999947,Objects\190a.jpg,pre,s,2.2336662999996406,None,,,,,,,,00052,001,2026-01-25_13h08.47.205,MST_test,2024.2.0,59.98080614197393,2026-01-25 13h08.59.504409 +0530,
81,0,82,o,1.2831742999997005,None,82,0,81,345.8278921000001,,,,,,,,,,,,,,,,,,,,,,,,,,,,,,,,,,,,,,,,,,,,,,,,,,345.8121416999993,345.8278921000001,346.3282946999998,346.3118967999999,346.32027019999987,346.3282946999998,346.3282946999998,346.3282946999998,347.6286610999996,Objects\006a.jpg,post,o,1.2831742999997005,None,,,,,,,,00052,001,2026-01-25_13h08.47.205,MST_test,2024.2.0,59.98080614197393,2026-01-25 13h08.59.504409 +0530,
82,0,83,n,1.2698273999994854,None,83,0,82,347.6448313000001,,,,,,,,,,,,,,,,,,,,,,,,,,,,,,,,,,,,,,,,,,,,,,,,,,347.6290500999994,347.6448313000001,348.15021029999934,348.1284941999993,348.1478053000001,348.15021029999934,348.15021029999934,348.15021029999934,349.42876799999976,Scenes\060a.jpg,pre,n,1.2698273999994854,None,,,,,,,,00052,001,2026-01-25_13h08.47.205,MST_test,2024.2.0,59.98080614197393,2026-01-25 13h08.59.504409 +0530,
83,0,84,o,1.3644619999995484,None,84,0,83,349.4448351000001,,,,,,,,,,,,,,,,,,,,,,,,,,,,,,,,,,,,,,,,,,,,,,,,,,349.4291347999997,349.4448351000001,349.95112119999976,349.92850009999984,349.9485101999999,349.95112119999976,349.95112119999976,349.95112119999976,351.32890039999984,Scenes\089a.jpg,mid,o,1.3644619999995484,None,,,,,,,,00052,001,2026-01-25_13h08.47.205,MST_test,2024.2.0,59.98080614197393,2026-01-25 13h08.59.504409 +0530,
84,0,85,s,3.3496500000001106,None,85,0,84,351.3444894999993,,,,,,,,,,,,,,,,,,,,,,,,,,,,,,,,,,,,,,,,,,,,,,,,,,351.3292800999998,351.3444894999993,351.8459021999997,351.82856979999997,351.84343869999975,351.8459021999997,351.8459021999997,351.8459021999997,355.2121029,Scenes\137a.jpg,post,s,3.3496500000001106,None,,,,,,,,00052,001,2026-01-25_13h08.47.205,MST_test,2024.2.0,59.98080614197393,2026-01-25 13h08.59.504409 +0530,
85,0,86,n,0.969785199999933,None,86,0,85,355.2279024999998,,,,,,,,,,,,,,,,,,,,,,,,,,,,,,,,,,,,,,,,,,,,,,,,,,355.21258639999996,355.2279024999998,355.73826589999953,355.71196640000016,355.7336007999993,355.73826589999953,355.73826589999953,355.73826589999953,356.71222729999954,Foils\scenes18.jpg,none,n,0.969785199999933,None,,,,,,,,00052,001,2026-01-25_13h08.47.205,MST_test,2024.2.0,59.98080614197393,2026-01-25 13h08.59.504409 +0530,
86,0,87,o,1.782740499999818,None,87,0,86,356.7281674999995,,,,,,,,,,,,,,,,,,,,,,,,,,,,,,,,,,,,,,,,,,,,,,,,,,356.71260449999954,356.7281674999995,357.23727150000013,357.21189589999994,357.23489639999934,357.23727150000013,357.23727150000013,357.23727150000013,359.0286540999996,Scenes\086a.jpg,post,o,1.782740499999818,None,,,,,,,,00052,001,2026-01-25_13h08.47.205,MST_test,2024.2.0,59.98080614197393,2026-01-25 13h08.59.504409 +0530,
87,0,88,n,3.0740763000003426,None,88,0,87,359.04455009999947,,,,,,,,,,,,,,,,,,,,,,,,,,,,,,,,,,,,,,,,,,,,,,,,,,359.02903890000016,359.04455009999947,359.5453215999996,359.5285084999996,359.5376063999993,359.5453215999996,359.5453215999996,359.5453215999996,362.62875189999977,Foils\050a.jpg,none,n,3.0740763000003426,None,,,,,,,,00052,001,2026-01-25_13h08.47.205,MST_test,2024.2.0,59.98080614197393,2026-01-25 13h08.59.504409 +0530,
88,0,89,s,1.3904621000001498,None,89,0,88,362.6448540000001,,,,,,,,,,,,,,,,,,,,,,,,,,,,,,,,,,,,,,,,,,,,,,,,,,362.6290788999995,362.6448540000001,363.1815323000001,363.1285266999994,363.1791459999995,363.1815323000001,363.1815323000001,363.1815323000001,364.57872169999973,Objects\101b.jpg,post,s,1.3904621000001498,None,,,,,,,,00052,001,2026-01-25_13h08.47.205,MST_test,2024.2.0,59.98080614197393,2026-01-25 13h08.59.504409 +0530,
89,0,90,o,4.56803249999939,None,90,0,89,364.59448710000015,,,,,,,,,,,,,,,,,,,,,,,,,,,,,,,,,,,,,,,,,,,,,,,,,,364.57907909999994,364.59448710000015,365.0997884999997,365.0786043999997,365.0972864999994,365.0997884999997,365.0997884999997,365.0997884999997,369.67886199999975,Scenes\101a.jpg,mid,o,4.56803249999939,None,,,,,,,,00052,001,2026-01-25_13h08.47.205,MST_test,2024.2.0,59.98080614197393,2026-01-25 13h08.59.504409 +0530,
90,0,91,s,5.032042199999523,None,91,0,90,369.6948158999994,,,,,,,,,,,,,,,,,,,,,,,,,,,,,,,,,,,,,,,,,,,,,,,,,,369.6792426000002,369.6948158999994,370.19537409999975,370.17857039999944,370.1892511999995,370.19537409999975,370.19537409999975,370.19537409999975,375.2289979999996,Scenes\036b.jpg,post,s,5.032042199999523,None,,,,,,,,00052,001,2026-01-25_13h08.47.205,MST_test,2024.2.0,59.98080614197393,2026-01-25 13h08.59.504409 +0530,
91,0,92,s,5.569417599999724,None,92,0,91,375.244831,,,,,,,,,,,,,,,,,,,,,,,,,,,,,,,,,,,,,,,,,,,,,,,,,,375.2293445999994,375.244831,375.7620160999995,375.7286359,375.75931839999976,375.7620160999995,375.7620160999995,375.7620160999995,381.34549289999995,Objects\126b.jpg,pre,s,5.569417599999724,None,,,,,,,,00052,001,2026-01-25_13h08.47.205,MST_test,2024.2.0,59.98080614197393,2026-01-25 13h08.59.504409 +0530,
92,0,93,o,1.701609499999904,None,93,0,92,381.3612138999997,,,,,,,,,,,,,,,,,,,,,,,,,,,,,,,,,,,,,,,,,,,,,,,,,,381.3458716999994,381.3612138999997,381.86202460000004,381.84520989999965,381.8551643999999,381.86202460000004,381.86202460000004,381.86202460000004,383.5789085999995,Scenes\033a.jpg,post,o,1.701609499999904,None,,,,,,,,00052,001,2026-01-25_13h08.47.205,MST_test,2024.2.0,59.98080614197393,2026-01-25 13h08.59.504409 +0530,
93,0,94,n,0.8558009999997012,None,94,0,93,383.5948183999999,,,,,,,,,,,,,,,,,,,,,,,,,,,,,,,,,,,,,,,,,,,,,,,,,,383.5792821999994,383.5948183999999,384.09976039999947,384.0786559999997,384.0971048000001,384.09976039999947,384.09976039999947,384.09976039999947,384.96208279999973,Foils\scenes16.jpg,none,n,0.8558009999997012,None,,,,,,,,00052,001,2026-01-25_13h08.47.205,MST_test,2024.2.0,59.98080614197393,2026-01-25 13h08.59.504409 +0530,
94,0,95,o,1.1493357999997897,None,95,0,94,384.9782577999995,,,,,,,,,,,,,,,,,,,,,,,,,,,,,,,,,,,,,,,,,,,,,,,,,,384.9624610999999,384.9782577999995,385.5104677999998,385.46173589999944,385.5080428000001,385.5104677999998,385.5104677999998,385.5104677999998,386.6617944999998,Scenes\009b.jpg,post,o,1.1493357999997897,None,,,,,,,,00052,001,2026-01-25_13h08.47.205,MST_test,2024.2.0,59.98080614197393,2026-01-25 13h08.59.504409 +0530,
95,0,96,n,2.345491000000038,None,96,0,95,386.67814819999967,,,,,,,,,,,,,,,,,,,,,,,,,,,,,,,,,,,,,,,,,,,,,,,,,,386.66215049999937,386.67814819999967,387.1785670999998,387.1615834999993,387.1738201999997,387.1785670999998,387.1785670999998,387.1785670999998,389.52890690000004,Objects\176a.jpg,pre,n,2.345491000000038,None,,,,,,,,00052,001,2026-01-25_13h08.47.205,MST_test,2024.2.0,59.98080614197393,2026-01-25 13h08.59.504409 +0530,
96,0,97,n,0.8773922999998831,None,97,0,96,389.54490519999945,,,,,,,,,,,,,,,,,,,,,,,,,,,,,,,,,,,,,,,,,,,,,,,,,,389.5293719000001,389.54490519999945,390.07829499999934,390.0286314999994,390.07571409999946,390.07829499999934,390.07829499999934,390.07829499999934,390.96223329999975,Objects\004b.jpg,mid,n,0.8773922999998831,None,,,,,,,,00052,001,2026-01-25_13h08.47.205,MST_test,2024.2.0,59.98080614197393,2026-01-25 13h08.59.504409 +0530,
97,0,98,n,0.8639955999997255,None,98,0,97,390.97818499999994,,,,,,,,,,,,,,,,,,,,,,,,,,,,,,,,,,,,,,,,,,,,,,,,,,390.9626309999994,390.97818499999994,391.49183959999937,391.46176939999987,391.48971879999954,391.49183959999937,391.49183959999937,391.49183959999937,392.36227189999954,Objects\060b.jpg,pre,n,0.8639955999997255,None,,,,,,,,00052,001,2026-01-25_13h08.47.205,MST_test,2024.2.0,59.98080614197393,2026-01-25 13h08.59.504409 +0530,
98,0,99,n,1.2513500999993994,None,99,0,98,392.3782129000001,,,,,,,,,,,,,,,,,,,,,,,,,,,,,,,,,,,,,,,,,,,,,,,,,,392.3626537,392.3782129000001,392.92805510000017,392.86164889999964,392.9254880999997,392.92805510000017,392.92805510000017,392.92805510000017,394.1955791999999,Scenes\012b.jpg,pre,n,1.2513500999993994,None,,,,,,,,00052,001,2026-01-25_13h08.47.205,MST_test,2024.2.0,59.98080614197393,2026-01-25 13h08.59.504409 +0530,
99,0,100,n,1.3284466999994038,None,100,0,99,394.21149239999977,,,,,,,,,,,,,,,,,,,,,,,,,,,,,,,,,,,,,,,,,,,,,,,,,,394.1959829999996,394.21149239999977,394.7633625999997,394.6955603999995,394.76065860000017,394.7633625999997,394.7633625999997,394.7633625999997,396.0952607999998,Scenes\082b.jpg,mid,n,1.3284466999994038,None,,,,,,,,00052,001,2026-01-25_13h08.47.205,MST_test,2024.2.0,59.98080614197393,2026-01-25 13h08.59.504409 +0530,
100,0,101,s,1.4329938999999285,None,101,0,100,396.1116016999995,,,,,,,,,,,,,,,,,,,,,,,,,,,,,,,,,,,,,,,,,,,,,,,,,,396.0956225,396.1116016999995,396.63462189999973,396.5951820999999,396.6315629999999,396.63462189999973,396.63462189999973,396.63462189999973,398.07889499999965,Objects\153b.jpg,pre,s,1.4329938999999285,None,,,,,,,,00052,001,2026-01-25_13h08.47.205,MST_test,2024.2.0,59.98080614197393,2026-01-25 13h08.59.504409 +0530,
101,0,102,s,5.113463799999408,None,102,0,101,398.0948324000001,,,,,,,,,,,,,,,,,,,,,,,,,,,,,,,,,,,,,,,,,,,,,,,,,,398.0792679999995,398.0948324000001,398.9540503999997,398.5786658999996,398.9457526999995,398.9540503999997,398.9540503999997,398.9540503999997,404.07917259999977,Foils\scenes26.jpg,none,s,5.113463799999408,None,,,,,,,,00052,001,2026-01-25_13h08.47.205,MST_test,2024.2.0,59.98080614197393,2026-01-25 13h08.59.504409 +0530,
102,0,103,n,2.093921499999851,None,103,0,102,404.09491889999936,,,,,,,,,,,,,,,,,,,,,,,,,,,,,,,,,,,,,,,,,,,,,,,,,,404.0795561999994,404.09491889999936,404.62214549999953,404.57814509999935,404.62000199999966,404.62214549999953,404.62214549999953,404.62214549999953,406.72868579999977,Scenes\163a.jpg,post,n,2.093921499999851,None,,,,,,,,00052,001,2026-01-25_13h08.47.205,MST_test,2024.2.0,59.98080614197393,2026-01-25 13h08.59.504409 +0530,
103,0,104,o,1.1505332000006092,None,104,0,103,406.74493149999944,,,,,,,,,,,,,,,,,,,,,,,,,,,,,,,,,,,,,,,,,,,,,,,,,,406.72909009999967,406.74493149999944,407.24511470000016,407.2282777999999,407.239063,407.24511470000016,407.24511470000016,407.24511470000016,408.412155,Scenes\154a.jpg,mid,o,1.1505332000006092,None,,,,,,,,00052,001,2026-01-25_13h08.47.205,MST_test,2024.2.0,59.98080614197393,2026-01-25 13h08.59.504409 +0530,
104,0,105,s,3.7171755999997913,None,105,0,104,408.4278571999994,,,,,,,,,,,,,,,,,,,,,,,,,,,,,,,,,,,,,,,,,,,,,,,,,,408.41250279999986,408.4278571999994,408.95084249999945,408.9119678999996,408.9483774999999,408.95084249999945,408.95084249999945,408.95084249999945,412.67888349999976,Objects\026b.jpg,pre,s,3.7171755999997913,None,,,,,,,,00052,001,2026-01-25_13h08.47.205,MST_test,2024.2.0,59.98080614197393,2026-01-25 13h08.59.504409 +0530,
105,0,106,n,1.9410192000004827,None,106,0,105,412.69495279999956,,,,,,,,,,,,,,,,,,,,,,,,,,,,,,,,,,,,,,,,,,,,,,,,,,412.67932010000004,412.69495279999956,413.2063561999994,413.1787739000001,413.20359909999934,413.2063561999994,413.2063561999994,413.2063561999994,415.1620310999997,Scenes\105a.jpg,pre,n,1.9410192000004827,None,,,,,,,,00052,001,2026-01-25_13h08.47.205,MST_test,2024.2.0,59.98080614197393,2026-01-25 13h08.59.504409 +0530,
106,0,107,n,1.100017900000239,None,107,0,106,415.17819509999936,,,,,,,,,,,,,,,,,,,,,,,,,,,,,,,,,,,,,,,,,,,,,,,,,,415.1623761999999,415.17819509999936,415.67934179999975,415.6616798999994,415.6743158999998,415.67934179999975,415.67934179999975,415.67934179999975,416.7956285,Objects\009a.jpg,pre,n,1.100017900000239,None,,,,,,,,00052,001,2026-01-25_13h08.47.205,MST_test,2024.2.0,59.98080614197393,2026-01-25 13h08.59.504409 +0530,
107,0,108,o,1.1539079000003767,None,108,0,107,416.8115944000001,,,,,,,,,,,,,,,,,,,,,,,,,,,,,,,,,,,,,,,,,,,,,,,,,,416.7960014,416.8115944000001,417.3300991999995,417.2950016999994,417.3278034999994,417.3300991999995,417.3300991999995,417.3300991999995,418.49555969999983,Objects\181b.jpg,post,o,1.1539079000003767,None,,,,,,,,00052,001,2026-01-25_13h08.47.205,MST_test,2024.2.0,59.98080614197393,2026-01-25 13h08.59.504409 +0530,
108,0,109,n,1.3840201000002708,None,109,0,108,418.5115754999997,,,,,,,,,,,,,,,,,,,,,,,,,,,,,,,,,,,,,,,,,,,,,,,,,,418.49590589999934,418.5115754999997,419.11600779999935,418.9953128999996,419.11321619999944,419.11600779999935,419.11600779999935,419.11600779999935,420.51215649999995,Scenes\161b.jpg,pre,n,1.3840201000002708,None,,,,,,,,00052,001,2026-01-25_13h08.47.205,MST_test,2024.2.0,59.98080614197393,2026-01-25 13h08.59.504409 +0530,
109,0,110,n,2.5669123999996373,None,110,0,109,420.5278712999998,,,,,,,,,,,,,,,,,,,,,,,,,,,,,,,,,,,,,,,,,,,,,,,,,,420.5125256000001,420.5278712999998,421.0287766000001,421.01179909999973,421.0217763999999,421.0287766000001,421.0287766000001,421.0287766000001,423.6121932999995,Foils\049a.jpg,none,n,2.5669123999996373,None,,,,,,,,00052,001,2026-01-25_13h08.47.205,MST_test,2024.2.0,59.98080614197393,2026-01-25 13h08.59.504409 +0530,
110,0,111,n,1.4678131999999096,None,111,0,110,423.62828790000003,,,,,,,,,,,,,,,,,,,,,,,,,,,,,,,,,,,,,,,,,,,,,,,,,,423.61256799999956,423.62828790000003,424.1678403999995,424.1119252999997,424.16519229999994,424.1678403999995,424.1678403999995,424.1678403999995,425.6456541999996,Scenes\106b.jpg,mid,n,1.4678131999999096,None,,,,,,,,00052,001,2026-01-25_13h08.47.205,MST_test,2024.2.0,59.98080614197393,2026-01-25 13h08.59.504409 +0530,
111,0,112,o,1.3779376999991655,None,112,0,111,425.6612577999995,,,,,,,,,,,,,,,,,,,,,,,,,,,,,,,,,,,,,,,,,,,,,,,,,,425.64609779999955,425.6612577999995,426.1618340999994,426.14537349999955,426.1546748999999,426.1618340999994,426.1618340999994,426.1618340999994,427.5454400999997,Objects\187a.jpg,pre,o,1.3779376999991655,None,,,,,,,,00052,001,2026-01-25_13h08.47.205,MST_test,2024.2.0,59.98080614197393,2026-01-25 13h08.59.504409 +0530,
112,0,113,s,4.1823428999996395,None,113,0,112,427.56159279999974,,,,,,,,,,,,,,,,,,,,,,,,,,,,,,,,,,,,,,,,,,,,,,,,,,427.5457880999993,427.56159279999974,428.06174479999936,428.0452646999993,428.0538482000002,428.06174479999936,428.06174479999936,428.06174479999936,432.24568610000006,Objects\184a.jpg,post,s,4.1823428999996395,None,,,,,,,,00052,001,2026-01-25_13h08.47.205,MST_test,2024.2.0,59.98080614197393,2026-01-25 13h08.59.504409 +0530,
113,0,114,n,1.187175400000342,None,114,0,113,432.26159279999956,,,,,,,,,,,,,,,,,,,,,,,,,,,,,,,,,,,,,,,,,,,,,,,,,,432.2460381000001,432.26159279999956,432.78486089999933,432.74532999999974,432.78226319999976,432.78486089999933,432.78486089999933,432.78486089999933,433.9789566999998,Scenes\008b.jpg,pre,n,1.187175400000342,None,,,,,,,,00052,001,2026-01-25_13h08.47.205,MST_test,2024.2.0,59.98080614197393,2026-01-25 13h08.59.504409 +0530,
114,0,115,s,1.2315333000005921,None,115,0,114,433.99486650000017,,,,,,,,,,,,,,,,,,,,,,,,,,,,,,,,,,,,,,,,,,,,,,,,,,433.97933490000014,433.99486650000017,434.5158599999995,434.47859359999984,434.5133984999993,434.5158599999995,434.5158599999995,434.5158599999995,435.76230469999973,Scenes\191b.jpg,mid,s,1.2315333000005921,None,,,,,,,,00052,001,2026-01-25_13h08.47.205,MST_test,2024.2.0,59.98080614197393,2026-01-25 13h08.59.504409 +0530,
115,0,116,s,1.725398800000221,None,116,0,115,435.7782118999994,,,,,,,,,,,,,,,,,,,,,,,,,,,,,,,,,,,,,,,,,,,,,,,,,,435.76274099999955,435.7782118999994,436.28611,436.26181499999984,436.2832692000002,436.28611,436.28611,436.28611,438.0125097,Foils\scenes6.jpg,none,s,1.725398800000221,None,,,,,,,,00052,001,2026-01-25_13h08.47.205,MST_test,2024.2.0,59.98080614197393,2026-01-25 13h08.59.504409 +0530,
116,0,117,o,1.352729499999441,None,117,0,116,438.02811779999956,,,,,,,,,,,,,,,,,,,,,,,,,,,,,,,,,,,,,,,,,,,,,,,,,,438.0128874000002,438.02811779999956,438.5473168999997,438.51098439999987,438.5447860999993,438.5473168999997,438.5473168999997,438.5473168999997,439.91308169999957,Objects\025b.jpg,pre,o,1.352729499999441,None,,,,,,,,00052,001,2026-01-25_13h08.47.205,MST_test,2024.2.0,59.98080614197393,2026-01-25 13h08.59.504409 +0530,
117,0,118,n,1.278994999999668,None,118,0,117,439.9282124000001,,,,,,,,,,,,,,,,,,,,,,,,,,,,,,,,,,,,,,,,,,,,,,,,,,439.9134303999999,439.9282124000001,440.4286554,440.41199139999935,440.4187304999996,440.4286554,440.4286554,440.4286554,441.71228770000016,Foils\scenes5.jpg,none,n,1.278994999999668,None,,,,,,,,00052,001,2026-01-25_13h08.47.205,MST_test,2024.2.0,59.98080614197393,2026-01-25 13h08.59.504409 +0530,
118,0,119,n,3.8641486999995323,None,119,0,118,441.7280598999996,,,,,,,,,,,,,,,,,,,,,,,,,,,,,,,,,,,,,,,,,,,,,,,,,,441.7126380999998,441.7280598999996,442.25188869999965,442.2117011999999,442.2494532999999,442.25188869999965,442.25188869999965,442.25188869999965,446.12890329999937,Objects\039b.jpg,pre,n,3.8641486999995323,None,,,,,,,,00052,001,2026-01-25_13h08.47.205,MST_test,2024.2.0,59.98080614197393,2026-01-25 13h08.59.504409 +0530,
119,0,120,n,2.381518000000142,None,120,0,119,446.14497179999944,,,,,,,,,,,,,,,,,,,,,,,,,,,,,,,,,,,,,,,,,,,,,,,,,,446.12927799999943,446.14497179999944,446.6945081999993,446.62861989999965,446.6918405999995,446.6945081999993,446.6945081999993,446.6945081999993,449.0787399000001,Scenes\050b.jpg,pre,n,2.381518000000142,None,,,,,,,,00052,001,2026-01-25_13h08.47.205,MST_test,2024.2.0,59.98080614197393,2026-01-25 13h08.59.504409 +0530,
120,0,121,o,1.1658929000004719,None,121,0,120,449.09496750000017,,,,,,,,,,,,,,,,,,,,,,,,,,,,,,,,,,,,,,,,,,,,,,,,,,449.0791954999995,449.09496750000017,449.59755029999997,449.57862489999934,449.5950985999998,449.59755029999997,449.59755029999997,449.59755029999997,450.7786318999997,Scenes\074a.jpg,pre,o,1.1658929000004719,None,,,,,,,,00052,001,2026-01-25_13h08.47.205,MST_test,2024.2.0,59.98080614197393,2026-01-25 13h08.59.504409 +0530,
121,0,122,o,1.6104639000004681,None,122,0,121,450.79484109999976,,,,,,,,,,,,,,,,,,,,,,,,,,,,,,,,,,,,,,,,,,,,,,,,,,450.7789791999994,450.79484109999976,451.30557839999983,451.2787611999993,451.3027898999999,451.30557839999983,451.30557839999983,451.30557839999983,452.92897300000004,Objects\040b.jpg,mid,o,1.6104639000004681,None,,,,,,,,00052,001,2026-01-25_13h08.47.205,MST_test,2024.2.0,59.98080614197393,2026-01-25 13h08.59.504409 +0530,
122,0,123,s,1.975606400000288,None,123,0,122,452.9449801999999,,,,,,,,,,,,,,,,,,,,,,,,,,,,,,,,,,,,,,,,,,,,,,,,,,452.92933189999985,452.9449801999999,453.55651359999956,453.42865299999994,453.5540639999999,453.55651359999956,453.55651359999956,453.55651359999956,455.54554389999976,Scenes\174b.jpg,pre,s,1.975606400000288,None,,,,,,,,00052,001,2026-01-25_13h08.47.205,MST_test,2024.2.0,59.98080614197393,2026-01-25 13h08.59.504409 +0530,
123,0,124,o,3.1980727000000115,None,124,0,123,455.5616265999997,,,,,,,,,,,,,,,,,,,,,,,,,,,,,,,,,,,,,,,,,,,,,,,,,,455.5458951999999,455.5616265999997,456.0619923999993,456.0453613999998,456.0526083999994,456.0619923999993,456.0619923999993,456.0619923999993,459.26196619999973,Objects\065a.jpg,pre,o,3.1980727000000115,None,,,,,,,,00052,001,2026-01-25_13h08.47.205,MST_test,2024.2.0,59.98080614197393,2026-01-25 13h08.59.504409 +0530,
124,0,125,n,1.7606542000003174,None,125,0,124,459.2780041999995,,,,,,,,,,,,,,,,,,,,,,,,,,,,,,,,,,,,,,,,,,,,,,,,,,459.26234509999995,459.2780041999995,459.77869479999936,459.7618090999995,459.7671897,459.77869479999936,459.77869479999936,459.77869479999936,461.5451631999995,Objects\169a.jpg,mid,n,1.7606542000003174,None,,,,,,,,00052,001,2026-01-25_13h08.47.205,MST_test,2024.2.0,59.98080614197393,2026-01-25 13h08.59.504409 +0530,
125,0,126,o,0.7788001999997505,None,126,0,125,461.5612652,,,,,,,,,,,,,,,,,,,,,,,,,,,,,,,,,,,,,,,,,,,,,,,,,,461.54552069999954,461.5612652,462.08110229999966,462.04526480000004,462.0787663000001,462.08110229999966,462.08110229999966,462.08110229999966,462.8619284999995,Foils\010a.jpg,none,o,0.7788001999997505,None,,,,,,,,00052,001,2026-01-25_13h08.47.205,MST_test,2024.2.0,59.98080614197393,2026-01-25 13h08.59.504409 +0530,
126,0,127,s,1.4785044999998718,None,127,0,126,462.87815729999966,,,,,,,,,,,,,,,,,,,,,,,,,,,,,,,,,,,,,,,,,,,,,,,,,,462.8622805999994,462.87815729999966,463.3969495000001,463.3621489999996,463.3935074000001,463.3969495000001,463.3969495000001,463.3969495000001,464.8789317999999,Objects\134b.jpg,pre,s,1.4785044999998718,None,,,,,,,,00052,001,2026-01-25_13h08.47.205,MST_test,2024.2.0,59.98080614197393,2026-01-25 13h08.59.504409 +0530,
127,0,128,n,0.9157279000000926,None,128,0,127,464.8948993999993,,,,,,,,,,,,,,,,,,,,,,,,,,,,,,,,,,,,,,,,,,,,,,,,,,464.8792777999997,464.8948993999993,465.43161129999953,465.3788703,465.4282284000001,465.43161129999953,465.43161129999953,465.43161129999953,466.36249080000016,Foils\scenes15.jpg,none,n,0.9157279000000926,None,,,,,,,,00052,001,2026-01-25_13h08.47.205,MST_test,2024.2.0,59.98080614197393,2026-01-25 13h08.59.504409 +0530,
128,0,129,n,1.1155752999993638,None,129,0,128,466.3783647,,,,,,,,,,,,,,,,,,,,,,,,,,,,,,,,,,,,,,,,,,,,,,,,,,466.36285729999963,466.3783647,466.8800434999994,466.86249919999955,466.87210419999974,466.8800434999994,466.8800434999994,466.8800434999994,468.0120154999995,Objects\032b.jpg,post,n,1.1155752999993638,None,,,,,,,,00052,001,2026-01-25_13h08.47.205,MST_test,2024.2.0,59.98080614197393,2026-01-25 13h08.59.504409 +0530,
129,0,130,n,0.9255526999995709,None,130,0,129,468.02814750000016,,,,,,,,,,,,,,,,,,,,,,,,,,,,,,,,,,,,,,,,,,,,,,,,,,468.01236999999946,468.02814750000016,468.53438409999944,468.5117172,468.5318054999998,468.53438409999944,468.53438409999944,468.53438409999944,469.461902,Scenes\026a.jpg,pre,n,0.9255526999995709,None,,,,,,,,00052,001,2026-01-25_13h08.47.205,MST_test,2024.2.0,59.98080614197393,2026-01-25 13h08.59.504409 +0530,
130,0,131,n,0.7131454000000303,None,131,0,130,469.47820539999975,,,,,,,,,,,,,,,,,,,,,,,,,,,,,,,,,,,,,,,,,,,,,,,,,,469.46226899999965,469.47820539999975,469.97890709999956,469.96195780000016,469.9713465999994,469.97890709999956,469.97890709999956,469.97890709999956,470.6957066999994,Objects\112a.jpg,pre,n,0.7131454000000303,None,,,,,,,,00052,001,2026-01-25_13h08.47.205,MST_test,2024.2.0,59.98080614197393,2026-01-25 13h08.59.504409 +0530,
131,0,132,s,1.58276399999977,None,132,0,131,470.71156789999986,,,,,,,,,,,,,,,,,,,,,,,,,,,,,,,,,,,,,,,,,,,,,,,,,,470.6960543999994,470.71156789999986,471.2447625999994,471.1953646000002,471.24216590000015,471.2447625999994,471.2447625999994,471.2447625999994,472.8290509999997,Scenes\130b.jpg,post,s,1.58276399999977,None,,,,,,,,00052,001,2026-01-25_13h08.47.205,MST_test,2024.2.0,59.98080614197393,2026-01-25 13h08.59.504409 +0530,
132,0,133,o,1.3544539000004079,None,133,0,132,472.8449909000001,,,,,,,,,,,,,,,,,,,,,,,,,,,,,,,,,,,,,,,,,,,,,,,,,,472.8294301999995,472.8449909000001,473.3455878999994,473.32866169999943,473.3377389999996,473.3455878999994,473.3455878999994,473.3455878999994,474.71203499999956,Objects\177a.jpg,pre,o,1.3544539000004079,None,,,,,,,,00052,001,2026-01-25_13h08.47.205,MST_test,2024.2.0,59.98080614197393,2026-01-25 13h08.59.504409 +0530,
133,0,134,n,6.031529799999589,None,134,0,133,474.7278708999993,,,,,,,,,,,,,,,,,,,,,,,,,,,,,,,,,,,,,,,,,,,,,,,,,,474.7124140999995,474.7278708999993,475.2285308999999,475.21205109999937,475.22526519999974,475.2285308999999,475.2285308999999,475.2285308999999,481.26201219999984,Scenes\117a.jpg,mid,n,6.031529799999589,None,,,,,,,,00052,001,2026-01-25_13h08.47.205,MST_test,2024.2.0,59.98080614197393,2026-01-25 13h08.59.504409 +0530,
134,0,135,s,1.2251808000000892,None,135,0,134,481.2780769000001,,,,,,,,,,,,,,,,,,,,,,,,,,,,,,,,,,,,,,,,,,,,,,,,,,481.2623930999998,481.2780769000001,481.7788353999995,481.7620471,481.7708821999995,481.7788353999995,481.7788353999995,481.7788353999995,483.01233649999995,Foils\066a.jpg,none,s,1.2251808000000892,None,,,,,,,,00052,001,2026-01-25_13h08.47.205,MST_test,2024.2.0,59.98080614197393,2026-01-25 13h08.59.504409 +0530,
135,0,136,o,2.6416368000000148,None,136,0,135,483.0282811999996,,,,,,,,,,,,,,,,,,,,,,,,,,,,,,,,,,,,,,,,,,,,,,,,,,483.0127120999996,483.0282811999996,483.5624495000002,483.51202639999974,483.5597835999997,483.5624495000002,483.5624495000002,483.5624495000002,486.2123623999996,Scenes\010b.jpg,mid,o,2.6416368000000148,None,,,,,,,,00052,001,2026-01-25_13h08.47.205,MST_test,2024.2.0,59.98080614197393,2026-01-25 13h08.59.504409 +0530,
136,0,137,o,6.340421000000788,None,137,0,136,486.2283459999999,,,,,,,,,,,,,,,,,,,,,,,,,,,,,,,,,,,,,,,,,,,,,,,,,,486.2127357999998,486.2283459999999,486.7511537999999,486.7120445999999,486.74877749999996,486.7511537999999,486.7511537999999,486.7511537999999,493.0954369000001,Objects\056b.jpg,post,o,6.340421000000788,None,,,,,,,,00052,001,2026-01-25_13h08.47.205,MST_test,2024.2.0,59.98080614197393,2026-01-25 13h08.59.504409 +0530,
137,0,138,n,1.0960754999996425,None,138,0,137,493.1115575999993,,,,,,,,,,,,,,,,,,,,,,,,,,,,,,,,,,,,,,,,,,,,,,,,,,493.09585960000004,493.1115575999993,493.6119533000001,493.59504800000013,493.6015942999993,493.6119533000001,493.6119533000001,493.6119533000001,494.71301739999944,Foils\026a.jpg,none,n,1.0960754999996425,None,,,,,,,,00052,001,2026-01-25_13h08.47.205,MST_test,2024.2.0,59.98080614197393,2026-01-25 13h08.59.504409 +0530,
138,0,139,s,1.5413169000003109,None,139,0,138,494.72833660000015,,,,,,,,,,,,,,,,,,,,,,,,,,,,,,,,,,,,,,,,,,,,,,,,,,494.71337049999966,494.72833660000015,495.2467292000001,495.2119007000001,495.24462349999976,495.2467292000001,495.2467292000001,495.2467292000001,496.7956035999996,Foils\074a.jpg,none,s,1.5413169000003109,None,,,,,,,,00052,001,2026-01-25_13h08.47.205,MST_test,2024.2.0,59.98080614197393,2026-01-25 13h08.59.504409 +0530,
139,0,140,s,1.164144800000031,None,140,0,139,496.81168049999997,,,,,,,,,,,,,,,,,,,,,,,,,,,,,,,,,,,,,,,,,,,,,,,,,,496.79595249999966,496.81168049999997,497.31188759999986,497.2953781999995,497.3020937000001,497.31188759999986,497.31188759999986,497.31188759999986,498.4788472,Objects\018b.jpg,post,s,1.164144800000031,None,,,,,,,,00052,001,2026-01-25_13h08.47.205,MST_test,2024.2.0,59.98080614197393,2026-01-25 13h08.59.504409 +0530,
140,0,141,n,1.3285103000007439,None,141,0,140,498.49490909999986,,,,,,,,,,,,,,,,,,,,,,,,,,,,,,,,,,,,,,,,,,,,,,,,,,498.47924710000007,498.49490909999986,498.99550610000006,498.9787559999995,498.9895698,498.99550610000006,498.99550610000006,498.99550610000006,500.32904119999966,Scenes\180a.jpg,pre,n,1.3285103000007439,None,,,,,,,,00052,001,2026-01-25_13h08.47.205,MST_test,2024.2.0,59.98080614197393,2026-01-25 13h08.59.504409 +0530,
141,0,142,s,1.1542214000000968,None,142,0,141,500.34495960000004,,,,,,,,,,,,,,,,,,,,,,,,,,,,,,,,,,,,,,,,,,,,,,,,,,500.3294452,500.34495960000004,500.87323689999994,500.82877539999936,500.87070309999945,500.87323689999994,500.87323689999994,500.87323689999994,502.02900450000016,Scenes\187b.jpg,post,s,1.1542214000000968,None,,,,,,,,00052,001,2026-01-25_13h08.47.205,MST_test,2024.2.0,59.98080614197393,2026-01-25 13h08.59.504409 +0530,
142,0,143,s,0.9860376000005999,None,143,0,142,502.0447833999997,,,,,,,,,,,,,,,,,,,,,,,,,,,,,,,,,,,,,,,,,,,,,,,,,,502.0294071999997,502.0447833999997,502.5454052999994,502.5285759999997,502.5373185999997,502.5454052999994,502.5454052999994,502.5454052999994,503.54535880000003,Scenes\079a.jpg,post,s,0.9860376000005999,None,,,,,,,,00052,001,2026-01-25_13h08.47.205,MST_test,2024.2.0,59.98080614197393,2026-01-25 13h08.59.504409 +0530,
143,0,144,n,3.2838262999994186,None,144,0,143,503.5616835999999,,,,,,,,,,,,,,,,,,,,,,,,,,,,,,,,,,,,,,,,,,,,,,,,,,503.5457080999995,503.5616835999999,504.1202186999999,504.0451073999993,504.11757679999937,504.1202186999999,504.1202186999999,504.1202186999999,507.4124103999993,Scenes\122b.jpg,mid,n,3.2838262999994186,None,,,,,,,,00052,001,2026-01-25_13h08.47.205,MST_test,2024.2.0,59.98080614197393,2026-01-25 13h08.59.504409 +0530,
144,0,145,s,1.0598517999997057,None,145,0,144,507.4282949999997,,,,,,,,,,,,,,,,,,,,,,,,,,,,,,,,,,,,,,,,,,,,,,,,,,507.41282219999994,507.4282949999997,507.9357393,507.9125782000001,507.93317690000003,507.9357393,507.9357393,507.9357393,509.0120925000001,Scenes\080a.jpg,mid,s,1.0598517999997057,None,,,,,,,,00052,001,2026-01-25_13h08.47.205,MST_test,2024.2.0,59.98080614197393,2026-01-25 13h08.59.504409 +0530,
145,0,146,s,1.0272554000002856,None,146,0,145,509.0279129999999,,,,,,,,,,,,,,,,,,,,,,,,,,,,,,,,,,,,,,,,,,,,,,,,,,509.01244769999994,509.0279129999999,509.5287693,509.51209779999954,509.51865439999983,509.5287693,509.5287693,509.5287693,510.56237619999956,Foils\scenes14.jpg,none,s,1.0272554000002856,None,,,,,,,,00052,001,2026-01-25_13h08.47.205,MST_test,2024.2.0,59.98080614197393,2026-01-25 13h08.59.504409 +0530,
146,0,147,s,1.738236600000164,None,147,0,146,510.57793690000017,,,,,,,,,,,,,,,,,,,,,,,,,,,,,,,,,,,,,,,,,,,,,,,,,,510.5627672999999,510.57793690000017,511.11380069999996,511.0616083999994,511.1113403999998,511.11380069999996,511.11380069999996,511.11380069999996,512.8620901999993,Objects\082b.jpg,post,s,1.738236600000164,None,,,,,,,,00052,001,2026-01-25_13h08.47.205,MST_test,2024.2.0,59.98080614197393,2026-01-25 13h08.59.504409 +0530,
147,0,148,s,2.3742357999999513,None,148,0,147,512.8783472999994,,,,,,,,,,,,,,,,,,,,,,,,,,,,,,,,,,,,,,,,,,,,,,,,,,512.8624640999997,512.8783472999994,513.3818098000002,513.3620781999998,513.3791795999996,513.3818098000002,513.3818098000002,513.3818098000002,515.7623899,Scenes\110a.jpg,mid,s,2.3742357999999513,None,,,,,,,,00052,001,2026-01-25_13h08.47.205,MST_test,2024.2.0,59.98080614197393,2026-01-25 13h08.59.504409 +0530,
148,0,149,o,1.2204749000002266,None,149,0,148,515.7783678999995,,,,,,,,,,,,,,,,,,,,,,,,,,,,,,,,,,,,,,,,,,,,,,,,,,515.7627879000001,515.7783678999995,516.2789558999993,516.2620965999995,516.2707042000002,516.2789558999993,516.2789558999993,516.2789558999993,517.5123817999993,Objects\044a.jpg,pre,o,1.2204749000002266,None,,,,,,,,00052,001,2026-01-25_13h08.47.205,MST_test,2024.2.0,59.98080614197393,2026-01-25 13h08.59.504409 +0530,
149,0,150,n,4.6516670999999405,None,150,0,149,517.5283716999993,,,,,,,,,,,,,,,,,,,,,,,,,,,,,,,,,,,,,,,,,,,,,,,,,,517.5128361999996,517.5283716999993,518.0323984999995,518.0121853,518.0291968000001,518.0323984999995,518.0323984999995,518.0323984999995,522.6956753999993,Foils\scenes3.jpg,none,n,4.6516670999999405,None,,,,,,,,00052,001,2026-01-25_13h08.47.205,MST_test,2024.2.0,59.98080614197393,2026-01-25 13h08.59.504409 +0530,
,,,,,,,,,,,,,,,,,,,,,,,,,,,,,,,,,,,,,,,,,,,,,,,,,,,,,,,,,,,,,,,,,,,,,,,,,522.6959422999998,522.7117122,522.7117122,524.5612671999997,space,1.8434870999999475,None,00052,001,2026-01-25_13h08.47.205,MST_test,2024.2.0,59.98080614197393,2026-01-25 13h08.59.504409 +0530,
