Sl_no,image_path,thisN,thisTrialN,thisRepN,key_resp_5.keys,key_resp_7.keys,key_resp_7.rt,key_resp_7.duration,key_resp_5.rt,key_resp_5.duration,key_resp_9.keys,key_resp_9.rt,key_resp_9.duration,key_resp_8.keys,key_resp_8.rt,key_resp_8.duration,practice.thisRepN,practice.thisTrialN,practice.thisN,trials.thisRepN,trials.thisTrialN,trials.thisN,thisRow.t,notes,welcome_page.started,text.started,key_resp.started,welcome_page.stopped,key_resp.keys,key_resp.rt,key_resp.duration,instructions.started,ins.started,key_resp_2.started,instructions.stopped,key_resp_2.keys,key_resp_2.rt,key_resp_2.duration,objects_only_instruction.started,text_3.started,key_resp_3.started,objects_only_instruction.stopped,key_resp_3.keys,key_resp_3.rt,key_resp_3.duration,ISI.started,text_4.started,ISI.stopped,practice_block.started,image.started,text_5.started,key_resp_5.started,practice_block.stopped,practice.key_resp_5.keys,indoor_outdoor.started,text_7.started,key_resp_7.started,indoor_outdoor.stopped,practice.key_resp_7.keys,practice.key_resp_7.rt,practice.key_resp_7.duration,text_4.stopped,practice.key_resp_5.rt,practice.key_resp_5.duration,image.stopped,text_5.stopped,key_resp_5.stopped,practice_to_main.started,text_2.started,key_resp_4.started,practice_to_main.stopped,key_resp_4.keys,key_resp_4.rt,key_resp_4.duration,objects.started,image_2.started,text_9.started,key_resp_9.started,objects.stopped,trials.key_resp_9.keys,trials.key_resp_9.rt,trials.key_resp_9.duration,encoding_task.started,encoding_task.stopped,trials.key_resp_8.keys,text_8.started,key_resp_8.started,trials.key_resp_8.rt,trials.key_resp_8.duration,image_2.stopped,text_9.stopped,key_resp_9.stopped,end_experiment.started,text_6.started,key_resp_6.started,end_experiment.stopped,key_resp_6.keys,key_resp_6.rt,key_resp_6.duration,list_of_stimuli,encoding_task_accuracy,participant,session,date,expName,psychopyVersion,frameRate,expStart,
,,,,,,,,,,,,,,,,,,,,,,,,,0.0012385999998514308,0.004167899999629299,0.004167899999629299,22.807628999999906,space,22.788722999999663,None,,,,,,,,,,,,,,,,,,,,,,,,,,,,,,,,,,,,,,,,,,,,,,,,,,,,,,,,,,,,,,,,,,,,,,,00052,001,2026-01-25_12h44.06.631,MST_task,2024.2.0,59.9051701156943,2026-01-25 12h44.19.045427 +0530,
,,,,,,,,,,,,,,,,,,,,,,,,,,,,,,,,22.80772799999977,22.828236299999844,22.828236299999844,55.384583499999735,space,32.54915540000002,None,,,,,,,,,,,,,,,,,,,,,,,,,,,,,,,,,,,,,,,,,,,,,,,,,,,,,,,,,,,,,,,,00052,001,2026-01-25_12h44.06.631,MST_task,2024.2.0,59.9051701156943,2026-01-25 12h44.19.045427 +0530,
,,,,,,,,,,,,,,,,,,,,,,,,,,,,,,,,,,,,,,,55.38470069999994,55.413999800000056,55.413999800000056,86.16790319999973,space,30.738362300000063,None,,,,,,,,,,,,,,,,,,,,,,,,,,,,,,,,,,,,,,,,,,,,,,,,,,,,,,,,,00052,001,2026-01-25_12h44.06.631,MST_task,2024.2.0,59.9051701156943,2026-01-25 12h44.19.045427 +0530,
8,practice_images/178a.jpg,0,0,1,None,j,1.7554801999999654,None,,,,,,,,,1,0,0,,,,86.19461609999962,,,,,,,,,,,,,,,,,,,,,,,86.19228909999993,86.19461609999962,86.68398489999981,86.71115469999995,86.74257549999993,86.74257549999993,86.74257549999993,89.68469289999985,None,89.6915068999997,89.7005823999998,89.7005823999998,91.4674256999997,j,1.7554801999999654,None,,,,,,,,,,,,,,,,,,,,,,,,,,,,,,,,,,,,,,,,,00052,001,2026-01-25_12h44.06.631,MST_task,2024.2.0,59.9051701156943,2026-01-25 12h44.19.045427 +0530,
7,practice_images/166a.jpg,1,1,1,f,None,,,1.4626780999997209,0.14401450000013938,,,,,,,1,1,1,,,,91.48364039999979,,,,,,,,,,,,,,,,,,,,,,,91.46775320000006,91.48364039999979,91.96746170000006,91.9832164999998,91.98610680000002,91.98610680000002,91.98610680000002,94.96768089999978,f,94.9678928999997,,,94.96796339999992,None,,,91.98610680000002,1.4626780999997209,0.14401450000013938,,,,,,,,,,,,,,,,,,,,,,,,,,,,,,,,,,,,,,00052,001,2026-01-25_12h44.06.631,MST_task,2024.2.0,59.9051701156943,2026-01-25 12h44.19.045427 +0530,
4,practice_images/002b.jpg,2,2,1,j,None,,,2.1352562000001853,0.15261800000007497,,,,,,,1,2,2,,,,94.98396980000007,,,,,,,,,,,,,,,,,,,,,,,94.9682456999999,94.98396980000007,95.4675272999998,95.48610029999963,95.48890249999977,95.48890249999977,95.48890249999977,98.48435969999991,j,98.48455650000005,,,98.48462489999974,None,,,95.48890249999977,2.1352562000001853,0.15261800000007497,,,,,,,,,,,,,,,,,,,,,,,,,,,,,,,,,,,,,,00052,001,2026-01-25_12h44.06.631,MST_task,2024.2.0,59.9051701156943,2026-01-25 12h44.19.045427 +0530,
6,practice_images/158a.jpg,3,3,1,j,None,,,1.9390834000000723,0.14353540000001885,,,,,,,1,3,3,,,,98.50055999999995,,,,,,,,,,,,,,,,,,,,,,,98.48490730000003,98.50055999999995,98.98413249999976,99.00261599999976,99.0056910999997,99.0056910999997,99.0056910999997,102.00096239999993,j,102.00115939999978,,,102.00122929999998,None,,,99.0056910999997,1.9390834000000723,0.14353540000001885,,,,,,,,,,,,,,,,,,,,,,,,,,,,,,,,,,,,,,00052,001,2026-01-25_12h44.06.631,MST_task,2024.2.0,59.9051701156943,2026-01-25 12h44.19.045427 +0530,
2,practice_images/031a.jpg,4,4,1,f,None,,,1.5221542999997837,0.15932650000013382,,,,,,,1,4,4,,,,102.01734709999982,,,,,,,,,,,,,,,,,,,,,,,102.00151179999966,102.01734709999982,102.50081219999993,102.51533279999967,102.51861929999995,102.51861929999995,102.51861929999995,105.51768730000003,f,105.51788319999969,,,105.51795300000003,None,,,102.51861929999995,1.5221542999997837,0.15932650000013382,,,,,,,,,,,,,,,,,,,,,,,,,,,,,,,,,,,,,,00052,001,2026-01-25_12h44.06.631,MST_task,2024.2.0,59.9051701156943,2026-01-25 12h44.19.045427 +0530,
10,practice_images/182a.jpg,5,5,1,j,None,,,2.72946630000024,0.15201509999997143,,,,,,,1,5,5,,,,105.53400049999982,,,,,,,,,,,,,,,,,,,,,,,105.5182304,105.53400049999982,106.01771009999993,106.03558909999992,106.03867790000004,106.03867790000004,106.03867790000004,109.03435790000003,j,109.03455959999974,,,109.03462889999992,None,,,106.03867790000004,2.72946630000024,0.15201509999997143,,,,,,,,,,,,,,,,,,,,,,,,,,,,,,,,,,,,,,00052,001,2026-01-25_12h44.06.631,MST_task,2024.2.0,59.9051701156943,2026-01-25 12h44.19.045427 +0530,
1,practice_images/013a.jpg,6,6,1,f,None,,,1.6738725000000159,0.18355179999980464,,,,,,,1,6,6,,,,109.05057940000006,,,,,,,,,,,,,,,,,,,,,,,109.03490629999988,109.05057940000006,109.53438529999994,109.54804039999999,109.55092519999971,109.55092519999971,109.55092519999971,112.53455880000001,f,112.5347425,,,112.5348055999998,None,,,109.55092519999971,1.6738725000000159,0.18355179999980464,112.5503961999998,112.5503961999998,112.5503961999998,,,,,,,,,,,,,,,,,,,,,,,,,,,,,,,,,,,00052,001,2026-01-25_12h44.06.631,MST_task,2024.2.0,59.9051701156943,2026-01-25 12h44.19.045427 +0530,
3,practice_images/037a.jpg,7,7,1,None,f,0.18954850000000079,None,,,,,,,,,1,7,7,,,,112.5503961999998,,,,,,,,,,,,,,,,,,,,,,,112.53507469999977,112.5503961999998,113.03441739999971,113.05146569999988,113.05480880000005,113.05480880000005,113.05480880000005,116.05068600000004,None,116.05087149999963,116.06703359999983,116.06703359999983,116.26791709999998,f,0.18954850000000079,None,113.05480880000005,,,,,,,,,,,,,,,,,,,,,,,,,,,,,,,,,,,,,,,,00052,001,2026-01-25_12h44.06.631,MST_task,2024.2.0,59.9051701156943,2026-01-25 12h44.19.045427 +0530,
9,practice_images/180a.jpg,8,8,1,f,None,,,1.9921018000000004,0.17722739999999249,,,,,,,1,8,8,,,,116.28434519999973,,,,,,,,,,,,,,,,,,,,,,,116.26824910000005,116.28434519999973,116.76800699999967,116.78929299999982,116.79229469999973,116.79229469999973,116.79229469999973,119.76818509999976,f,119.7683834999998,,,119.76845379999986,None,,,116.79229469999973,1.9921018000000004,0.17722739999999249,,,,,,,,,,,,,,,,,,,,,,,,,,,,,,,,,,,,,,00052,001,2026-01-25_12h44.06.631,MST_task,2024.2.0,59.9051701156943,2026-01-25 12h44.19.045427 +0530,
5,practice_images/139a.jpg,9,9,1,j,None,,,1.1681948000000375,0.18400990000009187,,,,,,,1,9,9,,,,119.78423219999968,,,,,,,,,,,,,,,,,,,,,,,119.7687321999997,119.78423219999968,120.26772669999991,120.28566099999989,120.28858820000005,120.28858820000005,120.28858820000005,123.28505779999978,j,123.28531909999992,,,123.28539030000002,None,,,120.28858820000005,1.1681948000000375,0.18400990000009187,,,,,,,,,,,,,,,,,,,,,,,,,,,,,,,,,,,,,,00052,001,2026-01-25_12h44.06.631,MST_task,2024.2.0,59.9051701156943,2026-01-25 12h44.19.045427 +0530,
,,,,,,,,,,,,,,,,,,,,,,,,,,,,,,,,,,,,,,,,,,,,,,,,,,,,,,,,,,,,,,,,,,,,123.28557839999985,123.30074459999969,123.30074459999969,134.35127879999982,space,11.0440865999999,None,,,,,,,,,,,,,,,,,,,,,,,,,,,,00052,001,2026-01-25_12h44.06.631,MST_task,2024.2.0,59.9051701156943,2026-01-25 12h44.19.045427 +0530,
,Scenes\093a.jpg,0,0,1,,,,,,,f,1.2328774999996313,0.11128450000023804,None,,,,,,1,0,0,134.3673848999997,,,,,,,,,,,,,,,,,,,,,,,134.35451739999962,134.3673848999997,134.85154919999968,,,,,,,,,,,,,,134.89619319999974,,,,,,,,,,,,,134.8926053,134.89619319999974,134.89619319999974,134.89619319999974,137.86774699999978,f,1.2328774999996313,0.11128450000023804,137.8748145999998,137.87486489999992,None,,,,,,,,,,,,,,,,,00052,001,2026-01-25_12h44.06.631,MST_task,2024.2.0,59.9051701156943,2026-01-25 12h44.19.045427 +0530,
,Scenes\142a.jpg,1,0,2,,,,,,,j,0.8381832999998551,0.19996220000030007,None,,,,,,2,0,1,137.8840121999997,,,,,,,,,,,,,,,,,,,,,,,137.87509539999974,137.8840121999997,138.3673706999998,,,,,,,,,,,,,,138.40261409999994,,,,,,,,,,,,,138.39995869999984,138.40261409999994,138.40261409999994,138.40261409999994,141.38422549999996,j,0.8381832999998551,0.19996220000030007,141.38443259999985,141.3844967,None,,,,,,,,,,,,,,,,,00052,001,2026-01-25_12h44.06.631,MST_task,2024.2.0,59.9051701156943,2026-01-25 12h44.19.045427 +0530,
,Scenes\045a.jpg,2,0,3,,,,,,,j,2.9207781999998588,None,None,,,,,,3,0,2,141.40063259999988,,,,,,,,,,,,,,,,,,,,,,,141.3848681999998,141.40063259999988,141.8844411,,,,,,,,,,,,,,141.9195691,,,,,,,,,,,,,141.91664300000002,141.9195691,141.9195691,141.9195691,144.900979,j,2.9207781999998588,None,144.90118510000002,144.90126549999968,None,,,,,,,,,,,,,,,,,00052,001,2026-01-25_12h44.06.631,MST_task,2024.2.0,59.9051701156943,2026-01-25 12h44.19.045427 +0530,
,Scenes\010a.jpg,3,0,4,,,,,,,j,0.9119894000000386,0.14453679999996893,None,,,,,,4,0,3,144.91739000000007,,,,,,,,,,,,,,,,,,,,,,,144.90155979999963,144.91739000000007,145.40104799999972,,,,,,,,,,,,,,145.42418829999997,,,,,,,,,,,,,145.4213679999998,145.42418829999997,145.42418829999997,145.42418829999997,148.41779619999988,j,0.9119894000000386,0.14453679999996893,148.41800739999962,148.4180720999998,None,,,,,,,,,,,,,,,,,00052,001,2026-01-25_12h44.06.631,MST_task,2024.2.0,59.9051701156943,2026-01-25 12h44.19.045427 +0530,
,Scenes\095a.jpg,4,0,5,,,,,,,None,,,f,1.6101340000000164,None,,,,5,0,4,148.4340275999998,,,,,,,,,,,,,,,,,,,,,,,148.41844219999984,148.4340275999998,148.91770329999963,,,,,,,,,,,,,,148.95019430000002,,,,,,,,,,,,,148.94730589999972,148.95019430000002,148.95019430000002,148.95019430000002,151.9346043999999,None,,,151.93479379999962,153.5680385999999,f,151.95063839999966,151.95063839999966,1.6101340000000164,None,,,,,,,,,,,,,00052,001,2026-01-25_12h44.06.631,MST_task,2024.2.0,59.9051701156943,2026-01-25 12h44.19.045427 +0530,
,Scenes\049a.jpg,5,0,6,,,,,,,j,1.43205719999969,0.16884329999993497,None,,,,,,6,0,5,153.58383099999992,,,,,,,,,,,,,,,,,,,,,,,153.56851209999968,153.58383099999992,154.06760329999997,,,,,,,,,,,,,,154.0967086999999,,,,,,,,,,,,,154.09399159999975,154.0967086999999,154.0967086999999,154.0967086999999,157.08442590000004,j,1.43205719999969,0.16884329999993497,157.0846317999999,157.0846978999998,None,,,,,,,,,,,,,,,,,00052,001,2026-01-25_12h44.06.631,MST_task,2024.2.0,59.9051701156943,2026-01-25 12h44.19.045427 +0530,
,Scenes\127a.jpg,6,0,7,,,,,,,j,0.9210713000002215,0.1679855999996107,None,,,,,,7,0,6,157.1007282999999,,,,,,,,,,,,,,,,,,,,,,,157.08507149999969,157.1007282999999,157.58430419999968,,,,,,,,,,,,,,157.6151215,,,,,,,,,,,,,157.6124630999998,157.6151215,157.6151215,157.6151215,160.6012241999997,j,0.9210713000002215,0.1679855999996107,160.60144009999976,160.60150469999962,None,,,,,,,,,,,,,,,,,00052,001,2026-01-25_12h44.06.631,MST_task,2024.2.0,59.9051701156943,2026-01-25 12h44.19.045427 +0530,
,Objects\139a.jpg,7,0,8,,,,,,,f,1.2112476999996034,0.168258600000172,None,,,,,,8,0,7,160.6173804,,,,,,,,,,,,,,,,,,,,,,,160.60191209999994,160.6173804,161.10085630000003,,,,,,,,,,,,,,161.1408806999998,,,,,,,,,,,,,161.13829009999972,161.1408806999998,161.1408806999998,161.1408806999998,164.11752339999975,f,1.2112476999996034,0.168258600000172,164.1177275,164.11779129999968,None,,,,,,,,,,,,,,,,,00052,001,2026-01-25_12h44.06.631,MST_task,2024.2.0,59.9051701156943,2026-01-25 12h44.19.045427 +0530,
,Objects\049a.jpg,8,0,9,,,,,,,f,0.7628334000000905,0.1762711000001218,None,,,,,,9,0,8,164.13404779999973,,,,,,,,,,,,,,,,,,,,,,,164.1180835,164.13404779999973,164.61804389999998,,,,,,,,,,,,,,,,,,,,,,,,,,,164.63466919999973,164.63733219999995,164.63733219999995,164.63733219999995,167.6346580999998,f,0.7628334000000905,0.1762711000001218,167.63486699999976,167.63493070000004,None,,,,,,,,,,,,,,,,,00052,001,2026-01-25_12h44.06.631,MST_task,2024.2.0,59.9051701156943,2026-01-25 12h44.19.045427 +0530,
,Objects\146a.jpg,9,0,10,,,,,,,f,0.8500864000002366,0.19133839999994962,None,,,,,,10,0,9,167.6506532999997,,,,,,,,,,,,,,,,,,,,,,,167.63522479999983,167.6506532999997,168.13444409999966,,,,,,,,,,,,,,168.15870670000004,,,,,,,,,,,,,168.15609689999974,168.15870670000004,168.15870670000004,168.15870670000004,171.15069939999967,f,0.8500864000002366,0.19133839999994962,171.1509041999998,171.15096839999978,None,,,,,,,,,,,,,,,,,00052,001,2026-01-25_12h44.06.631,MST_task,2024.2.0,59.9051701156943,2026-01-25 12h44.19.045427 +0530,
,Objects\072a.jpg,10,0,11,,,,,,,f,1.24887549999994,0.16809890000013183,None,,,,,,11,0,10,171.1674270999997,,,,,,,,,,,,,,,,,,,,,,,171.15126389999978,171.1674270999997,171.6510045,,,,,,,,,,,,,,171.6712709999997,,,,,,,,,,,,,171.66836680000006,171.6712709999997,171.6712709999997,171.6712709999997,174.66764269999976,f,1.24887549999994,0.16809890000013183,174.6678480999999,174.6679122999999,None,,,,,,,,,,,,,,,,,00052,001,2026-01-25_12h44.06.631,MST_task,2024.2.0,59.9051701156943,2026-01-25 12h44.19.045427 +0530,
,Objects\043a.jpg,11,0,12,,,,,,,f,1.6847204999999121,0.19257890000017142,None,,,,,,12,0,11,174.68373109999993,,,,,,,,,,,,,,,,,,,,,,,174.66820389999975,174.68373109999993,175.16775289999987,,,,,,,,,,,,,,175.18747189999976,,,,,,,,,,,,,175.18455799999992,175.18747189999976,175.18747189999976,175.18747189999976,178.1844815999998,f,1.6847204999999121,0.19257890000017142,178.18470249999973,178.18476599999985,None,,,,,,,,,,,,,,,,,00052,001,2026-01-25_12h44.06.631,MST_task,2024.2.0,59.9051701156943,2026-01-25 12h44.19.045427 +0530,
,Objects\002a.jpg,12,0,13,,,,,,,f,0.6297515999999632,0.12858930000038526,None,,,,,,13,0,12,178.20066729999962,,,,,,,,,,,,,,,,,,,,,,,178.18506529999968,178.20066729999962,178.68449109999983,,,,,,,,,,,,,,178.70643229999996,,,,,,,,,,,,,178.70324449999998,178.70643229999996,178.70643229999996,178.70643229999996,181.7007107999998,f,0.6297515999999632,0.12858930000038526,181.70091920000004,181.7009826999997,None,,,,,,,,,,,,,,,,,00052,001,2026-01-25_12h44.06.631,MST_task,2024.2.0,59.9051701156943,2026-01-25 12h44.19.045427 +0530,
,Objects\025a.jpg,13,0,14,,,,,,,j,2.1580669999998463,0.16754470000023503,None,,,,,,14,0,13,181.7174086,,,,,,,,,,,,,,,,,,,,,,,181.7013493999998,181.7174086,182.2008962,,,,,,,,,,,,,,182.22651730000007,,,,,,,,,,,,,182.22368509999978,182.22651730000007,182.22651730000007,182.22651730000007,185.21774909999976,j,2.1580669999998463,0.16754470000023503,185.21795359999987,185.21801919999962,None,,,,,,,,,,,,,,,,,00052,001,2026-01-25_12h44.06.631,MST_task,2024.2.0,59.9051701156943,2026-01-25 12h44.19.045427 +0530,
,Scenes\187a.jpg,14,0,15,,,,,,,j,0.780998499999896,0.16848030000028302,None,,,,,,15,0,14,185.23386819999996,,,,,,,,,,,,,,,,,,,,,,,185.21839169999976,185.23386819999996,185.71746989999974,,,,,,,,,,,,,,185.74733669999978,,,,,,,,,,,,,185.74454779999996,185.74733669999978,185.74733669999978,185.74733669999978,188.73487380000006,j,0.780998499999896,0.16848030000028302,188.73509190000004,188.73515819999966,None,,,,,,,,,,,,,,,,,00052,001,2026-01-25_12h44.06.631,MST_task,2024.2.0,59.9051701156943,2026-01-25 12h44.19.045427 +0530,
,Scenes\051a.jpg,15,0,16,,,,,,,j,0.8355639999999767,0.17599479999989853,None,,,,,,16,0,15,188.75056809999978,,,,,,,,,,,,,,,,,,,,,,,188.7354535999998,188.75056809999978,189.23454129999982,,,,,,,,,,,,,,189.26122579999992,,,,,,,,,,,,,189.25860650000004,189.26122579999992,189.26122579999992,189.26122579999992,192.25106349999987,j,0.8355639999999767,0.17599479999989853,192.2512916999999,192.25135619999992,None,,,,,,,,,,,,,,,,,00052,001,2026-01-25_12h44.06.631,MST_task,2024.2.0,59.9051701156943,2026-01-25 12h44.19.045427 +0530,
,Scenes\070a.jpg,16,0,17,,,,,,,j,1.1368994999997994,0.21599650000007387,None,,,,,,17,0,16,192.26725899999974,,,,,,,,,,,,,,,,,,,,,,,192.25175149999995,192.26725899999974,192.7510674,,,,,,,,,,,,,,192.78323229999978,,,,,,,,,,,,,192.78034230000003,192.78323229999978,192.78323229999978,192.78323229999978,195.7674804999997,j,1.1368994999997994,0.21599650000007387,195.767699,195.7677660999998,None,,,,,,,,,,,,,,,,,00052,001,2026-01-25_12h44.06.631,MST_task,2024.2.0,59.9051701156943,2026-01-25 12h44.19.045427 +0530,
,Scenes\071a.jpg,17,0,18,,,,,,,j,1.601518599999963,0.2000329000002239,None,,,,,,18,0,17,195.78395049999972,,,,,,,,,,,,,,,,,,,,,,,195.76814969999987,195.78395049999972,196.2678219999998,,,,,,,,,,,,,,196.30262479999965,,,,,,,,,,,,,196.29984220000006,196.30262479999965,196.30262479999965,196.30262479999965,199.28422209999962,j,1.601518599999963,0.2000329000002239,199.28442929999983,199.28449569999975,None,,,,,,,,,,,,,,,,,00052,001,2026-01-25_12h44.06.631,MST_task,2024.2.0,59.9051701156943,2026-01-25 12h44.19.045427 +0530,
,Scenes\147a.jpg,18,0,19,,,,,,,j,0.757075900000018,0.16787479999993593,None,,,,,,19,0,18,199.30067729999973,,,,,,,,,,,,,,,,,,,,,,,199.28479249999964,199.30067729999973,199.78447329999972,,,,,,,,,,,,,,199.81110339999987,,,,,,,,,,,,,199.8081447999998,199.81110339999987,199.81110339999987,199.81110339999987,202.78488509999988,j,0.757075900000018,0.16787479999993593,202.78509069999973,202.7851513999999,None,,,,,,,,,,,,,,,,,00052,001,2026-01-25_12h44.06.631,MST_task,2024.2.0,59.9051701156943,2026-01-25 12h44.19.045427 +0530,
,Scenes\043a.jpg,19,0,20,,,,,,,None,,,j,0.9553625999997166,None,,,,20,0,19,202.80067689999987,,,,,,,,,,,,,,,,,,,,,,,202.78550719999976,202.80067689999987,203.28448869999966,,,,,,,,,,,,,,203.31919590000007,,,,,,,,,,,,,203.31599939999978,203.31919590000007,203.31919590000007,203.31919590000007,206.3008608,None,,,206.30104779999965,207.2845972,j,206.31743209999968,206.31743209999968,0.9553625999997166,None,,,,,,,,,,,,,00052,001,2026-01-25_12h44.06.631,MST_task,2024.2.0,59.9051701156943,2026-01-25 12h44.19.045427 +0530,
,Scenes\044a.jpg,20,0,21,,,,,,,j,0.8856647999996312,0.16818850000026941,None,,,,,,21,0,20,207.30074149999973,,,,,,,,,,,,,,,,,,,,,,,207.28512079999973,207.30074149999973,207.78419170000006,,,,,,,,,,,,,,207.81094689999964,,,,,,,,,,,,,207.80802330000006,207.81094689999964,207.81094689999964,207.81094689999964,210.78518059999988,j,0.8856647999996312,0.16818850000026941,210.7853944999997,210.78546119999965,None,,,,,,,,,,,,,,,,,00052,001,2026-01-25_12h44.06.631,MST_task,2024.2.0,59.9051701156943,2026-01-25 12h44.19.045427 +0530,
,Objects\056a.jpg,21,0,22,,,,,,,f,0.9550626999998713,0.12039379999987432,None,,,,,,22,0,21,210.80105319999984,,,,,,,,,,,,,,,,,,,,,,,210.78575509999973,210.80105319999984,211.28426509999963,,,,,,,,,,,,,,211.3011121999998,,,,,,,,,,,,,211.29330709999977,211.3011121999998,211.3011121999998,211.3011121999998,214.28517310000007,f,0.9550626999998713,0.12039379999987432,214.28538200000003,214.28544280000006,None,,,,,214.3003678,214.3003678,214.3003678,,,,,,,,,,00052,001,2026-01-25_12h44.06.631,MST_task,2024.2.0,59.9051701156943,2026-01-25 12h44.19.045427 +0530,
,Objects\159a.jpg,22,0,23,,,,,,,f,0.6593366000001879,0.14445159999968382,None,,,,,,23,0,22,214.3003678,,,,,,,,,,,,,,,,,,,,,,,214.28574439999966,214.3003678,214.78420349999988,,,,,,,,,,,,,,214.80502469999965,,,,,,,,,,,,,214.80264659999966,214.80502469999965,214.80502469999965,214.80502469999965,217.80107929999986,f,0.6593366000001879,0.14445159999968382,217.80129229999966,217.80135829999972,None,,,,,,,,,,,,,,,,,00052,001,2026-01-25_12h44.06.631,MST_task,2024.2.0,59.9051701156943,2026-01-25 12h44.19.045427 +0530,
,Objects\116a.jpg,23,0,24,,,,,,,None,,,j,1.0110321000001932,None,,,,24,0,23,217.81743719999986,,,,,,,,,,,,,,,,,,,,,,,217.8017301,217.81743719999986,218.30108810000002,,,,,,,,,,,,,,218.32203309999977,,,,,,,,,,,,,218.31948739999962,218.32203309999977,218.32203309999977,218.32203309999977,221.31745809999984,None,,,221.31763999999976,222.35124210000004,j,221.33375819999992,221.33375819999992,1.0110321000001932,None,,,,,,,,,,,,,00052,001,2026-01-25_12h44.06.631,MST_task,2024.2.0,59.9051701156943,2026-01-25 12h44.19.045427 +0530,
,Objects\097a.jpg,24,0,25,,,,,,,j,2.1856967999997323,0.15986460000021907,None,,,,,,25,0,24,222.36764109999967,,,,,,,,,,,,,,,,,,,,,,,222.35178259999975,222.36764109999967,222.85093359999973,,,,,,,,,,,,,,222.87109489999966,,,,,,,,,,,,,222.86831719999964,222.87109489999966,222.87109489999966,222.87109489999966,225.86754249999967,j,2.1856967999997323,0.15986460000021907,225.86775369999987,225.86782049999965,None,,,,,,,,,,,,,,,,,00052,001,2026-01-25_12h44.06.631,MST_task,2024.2.0,59.9051701156943,2026-01-25 12h44.19.045427 +0530,
,Objects\053a.jpg,25,0,26,,,,,,,f,1.1405629000000772,0.13670049999973344,None,,,,,,26,0,25,225.88383989999966,,,,,,,,,,,,,,,,,,,,,,,225.86811679999983,225.88383989999966,226.3677877,,,,,,,,,,,,,,226.38752929999964,,,,,,,,,,,,,226.38492329999963,226.38752929999964,226.38752929999964,226.38752929999964,229.38449300000002,f,1.1405629000000772,0.13670049999973344,229.38471319999962,229.3847934999999,None,,,,,,,,,,,,,,,,,00052,001,2026-01-25_12h44.06.631,MST_task,2024.2.0,59.9051701156943,2026-01-25 12h44.19.045427 +0530,
,Objects\016a.jpg,26,0,27,,,,,,,f,2.88668830000006,None,None,,,,,,27,0,26,229.40075069999966,,,,,,,,,,,,,,,,,,,,,,,229.38517219999994,229.40075069999966,229.88453849999996,,,,,,,,,,,,,,229.90615609999986,,,,,,,,,,,,,229.9033833999997,229.90615609999986,229.90615609999986,229.90615609999986,232.88551849999976,f,2.88668830000006,None,232.88573309999992,232.88579709999976,None,,,,,,,,,,,,,,,,,00052,001,2026-01-25_12h44.06.631,MST_task,2024.2.0,59.9051701156943,2026-01-25 12h44.19.045427 +0530,
,Objects\153a.jpg,27,0,28,,,,,,,f,1.1149380000001656,0.16064430000005814,None,,,,,,28,0,27,232.90074019999975,,,,,,,,,,,,,,,,,,,,,,,232.88617380000005,232.90074019999975,233.3843041,,,,,,,,,,,,,,233.4051955,,,,,,,,,,,,,233.40291819999993,233.4051955,233.4051955,233.4051955,236.40073989999973,f,1.1149380000001656,0.16064430000005814,236.40094599999975,236.40100809999967,None,,,,,,,,,,,,,,,,,00052,001,2026-01-25_12h44.06.631,MST_task,2024.2.0,59.9051701156943,2026-01-25 12h44.19.045427 +0530,
,Scenes\020a.jpg,28,0,29,,,,,,,f,1.9365935000000718,0.17591399999992063,None,,,,,,29,0,28,236.41755599999988,,,,,,,,,,,,,,,,,,,,,,,236.4013044999997,236.41755599999988,236.90102320000005,,,,,,,,,,,,,,236.9357299999997,,,,,,,,,,,,,236.93275559999984,236.9357299999997,236.9357299999997,236.9357299999997,239.9179025999997,f,1.9365935000000718,0.17591399999992063,239.91807530000005,239.91812339999979,None,,,,,,,,,,,,,,,,,00052,001,2026-01-25_12h44.06.631,MST_task,2024.2.0,59.9051701156943,2026-01-25 12h44.19.045427 +0530,
,Scenes\035a.jpg,29,0,30,,,,,,,f,2.877639999999701,None,None,,,,,,30,0,29,239.93397609999965,,,,,,,,,,,,,,,,,,,,,,,239.9183512999998,239.93397609999965,240.41755469999998,,,,,,,,,,,,,,240.45116129999997,,,,,,,,,,,,,240.44825579999997,240.45116129999997,240.45116129999997,240.45116129999997,243.4344299999998,f,2.877639999999701,None,243.4346370999997,243.43470149999985,None,,,,,,,,,,,,,,,,,00052,001,2026-01-25_12h44.06.631,MST_task,2024.2.0,59.9051701156943,2026-01-25 12h44.19.045427 +0530,
,Scenes\055a.jpg,30,0,31,,,,,,,j,0.7820033999996667,0.21542490000001635,None,,,,,,31,0,30,243.45076040000004,,,,,,,,,,,,,,,,,,,,,,,243.43499529999963,243.45076040000004,243.9344361999997,,,,,,,,,,,,,,243.9627845,,,,,,,,,,,,,243.96056679999992,243.9627845,243.9627845,243.9627845,246.95089800000005,j,0.7820033999996667,0.21542490000001635,246.95110729999988,246.95117149999987,None,,,,,,,,,,,,,,,,,00052,001,2026-01-25_12h44.06.631,MST_task,2024.2.0,59.9051701156943,2026-01-25 12h44.19.045427 +0530,
,Scenes\097a.jpg,31,0,32,,,,,,,j,2.1969042999999147,0.18353690000003553,None,,,,,,32,0,31,246.96755170000006,,,,,,,,,,,,,,,,,,,,,,,246.9514621999997,246.96755170000006,247.4511411999997,,,,,,,,,,,,,,247.4677069999998,,,,,,,,,,,,,247.4611147999999,247.4677069999998,247.4677069999998,247.4677069999998,250.45186909999984,j,2.1969042999999147,0.18353690000003553,250.45207600000003,250.45213749999994,None,,,,,250.46743719999995,250.46743719999995,250.46743719999995,,,,,,,,,,00052,001,2026-01-25_12h44.06.631,MST_task,2024.2.0,59.9051701156943,2026-01-25 12h44.19.045427 +0530,
,Scenes\114a.jpg,32,0,33,,,,,,,j,2.7388731000000917,0.19183380000004036,None,,,,,,33,0,32,250.46743719999995,,,,,,,,,,,,,,,,,,,,,,,250.4525177999999,250.46743719999995,250.95092579999982,,,,,,,,,,,,,,250.98943340000005,,,,,,,,,,,,,250.9866133999999,250.98943340000005,250.98943340000005,250.98943340000005,253.96778449999965,j,2.7388731000000917,0.19183380000004036,253.96799269999974,253.96805919999997,None,,,,,,,,,,,,,,,,,00052,001,2026-01-25_12h44.06.631,MST_task,2024.2.0,59.9051701156943,2026-01-25 12h44.19.045427 +0530,
,Scenes\068a.jpg,33,0,34,,,,,,,j,0.7028833999997914,0.20884450000039578,None,,,,,,34,0,33,253.98493409999992,,,,,,,,,,,,,,,,,,,,,,,253.96843239999998,253.98493409999992,254.4678958999998,,,,,,,,,,,,,,254.49725369999987,,,,,,,,,,,,,254.49435779999976,254.49725369999987,254.49725369999987,254.49725369999987,257.4841499999998,j,0.7028833999997914,0.20884450000039578,257.4843300999996,257.4843897999999,None,,,,,,,,,,,,,,,,,00052,001,2026-01-25_12h44.06.631,MST_task,2024.2.0,59.9051701156943,2026-01-25 12h44.19.045427 +0530,
,Scenes\121a.jpg,34,0,35,,,,,,,j,2.654446700000335,0.1433766000000105,None,,,,,,35,0,34,257.5003776999997,,,,,,,,,,,,,,,,,,,,,,,257.4847259999997,257.5003776999997,257.984148,,,,,,,,,,,,,,258.0023764999996,,,,,,,,,,,,,257.99969969999984,258.0023764999996,258.0023764999996,258.0023764999996,261.00160819999974,j,2.654446700000335,0.1433766000000105,261.0018404999996,261.00190459999976,None,,,,,,,,,,,,,,,,,00052,001,2026-01-25_12h44.06.631,MST_task,2024.2.0,59.9051701156943,2026-01-25 12h44.19.045427 +0530,
,Objects\089a.jpg,35,0,36,,,,,,,f,1.092583999999988,0.144635599999674,None,,,,,,36,0,35,261.0175154999997,,,,,,,,,,,,,,,,,,,,,,,261.00229309999986,261.0175154999997,261.50157339999987,,,,,,,,,,,,,,261.5235647999998,,,,,,,,,,,,,261.5207759,261.5235647999998,261.5235647999998,261.5235647999998,264.5176538999999,f,1.092583999999988,0.144635599999674,264.5178598999996,264.5179241999999,None,,,,,,,,,,,,,,,,,00052,001,2026-01-25_12h44.06.631,MST_task,2024.2.0,59.9051701156943,2026-01-25 12h44.19.045427 +0530,
,Objects\114a.jpg,36,0,37,,,,,,,f,2.9768715999998676,None,None,,,,,,37,0,36,264.53390649999983,,,,,,,,,,,,,,,,,,,,,,,264.5183098999996,264.53390649999983,265.01826170000004,,,,,,,,,,,,,,265.0395945999999,,,,,,,,,,,,,265.0370846999999,265.0395945999999,265.0395945999999,265.0395945999999,268.03492460000007,f,2.9768715999998676,None,268.03519179999967,268.0352549999998,None,,,,,,,,,,,,,,,,,00052,001,2026-01-25_12h44.06.631,MST_task,2024.2.0,59.9051701156943,2026-01-25 12h44.19.045427 +0530,
,Objects\178a.jpg,37,0,38,,,,,,,j,1.0048569999999017,0.1840223999997761,None,,,,,,38,0,37,268.0505008,,,,,,,,,,,,,,,,,,,,,,,268.0355528,268.0505008,268.5345503999997,,,,,,,,,,,,,,268.5559398999999,,,,,,,,,,,,,268.5530893,268.5559398999999,268.5559398999999,268.5559398999999,271.55169959999967,j,1.0048569999999017,0.1840223999997761,271.5519239,271.5519869999998,None,,,,,,,,,,,,,,,,,00052,001,2026-01-25_12h44.06.631,MST_task,2024.2.0,59.9051701156943,2026-01-25 12h44.19.045427 +0530,
,Objects\169a.jpg,38,0,39,,,,,,,None,,,f,0.5487161000000924,None,,,,39,0,38,271.5675210999998,,,,,,,,,,,,,,,,,,,,,,,271.55228369999986,271.5675210999998,272.0508394999997,,,,,,,,,,,,,,272.0722493999997,,,,,,,,,,,,,272.07002429999966,272.0722493999997,272.0722493999997,272.0722493999997,275.0675763999998,None,,,275.0677649999998,275.63436520000005,f,275.08389179999995,275.08389179999995,0.5487161000000924,None,,,,,,,,,,,,,00052,001,2026-01-25_12h44.06.631,MST_task,2024.2.0,59.9051701156943,2026-01-25 12h44.19.045427 +0530,
,Objects\131a.jpg,39,0,40,,,,,,,f,1.7889949000000342,0.13597370000024966,None,,,,,,40,0,39,275.65077999999994,,,,,,,,,,,,,,,,,,,,,,,275.6347117,275.65077999999994,276.1345898999998,,,,,,,,,,,,,,276.15582829999994,,,,,,,,,,,,,276.1532973999997,276.15582829999994,276.15582829999994,276.15582829999994,279.1511446999998,f,1.7889949000000342,0.13597370000024966,279.1512524,279.1512810999998,None,,,,,,,,,,,,,,,,,00052,001,2026-01-25_12h44.06.631,MST_task,2024.2.0,59.9051701156943,2026-01-25 12h44.19.045427 +0530,
,Objects\033a.jpg,40,0,41,,,,,,,f,0.838148899999851,0.1519524000000274,None,,,,,,41,0,40,279.16729399999986,,,,,,,,,,,,,,,,,,,,,,,279.1514216999999,279.16729399999986,279.65102279999974,,,,,,,,,,,,,,279.6746737999997,,,,,,,,,,,,,279.6721515999998,279.6746737999997,279.6746737999997,279.6746737999997,282.66759550000006,f,0.838148899999851,0.1519524000000274,282.66782190000004,282.6678856999997,None,,,,,,,,,,,,,,,,,00052,001,2026-01-25_12h44.06.631,MST_task,2024.2.0,59.9051701156943,2026-01-25 12h44.19.045427 +0530,
,Objects\134a.jpg,41,0,42,,,,,,,f,2.7705237000000125,0.16833339999993768,None,,,,,,42,0,41,282.6841623,,,,,,,,,,,,,,,,,,,,,,,282.6681779999999,282.6841623,283.1675747999998,,,,,,,,,,,,,,283.1899349,,,,,,,,,,,,,283.1869893999997,283.1899349,283.1899349,283.1899349,286.1846502999997,f,2.7705237000000125,0.16833339999993768,286.18486200000007,286.1849262999999,None,,,,,,,,,,,,,,,,,00052,001,2026-01-25_12h44.06.631,MST_task,2024.2.0,59.9051701156943,2026-01-25 12h44.19.045427 +0530,
,Scenes\090a.jpg,42,0,43,,,,,,,j,2.7973425000000134,None,None,,,,,,43,0,42,286.2007822999999,,,,,,,,,,,,,,,,,,,,,,,286.18535380000003,286.2007822999999,286.68522140000005,,,,,,,,,,,,,,286.7228817,,,,,,,,,,,,,286.7201025999998,286.7228817,286.7228817,286.7228817,289.7011865999998,j,2.7973425000000134,None,289.70139979999976,289.70146399999976,None,,,,,,,,,,,,,,,,,00052,001,2026-01-25_12h44.06.631,MST_task,2024.2.0,59.9051701156943,2026-01-25 12h44.19.045427 +0530,
,Scenes\031a.jpg,43,0,44,,,,,,,j,2.8708111999999346,None,None,,,,,,44,0,43,289.71752620000007,,,,,,,,,,,,,,,,,,,,,,,289.7018377999998,289.71752620000007,290.2012614999999,,,,,,,,,,,,,,290.23353199999974,,,,,,,,,,,,,290.2305403999999,290.23353199999974,290.23353199999974,290.23353199999974,293.21792830000004,j,2.8708111999999346,None,293.21815130000005,293.21821679999994,None,,,,,,,,,,,,,,,,,00052,001,2026-01-25_12h44.06.631,MST_task,2024.2.0,59.9051701156943,2026-01-25 12h44.19.045427 +0530,
,Scenes\047a.jpg,44,0,45,,,,,,,j,2.2299158000000716,0.1837641000001895,None,,,,,,45,0,44,293.2342021999998,,,,,,,,,,,,,,,,,,,,,,,293.21859799999993,293.2342021999998,293.71793979999984,,,,,,,,,,,,,,293.7544119999998,,,,,,,,,,,,,293.75190559999965,293.7544119999998,293.7544119999998,293.7544119999998,296.7353734999997,j,2.2299158000000716,0.1837641000001895,296.73558920000005,296.73565789999975,None,,,,,,,,,,,,,,,,,00052,001,2026-01-25_12h44.06.631,MST_task,2024.2.0,59.9051701156943,2026-01-25 12h44.19.045427 +0530,
,Scenes\080a.jpg,45,0,46,,,,,,,j,0.606671400000323,0.12732180000011795,None,,,,,,46,0,45,296.7506350999997,,,,,,,,,,,,,,,,,,,,,,,296.736034,296.7506350999997,297.23459509999975,,,,,,,,,,,,,,297.2661761999998,,,,,,,,,,,,,297.2632893,297.2661761999998,297.2661761999998,297.2661761999998,300.25123510000003,j,0.606671400000323,0.12732180000011795,300.25145299999986,300.2515180999999,None,,,,,,,,,,,,,,,,,00052,001,2026-01-25_12h44.06.631,MST_task,2024.2.0,59.9051701156943,2026-01-25 12h44.19.045427 +0530,
,Scenes\182a.jpg,46,0,47,,,,,,,j,0.8084198999999899,0.15247980000003736,None,,,,,,47,0,46,300.26739759999964,,,,,,,,,,,,,,,,,,,,,,,300.2518955999999,300.26739759999964,300.75118459999976,,,,,,,,,,,,,,300.76793309999994,,,,,,,,,,,,,300.76531909999994,300.76793309999994,300.76793309999994,300.76793309999994,303.75196800000003,j,0.8084198999999899,0.15247980000003736,303.75216969999974,303.75223000000005,None,,,,,303.7675347999998,303.7675347999998,303.7675347999998,,,,,,,,,,00052,001,2026-01-25_12h44.06.631,MST_task,2024.2.0,59.9051701156943,2026-01-25 12h44.19.045427 +0530,
,Scenes\126a.jpg,47,0,48,,,,,,,j,0.8050335000002633,0.14333689999966737,None,,,,,,48,0,47,303.7675347999998,,,,,,,,,,,,,,,,,,,,,,,303.7525311999998,303.7675347999998,304.2512099999999,,,,,,,,,,,,,,304.28380530000004,,,,,,,,,,,,,304.28104759999997,304.28380530000004,304.28380530000004,304.28380530000004,307.26736359999995,j,0.8050335000002633,0.14333689999966737,307.2675528,307.2676128999997,None,,,,,,,,,,,,,,,,,00052,001,2026-01-25_12h44.06.631,MST_task,2024.2.0,59.9051701156943,2026-01-25 12h44.19.045427 +0530,
,Scenes\060a.jpg,48,0,49,,,,,,,j,0.4779863000003388,0.16059649999988324,None,,,,,,49,0,48,307.28362679999964,,,,,,,,,,,,,,,,,,,,,,,307.2679386,307.28362679999964,307.7671247999997,,,,,,,,,,,,,,307.8262483999997,,,,,,,,,,,,,307.8234874999998,307.8262483999997,307.8262483999997,307.8262483999997,310.76828449999994,j,0.4779863000003388,0.16059649999988324,310.7684955999998,310.76856009999983,None,,,,,,,,,,,,,,,,,00052,001,2026-01-25_12h44.06.631,MST_task,2024.2.0,59.9051701156943,2026-01-25 12h44.19.045427 +0530,
,Objects\086a.jpg,49,0,50,,,,,,,j,0.6546385000001465,0.10463449999997465,None,,,,,,50,0,49,310.78414440000006,,,,,,,,,,,,,,,,,,,,,,,310.7689284999997,310.78414440000006,311.26789529999996,,,,,,,,,,,,,,311.28951860000006,,,,,,,,,,,,,311.2865472999997,311.28951860000006,311.28951860000006,311.28951860000006,314.2845192,j,0.6546385000001465,0.10463449999997465,314.28473659999963,314.28480249999984,None,,,,,,,,,,,,,,,,,00052,001,2026-01-25_12h44.06.631,MST_task,2024.2.0,59.9051701156943,2026-01-25 12h44.19.045427 +0530,
,Objects\001a.jpg,50,0,51,,,,,,,f,0.6212753999998313,0.19997940000030212,None,,,,,,51,0,50,314.30086299999994,,,,,,,,,,,,,,,,,,,,,,,314.2851682999999,314.30086299999994,314.78461130000005,,,,,,,,,,,,,,314.8035611,,,,,,,,,,,,,314.8004277,314.8035611,314.8035611,314.8035611,317.80110579999973,f,0.6212753999998313,0.19997940000030212,317.8013209999999,317.80138910000005,None,,,,,,,,,,,,,,,,,00052,001,2026-01-25_12h44.06.631,MST_task,2024.2.0,59.9051701156943,2026-01-25 12h44.19.045427 +0530,
,Objects\182a.jpg,51,0,52,,,,,,,f,0.5181229999998322,0.1677058999998735,None,,,,,,52,0,51,317.8173706999996,,,,,,,,,,,,,,,,,,,,,,,317.80169439999963,317.8173706999996,318.30080640000006,,,,,,,,,,,,,,318.3229699999997,,,,,,,,,,,,,318.32025079999994,318.3229699999997,318.3229699999997,318.3229699999997,321.31778259999965,f,0.5181229999998322,0.1677058999998735,321.3180026,321.3180675999997,None,,,,,,,,,,,,,,,,,00052,001,2026-01-25_12h44.06.631,MST_task,2024.2.0,59.9051701156943,2026-01-25 12h44.19.045427 +0530,
,Objects\188a.jpg,52,0,53,,,,,,,None,,,f,0.5422177000000374,None,,,,53,0,52,321.33454749999964,,,,,,,,,,,,,,,,,,,,,,,321.3183581999997,321.33454749999964,321.8178909999997,,,,,,,,,,,,,,321.8383009999998,,,,,,,,,,,,,321.8353183999998,321.8383009999998,321.8383009999998,321.8383009999998,324.8347939999999,None,,,324.83519209999986,325.40140789999987,f,324.85060440000007,324.85060440000007,0.5422177000000374,None,,,,,,,,,,,,,00052,001,2026-01-25_12h44.06.631,MST_task,2024.2.0,59.9051701156943,2026-01-25 12h44.19.045427 +0530,
,Objects\185a.jpg,53,0,54,,,,,,,f,0.6867401999998037,0.16755400000010923,None,,,,,,54,0,53,325.41732120000006,,,,,,,,,,,,,,,,,,,,,,,325.40196119999973,325.41732120000006,325.9011505999997,,,,,,,,,,,,,,325.9220839999998,,,,,,,,,,,,,325.91951100000006,325.9220839999998,325.9220839999998,325.9220839999998,328.9175734999999,f,0.6867401999998037,0.16755400000010923,328.9177821999997,328.9178490999998,None,,,,,,,,,,,,,,,,,00052,001,2026-01-25_12h44.06.631,MST_task,2024.2.0,59.9051701156943,2026-01-25 12h44.19.045427 +0530,
,Objects\160a.jpg,54,0,55,,,,,,,f,1.13869029999978,0.18455040000026202,None,,,,,,55,0,54,328.9342279999996,,,,,,,,,,,,,,,,,,,,,,,328.91822109999976,328.9342279999996,329.41789549999976,,,,,,,,,,,,,,329.4376036999997,,,,,,,,,,,,,329.4350252999998,329.4376036999997,329.4376036999997,329.4376036999997,332.4346089999999,f,1.13869029999978,0.18455040000026202,332.4348175,332.4348799999998,None,,,,,,,,,,,,,,,,,00052,001,2026-01-25_12h44.06.631,MST_task,2024.2.0,59.9051701156943,2026-01-25 12h44.19.045427 +0530,
,Objects\026a.jpg,55,0,56,,,,,,,f,2.4946436000000176,0.15194509999992079,None,,,,,,56,0,55,332.4515376999998,,,,,,,,,,,,,,,,,,,,,,,332.43517399999973,332.4515376999998,332.93436470000006,,,,,,,,,,,,,,332.9536568999997,,,,,,,,,,,,,332.9514709,332.9536568999997,332.9536568999997,332.9536568999997,335.9510009999999,f,2.4946436000000176,0.15194509999992079,335.95121249999966,335.95126649999975,None,,,,,,,,,,,,,,,,,00052,001,2026-01-25_12h44.06.631,MST_task,2024.2.0,59.9051701156943,2026-01-25 12h44.19.045427 +0530,
,Scenes\036a.jpg,56,0,57,,,,,,,j,2.5005119000002196,0.2159628999997949,None,,,,,,57,0,56,335.96751300000005,,,,,,,,,,,,,,,,,,,,,,,335.95158939999965,335.96751300000005,336.4512606999997,,,,,,,,,,,,,,336.47634199999993,,,,,,,,,,,,,336.4735212999999,336.47634199999993,336.47634199999993,336.47634199999993,339.4678722999997,j,2.5005119000002196,0.2159628999997949,339.46807539999963,339.4681378,None,,,,,,,,,,,,,,,,,00052,001,2026-01-25_12h44.06.631,MST_task,2024.2.0,59.9051701156943,2026-01-25 12h44.19.045427 +0530,
,Scenes\029a.jpg,57,0,58,,,,,,,j,0.6546699000000444,0.21595590000015363,None,,,,,,58,0,57,339.4842365999998,,,,,,,,,,,,,,,,,,,,,,,339.46842949999973,339.4842365999998,339.9678976,,,,,,,,,,,,,,340.00219249999964,,,,,,,,,,,,,339.99931449999985,340.00219249999964,340.00219249999964,340.00219249999964,342.9846580999997,j,0.6546699000000444,0.21595590000015363,342.9848622999998,342.98492559999977,None,,,,,,,,,,,,,,,,,00052,001,2026-01-25_12h44.06.631,MST_task,2024.2.0,59.9051701156943,2026-01-25 12h44.19.045427 +0530,
,Scenes\085a.jpg,58,0,59,,,,,,,j,0.8206258999998681,0.14462319999984175,None,,,,,,59,0,58,343.0005425999998,,,,,,,,,,,,,,,,,,,,,,,342.98529329999974,343.0005425999998,343.4846447,,,,,,,,,,,,,,343.51559210000005,,,,,,,,,,,,,343.51308960000006,343.51559210000005,343.51559210000005,343.51559210000005,346.5013307999998,j,0.8206258999998681,0.14462319999984175,346.50153569999975,346.50159829999984,None,,,,,,,,,,,,,,,,,00052,001,2026-01-25_12h44.06.631,MST_task,2024.2.0,59.9051701156943,2026-01-25 12h44.19.045427 +0530,
,Scenes\082a.jpg,59,0,60,,,,,,,f,1.1885753999999906,0.21582989999978963,None,,,,,,60,0,59,346.5175350999998,,,,,,,,,,,,,,,,,,,,,,,346.50196229999983,346.5175350999998,347.00134839999964,,,,,,,,,,,,,,347.0362904999997,,,,,,,,,,,,,347.03386509999973,347.0362904999997,347.0362904999997,347.0362904999997,350.0178441999997,f,1.1885753999999906,0.21582989999978963,350.01804519999996,350.01810869999963,None,,,,,,,,,,,,,,,,,00052,001,2026-01-25_12h44.06.631,MST_task,2024.2.0,59.9051701156943,2026-01-25 12h44.19.045427 +0530,
,Scenes\157a.jpg,60,0,61,,,,,,,j,1.6764542000000802,0.2163084999997409,None,,,,,,61,0,60,350.0342455,,,,,,,,,,,,,,,,,,,,,,,350.0184900999998,350.0342455,350.517922,,,,,,,,,,,,,,350.54787450000003,,,,,,,,,,,,,350.54511950000006,350.54787450000003,350.54787450000003,350.54787450000003,353.53452389999984,j,1.6764542000000802,0.2163084999997409,353.53472829999964,353.53479119999975,None,,,,,,,,,,,,,,,,,00052,001,2026-01-25_12h44.06.631,MST_task,2024.2.0,59.9051701156943,2026-01-25 12h44.19.045427 +0530,
,Scenes\038a.jpg,61,0,62,,,,,,,j,0.9667552000000796,0.12829829999964204,None,,,,,,62,0,61,353.55077749999964,,,,,,,,,,,,,,,,,,,,,,,353.5351593999999,353.55077749999964,354.03465609999967,,,,,,,,,,,,,,354.06578149999996,,,,,,,,,,,,,354.06293419999975,354.06578149999996,354.06578149999996,354.06578149999996,357.0513274,j,0.9667552000000796,0.12829829999964204,357.0515314999998,357.05159490000005,None,,,,,,,,,,,,,,,,,00052,001,2026-01-25_12h44.06.631,MST_task,2024.2.0,59.9051701156943,2026-01-25 12h44.19.045427 +0530,
,Scenes\078a.jpg,62,0,63,,,,,,,None,,,f,0.6248188999998092,None,,,,63,0,62,357.0675256999998,,,,,,,,,,,,,,,,,,,,,,,357.05204189999995,357.0675256999998,357.5513286999999,,,,,,,,,,,,,,357.5707755999997,,,,,,,,,,,,,357.5676183999999,357.5707755999997,357.5707755999997,357.5707755999997,360.56795839999995,None,,,360.5681403999997,361.2177007,f,360.58399139999983,360.58399139999983,0.6248188999998092,None,,,,,,,,,,,,,00052,001,2026-01-25_12h44.06.631,MST_task,2024.2.0,59.9051701156943,2026-01-25 12h44.19.045427 +0530,
,Objects\058a.jpg,63,0,64,,,,,,,f,0.6657091000001856,0.19998619999978473,None,,,,,,64,0,63,361.23485329999994,,,,,,,,,,,,,,,,,,,,,,,361.2182353999997,361.23485329999994,361.71791919999987,,,,,,,,,,,,,,361.73448029999963,,,,,,,,,,,,,361.7268961,361.73448029999963,361.73448029999963,361.73448029999963,364.7180656999999,f,0.6657091000001856,0.19998619999978473,364.7182647999998,364.7183289999998,None,,,,,,,,,,,,,,,,,00052,001,2026-01-25_12h44.06.631,MST_task,2024.2.0,59.9051701156943,2026-01-25 12h44.19.045427 +0530,
,Objects\005a.jpg,64,0,65,,,,,,,f,0.6381744999998773,0.16865850000021965,None,,,,,,65,0,64,364.7342741999996,,,,,,,,,,,,,,,,,,,,,,,364.71862169999986,364.7342741999996,365.21771850000005,,,,,,,,,,,,,,365.2419642,,,,,,,,,,,,,365.23909579999963,365.2419642,365.2419642,365.2419642,368.23472790000005,f,0.6381744999998773,0.16865850000021965,368.2349310999998,368.2349946999998,None,,,,,,,,,,,,,,,,,00052,001,2026-01-25_12h44.06.631,MST_task,2024.2.0,59.9051701156943,2026-01-25 12h44.19.045427 +0530,
,Objects\013a.jpg,65,0,66,,,,,,,j,2.005270599999676,0.16870410000001357,None,,,,,,66,0,65,368.25063139999975,,,,,,,,,,,,,,,,,,,,,,,368.23538009999993,368.25063139999975,368.73467729999993,,,,,,,,,,,,,,368.75488589999986,,,,,,,,,,,,,368.75212699999975,368.75488589999986,368.75488589999986,368.75488589999986,371.7513006999998,j,2.005270599999676,0.16870410000001357,371.75150140000005,371.75156289999995,None,,,,,,,,,,,,,,,,,00052,001,2026-01-25_12h44.06.631,MST_task,2024.2.0,59.9051701156943,2026-01-25 12h44.19.045427 +0530,
,Objects\129a.jpg,66,0,67,,,,,,,f,1.0842986999996356,0.16797290000022258,None,,,,,,67,0,66,371.7673114999998,,,,,,,,,,,,,,,,,,,,,,,371.7518531999999,371.7673114999998,372.25194429999965,,,,,,,,,,,,,,,,,,,,,,,,,,,372.26083130000006,372.26782179999964,372.26782179999964,372.26782179999964,375.25185009999996,f,1.0842986999996356,0.16797290000022258,375.2520464999998,375.2521069999998,None,,,,,375.26795809999976,375.26795809999976,375.26795809999976,,,,,,,,,,00052,001,2026-01-25_12h44.06.631,MST_task,2024.2.0,59.9051701156943,2026-01-25 12h44.19.045427 +0530,
,Objects\063a.jpg,67,0,68,,,,,,,f,1.358069599999908,0.15085769999996046,None,,,,,,68,0,67,375.26795809999976,,,,,,,,,,,,,,,,,,,,,,,375.2524758999998,375.26795809999976,375.7513494,,,,,,,,,,,,,,375.7718897999998,,,,,,,,,,,,,375.7693955999998,375.7718897999998,375.7718897999998,375.7718897999998,378.76786219999985,f,1.358069599999908,0.15085769999996046,378.76806309999984,378.76812870000003,None,,,,,,,,,,,,,,,,,00052,001,2026-01-25_12h44.06.631,MST_task,2024.2.0,59.9051701156943,2026-01-25 12h44.19.045427 +0530,
,Objects\172a.jpg,68,0,69,,,,,,,j,1.7411604999997508,0.14357689999997092,None,,,,,,69,0,68,378.7840796999999,,,,,,,,,,,,,,,,,,,,,,,378.76849319999974,378.7840796999999,379.26808409999967,,,,,,,,,,,,,,379.29167430000007,,,,,,,,,,,,,379.28966579999997,379.29167430000007,379.29167430000007,379.29167430000007,382.28425719999996,j,1.7411604999997508,0.14357689999997092,382.2844465999997,382.2845029,None,,,,,,,,,,,,,,,,,00052,001,2026-01-25_12h44.06.631,MST_task,2024.2.0,59.9051701156943,2026-01-25 12h44.19.045427 +0530,
,Objects\009a.jpg,69,0,70,,,,,,,f,2.0227719999998044,0.16118340000002718,None,,,,,,70,0,69,382.30096019999974,,,,,,,,,,,,,,,,,,,,,,,382.2848162,382.30096019999974,382.7847597,,,,,,,,,,,,,,382.8097058999997,,,,,,,,,,,,,382.8070896999998,382.8097058999997,382.8097058999997,382.8097058999997,385.80133899999964,f,2.0227719999998044,0.16118340000002718,385.80154109999967,385.80160479999995,None,,,,,,,,,,,,,,,,,00052,001,2026-01-25_12h44.06.631,MST_task,2024.2.0,59.9051701156943,2026-01-25 12h44.19.045427 +0530,
,Scenes\163a.jpg,70,0,71,,,,,,,j,1.2633004999997866,0.1683658000001742,None,,,,,,71,0,70,385.8179261,,,,,,,,,,,,,,,,,,,,,,,385.80189759999985,385.8179261,386.3013695999998,,,,,,,,,,,,,,386.32917,,,,,,,,,,,,,386.3266300999999,386.32917,386.32917,386.32917,389.3177072999997,j,1.2633004999997866,0.1683658000001742,389.31790509999973,389.3179689999997,None,,,,,,,,,,,,,,,,,00052,001,2026-01-25_12h44.06.631,MST_task,2024.2.0,59.9051701156943,2026-01-25 12h44.19.045427 +0530,
,Scenes\002a.jpg,71,0,72,,,,,,,j,0.8152927000001,0.1679850999998962,None,,,,,,72,0,71,389.3340435,,,,,,,,,,,,,,,,,,,,,,,389.31833549999965,389.3340435,389.8180081999999,,,,,,,,,,,,,,389.8495788,,,,,,,,,,,,,389.84668039999997,389.8495788,389.8495788,389.8495788,392.8345780999998,j,0.8152927000001,0.1679850999998962,392.8347776999999,392.83484439999984,None,,,,,,,,,,,,,,,,,00052,001,2026-01-25_12h44.06.631,MST_task,2024.2.0,59.9051701156943,2026-01-25 12h44.19.045427 +0530,
,Scenes\005a.jpg,72,0,73,,,,,,,j,1.8087028999998438,0.15969940000013594,None,,,,,,73,0,72,392.8508677,,,,,,,,,,,,,,,,,,,,,,,392.83521189999965,392.8508677,393.3347125,,,,,,,,,,,,,,393.35173319999967,,,,,,,,,,,,,393.3484085,393.35173319999967,393.35173319999967,393.35173319999967,396.33580519999987,j,1.8087028999998438,0.15969940000013594,396.33602089999977,396.3360822999998,None,,,,,396.3510610999997,396.3510610999997,396.3510610999997,,,,,,,,,,00052,001,2026-01-25_12h44.06.631,MST_task,2024.2.0,59.9051701156943,2026-01-25 12h44.19.045427 +0530,
,Scenes\123a.jpg,73,0,74,,,,,,,j,1.972661799999969,0.16739890000008018,None,,,,,,74,0,73,396.3510610999997,,,,,,,,,,,,,,,,,,,,,,,396.33636869999964,396.3510610999997,396.8348130999998,,,,,,,,,,,,,,396.8601266999999,,,,,,,,,,,,,396.85730209999974,396.8601266999999,396.8601266999999,396.8601266999999,399.8512518999996,j,1.972661799999969,0.16739890000008018,399.85146399999985,399.85152919999973,None,,,,,,,,,,,,,,,,,00052,001,2026-01-25_12h44.06.631,MST_task,2024.2.0,59.9051701156943,2026-01-25 12h44.19.045427 +0530,
,Scenes\143a.jpg,74,0,75,,,,,,,j,0.9063537000001816,0.16743159999987256,None,,,,,,75,0,74,399.86732269999993,,,,,,,,,,,,,,,,,,,,,,,399.85191239999995,399.86732269999993,400.3510836999999,,,,,,,,,,,,,,400.3824832999999,,,,,,,,,,,,,400.3793075999997,400.3824832999999,400.3824832999999,400.3824832999999,403.3678166999998,j,0.9063537000001816,0.16743159999987256,403.36802069999976,403.36808629999996,None,,,,,,,,,,,,,,,,,00052,001,2026-01-25_12h44.06.631,MST_task,2024.2.0,59.9051701156943,2026-01-25 12h44.19.045427 +0530,
,Scenes\166a.jpg,75,0,76,,,,,,,j,0.7316031999998813,0.15152589999979682,None,,,,,,76,0,75,403.38431049999963,,,,,,,,,,,,,,,,,,,,,,,403.3684602999997,403.38431049999963,403.86796920000006,,,,,,,,,,,,,,403.8849643999997,,,,,,,,,,,,,403.88023729999986,403.8849643999997,403.8849643999997,403.8849643999997,406.86876429999984,j,0.7316031999998813,0.15152589999979682,406.8689611,406.86902009999994,None,,,,,406.8843131999997,406.8843131999997,406.8843131999997,,,,,,,,,,00052,001,2026-01-25_12h44.06.631,MST_task,2024.2.0,59.9051701156943,2026-01-25 12h44.19.045427 +0530,
,Scenes\174a.jpg,76,0,77,,,,,,,j,0.9450207999998383,0.16841030000023238,None,,,,,,77,0,76,406.8843131999997,,,,,,,,,,,,,,,,,,,,,,,406.86931589999995,406.8843131999997,407.3679548,,,,,,,,,,,,,,407.39935749999995,,,,,,,,,,,,,407.39638179999974,407.39935749999995,407.39935749999995,407.39935749999995,410.38471419999996,j,0.9450207999998383,0.16841030000023238,410.3849148999998,410.3849772999997,None,,,,,,,,,,,,,,,,,00052,001,2026-01-25_12h44.06.631,MST_task,2024.2.0,59.9051701156943,2026-01-25 12h44.19.045427 +0530,
,Objects\093a.jpg,77,0,78,,,,,,,j,1.898737500000152,0.16751949999979843,None,,,,,,78,0,77,410.40066439999964,,,,,,,,,,,,,,,,,,,,,,,410.3852686,410.40066439999964,410.8847630999999,,,,,,,,,,,,,,410.91012299999966,,,,,,,,,,,,,410.9071764999999,410.91012299999966,410.91012299999966,410.91012299999966,413.9013660999999,j,1.898737500000152,0.16751949999979843,413.90157309999995,413.9016416999998,None,,,,,,,,,,,,,,,,,00052,001,2026-01-25_12h44.06.631,MST_task,2024.2.0,59.9051701156943,2026-01-25 12h44.19.045427 +0530,
,Objects\057a.jpg,78,0,79,,,,,,,f,2.254310499999974,0.1679415999997218,None,,,,,,79,0,78,413.9181343999999,,,,,,,,,,,,,,,,,,,,,,,413.90193120000004,413.9181343999999,414.40184759999966,,,,,,,,,,,,,,414.4185365999997,,,,,,,,,,,,,414.4086591,414.4185365999997,414.4185365999997,414.4185365999997,417.40196779999997,f,2.254310499999974,0.1679415999997218,417.40215390000003,417.40220599999975,None,,,,,417.4175876999998,417.4175876999998,417.4175876999998,,,,,,,,,,00052,001,2026-01-25_12h44.06.631,MST_task,2024.2.0,59.9051701156943,2026-01-25 12h44.19.045427 +0530,
,Objects\174a.jpg,79,0,80,,,,,,,f,1.11219280000023,0.16034259999969436,None,,,,,,80,0,79,417.4175876999998,,,,,,,,,,,,,,,,,,,,,,,417.40245619999996,417.4175876999998,417.90213300000005,,,,,,,,,,,,,,417.92027800000005,,,,,,,,,,,,,417.9175977,417.92027800000005,417.92027800000005,417.92027800000005,420.91796079999995,f,1.11219280000023,0.16034259999969436,420.9181583999998,420.91822090000005,None,,,,,,,,,,,,,,,,,00052,001,2026-01-25_12h44.06.631,MST_task,2024.2.0,59.9051701156943,2026-01-25 12h44.19.045427 +0530,
,Objects\008a.jpg,80,0,81,,,,,,,f,0.7760306999998647,0.14362889999983963,None,,,,,,81,0,80,420.9349623999997,,,,,,,,,,,,,,,,,,,,,,,420.91857630000004,420.9349623999997,421.41772649999984,,,,,,,,,,,,,,421.4411422999997,,,,,,,,,,,,,421.43883370000003,421.4411422999997,421.4411422999997,421.4411422999997,424.4347278,f,0.7760306999998647,0.14362889999983963,424.4349293,424.4349947999999,None,,,,,,,,,,,,,,,,,00052,001,2026-01-25_12h44.06.631,MST_task,2024.2.0,59.9051701156943,2026-01-25 12h44.19.045427 +0530,
,Objects\164a.jpg,81,0,82,,,,,,,f,0.7226396000000932,0.16858999999976731,None,,,,,,82,0,81,424.45093929999985,,,,,,,,,,,,,,,,,,,,,,,424.4353788999997,424.45093929999985,424.93472159999965,,,,,,,,,,,,,,424.9575829999999,,,,,,,,,,,,,424.9552374,424.9575829999999,424.9575829999999,424.9575829999999,427.95138700000007,f,0.7226396000000932,0.16858999999976731,427.95158679999986,427.95164939999995,None,,,,,,,,,,,,,,,,,00052,001,2026-01-25_12h44.06.631,MST_task,2024.2.0,59.9051701156943,2026-01-25 12h44.19.045427 +0530,
,Objects\179a.jpg,82,0,83,,,,,,,f,0.9042097999999896,0.19141700000000128,None,,,,,,83,0,82,427.9676141,,,,,,,,,,,,,,,,,,,,,,,427.95200969999996,427.9676141,428.45138829999996,,,,,,,,,,,,,,428.47253729999966,,,,,,,,,,,,,428.4696649999996,428.47253729999966,428.47253729999966,428.47253729999966,431.46797019999985,f,0.9042097999999896,0.19141700000000128,431.46817029999966,431.4682349999998,None,,,,,,,,,,,,,,,,,00052,001,2026-01-25_12h44.06.631,MST_task,2024.2.0,59.9051701156943,2026-01-25 12h44.19.045427 +0530,
,Objects\100a.jpg,83,0,84,,,,,,,None,,,f,0.7358710999997129,None,,,,84,0,83,431.48430419999977,,,,,,,,,,,,,,,,,,,,,,,431.4686002999997,431.48430419999977,431.96800329999996,,,,,,,,,,,,,,431.98461739999993,,,,,,,,,,,,,431.97650099999964,431.98461739999993,431.98461739999993,431.98461739999993,434.96874479999997,None,,,434.9689258999997,435.73487079999995,f,434.98439099999996,434.98439099999996,0.7358710999997129,None,434.98439099999996,434.98439099999996,434.98439099999996,,,,,,,,,,00052,001,2026-01-25_12h44.06.631,MST_task,2024.2.0,59.9051701156943,2026-01-25 12h44.19.045427 +0530,
,Scenes\019a.jpg,84,0,85,,,,,,,f,1.4210541000002195,0.15152969999962806,None,,,,,,85,0,84,435.7510520999999,,,,,,,,,,,,,,,,,,,,,,,435.73522239999966,435.7510520999999,436.2347436,,,,,,,,,,,,,,436.2677918999998,,,,,,,,,,,,,436.2650767,436.2677918999998,436.2677918999998,436.2677918999998,439.2513939999999,f,1.4210541000002195,0.15152969999962806,439.2516007999998,439.25168140000005,None,,,,,,,,,,,,,,,,,00052,001,2026-01-25_12h44.06.631,MST_task,2024.2.0,59.9051701156943,2026-01-25 12h44.19.045427 +0530,
,Scenes\150a.jpg,85,0,86,,,,,,,f,1.057040700000016,0.1916246000000683,None,,,,,,86,0,85,439.26758599999994,,,,,,,,,,,,,,,,,,,,,,,439.25197309999976,439.26758599999994,439.7513709,,,,,,,,,,,,,,439.78379989999985,,,,,,,,,,,,,439.78083349999997,439.78379989999985,439.78379989999985,439.78379989999985,442.76790919999985,f,1.057040700000016,0.1916246000000683,442.76810799999976,442.76817170000004,None,,,,,,,,,,,,,,,,,00052,001,2026-01-25_12h44.06.631,MST_task,2024.2.0,59.9051701156943,2026-01-25 12h44.19.045427 +0530,
,Scenes\024a.jpg,86,0,87,,,,,,,f,2.553557400000045,0.19177659999968455,None,,,,,,87,0,86,442.7841890999998,,,,,,,,,,,,,,,,,,,,,,,442.76853789999996,442.7841890999998,443.26802629999975,,,,,,,,,,,,,,443.29489409999996,,,,,,,,,,,,,443.2922639999997,443.29489409999996,443.29489409999996,443.29489409999996,446.28474609999967,f,2.553557400000045,0.19177659999968455,446.2849437,446.2850085,None,,,,,,,,,,,,,,,,,00052,001,2026-01-25_12h44.06.631,MST_task,2024.2.0,59.9051701156943,2026-01-25 12h44.19.045427 +0530,
,Scenes\191a.jpg,87,0,88,,,,,,,j,0.7192385999996986,0.16023949999998877,None,,,,,,88,0,87,446.3010009999998,,,,,,,,,,,,,,,,,,,,,,,446.2853771,446.3010009999998,446.7846274999997,,,,,,,,,,,,,,446.8169346999998,,,,,,,,,,,,,446.81395989999965,446.8169346999998,446.8169346999998,446.8169346999998,449.80142799999976,j,0.7192385999996986,0.16023949999998877,449.8016253999999,449.8016881999997,None,,,,,,,,,,,,,,,,,00052,001,2026-01-25_12h44.06.631,MST_task,2024.2.0,59.9051701156943,2026-01-25 12h44.19.045427 +0530,
,Scenes\083a.jpg,88,0,89,,,,,,,j,1.1666518000001815,0.20641619999969407,None,,,,,,89,0,88,449.817579,,,,,,,,,,,,,,,,,,,,,,,449.80199760000005,449.817579,450.301199,,,,,,,,,,,,,,450.33101369999986,,,,,,,,,,,,,450.3275534999998,450.33101369999986,450.33101369999986,450.33101369999986,453.31802590000007,j,1.1666518000001815,0.20641619999969407,453.3182319999996,453.31829629999993,None,,,,,,,,,,,,,,,,,00052,001,2026-01-25_12h44.06.631,MST_task,2024.2.0,59.9051701156943,2026-01-25 12h44.19.045427 +0530,
,Scenes\171a.jpg,89,0,90,,,,,,,None,,,f,0.013760899999851972,None,,,,90,0,89,453.3343482999999,,,,,,,,,,,,,,,,,,,,,,,453.3187502999999,453.3343482999999,453.8180140999998,,,,,,,,,,,,,,453.85877809999965,,,,,,,,,,,,,453.85581649999995,453.85877809999965,453.85877809999965,453.85877809999965,456.8347676999997,None,,,456.83494870000004,456.8681237999999,f,456.85106339999993,456.85106339999993,0.013760899999851972,None,,,,,,,,,,,,,00052,001,2026-01-25_12h44.06.631,MST_task,2024.2.0,59.9051701156943,2026-01-25 12h44.19.045427 +0530,
,Scenes\105a.jpg,90,0,91,,,,,,,j,2.302608500000133,0.17602669999996579,None,,,,,,91,0,90,456.88432339999963,,,,,,,,,,,,,,,,,,,,,,,456.86860309999975,456.88432339999963,457.3680380999999,,,,,,,,,,,,,,457.4016155999998,,,,,,,,,,,,,457.39799649999986,457.4016155999998,457.4016155999998,457.4016155999998,460.38477049999983,j,2.302608500000133,0.17602669999996579,460.38496859999987,460.3850346999998,None,,,,,,,,,,,,,,,,,00052,001,2026-01-25_12h44.06.631,MST_task,2024.2.0,59.9051701156943,2026-01-25 12h44.19.045427 +0530,
,Objects\184a.jpg,91,0,92,,,,,,,None,,,f,0.2670247000000927,None,,,,92,0,91,460.4010395999999,,,,,,,,,,,,,,,,,,,,,,,460.38540729999977,460.4010395999999,460.8847609999998,,,,,,,,,,,,,,460.9016708999998,,,,,,,,,,,,,460.89327809999986,460.9016708999998,460.9016708999998,460.9016708999998,463.8855466,None,,,463.88572829999976,464.1849201,f,463.90104329999986,463.90104329999986,0.2670247000000927,None,463.90104329999986,463.90104329999986,463.90104329999986,,,,,,,,,,00052,001,2026-01-25_12h44.06.631,MST_task,2024.2.0,59.9051701156943,2026-01-25 12h44.19.045427 +0530,
,Objects\141a.jpg,92,0,93,,,,,,,f,2.0639940999999453,0.19237509999993563,None,,,,,,93,0,92,464.20105999999987,,,,,,,,,,,,,,,,,,,,,,,464.18537160000005,464.20105999999987,464.6848728,,,,,,,,,,,,,,464.70444689999977,,,,,,,,,,,,,464.70223699999997,464.70444689999977,464.70444689999977,464.70444689999977,467.7014144999998,f,2.0639940999999453,0.19237509999993563,467.70161039999994,467.70167409999976,None,,,,,,,,,,,,,,,,,00052,001,2026-01-25_12h44.06.631,MST_task,2024.2.0,59.9051701156943,2026-01-25 12h44.19.045427 +0530,
,Objects\050a.jpg,93,0,94,,,,,,,f,0.6542064999998729,0.14469409999992422,None,,,,,,94,0,93,467.7179271,,,,,,,,,,,,,,,,,,,,,,,467.7019633,467.7179271,468.20152899999994,,,,,,,,,,,,,,468.2179544999999,,,,,,,,,,,,,468.2103953999999,468.2179544999999,468.2179544999999,468.2179544999999,471.2021851999998,f,0.6542064999998729,0.14469409999992422,471.2023829,471.20244550000007,None,,,,,,,,,,,,,,,,,00052,001,2026-01-25_12h44.06.631,MST_task,2024.2.0,59.9051701156943,2026-01-25 12h44.19.045427 +0530,
,Objects\004a.jpg,94,0,95,,,,,,,None,,,f,0.8660593999998127,None,,,,95,0,94,471.21758359999967,,,,,,,,,,,,,,,,,,,,,,,471.2027356999997,471.21758359999967,471.7014571999998,,,,,,,,,,,,,,471.7250165999999,,,,,,,,,,,,,471.7226409,471.7250165999999,471.7250165999999,471.7250165999999,474.7176224,None,,,474.7178027,475.6016215999998,f,474.7342011999999,474.7342011999999,0.8660593999998127,None,,,,,,,,,,,,,00052,001,2026-01-25_12h44.06.631,MST_task,2024.2.0,59.9051701156943,2026-01-25 12h44.19.045427 +0530,
,Objects\119a.jpg,95,0,96,,,,,,,f,0.6186281999998755,0.18347859999994398,None,,,,,,96,0,95,475.6176410999997,,,,,,,,,,,,,,,,,,,,,,,475.6019643999998,475.6176410999997,476.1014981999997,,,,,,,,,,,,,,476.11802339999986,,,,,,,,,,,,,476.11028179999994,476.11802339999986,476.11802339999986,476.11802339999986,479.10223270000006,f,0.6186281999998755,0.18347859999994398,479.1024284,479.102488,None,,,,,479.11764909999965,479.11764909999965,479.11764909999965,,,,,,,,,,00052,001,2026-01-25_12h44.06.631,MST_task,2024.2.0,59.9051701156943,2026-01-25 12h44.19.045427 +0530,
,Objects\189a.jpg,96,0,97,,,,,,,j,2.79881209999985,0.12003499999991618,None,,,,,,97,0,96,479.11764909999965,,,,,,,,,,,,,,,,,,,,,,,479.1028587999999,479.11764909999965,479.60146499999973,,,,,,,,,,,,,,479.6179245999997,,,,,,,,,,,,,479.6104728999999,479.6179245999997,479.6179245999997,479.6179245999997,482.60234539999965,j,2.79881209999985,0.12003499999991618,482.6025510999998,482.60260990000006,None,,,,,482.6184811999997,482.6184811999997,482.6184811999997,,,,,,,,,,00052,001,2026-01-25_12h44.06.631,MST_task,2024.2.0,59.9051701156943,2026-01-25 12h44.19.045427 +0530,
,Objects\176a.jpg,97,0,98,,,,,,,None,,,j,0.6104163999998491,None,,,,98,0,97,482.6184811999997,,,,,,,,,,,,,,,,,,,,,,,482.6029905999999,482.6184811999997,483.1014630999998,,,,,,,,,,,,,,483.12675649999983,,,,,,,,,,,,,483.1239464,483.12675649999983,483.12675649999983,483.12675649999983,486.1180489999997,None,,,486.11823049999975,486.75190139999995,j,486.13441250000005,486.13441250000005,0.6104163999998491,None,,,,,,,,,,,,,00052,001,2026-01-25_12h44.06.631,MST_task,2024.2.0,59.9051701156943,2026-01-25 12h44.19.045427 +0530,
,Scenes\053a.jpg,98,0,99,,,,,,,None,,,j,0.7158535999997184,None,,,,99,0,98,486.7677098999998,,,,,,,,,,,,,,,,,,,,,,,486.7523650999997,486.7677098999998,487.2516548999997,,,,,,,,,,,,,,487.2755052999996,,,,,,,,,,,,,487.27190729999984,487.2755052999996,487.2755052999996,487.2755052999996,490.267977,None,,,490.268157,491.00156229999993,j,490.2844105999998,490.2844105999998,0.7158535999997184,None,,,,,,,,,,,,,00052,001,2026-01-25_12h44.06.631,MST_task,2024.2.0,59.9051701156943,2026-01-25 12h44.19.045427 +0530,
,Scenes\025a.jpg,99,0,100,,,,,,,j,1.314110900000287,0.18399389999967752,None,,,,,,100,0,99,491.01767329999984,,,,,,,,,,,,,,,,,,,,,,,491.00202169999966,491.01767329999984,491.50117009999985,,,,,,,,,,,,,,491.53476,,,,,,,,,,,,,491.53200259999994,491.53476,491.53476,491.53476,494.5184546999999,j,1.314110900000287,0.18399389999967752,494.51865629999975,494.5187212999999,None,,,,,,,,,,,,,,,,,00052,001,2026-01-25_12h44.06.631,MST_task,2024.2.0,59.9051701156943,2026-01-25 12h44.19.045427 +0530,
,Scenes\087a.jpg,100,0,101,,,,,,,j,0.2940180999999029,0.2074139000001196,None,,,,,,101,0,100,494.53441159999966,,,,,,,,,,,,,,,,,,,,,,,494.51901529999986,494.53441159999966,495.0180849999997,,,,,,,,,,,,,,495.05085039999994,,,,,,,,,,,,,495.04800929999965,495.05085039999994,495.05085039999994,495.05085039999994,498.0346007999997,j,0.2940180999999029,0.2074139000001196,498.03482159999976,498.03488679999964,None,,,,,,,,,,,,,,,,,00052,001,2026-01-25_12h44.06.631,MST_task,2024.2.0,59.9051701156943,2026-01-25 12h44.19.045427 +0530,
,Scenes\101a.jpg,101,0,102,,,,,,,j,1.506683100000373,0.22459570000000895,None,,,,,,102,0,101,498.05109330000005,,,,,,,,,,,,,,,,,,,,,,,498.0351937999999,498.05109330000005,498.5346977999998,,,,,,,,,,,,,,498.56557589999966,,,,,,,,,,,,,498.56237680000004,498.56557589999966,498.56557589999966,498.56557589999966,501.55141809999986,j,1.506683100000373,0.22459570000000895,501.5516198999999,501.5516832999997,None,,,,,,,,,,,,,,,,,00052,001,2026-01-25_12h44.06.631,MST_task,2024.2.0,59.9051701156943,2026-01-25 12h44.19.045427 +0530,
,Scenes\144a.jpg,102,0,103,,,,,,,j,1.0229773999999452,0.1686757000002217,None,,,,,,103,0,102,501.56767469999977,,,,,,,,,,,,,,,,,,,,,,,501.55197819999967,501.56767469999977,502.0520795999996,,,,,,,,,,,,,,,,,,,,,,,,,,,502.0783342,502.0812108,502.0812108,502.0812108,505.0678823999997,j,1.0229773999999452,0.1686757000002217,505.0680874999998,505.06814970000005,None,,,,,,,,,,,,,,,,,00052,001,2026-01-25_12h44.06.631,MST_task,2024.2.0,59.9051701156943,2026-01-25 12h44.19.045427 +0530,
,Scenes\062a.jpg,103,0,104,,,,,,,j,1.0334970000003523,0.24143980000008014,None,,,,,,104,0,103,505.08444929999996,,,,,,,,,,,,,,,,,,,,,,,505.06852179999987,505.08444929999996,505.56807660000004,,,,,,,,,,,,,,505.5987978999997,,,,,,,,,,,,,505.5957685999997,505.5987978999997,505.5987978999997,505.5987978999997,508.5848840999997,j,1.0334970000003523,0.24143980000008014,508.5850809999997,508.5851451999997,None,,,,,,,,,,,,,,,,,00052,001,2026-01-25_12h44.06.631,MST_task,2024.2.0,59.9051701156943,2026-01-25 12h44.19.045427 +0530,
,Scenes\026a.jpg,104,0,105,,,,,,,j,2.3151717999999164,0.17574710000008054,None,,,,,,105,0,104,508.6010391,,,,,,,,,,,,,,,,,,,,,,,508.58552629999986,508.6010391,509.0847368,,,,,,,,,,,,,,509.1179376,,,,,,,,,,,,,509.1145185999999,509.1179376,509.1179376,509.1179376,512.1015122999997,j,2.3151717999999164,0.17574710000008054,512.1017342,512.1017984999999,None,,,,,,,,,,,,,,,,,00052,001,2026-01-25_12h44.06.631,MST_task,2024.2.0,59.9051701156943,2026-01-25 12h44.19.045427 +0530,
,Objects\181a.jpg,105,0,106,,,,,,,j,2.926296000000093,None,None,,,,,,106,0,105,512.1176925999998,,,,,,,,,,,,,,,,,,,,,,,512.1020911,512.1176925999998,512.6017029,,,,,,,,,,,,,,512.6185608999999,,,,,,,,,,,,,512.6086410999997,512.6185608999999,512.6185608999999,512.6185608999999,515.6023007999997,j,2.926296000000093,None,515.6025030999999,515.6025633999998,None,,,,,515.6177466999998,515.6177466999998,515.6177466999998,,,,,,,,,,00052,001,2026-01-25_12h44.06.631,MST_task,2024.2.0,59.9051701156943,2026-01-25 12h44.19.045427 +0530,
,Objects\145a.jpg,106,0,107,,,,,,,f,2.7907109000002492,0.1842346999997062,None,,,,,,107,0,106,515.6177466999998,,,,,,,,,,,,,,,,,,,,,,,515.6028572,515.6177466999998,516.1018472999999,,,,,,,,,,,,,,516.1219117999999,,,,,,,,,,,,,516.1189577,516.1219117999999,516.1219117999999,516.1219117999999,519.1180867999997,f,2.7907109000002492,0.1842346999997062,519.1183065,519.1183699999997,None,,,,,,,,,,,,,,,,,00052,001,2026-01-25_12h44.06.631,MST_task,2024.2.0,59.9051701156943,2026-01-25 12h44.19.045427 +0530,
,Objects\104a.jpg,107,0,108,,,,,,,f,2.8763921999998274,None,None,,,,,,108,0,107,519.1344306999999,,,,,,,,,,,,,,,,,,,,,,,519.1187547,519.1344306999999,519.6177740999997,,,,,,,,,,,,,,519.6364733,,,,,,,,,,,,,519.6339166999996,519.6364733,519.6364733,519.6364733,522.6346914000001,f,2.8763921999998274,None,522.6348874999999,522.6349504999998,None,,,,,,,,,,,,,,,,,00052,001,2026-01-25_12h44.06.631,MST_task,2024.2.0,59.9051701156943,2026-01-25 12h44.19.045427 +0530,
,Objects\137a.jpg,108,0,109,,,,,,,f,2.5253028000001905,0.19119689999979528,None,,,,,,109,0,108,522.6509548999998,,,,,,,,,,,,,,,,,,,,,,,522.6353178999998,522.6509548999998,523.1348383999998,,,,,,,,,,,,,,523.1555613999999,,,,,,,,,,,,,523.1527040999999,523.1555613999999,523.1555613999999,523.1555613999999,526.1512033999998,f,2.5253028000001905,0.19119689999979528,526.1513602999999,526.1514087,None,,,,,,,,,,,,,,,,,00052,001,2026-01-25_12h44.06.631,MST_task,2024.2.0,59.9051701156943,2026-01-25 12h44.19.045427 +0530,
,Objects\088a.jpg,109,0,110,,,,,,,f,0.7147905000001629,0.1841890999999123,None,,,,,,110,0,109,526.1673274,,,,,,,,,,,,,,,,,,,,,,,526.1516297999997,526.1673274,526.6508595999999,,,,,,,,,,,,,,526.6692300999998,,,,,,,,,,,,,526.6668949999998,526.6692300999998,526.6692300999998,526.6692300999998,529.6680836999999,f,0.7147905000001629,0.1841890999999123,529.6682867,529.6683499999999,None,,,,,,,,,,,,,,,,,00052,001,2026-01-25_12h44.06.631,MST_task,2024.2.0,59.9051701156943,2026-01-25 12h44.19.045427 +0530,
,Objects\017a.jpg,110,0,111,,,,,,,f,1.0216401000002406,0.20800509999980932,None,,,,,,111,0,110,529.6844504000001,,,,,,,,,,,,,,,,,,,,,,,529.6688076999999,529.6844504000001,530.1681196999998,,,,,,,,,,,,,,530.1872239999998,,,,,,,,,,,,,530.1843528999998,530.1872239999998,530.1872239999998,530.1872239999998,533.1848353999999,f,1.0216401000002406,0.20800509999980932,533.1850393999998,533.1851030999997,None,,,,,,,,,,,,,,,,,00052,001,2026-01-25_12h44.06.631,MST_task,2024.2.0,59.9051701156943,2026-01-25 12h44.19.045427 +0530,
,Objects\060a.jpg,111,0,112,,,,,,,None,,,f,0.1706798999998682,None,,,,112,0,111,533.2008013999998,,,,,,,,,,,,,,,,,,,,,,,533.1853902999997,533.2008013999998,533.6845438999999,,,,,,,,,,,,,,533.7041709999999,,,,,,,,,,,,,533.7013192999998,533.7041709999999,533.7041709999999,533.7041709999999,536.7012218999998,None,,,536.7014024999999,536.9022771,f,536.7175239999997,536.7175239999997,0.1706798999998682,None,,,,,,,,,,,,,00052,001,2026-01-25_12h44.06.631,MST_task,2024.2.0,59.9051701156943,2026-01-25 12h44.19.045427 +0530,
,Scenes\009a.jpg,112,0,113,,,,,,,f,1.313967799999773,0.21534909999991214,None,,,,,,113,0,112,536.9179181,,,,,,,,,,,,,,,,,,,,,,,536.9026114999997,536.9179181,537.4015286999997,,,,,,,,,,,,,,537.4308735,,,,,,,,,,,,,537.4281111999999,537.4308735,537.4308735,537.4308735,540.4181260999999,f,1.313967799999773,0.21534909999991214,540.4183292999996,540.4183936,None,,,,,,,,,,,,,,,,,00052,001,2026-01-25_12h44.06.631,MST_task,2024.2.0,59.9051701156943,2026-01-25 12h44.19.045427 +0530,
,Scenes\112a.jpg,113,0,114,,,,,,,None,,,j,1.2103306000003613,None,,,,114,0,113,540.4343543,,,,,,,,,,,,,,,,,,,,,,,540.4186875,540.4343543,540.9178048999997,,,,,,,,,,,,,,540.9479756999999,,,,,,,,,,,,,540.9450075999998,540.9479756999999,540.9479756999999,540.9479756999999,543.9186311999997,None,,,543.9188128000001,545.1524025999997,j,543.9345202,543.9345202,1.2103306000003613,None,,,,,,,,,,,,,00052,001,2026-01-25_12h44.06.631,MST_task,2024.2.0,59.9051701156943,2026-01-25 12h44.19.045427 +0530,
,Scenes\192a.jpg,114,0,115,,,,,,,j,1.0688008999995873,0.16798180000023422,None,,,,,,115,0,114,545.1677602999998,,,,,,,,,,,,,,,,,,,,,,,545.1527392999997,545.1677602999998,545.6515205999999,,,,,,,,,,,,,,545.6833794999998,,,,,,,,,,,,,545.6803029999996,545.6833794999998,545.6833794999998,545.6833794999998,548.6679472999999,j,1.0688008999995873,0.16798180000023422,548.6681596999997,548.6682262999998,None,,,,,,,,,,,,,,,,,00052,001,2026-01-25_12h44.06.631,MST_task,2024.2.0,59.9051701156943,2026-01-25 12h44.19.045427 +0530,
,Scenes\111a.jpg,115,0,116,,,,,,,j,1.076859400000103,0.18401780000021972,None,,,,,,116,0,115,548.6844751999997,,,,,,,,,,,,,,,,,,,,,,,548.6686290999996,548.6844751999997,549.1681445999998,,,,,,,,,,,,,,549.1959754,,,,,,,,,,,,,549.1933267999998,549.1959754,549.1959754,549.1959754,552.1845166999997,j,1.076859400000103,0.18401780000021972,552.1847392999998,552.1848032999997,None,,,,,,,,,,,,,,,,,00052,001,2026-01-25_12h44.06.631,MST_task,2024.2.0,59.9051701156943,2026-01-25 12h44.19.045427 +0530,
,Scenes\118a.jpg,116,0,117,,,,,,,j,1.9177139999997053,0.16788180000003194,None,,,,,,117,0,116,552.2011407,,,,,,,,,,,,,,,,,,,,,,,552.1851042999997,552.2011407,552.6849128999997,,,,,,,,,,,,,,552.7146488999997,,,,,,,,,,,,,552.7123664000001,552.7146488999997,552.7146488999997,552.7146488999997,555.7020373,j,1.9177139999997053,0.16788180000003194,555.7022383999997,555.7023022999997,None,,,,,,,,,,,,,,,,,00052,001,2026-01-25_12h44.06.631,MST_task,2024.2.0,59.9051701156943,2026-01-25 12h44.19.045427 +0530,
,Scenes\133a.jpg,117,0,118,,,,,,,j,1.1595492000001286,0.1758426999999756,None,,,,,,118,0,117,555.7177422999998,,,,,,,,,,,,,,,,,,,,,,,555.7026768000001,555.7177422999998,556.2015548999998,,,,,,,,,,,,,,556.2328090999999,,,,,,,,,,,,,556.2305111000001,556.2328090999999,556.2328090999999,556.2328090999999,559.2183666999999,j,1.1595492000001286,0.1758426999999756,559.2187308999996,559.2187953999996,None,,,,,,,,,,,,,,,,,00052,001,2026-01-25_12h44.06.631,MST_task,2024.2.0,59.9051701156943,2026-01-25 12h44.19.045427 +0530,
,Scenes\012a.jpg,118,0,119,,,,,,,j,1.6795823000002201,0.1673772999997709,None,,,,,,119,0,118,559.2344466,,,,,,,,,,,,,,,,,,,,,,,559.2191642999996,559.2344466,559.7180023999999,,,,,,,,,,,,,,559.7533598999999,,,,,,,,,,,,,559.7505640999998,559.7533598999999,559.7533598999999,559.7533598999999,562.7191167999999,j,1.6795823000002201,0.1673772999997709,562.7193361999998,562.7194006999998,None,,,,,,,,,,,,,,,,,00052,001,2026-01-25_12h44.06.631,MST_task,2024.2.0,59.9051701156943,2026-01-25 12h44.19.045427 +0530,
,Objects\157a.jpg,119,0,120,,,,,,,f,0.9096531000000141,0.17540499999995518,None,,,,,,120,0,119,562.7344447,,,,,,,,,,,,,,,,,,,,,,,562.7199375,562.7344447,563.2181596999999,,,,,,,,,,,,,,563.2351789999998,,,,,,,,,,,,,563.2249435999997,563.2351789999998,563.2351789999998,563.2351789999998,566.2189309,f,0.9096531000000141,0.17540499999995518,566.2191381999996,566.2191977999996,None,,,,,566.2344939999998,566.2344939999998,566.2344939999998,,,,,,,,,,00052,001,2026-01-25_12h44.06.631,MST_task,2024.2.0,59.9051701156943,2026-01-25 12h44.19.045427 +0530,
,Objects\183a.jpg,120,0,121,,,,,,,f,1.4229160999998385,0.14301130000012563,None,,,,,,121,0,120,566.2344939999998,,,,,,,,,,,,,,,,,,,,,,,566.2195741,566.2344939999998,566.7182583999997,,,,,,,,,,,,,,566.7382453,,,,,,,,,,,,,566.7357595999997,566.7382453,566.7382453,566.7382453,569.7354888999998,f,1.4229160999998385,0.14301130000012563,569.7356903,569.7357531999996,None,,,,,,,,,,,,,,,,,00052,001,2026-01-25_12h44.06.631,MST_task,2024.2.0,59.9051701156943,2026-01-25 12h44.19.045427 +0530,
,Objects\138a.jpg,121,0,122,,,,,,,None,,,j,0.17305119999991803,None,,,,122,0,121,569.7514612,,,,,,,,,,,,,,,,,,,,,,,569.7361260999996,569.7514612,570.2348953999999,,,,,,,,,,,,,,570.2577971000001,,,,,,,,,,,,,570.2548615000001,570.2577971000001,570.2577971000001,570.2577971000001,573.2515395,None,,,573.251722,573.4517287999997,j,573.2677744999996,573.2677744999996,0.17305119999991803,None,,,,,,,,,,,,,00052,001,2026-01-25_12h44.06.631,MST_task,2024.2.0,59.9051701156943,2026-01-25 12h44.19.045427 +0530,
,Objects\098a.jpg,122,0,123,,,,,,,f,0.7993808000001081,0.1840634999998656,None,,,,,,123,0,122,573.4677720999998,,,,,,,,,,,,,,,,,,,,,,,573.4522004999999,573.4677720999998,573.9515603,,,,,,,,,,,,,,573.9687193,,,,,,,,,,,,,573.9601147999997,573.9687193,573.9687193,573.9687193,576.9681390000001,f,0.7993808000001081,0.1840634999998656,576.9683479999999,576.9684133999999,None,,,,,,,,,,,,,,,,,00052,001,2026-01-25_12h44.06.631,MST_task,2024.2.0,59.9051701156943,2026-01-25 12h44.19.045427 +0530,
,Objects\127a.jpg,123,0,124,,,,,,,f,2.009206300000187,0.19220929999983127,None,,,,,,124,0,123,576.9845065999998,,,,,,,,,,,,,,,,,,,,,,,576.9687747999997,576.9845065999998,577.4679493999997,,,,,,,,,,,,,,577.4872726999997,,,,,,,,,,,,,577.4847044999997,577.4872726999997,577.4872726999997,577.4872726999997,580.4846825999998,f,2.009206300000187,0.19220929999983127,580.4848829999996,580.4849469000001,None,,,,,,,,,,,,,,,,,00052,001,2026-01-25_12h44.06.631,MST_task,2024.2.0,59.9051701156943,2026-01-25 12h44.19.045427 +0530,
,Objects\122a.jpg,124,0,125,,,,,,,None,,,f,0.5664326000000983,None,,,,125,0,124,580.5011663999999,,,,,,,,,,,,,,,,,,,,,,,580.4852341999999,580.5011663999999,580.9848557,,,,,,,,,,,,,,581.0057279999996,,,,,,,,,,,,,581.0035014999999,581.0057279999996,581.0057279999996,581.0057279999996,584.0013697999998,None,,,584.0015564,584.5851143999998,f,584.0177921,584.0177921,0.5664326000000983,None,,,,,,,,,,,,,00052,001,2026-01-25_12h44.06.631,MST_task,2024.2.0,59.9051701156943,2026-01-25 12h44.19.045427 +0530,
,Objects\155a.jpg,125,0,126,,,,,,,f,1.2760983000002852,0.19254589999991367,None,,,,,,126,0,125,584.6010053,,,,,,,,,,,,,,,,,,,,,,,584.5854517999996,584.6010053,585.0848671999997,,,,,,,,,,,,,,585.1082016,,,,,,,,,,,,,585.1053996,585.1082016,585.1082016,585.1082016,588.1013144999997,f,1.2760983000002852,0.19254589999991367,588.1015227999997,588.1015863999996,None,,,,,,,,,,,,,,,,,00052,001,2026-01-25_12h44.06.631,MST_task,2024.2.0,59.9051701156943,2026-01-25 12h44.19.045427 +0530,
,Scenes\073a.jpg,126,0,127,,,,,,,j,0.8672010999998747,0.23214150000012523,None,,,,,,127,0,126,588.1184779999999,,,,,,,,,,,,,,,,,,,,,,,588.1019769,588.1184779999999,588.6018946999998,,,,,,,,,,,,,,588.6295357999998,,,,,,,,,,,,,588.6270000999998,588.6295357999998,588.6295357999998,588.6295357999998,591.6185151,j,0.8672010999998747,0.23214150000012523,591.6187156999999,591.6187817,None,,,,,,,,,,,,,,,,,00052,001,2026-01-25_12h44.06.631,MST_task,2024.2.0,59.9051701156943,2026-01-25 12h44.19.045427 +0530,
,Scenes\189a.jpg,127,0,128,,,,,,,j,0.527490399999806,0.2239411000000473,None,,,,,,128,0,127,591.6345176,,,,,,,,,,,,,,,,,,,,,,,591.6191709999998,591.6345176,592.1182461999997,,,,,,,,,,,,,,592.1527557,,,,,,,,,,,,,592.1495553,592.1527557,592.1527557,592.1527557,595.1350423999997,j,0.527490399999806,0.2239411000000473,595.1352490999998,595.1353133999996,None,,,,,,,,,,,,,,,,,00052,001,2026-01-25_12h44.06.631,MST_task,2024.2.0,59.9051701156943,2026-01-25 12h44.19.045427 +0530,
,Scenes\103a.jpg,128,0,129,,,,,,,j,0.7215778999998292,0.16736069999979009,None,,,,,,129,0,128,595.1511539999997,,,,,,,,,,,,,,,,,,,,,,,595.1356059,595.1511539999997,595.6345898,,,,,,,,,,,,,,595.6713175,,,,,,,,,,,,,595.6689231,595.6713175,595.6713175,595.6713175,598.6514276999997,j,0.7215778999998292,0.16736069999979009,598.6516456999998,598.6517097999999,None,,,,,,,,,,,,,,,,,00052,001,2026-01-25_12h44.06.631,MST_task,2024.2.0,59.9051701156943,2026-01-25 12h44.19.045427 +0530,
,Scenes\122a.jpg,129,0,130,,,,,,,j,0.7819116000000577,0.2164455000001908,None,,,,,,130,0,129,598.6675560999997,,,,,,,,,,,,,,,,,,,,,,,598.6521341999996,598.6675560999997,599.1517489999997,,,,,,,,,,,,,,599.1784693,,,,,,,,,,,,,599.1756614999999,599.1784693,599.1784693,599.1784693,602.1682725000001,j,0.7819116000000577,0.2164455000001908,602.1684713,602.1685321,None,,,,,,,,,,,,,,,,,00052,001,2026-01-25_12h44.06.631,MST_task,2024.2.0,59.9051701156943,2026-01-25 12h44.19.045427 +0530,
,Scenes\096a.jpg,130,0,131,,,,,,,j,0.6835579999997208,0.19207870000036564,None,,,,,,131,0,130,602.1845322999998,,,,,,,,,,,,,,,,,,,,,,,602.1688998999998,602.1845322999998,602.6679056999997,,,,,,,,,,,,,,602.6932959000001,,,,,,,,,,,,,602.6907962,602.6932959000001,602.6932959000001,602.6932959000001,605.6847321999999,j,0.6835579999997208,0.19207870000036564,605.6849287999999,605.6849932,None,,,,,,,,,,,,,,,,,00052,001,2026-01-25_12h44.06.631,MST_task,2024.2.0,59.9051701156943,2026-01-25 12h44.19.045427 +0530,
,Scenes\063a.jpg,131,0,132,,,,,,,None,,,j,0.15907740000011472,None,,,,132,0,131,605.7010568000001,,,,,,,,,,,,,,,,,,,,,,,605.6854374,605.7010568000001,606.1848913999997,,,,,,,,,,,,,,606.2261675999998,,,,,,,,,,,,,606.2234100000001,606.2261675999998,606.2261675999998,606.2261675999998,609.2014523999997,None,,,609.2016398000001,609.3849673999998,j,609.2173416999999,609.2173416999999,0.15907740000011472,None,,,,,,,,,,,,,00052,001,2026-01-25_12h44.06.631,MST_task,2024.2.0,59.9051701156943,2026-01-25 12h44.19.045427 +0530,
,Scenes\014a.jpg,132,0,133,,,,,,,j,0.9092838000001393,0.19198459999961415,None,,,,,,133,0,132,609.4011352999996,,,,,,,,,,,,,,,,,,,,,,,609.3854495,609.4011352999996,609.8846559999997,,,,,,,,,,,,,,609.915622,,,,,,,,,,,,,609.9125047999996,609.915622,609.915622,609.915622,612.9018214999996,j,0.9092838000001393,0.19198459999961415,612.9020350000001,612.9021017,None,,,,,,,,,,,,,,,,,00052,001,2026-01-25_12h44.06.631,MST_task,2024.2.0,59.9051701156943,2026-01-25 12h44.19.045427 +0530,
,Objects\156a.jpg,133,0,134,,,,,,,j,0.8547257000000172,0.21547310000005382,None,,,,,,134,0,133,612.9178167,,,,,,,,,,,,,,,,,,,,,,,612.9023994999998,612.9178167,613.4014434000001,,,,,,,,,,,,,,613.4181448999998,,,,,,,,,,,,,613.4078537999999,613.4181448999998,613.4181448999998,613.4181448999998,616.4023610999998,j,0.8547257000000172,0.21547310000005382,616.4025586999996,616.4026188999997,None,,,,,616.4175651,616.4175651,616.4175651,,,,,,,,,,00052,001,2026-01-25_12h44.06.631,MST_task,2024.2.0,59.9051701156943,2026-01-25 12h44.19.045427 +0530,
,Objects\133a.jpg,134,0,135,,,,,,,j,0.6742093000002569,0.21583520000012868,None,,,,,,135,0,134,616.4175651,,,,,,,,,,,,,,,,,,,,,,,616.4029237,616.4175651,616.9016010999999,,,,,,,,,,,,,,616.9262604,,,,,,,,,,,,,616.9230803999999,616.9262604,616.9262604,616.9262604,619.9179356999998,j,0.6742093000002569,0.21583520000012868,619.9181519999997,619.9182161999997,None,,,,,,,,,,,,,,,,,00052,001,2026-01-25_12h44.06.631,MST_task,2024.2.0,59.9051701156943,2026-01-25 12h44.19.045427 +0530,
,Objects\046a.jpg,135,0,136,,,,,,,f,0.7376335999997536,0.20771049999984825,None,,,,,,136,0,135,619.9345458999996,,,,,,,,,,,,,,,,,,,,,,,619.9185199999997,619.9345458999996,620.4182077,,,,,,,,,,,,,,620.4392595999998,,,,,,,,,,,,,620.4363270999997,620.4392595999998,620.4392595999998,620.4392595999998,623.4349207999999,f,0.7376335999997536,0.20771049999984825,623.4351201,623.4351838999996,None,,,,,,,,,,,,,,,,,00052,001,2026-01-25_12h44.06.631,MST_task,2024.2.0,59.9051701156943,2026-01-25 12h44.19.045427 +0530,
,Objects\040a.jpg,136,0,137,,,,,,,f,0.6695896999999604,0.16784969999980603,None,,,,,,137,0,136,623.4510737,,,,,,,,,,,,,,,,,,,,,,,623.4354764,623.4510737,623.9349603999999,,,,,,,,,,,,,,623.9554201999999,,,,,,,,,,,,,623.9526625999997,623.9554201999999,623.9554201999999,623.9554201999999,626.9516658999996,f,0.6695896999999604,0.16784969999980603,626.9518641,626.9519277999998,None,,,,,,,,,,,,,,,,,00052,001,2026-01-25_12h44.06.631,MST_task,2024.2.0,59.9051701156943,2026-01-25 12h44.19.045427 +0530,
,Objects\083a.jpg,137,0,138,,,,,,,f,0.7296298000001116,0.19996109999965483,None,,,,,,138,0,137,626.967819,,,,,,,,,,,,,,,,,,,,,,,626.9522198,626.967819,627.4515761999996,,,,,,,,,,,,,,627.4708314999998,,,,,,,,,,,,,627.4681871999996,627.4708314999998,627.4708314999998,627.4708314999998,630.4682201999999,f,0.7296298000001116,0.19996109999965483,630.4684156999997,630.4684775000001,None,,,,,,,,,,,,,,,,,00052,001,2026-01-25_12h44.06.631,MST_task,2024.2.0,59.9051701156943,2026-01-25 12h44.19.045427 +0530,
,Objects\162a.jpg,138,0,139,,,,,,,f,1.7524091000000226,0.19986679999965418,None,,,,,,139,0,138,630.4845692999997,,,,,,,,,,,,,,,,,,,,,,,630.4687682999997,630.4845692999997,630.9680676999997,,,,,,,,,,,,,,630.9921343999999,,,,,,,,,,,,,630.9891577999997,630.9921343999999,630.9921343999999,630.9921343999999,633.9846444,f,1.7524091000000226,0.19986679999965418,633.9848468,633.9849111999997,None,,,,,,,,,,,,,,,,,00052,001,2026-01-25_12h44.06.631,MST_task,2024.2.0,59.9051701156943,2026-01-25 12h44.19.045427 +0530,
,Objects\110a.jpg,139,0,140,,,,,,,f,0.5958335999998781,0.184124299999894,None,,,,,,140,0,139,634.0011998,,,,,,,,,,,,,,,,,,,,,,,633.9852034999999,634.0011998,634.4849670999997,,,,,,,,,,,,,,634.5083866,,,,,,,,,,,,,634.5054880999996,634.5083866,634.5083866,634.5083866,637.4855806,f,0.5958335999998781,0.184124299999894,637.4857824000001,637.4858448999998,None,,,,,,,,,,,,,,,,,00052,001,2026-01-25_12h44.06.631,MST_task,2024.2.0,59.9051701156943,2026-01-25 12h44.19.045427 +0530,
,Scenes\130a.jpg,140,0,141,,,,,,,j,2.333771500000239,0.16802869999992254,None,,,,,,141,0,140,637.5012363999999,,,,,,,,,,,,,,,,,,,,,,,637.4861373999997,637.5012363999999,637.9849912,,,,,,,,,,,,,,638.0184417,,,,,,,,,,,,,638.0156219,638.0184417,638.0184417,638.0184417,641.0016379999997,j,2.333771500000239,0.16802869999992254,641.0018393,641.0019018999997,None,,,,,,,,,,,,,,,,,00052,001,2026-01-25_12h44.06.631,MST_task,2024.2.0,59.9051701156943,2026-01-25 12h44.19.045427 +0530,
,Scenes\168a.jpg,141,0,142,,,,,,,j,0.9518606000001455,0.18364019999989978,None,,,,,,142,0,141,641.0178480999998,,,,,,,,,,,,,,,,,,,,,,,641.0021935999998,641.0178480999998,641.5016425999997,,,,,,,,,,,,,,641.5290218999999,,,,,,,,,,,,,641.5262607999998,641.5290218999999,641.5290218999999,641.5290218999999,644.5021904999999,j,0.9518606000001455,0.18364019999989978,644.5024012999997,644.5024681999998,None,,,,,,,,,,,,,,,,,00052,001,2026-01-25_12h44.06.631,MST_task,2024.2.0,59.9051701156943,2026-01-25 12h44.19.045427 +0530,
,Scenes\007a.jpg,142,0,143,,,,,,,j,0.5399899999997615,0.14456310000014128,None,,,,,,143,0,142,644.5177933999998,,,,,,,,,,,,,,,,,,,,,,,644.5027588999997,644.5177933999998,645.0016467,,,,,,,,,,,,,,645.0283344999998,,,,,,,,,,,,,645.0257282999996,645.0283344999998,645.0283344999998,645.0283344999998,648.0182436,j,0.5399899999997615,0.14456310000014128,648.0184415999997,648.0185044,None,,,,,,,,,,,,,,,,,00052,001,2026-01-25_12h44.06.631,MST_task,2024.2.0,59.9051701156943,2026-01-25 12h44.19.045427 +0530,
,Scenes\075a.jpg,143,0,144,,,,,,,j,0.9315489999999045,0.1917570999999043,None,,,,,,144,0,143,648.0350011,,,,,,,,,,,,,,,,,,,,,,,648.0187962999998,648.0350011,648.5181092999997,,,,,,,,,,,,,,648.5489288999997,,,,,,,,,,,,,648.5462745,648.5489288999997,648.5489288999997,648.5489288999997,651.5353996999997,j,0.9315489999999045,0.1917570999999043,651.5356131999997,651.5356836999999,None,,,,,,,,,,,,,,,,,00052,001,2026-01-25_12h44.06.631,MST_task,2024.2.0,59.9051701156943,2026-01-25 12h44.19.045427 +0530,
,Scenes\091a.jpg,144,0,145,,,,,,,j,1.3738958999997521,0.1761116000002403,None,,,,,,145,0,144,651.5512728999997,,,,,,,,,,,,,,,,,,,,,,,651.5361123999996,651.5512728999997,652.0347539999998,,,,,,,,,,,,,,652.0669098999997,,,,,,,,,,,,,652.0642419999999,652.0669098999997,652.0669098999997,652.0669098999997,655.0518622,j,1.3738958999997521,0.1761116000002403,655.0520649,655.0521312999999,None,,,,,,,,,,,,,,,,,00052,001,2026-01-25_12h44.06.631,MST_task,2024.2.0,59.9051701156943,2026-01-25 12h44.19.045427 +0530,
,Scenes\165a.jpg,145,0,146,,,,,,,j,0.7785834999999679,0.1838446000001568,None,,,,,,146,0,145,655.0681394999997,,,,,,,,,,,,,,,,,,,,,,,655.0525201999999,655.0681394999997,655.5516204,,,,,,,,,,,,,,655.5737593999997,,,,,,,,,,,,,655.5705906999997,655.5737593999997,655.5737593999997,655.5737593999997,658.5682696999997,j,0.7785834999999679,0.1838446000001568,658.568475,658.5685387999997,None,,,,,,,,,,,,,,,,,00052,001,2026-01-25_12h44.06.631,MST_task,2024.2.0,59.9051701156943,2026-01-25 12h44.19.045427 +0530,
,Scenes\180a.jpg,146,0,147,,,,,,,j,0.7347460999999385,0.20092829999975947,None,,,,,,147,0,146,658.5845243999997,,,,,,,,,,,,,,,,,,,,,,,658.5688301999999,658.5845243999997,659.0683681,,,,,,,,,,,,,,659.0980399,,,,,,,,,,,,,659.0953482999998,659.0980399,659.0980399,659.0980399,662.0851662,j,0.7347460999999385,0.20092829999975947,662.0853749999997,662.0854388999996,None,,,,,,,,,,,,,,,,,00052,001,2026-01-25_12h44.06.631,MST_task,2024.2.0,59.9051701156943,2026-01-25 12h44.19.045427 +0530,
,Objects\018a.jpg,147,0,148,,,,,,,f,2.8015574999999444,None,None,,,,,,148,0,147,662.1012567999996,,,,,,,,,,,,,,,,,,,,,,,662.0857299999998,662.1012567999996,662.5847635999999,,,,,,,,,,,,,,662.6077892999997,,,,,,,,,,,,,662.6047624999997,662.6077892999997,662.6077892999997,662.6077892999997,665.6013997,f,2.8015574999999444,None,665.6016132999998,665.6016765999998,None,,,,,,,,,,,,,,,,,00052,001,2026-01-25_12h44.06.631,MST_task,2024.2.0,59.9051701156943,2026-01-25 12h44.19.045427 +0530,
,Objects\069a.jpg,148,0,149,,,,,,,j,0.6203960999996525,0.2153347000003123,None,,,,,,149,0,148,665.6178464999998,,,,,,,,,,,,,,,,,,,,,,,665.6019713000001,665.6178464999998,666.1016764999999,,,,,,,,,,,,,,666.1244659999998,,,,,,,,,,,,,666.1216511999996,666.1244659999998,666.1244659999998,666.1244659999998,669.1182985,j,0.6203960999996525,0.2153347000003123,669.1184960999999,669.1185593,None,,,,,,,,,,,,,,,,,00052,001,2026-01-25_12h44.06.631,MST_task,2024.2.0,59.9051701156943,2026-01-25 12h44.19.045427 +0530,
,Objects\120a.jpg,149,0,150,,,,,,,f,1.6825895000001765,0.18433379999987665,None,,,,,,150,0,149,669.1346282,,,,,,,,,,,,,,,,,,,,,,,669.1189371999999,669.1346282,669.6185398999996,,,,,,,,,,,,,,669.6376785999996,,,,,,,,,,,,,669.6352772,669.6376785999996,669.6376785999996,669.6376785999996,672.6353580999998,f,1.6825895000001765,0.18433379999987665,672.6355555999999,672.6356185,None,,,,,,,,,,,,,,,,,00052,001,2026-01-25_12h44.06.631,MST_task,2024.2.0,59.9051701156943,2026-01-25 12h44.19.045427 +0530,
,Objects\135a.jpg,150,0,151,,,,,,,None,,,f,0.07225569999991421,None,,,,151,0,150,672.6512671,,,,,,,,,,,,,,,,,,,,,,,672.6359253,672.6512671,673.1349688999999,,,,,,,,,,,,,,673.1571584999997,,,,,,,,,,,,,673.1541511999999,673.1571584999997,673.1571584999997,673.1571584999997,676.1514266999998,None,,,676.1516370999998,676.2517936999998,f,676.1682885999999,676.1682885999999,0.07225569999991421,None,,,,,,,,,,,,,00052,001,2026-01-25_12h44.06.631,MST_task,2024.2.0,59.9051701156943,2026-01-25 12h44.19.045427 +0530,
,Objects\175a.jpg,151,0,152,,,,,,,f,1.2370906999999534,0.16828499999974156,None,,,,,,152,0,151,676.2678762999999,,,,,,,,,,,,,,,,,,,,,,,676.2522417999999,676.2678762999999,676.7516738999998,,,,,,,,,,,,,,676.7713681,,,,,,,,,,,,,676.7686761,676.7713681,676.7713681,676.7713681,679.7682623000001,f,1.2370906999999534,0.16828499999974156,679.7684599999998,679.7685241999998,None,,,,,,,,,,,,,,,,,00052,001,2026-01-25_12h44.06.631,MST_task,2024.2.0,59.9051701156943,2026-01-25 12h44.19.045427 +0530,
,Objects\078a.jpg,152,0,153,,,,,,,f,0.22101309999970908,0.18399660000022777,None,,,,,,153,0,152,679.7846175999998,,,,,,,,,,,,,,,,,,,,,,,679.7688117999996,679.7846175999998,680.2681175999996,,,,,,,,,,,,,,680.2915061999997,,,,,,,,,,,,,680.2886286999997,680.2915061999997,680.2915061999997,680.2915061999997,683.2850085,f,0.22101309999970908,0.18399660000022777,683.2852172999997,683.2852785999999,None,,,,,,,,,,,,,,,,,00052,001,2026-01-25_12h44.06.631,MST_task,2024.2.0,59.9051701156943,2026-01-25 12h44.19.045427 +0530,
,Objects\187a.jpg,153,0,154,,,,,,,f,0.5920959999998558,0.17600399999992078,None,,,,,,154,0,153,683.3015593999999,,,,,,,,,,,,,,,,,,,,,,,683.2855732999997,683.3015593999999,683.7847176999999,,,,,,,,,,,,,,683.8086058999997,,,,,,,,,,,,,683.8065153999996,683.8086058999997,683.8086058999997,683.8086058999997,686.7855169,f,0.5920959999998558,0.17600399999992078,686.7857179999996,686.7857817999998,None,,,,,,,,,,,,,,,,,00052,001,2026-01-25_12h44.06.631,MST_task,2024.2.0,59.9051701156943,2026-01-25 12h44.19.045427 +0530,
,Scenes\164a.jpg,154,0,155,,,,,,,j,1.6472349000000577,0.1676340999997592,None,,,,,,155,0,154,686.8013062,,,,,,,,,,,,,,,,,,,,,,,686.7861469999998,686.8013062,687.2848878999998,,,,,,,,,,,,,,687.3136474999997,,,,,,,,,,,,,687.3111197999997,687.3136474999997,687.3136474999997,687.3136474999997,690.3014641,j,1.6472349000000577,0.1676340999997592,690.3016599999996,690.3017228999997,None,,,,,,,,,,,,,,,,,00052,001,2026-01-25_12h44.06.631,MST_task,2024.2.0,59.9051701156943,2026-01-25 12h44.19.045427 +0530,
,Scenes\146a.jpg,155,0,156,,,,,,,None,,,j,0.9419676000002255,None,,,,156,0,155,690.3178865,,,,,,,,,,,,,,,,,,,,,,,690.3020154999999,690.3178865,690.8016846,,,,,,,,,,,,,,690.8362167,,,,,,,,,,,,,690.8332114999998,690.8362167,690.8362167,690.8362167,693.8180988999998,None,,,693.8182729999999,694.7849381999999,j,693.8346067999996,693.8346067999996,0.9419676000002255,None,,,,,,,,,,,,,00052,001,2026-01-25_12h44.06.631,MST_task,2024.2.0,59.9051701156943,2026-01-25 12h44.19.045427 +0530,
,Scenes\175a.jpg,156,0,157,,,,,,,j,1.9710262999997212,0.19153270000015254,None,,,,,,157,0,156,694.8012957999999,,,,,,,,,,,,,,,,,,,,,,,694.7854465999999,694.8012957999999,695.2850266,,,,,,,,,,,,,,695.3018250999999,,,,,,,,,,,,,695.2936614,695.3018250999999,695.3018250999999,695.3018250999999,698.2858326999999,j,1.9710262999997212,0.19153270000015254,698.2860407999997,698.2861014,None,,,,,698.3013072999997,698.3013072999997,698.3013072999997,,,,,,,,,,00052,001,2026-01-25_12h44.06.631,MST_task,2024.2.0,59.9051701156943,2026-01-25 12h44.19.045427 +0530,
,Scenes\106a.jpg,157,0,158,,,,,,,j,2.086438399999679,0.1606934999999794,None,,,,,,158,0,157,698.3013072999997,,,,,,,,,,,,,,,,,,,,,,,698.2864015999999,698.3013072999997,698.7847597999998,,,,,,,,,,,,,,698.8177612999998,,,,,,,,,,,,,698.8148744999999,698.8177612999998,698.8177612999998,698.8177612999998,701.8015854,j,2.086438399999679,0.1606934999999794,701.8017910999997,701.8018545999998,None,,,,,,,,,,,,,,,,,00052,001,2026-01-25_12h44.06.631,MST_task,2024.2.0,59.9051701156943,2026-01-25 12h44.19.045427 +0530,
,Scenes\069a.jpg,158,0,159,,,,,,,j,2.36998820000008,0.19990909999978612,None,,,,,,159,0,158,701.8177225,,,,,,,,,,,,,,,,,,,,,,,701.802228,701.8177225,702.3016453,,,,,,,,,,,,,,702.3183319999998,,,,,,,,,,,,,702.3146956,702.3183319999998,702.3183319999998,702.3183319999998,705.3025193999997,j,2.36998820000008,0.19990909999978612,705.3027146999998,705.3027741999999,None,,,,,705.3179219999997,705.3179219999997,705.3179219999997,,,,,,,,,,00052,001,2026-01-25_12h44.06.631,MST_task,2024.2.0,59.9051701156943,2026-01-25 12h44.19.045427 +0530,
,Scenes\128a.jpg,159,0,160,,,,,,,j,1.8901943999999276,0.231141000000207,None,,,,,,160,0,159,705.3179219999997,,,,,,,,,,,,,,,,,,,,,,,705.3031496999997,705.3179219999997,705.8017537999999,,,,,,,,,,,,,,705.8395486999998,,,,,,,,,,,,,705.8364207,705.8395486999998,705.8395486999998,705.8395486999998,708.81808,j,1.8901943999999276,0.231141000000207,708.8182757999998,708.8183394999996,None,,,,,,,,,,,,,,,,,00052,001,2026-01-25_12h44.06.631,MST_task,2024.2.0,59.9051701156943,2026-01-25 12h44.19.045427 +0530,
,Scenes\040a.jpg,160,0,161,,,,,,,j,2.1632524999999987,0.19139029999996637,None,,,,,,161,0,160,708.8344815999999,,,,,,,,,,,,,,,,,,,,,,,708.8187051,708.8344815999999,709.3182883999998,,,,,,,,,,,,,,709.3496519999999,,,,,,,,,,,,,709.3468324,709.3496519999999,709.3496519999999,709.3496519999999,712.3350406,j,2.1632524999999987,0.19139029999996637,712.3352376999997,712.3353002999997,None,,,,,,,,,,,,,,,,,00052,001,2026-01-25_12h44.06.631,MST_task,2024.2.0,59.9051701156943,2026-01-25 12h44.19.045427 +0530,
,Objects\101a.jpg,161,0,162,,,,,,,f,1.7976995999997598,0.1925163999999313,None,,,,,,162,0,161,712.3509252999997,,,,,,,,,,,,,,,,,,,,,,,712.3356626,712.3509252999997,712.8350419999997,,,,,,,,,,,,,,712.8586508999997,,,,,,,,,,,,,712.8561073999999,712.8586508999997,712.8586508999997,712.8586508999997,715.8522045999998,f,1.7976995999997598,0.1925163999999313,715.8524143999998,715.8524834999998,None,,,,,,,,,,,,,,,,,00052,001,2026-01-25_12h44.06.631,MST_task,2024.2.0,59.9051701156943,2026-01-25 12h44.19.045427 +0530,
,Objects\059a.jpg,162,0,163,,,,,,,f,0.7143428000003951,0.15981169999986378,None,,,,,,163,0,162,715.8677564,,,,,,,,,,,,,,,,,,,,,,,715.8527764,715.8677564,716.3517419,,,,,,,,,,,,,,716.3740181999997,,,,,,,,,,,,,716.3712464999999,716.3740181999997,716.3740181999997,716.3740181999997,719.3683063999997,f,0.7143428000003951,0.15981169999986378,719.3685461999999,719.3686113999997,None,,,,,,,,,,,,,,,,,00052,001,2026-01-25_12h44.06.631,MST_task,2024.2.0,59.9051701156943,2026-01-25 12h44.19.045427 +0530,
,Objects\003a.jpg,163,0,164,,,,,,,f,0.700623799999903,0.16000519999988683,None,,,,,,164,0,163,719.3843987,,,,,,,,,,,,,,,,,,,,,,,719.3689811999998,719.3843987,719.8683207999998,,,,,,,,,,,,,,719.8915815999999,,,,,,,,,,,,,719.8886662999998,719.8915815999999,719.8915815999999,719.8915815999999,722.8850777999996,f,0.700623799999903,0.16000519999988683,722.8852730999997,722.8853357999997,None,,,,,,,,,,,,,,,,,00052,001,2026-01-25_12h44.06.631,MST_task,2024.2.0,59.9051701156943,2026-01-25 12h44.19.045427 +0530,
,Objects\103a.jpg,164,0,165,,,,,,,f,1.3871297000000595,0.20848350000005667,None,,,,,,165,0,164,722.9013323999998,,,,,,,,,,,,,,,,,,,,,,,722.8856263999996,722.9013323999998,723.3850574999997,,,,,,,,,,,,,,723.4051434999997,,,,,,,,,,,,,723.4029029999997,723.4051434999997,723.4051434999997,723.4051434999997,726.4024645,f,1.3871297000000595,0.20848350000005667,726.4026657,726.4027305,None,,,,,,,,,,,,,,,,,00052,001,2026-01-25_12h44.06.631,MST_task,2024.2.0,59.9051701156943,2026-01-25 12h44.19.045427 +0530,
,Objects\118a.jpg,165,0,166,,,,,,,f,2.3417170999996415,0.14351940000005925,None,,,,,,166,0,165,726.4179354999997,,,,,,,,,,,,,,,,,,,,,,,726.4030912999997,726.4179354999997,726.9014371999997,,,,,,,,,,,,,,726.9229648999999,,,,,,,,,,,,,726.9201024999998,726.9229648999999,726.9229648999999,726.9229648999999,729.9182194,f,2.3417170999996415,0.14351940000005925,729.9184265999997,729.9184906999999,None,,,,,,,,,,,,,,,,,00052,001,2026-01-25_12h44.06.631,MST_task,2024.2.0,59.9051701156943,2026-01-25 12h44.19.045427 +0530,
,Objects\052a.jpg,166,0,167,,,,,,,f,2.362831500000084,0.23185659999990094,None,,,,,,167,0,166,729.9345730999999,,,,,,,,,,,,,,,,,,,,,,,729.918788,729.9345730999999,730.4183306999998,,,,,,,,,,,,,,730.4377304,,,,,,,,,,,,,730.4351969999998,730.4377304,730.4377304,730.4377304,733.4347333999999,f,2.362831500000084,0.23185659999990094,733.4349408999997,733.4350049999998,None,,,,,,,,,,,,,,,,,00052,001,2026-01-25_12h44.06.631,MST_task,2024.2.0,59.9051701156943,2026-01-25 12h44.19.045427 +0530,
,Objects\065a.jpg,167,0,168,,,,,,,f,1.9649576000001616,0.18394309999985126,None,,,,,,168,0,167,733.4510170999997,,,,,,,,,,,,,,,,,,,,,,,733.4352961,733.4510170999997,733.9351274999999,,,,,,,,,,,,,,733.9552713999997,,,,,,,,,,,,,733.9531109,733.9552713999997,733.9552713999997,733.9552713999997,736.9516423999999,f,1.9649576000001616,0.18394309999985126,736.9518424999997,736.9519065,None,,,,,,,,,,,,,,,,,00052,001,2026-01-25_12h44.06.631,MST_task,2024.2.0,59.9051701156943,2026-01-25 12h44.19.045427 +0530,
,Scenes\152a.jpg,168,0,169,,,,,,,None,,,f,4.14870880000035,None,,,,169,0,168,736.9677686,,,,,,,,,,,,,,,,,,,,,,,736.9522959999999,736.9677686,737.4515547999999,,,,,,,,,,,,,,737.4789655,,,,,,,,,,,,,737.4760578,737.4789655,737.4789655,737.4789655,740.4691909999997,None,,,740.4692614,744.6349310999999,f,740.4841658999999,740.4841658999999,4.14870880000035,None,,,,,,,,,,,,,00052,001,2026-01-25_12h44.06.631,MST_task,2024.2.0,59.9051701156943,2026-01-25 12h44.19.045427 +0530,
,Scenes\077a.jpg,169,0,170,,,,,,,j,1.0395415000002686,0.17546330000004673,None,,,,,,170,0,169,744.6510759999996,,,,,,,,,,,,,,,,,,,,,,,744.6353918,744.6510759999996,745.1353123999997,,,,,,,,,,,,,,745.1693525000001,,,,,,,,,,,,,745.1666806999997,745.1693525000001,745.1693525000001,745.1693525000001,748.1525013999999,j,1.0395415000002686,0.17546330000004673,748.1526971999997,748.1527603999998,None,,,,,,,,,,,,,,,,,00052,001,2026-01-25_12h44.06.631,MST_task,2024.2.0,59.9051701156943,2026-01-25 12h44.19.045427 +0530,
,Scenes\145a.jpg,170,0,171,,,,,,,j,0.9884835000002568,0.19136859999980516,None,,,,,,171,0,170,748.1679445,,,,,,,,,,,,,,,,,,,,,,,748.1530470999996,748.1679445,748.6516093,,,,,,,,,,,,,,748.6844381999999,,,,,,,,,,,,,748.6815330999998,748.6844381999999,748.6844381999999,748.6844381999999,751.6681291,j,0.9884835000002568,0.19136859999980516,751.6683306999998,751.6683957,None,,,,,,,,,,,,,,,,,00052,001,2026-01-25_12h44.06.631,MST_task,2024.2.0,59.9051701156943,2026-01-25 12h44.19.045427 +0530,
,Scenes\089a.jpg,171,0,172,,,,,,,j,0.580655399999614,0.16834110000036162,None,,,,,,172,0,171,751.6854995999997,,,,,,,,,,,,,,,,,,,,,,,751.6687603,751.6854995999997,752.1683497999998,,,,,,,,,,,,,,752.2035879,,,,,,,,,,,,,752.2005391999996,752.2035879,752.2035879,752.2035879,755.1850943,j,0.580655399999614,0.16834110000036162,755.1852949999998,755.1853581999999,None,,,,,,,,,,,,,,,,,00052,001,2026-01-25_12h44.06.631,MST_task,2024.2.0,59.9051701156943,2026-01-25 12h44.19.045427 +0530,
,Scenes\108a.jpg,172,0,173,,,,,,,j,1.2202330999998594,0.1919023999998899,None,,,,,,173,0,172,755.2013699999998,,,,,,,,,,,,,,,,,,,,,,,755.1856546999998,755.2013699999998,755.6856454999997,,,,,,,,,,,,,,755.7163223999996,,,,,,,,,,,,,755.7133440999996,755.7163223999996,755.7163223999996,755.7163223999996,758.7024429999997,j,1.2202330999998594,0.1919023999998899,758.7026475999996,758.7027097,None,,,,,,,,,,,,,,,,,00052,001,2026-01-25_12h44.06.631,MST_task,2024.2.0,59.9051701156943,2026-01-25 12h44.19.045427 +0530,
,Scenes\072a.jpg,173,0,174,,,,,,,j,1.1056319999997868,0.17570830000022397,None,,,,,,174,0,173,758.7178265999996,,,,,,,,,,,,,,,,,,,,,,,758.7030013999997,758.7178265999996,759.2017561999996,,,,,,,,,,,,,,759.2392649999997,,,,,,,,,,,,,759.2356090999997,759.2392649999997,759.2392649999997,759.2392649999997,762.2180565999997,j,1.1056319999997868,0.17570830000022397,762.2182515999998,762.2183176999997,None,,,,,,,,,,,,,,,,,00052,001,2026-01-25_12h44.06.631,MST_task,2024.2.0,59.9051701156943,2026-01-25 12h44.19.045427 +0530,
,Scenes\054a.jpg,174,0,175,,,,,,,j,2.435345100000177,0.14309839999987162,None,,,,,,175,0,174,762.2349503999999,,,,,,,,,,,,,,,,,,,,,,,762.2186839999999,762.2349503999999,762.7185658999997,,,,,,,,,,,,,,,,,,,,,,,,,,,762.7380749999998,762.7418131,762.7418131,762.7418131,765.7348066,j,2.435345100000177,0.14309839999987162,765.7350116999996,765.7350744999999,None,,,,,,,,,,,,,,,,,00052,001,2026-01-25_12h44.06.631,MST_task,2024.2.0,59.9051701156943,2026-01-25 12h44.19.045427 +0530,
,Objects\082a.jpg,175,0,176,,,,,,,f,0.6094665000000532,0.14401600000019243,None,,,,,,176,0,175,765.7513654999998,,,,,,,,,,,,,,,,,,,,,,,765.7354425999997,765.7513654999998,766.2352776999996,,,,,,,,,,,,,,766.2634069000001,,,,,,,,,,,,,766.2596245,766.2634069000001,766.2634069000001,766.2634069000001,769.2516266999996,f,0.6094665000000532,0.14401600000019243,769.2518233000001,769.2518870999997,None,,,,,,,,,,,,,,,,,00052,001,2026-01-25_12h44.06.631,MST_task,2024.2.0,59.9051701156943,2026-01-25 12h44.19.045427 +0530,
,Objects\068a.jpg,176,0,177,,,,,,,f,0.8266408999998021,0.167961699999978,None,,,,,,177,0,176,769.2682043,,,,,,,,,,,,,,,,,,,,,,,769.2522485999998,769.2682043,769.7517892999999,,,,,,,,,,,,,,769.7738132,,,,,,,,,,,,,769.7712228999999,769.7738132,769.7738132,769.7738132,772.76811,f,0.8266408999998021,0.167961699999978,772.7683051999998,772.7683692999999,None,,,,,,,,,,,,,,,,,00052,001,2026-01-25_12h44.06.631,MST_task,2024.2.0,59.9051701156943,2026-01-25 12h44.19.045427 +0530,
,Objects\015a.jpg,177,0,178,,,,,,,f,2.541772099999889,0.18461470000011104,None,,,,,,178,0,177,772.7844227,,,,,,,,,,,,,,,,,,,,,,,772.7686561999999,772.7844227,773.2683982999997,,,,,,,,,,,,,,773.2905031999999,,,,,,,,,,,,,773.2881978999999,773.2905031999999,773.2905031999999,773.2905031999999,776.2850805999997,f,2.541772099999889,0.18461470000011104,776.2852771999997,776.2853393,None,,,,,,,,,,,,,,,,,00052,001,2026-01-25_12h44.06.631,MST_task,2024.2.0,59.9051701156943,2026-01-25 12h44.19.045427 +0530,
