thisN,thisTrialN,thisRepN,key_resp_3.keys,key_resp_3.rt,key_resp_3.duration,trials.thisRepN,trials.thisTrialN,trials.thisN,thisRow.t,notes,intro_page.started,text.started,key_resp.started,intro_page.stopped,key_resp.keys,key_resp.rt,key_resp.duration,instructions.started,text_2.started,key_resp_2.started,instructions.stopped,key_resp_2.keys,key_resp_2.rt,key_resp_2.duration,demo1.started,image_1.started,image_2.started,text_7.started,key_resp_6.started,text_9.started,demo1.stopped,key_resp_6.keys,key_resp_6.rt,key_resp_6.duration,demo2.started,image_5.started,image_6.started,text_11.started,text_12.started,key_resp_8.started,demo2.stopped,key_resp_8.keys,key_resp_8.rt,key_resp_8.duration,demo_conclusion.started,text_13.started,key_resp_9.started,demo_conclusion.stopped,key_resp_9.keys,key_resp_9.rt,key_resp_9.duration,start_test.started,text_6.started,key_resp_5.started,start_test.stopped,key_resp_5.keys,key_resp_5.rt,key_resp_5.duration,ISI.started,text_4.started,text_4.stopped,ISI.stopped,routine_1.started,image.started,text_3.started,key_resp_3.started,routine_1.stopped,image_path,position_of_stimuli,trials.key_resp_3.keys,trials.key_resp_3.rt,trials.key_resp_3.duration,End_page.started,text_5.started,key_resp_4.started,End_page.stopped,key_resp_4.keys,key_resp_4.rt,key_resp_4.duration,participant,session,date,expName,psychopyVersion,frameRate,expStart,
,,,,,,,,,,,0.0012100000167265534,0.0030091000080574304,0.0030091000080574304,8.510280700022122,space,8.490040599979693,None,,,,,,,,,,,,,,,,,,,,,,,,,,,,,,,,,,,,,,,,,,,,,,,,,,,,,,,,,,,,,,,00032,001,2026-01-21_17h53.13.920,MST_test,2024.2.0,60.01532791268924,2026-01-21 17h53.22.115163 +0530,
,,,,,,,,,,,,,,,,,,8.510405100008938,8.522686100011924,8.522686100011924,20.60451170001761,space,12.066434399981517,None,,,,,,,,,,,,,,,,,,,,,,,,,,,,,,,,,,,,,,,,,,,,,,,,,,,,,,,,00032,001,2026-01-21_17h53.13.920,MST_test,2024.2.0,60.01532791268924,2026-01-21 17h53.22.115163 +0530,
,,,,,,,,,,,,,,,,,,,,,,,,,20.604616199998418,20.64294330001576,20.64294330001576,20.64294330001576,20.64294330001576,20.64294330001576,27.25466810000944,space,6.6101350000244565,None,,,,,,,,,,,,,,,,,,,,,,,,,,,,,,,,,,,,,,,,,,,,,,00032,001,2026-01-21_17h53.13.920,MST_test,2024.2.0,60.01532791268924,2026-01-21 17h53.22.115163 +0530,
,,,,,,,,,,,,,,,,,,,,,,,,,,,,,,,,,,,27.25476440001512,27.270847300009336,27.270847300009336,27.270847300009336,27.270847300009336,27.270847300009336,30.33819810001296,space,3.0544666000059806,None,,,,,,,,,,,,,,,,,,,,,,,,,,,,,,,,,,,,00032,001,2026-01-21_17h53.13.920,MST_test,2024.2.0,60.01532791268924,2026-01-21 17h53.22.115163 +0530,
,,,,,,,,,,,,,,,,,,,,,,,,,,,,,,,,,,,,,,,,,,,,,30.338296900008572,30.354580100014573,30.354580100014573,53.62085930001922,space,23.258199000003515,None,,,,,,,,,,,,,,,,,,,,,,,,,,,,,00032,001,2026-01-21_17h53.13.920,MST_test,2024.2.0,60.01532791268924,2026-01-21 17h53.22.115163 +0530,
,,,,,,,,,,,,,,,,,,,,,,,,,,,,,,,,,,,,,,,,,,,,,,,,,,,,53.62091900000814,53.63704390000203,53.63704390000203,139.58806170002208,space,85.94378040000447,None,,,,,,,,,,,,,,,,,,,,,,00032,001,2026-01-21_17h53.13.920,MST_test,2024.2.0,60.01532791268924,2026-01-21 17h53.22.115163 +0530,
0,0,1,o,3.5011193999962416,None,1,0,0,139.60403630000656,,,,,,,,,,,,,,,,,,,,,,,,,,,,,,,,,,,,,,,,,,,,,,,,,,139.59724500001175,139.60403630000656,140.103746400011,140.08797720001894,140.1006396000157,140.103746400011,140.103746400011,140.103746400011,143.62175630001002,Objects\046a.jpg,mid,o,3.5011193999962416,None,,,,,,,,00032,001,2026-01-21_17h53.13.920,MST_test,2024.2.0,60.01532791268924,2026-01-21 17h53.22.115163 +0530,
1,0,2,o,2.987144699989585,None,2,0,1,143.63742750001256,,,,,,,,,,,,,,,,,,,,,,,,,,,,,,,,,,,,,,,,,,,,,,,,,,143.6221437000204,143.63742750001256,144.17764480001642,144.12096710002515,144.17483080000966,144.17764480001642,144.17764480001642,144.17764480001642,147.17139440000756,Scenes\011b.jpg,mid,o,2.987144699989585,None,,,,,,,,00032,001,2026-01-21_17h53.13.920,MST_test,2024.2.0,60.01532791268924,2026-01-21 17h53.22.115163 +0530,
2,0,3,o,3.6536030000133906,None,3,0,2,147.18738740001572,,,,,,,,,,,,,,,,,,,,,,,,,,,,,,,,,,,,,,,,,,,,,,,,,,147.17175450001378,147.18738740001572,147.68710250000004,147.67103680002037,147.68380830000388,147.68710250000004,147.68710250000004,147.68710250000004,151.3548191000009,Objects\038a.jpg,mid,o,3.6536030000133906,None,,,,,,,,00032,001,2026-01-21_17h53.13.920,MST_test,2024.2.0,60.01532791268924,2026-01-21 17h53.22.115163 +0530,
3,0,4,n,3.138384700025199,None,4,0,3,151.37074430001667,,,,,,,,,,,,,,,,,,,,,,,,,,,,,,,,,,,,,,,,,,,,,,,,,,151.3551774000225,151.37074430001667,151.89029870001832,151.85422410001047,151.88765190000413,151.89029870001832,151.89029870001832,151.89029870001832,155.03768190002302,Foils\082a.jpg,none,n,3.138384700025199,None,,,,,,,,00032,001,2026-01-21_17h53.13.920,MST_test,2024.2.0,60.01532791268924,2026-01-21 17h53.22.115163 +0530,
4,0,5,n,3.1495337999949697,None,5,0,4,155.05411840000306,,,,,,,,,,,,,,,,,,,,,,,,,,,,,,,,,,,,,,,,,,,,,,,,,,155.03809909999836,155.05411840000306,155.58323750001728,155.5377461000171,155.58020170000964,155.58323750001728,155.58323750001728,155.58323750001728,158.73802910000086,Scenes\076b.jpg,mid,n,3.1495337999949697,None,,,,,,,,00032,001,2026-01-21_17h53.13.920,MST_test,2024.2.0,60.01532791268924,2026-01-21 17h53.22.115163 +0530,
5,0,6,s,3.3176997000118718,None,6,0,5,158.75451850000536,,,,,,,,,,,,,,,,,,,,,,,,,,,,,,,,,,,,,,,,,,,,,,,,,,158.73839620000217,158.75451850000536,159.2547887999972,159.23778540000785,159.24694710000767,159.2547887999972,159.2547887999972,159.2547887999972,162.58802660001675,Objects\105a.jpg,post,s,3.3176997000118718,None,,,,,,,,00032,001,2026-01-21_17h53.13.920,MST_test,2024.2.0,60.01532791268924,2026-01-21 17h53.22.115163 +0530,
6,0,7,s,1.1477862000174355,None,7,0,6,162.60410290001892,,,,,,,,,,,,,,,,,,,,,,,,,,,,,,,,,,,,,,,,,,,,,,,,,,162.58838420000393,162.60410290001892,163.10508140001912,163.08764230000088,163.09604270002455,163.10508140001912,163.10508140001912,163.10508140001912,164.25459280001814,Objects\161a.jpg,post,s,1.1477862000174355,None,,,,,,,,00032,001,2026-01-21_17h53.13.920,MST_test,2024.2.0,60.01532791268924,2026-01-21 17h53.22.115163 +0530,
7,0,8,s,3.2034086999774445,None,8,0,7,164.27075770002557,,,,,,,,,,,,,,,,,,,,,,,,,,,,,,,,,,,,,,,,,,,,,,,,,,164.25495190001675,164.27075770002557,164.79381440000725,164.75432570002158,164.7910806,164.79381440000725,164.79381440000725,164.79381440000725,168.00462520000292,Foils\scenes23.jpg,none,s,3.2034086999774445,None,,,,,,,,00032,001,2026-01-21_17h53.13.920,MST_test,2024.2.0,60.01532791268924,2026-01-21 17h53.22.115163 +0530,
8,0,9,n,4.020337499998277,None,9,0,8,168.02074460001313,,,,,,,,,,,,,,,,,,,,,,,,,,,,,,,,,,,,,,,,,,,,,,,,,,168.0049898000143,168.02074460001313,168.55259580002166,168.50426080002217,168.55055350001203,168.55259580002166,168.55259580002166,168.55259580002166,172.58784320001723,Scenes\168b.jpg,pre,n,4.020337499998277,None,,,,,,,,00032,001,2026-01-21_17h53.13.920,MST_test,2024.2.0,60.01532791268924,2026-01-21 17h53.22.115163 +0530,
9,0,10,o,3.6047226000227965,None,10,0,9,172.60374340001727,,,,,,,,,,,,,,,,,,,,,,,,,,,,,,,,,,,,,,,,,,,,,,,,,,172.58820200001355,172.60374340001727,173.10447830002522,173.08778110001003,173.10200120002264,173.10447830002522,173.10447830002522,173.10447830002522,176.72147400001995,Scenes\116a.jpg,mid,o,3.6047226000227965,None,,,,,,,,00032,001,2026-01-21_17h53.13.920,MST_test,2024.2.0,60.01532791268924,2026-01-21 17h53.22.115163 +0530,
10,0,11,n,4.211162799998419,None,11,0,10,176.73719610000262,,,,,,,,,,,,,,,,,,,,,,,,,,,,,,,,,,,,,,,,,,,,,,,,,,176.72183240001323,176.73719610000262,177.24953060000553,177.22118449999834,177.24724799999967,177.24953060000553,177.24953060000553,177.24953060000553,181.47143990002223,Foils\086a.jpg,none,n,4.211162799998419,None,,,,,,,,00032,001,2026-01-21_17h53.13.920,MST_test,2024.2.0,60.01532791268924,2026-01-21 17h53.22.115163 +0530,
11,0,12,s,11.541800200007856,None,12,0,11,181.48745250000502,,,,,,,,,,,,,,,,,,,,,,,,,,,,,,,,,,,,,,,,,,,,,,,,,,181.47180960001424,181.48745250000502,181.99883039999986,181.9708638000011,181.9966500000155,181.99883039999986,181.99883039999986,181.99883039999986,193.55485580000095,Objects\110b.jpg,pre,s,11.541800200007856,None,,,,,,,,00032,001,2026-01-21_17h53.13.920,MST_test,2024.2.0,60.01532791268924,2026-01-21 17h53.22.115163 +0530,
12,0,13,s,2.2494570999988355,None,13,0,12,193.5707381000102,,,,,,,,,,,,,,,,,,,,,,,,,,,,,,,,,,,,,,,,,,,,,,,,,,193.5552430000098,193.5707381000102,194.09122450000723,194.05452520001563,194.08800820002216,194.09122450000723,194.09122450000723,194.09122450000723,196.3545614000177,Scenes\165b.jpg,pre,s,2.2494570999988355,None,,,,,,,,00032,001,2026-01-21_17h53.13.920,MST_test,2024.2.0,60.01532791268924,2026-01-21 17h53.22.115163 +0530,
13,0,14,o,1.9164945999800693,None,14,0,13,196.3705494000169,,,,,,,,,,,,,,,,,,,,,,,,,,,,,,,,,,,,,,,,,,,,,,,,,,196.35495860001538,196.3705494000169,196.87209489999805,196.8544988000067,196.86345370000345,196.87209489999805,196.87209489999805,196.87209489999805,198.80475680000382,Objects\090a.jpg,post,o,1.9164945999800693,None,,,,,,,,00032,001,2026-01-21_17h53.13.920,MST_test,2024.2.0,60.01532791268924,2026-01-21 17h53.22.115163 +0530,
14,0,15,n,2.234304899990093,None,15,0,14,198.82075939999777,,,,,,,,,,,,,,,,,,,,,,,,,,,,,,,,,,,,,,,,,,,,,,,,,,198.8051162000047,198.82075939999777,199.3382252000156,199.30450320002274,199.33596850000322,199.3382252000156,199.3382252000156,199.3382252000156,201.58804500001133,Foils\101b.jpg,none,n,2.234304899990093,None,,,,,,,,00032,001,2026-01-21_17h53.13.920,MST_test,2024.2.0,60.01532791268924,2026-01-21 17h53.22.115163 +0530,
15,0,16,n,1.8765680000069551,None,16,0,15,201.60410930000944,,,,,,,,,,,,,,,,,,,,,,,,,,,,,,,,,,,,,,,,,,,,,,,,,,201.588407800009,201.60410930000944,202.1206143000163,202.08774529999937,202.11747330002254,202.1206143000163,202.1206143000163,202.1206143000163,204.0045096000249,Foils\scenes2.jpg,none,n,1.8765680000069551,None,,,,,,,,00032,001,2026-01-21_17h53.13.920,MST_test,2024.2.0,60.01532791268924,2026-01-21 17h53.22.115163 +0530,
16,0,17,o,1.2920474999991711,None,17,0,16,204.02051709999796,,,,,,,,,,,,,,,,,,,,,,,,,,,,,,,,,,,,,,,,,,,,,,,,,,204.0048674000136,204.02051709999796,204.5208352000045,204.50429810001515,204.51041110002552,204.5208352000045,204.5208352000045,204.5208352000045,205.82125330000417,Objects\095a.jpg,pre,o,1.2920474999991711,None,,,,,,,,00032,001,2026-01-21_17h53.13.920,MST_test,2024.2.0,60.01532791268924,2026-01-21 17h53.22.115163 +0530,
17,0,18,o,6.91140619997168,None,18,0,17,205.8371442000207,,,,,,,,,,,,,,,,,,,,,,,,,,,,,,,,,,,,,,,,,,,,,,,,,,205.8216103000159,205.8371442000207,,206.32153400001698,206.3548318000103,206.35722540001734,206.35722540001734,206.35722540001734,213.27124830000685,Objects\183b.jpg,mid,o,6.91140619997168,None,,,,,,,,00032,001,2026-01-21_17h53.13.920,MST_test,2024.2.0,60.01532791268924,2026-01-21 17h53.22.115163 +0530,
18,0,19,o,2.884817699989071,None,19,0,18,213.28776820001076,,,,,,,,,,,,,,,,,,,,,,,,,,,,,,,,,,,,,,,,,,,,,,,,,,213.27164380002068,213.28776820001076,213.81638440000825,213.77116090001073,213.81358060002094,213.81638440000825,213.81638440000825,213.81638440000825,216.7044434999989,Scenes\035b.jpg,post,o,2.884817699989071,None,,,,,,,,00032,001,2026-01-21_17h53.13.920,MST_test,2024.2.0,60.01532791268924,2026-01-21 17h53.22.115163 +0530,
19,0,20,s,2.376040200004354,None,20,0,19,216.72075259999838,,,,,,,,,,,,,,,,,,,,,,,,,,,,,,,,,,,,,,,,,,,,,,,,,,216.70480170001974,216.72075259999838,217.221119200025,217.2040582000045,217.21323400002439,217.221119200025,217.221119200025,217.221119200025,219.6047738000052,Objects\055a.jpg,mid,s,2.376040200004354,None,,,,,,,,00032,001,2026-01-21_17h53.13.920,MST_test,2024.2.0,60.01532791268924,2026-01-21 17h53.22.115163 +0530,
20,0,21,n,1.1715454999939539,None,21,0,20,219.62054520001402,,,,,,,,,,,,,,,,,,,,,,,,,,,,,,,,,,,,,,,,,,,,,,,,,,219.60513979999814,219.62054520001402,220.12896650002222,220.10451160001685,220.12638790000346,220.12896650002222,220.12896650002222,220.12896650002222,221.30466770002386,Foils\scenes20.jpg,none,n,1.1715454999939539,None,,,,,,,,00032,001,2026-01-21_17h53.13.920,MST_test,2024.2.0,60.01532791268924,2026-01-21 17h53.22.115163 +0530,
21,0,22,n,8.251213100011228,None,22,0,21,221.3203679000144,,,,,,,,,,,,,,,,,,,,,,,,,,,,,,,,,,,,,,,,,,,,,,,,,,221.30505210001138,221.3203679000144,,221.80510540000978,221.8477591999981,221.8499800999998,221.8499800999998,221.8499800999998,230.10458320000907,Scenes\157b.jpg,pre,n,8.251213100011228,None,,,,,,,,00032,001,2026-01-21_17h53.13.920,MST_test,2024.2.0,60.01532791268924,2026-01-21 17h53.22.115163 +0530,
22,0,23,s,4.231574100005673,None,23,0,22,230.12074959999882,,,,,,,,,,,,,,,,,,,,,,,,,,,,,,,,,,,,,,,,,,,,,,,,,,230.10496150000836,230.12074959999882,230.6373345000029,230.6045296000084,230.63468250000733,230.6373345000029,230.6373345000029,230.6373345000029,234.87111010000808,Objects\179b.jpg,post,s,4.231574100005673,None,,,,,,,,00032,001,2026-01-21_17h53.13.920,MST_test,2024.2.0,60.01532791268924,2026-01-21 17h53.22.115163 +0530,
23,0,24,n,2.7446171999908984,None,24,0,23,234.88713940000162,,,,,,,,,,,,,,,,,,,,,,,,,,,,,,,,,,,,,,,,,,,,,,,,,,234.87147430001642,234.88713940000162,235.41186810002546,235.37115960000665,235.409338700003,235.41186810002546,235.41186810002546,235.41186810002546,238.1712947000051,Scenes\181b.jpg,post,n,2.7446171999908984,None,,,,,,,,00032,001,2026-01-21_17h53.13.920,MST_test,2024.2.0,60.01532791268924,2026-01-21 17h53.22.115163 +0530,
24,0,25,s,1.8603856000117958,None,25,0,24,238.18737390000024,,,,,,,,,,,,,,,,,,,,,,,,,,,,,,,,,,,,,,,,,,,,,,,,,,238.1716771000065,238.18737390000024,238.71210319999955,238.67119900000398,238.70856250001816,238.71210319999955,238.71210319999955,238.71210319999955,240.58831010002177,Objects\039b.jpg,pre,s,1.8603856000117958,None,,,,,,,,00032,001,2026-01-21_17h53.13.920,MST_test,2024.2.0,60.01532791268924,2026-01-21 17h53.22.115163 +0530,
25,0,26,o,2.1203997999837156,None,26,0,25,240.60411939999904,,,,,,,,,,,,,,,,,,,,,,,,,,,,,,,,,,,,,,,,,,,,,,,,,,240.58869080001023,240.60411939999904,241.10876150001423,241.0878016000206,241.10619040002348,241.10876150001423,241.10876150001423,241.10876150001423,243.23811400000704,Scenes\094a.jpg,post,o,2.1203997999837156,None,,,,,,,,00032,001,2026-01-21_17h53.13.920,MST_test,2024.2.0,60.01532791268924,2026-01-21 17h53.22.115163 +0530,
26,0,27,n,1.4157449000049382,None,27,0,26,243.25383650002186,,,,,,,,,,,,,,,,,,,,,,,,,,,,,,,,,,,,,,,,,,,,,,,,,,243.23847410001326,243.25383650002186,243.75681320001604,243.73742990000756,243.75429160002386,243.75681320001604,243.75681320001604,243.75681320001604,245.18786580002052,Scenes\071a.jpg,mid,n,1.4157449000049382,None,,,,,,,,00032,001,2026-01-21_17h53.13.920,MST_test,2024.2.0,60.01532791268924,2026-01-21 17h53.22.115163 +0530,
27,0,28,s,3.1799129999999423,None,28,0,27,245.2039144000155,,,,,,,,,,,,,,,,,,,,,,,,,,,,,,,,,,,,,,,,,,,,,,,,,,245.18822020001244,245.2039144000155,245.73722320000525,245.68757020001067,245.73459200002253,245.73722320000525,245.73722320000525,245.73722320000525,248.9217389000114,Scenes\119b.jpg,post,s,3.1799129999999423,None,,,,,,,,00032,001,2026-01-21_17h53.13.920,MST_test,2024.2.0,60.01532791268924,2026-01-21 17h53.22.115163 +0530,
28,0,29,s,1.8661266999843065,None,29,0,28,248.93794440000784,,,,,,,,,,,,,,,,,,,,,,,,,,,,,,,,,,,,,,,,,,,,,,,,,,248.92220120001002,248.93794440000784,249.4424681000237,249.42146280000452,249.43967680001515,249.4424681000237,249.4424681000237,249.4424681000237,251.32148080001934,Scenes\120a.jpg,pre,s,1.8661266999843065,None,,,,,,,,00032,001,2026-01-21_17h53.13.920,MST_test,2024.2.0,60.01532791268924,2026-01-21 17h53.22.115163 +0530,
29,0,30,n,1.2208259999752045,None,30,0,29,251.3381781000062,,,,,,,,,,,,,,,,,,,,,,,,,,,,,,,,,,,,,,,,,,,,,,,,,,251.32184650001,251.3381781000062,251.84830940002576,251.82117710000603,251.84528100001626,251.84830940002576,251.84830940002576,251.84830940002576,253.0712332999974,Foils\098a.jpg,none,n,1.2208259999752045,None,,,,,,,,00032,001,2026-01-21_17h53.13.920,MST_test,2024.2.0,60.01532791268924,2026-01-21 17h53.22.115163 +0530,
30,0,31,s,2.9553336999961175,None,31,0,30,253.087760000024,,,,,,,,,,,,,,,,,,,,,,,,,,,,,,,,,,,,,,,,,,,,,,,,,,253.0715848999971,253.087760000024,253.63314590000664,253.57120360000408,253.63075170002412,253.63314590000664,253.63314590000664,253.63314590000664,256.60464230002253,Scenes\090b.jpg,mid,s,2.9553336999961175,None,,,,,,,,00032,001,2026-01-21_17h53.13.920,MST_test,2024.2.0,60.01532791268924,2026-01-21 17h53.22.115163 +0530,
31,0,32,o,1.18566080002347,None,32,0,31,256.62070110000786,,,,,,,,,,,,,,,,,,,,,,,,,,,,,,,,,,,,,,,,,,,,,,,,,,256.6050048000179,256.62070110000786,257.1314509000222,257.10451030000695,257.12880000000587,257.1314509000222,257.1314509000222,257.1314509000222,258.3211927000084,Scenes\138a.jpg,pre,o,1.18566080002347,None,,,,,,,,00032,001,2026-01-21_17h53.13.920,MST_test,2024.2.0,60.01532791268924,2026-01-21 17h53.22.115163 +0530,
32,0,33,o,1.1905420999974012,None,33,0,32,258.33716220001224,,,,,,,,,,,,,,,,,,,,,,,,,,,,,,,,,,,,,,,,,,,,,,,,,,258.3215534000192,258.33716220001224,258.8385638000036,258.8211621000082,258.8313511000015,258.8385638000036,258.8385638000036,258.8385638000036,260.03882380001596,Objects\107a.jpg,post,o,1.1905420999974012,None,,,,,,,,00032,001,2026-01-21_17h53.13.920,MST_test,2024.2.0,60.01532791268924,2026-01-21 17h53.22.115163 +0530,
33,0,34,o,1.2819987999973819,None,34,0,33,260.05393449999974,,,,,,,,,,,,,,,,,,,,,,,,,,,,,,,,,,,,,,,,,,,,,,,,,,260.03918350001913,260.05393449999974,260.55451090002316,260.53732709999895,260.5517401000252,260.55451090002316,260.55451090002316,260.55451090002316,261.8381545000011,Scenes\008a.jpg,pre,o,1.2819987999973819,None,,,,,,,,00032,001,2026-01-21_17h53.13.920,MST_test,2024.2.0,60.01532791268924,2026-01-21 17h53.22.115163 +0530,
34,0,35,s,4.761442299990449,None,35,0,34,261.8539585000253,,,,,,,,,,,,,,,,,,,,,,,,,,,,,,,,,,,,,,,,,,,,,,,,,,261.83851020000293,261.8539585000253,262.3790816999972,262.3376109000237,262.3764059000241,262.3790816999972,262.3790816999972,262.3790816999972,267.1547505000199,Objects\152b.jpg,post,s,4.761442299990449,None,,,,,,,,00032,001,2026-01-21_17h53.13.920,MST_test,2024.2.0,60.01532791268924,2026-01-21 17h53.22.115163 +0530,
35,0,36,s,1.6776750999852084,None,36,0,35,267.1705224000034,,,,,,,,,,,,,,,,,,,,,,,,,,,,,,,,,,,,,,,,,,,,,,,,,,267.15511560000596,267.1705224000034,267.6709383999987,267.6548759000143,267.6619008000125,267.6709383999987,267.6709383999987,267.6709383999987,269.3545471999969,Objects\031a.jpg,mid,s,1.6776750999852084,None,,,,,,,,00032,001,2026-01-21_17h53.13.920,MST_test,2024.2.0,60.01532791268924,2026-01-21 17h53.22.115163 +0530,
36,0,37,s,1.661691699991934,None,37,0,36,269.37037670001155,,,,,,,,,,,,,,,,,,,,,,,,,,,,,,,,,,,,,,,,,,,,,,,,,,269.3549141000258,269.37037670001155,269.87092490002397,269.85433670002385,269.86211010001716,269.87092490002397,269.87092490002397,269.87092490002397,271.53790019999724,Objects\068a.jpg,mid,s,1.661691699991934,None,,,,,,,,00032,001,2026-01-21_17h53.13.920,MST_test,2024.2.0,60.01532791268924,2026-01-21 17h53.22.115163 +0530,
37,0,38,o,1.436753599991789,None,38,0,37,271.5539066000201,,,,,,,,,,,,,,,,,,,,,,,,,,,,,,,,,,,,,,,,,,,,,,,,,,271.5382573000097,271.5539066000201,272.0803741000127,272.0378524000116,272.0776688000187,272.0803741000127,272.0803741000127,272.0803741000127,273.5214024000161,Scenes\163b.jpg,pre,o,1.436753599991789,None,,,,,,,,00032,001,2026-01-21_17h53.13.920,MST_test,2024.2.0,60.01532791268924,2026-01-21 17h53.22.115163 +0530,
38,0,39,s,1.233647999993991,None,39,0,38,273.53725080000004,,,,,,,,,,,,,,,,,,,,,,,,,,,,,,,,,,,,,,,,,,,,,,,,,,273.52176000000327,273.53725080000004,274.04312519999803,274.0211242000223,274.0405919000041,274.04312519999803,274.04312519999803,274.04312519999803,275.2888509000186,Scenes\155a.jpg,pre,s,1.233647999993991,None,,,,,,,,00032,001,2026-01-21_17h53.13.920,MST_test,2024.2.0,60.01532791268924,2026-01-21 17h53.22.115163 +0530,
39,0,40,o,1.128239100013161,None,40,0,39,275.3039134000137,,,,,,,,,,,,,,,,,,,,,,,,,,,,,,,,,,,,,,,,,,,,,,,,,,275.2892087000073,275.3039134000137,275.8048604000069,275.7878573000198,275.7970181000128,275.8048604000069,275.8048604000069,275.8048604000069,276.93787370002246,Scenes\139a.jpg,mid,o,1.128239100013161,None,,,,,,,,00032,001,2026-01-21_17h53.13.920,MST_test,2024.2.0,60.01532791268924,2026-01-21 17h53.22.115163 +0530,
40,0,41,s,1.7047347000043374,None,41,0,40,276.9537629999977,,,,,,,,,,,,,,,,,,,,,,,,,,,,,,,,,,,,,,,,,,,,,,,,,,276.9382239000115,276.9537629999977,277.5240870999987,277.43786110001383,277.52009590002126,277.5240870999987,277.5240870999987,277.5240870999987,279.2381827000063,Foils\scenes15.jpg,none,s,1.7047347000043374,None,,,,,,,,00032,001,2026-01-21_17h53.13.920,MST_test,2024.2.0,60.01532791268924,2026-01-21 17h53.22.115163 +0530,
41,0,42,n,2.0169653999910224,None,42,0,41,279.2540982000064,,,,,,,,,,,,,,,,,,,,,,,,,,,,,,,,,,,,,,,,,,,,,,,,,,279.23853680002503,279.2540982000064,279.7801574000041,279.737818900001,279.77560940000694,279.7801574000041,279.7801574000041,279.7801574000041,281.80451919999905,Objects\184b.jpg,post,n,2.0169653999910224,None,,,,,,,,00032,001,2026-01-21_17h53.13.920,MST_test,2024.2.0,60.01532791268924,2026-01-21 17h53.22.115163 +0530,
42,0,43,n,5.441503399983048,None,43,0,42,281.82141010000487,,,,,,,,,,,,,,,,,,,,,,,,,,,,,,,,,,,,,,,,,,,,,,,,,,281.80490129999816,281.82141010000487,282.3309738000098,282.30428609999944,282.32883640000364,282.3309738000098,282.3309738000098,282.3309738000098,287.7880949000246,Foils\002a.jpg,none,n,5.441503399983048,None,,,,,,,,00032,001,2026-01-21_17h53.13.920,MST_test,2024.2.0,60.01532791268924,2026-01-21 17h53.22.115163 +0530,
43,0,44,n,2.693575800018152,None,44,0,43,287.804106399999,,,,,,,,,,,,,,,,,,,,,,,,,,,,,,,,,,,,,,,,,,,,,,,,,,287.78845100000035,287.804106399999,288.32698720000917,288.2877329000039,288.3246192000224,288.32698720000917,288.32698720000917,288.32698720000917,291.0211602000054,Foils\073a.jpg,none,n,2.693575800018152,None,,,,,,,,00032,001,2026-01-21_17h53.13.920,MST_test,2024.2.0,60.01532791268924,2026-01-21 17h53.22.115163 +0530,
44,0,45,s,22.697170400002506,None,45,0,44,291.0372654000239,,,,,,,,,,,,,,,,,,,,,,,,,,,,,,,,,,,,,,,,,,,,,,,,,,291.0215464000066,291.0372654000239,291.55544130000635,291.5205294000043,291.5532968000043,291.55544130000635,291.55544130000635,291.55544130000635,314.2544586000149,Objects\124b.jpg,mid,s,22.697170400002506,None,,,,,,,,00032,001,2026-01-21_17h53.13.920,MST_test,2024.2.0,60.01532791268924,2026-01-21 17h53.22.115163 +0530,
45,0,46,s,3.5141581000061706,None,46,0,45,314.2706758000131,,,,,,,,,,,,,,,,,,,,,,,,,,,,,,,,,,,,,,,,,,,,,,,,,,314.254868500022,314.2706758000131,314.8029527000035,314.75435270002345,314.800170100003,314.8029527000035,314.8029527000035,314.8029527000035,318.3219485000009,Scenes\078b.jpg,mid,s,3.5141581000061706,None,,,,,,,,00032,001,2026-01-21_17h53.13.920,MST_test,2024.2.0,60.01532791268924,2026-01-21 17h53.22.115163 +0530,
46,0,47,s,3.315403599990532,None,47,0,46,318.33697800000664,,,,,,,,,,,,,,,,,,,,,,,,,,,,,,,,,,,,,,,,,,,,,,,,,,318.32234179999796,318.33697800000664,318.8411860000051,318.82078460001503,318.83866150001995,318.8411860000051,318.8411860000051,318.8411860000051,322.1714686000196,Scenes\030a.jpg,post,s,3.315403599990532,None,,,,,,,,00032,001,2026-01-21_17h53.13.920,MST_test,2024.2.0,60.01532791268924,2026-01-21 17h53.22.115163 +0530,
47,0,48,o,4.743172099988442,None,48,0,47,322.18739770000684,,,,,,,,,,,,,,,,,,,,,,,,,,,,,,,,,,,,,,,,,,,,,,,,,,322.17189350002445,322.18739770000684,322.717916900001,322.671290600003,322.7154618000204,322.717916900001,322.717916900001,322.717916900001,327.4711862000113,Objects\004b.jpg,pre,o,4.743172099988442,None,,,,,,,,00032,001,2026-01-21_17h53.13.920,MST_test,2024.2.0,60.01532791268924,2026-01-21 17h53.22.115163 +0530,
48,0,49,n,1.0776488999836147,None,49,0,48,327.4873768000107,,,,,,,,,,,,,,,,,,,,,,,,,,,,,,,,,,,,,,,,,,,,,,,,,,327.4715634000022,327.4873768000107,328.0070132999972,327.9712540000037,328.00480310001876,328.0070132999972,328.0070132999972,328.0070132999972,329.0876575000002,Objects\164b.jpg,post,n,1.0776488999836147,None,,,,,,,,00032,001,2026-01-21_17h53.13.920,MST_test,2024.2.0,60.01532791268924,2026-01-21 17h53.22.115163 +0530,
49,0,50,s,1.642276500002481,None,50,0,49,329.10389840000425,,,,,,,,,,,,,,,,,,,,,,,,,,,,,,,,,,,,,,,,,,,,,,,,,,329.08801289999974,329.10389840000425,329.6108384000254,329.5879429000197,329.6088496000157,329.6108384000254,329.6108384000254,329.6108384000254,331.25453770000604,Objects\150b.jpg,post,s,1.642276500002481,None,,,,,,,,00032,001,2026-01-21_17h53.13.920,MST_test,2024.2.0,60.01532791268924,2026-01-21 17h53.22.115163 +0530,
50,0,51,n,4.928807299991604,None,51,0,50,331.2707682000182,,,,,,,,,,,,,,,,,,,,,,,,,,,,,,,,,,,,,,,,,,,,,,,,,,331.2549186999968,331.2707682000182,331.7963371000078,331.75428570000804,331.79387240001233,331.7963371000078,331.7963371000078,331.7963371000078,336.73805680000805,Scenes\187b.jpg,mid,n,4.928807299991604,None,,,,,,,,00032,001,2026-01-21_17h53.13.920,MST_test,2024.2.0,60.01532791268924,2026-01-21 17h53.22.115163 +0530,
51,0,52,s,11.833933599991724,None,52,0,51,336.7538289000222,,,,,,,,,,,,,,,,,,,,,,,,,,,,,,,,,,,,,,,,,,,,,,,,,,336.738419900008,336.7538289000222,337.2747260000033,337.23779060001834,337.2714288000134,337.2747260000033,337.2747260000033,337.2747260000033,349.1213463000022,Foils\scenes12.jpg,none,s,11.833933599991724,None,,,,,,,,00032,001,2026-01-21_17h53.13.920,MST_test,2024.2.0,60.01532791268924,2026-01-21 17h53.22.115163 +0530,
52,0,53,s,3.0601263999997173,None,53,0,52,349.13721590000205,,,,,,,,,,,,,,,,,,,,,,,,,,,,,,,,,,,,,,,,,,,,,,,,,,349.12172780002584,349.13721590000205,349.664334400004,349.6211473000003,349.66204590001144,349.664334400004,349.664334400004,349.664334400004,352.7380799000093,Scenes\117b.jpg,mid,s,3.0601263999997173,None,,,,,,,,00032,001,2026-01-21_17h53.13.920,MST_test,2024.2.0,60.01532791268924,2026-01-21 17h53.22.115163 +0530,
53,0,54,s,1.596199899999192,None,54,0,53,352.7541354999994,,,,,,,,,,,,,,,,,,,,,,,,,,,,,,,,,,,,,,,,,,,,,,,,,,352.7384377999988,352.7541354999994,353.33685250001145,353.2378452999983,353.3330896999978,353.33685250001145,353.33685250001145,353.33685250001145,354.9388220999972,Scenes\087b.jpg,mid,s,1.596199899999192,None,,,,,,,,00032,001,2026-01-21_17h53.13.920,MST_test,2024.2.0,60.01532791268924,2026-01-21 17h53.22.115163 +0530,
54,0,55,s,6.1586586000048555,None,55,0,54,354.95409720001044,,,,,,,,,,,,,,,,,,,,,,,,,,,,,,,,,,,,,,,,,,,,,,,,,,354.93918420001864,354.95409720001044,355.4543746999989,355.43787240001257,355.44723990000784,355.4543746999989,355.4543746999989,355.4543746999989,361.6214774000109,Objects\126a.jpg,pre,s,6.1586586000048555,None,,,,,,,,00032,001,2026-01-21_17h53.13.920,MST_test,2024.2.0,60.01532791268924,2026-01-21 17h53.22.115163 +0530,
55,0,56,o,2.198917400004575,None,56,0,55,361.6371309000242,,,,,,,,,,,,,,,,,,,,,,,,,,,,,,,,,,,,,,,,,,,,,,,,,,361.62192050000886,361.6371309000242,362.1735097000201,362.12107760002255,362.1715508000052,362.1735097000201,362.1735097000201,362.1735097000201,364.3881035000086,Foils\066a.jpg,none,o,2.198917400004575,None,,,,,,,,00032,001,2026-01-21_17h53.13.920,MST_test,2024.2.0,60.01532791268924,2026-01-21 17h53.22.115163 +0530,
56,0,57,o,1.1008243999967817,None,57,0,56,364.4041165000235,,,,,,,,,,,,,,,,,,,,,,,,,,,,,,,,,,,,,,,,,,,,,,,,,,364.3884610000241,364.4041165000235,364.92857930000173,364.8876285000006,364.9255567000073,364.92857930000173,364.92857930000173,364.92857930000173,366.0381094000186,Objects\147b.jpg,mid,o,1.1008243999967817,None,,,,,,,,00032,001,2026-01-21_17h53.13.920,MST_test,2024.2.0,60.01532791268924,2026-01-21 17h53.22.115163 +0530,
57,0,58,o,6.754158399999142,None,58,0,57,366.05455749999965,,,,,,,,,,,,,,,,,,,,,,,,,,,,,,,,,,,,,,,,,,,,,,,,,,366.03846370000974,366.05455749999965,366.5704636000155,366.5376318000199,366.56807520001894,366.5704636000155,366.5704636000155,366.5704636000155,373.3379770000174,Foils\scenes27.jpg,none,o,6.754158399999142,None,,,,,,,,00032,001,2026-01-21_17h53.13.920,MST_test,2024.2.0,60.01532791268924,2026-01-21 17h53.22.115163 +0530,
58,0,59,n,3.417828900011955,None,59,0,58,373.3539580000215,,,,,,,,,,,,,,,,,,,,,,,,,,,,,,,,,,,,,,,,,,,,,,,,,,373.33833340002457,373.3539580000215,373.8747997000173,373.83769750001375,373.87209180000355,373.8747997000173,373.8747997000173,373.8747997000173,377.305128100008,Foils\scenes17.jpg,none,n,3.417828900011955,None,,,,,,,,00032,001,2026-01-21_17h53.13.920,MST_test,2024.2.0,60.01532791268924,2026-01-21 17h53.22.115163 +0530,
59,0,60,o,2.448147399991285,None,60,0,59,377.32072410002,,,,,,,,,,,,,,,,,,,,,,,,,,,,,,,,,,,,,,,,,,,,,,,,,,377.30549410000094,377.32072410002,377.82081170001766,377.8042332000041,377.8113288000168,377.82081170001766,377.82081170001766,377.82081170001766,380.27098590001697,Objects\023a.jpg,post,o,2.448147399991285,None,,,,,,,,00032,001,2026-01-21_17h53.13.920,MST_test,2024.2.0,60.01532791268924,2026-01-21 17h53.22.115163 +0530,
60,0,61,s,1.8158956000115722,None,61,0,60,380.2872969000018,,,,,,,,,,,,,,,,,,,,,,,,,,,,,,,,,,,,,,,,,,,,,,,,,,380.27129050000804,380.2872969000018,380.81318600001396,380.770817600016,380.8106426000013,380.81318600001396,380.81318600001396,380.81318600001396,382.6387295000022,Scenes\130b.jpg,post,s,1.8158956000115722,None,,,,,,,,00032,001,2026-01-21_17h53.13.920,MST_test,2024.2.0,60.01532791268924,2026-01-21 17h53.22.115163 +0530,
61,0,62,s,1.4755951999977697,None,62,0,61,382.6539750000229,,,,,,,,,,,,,,,,,,,,,,,,,,,,,,,,,,,,,,,,,,,,,,,,,,382.63908850000007,382.6539750000229,383.1698194000055,383.13787590002175,383.1672691999993,383.1698194000055,383.1698194000055,383.1698194000055,384.6544586000091,Scenes\044b.jpg,mid,s,1.4755951999977697,None,,,,,,,,00032,001,2026-01-21_17h53.13.920,MST_test,2024.2.0,60.01532791268924,2026-01-21 17h53.22.115163 +0530,
62,0,63,s,2.953214500012109,None,63,0,62,384.671087900002,,,,,,,,,,,,,,,,,,,,,,,,,,,,,,,,,,,,,,,,,,,,,,,,,,384.65481700000237,384.671087900002,385.19583270000294,385.15453120000893,385.1933738000225,385.19583270000294,385.19583270000294,385.19583270000294,388.1550739000086,Scenes\177b.jpg,pre,s,2.953214500012109,None,,,,,,,,00032,001,2026-01-21_17h53.13.920,MST_test,2024.2.0,60.01532791268924,2026-01-21 17h53.22.115163 +0530,
63,0,64,n,6.6089110999892,None,64,0,63,388.17072510000435,,,,,,,,,,,,,,,,,,,,,,,,,,,,,,,,,,,,,,,,,,,,,,,,,,388.1554503000225,388.17072510000435,388.6921146000095,388.6544985000219,388.6896795000066,388.6921146000095,388.6921146000095,388.6921146000095,395.3045258000202,Objects\092b.jpg,mid,n,6.6089110999892,None,,,,,,,,00032,001,2026-01-21_17h53.13.920,MST_test,2024.2.0,60.01532791268924,2026-01-21 17h53.22.115163 +0530,
64,0,65,n,2.597102699975949,None,65,0,64,395.32063910001307,,,,,,,,,,,,,,,,,,,,,,,,,,,,,,,,,,,,,,,,,,,,,,,,,,395.30493710000883,395.32063910001307,395.84727220001514,395.8042267000128,395.84475840002415,395.84727220001514,395.84727220001514,395.84727220001514,398.45478540001204,Scenes\118b.jpg,mid,n,2.597102699975949,None,,,,,,,,00032,001,2026-01-21_17h53.13.920,MST_test,2024.2.0,60.01532791268924,2026-01-21 17h53.22.115163 +0530,
65,0,66,o,6.270224699983373,None,66,0,65,398.4707324000192,,,,,,,,,,,,,,,,,,,,,,,,,,,,,,,,,,,,,,,,,,,,,,,,,,398.4551646000182,398.4707324000192,398.9983446999977,398.95472229999723,398.995095100021,398.9983446999977,398.9983446999977,398.9983446999977,405.2712019000028,Scenes\052b.jpg,pre,o,6.270224699983373,None,,,,,,,,00032,001,2026-01-21_17h53.13.920,MST_test,2024.2.0,60.01532791268924,2026-01-21 17h53.22.115163 +0530,
66,0,67,o,1.3533941999776289,None,67,0,66,405.2873032000207,,,,,,,,,,,,,,,,,,,,,,,,,,,,,,,,,,,,,,,,,,,,,,,,,,405.2715631000174,405.2873032000207,405.8109849000175,405.7709679999971,405.80833280002116,405.8109849000175,405.8109849000175,405.8109849000175,407.1711687000061,Objects\133b.jpg,pre,o,1.3533941999776289,None,,,,,,,,00032,001,2026-01-21_17h53.13.920,MST_test,2024.2.0,60.01532791268924,2026-01-21 17h53.22.115163 +0530,
67,0,68,n,1.7150083000015002,None,68,0,67,407.1874281000055,,,,,,,,,,,,,,,,,,,,,,,,,,,,,,,,,,,,,,,,,,,,,,,,,,407.17152950001764,407.1874281000055,407.68945400000666,407.6711291000247,407.6870423000073,407.68945400000666,407.68945400000666,407.68945400000666,409.4215488000191,Scenes\121a.jpg,pre,n,1.7150083000015002,None,,,,,,,,00032,001,2026-01-21_17h53.13.920,MST_test,2024.2.0,60.01532791268924,2026-01-21 17h53.22.115163 +0530,
68,0,69,n,3.393888999999035,None,69,0,68,409.4374513000075,,,,,,,,,,,,,,,,,,,,,,,,,,,,,,,,,,,,,,,,,,,,,,,,,,409.4219037000148,409.4374513000075,409.946465200017,409.92112970000017,409.9436648999981,409.946465200017,409.946465200017,409.946465200017,413.3547805999988,Foils\105a.jpg,none,n,3.393888999999035,None,,,,,,,,00032,001,2026-01-21_17h53.13.920,MST_test,2024.2.0,60.01532791268924,2026-01-21 17h53.22.115163 +0530,
69,0,70,o,1.1654716999910306,None,70,0,69,413.37046730000293,,,,,,,,,,,,,,,,,,,,,,,,,,,,,,,,,,,,,,,,,,,,,,,,,,413.3551459000155,413.37046730000293,413.87111300000106,413.85435010000947,413.8628510000126,413.87111300000106,413.87111300000106,413.87111300000106,415.03799900002195,Objects\009a.jpg,pre,o,1.1654716999910306,None,,,,,,,,00032,001,2026-01-21_17h53.13.920,MST_test,2024.2.0,60.01532791268924,2026-01-21 17h53.22.115163 +0530,
70,0,71,o,0.8023563000024296,None,71,0,70,415.054128400021,,,,,,,,,,,,,,,,,,,,,,,,,,,,,,,,,,,,,,,,,,,,,,,,,,415.0383611000143,415.054128400021,415.5541938000242,415.5378675000102,415.54608890000964,415.5541938000242,415.5541938000242,415.5541938000242,416.37138130000676,Objects\002a.jpg,post,o,0.8023563000024296,None,,,,,,,,00032,001,2026-01-21_17h53.13.920,MST_test,2024.2.0,60.01532791268924,2026-01-21 17h53.22.115163 +0530,
71,0,72,o,0.892725400015479,None,72,0,71,416.3874716999999,,,,,,,,,,,,,,,,,,,,,,,,,,,,,,,,,,,,,,,,,,,,,,,,,,416.37174020000384,416.3874716999999,416.8877343000204,416.87064370000735,416.87659490000806,416.8877343000204,416.8877343000204,416.8877343000204,417.78887380001834,Objects\169a.jpg,pre,o,0.892725400015479,None,,,,,,,,00032,001,2026-01-21_17h53.13.920,MST_test,2024.2.0,60.01532791268924,2026-01-21 17h53.22.115163 +0530,
72,0,73,o,1.0718346000066958,None,73,0,72,417.8043683000142,,,,,,,,,,,,,,,,,,,,,,,,,,,,,,,,,,,,,,,,,,,,,,,,,,417.78924120002193,417.8043683000142,418.30917630001204,418.2883631000004,418.3059506000136,418.30917630001204,418.30917630001204,418.30917630001204,419.3880215000245,Scenes\070a.jpg,post,o,1.0718346000066958,None,,,,,,,,00032,001,2026-01-21_17h53.13.920,MST_test,2024.2.0,60.01532791268924,2026-01-21 17h53.22.115163 +0530,
73,0,74,s,5.60099760000594,None,74,0,73,419.40451120000216,,,,,,,,,,,,,,,,,,,,,,,,,,,,,,,,,,,,,,,,,,,,,,,,,,419.38838070002384,419.40451120000216,419.93204840002,419.8882652000175,419.9295080000011,419.93204840002,419.93204840002,419.93204840002,425.5381895000173,Scenes\074b.jpg,pre,s,5.60099760000594,None,,,,,,,,00032,001,2026-01-21_17h53.13.920,MST_test,2024.2.0,60.01532791268924,2026-01-21 17h53.22.115163 +0530,
74,0,75,o,0.8460540999949444,None,75,0,74,425.55384130001767,,,,,,,,,,,,,,,,,,,,,,,,,,,,,,,,,,,,,,,,,,,,,,,,,,425.5385423999978,425.55384130001767,426.0544312999991,426.03765470001963,426.04589460001444,426.0544312999991,426.0544312999991,426.0544312999991,426.90445670002373,Objects\190a.jpg,pre,o,0.8460540999949444,None,,,,,,,,00032,001,2026-01-21_17h53.13.920,MST_test,2024.2.0,60.01532791268924,2026-01-21 17h53.22.115163 +0530,
75,0,76,s,1.9196141999855172,None,76,0,75,426.9206002000137,,,,,,,,,,,,,,,,,,,,,,,,,,,,,,,,,,,,,,,,,,,,,,,,,,426.90481450001244,426.9206002000137,427.444796900003,427.40452110001934,427.4418908000225,427.444796900003,427.444796900003,427.444796900003,429.3714169000159,Scenes\014b.jpg,post,s,1.9196141999855172,None,,,,,,,,00032,001,2026-01-21_17h53.13.920,MST_test,2024.2.0,60.01532791268924,2026-01-21 17h53.22.115163 +0530,
76,0,77,o,0.8773372999858111,None,77,0,76,429.38729120002245,,,,,,,,,,,,,,,,,,,,,,,,,,,,,,,,,,,,,,,,,,,,,,,,,,429.3717706000025,429.38729120002245,429.88772720002453,429.8707078000007,429.884019500023,429.88772720002453,429.88772720002453,429.88772720002453,430.77149250000366,Scenes\140a.jpg,post,o,0.8773372999858111,None,,,,,,,,00032,001,2026-01-21_17h53.13.920,MST_test,2024.2.0,60.01532791268924,2026-01-21 17h53.22.115163 +0530,
77,0,78,o,5.124571299995296,None,78,0,77,430.7876493000076,,,,,,,,,,,,,,,,,,,,,,,,,,,,,,,,,,,,,,,,,,,,,,,,,,430.771873700025,430.7876493000076,431.28806110000005,431.27116340000066,431.28235100000165,431.28806110000005,431.28806110000005,431.28806110000005,436.42185650000465,Scenes\096a.jpg,post,o,5.124571299995296,None,,,,,,,,00032,001,2026-01-21_17h53.13.920,MST_test,2024.2.0,60.01532791268924,2026-01-21 17h53.22.115163 +0530,
78,0,79,n,6.251284800004214,None,79,0,78,436.4375024000183,,,,,,,,,,,,,,,,,,,,,,,,,,,,,,,,,,,,,,,,,,,,,,,,,,436.4222393000091,436.4375024000183,436.9457289999991,436.9208922999969,436.9427596000023,436.9457289999991,436.9457289999991,436.9457289999991,443.20446590002393,Scenes\002a.jpg,pre,n,6.251284800004214,None,,,,,,,,00032,001,2026-01-21_17h53.13.920,MST_test,2024.2.0,60.01532791268924,2026-01-21 17h53.22.115163 +0530,
79,0,80,n,1.4039956000051461,None,80,0,79,443.2207410999981,,,,,,,,,,,,,,,,,,,,,,,,,,,,,,,,,,,,,,,,,,,,,,,,,,443.20484390002093,443.2207410999981,443.73634689999744,443.7046931000077,443.7335607999994,443.73634689999744,443.73634689999744,443.73634689999744,445.15443780002533,Scenes\037b.jpg,pre,n,1.4039956000051461,None,,,,,,,,00032,001,2026-01-21_17h53.13.920,MST_test,2024.2.0,60.01532791268924,2026-01-21 17h53.22.115163 +0530,
80,0,81,o,1.1093590999953449,None,81,0,80,445.1706579000165,,,,,,,,,,,,,,,,,,,,,,,,,,,,,,,,,,,,,,,,,,,,,,,,,,445.1547877000121,445.1706579000165,445.67135950000375,445.6545065000246,445.6635427000001,445.67135950000375,445.67135950000375,445.67135950000375,446.78887330001453,Objects\014a.jpg,mid,o,1.1093590999953449,None,,,,,,,,00032,001,2026-01-21_17h53.13.920,MST_test,2024.2.0,60.01532791268924,2026-01-21 17h53.22.115163 +0530,
81,0,82,s,5.168121199996676,None,82,0,81,446.804125100025,,,,,,,,,,,,,,,,,,,,,,,,,,,,,,,,,,,,,,,,,,,,,,,,,,446.78922150001745,446.804125100025,447.3242120000068,447.28788129999884,447.32188520001364,447.3242120000068,447.3242120000068,447.3242120000068,452.5046159000194,Scenes\061b.jpg,post,s,5.168121199996676,None,,,,,,,,00032,001,2026-01-21_17h53.13.920,MST_test,2024.2.0,60.01532791268924,2026-01-21 17h53.22.115163 +0530,
82,0,83,o,1.367465399991488,None,83,0,82,452.5205354000209,,,,,,,,,,,,,,,,,,,,,,,,,,,,,,,,,,,,,,,,,,,,,,,,,,452.50498940001125,452.5205354000209,453.0211501000158,453.0048097000108,453.01437320001423,453.0211501000158,453.0211501000158,453.0211501000158,454.40448460000334,Objects\134a.jpg,mid,o,1.367465399991488,None,,,,,,,,00032,001,2026-01-21_17h53.13.920,MST_test,2024.2.0,60.01532791268924,2026-01-21 17h53.22.115163 +0530,
83,0,84,n,6.325166299997363,None,84,0,83,454.4205881000089,,,,,,,,,,,,,,,,,,,,,,,,,,,,,,,,,,,,,,,,,,,,,,,,,,454.4048614000203,454.4205881000089,454.92780900001526,454.90421580002294,454.92545570002403,454.92780900001526,454.92780900001526,454.92780900001526,461.2544796000002,Objects\192b.jpg,mid,n,6.325166299997363,None,,,,,,,,00032,001,2026-01-21_17h53.13.920,MST_test,2024.2.0,60.01532791268924,2026-01-21 17h53.22.115163 +0530,
84,0,85,s,5.1493297000124585,None,85,0,84,461.2704373000015,,,,,,,,,,,,,,,,,,,,,,,,,,,,,,,,,,,,,,,,,,,,,,,,,,461.2548441000108,461.2704373000015,461.78292230001534,461.75466910001705,461.78088710000156,461.78292230001534,461.78292230001534,461.78292230001534,466.937832399999,Foils\033a.jpg,none,s,5.1493297000124585,None,,,,,,,,00032,001,2026-01-21_17h53.13.920,MST_test,2024.2.0,60.01532791268924,2026-01-21 17h53.22.115163 +0530,
85,0,86,o,1.1896372999763116,None,86,0,85,466.9537589000247,,,,,,,,,,,,,,,,,,,,,,,,,,,,,,,,,,,,,,,,,,,,,,,,,,466.93820540001616,466.9537589000247,467.45473290001974,467.43799920001766,467.45239240000956,467.45473290001974,467.45473290001974,467.45473290001974,468.6555230000231,Scenes\098a.jpg,pre,o,1.1896372999763116,None,,,,,,,,00032,001,2026-01-21_17h53.13.920,MST_test,2024.2.0,60.01532791268924,2026-01-21 17h53.22.115163 +0530,
86,0,87,n,1.2648910999996588,None,87,0,86,468.6710623000108,,,,,,,,,,,,,,,,,,,,,,,,,,,,,,,,,,,,,,,,,,,,,,,,,,468.65587700001197,468.6710623000108,469.18004000000656,469.1543610000226,469.1764954000246,469.18004000000656,469.18004000000656,469.18004000000656,470.45456780001405,Foils\scenes13.jpg,none,n,1.2648910999996588,None,,,,,,,,00032,001,2026-01-21_17h53.13.920,MST_test,2024.2.0,60.01532791268924,2026-01-21 17h53.22.115163 +0530,
87,0,88,n,1.6151234999997541,None,88,0,87,470.47081450000405,,,,,,,,,,,,,,,,,,,,,,,,,,,,,,,,,,,,,,,,,,,,,,,,,,470.4549436000234,470.47081450000405,470.98920350000844,470.95420760000707,470.98659400001634,470.98920350000844,470.98920350000844,470.98920350000844,472.6214001000044,Foils\026a.jpg,none,n,1.6151234999997541,None,,,,,,,,00032,001,2026-01-21_17h53.13.920,MST_test,2024.2.0,60.01532791268924,2026-01-21 17h53.22.115163 +0530,
88,0,89,s,2.632411200000206,None,89,0,88,472.63724490001914,,,,,,,,,,,,,,,,,,,,,,,,,,,,,,,,,,,,,,,,,,,,,,,,,,472.62175780002144,472.63724490001914,473.1402023000119,473.12058600000455,473.1375190000108,473.1402023000119,473.1402023000119,473.1402023000119,475.78825380001217,Scenes\077a.jpg,pre,s,2.632411200000206,None,,,,,,,,00032,001,2026-01-21_17h53.13.920,MST_test,2024.2.0,60.01532791268924,2026-01-21 17h53.22.115163 +0530,
89,0,90,n,7.298446299973875,None,90,0,89,475.8041222000029,,,,,,,,,,,,,,,,,,,,,,,,,,,,,,,,,,,,,,,,,,,,,,,,,,475.7886234000034,475.8041222000029,476.32199409999885,476.2877102000057,476.319510900008,476.32199409999885,476.32199409999885,476.32199409999885,483.62131660000887,Foils\scenes5.jpg,none,n,7.298446299973875,None,,,,,,,,00032,001,2026-01-21_17h53.13.920,MST_test,2024.2.0,60.01532791268924,2026-01-21 17h53.22.115163 +0530,
90,0,91,o,1.1940058000036515,None,91,0,90,483.6381852000195,,,,,,,,,,,,,,,,,,,,,,,,,,,,,,,,,,,,,,,,,,,,,,,,,,483.6217098000052,483.6381852000195,,484.1377363000065,484.1516930000216,484.1549491000187,484.1549491000187,484.1549491000187,485.3548049000092,Scenes\141a.jpg,post,o,1.1940058000036515,None,,,,,,,,00032,001,2026-01-21_17h53.13.920,MST_test,2024.2.0,60.01532791268924,2026-01-21 17h53.22.115163 +0530,
91,0,92,s,2.5257689999998547,None,92,0,91,485.37074050001684,,,,,,,,,,,,,,,,,,,,,,,,,,,,,,,,,,,,,,,,,,,,,,,,,,485.35517780002556,485.37074050001684,485.8711266000173,485.8545860000013,485.86780649999855,485.8711266000173,485.8711266000173,485.8711266000173,488.40483130002394,Scenes\095a.jpg,mid,s,2.5257689999998547,None,,,,,,,,00032,001,2026-01-21_17h53.13.920,MST_test,2024.2.0,60.01532791268924,2026-01-21 17h53.22.115163 +0530,
92,0,93,s,2.5261042000201996,None,93,0,92,488.42074610001873,,,,,,,,,,,,,,,,,,,,,,,,,,,,,,,,,,,,,,,,,,,,,,,,,,488.4052073000057,488.42074610001873,488.94280020002043,488.9045374999987,488.93965460002073,488.94280020002043,488.94280020002043,488.94280020002043,491.4710829000105,Objects\111b.jpg,post,s,2.5261042000201996,None,,,,,,,,00032,001,2026-01-21_17h53.13.920,MST_test,2024.2.0,60.01532791268924,2026-01-21 17h53.22.115163 +0530,
93,0,94,s,2.0216101999976672,None,94,0,93,491.48720020000474,,,,,,,,,,,,,,,,,,,,,,,,,,,,,,,,,,,,,,,,,,,,,,,,,,491.47145670000464,491.48720020000474,492.0069979999971,491.97119510002085,492.0043379999988,492.0069979999971,492.0069979999971,492.0069979999971,494.0379652999982,Objects\138b.jpg,post,s,2.0216101999976672,None,,,,,,,,00032,001,2026-01-21_17h53.13.920,MST_test,2024.2.0,60.01532791268924,2026-01-21 17h53.22.115163 +0530,
94,0,95,o,0.8987357000005431,None,95,0,94,494.05385090000345,,,,,,,,,,,,,,,,,,,,,,,,,,,,,,,,,,,,,,,,,,,,,,,,,,494.03842950001126,494.05385090000345,494.5541832000017,494.5377284999995,494.54629640001804,494.5541832000017,494.5541832000017,494.5541832000017,495.45447180001065,Objects\145a.jpg,pre,o,0.8987357000005431,None,,,,,,,,00032,001,2026-01-21_17h53.13.920,MST_test,2024.2.0,60.01532791268924,2026-01-21 17h53.22.115163 +0530,
95,0,96,s,5.016397600003984,None,96,0,95,495.4707430000126,,,,,,,,,,,,,,,,,,,,,,,,,,,,,,,,,,,,,,,,,,,,,,,,,,495.4548446999979,495.4707430000126,495.9721130000253,495.9542451000016,495.97004630000447,495.9721130000253,495.9721130000253,495.9721130000253,501.004620599997,Objects\165b.jpg,post,s,5.016397600003984,None,,,,,,,,00032,001,2026-01-21_17h53.13.920,MST_test,2024.2.0,60.01532791268924,2026-01-21 17h53.22.115163 +0530,
96,0,97,s,1.2915205000026617,None,97,0,96,501.02075200001127,,,,,,,,,,,,,,,,,,,,,,,,,,,,,,,,,,,,,,,,,,,,,,,,,,501.00497930002166,501.02075200001127,501.5447922000021,501.50453770000604,501.54201160001685,501.5447922000021,501.5447922000021,501.5447922000021,502.83815049999976,Objects\080b.jpg,post,s,1.2915205000026617,None,,,,,,,,00032,001,2026-01-21_17h53.13.920,MST_test,2024.2.0,60.01532791268924,2026-01-21 17h53.22.115163 +0530,
97,0,98,n,1.2379006000119261,None,98,0,97,502.85413260001224,,,,,,,,,,,,,,,,,,,,,,,,,,,,,,,,,,,,,,,,,,,,,,,,,,502.83851970001706,502.85413260001224,503.35844760001055,503.33787060002214,503.35586730000796,503.35844760001055,503.35844760001055,503.35844760001055,504.604582800006,Scenes\025a.jpg,mid,n,1.2379006000119261,None,,,,,,,,00032,001,2026-01-21_17h53.13.920,MST_test,2024.2.0,60.01532791268924,2026-01-21 17h53.22.115163 +0530,
98,0,99,o,3.267257100000279,None,99,0,98,504.62061569999787,,,,,,,,,,,,,,,,,,,,,,,,,,,,,,,,,,,,,,,,,,,,,,,,,,504.60493380000116,504.62061569999787,505.12108150002314,505.10452580000856,505.1129664000182,505.12108150002314,505.12108150002314,505.12108150002314,508.3889415000158,Objects\041a.jpg,mid,o,3.267257100000279,None,,,,,,,,00032,001,2026-01-21_17h53.13.920,MST_test,2024.2.0,60.01532791268924,2026-01-21 17h53.22.115163 +0530,
99,0,100,n,1.16427229999681,None,100,0,99,508.4041310000175,,,,,,,,,,,,,,,,,,,,,,,,,,,,,,,,,,,,,,,,,,,,,,,,,,508.38928699999815,508.4041310000175,508.9124687000003,508.8879324000154,508.90974420000566,508.9124687000003,508.9124687000003,508.9124687000003,510.08812540001236,Foils\058a.jpg,none,n,1.16427229999681,None,,,,,,,,00032,001,2026-01-21_17h53.13.920,MST_test,2024.2.0,60.01532791268924,2026-01-21 17h53.22.115163 +0530,
100,0,101,n,1.0963045999815222,None,101,0,100,510.1041190000251,,,,,,,,,,,,,,,,,,,,,,,,,,,,,,,,,,,,,,,,,,,,,,,,,,510.0885460000136,510.1041190000251,,510.5884929000167,510.610276100022,510.6125912000134,510.6125912000134,510.6125912000134,511.7213122000103,Foils\009a.jpg,none,n,1.0963045999815222,None,,,,,,,,00032,001,2026-01-21_17h53.13.920,MST_test,2024.2.0,60.01532791268924,2026-01-21 17h53.22.115163 +0530,
101,0,102,o,6.282342199992854,None,102,0,101,511.7375270000193,,,,,,,,,,,,,,,,,,,,,,,,,,,,,,,,,,,,,,,,,,,,,,,,,,511.72169620002387,511.7375270000193,512.2579819000093,512.2215056999994,512.2549304999993,512.2579819000093,512.2579819000093,512.2579819000093,518.5545904000173,Objects\172b.jpg,mid,o,6.282342199992854,None,,,,,,,,00032,001,2026-01-21_17h53.13.920,MST_test,2024.2.0,60.01532791268924,2026-01-21 17h53.22.115163 +0530,
102,0,103,s,6.416179399995599,None,103,0,102,518.5705834999972,,,,,,,,,,,,,,,,,,,,,,,,,,,,,,,,,,,,,,,,,,,,,,,,,,518.5548928000208,518.5705834999972,519.0763752000057,519.0545331000176,519.0738838000107,519.0763752000057,519.0763752000057,519.0763752000057,525.5052973999991,Scenes\032a.jpg,post,s,6.416179399995599,None,,,,,,,,00032,001,2026-01-21_17h53.13.920,MST_test,2024.2.0,60.01532791268924,2026-01-21 17h53.22.115163 +0530,
103,0,104,n,2.9742824000131804,None,104,0,103,525.5207917000225,,,,,,,,,,,,,,,,,,,,,,,,,,,,,,,,,,,,,,,,,,,,,,,,,,525.5057948000031,525.5207917000225,526.0221061000193,526.0045435000211,526.019480100018,526.0221061000193,526.0221061000193,526.0221061000193,529.0046788000036,Scenes\154a.jpg,mid,n,2.9742824000131804,None,,,,,,,,00032,001,2026-01-21_17h53.13.920,MST_test,2024.2.0,60.01532791268924,2026-01-21 17h53.22.115163 +0530,
104,0,105,n,2.828667299996596,None,105,0,104,529.0205373000063,,,,,,,,,,,,,,,,,,,,,,,,,,,,,,,,,,,,,,,,,,,,,,,,,,529.0050466000102,529.0205373000063,529.5438813000219,529.5045500000124,529.5407838000101,529.5438813000219,529.5438813000219,529.5438813000219,532.3881305000104,Foils\scenes28.jpg,none,n,2.828667299996596,None,,,,,,,,00032,001,2026-01-21_17h53.13.920,MST_test,2024.2.0,60.01532791268924,2026-01-21 17h53.22.115163 +0530,
105,0,106,n,7.994761400012067,None,106,0,105,532.4039545000123,,,,,,,,,,,,,,,,,,,,,,,,,,,,,,,,,,,,,,,,,,,,,,,,,,532.3884985000186,532.4039545000123,532.9142060000158,532.8878843999992,532.911371299997,532.9142060000158,532.9142060000158,532.9142060000158,540.9214313999983,Foils\081a.jpg,none,n,7.994761400012067,None,,,,,,,,00032,001,2026-01-21_17h53.13.920,MST_test,2024.2.0,60.01532791268924,2026-01-21 17h53.22.115163 +0530,
106,0,107,n,8.058342200005427,None,107,0,106,540.9374882999982,,,,,,,,,,,,,,,,,,,,,,,,,,,,,,,,,,,,,,,,,,,,,,,,,,540.9218215000001,540.9374882999982,541.4578707000182,541.4211485999986,541.4553967000102,541.4578707000182,541.4578707000182,541.4578707000182,549.521112300019,Objects\189b.jpg,pre,n,8.058342200005427,None,,,,,,,,00032,001,2026-01-21_17h53.13.920,MST_test,2024.2.0,60.01532791268924,2026-01-21 17h53.22.115163 +0530,
107,0,108,n,4.885356799990404,None,108,0,107,549.537614300003,,,,,,,,,,,,,,,,,,,,,,,,,,,,,,,,,,,,,,,,,,,,,,,,,,549.5214697000047,549.537614300003,550.0475878000143,550.021049300005,550.045256500016,550.0475878000143,550.0475878000143,550.0475878000143,554.938270100014,Foils\090a.jpg,none,n,4.885356799990404,None,,,,,,,,00032,001,2026-01-21_17h53.13.920,MST_test,2024.2.0,60.01532791268924,2026-01-21 17h53.22.115163 +0530,
108,0,109,o,1.2571608000143897,None,109,0,108,554.9542859000212,,,,,,,,,,,,,,,,,,,,,,,,,,,,,,,,,,,,,,,,,,,,,,,,,,554.938627000025,554.9542859000212,555.4671082000132,555.4378824000014,555.4647478999977,555.4671082000132,555.4671082000132,555.4671082000132,556.7381175000046,Scenes\153b.jpg,post,o,1.2571608000143897,None,,,,,,,,00032,001,2026-01-21_17h53.13.920,MST_test,2024.2.0,60.01532791268924,2026-01-21 17h53.22.115163 +0530,
109,0,110,n,1.761462600028608,None,110,0,109,556.7548876000219,,,,,,,,,,,,,,,,,,,,,,,,,,,,,,,,,,,,,,,,,,,,,,,,,,556.7385395000165,556.7548876000219,557.2747560999996,557.2380884000158,557.2721740000125,557.2747560999996,557.2747560999996,557.2747560999996,559.0378914000175,Objects\069b.jpg,pre,n,1.761462600028608,None,,,,,,,,00032,001,2026-01-21_17h53.13.920,MST_test,2024.2.0,60.01532791268924,2026-01-21 17h53.22.115163 +0530,
110,0,111,s,4.185739800013835,None,111,0,110,559.0539231000002,,,,,,,,,,,,,,,,,,,,,,,,,,,,,,,,,,,,,,,,,,,,,,,,,,559.038246000011,559.0539231000002,,559.5384945000114,559.5475617000193,559.5544456000207,559.5544456000207,559.5544456000207,563.754788100021,Objects\153a.jpg,post,s,4.185739800013835,None,,,,,,,,00032,001,2026-01-21_17h53.13.920,MST_test,2024.2.0,60.01532791268924,2026-01-21 17h53.22.115163 +0530,
111,0,112,n,3.650271499995142,None,112,0,111,563.7711590000254,,,,,,,,,,,,,,,,,,,,,,,,,,,,,,,,,,,,,,,,,,,,,,,,,,563.7551430000167,563.7711590000254,564.3140158000169,564.2545646000071,564.3113268000016,564.3140158000169,564.3140158000169,564.3140158000169,567.9714995000104,Scenes\086b.jpg,pre,n,3.650271499995142,None,,,,,,,,00032,001,2026-01-21_17h53.13.920,MST_test,2024.2.0,60.01532791268924,2026-01-21 17h53.22.115163 +0530,
112,0,113,s,3.294188200001372,None,113,0,112,567.9869545000256,,,,,,,,,,,,,,,,,,,,,,,,,,,,,,,,,,,,,,,,,,,,,,,,,,567.9718761000258,567.9869545000256,568.5100879000092,568.4712206000113,568.507580000005,568.5100879000092,568.5100879000092,568.5100879000092,571.8050046999997,Objects\146b.jpg,pre,s,3.294188200001372,None,,,,,,,,00032,001,2026-01-21_17h53.13.920,MST_test,2024.2.0,60.01532791268924,2026-01-21 17h53.22.115163 +0530,
113,0,114,o,3.230316600005608,None,114,0,113,571.8208031000104,,,,,,,,,,,,,,,,,,,,,,,,,,,,,,,,,,,,,,,,,,,,,,,,,,571.8053786000237,571.8208031000104,572.3420602999977,572.3045217000181,572.3392991000146,572.3420602999977,572.3420602999977,572.3420602999977,575.588052600011,Objects\087b.jpg,post,o,3.230316600005608,None,,,,,,,,00032,001,2026-01-21_17h53.13.920,MST_test,2024.2.0,60.01532791268924,2026-01-21 17h53.22.115163 +0530,
114,0,115,o,1.2759999000118114,None,115,0,114,575.6043436000182,,,,,,,,,,,,,,,,,,,,,,,,,,,,,,,,,,,,,,,,,,,,,,,,,,575.588408200012,575.6043436000182,576.1043931000168,576.0878190000076,576.0960181000119,576.1043931000168,576.1043931000168,576.1043931000168,577.3878593000118,Objects\109a.jpg,pre,o,1.2759999000118114,None,,,,,,,,00032,001,2026-01-21_17h53.13.920,MST_test,2024.2.0,60.01532791268924,2026-01-21 17h53.22.115163 +0530,
115,0,116,o,1.9209088000061456,None,116,0,115,577.4044024000177,,,,,,,,,,,,,,,,,,,,,,,,,,,,,,,,,,,,,,,,,,,,,,,,,,577.3882087000238,577.4044024000177,577.9079319000011,577.8878425000003,577.905313700001,577.9079319000011,577.9079319000011,577.9079319000011,579.8382321000099,Scenes\114a.jpg,post,o,1.9209088000061456,None,,,,,,,,00032,001,2026-01-21_17h53.13.920,MST_test,2024.2.0,60.01532791268924,2026-01-21 17h53.22.115163 +0530,
116,0,117,o,1.3839313999924343,None,117,0,116,579.8541014000075,,,,,,,,,,,,,,,,,,,,,,,,,,,,,,,,,,,,,,,,,,,,,,,,,,579.8385945000045,579.8541014000075,580.3882375000103,580.3374872000131,580.3854513000115,580.3882375000103,580.3882375000103,580.3882375000103,581.7881220999989,Scenes\023b.jpg,pre,o,1.3839313999924343,None,,,,,,,,00032,001,2026-01-21_17h53.13.920,MST_test,2024.2.0,60.01532791268924,2026-01-21 17h53.22.115163 +0530,
117,0,118,s,2.629885900008958,None,118,0,117,581.8038684000203,,,,,,,,,,,,,,,,,,,,,,,,,,,,,,,,,,,,,,,,,,,,,,,,,,581.7884969000006,581.8038684000203,582.3187763000024,582.287843500002,582.3162997000036,582.3187763000024,582.3187763000024,582.3187763000024,584.955002600007,Objects\108b.jpg,pre,s,2.629885900008958,None,,,,,,,,00032,001,2026-01-21_17h53.13.920,MST_test,2024.2.0,60.01532791268924,2026-01-21 17h53.22.115163 +0530,
118,0,119,n,8.19419619999826,None,119,0,118,584.9708269000112,,,,,,,,,,,,,,,,,,,,,,,,,,,,,,,,,,,,,,,,,,,,,,,,,,584.9553532999998,584.9708269000112,585.4906702000007,585.4542057000217,585.4882638000126,585.4906702000007,585.4906702000007,585.4906702000007,593.6881488000217,Objects\084b.jpg,mid,n,8.19419619999826,None,,,,,,,,00032,001,2026-01-21_17h53.13.920,MST_test,2024.2.0,60.01532791268924,2026-01-21 17h53.22.115163 +0530,
119,0,120,o,1.0325353000080213,None,120,0,119,593.7041240000108,,,,,,,,,,,,,,,,,,,,,,,,,,,,,,,,,,,,,,,,,,,,,,,,,,593.6885230000189,593.7041240000108,594.2039011000015,594.1880570000212,594.1971534000186,594.2039011000015,594.2039011000015,594.2039011000015,595.2378691000049,Objects\136a.jpg,mid,o,1.0325353000080213,None,,,,,,,,00032,001,2026-01-21_17h53.13.920,MST_test,2024.2.0,60.01532791268924,2026-01-21 17h53.22.115163 +0530,
120,0,121,o,0.8503526000131387,None,121,0,120,595.2541302000172,,,,,,,,,,,,,,,,,,,,,,,,,,,,,,,,,,,,,,,,,,,,,,,,,,595.2382361000055,595.2541302000172,,595.7384706000157,595.7470305000024,595.7541451000143,595.7541451000143,595.7541451000143,596.6214909999981,Objects\024a.jpg,pre,o,0.8503526000131387,None,,,,,,,,00032,001,2026-01-21_17h53.13.920,MST_test,2024.2.0,60.01532791268924,2026-01-21 17h53.22.115163 +0530,
121,0,122,n,2.004018800013,None,122,0,121,596.6371692000248,,,,,,,,,,,,,,,,,,,,,,,,,,,,,,,,,,,,,,,,,,,,,,,,,,596.6218487000151,596.6371692000248,597.17682350002,597.1216002000147,597.1742250000243,597.17682350002,597.17682350002,597.17682350002,599.1881591000129,Foils\020b.jpg,none,n,2.004018800013,None,,,,,,,,00032,001,2026-01-21_17h53.13.920,MST_test,2024.2.0,60.01532791268924,2026-01-21 17h53.22.115163 +0530,
122,0,123,s,1.4461249000160024,None,123,0,122,599.2041588000138,,,,,,,,,,,,,,,,,,,,,,,,,,,,,,,,,,,,,,,,,,,,,,,,,,599.188612900005,599.2041588000138,599.7100069000153,599.6877046000154,599.7072618000093,599.7100069000153,599.7100069000153,599.7100069000153,601.1712486000033,Scenes\129a.jpg,mid,s,1.4461249000160024,None,,,,,,,,00032,001,2026-01-21_17h53.13.920,MST_test,2024.2.0,60.01532791268924,2026-01-21 17h53.22.115163 +0530,
123,0,124,o,1.4287479000049643,None,124,0,123,601.1873411000124,,,,,,,,,,,,,,,,,,,,,,,,,,,,,,,,,,,,,,,,,,,,,,,,,,601.1716124000086,601.1873411000124,601.6880607000203,601.6709425000008,601.6823439,601.6880607000203,601.6880607000203,601.6880607000203,603.1215799000056,Objects\144a.jpg,post,o,1.4287479000049643,None,,,,,,,,00032,001,2026-01-21_17h53.13.920,MST_test,2024.2.0,60.01532791268924,2026-01-21 17h53.22.115163 +0530,
124,0,125,n,1.4314141000213567,None,125,0,124,603.1374972000194,,,,,,,,,,,,,,,,,,,,,,,,,,,,,,,,,,,,,,,,,,,,,,,,,,603.1219288000138,603.1374972000194,603.637417400023,603.6214940000209,603.6297401000047,603.637417400023,603.637417400023,603.637417400023,605.0710396000068,Objects\104a.jpg,pre,n,1.4314141000213567,None,,,,,,,,00032,001,2026-01-21_17h53.13.920,MST_test,2024.2.0,60.01532791268924,2026-01-21 17h53.22.115163 +0530,
125,0,126,n,7.653327099978924,None,126,0,125,605.0874907000107,,,,,,,,,,,,,,,,,,,,,,,,,,,,,,,,,,,,,,,,,,,,,,,,,,605.0713895000226,605.0874907000107,605.5911922000232,605.5711499000026,605.5886211000034,605.5911922000232,605.5911922000232,605.5911922000232,613.2554386999982,Scenes\020a.jpg,mid,n,7.653327099978924,None,,,,,,,,00032,001,2026-01-21_17h53.13.920,MST_test,2024.2.0,60.01532791268924,2026-01-21 17h53.22.115163 +0530,
126,0,127,n,7.262277300003916,None,127,0,126,613.2707601000147,,,,,,,,,,,,,,,,,,,,,,,,,,,,,,,,,,,,,,,,,,,,,,,,,,613.2557968000183,613.2707601000147,613.7900453000038,613.7545379000076,613.7871631000016,613.7900453000038,613.7900453000038,613.7900453000038,621.0544563000149,Objects\043b.jpg,pre,n,7.262277300003916,None,,,,,,,,00032,001,2026-01-21_17h53.13.920,MST_test,2024.2.0,60.01532791268924,2026-01-21 17h53.22.115163 +0530,
127,0,128,n,2.5777003999974113,None,128,0,127,621.0707578000147,,,,,,,,,,,,,,,,,,,,,,,,,,,,,,,,,,,,,,,,,,,,,,,,,,621.0547711000254,621.0707578000147,621.5947526000091,621.554541999998,621.5923351000238,621.5947526000091,621.5947526000091,621.5947526000091,624.1881426000036,Foils\113a.jpg,none,n,2.5777003999974113,None,,,,,,,,00032,001,2026-01-21_17h53.13.920,MST_test,2024.2.0,60.01532791268924,2026-01-21 17h53.22.115163 +0530,
128,0,129,o,1.0519566999864765,None,129,0,128,624.2041466000082,,,,,,,,,,,,,,,,,,,,,,,,,,,,,,,,,,,,,,,,,,,,,,,,,,624.1884930000233,624.2041466000082,624.7044018000015,624.687899600016,624.6967359000118,624.7044018000015,624.7044018000015,624.7044018000015,625.7714276000042,Objects\020a.jpg,post,o,1.0519566999864765,None,,,,,,,,00032,001,2026-01-21_17h53.13.920,MST_test,2024.2.0,60.01532791268924,2026-01-21 17h53.22.115163 +0530,
129,0,130,n,3.873654600000009,None,130,0,129,625.7878600000113,,,,,,,,,,,,,,,,,,,,,,,,,,,,,,,,,,,,,,,,,,,,,,,,,,625.7717830000038,625.7878600000113,626.3068018000049,626.2706646000152,626.3040301000001,626.3068018000049,626.3068018000049,626.3068018000049,630.1879851999984,Scenes\188b.jpg,mid,n,3.873654600000009,None,,,,,,,,00032,001,2026-01-21_17h53.13.920,MST_test,2024.2.0,60.01532791268924,2026-01-21 17h53.22.115163 +0530,
130,0,131,n,1.1896218000038061,None,131,0,130,630.2039794000157,,,,,,,,,,,,,,,,,,,,,,,,,,,,,,,,,,,,,,,,,,,,,,,,,,630.1883353000158,630.2039794000157,630.7112068000133,630.6879391999973,630.7088638000132,630.7112068000133,630.7112068000133,630.7112068000133,631.9046322000213,Foils\074a.jpg,none,n,1.1896218000038061,None,,,,,,,,00032,001,2026-01-21_17h53.13.920,MST_test,2024.2.0,60.01532791268924,2026-01-21 17h53.22.115163 +0530,
131,0,132,s,1.1056676000007428,None,132,0,131,631.9210868000227,,,,,,,,,,,,,,,,,,,,,,,,,,,,,,,,,,,,,,,,,,,,,,,,,,631.9049802000227,631.9210868000227,632.4271944000211,632.4045391000109,632.4247474000149,632.4271944000211,632.4271944000211,632.4271944000211,633.5381555000204,Objects\018b.jpg,pre,s,1.1056676000007428,None,,,,,,,,00032,001,2026-01-21_17h53.13.920,MST_test,2024.2.0,60.01532791268924,2026-01-21 17h53.22.115163 +0530,
132,0,133,o,2.2706797999853734,None,133,0,132,633.5541436000203,,,,,,,,,,,,,,,,,,,,,,,,,,,,,,,,,,,,,,,,,,,,,,,,,,633.5385105000169,633.5541436000203,634.0542337000079,634.0379257000168,634.042935800011,634.0542337000079,634.0542337000079,634.0542337000079,636.3388481000147,Objects\066a.jpg,mid,o,2.2706797999853734,None,,,,,,,,00032,001,2026-01-21_17h53.13.920,MST_test,2024.2.0,60.01532791268924,2026-01-21 17h53.22.115163 +0530,
133,0,134,o,4.3260753999929875,None,134,0,133,636.354005000001,,,,,,,,,,,,,,,,,,,,,,,,,,,,,,,,,,,,,,,,,,,,,,,,,,636.3391781000246,636.354005000001,636.8547577999998,636.8376758000231,636.8502556000021,636.8547577999998,636.8547577999998,636.8547577999998,641.1881865000178,Scenes\111a.jpg,post,o,4.3260753999929875,None,,,,,,,,00032,001,2026-01-21_17h53.13.920,MST_test,2024.2.0,60.01532791268924,2026-01-21 17h53.22.115163 +0530,
134,0,135,n,0.9796839999908116,None,135,0,134,641.2048342000053,,,,,,,,,,,,,,,,,,,,,,,,,,,,,,,,,,,,,,,,,,,,,,,,,,641.1886181000154,641.2048342000053,641.7047433000116,641.6879060000065,641.6986466000089,641.7047433000116,641.7047433000116,641.7047433000116,642.6878371000057,Objects\032a.jpg,mid,n,0.9796839999908116,None,,,,,,,,00032,001,2026-01-21_17h53.13.920,MST_test,2024.2.0,60.01532791268924,2026-01-21 17h53.22.115163 +0530,
135,0,136,s,2.551782499998808,None,136,0,135,642.7039410000143,,,,,,,,,,,,,,,,,,,,,,,,,,,,,,,,,,,,,,,,,,,,,,,,,,642.688183100021,642.7039410000143,,643.1880792000156,643.2268146999995,643.2290656999976,643.2290656999976,643.2290656999976,645.7881959000078,Scenes\122b.jpg,mid,s,2.551782499998808,None,,,,,,,,00032,001,2026-01-21_17h53.13.920,MST_test,2024.2.0,60.01532791268924,2026-01-21 17h53.22.115163 +0530,
136,0,137,n,2.722164500009967,None,137,0,136,645.8042249999999,,,,,,,,,,,,,,,,,,,,,,,,,,,,,,,,,,,,,,,,,,,,,,,,,,645.7885448000161,645.8042249999999,646.6099724000087,646.2879066000169,646.6032087000203,646.6099724000087,646.6099724000087,646.6099724000087,649.3385638000036,Foils\scenes26.jpg,none,n,2.722164500009967,None,,,,,,,,00032,001,2026-01-21_17h53.13.920,MST_test,2024.2.0,60.01532791268924,2026-01-21 17h53.22.115163 +0530,
137,0,138,n,0.932452299981378,None,138,0,137,649.3541017000098,,,,,,,,,,,,,,,,,,,,,,,,,,,,,,,,,,,,,,,,,,,,,,,,,,649.3389086000097,649.3541017000098,649.8963655999978,649.8380177000072,649.8935752000252,649.8963655999978,649.8963655999978,649.8963655999978,650.8381903000118,Foils\scenes8.jpg,none,n,0.932452299981378,None,,,,,,,,00032,001,2026-01-21_17h53.13.920,MST_test,2024.2.0,60.01532791268924,2026-01-21 17h53.22.115163 +0530,
138,0,139,o,1.1009736999985762,None,139,0,138,650.8541162000038,,,,,,,,,,,,,,,,,,,,,,,,,,,,,,,,,,,,,,,,,,,,,,,,,,650.838542100013,650.8541162000038,651.383387400012,651.3377287000185,651.3810434000043,651.383387400012,651.383387400012,651.383387400012,652.4879638999992,Scenes\019b.jpg,post,o,1.1009736999985762,None,,,,,,,,00032,001,2026-01-21_17h53.13.920,MST_test,2024.2.0,60.01532791268924,2026-01-21 17h53.22.115163 +0530,
139,0,140,o,1.9142664999817498,None,140,0,139,652.5041348000232,,,,,,,,,,,,,,,,,,,,,,,,,,,,,,,,,,,,,,,,,,,,,,,,,,652.4883152999973,652.5041348000232,653.0097428000008,652.9878991000005,653.0071208000008,653.0097428000008,653.0097428000008,653.0097428000008,654.9375156000024,Scenes\006a.jpg,post,o,1.9142664999817498,None,,,,,,,,00032,001,2026-01-21_17h53.13.920,MST_test,2024.2.0,60.01532791268924,2026-01-21 17h53.22.115163 +0530,
140,0,141,o,1.3255882000084966,None,141,0,140,654.9539872000169,,,,,,,,,,,,,,,,,,,,,,,,,,,,,,,,,,,,,,,,,,,,,,,,,,654.9378322999983,654.9539872000169,655.454525100009,655.4370858000184,655.4470468000218,655.454525100009,655.454525100009,655.454525100009,656.787696400017,Scenes\022a.jpg,pre,o,1.3255882000084966,None,,,,,,,,00032,001,2026-01-21_17h53.13.920,MST_test,2024.2.0,60.01532791268924,2026-01-21 17h53.22.115163 +0530,
141,0,142,o,18.296133399999235,None,142,0,141,656.8038253000122,,,,,,,,,,,,,,,,,,,,,,,,,,,,,,,,,,,,,,,,,,,,,,,,,,656.7878569000168,656.8038253000122,657.3083337999997,657.2879113000236,657.3059198000119,657.3083337999997,657.3083337999997,657.3083337999997,675.6213074999978,Scenes\012a.jpg,post,o,18.296133399999235,None,,,,,,,,00032,001,2026-01-21_17h53.13.920,MST_test,2024.2.0,60.01532791268924,2026-01-21 17h53.22.115163 +0530,
142,0,143,n,4.0186112000083085,None,143,0,142,675.6375030000054,,,,,,,,,,,,,,,,,,,,,,,,,,,,,,,,,,,,,,,,,,,,,,,,,,675.6217158000218,675.6375030000054,676.1455924000184,676.1213076999993,676.1430884000147,676.1455924000184,676.1455924000184,676.1455924000184,680.1714102000115,Foils\057a.jpg,none,n,4.0186112000083085,None,,,,,,,,00032,001,2026-01-21_17h53.13.920,MST_test,2024.2.0,60.01532791268924,2026-01-21 17h53.22.115163 +0530,
143,0,144,s,1.5528857000172138,None,144,0,143,680.1873113000183,,,,,,,,,,,,,,,,,,,,,,,,,,,,,,,,,,,,,,,,,,,,,,,,,,680.1717626000172,680.1873113000183,680.6918904000195,680.671233800007,680.6894234000065,680.6918904000195,680.6918904000195,680.6918904000195,682.2545230000105,Scenes\083a.jpg,pre,s,1.5528857000172138,None,,,,,,,,00032,001,2026-01-21_17h53.13.920,MST_test,2024.2.0,60.01532791268924,2026-01-21 17h53.22.115163 +0530,
144,0,145,s,1.4331486000155564,None,145,0,144,682.2711775000207,,,,,,,,,,,,,,,,,,,,,,,,,,,,,,,,,,,,,,,,,,,,,,,,,,682.2548814000038,682.2711775000207,682.7796474000206,682.7545491000055,682.777361800021,682.7796474000206,682.7796474000206,682.7796474000206,684.2211750000133,Objects\010b.jpg,mid,s,1.4331486000155564,None,,,,,,,,00032,001,2026-01-21_17h53.13.920,MST_test,2024.2.0,60.01532791268924,2026-01-21 17h53.22.115163 +0530,
145,0,146,s,2.2613147999800276,None,146,0,145,684.238028599997,,,,,,,,,,,,,,,,,,,,,,,,,,,,,,,,,,,,,,,,,,,,,,,,,,684.2215256000054,684.238028599997,684.7589071000111,684.7211673000129,684.7560639000149,684.7589071000111,684.7589071000111,684.7589071000111,687.0214925000037,Objects\121b.jpg,post,s,2.2613147999800276,None,,,,,,,,00032,001,2026-01-21_17h53.13.920,MST_test,2024.2.0,60.01532791268924,2026-01-21 17h53.22.115163 +0530,
146,0,147,o,2.5148152000037953,None,147,0,146,687.0373384999984,,,,,,,,,,,,,,,,,,,,,,,,,,,,,,,,,,,,,,,,,,,,,,,,,,687.0218460000178,687.0373384999984,687.537499500002,687.5211635000014,687.5298121000233,687.537499500002,687.537499500002,687.537499500002,690.0544933000056,Objects\099a.jpg,pre,o,2.5148152000037953,None,,,,,,,,00032,001,2026-01-21_17h53.13.920,MST_test,2024.2.0,60.01532791268924,2026-01-21 17h53.22.115163 +0530,
147,0,148,o,4.265070699999342,None,148,0,147,690.0706221,,,,,,,,,,,,,,,,,,,,,,,,,,,,,,,,,,,,,,,,,,,,,,,,,,690.0548540000163,690.0706221,690.5711561000207,690.554789900023,690.5634560000035,690.5711561000207,690.5711561000207,690.5711561000207,694.8378250000242,Objects\093a.jpg,mid,o,4.265070699999342,None,,,,,,,,00032,001,2026-01-21_17h53.13.920,MST_test,2024.2.0,60.01532791268924,2026-01-21 17h53.22.115163 +0530,
148,0,149,s,3.5680701000092085,None,149,0,148,694.8548641000234,,,,,,,,,,,,,,,,,,,,,,,,,,,,,,,,,,,,,,,,,,,,,,,,,,694.8382152999984,694.8548641000234,695.3879643000255,695.3379231000145,695.3853683000198,695.3879643000255,695.3879643000255,695.3879643000255,698.9714995000104,Scenes\031b.jpg,post,s,3.5680701000092085,None,,,,,,,,00032,001,2026-01-21_17h53.13.920,MST_test,2024.2.0,60.01532791268924,2026-01-21 17h53.22.115163 +0530,
149,0,150,n,3.2383973999822047,None,150,0,149,698.9872644999996,,,,,,,,,,,,,,,,,,,,,,,,,,,,,,,,,,,,,,,,,,,,,,,,,,698.9718521000177,698.9872644999996,699.5104210000136,699.4706433000101,699.5077473999991,699.5104210000136,699.5104210000136,699.5104210000136,702.7555233000021,Scenes\145b.jpg,mid,n,3.2383973999822047,None,,,,,,,,00032,001,2026-01-21_17h53.13.920,MST_test,2024.2.0,60.01532791268924,2026-01-21 17h53.22.115163 +0530,
,,,,,,,,,,,,,,,,,,,,,,,,,,,,,,,,,,,,,,,,,,,,,,,,,,,,,,,,,,,,,,,,,,,,,,,,,702.7557507000165,702.7705633000005,702.7705633000005,712.3879875999992,space,9.610202500014566,None,00032,001,2026-01-21_17h53.13.920,MST_test,2024.2.0,60.01532791268924,2026-01-21 17h53.22.115163 +0530,
