Sl_no,image_path,thisN,thisTrialN,thisRepN,key_resp_5.keys,key_resp_7.keys,key_resp_7.rt,key_resp_7.duration,key_resp_5.rt,key_resp_5.duration,key_resp_9.keys,key_resp_9.rt,key_resp_9.duration,key_resp_8.keys,key_resp_8.rt,key_resp_8.duration,practice.thisRepN,practice.thisTrialN,practice.thisN,trials.thisRepN,trials.thisTrialN,trials.thisN,thisRow.t,notes,welcome_page.started,text.started,key_resp.started,welcome_page.stopped,key_resp.keys,key_resp.rt,key_resp.duration,instructions.started,ins.started,key_resp_2.started,instructions.stopped,key_resp_2.keys,key_resp_2.rt,key_resp_2.duration,objects_only_instruction.started,text_3.started,key_resp_3.started,objects_only_instruction.stopped,key_resp_3.keys,key_resp_3.rt,key_resp_3.duration,ISI.started,text_4.started,ISI.stopped,practice_block.started,image.started,text_5.started,key_resp_5.started,practice_block.stopped,practice.key_resp_5.keys,indoor_outdoor.started,text_7.started,key_resp_7.started,indoor_outdoor.stopped,practice.key_resp_7.keys,practice.key_resp_7.rt,practice.key_resp_7.duration,text_4.stopped,image.stopped,text_5.stopped,key_resp_5.stopped,practice.key_resp_5.rt,practice.key_resp_5.duration,practice_to_main.started,text_2.started,key_resp_4.started,practice_to_main.stopped,key_resp_4.keys,key_resp_4.rt,key_resp_4.duration,objects.started,image_2.started,text_9.started,key_resp_9.started,objects.stopped,trials.key_resp_9.keys,trials.key_resp_9.rt,trials.key_resp_9.duration,encoding_task.started,encoding_task.stopped,trials.key_resp_8.keys,image_2.stopped,text_9.stopped,key_resp_9.stopped,text_8.started,key_resp_8.started,trials.key_resp_8.rt,trials.key_resp_8.duration,end_experiment.started,text_6.started,key_resp_6.started,end_experiment.stopped,key_resp_6.keys,key_resp_6.rt,key_resp_6.duration,list_of_stimuli,encoding_task_accuracy,participant,session,date,expName,psychopyVersion,frameRate,expStart,
,,,,,,,,,,,,,,,,,,,,,,,,,0.0019181999959982932,0.004038999963086098,0.004038999963086098,18.83545720000984,space,18.81720019999193,None,,,,,,,,,,,,,,,,,,,,,,,,,,,,,,,,,,,,,,,,,,,,,,,,,,,,,,,,,,,,,,,,,,,,,,,00018,001,2025-11-21_16h42.03.893,MST_task,2024.2.0,60.02044295782636,2025-11-21 16h42.10.256067 +0530,
,,,,,,,,,,,,,,,,,,,,,,,,,,,,,,,,18.835518999956548,18.848678299982566,18.848678299982566,40.32990989997052,space,21.477069800021127,None,,,,,,,,,,,,,,,,,,,,,,,,,,,,,,,,,,,,,,,,,,,,,,,,,,,,,,,,,,,,,,,,00018,001,2025-11-21_16h42.03.893,MST_task,2024.2.0,60.02044295782636,2025-11-21 16h42.10.256067 +0530,
,,,,,,,,,,,,,,,,,,,,,,,,,,,,,,,,,,,,,,,40.329944299999624,40.3458580999868,40.3458580999868,67.16537439997774,space,26.811890700017102,None,,,,,,,,,,,,,,,,,,,,,,,,,,,,,,,,,,,,,,,,,,,,,,,,,,,,,,,,,00018,001,2025-11-21_16h42.03.893,MST_task,2024.2.0,60.02044295782636,2025-11-21 16h42.10.256067 +0530,
1,practice_images/013a.jpg,0,0,1,None,j,1.0378978000371717,None,,,,,,,,,1,0,0,,,,67.18587479996495,,,,,,,,,,,,,,,,,,,,,,,67.18331699998816,67.18587479996495,67.67977200000314,67.7041523999651,67.71564329997636,67.71564329997636,67.71564329997636,70.68030589999398,None,70.68667629995616,70.69601620000321,70.69601620000321,71.74840919999406,j,1.0378978000371717,None,,,,,,,,,,,,,,,,,,,,,,,,,,,,,,,,,,,,,,,,,00018,001,2025-11-21_16h42.03.893,MST_task,2024.2.0,60.02044295782636,2025-11-21 16h42.10.256067 +0530,
9,practice_images/180a.jpg,1,1,1,f,None,,,2.0373981000157073,0.13630069995997474,,,,,,,1,1,1,,,,71.76319119997788,,,,,,,,,,,,,,,,,,,,,,,71.74878949997947,71.76319119997788,72.24727279995568,72.26119220000692,72.26368189998902,72.26368189998902,72.26368189998902,75.24780879996251,f,75.24803769995924,,,75.24810729996534,None,,,72.26368189998902,75.26274579996243,75.26274579996243,75.26274579996243,2.0373981000157073,0.13630069995997474,,,,,,,,,,,,,,,,,,,,,,,,,,,,,,,,,,,00018,001,2025-11-21_16h42.03.893,MST_task,2024.2.0,60.02044295782636,2025-11-21 16h42.10.256067 +0530,
7,practice_images/166a.jpg,2,2,1,f,None,,,2.233627899957355,0.17604890000075102,,,,,,,1,2,2,,,,75.26274579996243,,,,,,,,,,,,,,,,,,,,,,,75.24838519998593,75.26274579996243,75.74750699999277,75.76092520001112,75.76395819999743,75.76395819999743,75.76395819999743,78.74757720000343,f,78.74780620000092,,,78.74786919995677,None,,,75.76395819999743,78.76298239995958,78.76298239995958,78.76298239995958,2.233627899957355,0.17604890000075102,,,,,,,,,,,,,,,,,,,,,,,,,,,,,,,,,,,00018,001,2025-11-21_16h42.03.893,MST_task,2024.2.0,60.02044295782636,2025-11-21 16h42.10.256067 +0530,
5,practice_images/139a.jpg,3,3,1,None,j,1.0462442999705672,None,,,,,,,,,1,3,3,,,,78.76298239995958,,,,,,,,,,,,,,,,,,,,,,,78.74813039996661,78.76298239995958,79.24740669998573,79.26093059999403,79.26323949999642,79.26323949999642,79.26323949999642,82.24753789999522,None,82.24771019996842,82.26304200000595,82.26304200000595,83.31503609998617,j,1.0462442999705672,None,79.26323949999642,82.26304200000595,82.26304200000595,82.26304200000595,,,,,,,,,,,,,,,,,,,,,,,,,,,,,,,,,,,,,00018,001,2025-11-21_16h42.03.893,MST_task,2024.2.0,60.02044295782636,2025-11-21 16h42.10.256067 +0530,
6,practice_images/158a.jpg,4,4,1,j,None,,,1.8878410999896005,0.15273520001210272,,,,,,,1,4,4,,,,83.32930159999523,,,,,,,,,,,,,,,,,,,,,,,83.31539060000796,83.32930159999523,83.81385749997571,83.82504999998491,83.82957649999298,83.82957649999298,83.82957649999298,86.81423119996907,j,86.81451329996344,,,86.81458010000642,None,,,83.82957649999298,86.82940679998137,86.82940679998137,86.82940679998137,1.8878410999896005,0.15273520001210272,,,,,,,,,,,,,,,,,,,,,,,,,,,,,,,,,,,00018,001,2025-11-21_16h42.03.893,MST_task,2024.2.0,60.02044295782636,2025-11-21 16h42.10.256067 +0530,
8,practice_images/178a.jpg,5,5,1,j,None,,,0.9310610999818891,0.18366849998710677,,,,,,,1,5,5,,,,86.82940679998137,,,,,,,,,,,,,,,,,,,,,,,86.81486419995781,86.82940679998137,87.31400929996744,87.32817499997327,87.3305665999651,87.3305665999651,87.3305665999651,90.31444719998399,j,90.3146895999671,,,90.31475699995644,None,,,87.3305665999651,90.32935339998221,90.32935339998221,90.32935339998221,0.9310610999818891,0.18366849998710677,,,,,,,,,,,,,,,,,,,,,,,,,,,,,,,,,,,00018,001,2025-11-21_16h42.03.893,MST_task,2024.2.0,60.02044295782636,2025-11-21 16h42.10.256067 +0530,
2,practice_images/031a.jpg,6,6,1,f,None,,,0.9115070999832824,0.15222069999435917,,,,,,,1,6,6,,,,90.32935339998221,,,,,,,,,,,,,,,,,,,,,,,90.31504269997822,90.32935339998221,90.8140740999952,90.8254270000034,90.82964079995872,90.82964079995872,90.82964079995872,93.81442809995497,f,93.81466049997834,,,93.8147234999924,None,,,90.82964079995872,93.82939959998475,93.82939959998475,93.82939959998475,0.9115070999832824,0.15222069999435917,,,,,,,,,,,,,,,,,,,,,,,,,,,,,,,,,,,00018,001,2025-11-21_16h42.03.893,MST_task,2024.2.0,60.02044295782636,2025-11-21 16h42.10.256067 +0530,
4,practice_images/002b.jpg,7,7,1,f,None,,,1.564067300001625,0.15209609997691587,,,,,,,1,7,7,,,,93.82939959998475,,,,,,,,,,,,,,,,,,,,,,,93.81498289998854,93.82939959998475,94.31403819995467,94.32671399996616,94.32939109997824,94.32939109997824,94.32939109997824,97.31453549995786,f,97.31475670001237,,,97.31481909996364,None,,,94.32939109997824,97.3293805999565,97.3293805999565,97.3293805999565,1.564067300001625,0.15209609997691587,,,,,,,,,,,,,,,,,,,,,,,,,,,,,,,,,,,00018,001,2025-11-21_16h42.03.893,MST_task,2024.2.0,60.02044295782636,2025-11-21 16h42.10.256067 +0530,
3,practice_images/037a.jpg,8,8,1,f,None,,,1.503202699997928,0.1765148999984376,,,,,,,1,8,8,,,,97.3293805999565,,,,,,,,,,,,,,,,,,,,,,,97.31509329995606,97.3293805999565,97.81393899995601,97.82739709998714,97.8298308000085,97.8298308000085,97.8298308000085,100.81405879999511,f,100.81422629998997,,,100.8142789999838,None,,,97.8298308000085,100.82946189999348,100.82946189999348,100.82946189999348,1.503202699997928,0.1765148999984376,,,,,,,,,,,,,,,,,,,,,,,,,,,,,,,,,,,00018,001,2025-11-21_16h42.03.893,MST_task,2024.2.0,60.02044295782636,2025-11-21 16h42.10.256067 +0530,
10,practice_images/182a.jpg,9,9,1,f,None,,,1.5157132999738678,0.24848430004203692,,,,,,,1,9,9,,,,100.82946189999348,,,,,,,,,,,,,,,,,,,,,,,100.81451379996724,100.82946189999348,101.31402639998123,101.3268098999979,101.32946789998095,101.32946789998095,101.32946789998095,104.31349799997406,f,104.31360850000056,,,104.3136370999855,None,,,101.32946789998095,104.32940220000455,104.32940220000455,104.32940220000455,1.5157132999738678,0.24848430004203692,,,,,,,,,,,,,,,,,,,,,,,,,,,,,,,,,,,00018,001,2025-11-21_16h42.03.893,MST_task,2024.2.0,60.02044295782636,2025-11-21 16h42.10.256067 +0530,
,,,,,,,,,,,,,,,,,,,,,,,,,,,,,,,,,,,,,,,,,,,,,,,,,,,,,,,,,,,,,,,,,,,,104.31371889996808,104.32940220000455,104.32940220000455,136.5318429999752,space,32.19576049997704,None,,,,,,,,,,,,,,,,,,,,,,,,,,,,00018,001,2025-11-21_16h42.03.893,MST_task,2024.2.0,60.02044295782636,2025-11-21 16h42.10.256067 +0530,
,Scenes\140a.jpg,0,0,1,,,,,,,j,1.5394004000118002,0.16815990000031888,None,,,,,,1,0,0,136.54632500000298,,,,,,,,,,,,,,,,,,,,,,,136.53451779996976,136.54632500000298,137.03069019998657,,,,,,,,,,,,,,137.05788779997965,,,,,,,,,,,,,137.05350039998302,137.05788779997965,137.05788779997965,137.05788779997965,140.04697629995644,j,1.5394004000118002,0.16815990000031888,140.0528295999975,140.0528719999711,None,,,,,,,,,,,,,,,,,00018,001,2025-11-21_16h42.03.893,MST_task,2024.2.0,60.02044295782636,2025-11-21 16h42.10.256067 +0530,
,Scenes\125a.jpg,1,0,2,,,,,,,j,1.964927399996668,0.20089029998052865,None,,,,,,2,0,1,140.062935199996,,,,,,,,,,,,,,,,,,,,,,,140.05306359997485,140.062935199996,140.54727340000682,,,,,,,,,,,,,,140.57671170000685,,,,,,,,,,,,,140.57339899998624,140.57671170000685,140.57671170000685,140.57671170000685,143.56379499996547,j,1.964927399996668,0.20089029998052865,143.5640507999924,143.56411529995967,None,,,,,,,,,,,,,,,,,00018,001,2025-11-21_16h42.03.893,MST_task,2024.2.0,60.02044295782636,2025-11-21 16h42.10.256067 +0530,
,Scenes\045a.jpg,2,0,3,,,,,,,j,1.5435696999775246,0.22412279999116436,None,,,,,,3,0,2,143.57955389999552,,,,,,,,,,,,,,,,,,,,,,,143.5644872999983,143.57955389999552,144.06417799997143,,,,,,,,,,,,,,144.09402729995782,,,,,,,,,,,,,144.09053849999327,144.09402729995782,144.09402729995782,144.09402729995782,147.07994349999353,j,1.5435696999775246,0.22412279999116436,147.08014989999356,147.08020999998553,None,,,,,,,,,,,,,,,,,00018,001,2025-11-21_16h42.03.893,MST_task,2024.2.0,60.02044295782636,2025-11-21 16h42.10.256067 +0530,
,Scenes\120a.jpg,3,0,4,,,,,,,j,1.7358925999724306,0.17591829999582842,None,,,,,,4,0,3,147.09615419997135,,,,,,,,,,,,,,,,,,,,,,,147.08051259996137,147.09615419997135,147.5808393000043,,,,,,,,,,,,,,147.60585910000373,,,,,,,,,,,,,147.60223640000913,147.60585910000373,147.60585910000373,147.60585910000373,150.5969938999624,j,1.7358925999724306,0.17591829999582842,150.59722180000972,150.59728310001083,None,,,,,,,,,,,,,,,,,00018,001,2025-11-21_16h42.03.893,MST_task,2024.2.0,60.02044295782636,2025-11-21 16h42.10.256067 +0530,
,Scenes\084a.jpg,4,0,5,,,,,,,j,1.4184738000039943,0.15993590001016855,None,,,,,,5,0,4,150.61306969996076,,,,,,,,,,,,,,,,,,,,,,,150.59766949998448,150.61306969996076,151.09751739999047,,,,,,,,,,,,,,151.12318769999547,,,,,,,,,,,,,151.11986169999,151.12318769999547,151.12318769999547,151.12318769999547,154.11327470000833,j,1.4184738000039943,0.15993590001016855,154.11349610000616,154.1135510999593,None,,,,,,,,,,,,,,,,,00018,001,2025-11-21_16h42.03.893,MST_task,2024.2.0,60.02044295782636,2025-11-21 16h42.10.256067 +0530,
,Scenes\187a.jpg,5,0,6,,,,,,,j,1.0310234999633394,0.15217700001085177,None,,,,,,6,0,5,154.12934669997776,,,,,,,,,,,,,,,,,,,,,,,154.11384820000967,154.12934669997776,154.61391299997922,,,,,,,,,,,,,,154.63805569999386,,,,,,,,,,,,,154.63488450000295,154.63805569999386,154.63805569999386,154.63805569999386,157.61380609998014,j,1.0310234999633394,0.15217700001085177,157.61404849996325,157.61411129997578,None,,,,,,,,,,,,,,,,,00018,001,2025-11-21_16h42.03.893,MST_task,2024.2.0,60.02044295782636,2025-11-21 16h42.10.256067 +0530,
,Scenes\131a.jpg,6,0,7,,,,,,,j,1.0502013000077568,0.29651799995917827,None,,,,,,7,0,6,157.6295452999766,,,,,,,,,,,,,,,,,,,,,,,157.6144151999615,157.6295452999766,158.11417059996165,,,,,,,,,,,,,,158.1388490999816,,,,,,,,,,,,,158.1354853999801,158.1388490999816,158.1388490999816,158.1388490999816,161.12995729997056,j,1.0502013000077568,0.29651799995917827,161.13016770000104,161.13022709998768,None,,,,,,,,,,,,,,,,,00018,001,2025-11-21_16h42.03.893,MST_task,2024.2.0,60.02044295782636,2025-11-21 16h42.10.256067 +0530,
,Objects\060a.jpg,7,0,8,,,,,,,j,1.2648196999798529,0.24714530003257096,None,,,,,,8,0,7,161.14614599995548,,,,,,,,,,,,,,,,,,,,,,,161.13051689998247,161.14614599995548,161.63046449999092,,,,,,,,,,,,,,161.65316320001148,,,,,,,,,,,,,161.65058109996608,161.65316320001148,161.65316320001148,161.65316320001148,164.64651319995755,j,1.2648196999798529,0.24714530003257096,164.64665939996485,164.64669530000538,None,,,,,,,,,,,,,,,,,00018,001,2025-11-21_16h42.03.893,MST_task,2024.2.0,60.02044295782636,2025-11-21 16h42.10.256067 +0530,
,Objects\151a.jpg,8,0,9,,,,,,,f,0.9442687999689952,0.2163598000188358,None,,,,,,9,0,8,164.66281549999258,,,,,,,,,,,,,,,,,,,,,,,164.64687249995768,164.66281549999258,165.1474172999733,,,,,,,,,,,,,,165.16517170000589,,,,,,,,,,,,,165.16245309996884,165.16517170000589,165.16517170000589,165.16517170000589,168.16313219995936,f,0.9442687999689952,0.2163598000188358,168.16328340000473,168.1633223000099,None,,,,,,,,,,,,,,,,,00018,001,2025-11-21_16h42.03.893,MST_task,2024.2.0,60.02044295782636,2025-11-21 16h42.10.256067 +0530,
,Objects\057a.jpg,9,0,10,,,,,,,f,1.3925384000176564,0.2321603000164032,None,,,,,,10,0,9,168.17931139998836,,,,,,,,,,,,,,,,,,,,,,,168.1635250999825,168.17931139998836,168.6641739999759,,,,,,,,,,,,,,168.68453149998095,,,,,,,,,,,,,168.68169199995464,168.68453149998095,168.68453149998095,168.68453149998095,171.67983390000882,f,1.3925384000176564,0.2321603000164032,171.68007860000944,171.680141299963,None,,,,,,,,,,,,,,,,,00018,001,2025-11-21_16h42.03.893,MST_task,2024.2.0,60.02044295782636,2025-11-21 16h42.10.256067 +0530,
,Objects\051a.jpg,10,0,11,,,,,,,None,,,f,0.5931161999469623,None,,,,11,0,10,171.69636149995495,,,,,,,,,,,,,,,,,,,,,,,171.68044909997843,171.69636149995495,172.18069229996763,,,,,,,,,,,,,,172.1972795999609,,,,,,,,,,,,,172.19452689995524,172.1972795999609,172.1972795999609,172.1972795999609,175.1811365999747,None,,,175.18134819995612,175.79849650000688,f,175.1961266999715,175.1961266999715,175.1961266999715,175.1961266999715,175.1961266999715,0.5931161999469623,None,,,,,,,,,,00018,001,2025-11-21_16h42.03.893,MST_task,2024.2.0,60.02044295782636,2025-11-21 16h42.10.256067 +0530,
,Objects\156a.jpg,11,0,12,,,,,,,f,0.8186388000031002,0.1765675999922678,None,,,,,,12,0,11,175.81297769997036,,,,,,,,,,,,,,,,,,,,,,,175.79885459999787,175.81297769997036,176.2976847999962,,,,,,,,,,,,,,176.3145938999951,,,,,,,,,,,,,176.31201729999157,176.3145938999951,176.3145938999951,176.3145938999951,179.31360519997543,f,0.8186388000031002,0.1765675999922678,179.31382949999534,179.31389130000025,None,,,,,,,,,,,,,,,,,00018,001,2025-11-21_16h42.03.893,MST_task,2024.2.0,60.02044295782636,2025-11-21 16h42.10.256067 +0530,
,Objects\158a.jpg,12,0,13,,,,,,,f,2.3005261000362225,0.2476992000010796,None,,,,,,13,0,12,179.3293458999833,,,,,,,,,,,,,,,,,,,,,,,179.31419969996205,179.3293458999833,179.81411579996347,,,,,,,,,,,,,,179.83290739997756,,,,,,,,,,,,,179.82986789999995,179.83290739997756,179.83290739997756,179.83290739997756,182.82986759999767,f,2.3005261000362225,0.2476992000010796,182.8301166999736,182.83017939998535,None,,,,,,,,,,,,,,,,,00018,001,2025-11-21_16h42.03.893,MST_task,2024.2.0,60.02044295782636,2025-11-21 16h42.10.256067 +0530,
,Objects\016a.jpg,13,0,14,,,,,,,f,1.2893696000101045,0.26394879998406395,None,,,,,,14,0,13,182.84616939997068,,,,,,,,,,,,,,,,,,,,,,,182.83058660000097,182.84616939997068,183.33081069996115,,,,,,,,,,,,,,183.34838499996113,,,,,,,,,,,,,183.3458171999664,183.34838499996113,183.34838499996113,183.34838499996113,186.34689779998735,f,1.2893696000101045,0.26394879998406395,186.3471100999741,186.34717169997748,None,,,,,,,,,,,,,,,,,00018,001,2025-11-21_16h42.03.893,MST_task,2024.2.0,60.02044295782636,2025-11-21 16h42.10.256067 +0530,
,Scenes\070a.jpg,14,0,15,,,,,,,None,,,f,0.7900741000194103,None,,,,15,0,14,186.36290199996438,,,,,,,,,,,,,,,,,,,,,,,186.34754029999021,186.36290199996438,186.84713189996546,,,,,,,,,,,,,,186.87337990000378,,,,,,,,,,,,,186.87009459995897,186.87337990000378,186.87337990000378,186.87337990000378,189.8633691999712,None,,,189.86351559998002,190.68160359998,f,,,,189.87940079998225,189.87940079998225,0.7900741000194103,None,,,,,,,,,,00018,001,2025-11-21_16h42.03.893,MST_task,2024.2.0,60.02044295782636,2025-11-21 16h42.10.256067 +0530,
,Scenes\006a.jpg,15,0,16,,,,,,,f,1.5560676000313833,0.24013729998841882,None,,,,,,16,0,15,190.69619039999088,,,,,,,,,,,,,,,,,,,,,,,190.68214499996975,190.69619039999088,191.18063089996576,,,,,,,,,,,,,,191.20129739999538,,,,,,,,,,,,,191.19806319999043,191.20129739999538,191.20129739999538,191.20129739999538,194.19684230000712,f,1.5560676000313833,0.24013729998841882,194.19706579996273,194.19712739996612,None,,,,,,,,,,,,,,,,,00018,001,2025-11-21_16h42.03.893,MST_task,2024.2.0,60.02044295782636,2025-11-21 16h42.10.256067 +0530,
,Scenes\093a.jpg,16,0,17,,,,,,,f,1.0185927000129595,0.19190299999900162,None,,,,,,17,0,16,194.21291050000582,,,,,,,,,,,,,,,,,,,,,,,194.19743309996556,194.21291050000582,194.6974029999692,,,,,,,,,,,,,,194.7227780999965,,,,,,,,,,,,,194.71892119996483,194.7227780999965,194.7227780999965,194.7227780999965,197.71353959996486,f,1.0185927000129595,0.19190299999900162,197.71377299999585,197.7138360000099,None,,,,,,,,,,,,,,,,,00018,001,2025-11-21_16h42.03.893,MST_task,2024.2.0,60.02044295782636,2025-11-21 16h42.10.256067 +0530,
,Scenes\004a.jpg,17,0,18,,,,,,,j,1.4306089000310749,0.16029689996503294,None,,,,,,18,0,17,197.72951599996304,,,,,,,,,,,,,,,,,,,,,,,197.71422520000488,197.72951599996304,198.21416839997983,,,,,,,,,,,,,,198.23884409997845,,,,,,,,,,,,,198.23551039997255,198.23884409997845,198.23884409997845,198.23884409997845,201.22996359999524,j,1.4306089000310749,0.16029689996503294,201.23030719999224,201.2303825999843,None,,,,,,,,,,,,,,,,,00018,001,2025-11-21_16h42.03.893,MST_task,2024.2.0,60.02044295782636,2025-11-21 16h42.10.256067 +0530,
,Scenes\134a.jpg,18,0,19,,,,,,,j,1.5285198999918066,0.1124221000354737,None,,,,,,19,0,18,201.2462930000038,,,,,,,,,,,,,,,,,,,,,,,201.23078240000177,201.2462930000038,201.73077909997664,,,,,,,,,,,,,,201.75680599996122,,,,,,,,,,,,,201.7533637000015,201.75680599996122,201.75680599996122,201.75680599996122,204.74680119997356,j,1.5285198999918066,0.1124221000354737,204.74716079997597,204.7472240999923,None,,,,,,,,,,,,,,,,,00018,001,2025-11-21_16h42.03.893,MST_task,2024.2.0,60.02044295782636,2025-11-21 16h42.10.256067 +0530,
,Scenes\022a.jpg,19,0,20,,,,,,,j,0.9872889000107534,0.16038199997274205,None,,,,,,20,0,19,204.76284139999188,,,,,,,,,,,,,,,,,,,,,,,204.7476064999937,204.76284139999188,205.24760399997467,,,,,,,,,,,,,,205.26611199998297,,,,,,,,,,,,,205.26297320000594,205.26611199998297,205.26611199998297,205.26611199998297,208.26347589999205,j,0.9872889000107534,0.16038199997274205,208.2637049999903,208.26376780000282,None,,,,,,,,,,,,,,,,,00018,001,2025-11-21_16h42.03.893,MST_task,2024.2.0,60.02044295782636,2025-11-21 16h42.10.256067 +0530,
,Scenes\126a.jpg,20,0,21,,,,,,,j,1.1778988000005484,0.10470269998768345,None,,,,,,21,0,20,208.2793488999596,,,,,,,,,,,,,,,,,,,,,,,208.2641996999737,208.2793488999596,208.76382669998566,,,,,,,,,,,,,,208.78724669996882,,,,,,,,,,,,,208.78415879997192,208.78724669996882,208.78724669996882,208.78724669996882,211.7799027999863,j,1.1778988000005484,0.10470269998768345,211.78012209996814,211.78018259996315,None,,,,,,,,,,,,,,,,,00018,001,2025-11-21_16h42.03.893,MST_task,2024.2.0,60.02044295782636,2025-11-21 16h42.10.256067 +0530,
,Objects\055a.jpg,21,0,22,,,,,,,f,2.178146000020206,0.2072881999774836,None,,,,,,22,0,21,211.79615199996624,,,,,,,,,,,,,,,,,,,,,,,211.7805636000121,211.79615199996624,212.28096569998888,,,,,,,,,,,,,,212.29965749999974,,,,,,,,,,,,,212.2966776000103,212.29965749999974,212.29965749999974,212.29965749999974,215.29701459995704,f,2.178146000020206,0.2072881999774836,215.29722599999513,215.29728599998634,None,,,,,,,,,,,,,,,,,00018,001,2025-11-21_16h42.03.893,MST_task,2024.2.0,60.02044295782636,2025-11-21 16h42.10.256067 +0530,
,Objects\006a.jpg,22,0,23,,,,,,,f,2.2381667000008747,0.42376179998973384,None,,,,,,23,0,22,215.3128546999651,,,,,,,,,,,,,,,,,,,,,,,215.2975921999896,215.3128546999651,215.79768339998554,,,,,,,,,,,,,,215.81546249997336,,,,,,,,,,,,,215.81272310001077,215.81546249997336,215.81546249997336,215.81546249997336,218.81348999997135,f,2.2381667000008747,0.42376179998973384,218.81374529999448,218.81380860001082,None,,,,,,,,,,,,,,,,,00018,001,2025-11-21_16h42.03.893,MST_task,2024.2.0,60.02044295782636,2025-11-21 16h42.10.256067 +0530,
,Objects\067a.jpg,23,0,24,,,,,,,None,,,f,0.5318707000114955,None,,,,24,0,23,218.82957199995872,,,,,,,,,,,,,,,,,,,,,,,218.81411529995967,218.82957199995872,219.31419010000536,,,,,,,,,,,,,,219.33141220000107,,,,,,,,,,,,,219.32870620000176,219.33141220000107,219.33141220000107,219.33141220000107,222.3299679000047,None,,,222.3301572999917,222.88159999996424,f,,,,222.346426300006,222.346426300006,0.5318707000114955,None,,,,,,,,,,00018,001,2025-11-21_16h42.03.893,MST_task,2024.2.0,60.02044295782636,2025-11-21 16h42.10.256067 +0530,
,Objects\152a.jpg,24,0,25,,,,,,,f,1.4686062000109814,0.24755279999226332,None,,,,,,25,0,24,222.89638250001008,,,,,,,,,,,,,,,,,,,,,,,222.88193709996995,222.89638250001008,223.3812111999723,,,,,,,,,,,,,,223.4010544999619,,,,,,,,,,,,,223.39834129996598,223.4010544999619,223.4010544999619,223.4010544999619,226.3968685999862,f,1.4686062000109814,0.24755279999226332,226.3970546000055,226.3970999000012,None,,,,,,,,,,,,,,,,,00018,001,2025-11-21_16h42.03.893,MST_task,2024.2.0,60.02044295782636,2025-11-21 16h42.10.256067 +0530,
,Objects\144a.jpg,25,0,26,,,,,,,f,1.346060200012289,0.24730980000458658,None,,,,,,26,0,25,226.41285069996957,,,,,,,,,,,,,,,,,,,,,,,226.3973990000086,226.41285069996957,226.8974206999992,,,,,,,,,,,,,,226.91569389996585,,,,,,,,,,,,,226.91310770000564,226.91569389996585,226.91569389996585,226.91569389996585,229.91357109998353,f,1.346060200012289,0.24730980000458658,229.91378369997256,229.91383799997857,None,,,,,,,,,,,,,,,,,00018,001,2025-11-21_16h42.03.893,MST_task,2024.2.0,60.02044295782636,2025-11-21 16h42.10.256067 +0530,
,Objects\054a.jpg,26,0,27,,,,,,,f,1.87667510000756,0.2801970000145957,None,,,,,,27,0,26,229.92964489996666,,,,,,,,,,,,,,,,,,,,,,,229.9141937000095,229.92964489996666,230.4139969999669,,,,,,,,,,,,,,230.4326766000013,,,,,,,,,,,,,230.42991289997008,230.4326766000013,230.4326766000013,230.4326766000013,233.43013920000521,f,1.87667510000756,0.2801970000145957,233.43036519997986,233.4304232999566,None,,,,,,,,,,,,,,,,,00018,001,2025-11-21_16h42.03.893,MST_task,2024.2.0,60.02044295782636,2025-11-21 16h42.10.256067 +0530,
,Objects\137a.jpg,27,0,28,,,,,,,j,1.882239099999424,0.1991058000130579,None,,,,,,28,0,27,233.44642960000783,,,,,,,,,,,,,,,,,,,,,,,233.4309290999663,233.44642960000783,233.9303391999565,,,,,,,,,,,,,,233.94787109998288,,,,,,,,,,,,,233.94507479999447,233.94787109998288,233.94787109998288,233.94787109998288,236.9470941000036,j,1.882239099999424,0.1991058000130579,236.94732189999195,236.9473804999725,None,,,,,,,,,,,,,,,,,00018,001,2025-11-21_16h42.03.893,MST_task,2024.2.0,60.02044295782636,2025-11-21 16h42.10.256067 +0530,
,Scenes\176a.jpg,28,0,29,,,,,,,j,1.1474037000443786,0.15931379998801276,None,,,,,,29,0,28,236.96299249998992,,,,,,,,,,,,,,,,,,,,,,,236.94767199998023,236.96299249998992,237.44770499999868,,,,,,,,,,,,,,237.47439200000372,,,,,,,,,,,,,237.47107579995645,237.47439200000372,237.47439200000372,237.47439200000372,240.4637001999654,j,1.1474037000443786,0.15931379998801276,240.46391140000196,240.46397179999622,None,,,,,,,,,,,,,,,,,00018,001,2025-11-21_16h42.03.893,MST_task,2024.2.0,60.02044295782636,2025-11-21 16h42.10.256067 +0530,
,Scenes\078a.jpg,29,0,30,,,,,,,j,2.576955900003668,0.15905079996446148,None,,,,,,30,0,29,240.4796754999552,,,,,,,,,,,,,,,,,,,,,,,240.4642747999751,240.4796754999552,240.96409879997373,,,,,,,,,,,,,,240.98909300001105,,,,,,,,,,,,,240.98566919995937,240.98909300001105,240.98909300001105,240.98909300001105,243.9803399000084,j,2.576955900003668,0.15905079996446148,243.9805657999823,243.9806249999674,None,,,,,,,,,,,,,,,,,00018,001,2025-11-21_16h42.03.893,MST_task,2024.2.0,60.02044295782636,2025-11-21 16h42.10.256067 +0530,
,Scenes\150a.jpg,30,0,31,,,,,,,j,1.6762378999846987,0.16023959999438375,None,,,,,,31,0,30,243.99644969997462,,,,,,,,,,,,,,,,,,,,,,,243.98099559999537,243.99644969997462,244.48078469996108,,,,,,,,,,,,,,244.5049056999851,,,,,,,,,,,,,244.50157289998606,244.5049056999851,244.5049056999851,244.5049056999851,247.49720819998765,j,1.6762378999846987,0.16023959999438375,247.49744319997262,247.49750359996688,None,,,,,,,,,,,,,,,,,00018,001,2025-11-21_16h42.03.893,MST_task,2024.2.0,60.02044295782636,2025-11-21 16h42.10.256067 +0530,
,Scenes\005a.jpg,31,0,32,,,,,,,f,1.5089899000013247,0.24802150001050904,None,,,,,,32,0,31,247.51302389998455,,,,,,,,,,,,,,,,,,,,,,,247.49788889999036,247.51302389998455,247.9976081000059,,,,,,,,,,,,,,248.0241220999742,,,,,,,,,,,,,248.02073699998436,248.0241220999742,248.0241220999742,248.0241220999742,251.01370519999182,f,1.5089899000013247,0.24802150001050904,251.01392329996452,251.01398250000784,None,,,,,,,,,,,,,,,,,00018,001,2025-11-21_16h42.03.893,MST_task,2024.2.0,60.02044295782636,2025-11-21 16h42.10.256067 +0530,
,Scenes\190a.jpg,32,0,33,,,,,,,j,0.912485100037884,0.15216159995179623,None,,,,,,33,0,32,251.02976639999542,,,,,,,,,,,,,,,,,,,,,,,251.01428149995627,251.02976639999542,251.51416119997157,,,,,,,,,,,,,,251.54074530000798,,,,,,,,,,,,,251.5373993999674,251.54074530000798,251.54074530000798,251.54074530000798,254.53020919999108,j,0.912485100037884,0.15216159995179623,254.53043589997105,254.53049879998434,None,,,,,,,,,,,,,,,,,00018,001,2025-11-21_16h42.03.893,MST_task,2024.2.0,60.02044295782636,2025-11-21 16h42.10.256067 +0530,
,Scenes\139a.jpg,33,0,34,,,,,,,j,0.7448693999904208,0.1443118000170216,None,,,,,,34,0,33,254.54630729998462,,,,,,,,,,,,,,,,,,,,,,,254.53080219996627,254.54630729998462,255.03056729998207,,,,,,,,,,,,,,255.0526890999754,,,,,,,,,,,,,255.04954149998957,255.0526890999754,255.0526890999754,255.0526890999754,258.0466677999939,j,0.7448693999904208,0.1443118000170216,258.0469044999918,258.0469556999742,None,,,,,,,,,,,,,,,,,00018,001,2025-11-21_16h42.03.893,MST_task,2024.2.0,60.02044295782636,2025-11-21 16h42.10.256067 +0530,
,Scenes\182a.jpg,34,0,35,,,,,,,j,1.6845131000154652,0.12752560002263635,None,,,,,,35,0,34,258.0629762999597,,,,,,,,,,,,,,,,,,,,,,,258.04728940001223,258.0629762999597,258.54736879997654,,,,,,,,,,,,,,258.5698195999721,,,,,,,,,,,,,258.5664996000123,258.5698195999721,258.5698195999721,258.5698195999721,261.563466099964,j,1.6845131000154652,0.12752560002263635,261.56367889995454,261.5637405999587,None,,,,,,,,,,,,,,,,,00018,001,2025-11-21_16h42.03.893,MST_task,2024.2.0,60.02044295782636,2025-11-21 16h42.10.256067 +0530,
,Objects\104a.jpg,35,0,36,,,,,,,f,0.8744534000288695,0.20749409997370094,None,,,,,,36,0,35,261.57942619995447,,,,,,,,,,,,,,,,,,,,,,,261.56403639999917,261.57942619995447,262.0638717999682,,,,,,,,,,,,,,262.0832931000041,,,,,,,,,,,,,262.0799957999843,262.0832931000041,262.0832931000041,262.0832931000041,265.0801923999679,f,0.8744534000288695,0.20749409997370094,265.080403400003,265.0804666999611,None,,,,,,,,,,,,,,,,,00018,001,2025-11-21_16h42.03.893,MST_task,2024.2.0,60.02044295782636,2025-11-21 16h42.10.256067 +0530,
,Objects\056a.jpg,36,0,37,,,,,,,f,1.9323222000384703,0.23207369999727234,None,,,,,,37,0,36,265.09648949996335,,,,,,,,,,,,,,,,,,,,,,,265.08086429996183,265.09648949996335,265.5804063999676,,,,,,,,,,,,,,265.6007207999937,,,,,,,,,,,,,265.5979346999666,265.6007207999937,265.6007207999937,265.6007207999937,268.5967195999692,f,1.9323222000384703,0.23207369999727234,268.59694540000055,268.597005299991,None,,,,,,,,,,,,,,,,,00018,001,2025-11-21_16h42.03.893,MST_task,2024.2.0,60.02044295782636,2025-11-21 16h42.10.256067 +0530,
,Objects\017a.jpg,37,0,38,,,,,,,j,2.115025400009472,0.17588419996900484,None,,,,,,38,0,37,268.6128726999741,,,,,,,,,,,,,,,,,,,,,,,268.597309099976,268.6128726999741,269.09721859998535,,,,,,,,,,,,,,269.1145564999897,,,,,,,,,,,,,269.11199649999617,269.1145564999897,269.1145564999897,269.1145564999897,272.1137180000078,j,2.115025400009472,0.17588419996900484,272.1139245000086,272.11398039996857,None,,,,,,,,,,,,,,,,,00018,001,2025-11-21_16h42.03.893,MST_task,2024.2.0,60.02044295782636,2025-11-21 16h42.10.256067 +0530,
,Objects\043a.jpg,38,0,39,,,,,,,f,0.9491398999816738,0.20873690000735223,None,,,,,,39,0,38,272.1295004999847,,,,,,,,,,,,,,,,,,,,,,,272.1142770999577,272.1295004999847,272.6138113999623,,,,,,,,,,,,,,272.63200879999204,,,,,,,,,,,,,272.62933869997505,272.63200879999204,272.63200879999204,272.63200879999204,275.6300720999716,f,0.9491398999816738,0.20873690000735223,275.6303004999645,275.6303633999778,None,,,,,,,,,,,,,,,,,00018,001,2025-11-21_16h42.03.893,MST_task,2024.2.0,60.02044295782636,2025-11-21 16h42.10.256067 +0530,
,Objects\080a.jpg,39,0,40,,,,,,,f,0.6410589999868535,0.23205770005006343,None,,,,,,40,0,39,275.6461905000033,,,,,,,,,,,,,,,,,,,,,,,275.6306968999561,275.6461905000033,276.130468999967,,,,,,,,,,,,,,276.14815099997213,,,,,,,,,,,,,276.1454833999742,276.14815099997213,276.14815099997213,276.14815099997213,279.14684209995903,f,0.6410589999868535,0.23205770005006343,279.1470701000071,279.1471309000044,None,,,,,,,,,,,,,,,,,00018,001,2025-11-21_16h42.03.893,MST_task,2024.2.0,60.02044295782636,2025-11-21 16h42.10.256067 +0530,
,Objects\114a.jpg,40,0,41,,,,,,,f,1.0931578999734484,0.23138000001199543,None,,,,,,41,0,40,279.1630047999788,,,,,,,,,,,,,,,,,,,,,,,279.1474728999892,279.1630047999788,279.6475965999998,,,,,,,,,,,,,,279.66458759998204,,,,,,,,,,,,,279.66202569997404,279.66458759998204,279.66458759998204,279.66458759998204,282.66377569996985,f,1.0931578999734484,0.23138000001199543,282.66400799999246,282.6640713000088,None,,,,,,,,,,,,,,,,,00018,001,2025-11-21_16h42.03.893,MST_task,2024.2.0,60.02044295782636,2025-11-21 16h42.10.256067 +0530,
,Objects\109a.jpg,41,0,42,,,,,,,f,2.6248358000302687,0.2079455999773927,None,,,,,,42,0,41,282.6796497000032,,,,,,,,,,,,,,,,,,,,,,,282.66437439998845,282.6796497000032,283.1643519999925,,,,,,,,,,,,,,283.18103949999204,,,,,,,,,,,,,283.1783731000032,283.18103949999204,283.18103949999204,283.18103949999204,286.1801453999942,f,2.6248358000302687,0.2079455999773927,286.1803596999962,286.180420699995,None,,,,,,,,,,,,,,,,,00018,001,2025-11-21_16h42.03.893,MST_task,2024.2.0,60.02044295782636,2025-11-21 16h42.10.256067 +0530,
,Scenes\029a.jpg,42,0,43,,,,,,,j,2.0723555000149645,0.2082115999655798,None,,,,,,43,0,42,286.19630539999343,,,,,,,,,,,,,,,,,,,,,,,286.1807862999849,286.19630539999343,286.68074009998236,,,,,,,,,,,,,,286.70899789995747,,,,,,,,,,,,,286.70576340000844,286.70899789995747,286.70899789995747,286.70899789995747,289.69682309997734,j,2.0723555000149645,0.2082115999655798,289.6970423999592,289.69710689998465,None,,,,,,,,,,,,,,,,,00018,001,2025-11-21_16h42.03.893,MST_task,2024.2.0,60.02044295782636,2025-11-21 16h42.10.256067 +0530,
,Scenes\096a.jpg,43,0,44,,,,,,,j,1.1157010999741033,0.19257650000508875,None,,,,,,44,0,43,289.7129619999905,,,,,,,,,,,,,,,,,,,,,,,289.6974943999667,289.7129619999905,290.1974873999716,,,,,,,,,,,,,,290.2176076999749,,,,,,,,,,,,,290.2142837999854,290.2176076999749,290.2176076999749,290.2176076999749,293.2133788999636,j,1.1157010999741033,0.19257650000508875,293.21359189995565,293.21365059999516,None,,,,,,,,,,,,,,,,,00018,001,2025-11-21_16h42.03.893,MST_task,2024.2.0,60.02044295782636,2025-11-21 16h42.10.256067 +0530,
,Scenes\067a.jpg,44,0,45,,,,,,,f,1.2211043999996036,0.19197819998953491,None,,,,,,45,0,44,293.22949060000246,,,,,,,,,,,,,,,,,,,,,,,293.21403559995815,293.22949060000246,293.7140605999739,,,,,,,,,,,,,,293.7365943999612,,,,,,,,,,,,,293.73336509999353,293.7365943999612,293.7365943999612,293.7365943999612,296.73007659998257,f,1.2211043999996036,0.19197819998953491,296.7303006000002,296.7303613999975,None,,,,,,,,,,,,,,,,,00018,001,2025-11-21_16h42.03.893,MST_task,2024.2.0,60.02044295782636,2025-11-21 16h42.10.256067 +0530,
,Scenes\098a.jpg,45,0,46,,,,,,,f,1.925743700005114,0.22375569998985156,None,,,,,,46,0,45,296.74627889995463,,,,,,,,,,,,,,,,,,,,,,,296.73074989998713,296.74627889995463,297.2294622999616,,,,,,,,,,,,,,297.24769749998813,,,,,,,,,,,,,297.24417439999525,297.24769749998813,297.24769749998813,297.24769749998813,300.2469885000028,f,1.925743700005114,0.22375569998985156,300.2472158999881,300.24727829999756,None,,,,,,,,,,,,,,,,,00018,001,2025-11-21_16h42.03.893,MST_task,2024.2.0,60.02044295782636,2025-11-21 16h42.10.256067 +0530,
,Scenes\008a.jpg,46,0,47,,,,,,,f,1.4518829999724403,0.21623870002804324,None,,,,,,47,0,46,300.26286939997226,,,,,,,,,,,,,,,,,,,,,,,300.24758279998787,300.26286939997226,300.7474432999734,,,,,,,,,,,,,,300.76978099998087,,,,,,,,,,,,,300.76648439996643,300.76978099998087,300.76978099998087,300.76978099998087,303.76338389999,f,1.4518829999724403,0.21623870002804324,303.76363239996135,303.7636926000123,None,,,,,,,,,,,,,,,,,00018,001,2025-11-21_16h42.03.893,MST_task,2024.2.0,60.02044295782636,2025-11-21 16h42.10.256067 +0530,
,Scenes\191a.jpg,47,0,48,,,,,,,j,2.046995299984701,0.12886789999902248,None,,,,,,48,0,47,303.7793699000031,,,,,,,,,,,,,,,,,,,,,,,303.76400109997485,303.7793699000031,304.2643525999738,,,,,,,,,,,,,,304.28611359995557,,,,,,,,,,,,,304.2829790000105,304.28611359995557,304.28611359995557,304.28611359995557,307.2803373999777,j,2.046995299984701,0.12886789999902248,307.28053240000736,307.28057870001066,None,,,,,,,,,,,,,,,,,00018,001,2025-11-21_16h42.03.893,MST_task,2024.2.0,60.02044295782636,2025-11-21 16h42.10.256067 +0530,
,Scenes\068a.jpg,48,0,49,,,,,,,j,0.7754824999719858,0.15992619999451563,None,,,,,,49,0,48,307.29642289999174,,,,,,,,,,,,,,,,,,,,,,,307.28081129997736,307.29642289999174,307.78032259998145,,,,,,,,,,,,,,307.80610980000347,,,,,,,,,,,,,307.8028942999663,307.80610980000347,307.80610980000347,307.80610980000347,310.7969698999659,j,0.7754824999719858,0.15992619999451563,310.797199499968,310.79726239998126,None,,,,,,,,,,,,,,,,,00018,001,2025-11-21_16h42.03.893,MST_task,2024.2.0,60.02044295782636,2025-11-21 16h42.10.256067 +0530,
,Objects\191a.jpg,49,0,50,,,,,,,j,1.86809370003175,0.21507819998078048,None,,,,,,50,0,49,310.8128536999575,,,,,,,,,,,,,,,,,,,,,,,310.7976899999776,310.8128536999575,311.2972547999816,,,,,,,,,,,,,,311.3146793000051,,,,,,,,,,,,,311.3112548000063,311.3146793000051,311.3146793000051,311.3146793000051,314.31371690001106,j,1.86809370003175,0.21507819998078048,314.313918299973,314.313978399965,None,,,,,,,,,,,,,,,,,00018,001,2025-11-21_16h42.03.893,MST_task,2024.2.0,60.02044295782636,2025-11-21 16h42.10.256067 +0530,
,Objects\099a.jpg,50,0,51,,,,,,,f,1.0639872000319883,0.21624949999386445,None,,,,,,51,0,50,314.3293962999596,,,,,,,,,,,,,,,,,,,,,,,314.314326599997,314.3293962999596,314.8131951999967,,,,,,,,,,,,,,314.8297076000017,,,,,,,,,,,,,314.8241429000045,314.8297076000017,314.8297076000017,314.8297076000017,317.81493529997533,f,1.0639872000319883,0.21624949999386445,317.81514590000734,317.8151956999791,None,317.8294079999905,317.8294079999905,317.8294079999905,,,,,,,,,,,,,,00018,001,2025-11-21_16h42.03.893,MST_task,2024.2.0,60.02044295782636,2025-11-21 16h42.10.256067 +0530,
,Objects\184a.jpg,51,0,52,,,,,,,f,2.497789199987892,0.24007400003029034,None,,,,,,52,0,51,317.8294079999905,,,,,,,,,,,,,,,,,,,,,,,317.8155030999915,317.8294079999905,318.31407580000814,,,,,,,,,,,,,,318.3320484999567,,,,,,,,,,,,,318.3294596999767,318.3320484999567,318.3320484999567,318.3320484999567,321.3299883999862,f,2.497789199987892,0.24007400003029034,321.3303029999952,321.33036959997844,None,,,,,,,,,,,,,,,,,00018,001,2025-11-21_16h42.03.893,MST_task,2024.2.0,60.02044295782636,2025-11-21 16h42.10.256067 +0530,
,Objects\122a.jpg,52,0,53,,,,,,,f,2.7910327999852598,0.1674821000196971,None,,,,,,53,0,52,321.3462658000062,,,,,,,,,,,,,,,,,,,,,,,321.33073129999684,321.3462658000062,321.83064070000546,,,,,,,,,,,,,,321.8470807999838,,,,,,,,,,,,,321.84445229999255,321.8470807999838,321.8470807999838,321.8470807999838,324.83108420000644,f,2.7910327999852598,0.1674821000196971,324.83126919995993,324.8313131000032,None,324.8461976000108,324.8461976000108,324.8461976000108,,,,,,,,,,,,,,00018,001,2025-11-21_16h42.03.893,MST_task,2024.2.0,60.02044295782636,2025-11-21 16h42.10.256067 +0530,
,Objects\040a.jpg,53,0,54,,,,,,,f,1.0499865000019781,0.15990740002598614,None,,,,,,54,0,53,324.8461976000108,,,,,,,,,,,,,,,,,,,,,,,324.8315620999783,324.8461976000108,325.33066709997365,,,,,,,,,,,,,,325.34750759997405,,,,,,,,,,,,,325.344963999989,325.34750759997405,325.34750759997405,325.34750759997405,328.346738799999,f,1.0499865000019781,0.15990740002598614,328.3469625999569,328.3470236999565,None,,,,,,,,,,,,,,,,,00018,001,2025-11-21_16h42.03.893,MST_task,2024.2.0,60.02044295782636,2025-11-21 16h42.10.256067 +0530,
,Objects\034a.jpg,54,0,55,,,,,,,f,1.3629599999985658,0.15220589999807999,None,,,,,,55,0,54,328.3630648999824,,,,,,,,,,,,,,,,,,,,,,,328.34733269998105,328.3630648999824,328.84749799995916,,,,,,,,,,,,,,328.8667365000001,,,,,,,,,,,,,328.8640113999718,328.8667365000001,328.8667365000001,328.8667365000001,331.8634832999669,f,1.3629599999985658,0.15220589999807999,331.8636804999551,331.8637318999972,None,,,,,,,,,,,,,,,,,00018,001,2025-11-21_16h42.03.893,MST_task,2024.2.0,60.02044295782636,2025-11-21 16h42.10.256067 +0530,
,Objects\069a.jpg,55,0,56,,,,,,,j,1.4631656000274234,0.15234939998481423,None,,,,,,56,0,55,331.87934980000136,,,,,,,,,,,,,,,,,,,,,,,331.8640441999887,331.87934980000136,332.3646970000118,,,,,,,,,,,,,,332.38221959996736,,,,,,,,,,,,,332.37966209999286,332.38221959996736,332.38221959996736,332.38221959996736,335.3804134000093,j,1.4631656000274234,0.15234939998481423,335.3806345000048,335.38069829996675,None,,,,,,,,,,,,,,,,,00018,001,2025-11-21_16h42.03.893,MST_task,2024.2.0,60.02044295782636,2025-11-21 16h42.10.256067 +0530,
,Scenes\152a.jpg,56,0,57,,,,,,,j,0.7029254999943078,0.12927570001920685,None,,,,,,57,0,56,335.39625039999373,,,,,,,,,,,,,,,,,,,,,,,335.3810616999981,335.39625039999373,335.88098189997254,,,,,,,,,,,,,,335.90262379997876,,,,,,,,,,,,,335.8995750999893,335.90262379997876,335.90262379997876,335.90262379997876,338.89694239996606,j,0.7029254999943078,0.12927570001920685,338.8971347999759,338.89718490000814,None,,,,,,,,,,,,,,,,,00018,001,2025-11-21_16h42.03.893,MST_task,2024.2.0,60.02044295782636,2025-11-21 16h42.10.256067 +0530,
,Scenes\002a.jpg,57,0,58,,,,,,,j,1.0483916000230238,0.13521229999605566,None,,,,,,58,0,57,338.913020899985,,,,,,,,,,,,,,,,,,,,,,,338.8975050000008,338.913020899985,339.39721329999156,,,,,,,,,,,,,,339.421589399979,,,,,,,,,,,,,339.4181147000054,339.421589399979,339.421589399979,339.421589399979,342.4135124000022,j,1.0483916000230238,0.13521229999605566,342.41370559995994,342.4137543999823,None,,,,,,,,,,,,,,,,,00018,001,2025-11-21_16h42.03.893,MST_task,2024.2.0,60.02044295782636,2025-11-21 16h42.10.256067 +0530,
,Scenes\055a.jpg,58,0,59,,,,,,,j,1.5152606000192463,0.1354482999886386,None,,,,,,59,0,58,342.429539499979,,,,,,,,,,,,,,,,,,,,,,,342.41411650000373,342.429539499979,342.91428639995866,,,,,,,,,,,,,,342.93841209996026,,,,,,,,,,,,,342.93487399996957,342.93841209996026,342.93841209996026,342.93841209996026,345.9301670999848,j,1.5152606000192463,0.1354482999886386,345.9303987000021,345.9304594999994,None,,,,,,,,,,,,,,,,,00018,001,2025-11-21_16h42.03.893,MST_task,2024.2.0,60.02044295782636,2025-11-21 16h42.10.256067 +0530,
,Scenes\088a.jpg,59,0,60,,,,,,,j,1.0962247000425123,0.09545289998641238,None,,,,,,60,0,59,345.94636309996713,,,,,,,,,,,,,,,,,,,,,,,345.93076550000114,345.94636309996713,346.43045990000246,,,,,,,,,,,,,,346.46165249997284,,,,,,,,,,,,,346.45795740000904,346.46165249997284,346.46165249997284,346.46165249997284,349.4469334000023,j,1.0962247000425123,0.09545289998641238,349.4471648999606,349.4472237000009,None,,,,,,,,,,,,,,,,,00018,001,2025-11-21_16h42.03.893,MST_task,2024.2.0,60.02044295782636,2025-11-21 16h42.10.256067 +0530,
,Scenes\032a.jpg,60,0,61,,,,,,,j,0.7992543999571353,0.12720960000297055,None,,,,,,61,0,60,349.4630630000029,,,,,,,,,,,,,,,,,,,,,,,349.44760600000154,349.4630630000029,349.9476730999886,,,,,,,,,,,,,,349.9750532999751,,,,,,,,,,,,,349.97143049997976,349.9750532999751,349.9750532999751,349.9750532999751,352.9636964999954,j,0.7992543999571353,0.12720960000297055,352.9639288999606,352.96399369998835,None,,,,,,,,,,,,,,,,,00018,001,2025-11-21_16h42.03.893,MST_task,2024.2.0,60.02044295782636,2025-11-21 16h42.10.256067 +0530,
,Scenes\053a.jpg,61,0,62,,,,,,,j,0.6663565000053495,0.1524162000278011,None,,,,,,62,0,61,352.9794555999688,,,,,,,,,,,,,,,,,,,,,,,352.9642956999596,352.9794555999688,353.46402989997296,,,,,,,,,,,,,,353.4831217000028,,,,,,,,,,,,,353.4799742999603,353.4831217000028,353.4831217000028,353.4831217000028,356.48010330001125,j,0.6663565000053495,0.1524162000278011,356.4803247000091,356.48038510000333,None,,,,,,,,,,,,,,,,,00018,001,2025-11-21_16h42.03.893,MST_task,2024.2.0,60.02044295782636,2025-11-21 16h42.10.256067 +0530,
,Scenes\011a.jpg,62,0,63,,,,,,,j,1.9246226000250317,0.15265100001124665,None,,,,,,63,0,62,356.4963576999726,,,,,,,,,,,,,,,,,,,,,,,356.48079719999805,356.4963576999726,356.98089679999975,,,,,,,,,,,,,,357.0085875999648,,,,,,,,,,,,,357.0054720999906,357.0085875999648,357.0085875999648,357.0085875999648,359.9967767999624,j,1.9246226000250317,0.15265100001124665,359.99702299997443,359.99708760000067,None,,,,,,,,,,,,,,,,,00018,001,2025-11-21_16h42.03.893,MST_task,2024.2.0,60.02044295782636,2025-11-21 16h42.10.256067 +0530,
,Objects\042a.jpg,63,0,64,,,,,,,f,0.9606174000073224,0.22428010002477095,None,,,,,,64,0,63,360.01299749995815,,,,,,,,,,,,,,,,,,,,,,,359.9974656999693,360.01299749995815,360.4977988000028,,,,,,,,,,,,,,360.51704529998824,,,,,,,,,,,,,360.51366729999427,360.51704529998824,360.51704529998824,360.51704529998824,363.5134231999982,f,0.9606174000073224,0.22428010002477095,363.5136749999947,363.5137364999973,None,,,,,,,,,,,,,,,,,00018,001,2025-11-21_16h42.03.893,MST_task,2024.2.0,60.02044295782636,2025-11-21 16h42.10.256067 +0530,
,Objects\172a.jpg,64,0,65,,,,,,,j,0.9973574000177905,0.14425840001786128,None,,,,,,65,0,64,363.52946930000326,,,,,,,,,,,,,,,,,,,,,,,363.5140400999808,363.52946930000326,364.0147481999593,,,,,,,,,,,,,,364.0318408999592,,,,,,,,,,,,,364.0291535999859,364.0318408999592,364.0318408999592,364.0318408999592,367.03020769997966,j,0.9973574000177905,0.14425840001786128,367.0304870000109,367.03068819997134,None,,,,,,,,,,,,,,,,,00018,001,2025-11-21_16h42.03.893,MST_task,2024.2.0,60.02044295782636,2025-11-21 16h42.10.256067 +0530,
,Objects\178a.jpg,65,0,66,,,,,,,j,1.3960347999818623,0.18385770003078505,None,,,,,,66,0,65,367.04623189999256,,,,,,,,,,,,,,,,,,,,,,,367.03123560000677,367.04623189999256,367.5305061999825,,,,,,,,,,,,,,367.55333679995965,,,,,,,,,,,,,367.5505092999665,367.55333679995965,367.55333679995965,367.55333679995965,370.54693069995847,j,1.3960347999818623,0.18385770003078505,370.5471320999786,370.54719099996146,None,,,,,,,,,,,,,,,,,00018,001,2025-11-21_16h42.03.893,MST_task,2024.2.0,60.02044295782636,2025-11-21 16h42.10.256067 +0530,
,Objects\025a.jpg,66,0,67,,,,,,,j,0.822125100006815,0.12827789998846129,None,,,,,,67,0,66,370.56305299996166,,,,,,,,,,,,,,,,,,,,,,,370.5475316999946,370.56305299996166,371.0472818999551,,,,,,,,,,,,,,371.0638003000058,,,,,,,,,,,,,371.06116689997725,371.0638003000058,371.0638003000058,371.0638003000058,374.0485573000042,j,0.822125100006815,0.12827789998846129,374.04879119998077,374.04885229998035,None,374.0630148999626,374.0630148999626,374.0630148999626,,,,,,,,,,,,,,00018,001,2025-11-21_16h42.03.893,MST_task,2024.2.0,60.02044295782636,2025-11-21 16h42.10.256067 +0530,
,Objects\011a.jpg,67,0,68,,,,,,,None,,,f,0.026034999988041818,None,,,,68,0,67,374.0630148999626,,,,,,,,,,,,,,,,,,,,,,,374.0492735999869,374.0630148999626,374.5475458999863,,,,,,,,,,,,,,374.5647505999659,,,,,,,,,,,,,374.56221209996147,374.5647505999659,374.5647505999659,374.5647505999659,377.5636595999822,None,,,377.56384650000837,377.6152808999759,f,,,,377.5794664999703,377.5794664999703,0.026034999988041818,None,,,,,,,,,,00018,001,2025-11-21_16h42.03.893,MST_task,2024.2.0,60.02044295782636,2025-11-21 16h42.10.256067 +0530,
,Objects\087a.jpg,68,0,69,,,,,,,j,1.751588199986145,0.14385429996764287,None,,,,,,69,0,68,377.62959769996814,,,,,,,,,,,,,,,,,,,,,,,377.615612900001,377.62959769996814,378.1146133999573,,,,,,,,,,,,,,378.1338298000046,,,,,,,,,,,,,378.1312670999905,378.1338298000046,378.1338298000046,378.1338298000046,381.1297819999745,j,1.751588199986145,0.14385429996764287,381.129894499958,381.12992289999966,None,,,,,,,,,,,,,,,,,00018,001,2025-11-21_16h42.03.893,MST_task,2024.2.0,60.02044295782636,2025-11-21 16h42.10.256067 +0530,
,Objects\091a.jpg,69,0,70,,,,,,,j,0.9150008000433445,0.11229379998985678,None,,,,,,70,0,69,381.14622059999965,,,,,,,,,,,,,,,,,,,,,,,381.13010879996,381.14622059999965,381.63092339999275,,,,,,,,,,,,,,381.6505295999814,,,,,,,,,,,,,381.64769919996615,381.6505295999814,381.6505295999814,381.6505295999814,384.64672869996866,j,0.9150008000433445,0.11229379998985678,384.64689380000345,384.64693539997097,None,,,,,,,,,,,,,,,,,00018,001,2025-11-21_16h42.03.893,MST_task,2024.2.0,60.02044295782636,2025-11-21 16h42.10.256067 +0530,
,Scenes\121a.jpg,70,0,71,,,,,,,j,0.7869814999867231,0.10360220004804432,None,,,,,,71,0,70,384.66291959997034,,,,,,,,,,,,,,,,,,,,,,,384.64721259998623,384.66291959997034,385.14755559997866,,,,,,,,,,,,,,385.17118820000906,,,,,,,,,,,,,385.16805219999515,385.17118820000906,385.17118820000906,385.17118820000906,388.1636453999672,j,0.7869814999867231,0.10360220004804432,388.1638730999548,388.16393579996657,None,,,,,,,,,,,,,,,,,00018,001,2025-11-21_16h42.03.893,MST_task,2024.2.0,60.02044295782636,2025-11-21 16h42.10.256067 +0530,
,Scenes\122a.jpg,71,0,72,,,,,,,f,1.1759783999877982,0.16032830002950504,None,,,,,,72,0,71,388.17956139997113,,,,,,,,,,,,,,,,,,,,,,,388.1643108999706,388.17956139997113,388.66410759999417,,,,,,,,,,,,,,388.69318199995905,,,,,,,,,,,,,388.68993579997914,388.69318199995905,388.69318199995905,388.69318199995905,391.6800449999864,f,1.1759783999877982,0.16032830002950504,391.6802854000125,391.6803508999874,None,,,,,,,,,,,,,,,,,00018,001,2025-11-21_16h42.03.893,MST_task,2024.2.0,60.02044295782636,2025-11-21 16h42.10.256067 +0530,
,Scenes\021a.jpg,72,0,73,,,,,,,f,1.0870039999717847,0.23162760003469884,None,,,,,,73,0,72,391.6962570999749,,,,,,,,,,,,,,,,,,,,,,,391.6807484999881,391.6962570999749,392.1807720999932,,,,,,,,,,,,,,392.2066257999977,,,,,,,,,,,,,392.20340769999893,392.2066257999977,392.2066257999977,392.2066257999977,395.1969270000118,f,1.0870039999717847,0.23162760003469884,395.1971128999721,395.197164000012,None,,,,,,,,,,,,,,,,,00018,001,2025-11-21_16h42.03.893,MST_task,2024.2.0,60.02044295782636,2025-11-21 16h42.10.256067 +0530,
,Scenes\154a.jpg,73,0,74,,,,,,,j,1.1903179999790154,0.15264960000058636,None,,,,,,74,0,73,395.2129904999747,,,,,,,,,,,,,,,,,,,,,,,395.19741500000237,395.2129904999747,395.6974419999751,,,,,,,,,,,,,,395.71880939998664,,,,,,,,,,,,,395.71554479998304,395.71880939998664,395.71880939998664,395.71880939998664,398.71356959996046,j,1.1903179999790154,0.15264960000058636,398.7137772999704,398.7138295999612,None,,,,,,,,,,,,,,,,,00018,001,2025-11-21_16h42.03.893,MST_task,2024.2.0,60.02044295782636,2025-11-21 16h42.10.256067 +0530,
,Scenes\049a.jpg,74,0,75,,,,,,,j,0.6020352999912575,0.16852810001000762,None,,,,,,75,0,74,398.72945159999654,,,,,,,,,,,,,,,,,,,,,,,398.71413679997204,398.72945159999654,399.2139930999838,,,,,,,,,,,,,,399.23509959998773,,,,,,,,,,,,,399.2323596999631,399.23509959998773,399.23509959998773,399.23509959998773,402.2301177000045,j,0.6020352999912575,0.16852810001000762,402.2303302999935,402.23038919997634,None,,,,,,,,,,,,,,,,,00018,001,2025-11-21_16h42.03.893,MST_task,2024.2.0,60.02044295782636,2025-11-21 16h42.10.256067 +0530,
,Scenes\111a.jpg,75,0,76,,,,,,,j,1.0401009999914095,0.20017269998788834,None,,,,,,76,0,75,402.2462880999665,,,,,,,,,,,,,,,,,,,,,,,402.2307665999979,402.2462880999665,402.730792599963,,,,,,,,,,,,,,402.749387799995,,,,,,,,,,,,,402.74676419998286,402.749387799995,402.749387799995,402.749387799995,405.74675859999843,j,1.0401009999914095,0.20017269998788834,405.74707059998764,405.7471510999603,None,,,,,,,,,,,,,,,,,00018,001,2025-11-21_16h42.03.893,MST_task,2024.2.0,60.02044295782636,2025-11-21 16h42.10.256067 +0530,
,Scenes\180a.jpg,76,0,77,,,,,,,j,1.1279632999794558,0.16004410001914948,None,,,,,,77,0,76,405.7628902999568,,,,,,,,,,,,,,,,,,,,,,,405.7474857000052,405.7628902999568,406.24764309998136,,,,,,,,,,,,,,406.26936629996635,,,,,,,,,,,,,406.26660619996255,406.26936629996635,406.26936629996635,406.26936629996635,409.2638255999773,j,1.1279632999794558,0.16004410001914948,409.2639968000003,409.264044200012,None,,,,,,,,,,,,,,,,,00018,001,2025-11-21_16h42.03.893,MST_task,2024.2.0,60.02044295782636,2025-11-21 16h42.10.256067 +0530,
,Objects\033a.jpg,77,0,78,,,,,,,f,0.7617177999927662,0.143881700001657,None,,,,,,78,0,77,409.2796013999614,,,,,,,,,,,,,,,,,,,,,,,409.26426550000906,409.2796013999614,409.76310380001087,,,,,,,,,,,,,,409.78011559997685,,,,,,,,,,,,,409.7729900999693,409.78011559997685,409.78011559997685,409.78011559997685,412.76526129996637,f,0.7617177999927662,0.143881700001657,412.7654951000004,412.7655555999954,None,412.77976040000794,412.77976040000794,412.77976040000794,,,,,,,,,,,,,,00018,001,2025-11-21_16h42.03.893,MST_task,2024.2.0,60.02044295782636,2025-11-21 16h42.10.256067 +0530,
,Objects\027a.jpg,78,0,79,,,,,,,f,1.986314699985087,0.22459260001778603,None,,,,,,79,0,78,412.77976040000794,,,,,,,,,,,,,,,,,,,,,,,412.7658958999673,412.77976040000794,413.2638200999936,,,,,,,,,,,,,,413.28298749995884,,,,,,,,,,,,,413.28046979999635,413.28298749995884,413.28298749995884,413.28298749995884,416.2800548999803,f,1.986314699985087,0.22459260001778603,416.28024860000005,416.2803016999969,None,,,,,,,,,,,,,,,,,00018,001,2025-11-21_16h42.03.893,MST_task,2024.2.0,60.02044295782636,2025-11-21 16h42.10.256067 +0530,
,Objects\190a.jpg,79,0,80,,,,,,,f,2.6868688000249676,0.21561229997314513,None,,,,,,80,0,79,416.29656180000165,,,,,,,,,,,,,,,,,,,,,,,416.28058849996887,416.29656180000165,416.78082529996755,,,,,,,,,,,,,,416.7986614999827,,,,,,,,,,,,,416.7961493000039,416.7986614999827,416.7986614999827,416.7986614999827,419.797027099994,f,2.6868688000249676,0.21561229997314513,419.7973655000096,419.7974304999807,None,,,,,,,,,,,,,,,,,00018,001,2025-11-21_16h42.03.893,MST_task,2024.2.0,60.02044295782636,2025-11-21 16h42.10.256067 +0530,
,Objects\018a.jpg,80,0,81,,,,,,,f,0.8987468000268564,0.17590549995657057,None,,,,,,81,0,80,419.8130186999915,,,,,,,,,,,,,,,,,,,,,,,419.7977344999672,419.8130186999915,420.2976231999928,,,,,,,,,,,,,,420.3154879999929,,,,,,,,,,,,,420.3128513999982,420.3154879999929,420.3154879999929,420.3154879999929,423.3134327000007,f,0.8987468000268564,0.17590549995657057,423.3136657999712,423.3137275999761,None,,,,,,,,,,,,,,,,,00018,001,2025-11-21_16h42.03.893,MST_task,2024.2.0,60.02044295782636,2025-11-21 16h42.10.256067 +0530,
,Objects\141a.jpg,81,0,82,,,,,,,j,1.478045199997723,0.11893480003345758,None,,,,,,82,0,81,423.3298030999722,,,,,,,,,,,,,,,,,,,,,,,423.3142104999861,423.3298030999722,423.8141284000012,,,,,,,,,,,,,,423.83218560001114,,,,,,,,,,,,,423.82954609999433,423.83218560001114,423.83218560001114,423.83218560001114,426.830094999983,j,1.478045199997723,0.11893480003345758,426.8303217999637,426.8303838999709,None,,,,,,,,,,,,,,,,,00018,001,2025-11-21_16h42.03.893,MST_task,2024.2.0,60.02044295782636,2025-11-21 16h42.10.256067 +0530,
,Objects\014a.jpg,82,0,83,,,,,,,f,0.8971698000095785,0.1521237999550067,None,,,,,,83,0,82,426.84624119999353,,,,,,,,,,,,,,,,,,,,,,,426.83072460000403,426.84624119999353,427.33100629999535,,,,,,,,,,,,,,427.34844829997746,,,,,,,,,,,,,427.3456968999817,427.34844829997746,427.34844829997746,427.34844829997746,430.3469485999667,f,0.8971698000095785,0.1521237999550067,430.3474789999891,430.3475606999709,None,,,,,,,,,,,,,,,,,00018,001,2025-11-21_16h42.03.893,MST_task,2024.2.0,60.02044295782636,2025-11-21 16h42.10.256067 +0530,
,Objects\134a.jpg,83,0,84,,,,,,,f,2.332433699979447,0.24073080002563074,None,,,,,,84,0,83,430.3629526000004,,,,,,,,,,,,,,,,,,,,,,,430.34797149995575,430.3629526000004,430.8473110999912,,,,,,,,,,,,,,430.86506759998156,,,,,,,,,,,,,430.8624848999898,430.86506759998156,430.86506759998156,430.86506759998156,433.8635826999671,f,2.332433699979447,0.24073080002563074,433.8638314999989,433.8638932000031,None,,,,,,,,,,,,,,,,,00018,001,2025-11-21_16h42.03.893,MST_task,2024.2.0,60.02044295782636,2025-11-21 16h42.10.256067 +0530,
,Scenes\033a.jpg,84,0,85,,,,,,,j,1.1838684999966063,0.12031909998040646,None,,,,,,85,0,84,433.87944039999275,,,,,,,,,,,,,,,,,,,,,,,433.86428939999314,433.87944039999275,434.36403269995935,,,,,,,,,,,,,,434.38168980000773,,,,,,,,,,,,,434.3786160000018,434.38168980000773,434.38168980000773,434.38168980000773,437.38056590000633,j,1.1838684999966063,0.12031909998040646,437.380804299959,437.38086699997075,None,,,,,,,,,,,,,,,,,00018,001,2025-11-21_16h42.03.893,MST_task,2024.2.0,60.02044295782636,2025-11-21 16h42.10.256067 +0530,
,Scenes\189a.jpg,85,0,86,,,,,,,j,0.5637311000027694,0.11120410001603886,None,,,,,,86,0,85,437.39616469998145,,,,,,,,,,,,,,,,,,,,,,,437.38117279997095,437.39616469998145,437.8808729999582,,,,,,,,,,,,,,437.9064445999684,,,,,,,,,,,,,437.9034106999752,437.9064445999684,437.9064445999684,437.9064445999684,440.8969702000031,j,0.5637311000027694,0.11120410001603886,440.8972501999815,440.89731009997195,None,,,,,,,,,,,,,,,,,00018,001,2025-11-21_16h42.03.893,MST_task,2024.2.0,60.02044295782636,2025-11-21 16h42.10.256067 +0530,
,Scenes\047a.jpg,86,0,87,,,,,,,j,1.0884014999610372,0.1676263000117615,None,,,,,,87,0,86,440.9128518999787,,,,,,,,,,,,,,,,,,,,,,,440.89760709996335,440.9128518999787,441.3973182999762,,,,,,,,,,,,,,441.4216356999823,,,,,,,,,,,,,441.4183648999897,441.4216356999823,441.4216356999823,441.4216356999823,444.4135864999844,j,1.0884014999610372,0.1676263000117615,444.4138049999601,444.4138658999582,None,,,,,,,,,,,,,,,,,00018,001,2025-11-21_16h42.03.893,MST_task,2024.2.0,60.02044295782636,2025-11-21 16h42.10.256067 +0530,
,Scenes\159a.jpg,87,0,88,,,,,,,j,1.05767820001347,0.10352679999778047,None,,,,,,88,0,87,444.4294489999884,,,,,,,,,,,,,,,,,,,,,,,444.4143003000063,444.4294489999884,444.9141018000082,,,,,,,,,,,,,,444.94033369998215,,,,,,,,,,,,,444.9370277999551,444.94033369998215,444.94033369998215,444.94033369998215,447.9301968999789,j,1.05767820001347,0.10352679999778047,447.9305572999874,447.9306302999612,None,,,,,,,,,,,,,,,,,00018,001,2025-11-21_16h42.03.893,MST_task,2024.2.0,60.02044295782636,2025-11-21 16h42.10.256067 +0530,
,Scenes\141a.jpg,88,0,89,,,,,,,j,0.965029799961485,0.11911110003711656,None,,,,,,89,0,88,447.9462695000111,,,,,,,,,,,,,,,,,,,,,,,447.93101999996,447.9462695000111,448.43078900000546,,,,,,,,,,,,,,448.4491119000013,,,,,,,,,,,,,448.44575299997814,448.4491119000013,448.4491119000013,448.4491119000013,451.4469317999901,j,0.965029799961485,0.11911110003711656,451.44717060000403,451.44723240000894,None,,,,,,,,,,,,,,,,,00018,001,2025-11-21_16h42.03.893,MST_task,2024.2.0,60.02044295782636,2025-11-21 16h42.10.256067 +0530,
,Scenes\151a.jpg,89,0,90,,,,,,,j,0.7416072000050917,0.15963440004270524,None,,,,,,90,0,89,451.46294249995844,,,,,,,,,,,,,,,,,,,,,,,451.4476194999879,451.46294249995844,451.9474777999567,,,,,,,,,,,,,,451.96805719996337,,,,,,,,,,,,,451.965423799993,451.96805719996337,451.96805719996337,451.96805719996337,454.9638015999808,j,0.7416072000050917,0.15963440004270524,454.9640230999794,454.96408559998963,None,,,,,,,,,,,,,,,,,00018,001,2025-11-21_16h42.03.893,MST_task,2024.2.0,60.02044295782636,2025-11-21 16h42.10.256067 +0530,
,Scenes\107a.jpg,90,0,91,,,,,,,j,1.2375698999967426,0.11241820000577718,None,,,,,,91,0,90,454.97944819997065,,,,,,,,,,,,,,,,,,,,,,,454.9643961999682,454.97944819997065,455.46407180000097,,,,,,,,,,,,,,455.4874934999971,,,,,,,,,,,,,455.4842774999561,455.4874934999971,455.4874934999971,455.4874934999971,458.4802161999978,j,1.2375698999967426,0.11241820000577718,458.4804552999558,458.4805163999554,None,,,,,,,,,,,,,,,,,00018,001,2025-11-21_16h42.03.893,MST_task,2024.2.0,60.02044295782636,2025-11-21 16h42.10.256067 +0530,
,Objects\059a.jpg,91,0,92,,,,,,,f,1.9493372999713756,0.2165229000383988,None,,,,,,92,0,91,458.4962748999824,,,,,,,,,,,,,,,,,,,,,,,458.4808169999742,458.4962748999824,458.9809743000078,,,,,,,,,,,,,,458.99990910000633,,,,,,,,,,,,,458.99677229998633,458.99990910000633,458.99990910000633,458.99990910000633,461.99695959995734,f,1.9493372999713756,0.2165229000383988,461.9972012999933,461.9972620999906,None,,,,,,,,,,,,,,,,,00018,001,2025-11-21_16h42.03.893,MST_task,2024.2.0,60.02044295782636,2025-11-21 16h42.10.256067 +0530,
,Objects\053a.jpg,92,0,93,,,,,,,f,0.8662518000346608,0.19965439999941736,None,,,,,,93,0,92,462.0129137999611,,,,,,,,,,,,,,,,,,,,,,,461.9976429999806,462.0129137999611,462.49747469997965,,,,,,,,,,,,,,462.51539039995987,,,,,,,,,,,,,462.5127771999687,462.51539039995987,462.51539039995987,462.51539039995987,465.51374419999775,f,0.8662518000346608,0.19965439999941736,465.51396620000014,465.51402719999896,None,,,,,,,,,,,,,,,,,00018,001,2025-11-21_16h42.03.893,MST_task,2024.2.0,60.02044295782636,2025-11-21 16h42.10.256067 +0530,
,Objects\107a.jpg,93,0,94,,,,,,,j,1.3427782999933697,0.14487359998747706,None,,,,,,94,0,93,465.5296906000003,,,,,,,,,,,,,,,,,,,,,,,465.5144521999755,465.5296906000003,466.01417129999027,,,,,,,,,,,,,,466.030972699984,,,,,,,,,,,,,466.0283455000026,466.030972699984,466.030972699984,466.030972699984,469.0300862999866,j,1.3427782999933697,0.14487359998747706,469.0302437999635,469.0302885999554,None,,,,,,,,,,,,,,,,,00018,001,2025-11-21_16h42.03.893,MST_task,2024.2.0,60.02044295782636,2025-11-21 16h42.10.256067 +0530,
,Objects\061a.jpg,94,0,95,,,,,,,j,2.201000400003977,0.12831860000733286,None,,,,,,95,0,94,469.0464069999871,,,,,,,,,,,,,,,,,,,,,,,469.0305850000004,469.0464069999871,469.5311265999917,,,,,,,,,,,,,,469.5482417999883,,,,,,,,,,,,,469.5456858999678,469.5482417999883,469.5482417999883,469.5482417999883,472.54705439996906,j,2.201000400003977,0.12831860000733286,472.5472679999657,472.54734499996994,None,,,,,,,,,,,,,,,,,00018,001,2025-11-21_16h42.03.893,MST_task,2024.2.0,60.02044295782636,2025-11-21 16h42.10.256067 +0530,
,Objects\161a.jpg,95,0,96,,,,,,,j,0.7967906999983825,0.14375960000324994,None,,,,,,96,0,95,472.5631467999774,,,,,,,,,,,,,,,,,,,,,,,472.54771489999257,472.5631467999774,473.04785049997736,,,,,,,,,,,,,,473.06520279997494,,,,,,,,,,,,,473.0624347999692,473.06520279997494,473.06520279997494,473.06520279997494,476.0637501999736,j,0.7967906999983825,0.14375960000324994,476.06395619997056,476.0640168999671,None,,,,,,,,,,,,,,,,,00018,001,2025-11-21_16h42.03.893,MST_task,2024.2.0,60.02044295782636,2025-11-21 16h42.10.256067 +0530,
,Objects\183a.jpg,96,0,97,,,,,,,f,0.8555107999709435,0.17609100003028288,None,,,,,,97,0,96,476.0796554000117,,,,,,,,,,,,,,,,,,,,,,,476.0643159999745,476.0796554000117,476.5643800999969,,,,,,,,,,,,,,476.5822030999698,,,,,,,,,,,,,476.5795352999703,476.5822030999698,476.5822030999698,476.5822030999698,479.58056019997457,f,0.8555107999709435,0.17609100003028288,479.5807900999789,479.58084999996936,None,,,,,,,,,,,,,,,,,00018,001,2025-11-21_16h42.03.893,MST_task,2024.2.0,60.02044295782636,2025-11-21 16h42.10.256067 +0530,
,Objects\045a.jpg,97,0,98,,,,,,,f,1.9382203999557532,0.20844390004640445,None,,,,,,98,0,97,479.59644059999846,,,,,,,,,,,,,,,,,,,,,,,479.5812346999883,479.59644059999846,480.0809070999967,,,,,,,,,,,,,,480.0991144999862,,,,,,,,,,,,,480.09632829995826,480.0991144999862,480.0991144999862,480.0991144999862,483.0973578999983,f,1.9382203999557532,0.20844390004640445,483.0975882000057,483.0976500000106,None,,,,,,,,,,,,,,,,,00018,001,2025-11-21_16h42.03.893,MST_task,2024.2.0,60.02044295782636,2025-11-21 16h42.10.256067 +0530,
,Scenes\044a.jpg,98,0,99,,,,,,,f,1.8578454999951646,0.19177219999255612,None,,,,,,99,0,98,483.1131389999646,,,,,,,,,,,,,,,,,,,,,,,483.0980218999903,483.1131389999646,483.5977724000113,,,,,,,,,,,,,,483.619890699978,,,,,,,,,,,,,483.6166383000091,483.619890699978,483.619890699978,483.619890699978,486.61378869996406,f,1.8578454999951646,0.19177219999255612,486.6140069999965,486.61406789999455,None,,,,,,,,,,,,,,,,,00018,001,2025-11-21_16h42.03.893,MST_task,2024.2.0,60.02044295782636,2025-11-21 16h42.10.256067 +0530,
,Scenes\035a.jpg,99,0,100,,,,,,,None,,,j,0.7633056999766268,None,,,,100,0,99,486.6296771999914,,,,,,,,,,,,,,,,,,,,,,,486.61437239998486,486.6296771999914,487.1143685999559,,,,,,,,,,,,,,487.1402659000014,,,,,,,,,,,,,487.13694810000015,487.1402659000014,487.1402659000014,487.1402659000014,490.13034929998685,None,,,490.130546099972,490.91523099999176,j,,,,490.1464869999909,490.1464869999909,0.7633056999766268,None,,,,,,,,,,00018,001,2025-11-21_16h42.03.893,MST_task,2024.2.0,60.02044295782636,2025-11-21 16h42.10.256067 +0530,
,Scenes\085a.jpg,100,0,101,,,,,,,j,2.05970189999789,0.11968559998786077,None,,,,,,101,0,100,490.9297343000071,,,,,,,,,,,,,,,,,,,,,,,490.91561399999773,490.9297343000071,491.4143498999765,,,,,,,,,,,,,,491.4420535999816,,,,,,,,,,,,,491.43920329998946,491.4420535999816,491.4420535999816,491.4420535999816,494.4304711999721,j,2.05970189999789,0.11968559998786077,494.43070789997,494.4307859999826,None,,,,,,,,,,,,,,,,,00018,001,2025-11-21_16h42.03.893,MST_task,2024.2.0,60.02044295782636,2025-11-21 16h42.10.256067 +0530,
,Scenes\142a.jpg,101,0,102,,,,,,,j,0.8345686999964528,0.14452620001975447,None,,,,,,102,0,101,494.4465732999961,,,,,,,,,,,,,,,,,,,,,,,494.4311825999757,494.4465732999961,494.93095999996876,,,,,,,,,,,,,,494.95481869997457,,,,,,,,,,,,,494.9520365999779,494.95481869997457,494.95481869997457,494.95481869997457,497.9471349999658,j,0.8345686999964528,0.14452620001975447,497.94737800001167,497.9474435999873,None,,,,,,,,,,,,,,,,,00018,001,2025-11-21_16h42.03.893,MST_task,2024.2.0,60.02044295782636,2025-11-21 16h42.10.256067 +0530,
,Scenes\087a.jpg,102,0,103,,,,,,,j,0.5305776000022888,0.14386000001104549,None,,,,,,103,0,102,497.962926600012,,,,,,,,,,,,,,,,,,,,,,,497.9478926999727,497.962926600012,498.4472899999819,,,,,,,,,,,,,,498.46748729998944,,,,,,,,,,,,,498.46423250000225,498.46748729998944,498.46748729998944,498.46748729998944,501.46360119996825,j,0.5305776000022888,0.14386000001104549,501.4638859999832,501.4640124999569,None,,,,,,,,,,,,,,,,,00018,001,2025-11-21_16h42.03.893,MST_task,2024.2.0,60.02044295782636,2025-11-21 16h42.10.256067 +0530,
,Scenes\188a.jpg,103,0,104,,,,,,,j,1.0524980999762192,0.12784000003011897,None,,,,,,104,0,103,501.47962539998116,,,,,,,,,,,,,,,,,,,,,,,501.46434609999415,501.47962539998116,501.96432460000506,,,,,,,,,,,,,,501.9853656999767,,,,,,,,,,,,,501.9821825000108,501.9853656999767,501.9853656999767,501.9853656999767,504.9802086999989,j,1.0524980999762192,0.12784000003011897,504.98042949999217,504.980490499991,None,,,,,,,,,,,,,,,,,00018,001,2025-11-21_16h42.03.893,MST_task,2024.2.0,60.02044295782636,2025-11-21 16h42.10.256067 +0530,
,Scenes\174a.jpg,104,0,105,,,,,,,j,1.0755529999732971,0.15224980004131794,None,,,,,,105,0,104,504.9963237000047,,,,,,,,,,,,,,,,,,,,,,,504.98079689999577,504.9963237000047,505.4805758000002,,,,,,,,,,,,,,505.5060125999735,,,,,,,,,,,,,505.50285099999746,505.5060125999735,505.5060125999735,505.5060125999735,508.49687749997247,j,1.0755529999732971,0.15224980004131794,508.49708219995955,508.497146299982,None,,,,,,,,,,,,,,,,,00018,001,2025-11-21_16h42.03.893,MST_task,2024.2.0,60.02044295782636,2025-11-21 16h42.10.256067 +0530,
,Objects\167a.jpg,105,0,106,,,,,,,f,2.4029807000188157,0.19994919997407123,None,,,,,,106,0,105,508.5130831999704,,,,,,,,,,,,,,,,,,,,,,,508.49745349999284,508.5130831999704,508.9976493999711,,,,,,,,,,,,,,509.0186734999879,,,,,,,,,,,,,509.0154353000107,509.0186734999879,509.0186734999879,509.0186734999879,512.0135100999614,f,2.4029807000188157,0.19994919997407123,512.0137281999923,512.0137894999934,None,,,,,,,,,,,,,,,,,00018,001,2025-11-21_16h42.03.893,MST_task,2024.2.0,60.02044295782636,2025-11-21 16h42.10.256067 +0530,
,Objects\044a.jpg,106,0,107,,,,,,,j,2.7708925000042655,0.12754030001815408,None,,,,,,107,0,106,512.0296564999735,,,,,,,,,,,,,,,,,,,,,,,512.0140857999795,512.0296564999735,512.5141728000017,,,,,,,,,,,,,,512.5317984999856,,,,,,,,,,,,,512.5292030999553,512.5317984999856,512.5317984999856,512.5317984999856,515.5301027999958,j,2.7708925000042655,0.12754030001815408,515.530345599982,515.5304083999945,None,,,,,,,,,,,,,,,,,00018,001,2025-11-21_16h42.03.893,MST_task,2024.2.0,60.02044295782636,2025-11-21 16h42.10.256067 +0530,
,Objects\143a.jpg,107,0,108,,,,,,,f,2.7673483999678865,0.19230730005074292,None,,,,,,108,0,107,515.546333300008,,,,,,,,,,,,,,,,,,,,,,,515.5307522999938,515.546333300008,516.0302102999995,,,,,,,,,,,,,,516.0464367999812,,,,,,,,,,,,,516.0394815999898,516.0464367999812,516.0464367999812,516.0464367999812,519.0318191999686,f,2.7673483999678865,0.19230730005074292,519.0320399999619,519.0320881999796,None,519.046229599975,519.046229599975,519.046229599975,,,,,,,,,,,,,,00018,001,2025-11-21_16h42.03.893,MST_task,2024.2.0,60.02044295782636,2025-11-21 16h42.10.256067 +0530,
,Objects\007a.jpg,108,0,109,,,,,,,f,1.6156870999839157,0.15205520001472905,None,,,,,,109,0,108,519.046229599975,,,,,,,,,,,,,,,,,,,,,,,519.0323382999632,519.046229599975,519.5312538999715,,,,,,,,,,,,,,519.549955800001,,,,,,,,,,,,,519.5472151999711,519.549955800001,519.549955800001,519.549955800001,522.5469699999667,f,1.6156870999839157,0.15205520001472905,522.5471888000029,522.5472502000048,None,,,,,,,,,,,,,,,,,00018,001,2025-11-21_16h42.03.893,MST_task,2024.2.0,60.02044295782636,2025-11-21 16h42.10.256067 +0530,
,Objects\149a.jpg,109,0,110,,,,,,,f,1.2904036000254564,0.1364795999834314,None,,,,,,110,0,109,522.5630477999803,,,,,,,,,,,,,,,,,,,,,,,522.5475570000126,522.5630477999803,523.0477264999645,,,,,,,,,,,,,,523.0670905999723,,,,,,,,,,,,,523.0639793999726,523.0670905999723,523.0670905999723,523.0670905999723,526.0635894999723,f,1.2904036000254564,0.1364795999834314,526.0638107999694,526.063871899969,None,,,,,,,,,,,,,,,,,00018,001,2025-11-21_16h42.03.893,MST_task,2024.2.0,60.02044295782636,2025-11-21 16h42.10.256067 +0530,
,Objects\139a.jpg,110,0,111,,,,,,,f,2.75483130000066,None,None,,,,,,111,0,110,526.0794950999552,,,,,,,,,,,,,,,,,,,,,,,526.0642451999593,526.0794950999552,526.5641593000037,,,,,,,,,,,,,,526.5867830999778,,,,,,,,,,,,,526.584136099962,526.5867830999778,526.5867830999778,526.5867830999778,529.5807958999649,f,2.75483130000066,None,529.5809672999894,529.5810108999722,None,,,,,,,,,,,,,,,,,00018,001,2025-11-21_16h42.03.893,MST_task,2024.2.0,60.02044295782636,2025-11-21 16h42.10.256067 +0530,
,Objects\185a.jpg,111,0,112,,,,,,,None,,,f,1.0682533000363037,None,,,,112,0,111,529.5962396999821,,,,,,,,,,,,,,,,,,,,,,,529.5812149000121,529.5962396999821,530.080919799977,,,,,,,,,,,,,,530.0989020999987,,,,,,,,,,,,,530.0963255999959,530.0989020999987,530.0989020999987,530.0989020999987,533.0970481999684,None,,,533.0972260999843,534.1985029999632,f,,,,533.1131101999781,533.1131101999781,1.0682533000363037,None,,,,,,,,,,00018,001,2025-11-21_16h42.03.893,MST_task,2024.2.0,60.02044295782636,2025-11-21 16h42.10.256067 +0530,
,Scenes\192a.jpg,112,0,113,,,,,,,j,0.9545052999746986,0.18449289997806773,None,,,,,,113,0,112,534.2130143999821,,,,,,,,,,,,,,,,,,,,,,,534.1989924999652,534.2130143999821,534.6976188999834,,,,,,,,,,,,,,534.7228161999956,,,,,,,,,,,,,534.7197233999614,534.7228161999956,534.7228161999956,534.7228161999956,537.7138357000076,j,0.9545052999746986,0.18449289997806773,537.714065899956,537.7141307999846,None,,,,,,,,,,,,,,,,,00018,001,2025-11-21_16h42.03.893,MST_task,2024.2.0,60.02044295782636,2025-11-21 16h42.10.256067 +0530,
,Scenes\034a.jpg,113,0,114,,,,,,,j,1.9212000000406988,0.13614109996706247,None,,,,,,114,0,113,537.7294353999896,,,,,,,,,,,,,,,,,,,,,,,537.7144349999726,537.7294353999896,538.2140703999903,,,,,,,,,,,,,,538.244503199996,,,,,,,,,,,,,538.2411632000003,538.244503199996,538.244503199996,538.244503199996,541.2303815999767,j,1.9212000000406988,0.13614109996706247,541.2306008999585,541.2306601000018,None,,,,,,,,,,,,,,,,,00018,001,2025-11-21_16h42.03.893,MST_task,2024.2.0,60.02044295782636,2025-11-21 16h42.10.256067 +0530,
,Scenes\185a.jpg,114,0,115,,,,,,,j,1.0047541999956593,0.15931960003217682,None,,,,,,115,0,114,541.2462988999905,,,,,,,,,,,,,,,,,,,,,,,541.2311854999862,541.2462988999905,541.7303768999991,,,,,,,,,,,,,,541.7531348000048,,,,,,,,,,,,,541.7496043999563,541.7531348000048,541.7531348000048,541.7531348000048,544.746803099988,j,1.0047541999956593,0.15931960003217682,544.74706959998,544.7471366999671,None,,,,,,,,,,,,,,,,,00018,001,2025-11-21_16h42.03.893,MST_task,2024.2.0,60.02044295782636,2025-11-21 16h42.10.256067 +0530,
,Scenes\143a.jpg,115,0,116,,,,,,,j,0.6400313000194728,0.14474979997612536,None,,,,,,116,0,115,544.7629115000018,,,,,,,,,,,,,,,,,,,,,,,544.7474435999757,544.7629115000018,545.247683900001,,,,,,,,,,,,,,545.2695084000006,,,,,,,,,,,,,545.2660939999623,545.2695084000006,545.2695084000006,545.2695084000006,548.2639464999666,j,0.6400313000194728,0.14474979997612536,548.2641662000096,548.2642232999788,None,,,,,,,,,,,,,,,,,00018,001,2025-11-21_16h42.03.893,MST_task,2024.2.0,60.02044295782636,2025-11-21 16h42.10.256067 +0530,
,Scenes\024a.jpg,116,0,117,,,,,,,j,0.8391050000209361,0.20793989999219775,None,,,,,,117,0,116,548.2797980000032,,,,,,,,,,,,,,,,,,,,,,,548.2646456999937,548.2797980000032,548.7640326999826,,,,,,,,,,,,,,548.783047600009,,,,,,,,,,,,,548.7795509999851,548.783047600009,548.783047600009,548.783047600009,551.7802255999995,j,0.8391050000209361,0.20793989999219775,551.7804605999845,551.7805242000031,None,,,,,,,,,,,,,,,,,00018,001,2025-11-21_16h42.03.893,MST_task,2024.2.0,60.02044295782636,2025-11-21 16h42.10.256067 +0530,
,Scenes\018a.jpg,117,0,118,,,,,,,f,1.0801323999767192,0.1994029000052251,None,,,,,,118,0,117,551.7964444999816,,,,,,,,,,,,,,,,,,,,,,,551.780920899997,551.7964444999816,552.28075179999,,,,,,,,,,,,,,552.302292599983,,,,,,,,,,,,,552.2990463000024,552.302292599983,552.302292599983,552.302292599983,555.2969085999648,f,1.0801323999767192,0.1994029000052251,555.2971077999682,555.2971607999643,None,,,,,,,,,,,,,,,,,00018,001,2025-11-21_16h42.03.893,MST_task,2024.2.0,60.02044295782636,2025-11-21 16h42.10.256067 +0530,
,Scenes\080a.jpg,118,0,119,,,,,,,f,0.5393578000366688,0.20035179995466024,None,,,,,,119,0,118,555.3132068999694,,,,,,,,,,,,,,,,,,,,,,,555.2974312999868,555.3132068999694,555.7975022000028,,,,,,,,,,,,,,555.8179160999716,,,,,,,,,,,,,555.814593499992,555.8179160999716,555.8179160999716,555.8179160999716,558.8143104999908,f,0.5393578000366688,0.20035179995466024,558.8145357999601,558.8145982999704,None,,,,,,,,,,,,,,,,,00018,001,2025-11-21_16h42.03.893,MST_task,2024.2.0,60.02044295782636,2025-11-21 16h42.10.256067 +0530,
,Objects\142a.jpg,119,0,120,,,,,,,f,1.1850866000168025,0.16814899997552857,None,,,,,,120,0,119,558.829728599987,,,,,,,,,,,,,,,,,,,,,,,558.8149892999791,558.829728599987,559.3141971000005,,,,,,,,,,,,,,559.3323725999799,,,,,,,,,,,,,559.3293277999619,559.3323725999799,559.3323725999799,559.3323725999799,562.3303554999875,f,1.1850866000168025,0.16814899997552857,562.3305902999709,562.3306522999774,None,,,,,,,,,,,,,,,,,00018,001,2025-11-21_16h42.03.893,MST_task,2024.2.0,60.02044295782636,2025-11-21 16h42.10.256067 +0530,
,Objects\038a.jpg,120,0,121,,,,,,,f,0.9680312999989837,0.20863740000640973,None,,,,,,121,0,120,562.346574199968,,,,,,,,,,,,,,,,,,,,,,,562.3310282999882,562.346574199968,562.8309646999696,,,,,,,,,,,,,,562.8532688000123,,,,,,,,,,,,,562.8498843999696,562.8532688000123,562.8532688000123,562.8532688000123,565.8470267999801,f,0.9680312999989837,0.20863740000640973,565.8472591000027,565.8473212000099,None,,,,,,,,,,,,,,,,,00018,001,2025-11-21_16h42.03.893,MST_task,2024.2.0,60.02044295782636,2025-11-21 16h42.10.256067 +0530,
,Objects\046a.jpg,121,0,122,,,,,,,f,1.36089599999832,0.19928939995588735,None,,,,,,122,0,121,565.8629874999751,,,,,,,,,,,,,,,,,,,,,,,565.8477154999855,565.8629874999751,566.3477501999587,,,,,,,,,,,,,,566.365116800007,,,,,,,,,,,,,566.3623403999954,566.365116800007,566.365116800007,566.365116800007,569.3637340999558,f,1.36089599999832,0.19928939995588735,569.3639722999651,569.3640320999548,None,,,,,,,,,,,,,,,,,00018,001,2025-11-21_16h42.03.893,MST_task,2024.2.0,60.02044295782636,2025-11-21 16h42.10.256067 +0530,
,Objects\002a.jpg,122,0,123,,,,,,,f,0.6749830999760889,0.12793620000593364,None,,,,,,123,0,122,569.3795576999546,,,,,,,,,,,,,,,,,,,,,,,569.3643490999821,569.3795576999546,569.8640700000105,,,,,,,,,,,,,,569.882712599996,,,,,,,,,,,,,569.8800436999882,569.882712599996,569.882712599996,569.882712599996,572.8802880999865,f,0.6749830999760889,0.12793620000593364,572.8805342999985,572.880596700008,None,,,,,,,,,,,,,,,,,00018,001,2025-11-21_16h42.03.893,MST_task,2024.2.0,60.02044295782636,2025-11-21 16h42.10.256067 +0530,
,Objects\168a.jpg,123,0,124,,,,,,,None,,,j,0.6169917000224814,None,,,,124,0,123,572.896327399998,,,,,,,,,,,,,,,,,,,,,,,572.8809885999653,572.896327399998,573.3807477999944,,,,,,,,,,,,,,573.4023801999865,,,,,,,,,,,,,573.3994001999963,573.4023801999865,573.4023801999865,573.4023801999865,576.3967077999841,None,,,576.3968726999592,577.0319924000069,j,,,,576.4129313000012,576.4129313000012,0.6169917000224814,None,,,,,,,,,,00018,001,2025-11-21_16h42.03.893,MST_task,2024.2.0,60.02044295782636,2025-11-21 16h42.10.256067 +0530,
,Objects\048a.jpg,124,0,125,,,,,,,j,0.7065504000056535,0.12014960002852604,None,,,,,,125,0,124,577.0462970999652,,,,,,,,,,,,,,,,,,,,,,,577.0324619999737,577.0462970999652,577.5300179999904,,,,,,,,,,,,,,577.5466441999888,,,,,,,,,,,,,577.5420286000008,577.5466441999888,577.5466441999888,577.5466441999888,580.5320916000055,j,0.7065504000056535,0.12014960002852604,580.5323178999824,580.5323754999554,None,580.5464117999654,580.5464117999654,580.5464117999654,,,,,,,,,,,,,,00018,001,2025-11-21_16h42.03.893,MST_task,2024.2.0,60.02044295782636,2025-11-21 16h42.10.256067 +0530,
,Objects\159a.jpg,125,0,126,,,,,,,f,0.795552299998235,0.2074309000163339,None,,,,,,126,0,125,580.5464117999654,,,,,,,,,,,,,,,,,,,,,,,580.532669999986,580.5464117999654,581.0308470999589,,,,,,,,,,,,,,581.050222299993,,,,,,,,,,,,,581.047772299964,581.050222299993,581.050222299993,581.050222299993,584.047121200012,f,0.795552299998235,0.2074309000163339,584.0473522999673,584.0474142999738,None,,,,,,,,,,,,,,,,,00018,001,2025-11-21_16h42.03.893,MST_task,2024.2.0,60.02044295782636,2025-11-21 16h42.10.256067 +0530,
,Scenes\095a.jpg,126,0,127,,,,,,,j,0.8677921000053175,0.1757279000012204,None,,,,,,127,0,126,584.0629625999718,,,,,,,,,,,,,,,,,,,,,,,584.0478097999585,584.0629625999718,584.5474979999708,,,,,,,,,,,,,,584.5702004999621,,,,,,,,,,,,,584.5670486000017,584.5702004999621,584.5702004999621,584.5702004999621,587.5637506999774,j,0.8677921000053175,0.1757279000012204,587.5639629999641,587.5640242999652,None,,,,,,,,,,,,,,,,,00018,001,2025-11-21_16h42.03.893,MST_task,2024.2.0,60.02044295782636,2025-11-21 16h42.10.256067 +0530,
,Scenes\144a.jpg,127,0,128,,,,,,,j,0.5585803000140004,0.20002950000343844,None,,,,,,128,0,127,587.5797167999553,,,,,,,,,,,,,,,,,,,,,,,587.5644031999982,587.5797167999553,588.0642595000099,,,,,,,,,,,,,,588.0866001999821,,,,,,,,,,,,,588.0830698999926,588.0866001999821,588.0866001999821,588.0866001999821,591.0802120000008,j,0.5585803000140004,0.20002950000343844,591.0804328999948,591.0804944999982,None,,,,,,,,,,,,,,,,,00018,001,2025-11-21_16h42.03.893,MST_task,2024.2.0,60.02044295782636,2025-11-21 16h42.10.256067 +0530,
,Scenes\090a.jpg,128,0,129,,,,,,,j,1.4458254000055604,0.14532480004709214,None,,,,,,129,0,128,591.0964148999774,,,,,,,,,,,,,,,,,,,,,,,591.080946800008,591.0964148999774,591.5809539000038,,,,,,,,,,,,,,591.6074870000011,,,,,,,,,,,,,591.6041524999891,591.6074870000011,591.6074870000011,591.6074870000011,594.5973543999717,j,1.4458254000055604,0.14532480004709214,594.5975910999696,594.597653099976,None,,,,,,,,,,,,,,,,,00018,001,2025-11-21_16h42.03.893,MST_task,2024.2.0,60.02044295782636,2025-11-21 16h42.10.256067 +0530,
,Scenes\043a.jpg,129,0,130,,,,,,,j,1.9684224000084214,0.11194109998177737,None,,,,,,130,0,129,594.613069999963,,,,,,,,,,,,,,,,,,,,,,,594.598050999979,594.613069999963,595.0978942000074,,,,,,,,,,,,,,595.1255791999865,,,,,,,,,,,,,595.1222250999999,595.1255791999865,595.1255791999865,595.1255791999865,598.1135576000088,j,1.9684224000084214,0.11194109998177737,598.1137538999901,598.1138088000007,None,,,,,,,,,,,,,,,,,00018,001,2025-11-21_16h42.03.893,MST_task,2024.2.0,60.02044295782636,2025-11-21 16h42.10.256067 +0530,
,Scenes\019a.jpg,130,0,131,,,,,,,f,1.342661400034558,0.21625239995773882,None,,,,,,131,0,130,598.129650799965,,,,,,,,,,,,,,,,,,,,,,,598.11417169997,598.129650799965,598.6144067999558,,,,,,,,,,,,,,598.6388781999703,,,,,,,,,,,,,598.6353928999742,598.6388781999703,598.6388781999703,598.6388781999703,601.6303613999626,f,1.342661400034558,0.21625239995773882,601.6306002999772,601.6306638999959,None,,,,,,,,,,,,,,,,,00018,001,2025-11-21_16h42.03.893,MST_task,2024.2.0,60.02044295782636,2025-11-21 16h42.10.256067 +0530,
,Scenes\175a.jpg,131,0,132,,,,,,,j,0.9240485000191256,0.15248649998102337,None,,,,,,132,0,131,601.6465096999891,,,,,,,,,,,,,,,,,,,,,,,601.6310261999606,601.6465096999891,602.1309721999569,,,,,,,,,,,,,,602.1533544000122,,,,,,,,,,,,,602.1501868999912,602.1533544000122,602.1533544000122,602.1533544000122,605.1473515999969,j,0.9240485000191256,0.15248649998102337,605.1476177999866,605.1476847999729,None,,,,,,,,,,,,,,,,,00018,001,2025-11-21_16h42.03.893,MST_task,2024.2.0,60.02044295782636,2025-11-21 16h42.10.256067 +0530,
,Scenes\133a.jpg,132,0,133,,,,,,,j,0.8929116000072099,0.16777599998749793,None,,,,,,133,0,132,605.1630920000025,,,,,,,,,,,,,,,,,,,,,,,605.1479842999834,605.1630920000025,605.647681100003,,,,,,,,,,,,,,605.6725073999842,,,,,,,,,,,,,605.6691560999607,605.6725073999842,605.6725073999842,605.6725073999842,608.6640355999698,j,0.8929116000072099,0.16777599998749793,608.6643025999656,608.6643656999804,None,,,,,,,,,,,,,,,,,00018,001,2025-11-21_16h42.03.893,MST_task,2024.2.0,60.02044295782636,2025-11-21 16h42.10.256067 +0530,
,Objects\081a.jpg,133,0,134,,,,,,,j,1.7501805999781936,0.16070980002405122,None,,,,,,134,0,133,608.679770799994,,,,,,,,,,,,,,,,,,,,,,,608.6647311999695,608.679770799994,609.164103899966,,,,,,,,,,,,,,609.1838033999666,,,,,,,,,,,,,609.1805034999852,609.1838033999666,609.1838033999666,609.1838033999666,612.1803399999626,j,1.7501805999781936,0.16070980002405122,612.1805524000083,612.1806118999957,None,,,,,,,,,,,,,,,,,00018,001,2025-11-21_16h42.03.893,MST_task,2024.2.0,60.02044295782636,2025-11-21 16h42.10.256067 +0530,
,Objects\094a.jpg,134,0,135,,,,,,,f,0.8983499000314623,0.22409559995867312,None,,,,,,135,0,134,612.1964605000103,,,,,,,,,,,,,,,,,,,,,,,612.1809068999719,612.1964605000103,612.6809856999898,,,,,,,,,,,,,,612.6990512000048,,,,,,,,,,,,,612.6962906999979,612.6990512000048,612.6990512000048,612.6990512000048,615.6969866,f,0.8983499000314623,0.22409559995867312,615.6972424999694,615.6973059999873,None,,,,,,,,,,,,,,,,,00018,001,2025-11-21_16h42.03.893,MST_task,2024.2.0,60.02044295782636,2025-11-21 16h42.10.256067 +0530,
,Objects\163a.jpg,135,0,136,,,,,,,f,0.582591800019145,0.2799267999944277,None,,,,,,136,0,135,615.7129652999574,,,,,,,,,,,,,,,,,,,,,,,615.697707299958,615.7129652999574,616.1976784999715,,,,,,,,,,,,,,616.215158899955,,,,,,,,,,,,,616.2124424999929,616.215158899955,616.215158899955,616.215158899955,619.2137423999957,f,0.582591800019145,0.2799267999944277,619.2139558999916,619.2140166999889,None,,,,,,,,,,,,,,,,,00018,001,2025-11-21_16h42.03.893,MST_task,2024.2.0,60.02044295782636,2025-11-21 16h42.10.256067 +0530,
,Objects\050a.jpg,136,0,137,,,,,,,f,0.7908496999880299,0.21600620000390336,None,,,,,,137,0,136,619.2296706999769,,,,,,,,,,,,,,,,,,,,,,,619.2143217999837,619.2296706999769,619.7145351999789,,,,,,,,,,,,,,619.734297899995,,,,,,,,,,,,,619.7315895999782,619.734297899995,619.734297899995,619.734297899995,622.7304063999909,f,0.7908496999880299,0.21600620000390336,622.7309248999809,622.7310051000095,None,,,,,,,,,,,,,,,,,00018,001,2025-11-21_16h42.03.893,MST_task,2024.2.0,60.02044295782636,2025-11-21 16h42.10.256067 +0530,
,Objects\116a.jpg,137,0,138,,,,,,,j,0.7566366999526508,0.2089844000292942,None,,,,,,138,0,137,622.746532399964,,,,,,,,,,,,,,,,,,,,,,,622.7313177000033,622.746532399964,623.2310871999944,,,,,,,,,,,,,,623.2485910999821,,,,,,,,,,,,,623.2459581999574,623.2485910999821,623.2485910999821,623.2485910999821,626.2471004999825,j,0.7566366999526508,0.2089844000292942,626.2473076999886,626.2473608999862,None,,,,,,,,,,,,,,,,,00018,001,2025-11-21_16h42.03.893,MST_task,2024.2.0,60.02044295782636,2025-11-21 16h42.10.256067 +0530,
,Objects\070a.jpg,138,0,139,,,,,,,f,1.3598007000400685,0.21600999997463077,None,,,,,,139,0,138,626.2630096999928,,,,,,,,,,,,,,,,,,,,,,,626.2476740999846,626.2630096999928,626.747612599982,,,,,,,,,,,,,,626.7653575000004,,,,,,,,,,,,,626.762734399992,626.7653575000004,626.7653575000004,626.7653575000004,629.763446900004,f,1.3598007000400685,0.21600999997463077,629.7636108999723,629.7636544000125,None,,,,,,,,,,,,,,,,,00018,001,2025-11-21_16h42.03.893,MST_task,2024.2.0,60.02044295782636,2025-11-21 16h42.10.256067 +0530,
,Objects\075a.jpg,139,0,140,,,,,,,f,2.1394846999901347,0.20030869997572154,None,,,,,,140,0,139,629.7797573999851,,,,,,,,,,,,,,,,,,,,,,,629.7638699999661,629.7797573999851,630.2643432999612,,,,,,,,,,,,,,630.2819253999623,,,,,,,,,,,,,630.2791840999853,630.2819253999623,630.2819253999623,630.2819253999623,633.2802976999665,f,2.1394846999901347,0.20030869997572154,633.280512599973,633.2805729999673,None,,,,,,,,,,,,,,,,,00018,001,2025-11-21_16h42.03.893,MST_task,2024.2.0,60.02044295782636,2025-11-21 16h42.10.256067 +0530,
,Scenes\166a.jpg,140,0,141,,,,,,,j,0.6750165999983437,0.13756479998119175,None,,,,,,141,0,140,633.2965047999751,,,,,,,,,,,,,,,,,,,,,,,633.2809587999946,633.2965047999751,633.780897699995,,,,,,,,,,,,,,633.8020820000092,,,,,,,,,,,,,633.7987320999964,633.8020820000092,633.8020820000092,633.8020820000092,636.7971234999713,j,0.6750165999983437,0.13756479998119175,636.797354099981,636.7974182000034,None,,,,,,,,,,,,,,,,,00018,001,2025-11-21_16h42.03.893,MST_task,2024.2.0,60.02044295782636,2025-11-21 16h42.10.256067 +0530,
,Scenes\113a.jpg,141,0,142,,,,,,,j,0.9921955000027083,0.1278934000292793,None,,,,,,142,0,141,636.813066600007,,,,,,,,,,,,,,,,,,,,,,,636.7977257999592,636.813066600007,637.2973403999931,,,,,,,,,,,,,,637.3176220000023,,,,,,,,,,,,,637.3144528999692,637.3176220000023,637.3176220000023,637.3176220000023,640.3135389999952,j,0.9921955000027083,0.1278934000292793,640.3137549000094,640.3138159000082,None,,,,,,,,,,,,,,,,,00018,001,2025-11-21_16h42.03.893,MST_task,2024.2.0,60.02044295782636,2025-11-21 16h42.10.256067 +0530,
,Scenes\001a.jpg,142,0,143,,,,,,,f,1.1062395000481047,0.1685058999573812,None,,,,,,143,0,142,640.3296245000092,,,,,,,,,,,,,,,,,,,,,,,640.3141529999557,640.3296245000092,640.813548999955,,,,,,,,,,,,,,640.8349547999678,,,,,,,,,,,,,640.8318160999916,640.8349547999678,640.8349547999678,640.8349547999678,643.8302098999848,f,1.1062395000481047,0.1685058999573812,643.8304309999803,643.8304958000081,None,,,,,,,,,,,,,,,,,00018,001,2025-11-21_16h42.03.893,MST_task,2024.2.0,60.02044295782636,2025-11-21 16h42.10.256067 +0530,
,Scenes\082a.jpg,143,0,144,,,,,,,f,0.7281432999880053,0.1524908000137657,None,,,,,,144,0,143,643.846288700006,,,,,,,,,,,,,,,,,,,,,,,643.8309769000043,643.846288700006,644.3305577999563,,,,,,,,,,,,,,644.3573299999698,,,,,,,,,,,,,644.3539922999917,644.3573299999698,644.3573299999698,644.3573299999698,647.3469523999956,f,0.7281432999880053,0.1524908000137657,647.3471742999973,647.3472355999984,None,,,,,,,,,,,,,,,,,00018,001,2025-11-21_16h42.03.893,MST_task,2024.2.0,60.02044295782636,2025-11-21 16h42.10.256067 +0530,
,Scenes\012a.jpg,144,0,145,,,,,,,j,1.0761831999989226,0.20792329998221248,None,,,,,,145,0,144,647.3631463999627,,,,,,,,,,,,,,,,,,,,,,,647.3476558999973,647.3631463999627,647.8472726999898,,,,,,,,,,,,,,647.8734418000095,,,,,,,,,,,,,647.8702859999612,647.8734418000095,647.8734418000095,647.8734418000095,650.8632781999768,j,1.0761831999989226,0.20792329998221248,650.8633498999989,650.8633632999845,None,,,,,,,,,,,,,,,,,00018,001,2025-11-21_16h42.03.893,MST_task,2024.2.0,60.02044295782636,2025-11-21 16h42.10.256067 +0530,
,Scenes\059a.jpg,145,0,146,,,,,,,j,1.0960498999920674,0.1832179999910295,None,,,,,,146,0,145,650.8792499999981,,,,,,,,,,,,,,,,,,,,,,,650.8634701999836,650.8792499999981,651.364712999959,,,,,,,,,,,,,,651.389947699965,,,,,,,,,,,,,651.3865792999859,651.389947699965,651.389947699965,651.389947699965,654.3636453999789,j,1.0960498999920674,0.1832179999910295,654.3638315999997,654.3638842999935,None,,,,,,,,,,,,,,,,,00018,001,2025-11-21_16h42.03.893,MST_task,2024.2.0,60.02044295782636,2025-11-21 16h42.10.256067 +0530,
,Scenes\066a.jpg,146,0,147,,,,,,,j,0.7705980999744497,0.12839830003213137,None,,,,,,147,0,146,654.3795644000056,,,,,,,,,,,,,,,,,,,,,,,654.3642260999768,654.3795644000056,654.864244700002,,,,,,,,,,,,,,654.8825619999552,,,,,,,,,,,,,654.8794856999884,654.8825619999552,654.8825619999552,654.8825619999552,657.8803896000027,j,0.7705980999744497,0.12839830003213137,657.8806212999625,657.8806822999613,None,,,,,,,,,,,,,,,,,00018,001,2025-11-21_16h42.03.893,MST_task,2024.2.0,60.02044295782636,2025-11-21 16h42.10.256067 +0530,
,Objects\164a.jpg,147,0,148,,,,,,,f,2.216306199959945,0.11180890002287924,None,,,,,,148,0,147,657.8963543999707,,,,,,,,,,,,,,,,,,,,,,,657.8810161000001,657.8963543999707,658.3808203999652,,,,,,,,,,,,,,658.3974564999808,,,,,,,,,,,,,658.394275699975,658.3974564999808,658.3974564999808,658.3974564999808,661.381617099978,f,2.216306199959945,0.11180890002287924,661.3818279000116,661.3818735000095,None,661.3962558999774,661.3962558999774,661.3962558999774,,,,,,,,,,,,,,00018,001,2025-11-21_16h42.03.893,MST_task,2024.2.0,60.02044295782636,2025-11-21 16h42.10.256067 +0530,
,Objects\154a.jpg,148,0,149,,,,,,,f,0.7405760999536142,0.12068970000836998,None,,,,,,149,0,148,661.3962558999774,,,,,,,,,,,,,,,,,,,,,,,661.3821778999991,661.3962558999774,661.8809053999721,,,,,,,,,,,,,,661.8968402000028,,,,,,,,,,,,,661.894249200006,661.8968402000028,661.8968402000028,661.8968402000028,664.881983099971,f,0.7405760999536142,0.12068970000836998,664.8822815999738,664.882343299978,None,664.8963601999567,664.8963601999567,664.8963601999567,,,,,,,,,,,,,,00018,001,2025-11-21_16h42.03.893,MST_task,2024.2.0,60.02044295782636,2025-11-21 16h42.10.256067 +0530,
,Objects\047a.jpg,149,0,150,,,,,,,f,2.18480659998022,0.16778449999401346,None,,,,,,150,0,149,664.8963601999567,,,,,,,,,,,,,,,,,,,,,,,664.8826741999947,664.8963601999567,665.3808140999754,,,,,,,,,,,,,,665.3971138999914,,,,,,,,,,,,,665.3942932999926,665.3971138999914,665.3971138999914,665.3971138999914,668.3814115999849,f,2.18480659998022,0.16778449999401346,668.3816152999643,668.381668499962,None,668.3962705999729,668.3962705999729,668.3962705999729,,,,,,,,,,,,,,00018,001,2025-11-21_16h42.03.893,MST_task,2024.2.0,60.02044295782636,2025-11-21 16h42.10.256067 +0530,
,Objects\090a.jpg,150,0,151,,,,,,,j,0.8762816999806091,0.1679415000253357,None,,,,,,151,0,150,668.3962705999729,,,,,,,,,,,,,,,,,,,,,,,668.3820053999661,668.3962705999729,668.880633599998,,,,,,,,,,,,,,668.8977139999624,,,,,,,,,,,,,668.8950792999822,668.8977139999624,668.8977139999624,668.8977139999624,671.8969351999694,j,0.8762816999806091,0.1679415000253357,671.8971343999729,671.8971944999648,None,,,,,,,,,,,,,,,,,00018,001,2025-11-21_16h42.03.893,MST_task,2024.2.0,60.02044295782636,2025-11-21 16h42.10.256067 +0530,
,Objects\186a.jpg,151,0,152,,,,,,,f,0.7853380999877118,0.2163173999870196,None,,,,,,152,0,151,671.9130628999555,,,,,,,,,,,,,,,,,,,,,,,671.8975154999644,671.9130628999555,672.3972300000023,,,,,,,,,,,,,,672.4132412999752,,,,,,,,,,,,,672.409030299983,672.4132412999752,672.4132412999752,672.4132412999752,675.3981769999955,f,0.7853380999877118,0.2163173999870196,675.3983397999546,675.3983757999958,None,675.4131748999935,675.4131748999935,675.4131748999935,,,,,,,,,,,,,,00018,001,2025-11-21_16h42.03.893,MST_task,2024.2.0,60.02044295782636,2025-11-21 16h42.10.256067 +0530,
,Objects\138a.jpg,152,0,153,,,,,,,j,1.3211471000104211,0.12857420003274456,None,,,,,,153,0,152,675.4131748999935,,,,,,,,,,,,,,,,,,,,,,,675.3985650999821,675.4131748999935,675.8976341999951,,,,,,,,,,,,,,675.9160461999709,,,,,,,,,,,,,675.9131902999943,675.9160461999709,675.9160461999709,675.9160461999709,678.9137780999881,j,1.3211471000104211,0.12857420003274456,678.9139965999639,678.9140589999733,None,,,,,,,,,,,,,,,,,00018,001,2025-11-21_16h42.03.893,MST_task,2024.2.0,60.02044295782636,2025-11-21 16h42.10.256067 +0530,
,Objects\112a.jpg,153,0,154,,,,,,,f,0.8468590999837033,0.12788859999272972,None,,,,,,154,0,153,678.9296716999961,,,,,,,,,,,,,,,,,,,,,,,678.9144425999839,678.9296716999961,679.4144087999593,,,,,,,,,,,,,,679.4310028000036,,,,,,,,,,,,,679.4283401999855,679.4310028000036,679.4310028000036,679.4310028000036,682.4152222999837,f,0.8468590999837033,0.12788859999272972,682.4156795999734,682.4157541999593,None,682.4297323999926,682.4297323999926,682.4297323999926,,,,,,,,,,,,,,00018,001,2025-11-21_16h42.03.893,MST_task,2024.2.0,60.02044295782636,2025-11-21 16h42.10.256067 +0530,
,Scenes\178a.jpg,154,0,155,,,,,,,j,0.765042099985294,0.1200789000140503,None,,,,,,155,0,154,682.4297323999926,,,,,,,,,,,,,,,,,,,,,,,682.4159939999809,682.4297323999926,682.9142423999729,,,,,,,,,,,,,,682.93677879998,,,,,,,,,,,,,682.9337406000122,682.93677879998,682.93677879998,682.93677879998,685.9302744999877,j,0.765042099985294,0.1200789000140503,685.9304730999866,685.9305237999652,None,,,,,,,,,,,,,,,,,00018,001,2025-11-21_16h42.03.893,MST_task,2024.2.0,60.02044295782636,2025-11-21 16h42.10.256067 +0530,
,Scenes\025a.jpg,155,0,156,,,,,,,j,1.2680557999992743,0.07990810001501814,None,,,,,,156,0,155,685.9463531000074,,,,,,,,,,,,,,,,,,,,,,,685.930807799974,685.9463531000074,686.430868299969,,,,,,,,,,,,,,686.4584552999586,,,,,,,,,,,,,686.4551109999884,686.4584552999586,686.4584552999586,686.4584552999586,689.4470195999602,j,1.2680557999992743,0.07990810001501814,689.447274199978,689.4473354999791,None,,,,,,,,,,,,,,,,,00018,001,2025-11-21_16h42.03.893,MST_task,2024.2.0,60.02044295782636,2025-11-21 16h42.10.256067 +0530,
,Scenes\132a.jpg,156,0,157,,,,,,,j,1.591981899982784,0.14429379999637604,None,,,,,,157,0,156,689.4629543999908,,,,,,,,,,,,,,,,,,,,,,,689.4476412999793,689.4629543999908,689.9477402999764,,,,,,,,,,,,,,689.9731658999808,,,,,,,,,,,,,689.9697293000063,689.9731658999808,689.9731658999808,689.9731658999808,692.9637339999899,j,1.591981899982784,0.14429379999637604,692.9639562999946,692.9640372999711,None,,,,,,,,,,,,,,,,,00018,001,2025-11-21_16h42.03.893,MST_task,2024.2.0,60.02044295782636,2025-11-21 16h42.10.256067 +0530,
,Scenes\106a.jpg,157,0,158,,,,,,,j,1.1145136000122875,0.19996569998329505,None,,,,,,158,0,157,692.9795557999751,,,,,,,,,,,,,,,,,,,,,,,692.9643485000124,692.9795557999751,693.4641728999559,,,,,,,,,,,,,,693.4909273000085,,,,,,,,,,,,,693.4877718999633,693.4909273000085,693.4909273000085,693.4909273000085,696.4803016000078,j,1.1145136000122875,0.19996569998329505,696.4805166999577,696.4805771000101,None,,,,,,,,,,,,,,,,,00018,001,2025-11-21_16h42.03.893,MST_task,2024.2.0,60.02044295782636,2025-11-21 16h42.10.256067 +0530,
,Scenes\061a.jpg,158,0,159,,,,,,,j,0.5291269000153989,0.13598130003083497,None,,,,,,159,0,158,696.4962712000124,,,,,,,,,,,,,,,,,,,,,,,696.4811244999873,696.4962712000124,696.9808583999984,,,,,,,,,,,,,,697.0045237999875,,,,,,,,,,,,,697.0013762000017,697.0045237999875,697.0045237999875,697.0045237999875,699.9970930999843,j,0.5291269000153989,0.13598130003083497,699.997573199973,699.9976443999913,None,,,,,,,,,,,,,,,,,00018,001,2025-11-21_16h42.03.893,MST_task,2024.2.0,60.02044295782636,2025-11-21 16h42.10.256067 +0530,
,Scenes\147a.jpg,159,0,160,,,,,,,j,0.8780843999702483,0.1832566999946721,None,,,,,,160,0,159,700.0130792999989,,,,,,,,,,,,,,,,,,,,,,,699.998000499967,700.0130792999989,700.4974122999702,,,,,,,,,,,,,,700.5198977999971,,,,,,,,,,,,,700.5169576999615,700.5198977999971,700.5198977999971,700.5198977999971,703.5138767999597,j,0.8780843999702483,0.1832566999946721,703.5141117000021,703.5141961000045,None,,,,,,,,,,,,,,,,,00018,001,2025-11-21_16h42.03.893,MST_task,2024.2.0,60.02044295782636,2025-11-21 16h42.10.256067 +0530,
,Scenes\145a.jpg,160,0,161,,,,,,,j,0.7828821999719366,0.13598840002669021,None,,,,,,161,0,160,703.5297299000085,,,,,,,,,,,,,,,,,,,,,,,703.514631900005,703.5297299000085,704.0149854999618,,,,,,,,,,,,,,704.0385602999595,,,,,,,,,,,,,704.0352817999665,704.0385602999595,704.0385602999595,704.0385602999595,707.030256500002,j,0.7828821999719366,0.13598840002669021,707.0304755999823,707.030535399972,None,,,,,,,,,,,,,,,,,00018,001,2025-11-21_16h42.03.893,MST_task,2024.2.0,60.02044295782636,2025-11-21 16h42.10.256067 +0530,
,Objects\175a.jpg,161,0,162,,,,,,,f,1.021794600004796,0.17513019999023527,None,,,,,,162,0,161,707.0463512999704,,,,,,,,,,,,,,,,,,,,,,,707.0309503999888,707.0463512999704,707.5306222999934,,,,,,,,,,,,,,707.5523217999726,,,,,,,,,,,,,707.5489423999679,707.5523217999726,707.5523217999726,707.5523217999726,710.5472097999882,f,1.021794600004796,0.17513019999023527,710.5474410000024,710.5475033000112,None,,,,,,,,,,,,,,,,,00018,001,2025-11-21_16h42.03.893,MST_task,2024.2.0,60.02044295782636,2025-11-21 16h42.10.256067 +0530,
,Objects\101a.jpg,162,0,163,,,,,,,f,2.5883609000011347,0.12741419998928905,None,,,,,,163,0,162,710.5630376999616,,,,,,,,,,,,,,,,,,,,,,,710.5478086000076,710.5630376999616,711.0475519999745,,,,,,,,,,,,,,711.0655298999627,,,,,,,,,,,,,711.0629100999795,711.0655298999627,711.0655298999627,711.0655298999627,714.063568099984,f,2.5883609000011347,0.12741419998928905,714.063784900005,714.0638625999563,None,,,,,,,,,,,,,,,,,00018,001,2025-11-21_16h42.03.893,MST_task,2024.2.0,60.02044295782636,2025-11-21 16h42.10.256067 +0530,
,Objects\085a.jpg,163,0,164,,,,,,,j,0.8564420000184327,0.1286481999559328,None,,,,,,164,0,163,714.0796754999901,,,,,,,,,,,,,,,,,,,,,,,714.0641604999546,714.0796754999901,714.5643952999962,,,,,,,,,,,,,,714.5808375999914,,,,,,,,,,,,,714.5781954999547,714.5808375999914,714.5808375999914,714.5808375999914,717.5652054999955,j,0.8564420000184327,0.1286481999559328,717.565440699982,717.5654992999625,None,717.5796270999708,717.5796270999708,717.5796270999708,,,,,,,,,,,,,,00018,001,2025-11-21_16h42.03.893,MST_task,2024.2.0,60.02044295782636,2025-11-21 16h42.10.256067 +0530,
,Objects\052a.jpg,164,0,165,,,,,,,None,,,j,2.567018600006122,None,,,,165,0,164,717.5796270999708,,,,,,,,,,,,,,,,,,,,,,,717.5658889999613,717.5796270999708,718.0644582000095,,,,,,,,,,,,,,718.0808062999859,,,,,,,,,,,,,718.0779802000034,718.0808062999859,718.0808062999859,718.0808062999859,721.0652874999796,None,,,721.0655205000076,723.6494453999912,j,721.0795948999585,721.0795948999585,721.0795948999585,721.0795948999585,721.0795948999585,2.567018600006122,None,,,,,,,,,,00018,001,2025-11-21_16h42.03.893,MST_task,2024.2.0,60.02044295782636,2025-11-21 16h42.10.256067 +0530,
,Objects\174a.jpg,165,0,166,,,,,,,f,2.2420105999917723,0.2082574000232853,None,,,,,,166,0,165,723.6629685999942,,,,,,,,,,,,,,,,,,,,,,,723.649772499979,723.6629685999942,724.1474431999959,,,,,,,,,,,,,,724.1636445999611,,,,,,,,,,,,,724.161209199985,724.1636445999611,724.1636445999611,724.1636445999611,727.1485778999631,f,2.2420105999917723,0.2082574000232853,727.1488401999814,727.1489010999794,None,727.1630072999978,727.1630072999978,727.1630072999978,,,,,,,,,,,,,,00018,001,2025-11-21_16h42.03.893,MST_task,2024.2.0,60.02044295782636,2025-11-21 16h42.10.256067 +0530,
,Objects\003a.jpg,166,0,167,,,,,,,j,1.0918676999863237,0.18464950000634417,None,,,,,,167,0,166,727.1630072999978,,,,,,,,,,,,,,,,,,,,,,,727.1493029000121,727.1630072999978,727.6472853999585,,,,,,,,,,,,,,727.6654391000047,,,,,,,,,,,,,727.6628400000045,727.6654391000047,727.6654391000047,727.6654391000047,730.663785199984,j,1.0918676999863237,0.18464950000634417,730.6640276999678,730.6640927999979,None,,,,,,,,,,,,,,,,,00018,001,2025-11-21_16h42.03.893,MST_task,2024.2.0,60.02044295782636,2025-11-21 16h42.10.256067 +0530,
,Objects\157a.jpg,167,0,168,,,,,,,f,0.7121081000077538,0.23166809999383986,None,,,,,,168,0,167,730.6796080999775,,,,,,,,,,,,,,,,,,,,,,,730.6643950999714,730.6796080999775,731.1647191999946,,,,,,,,,,,,,,731.1814695000066,,,,,,,,,,,,,731.178741599957,731.1814695000066,731.1814695000066,731.1814695000066,734.1801692000008,f,0.7121081000077538,0.23166809999383986,734.180386699969,734.1804453000077,None,,,,,,,,,,,,,,,,,00018,001,2025-11-21_16h42.03.893,MST_task,2024.2.0,60.02044295782636,2025-11-21 16h42.10.256067 +0530,
,Scenes\007a.jpg,168,0,169,,,,,,,None,,,f,0.18050550000043586,None,,,,169,0,168,734.1963478999678,,,,,,,,,,,,,,,,,,,,,,,734.180816099979,734.1963478999678,734.6809277999564,,,,,,,,,,,,,,734.7020258999546,,,,,,,,,,,,,734.6989897000021,734.7020258999546,734.7020258999546,734.7020258999546,737.6970058999723,None,,,737.6971910999855,737.8986849999637,f,,,,737.7130683999858,737.7130683999858,0.18050550000043586,None,,,,,,,,,,00018,001,2025-11-21_16h42.03.893,MST_task,2024.2.0,60.02044295782636,2025-11-21 16h42.10.256067 +0530,
,Scenes\171a.jpg,169,0,170,,,,,,,f,1.1255487999878824,0.11989430000539869,None,,,,,,170,0,169,737.9130045999773,,,,,,,,,,,,,,,,,,,,,,,737.8990579000092,737.9130045999773,738.3975461999653,,,,,,,,,,,,,,738.4237716000061,,,,,,,,,,,,,738.4203204999794,738.4237716000061,738.4237716000061,738.4237716000061,741.4136667999555,f,1.1255487999878824,0.11989430000539869,741.4138934999937,741.4139591999701,None,,,,,,,,,,,,,,,,,00018,001,2025-11-21_16h42.03.893,MST_task,2024.2.0,60.02044295782636,2025-11-21 16h42.10.256067 +0530,
,Scenes\124a.jpg,170,0,171,,,,,,,f,1.773238699999638,0.1285949000157416,None,,,,,,171,0,170,741.4296820999589,,,,,,,,,,,,,,,,,,,,,,,741.4143473999575,741.4296820999589,741.9145808999892,,,,,,,,,,,,,,741.9359585999628,,,,,,,,,,,,,741.9325275999727,741.9359585999628,741.9359585999628,741.9359585999628,744.9302255999646,f,1.773238699999638,0.1285949000157416,744.930528900004,744.9305960999918,None,,,,,,,,,,,,,,,,,00018,001,2025-11-21_16h42.03.893,MST_task,2024.2.0,60.02044295782636,2025-11-21 16h42.10.256067 +0530,
,Scenes\026a.jpg,171,0,172,,,,,,,j,1.1647633000393398,0.16052479995414615,None,,,,,,172,0,171,744.9463575999835,,,,,,,,,,,,,,,,,,,,,,,744.9309824999655,744.9463575999835,745.4307496999972,,,,,,,,,,,,,,745.4565139999613,,,,,,,,,,,,,745.4532726999605,745.4565139999613,745.4565139999613,745.4565139999613,748.4472253999556,j,1.1647633000393398,0.16052479995414615,748.4474648999749,748.447528299992,None,,,,,,,,,,,,,,,,,00018,001,2025-11-21_16h42.03.893,MST_task,2024.2.0,60.02044295782636,2025-11-21 16h42.10.256067 +0530,
