thisN,thisTrialN,thisRepN,key_resp_3.keys,key_resp_3.rt,key_resp_3.duration,trials.thisRepN,trials.thisTrialN,trials.thisN,thisRow.t,notes,intro_page.started,text.started,key_resp.started,intro_page.stopped,key_resp.keys,key_resp.rt,key_resp.duration,instructions.started,text_2.started,key_resp_2.started,instructions.stopped,key_resp_2.keys,key_resp_2.rt,key_resp_2.duration,demo1.started,image_1.started,image_2.started,text_7.started,key_resp_6.started,text_9.started,demo1.stopped,key_resp_6.keys,key_resp_6.rt,key_resp_6.duration,demo2.started,image_5.started,image_6.started,text_11.started,text_12.started,key_resp_8.started,demo2.stopped,key_resp_8.keys,key_resp_8.rt,key_resp_8.duration,demo_conclusion.started,text_13.started,key_resp_9.started,demo_conclusion.stopped,key_resp_9.keys,key_resp_9.rt,key_resp_9.duration,start_test.started,text_6.started,key_resp_5.started,start_test.stopped,key_resp_5.keys,key_resp_5.rt,key_resp_5.duration,ISI.started,text_4.started,text_4.stopped,ISI.stopped,routine_1.started,image.started,text_3.started,key_resp_3.started,routine_1.stopped,image_path,position_of_stimuli,trials.key_resp_3.keys,trials.key_resp_3.rt,trials.key_resp_3.duration,End_page.started,text_5.started,key_resp_4.started,End_page.stopped,key_resp_4.keys,key_resp_4.rt,key_resp_4.duration,participant,session,date,expName,psychopyVersion,frameRate,expStart,
,,,,,,,,,,,0.0011212999816052616,0.00280180003028363,0.00280180003028363,5.06831780000357,space,5.051996700000018,None,,,,,,,,,,,,,,,,,,,,,,,,,,,,,,,,,,,,,,,,,,,,,,,,,,,,,,,,,,,,,,,00054,001,2026-01-25_17h34.48.535,MST_test,2024.2.0,59.4586881208297,2026-01-25 17h34.55.535341 +0530,
,,,,,,,,,,,,,,,,,,5.068348400003742,5.0828581000096165,5.0828581000096165,16.650129300018307,space,11.556380000023637,None,,,,,,,,,,,,,,,,,,,,,,,,,,,,,,,,,,,,,,,,,,,,,,,,,,,,,,,,00054,001,2026-01-25_17h34.48.535,MST_test,2024.2.0,59.4586881208297,2026-01-25 17h34.55.535341 +0530,
,,,,,,,,,,,,,,,,,,,,,,,,,16.65015639999183,16.66689440002665,16.66689440002665,16.66689440002665,16.66689440002665,16.66689440002665,22.800507900014054,space,6.132215500052553,None,,,,,,,,,,,,,,,,,,,,,,,,,,,,,,,,,,,,,,,,,,,,,,00054,001,2026-01-25_17h34.48.535,MST_test,2024.2.0,59.4586881208297,2026-01-25 17h34.55.535341 +0530,
,,,,,,,,,,,,,,,,,,,,,,,,,,,,,,,,,,,22.80053940002108,22.816889100009575,22.816889100009575,22.816889100009575,22.816889100009575,22.816889100009575,25.602126399986446,space,2.77377400000114,None,,,,,,,,,,,,,,,,,,,,,,,,,,,,,,,,,,,,00054,001,2026-01-25_17h34.48.535,MST_test,2024.2.0,59.4586881208297,2026-01-25 17h34.55.535341 +0530,
,,,,,,,,,,,,,,,,,,,,,,,,,,,,,,,,,,,,,,,,,,,,,25.60215520003112,25.616558599984273,25.616558599984273,103.70021610002732,space,78.07750870002201,None,,,,,,,,,,,,,,,,,,,,,,,,,,,,,00054,001,2026-01-25_17h34.48.535,MST_test,2024.2.0,59.4586881208297,2026-01-25 17h34.55.535341 +0530,
,,,,,,,,,,,,,,,,,,,,,,,,,,,,,,,,,,,,,,,,,,,,,,,,,,,,103.70024620002368,103.71634909999557,103.71634909999557,127.11683389998507,space,23.393916699977126,None,,,,,,,,,,,,,,,,,,,,,,00054,001,2026-01-25_17h34.48.535,MST_test,2024.2.0,59.4586881208297,2026-01-25 17h34.55.535341 +0530,
0,0,1,o,5.237478299997747,None,1,0,0,127.13292020000517,,,,,,,,,,,,,,,,,,,,,,,,,,,,,,,,,,,,,,,,,,,,,,,,,,127.12087689997861,127.13292020000517,127.63312280003447,127.61661800002912,127.6287126999814,127.63312280003447,127.63312280003447,127.63312280003447,132.88371189997997,Scenes\027a.jpg,post,o,5.237478299997747,None,,,,,,,,00054,001,2026-01-25_17h34.48.535,MST_test,2024.2.0,59.4586881208297,2026-01-25 17h34.55.535341 +0530,
1,0,2,s,3.31007139995927,None,2,0,1,132.89965979999397,,,,,,,,,,,,,,,,,,,,,,,,,,,,,,,,,,,,,,,,,,,,,,,,,,132.8838063000003,132.89965979999397,133.3999534000177,133.3832323999959,133.39675489999354,133.3999534000177,133.3999534000177,133.3999534000177,136.71695380000165,Objects\098b.jpg,pre,s,3.31007139995927,None,,,,,,,,00054,001,2026-01-25_17h34.48.535,MST_test,2024.2.0,59.4586881208297,2026-01-25 17h34.55.535341 +0530,
2,0,3,n,5.901203599991277,None,3,0,2,136.7328788000159,,,,,,,,,,,,,,,,,,,,,,,,,,,,,,,,,,,,,,,,,,,,,,,,,,136.71704700001283,136.7328788000159,137.23317000002135,137.21661150001455,137.22560330003034,137.23317000002135,137.23317000002135,137.23317000002135,143.15036410000175,Objects\038b.jpg,mid,n,5.901203599991277,None,,,,,,,,00054,001,2026-01-25_17h34.48.535,MST_test,2024.2.0,59.4586881208297,2026-01-25 17h34.55.535341 +0530,
3,0,4,n,2.7481345999985933,None,4,0,3,143.16641700000037,,,,,,,,,,,,,,,,,,,,,,,,,,,,,,,,,,,,,,,,,,,,,,,,,,143.1504597000312,143.16641700000037,143.66678269999102,143.65001320000738,143.660494700016,143.66678269999102,143.66678269999102,143.66678269999102,146.4171377000166,Foils\scenes16.jpg,none,n,2.7481345999985933,None,,,,,,,,00054,001,2026-01-25_17h34.48.535,MST_test,2024.2.0,59.4586881208297,2026-01-25 17h34.55.535341 +0530,
4,0,5,o,3.484063900017645,None,5,0,4,146.4331419999944,,,,,,,,,,,,,,,,,,,,,,,,,,,,,,,,,,,,,,,,,,,,,,,,,,146.4172328999848,146.4331419999944,146.93866650003474,146.9167732000351,146.93632680003066,146.93866650003474,146.93866650003474,146.93866650003474,150.4339099000208,Scenes\066b.jpg,pre,o,3.484063900017645,None,,,,,,,,00054,001,2026-01-25_17h34.48.535,MST_test,2024.2.0,59.4586881208297,2026-01-25 17h34.55.535341 +0530,
5,0,6,o,2.759554799995385,None,6,0,5,150.44979500002228,,,,,,,,,,,,,,,,,,,,,,,,,,,,,,,,,,,,,,,,,,,,,,,,,,150.43400710000424,150.44979500002228,150.9504543999792,150.9332943999907,150.93779559998075,150.9504543999792,150.9504543999792,150.9504543999792,153.71700970001984,Objects\110a.jpg,pre,o,2.759554799995385,None,,,,,,,,00054,001,2026-01-25_17h34.48.535,MST_test,2024.2.0,59.4586881208297,2026-01-25 17h34.55.535341 +0530,
6,0,7,n,2.9655501000233926,None,7,0,6,153.7330612000078,,,,,,,,,,,,,,,,,,,,,,,,,,,,,,,,,,,,,,,,,,,,,,,,,,153.71710599999642,153.7330612000078,154.2331876999815,154.21672020002734,154.22656049998477,154.2331876999815,154.2331876999815,154.2331876999815,157.20029360003537,Foils\scenes11.jpg,none,n,2.9655501000233926,None,,,,,,,,00054,001,2026-01-25_17h34.48.535,MST_test,2024.2.0,59.4586881208297,2026-01-25 17h34.55.535341 +0530,
7,0,8,s,4.514371099998243,None,8,0,7,157.2164710999932,,,,,,,,,,,,,,,,,,,,,,,,,,,,,,,,,,,,,,,,,,,,,,,,,,157.20038619998377,157.2164710999932,157.716935799981,157.69997850002255,157.7120632000151,157.716935799981,157.716935799981,157.716935799981,162.23373869998613,Scenes\024b.jpg,post,s,4.514371099998243,None,,,,,,,,00054,001,2026-01-25_17h34.48.535,MST_test,2024.2.0,59.4586881208297,2026-01-25 17h34.55.535341 +0530,
8,0,9,n,1.9363855999545194,None,9,0,8,162.24981180002214,,,,,,,,,,,,,,,,,,,,,,,,,,,,,,,,,,,,,,,,,,,,,,,,,,162.2338313999935,162.24981180002214,162.7576049999916,162.733287799987,162.7552392000216,162.7576049999916,162.7576049999916,162.7576049999916,164.7003587000072,Foils\scenes28.jpg,none,n,1.9363855999545194,None,,,,,,,,00054,001,2026-01-25_17h34.48.535,MST_test,2024.2.0,59.4586881208297,2026-01-25 17h34.55.535341 +0530,
9,0,10,s,4.677321299968753,None,10,0,9,164.71644649998052,,,,,,,,,,,,,,,,,,,,,,,,,,,,,,,,,,,,,,,,,,,,,,,,,,164.7004521000199,164.71644649998052,165.21739100001287,165.20015340001555,165.21120740001788,165.21739100001287,165.21739100001287,165.21739100001287,169.90030360000674,Scenes\113b.jpg,mid,s,4.677321299968753,None,,,,,,,,00054,001,2026-01-25_17h34.48.535,MST_test,2024.2.0,59.4586881208297,2026-01-25 17h34.55.535341 +0530,
10,0,11,s,2.8691380999516696,None,11,0,10,169.9164671000326,,,,,,,,,,,,,,,,,,,,,,,,,,,,,,,,,,,,,,,,,,,,,,,,,,169.90039770002477,169.9164671000326,170.4169077000115,170.4000134000089,170.40985180001007,170.4169077000115,170.4169077000115,170.4169077000115,173.30044610000914,Objects\042b.jpg,post,s,2.8691380999516696,None,,,,,,,,00054,001,2026-01-25_17h34.48.535,MST_test,2024.2.0,59.4586881208297,2026-01-25 17h34.55.535341 +0530,
11,0,12,o,5.8935564999701455,None,12,0,11,173.31644309998956,,,,,,,,,,,,,,,,,,,,,,,,,,,,,,,,,,,,,,,,,,,,,,,,,,173.30053720000433,173.31644309998956,173.81664279999677,173.80012400000123,173.80969730002107,173.81664279999677,173.81664279999677,173.81664279999677,179.71696320001502,Objects\147b.jpg,mid,o,5.8935564999701455,None,,,,,,,,00054,001,2026-01-25_17h34.48.535,MST_test,2024.2.0,59.4586881208297,2026-01-25 17h34.55.535341 +0530,
12,0,13,n,2.8931853999965824,None,13,0,12,179.7331126999925,,,,,,,,,,,,,,,,,,,,,,,,,,,,,,,,,,,,,,,,,,,,,,,,,,179.7170559000224,179.7331126999925,180.23340860003373,180.21688259998336,180.2261514000129,180.23340860003373,180.23340860003373,180.23340860003373,183.1337025000248,Foils\074a.jpg,none,n,2.8931853999965824,None,,,,,,,,00054,001,2026-01-25_17h34.48.535,MST_test,2024.2.0,59.4586881208297,2026-01-25 17h34.55.535341 +0530,
13,0,14,o,2.1721256999881007,None,14,0,13,183.14971530000912,,,,,,,,,,,,,,,,,,,,,,,,,,,,,,,,,,,,,,,,,,,,,,,,,,183.13379340001848,183.14971530000912,183.649993500032,183.633456200012,183.63598800002364,183.649993500032,183.649993500032,183.649993500032,185.83363010000903,Objects\116a.jpg,mid,o,2.1721256999881007,None,,,,,,,,00054,001,2026-01-25_17h34.48.535,MST_test,2024.2.0,59.4586881208297,2026-01-25 17h34.55.535341 +0530,
14,0,15,n,5.8491936000064015,None,15,0,14,185.84979730000487,,,,,,,,,,,,,,,,,,,,,,,,,,,,,,,,,,,,,,,,,,,,,,,,,,185.83372029999737,185.84979730000487,186.34987710003043,186.33336490002694,186.34279389999574,186.34987710003043,186.34987710003043,186.34987710003043,192.2004331999924,Foils\105a.jpg,none,n,5.8491936000064015,None,,,,,,,,00054,001,2026-01-25_17h34.48.535,MST_test,2024.2.0,59.4586881208297,2026-01-25 17h34.55.535341 +0530,
15,0,16,n,2.7291862000129186,None,16,0,15,192.21639760001563,,,,,,,,,,,,,,,,,,,,,,,,,,,,,,,,,,,,,,,,,,,,,,,,,,192.20052509999368,192.21639760001563,192.71685279998928,192.70000589999836,192.70838969998294,192.71685279998928,192.71685279998928,192.71685279998928,195.45043309999164,Foils\scenes6.jpg,none,n,2.7291862000129186,None,,,,,,,,00054,001,2026-01-25_17h34.48.535,MST_test,2024.2.0,59.4586881208297,2026-01-25 17h34.55.535341 +0530,
16,0,17,s,2.375786099990364,None,17,0,16,195.46648810000625,,,,,,,,,,,,,,,,,,,,,,,,,,,,,,,,,,,,,,,,,,,,,,,,,,195.45052489999216,195.46648810000625,195.96678070002235,195.95005490002222,195.95389970001997,195.96678070002235,195.96678070002235,195.96678070002235,198.3503193000215,Objects\131a.jpg,post,s,2.375786099990364,None,,,,,,,,00054,001,2026-01-25_17h34.48.535,MST_test,2024.2.0,59.4586881208297,2026-01-25 17h34.55.535341 +0530,
17,0,18,n,4.7499252000125125,None,18,0,17,198.3664976999862,,,,,,,,,,,,,,,,,,,,,,,,,,,,,,,,,,,,,,,,,,,,,,,,,,198.35041010001441,198.3664976999862,198.87250490003498,198.85006309999153,198.87042689998634,198.87250490003498,198.87250490003498,198.87250490003498,203.63367449998623,Scenes\190b.jpg,post,n,4.7499252000125125,None,,,,,,,,00054,001,2026-01-25_17h34.48.535,MST_test,2024.2.0,59.4586881208297,2026-01-25 17h34.55.535341 +0530,
18,0,19,o,1.977434100001119,None,19,0,18,203.64983040001243,,,,,,,,,,,,,,,,,,,,,,,,,,,,,,,,,,,,,,,,,,,,,,,,,,203.63376749999588,203.64983040001243,204.15674740000395,204.13319120003143,204.15435159998015,204.15674740000395,204.15674740000395,204.15674740000395,206.15028030000394,Scenes\023b.jpg,pre,o,1.977434100001119,None,,,,,,,,00054,001,2026-01-25_17h34.48.535,MST_test,2024.2.0,59.4586881208297,2026-01-25 17h34.55.535341 +0530,
19,0,20,s,1.979302000021562,None,20,0,19,206.16632050002227,,,,,,,,,,,,,,,,,,,,,,,,,,,,,,,,,,,,,,,,,,,,,,,,,,206.1503733000136,206.16632050002227,206.66696820000652,206.64985410001827,206.65956420003204,206.66696820000652,206.66696820000652,206.66696820000652,208.65027169999667,Objects\109b.jpg,post,s,1.979302000021562,None,,,,,,,,00054,001,2026-01-25_17h34.48.535,MST_test,2024.2.0,59.4586881208297,2026-01-25 17h34.55.535341 +0530,
20,0,21,o,2.615171100012958,None,21,0,20,208.6663667000248,,,,,,,,,,,,,,,,,,,,,,,,,,,,,,,,,,,,,,,,,,,,,,,,,,208.65036959998542,208.6663667000248,209.16681110003265,209.14998839999316,209.15701490000356,209.16681110003265,209.16681110003265,209.16681110003265,211.78348400001414,Scenes\080a.jpg,pre,o,2.615171100012958,None,,,,,,,,00054,001,2026-01-25_17h34.48.535,MST_test,2024.2.0,59.4586881208297,2026-01-25 17h34.55.535341 +0530,
21,0,22,s,1.7941870999638923,None,22,0,21,211.7996790999896,,,,,,,,,,,,,,,,,,,,,,,,,,,,,,,,,,,,,,,,,,,,,,,,,,211.78357510000933,211.7996790999896,212.300124100002,212.28319500002544,212.29311010002857,212.300124100002,212.300124100002,212.300124100002,214.10027059999993,Objects\056b.jpg,pre,s,1.7941870999638923,None,,,,,,,,00054,001,2026-01-25_17h34.48.535,MST_test,2024.2.0,59.4586881208297,2026-01-25 17h34.55.535341 +0530,
22,0,23,s,1.42969440005254,None,23,0,22,214.1163758999901,,,,,,,,,,,,,,,,,,,,,,,,,,,,,,,,,,,,,,,,,,,,,,,,,,214.10036440001568,214.1163758999901,,214.6015581000247,214.61111850000452,214.61661540000932,214.61661540000932,214.61661540000932,216.05028030002723,Objects\159b.jpg,post,s,1.42969440005254,None,,,,,,,,00054,001,2026-01-25_17h34.48.535,MST_test,2024.2.0,59.4586881208297,2026-01-25 17h34.55.535341 +0530,
23,0,24,s,1.743139699974563,None,24,0,23,216.06627210002625,,,,,,,,,,,,,,,,,,,,,,,,,,,,,,,,,,,,,,,,,,,,,,,,,,216.0503725000308,216.06627210002625,216.566874000011,216.54996450000908,216.5609055000241,216.566874000011,216.566874000011,216.566874000011,218.31704829999944,Scenes\102a.jpg,pre,s,1.743139699974563,None,,,,,,,,00054,001,2026-01-25_17h34.48.535,MST_test,2024.2.0,59.4586881208297,2026-01-25 17h34.55.535341 +0530,
24,0,25,n,3.484491800016258,None,25,0,24,218.33285429998068,,,,,,,,,,,,,,,,,,,,,,,,,,,,,,,,,,,,,,,,,,,,,,,,,,218.31714709999505,218.33285429998068,218.8334390000091,218.81652430002578,218.82698850001907,218.8334390000091,218.8334390000091,218.8334390000091,222.3335501999827,Foils\018a.jpg,none,n,3.484491800016258,None,,,,,,,,00054,001,2026-01-25_17h34.48.535,MST_test,2024.2.0,59.4586881208297,2026-01-25 17h34.55.535341 +0530,
25,0,26,s,1.9721592999994755,None,26,0,25,222.34964520001085,,,,,,,,,,,,,,,,,,,,,,,,,,,,,,,,,,,,,,,,,,,,,,,,,,222.33364720002282,222.34964520001085,222.84983510000166,222.83318329998292,222.83574830001453,222.84983510000166,222.84983510000166,222.84983510000166,224.83339699998032,Objects\073a.jpg,post,s,1.9721592999994755,None,,,,,,,,00054,001,2026-01-25_17h34.48.535,MST_test,2024.2.0,59.4586881208297,2026-01-25 17h34.55.535341 +0530,
26,0,27,s,3.344957699999213,None,27,0,26,224.84966780000832,,,,,,,,,,,,,,,,,,,,,,,,,,,,,,,,,,,,,,,,,,,,,,,,,,224.83348810003372,224.84966780000832,225.34987540001748,225.33309070003452,225.34253389999503,225.34987540001748,225.34987540001748,225.34987540001748,228.7003437000094,Objects\043b.jpg,post,s,3.344957699999213,None,,,,,,,,00054,001,2026-01-25_17h34.48.535,MST_test,2024.2.0,59.4586881208297,2026-01-25 17h34.55.535341 +0530,
27,0,28,s,1.8660811000154354,None,28,0,27,228.71634400001494,,,,,,,,,,,,,,,,,,,,,,,,,,,,,,,,,,,,,,,,,,,,,,,,,,228.7004366000183,228.71634400001494,229.21993890003068,229.1999739999883,229.21773159998702,229.21993890003068,229.21993890003068,229.21993890003068,231.10031980002532,Scenes\019b.jpg,pre,s,1.8660811000154354,None,,,,,,,,00054,001,2026-01-25_17h34.48.535,MST_test,2024.2.0,59.4586881208297,2026-01-25 17h34.55.535341 +0530,
28,0,29,s,3.4694864000193775,None,29,0,28,231.11627589998534,,,,,,,,,,,,,,,,,,,,,,,,,,,,,,,,,,,,,,,,,,,,,,,,,,231.10041329998057,231.11627589998534,,231.60130009998102,231.61028050002642,231.61676070000976,231.61676070000976,231.61676070000976,235.1002585000242,Foils\scenes1.jpg,none,s,3.4694864000193775,None,,,,,,,,00054,001,2026-01-25_17h34.48.535,MST_test,2024.2.0,59.4586881208297,2026-01-25 17h34.55.535341 +0530,
29,0,30,n,2.894061899976805,None,30,0,29,235.1163675999851,,,,,,,,,,,,,,,,,,,,,,,,,,,,,,,,,,,,,,,,,,,,,,,,,,235.1003501000232,235.1163675999851,,235.60105060000205,235.60955019999528,235.61662729998352,235.61662729998352,235.61662729998352,238.51707579998765,Foils\scenes8.jpg,none,n,2.894061899976805,None,,,,,,,,00054,001,2026-01-25_17h34.48.535,MST_test,2024.2.0,59.4586881208297,2026-01-25 17h34.55.535341 +0530,
30,0,31,s,2.261815399979241,None,31,0,30,238.53287200001068,,,,,,,,,,,,,,,,,,,,,,,,,,,,,,,,,,,,,,,,,,,,,,,,,,238.51716889999807,238.53287200001068,239.0333488000324,239.0165836000233,239.02567350002937,239.0333488000324,239.0333488000324,239.0333488000324,241.30029919999652,Scenes\058a.jpg,post,s,2.261815399979241,None,,,,,,,,00054,001,2026-01-25_17h34.48.535,MST_test,2024.2.0,59.4586881208297,2026-01-25 17h34.55.535341 +0530,
31,0,32,n,2.4534646999672987,None,32,0,31,241.31636930000968,,,,,,,,,,,,,,,,,,,,,,,,,,,,,,,,,,,,,,,,,,,,,,,,,,241.30039619997842,241.31636930000968,241.81725710001774,241.80055789998733,241.8112022000132,241.81725710001774,241.81725710001774,241.81725710001774,244.28338430001168,Objects\192b.jpg,mid,n,2.4534646999672987,None,,,,,,,,00054,001,2026-01-25_17h34.48.535,MST_test,2024.2.0,59.4586881208297,2026-01-25 17h34.55.535341 +0530,
32,0,33,o,5.954459599975962,None,33,0,32,244.29966780001996,,,,,,,,,,,,,,,,,,,,,,,,,,,,,,,,,,,,,,,,,,,,,,,,,,244.28347650001524,244.29966780001996,244.80442509998102,244.78323070000624,244.80233789997874,244.80442509998102,244.80442509998102,244.80442509998102,250.76691469998332,Scenes\026b.jpg,pre,o,5.954459599975962,None,,,,,,,,00054,001,2026-01-25_17h34.48.535,MST_test,2024.2.0,59.4586881208297,2026-01-25 17h34.55.535341 +0530,
33,0,34,n,4.314591600035783,None,34,0,33,250.7828422000166,,,,,,,,,,,,,,,,,,,,,,,,,,,,,,,,,,,,,,,,,,,,,,,,,,250.76700669998536,250.7828422000166,251.28353409998817,251.26659880002262,251.2776998000336,251.28353409998817,251.28353409998817,251.28353409998817,255.6003716000123,Scenes\130a.jpg,mid,n,4.314591600035783,None,,,,,,,,00054,001,2026-01-25_17h34.48.535,MST_test,2024.2.0,59.4586881208297,2026-01-25 17h34.55.535341 +0530,
34,0,35,n,2.1458351999754086,None,35,0,34,255.61628259997815,,,,,,,,,,,,,,,,,,,,,,,,,,,,,,,,,,,,,,,,,,,,,,,,,,255.60046530002728,255.61628259997815,256.1168902000063,256.09986930002924,256.10870739998063,256.1168902000063,256.1168902000063,256.1168902000063,258.26693009998417,Foils\scenes29.jpg,none,n,2.1458351999754086,None,,,,,,,,00054,001,2026-01-25_17h34.48.535,MST_test,2024.2.0,59.4586881208297,2026-01-25 17h34.55.535341 +0530,
35,0,36,n,1.6066891999798827,None,36,0,35,258.2828679999802,,,,,,,,,,,,,,,,,,,,,,,,,,,,,,,,,,,,,,,,,,,,,,,,,,258.2670230999938,258.2828679999802,258.78334369999357,258.76655370002845,258.7789486999973,258.78334369999357,258.78334369999357,258.78334369999357,260.4002616000362,Objects\158b.jpg,mid,n,1.6066891999798827,None,,,,,,,,00054,001,2026-01-25_17h34.48.535,MST_test,2024.2.0,59.4586881208297,2026-01-25 17h34.55.535341 +0530,
36,0,37,n,4.473109100013971,None,37,0,36,260.41625870001735,,,,,,,,,,,,,,,,,,,,,,,,,,,,,,,,,,,,,,,,,,,,,,,,,,260.4003541999846,260.41625870001735,260.9169738999917,260.8999426999944,260.91488150000805,260.9169738999917,260.9169738999917,260.9169738999917,265.4004111000104,Scenes\155b.jpg,pre,n,4.473109100013971,None,,,,,,,,00054,001,2026-01-25_17h34.48.535,MST_test,2024.2.0,59.4586881208297,2026-01-25 17h34.55.535341 +0530,
37,0,38,o,1.8977752000209875,None,38,0,37,265.41636109998217,,,,,,,,,,,,,,,,,,,,,,,,,,,,,,,,,,,,,,,,,,,,,,,,,,265.4005047000246,265.41636109998217,265.9169625000213,265.90003970003454,265.9032265000278,265.9169625000213,265.9169625000213,265.9169625000213,267.8170947000035,Objects\145a.jpg,pre,o,1.8977752000209875,None,,,,,,,,00054,001,2026-01-25_17h34.48.535,MST_test,2024.2.0,59.4586881208297,2026-01-25 17h34.55.535341 +0530,
38,0,39,n,1.9363971999846399,None,39,0,38,267.8332027000142,,,,,,,,,,,,,,,,,,,,,,,,,,,,,,,,,,,,,,,,,,,,,,,,,,267.8171887000208,267.8332027000142,268.33347170002526,268.31662729999516,268.32544889999554,268.33347170002526,268.33347170002526,268.33347170002526,270.2838381000329,Foils\scenes17.jpg,none,n,1.9363971999846399,None,,,,,,,,00054,001,2026-01-25_17h34.48.535,MST_test,2024.2.0,59.4586881208297,2026-01-25 17h34.55.535341 +0530,
39,0,40,s,6.317669199954253,None,40,0,39,270.29978499998106,,,,,,,,,,,,,,,,,,,,,,,,,,,,,,,,,,,,,,,,,,,,,,,,,,270.2839376000338,270.29978499998106,270.80025440000463,270.7833505999879,270.79058630001964,270.80025440000463,270.80025440000463,270.80025440000463,277.13370140001643,Scenes\136a.jpg,pre,s,6.317669199954253,None,,,,,,,,00054,001,2026-01-25_17h34.48.535,MST_test,2024.2.0,59.4586881208297,2026-01-25 17h34.55.535341 +0530,
40,0,41,n,4.363759400031995,None,41,0,40,277.14985240000533,,,,,,,,,,,,,,,,,,,,,,,,,,,,,,,,,,,,,,,,,,,,,,,,,,277.133797699993,277.14985240000533,277.65016999997897,277.6331737000146,277.6432901999797,277.65016999997897,277.65016999997897,277.65016999997897,282.0171121000312,Objects\053b.jpg,mid,n,4.363759400031995,None,,,,,,,,00054,001,2026-01-25_17h34.48.535,MST_test,2024.2.0,59.4586881208297,2026-01-25 17h34.55.535341 +0530,
41,0,42,o,4.4964447999955155,None,42,0,41,282.0329972000327,,,,,,,,,,,,,,,,,,,,,,,,,,,,,,,,,,,,,,,,,,,,,,,,,,282.01720539998496,282.0329972000327,282.53349020000314,282.5166767000337,282.51942740002414,282.53349020000314,282.53349020000314,282.53349020000314,287.033517999982,Objects\168a.jpg,mid,o,4.4964447999955155,None,,,,,,,,00054,001,2026-01-25_17h34.48.535,MST_test,2024.2.0,59.4586881208297,2026-01-25 17h34.55.535341 +0530,
42,0,43,s,1.6565764999832027,None,43,0,42,287.0497580000083,,,,,,,,,,,,,,,,,,,,,,,,,,,,,,,,,,,,,,,,,,,,,,,,,,287.0336097999825,287.0497580000083,287.5500750000356,287.5333910000045,287.5435021999874,287.5500750000356,287.5500750000356,287.5500750000356,289.2170038000331,Objects\129b.jpg,post,s,1.6565764999832027,None,,,,,,,,00054,001,2026-01-25_17h34.48.535,MST_test,2024.2.0,59.4586881208297,2026-01-25 17h34.55.535341 +0530,
43,0,44,n,1.9085813999990933,None,44,0,43,289.23308330000145,,,,,,,,,,,,,,,,,,,,,,,,,,,,,,,,,,,,,,,,,,,,,,,,,,289.2170950000291,289.23308330000145,289.7695631000097,289.71673049998935,289.76675160002196,289.7695631000097,289.7695631000097,289.7695631000097,291.6837562000146,Foils\scenes15.jpg,none,n,1.9085813999990933,None,,,,,,,,00054,001,2026-01-25_17h34.48.535,MST_test,2024.2.0,59.4586881208297,2026-01-25 17h34.55.535341 +0530,
44,0,45,n,12.454463100002613,None,45,0,44,291.69982300000265,,,,,,,,,,,,,,,,,,,,,,,,,,,,,,,,,,,,,,,,,,,,,,,,,,291.6838550000102,291.69982300000265,292.20781950000674,292.1833719999995,292.20592560002115,292.20781950000674,292.20781950000674,292.20781950000674,304.66718930000206,Scenes\119a.jpg,post,n,12.454463100002613,None,,,,,,,,00054,001,2026-01-25_17h34.48.535,MST_test,2024.2.0,59.4586881208297,2026-01-25 17h34.55.535341 +0530,
45,0,46,s,15.016964500013273,None,46,0,45,304.68319960002555,,,,,,,,,,,,,,,,,,,,,,,,,,,,,,,,,,,,,,,,,,,,,,,,,,304.6673124000081,304.68319960002555,305.1895758000319,305.1665210999781,305.1874431000324,305.1895758000319,305.1895758000319,305.1895758000319,320.2169761999976,Scenes\010b.jpg,mid,s,15.016964500013273,None,,,,,,,,00054,001,2026-01-25_17h34.48.535,MST_test,2024.2.0,59.4586881208297,2026-01-25 17h34.55.535341 +0530,
46,0,47,s,2.338092099991627,None,47,0,46,320.23309049999807,,,,,,,,,,,,,,,,,,,,,,,,,,,,,,,,,,,,,,,,,,,,,,,,,,320.2170688000042,320.23309049999807,320.7335127000115,320.71661950001726,320.72094650001964,320.7335127000115,320.7335127000115,320.7335127000115,323.0836703000241,Objects\140a.jpg,pre,s,2.338092099991627,None,,,,,,,,00054,001,2026-01-25_17h34.48.535,MST_test,2024.2.0,59.4586881208297,2026-01-25 17h34.55.535341 +0530,
47,0,48,n,2.0311278000008315,None,48,0,47,323.09967179998057,,,,,,,,,,,,,,,,,,,,,,,,,,,,,,,,,,,,,,,,,,,,,,,,,,323.08376670000143,323.09967179998057,323.5997810999979,323.5833202000358,323.5942181000137,323.5997810999979,323.5997810999979,323.5997810999979,325.63355879997835,Foils\020b.jpg,none,n,2.0311278000008315,None,,,,,,,,00054,001,2026-01-25_17h34.48.535,MST_test,2024.2.0,59.4586881208297,2026-01-25 17h34.55.535341 +0530,
48,0,49,s,1.4250072999857366,None,49,0,48,325.6495745999855,,,,,,,,,,,,,,,,,,,,,,,,,,,,,,,,,,,,,,,,,,,,,,,,,,325.63365089998115,325.6495745999855,326.1497191999806,326.1332321999944,326.1424857000238,326.1497191999806,326.1497191999806,326.1497191999806,327.58352109999396,Objects\071b.jpg,mid,s,1.4250072999857366,None,,,,,,,,00054,001,2026-01-25_17h34.48.535,MST_test,2024.2.0,59.4586881208297,2026-01-25 17h34.55.535341 +0530,
49,0,50,s,1.9538465999648906,None,50,0,49,327.60093289997894,,,,,,,,,,,,,,,,,,,,,,,,,,,,,,,,,,,,,,,,,,,,,,,,,,327.5836277999915,327.60093289997894,,328.0996797999833,328.1098248999915,328.11676639999496,328.11676639999496,328.11676639999496,330.08352159999777,Scenes\040a.jpg,mid,s,1.9538465999648906,None,,,,,,,,00054,001,2026-01-25_17h34.48.535,MST_test,2024.2.0,59.4586881208297,2026-01-25 17h34.55.535341 +0530,
50,0,51,n,3.5486559999990277,None,51,0,50,330.0994795000297,,,,,,,,,,,,,,,,,,,,,,,,,,,,,,,,,,,,,,,,,,,,,,,,,,330.08361299999524,330.0994795000297,330.6016963000293,330.5832022000104,330.59065730002476,330.6016963000293,330.6016963000293,330.6016963000293,334.16691199998604,Scenes\152a.jpg,post,n,3.5486559999990277,None,,,,,,,,00054,001,2026-01-25_17h34.48.535,MST_test,2024.2.0,59.4586881208297,2026-01-25 17h34.55.535341 +0530,
51,0,52,n,1.9634280999889597,None,52,0,51,334.18296750000445,,,,,,,,,,,,,,,,,,,,,,,,,,,,,,,,,,,,,,,,,,,,,,,,,,334.1670089000254,334.18296750000445,334.68351569998777,334.66658210003516,334.68086850002874,334.68351569998777,334.68351569998777,334.68351569998777,336.65017500001704,Scenes\154b.jpg,pre,n,1.9634280999889597,None,,,,,,,,00054,001,2026-01-25_17h34.48.535,MST_test,2024.2.0,59.4586881208297,2026-01-25 17h34.55.535341 +0530,
52,0,53,s,2.623857799975667,None,53,0,52,336.6663151999819,,,,,,,,,,,,,,,,,,,,,,,,,,,,,,,,,,,,,,,,,,,,,,,,,,336.65026760002365,336.6663151999819,337.1668735999847,337.1498048999929,337.160863600031,337.1668735999847,337.1668735999847,337.1668735999847,339.80026990000624,Scenes\114a.jpg,mid,s,2.623857799975667,None,,,,,,,,00054,001,2026-01-25_17h34.48.535,MST_test,2024.2.0,59.4586881208297,2026-01-25 17h34.55.535341 +0530,
53,0,54,o,2.8577631999505684,None,54,0,53,339.8163036000333,,,,,,,,,,,,,,,,,,,,,,,,,,,,,,,,,,,,,,,,,,,,,,,,,,339.8003727000323,339.8163036000333,340.31685320002725,340.2997958000051,340.30832970002666,340.31685320002725,340.31685320002725,340.31685320002725,343.1835480000009,Scenes\112a.jpg,post,o,2.8577631999505684,None,,,,,,,,00054,001,2026-01-25_17h34.48.535,MST_test,2024.2.0,59.4586881208297,2026-01-25 17h34.55.535341 +0530,
54,0,55,n,3.1541999999899417,None,55,0,54,343.1994663000223,,,,,,,,,,,,,,,,,,,,,,,,,,,,,,,,,,,,,,,,,,,,,,,,,,343.18364070000825,343.1994663000223,343.7002427999978,343.683209299983,343.6956881000078,343.7002427999978,343.7002427999978,343.7002427999978,346.8669389000279,Scenes\132b.jpg,post,n,3.1541999999899417,None,,,,,,,,00054,001,2026-01-25_17h34.48.535,MST_test,2024.2.0,59.4586881208297,2026-01-25 17h34.55.535341 +0530,
55,0,56,n,1.3184861000045203,None,56,0,55,346.88296740001533,,,,,,,,,,,,,,,,,,,,,,,,,,,,,,,,,,,,,,,,,,,,,,,,,,346.8670380000258,346.88296740001533,347.3834237999981,347.36648520000745,347.37685469997814,347.3834237999981,347.3834237999981,347.3834237999981,348.71691930003,Foils\098a.jpg,none,n,1.3184861000045203,None,,,,,,,,00054,001,2026-01-25_17h34.48.535,MST_test,2024.2.0,59.4586881208297,2026-01-25 17h34.55.535341 +0530,
56,0,57,s,5.117597999982536,None,57,0,56,348.73295550001785,,,,,,,,,,,,,,,,,,,,,,,,,,,,,,,,,,,,,,,,,,,,,,,,,,348.7170178000233,348.73295550001785,349.2332122999942,349.2165611999808,349.2191344000166,349.2332122999942,349.2332122999942,349.2332122999942,354.3668778000283,Objects\165a.jpg,post,s,5.117597999982536,None,,,,,,,,00054,001,2026-01-25_17h34.48.535,MST_test,2024.2.0,59.4586881208297,2026-01-25 17h34.55.535341 +0530,
57,0,58,n,3.587289699993562,None,58,0,57,354.38290860003326,,,,,,,,,,,,,,,,,,,,,,,,,,,,,,,,,,,,,,,,,,,,,,,,,,354.3669676000136,354.38290860003326,354.88324960001046,354.8665347000351,354.8761305999942,354.88324960001046,354.88324960001046,354.88324960001046,358.4835385000333,Objects\127b.jpg,mid,n,3.587289699993562,None,,,,,,,,00054,001,2026-01-25_17h34.48.535,MST_test,2024.2.0,59.4586881208297,2026-01-25 17h34.55.535341 +0530,
58,0,59,o,4.527040599961765,None,59,0,58,358.499462399981,,,,,,,,,,,,,,,,,,,,,,,,,,,,,,,,,,,,,,,,,,,,,,,,,,358.4836302000331,358.499462399981,358.99983169999905,358.98319709999487,358.9932684000232,358.99983169999905,358.99983169999905,358.99983169999905,363.5334407000337,Objects\054b.jpg,post,o,4.527040599961765,None,,,,,,,,00054,001,2026-01-25_17h34.48.535,MST_test,2024.2.0,59.4586881208297,2026-01-25 17h34.55.535341 +0530,
59,0,60,n,4.541023000027053,None,60,0,59,363.54954550002003,,,,,,,,,,,,,,,,,,,,,,,,,,,,,,,,,,,,,,,,,,,,,,,,,,363.53353339998284,363.54954550002003,364.0497831000248,364.03323170001386,364.04282969998894,364.0497831000248,364.0497831000248,364.0497831000248,368.6019535000087,Objects\065b.jpg,pre,n,4.541023000027053,None,,,,,,,,00054,001,2026-01-25_17h34.48.535,MST_test,2024.2.0,59.4586881208297,2026-01-25 17h34.55.535341 +0530,
60,0,61,s,4.8986005000188015,None,61,0,60,368.6162804000196,,,,,,,,,,,,,,,,,,,,,,,,,,,,,,,,,,,,,,,,,,,,,,,,,,368.6020476000267,368.6162804000196,369.1167303000111,369.0997404999798,369.10592300002463,369.1167303000111,369.1167303000111,369.1167303000111,374.0169425000204,Scenes\175a.jpg,pre,s,4.8986005000188015,None,,,,,,,,00054,001,2026-01-25_17h34.48.535,MST_test,2024.2.0,59.4586881208297,2026-01-25 17h34.55.535341 +0530,
61,0,62,s,6.60894190002,None,62,0,61,374.03296550002415,,,,,,,,,,,,,,,,,,,,,,,,,,,,,,,,,,,,,,,,,,,,,,,,,,374.0170348000247,374.03296550002415,374.53346459998284,374.51654049998615,374.5199185999809,374.53346459998284,374.53346459998284,374.53346459998284,381.15013439999893,Objects\162a.jpg,post,s,6.60894190002,None,,,,,,,,00054,001,2026-01-25_17h34.48.535,MST_test,2024.2.0,59.4586881208297,2026-01-25 17h34.55.535341 +0530,
62,0,63,n,1.8515778000000864,None,63,0,62,381.16628790000686,,,,,,,,,,,,,,,,,,,,,,,,,,,,,,,,,,,,,,,,,,,,,,,,,,381.1502271000063,381.16628790000686,381.66661880002357,381.64974710001843,381.66083860001527,381.66661880002357,381.66661880002357,381.66661880002357,383.53352769999765,Foils\057a.jpg,none,n,1.8515778000000864,None,,,,,,,,00054,001,2026-01-25_17h34.48.535,MST_test,2024.2.0,59.4586881208297,2026-01-25 17h34.55.535341 +0530,
63,0,64,n,2.148429299995769,None,64,0,63,383.54949160001706,,,,,,,,,,,,,,,,,,,,,,,,,,,,,,,,,,,,,,,,,,,,,,,,,,383.53362010000274,383.54949160001706,384.05011050001485,384.0333234000136,384.0475838999846,384.05011050001485,384.05011050001485,384.05011050001485,386.2001629000297,Scenes\123b.jpg,post,n,2.148429299995769,None,,,,,,,,00054,001,2026-01-25_17h34.48.535,MST_test,2024.2.0,59.4586881208297,2026-01-25 17h34.55.535341 +0530,
64,0,65,s,10.973007499997038,None,65,0,64,386.2163939999882,,,,,,,,,,,,,,,,,,,,,,,,,,,,,,,,,,,,,,,,,,,,,,,,,,386.20025579998037,386.2163939999882,386.72201269998914,386.69996940001147,386.71969970001373,386.72201269998914,386.72201269998914,386.72201269998914,397.70019559998764,Scenes\031b.jpg,mid,s,10.973007499997038,None,,,,,,,,00054,001,2026-01-25_17h34.48.535,MST_test,2024.2.0,59.4586881208297,2026-01-25 17h34.55.535341 +0530,
65,0,66,o,2.08560910000233,None,66,0,65,397.71639469999354,,,,,,,,,,,,,,,,,,,,,,,,,,,,,,,,,,,,,,,,,,,,,,,,,,397.7002902000095,397.71639469999354,398.21676749998005,398.2000210999977,398.2106008999981,398.21676749998005,398.21676749998005,398.21676749998005,400.3169093999895,Objects\028b.jpg,post,o,2.08560910000233,None,,,,,,,,00054,001,2026-01-25_17h34.48.535,MST_test,2024.2.0,59.4586881208297,2026-01-25 17h34.55.535341 +0530,
66,0,67,s,1.8210443999851122,None,67,0,66,400.33307039999636,,,,,,,,,,,,,,,,,,,,,,,,,,,,,,,,,,,,,,,,,,,,,,,,,,400.31700480001746,400.33307039999636,400.8332686999929,400.816630300018,400.8191464000265,400.8332686999929,400.8332686999929,400.8332686999929,402.66709230002016,Objects\138a.jpg,pre,s,1.8210443999851122,None,,,,,,,,00054,001,2026-01-25_17h34.48.535,MST_test,2024.2.0,59.4586881208297,2026-01-25 17h34.55.535341 +0530,
67,0,68,s,1.8476508000167087,None,68,0,67,402.68300140002975,,,,,,,,,,,,,,,,,,,,,,,,,,,,,,,,,,,,,,,,,,,,,,,,,,402.66718699998455,402.68300140002975,403.183236700017,403.1666813000338,403.1768339999835,403.183236700017,403.183236700017,403.183236700017,405.0336776000331,Objects\178b.jpg,post,s,1.8476508000167087,None,,,,,,,,00054,001,2026-01-25_17h34.48.535,MST_test,2024.2.0,59.4586881208297,2026-01-25 17h34.55.535341 +0530,
68,0,69,n,1.6327385999611579,None,69,0,68,405.04960420000134,,,,,,,,,,,,,,,,,,,,,,,,,,,,,,,,,,,,,,,,,,,,,,,,,,405.03377300000284,405.04960420000134,405.5501297999872,405.53329719998874,405.5471286000102,405.5501297999872,405.5501297999872,405.5501297999872,407.183567900036,Scenes\178b.jpg,pre,n,1.6327385999611579,None,,,,,,,,00054,001,2026-01-25_17h34.48.535,MST_test,2024.2.0,59.4586881208297,2026-01-25 17h34.55.535341 +0530,
69,0,70,n,8.33862819999922,None,70,0,69,407.1997289999854,,,,,,,,,,,,,,,,,,,,,,,,,,,,,,,,,,,,,,,,,,,,,,,,,,407.18366009998135,407.1997289999854,407.7000990000088,407.6832788999891,407.69446349999635,407.7000990000088,407.7000990000088,407.7000990000088,416.05002540000714,Objects\172b.jpg,mid,n,8.33862819999922,None,,,,,,,,00054,001,2026-01-25_17h34.48.535,MST_test,2024.2.0,59.4586881208297,2026-01-25 17h34.55.535341 +0530,
70,0,71,s,5.511422000010498,None,71,0,70,416.06628790003015,,,,,,,,,,,,,,,,,,,,,,,,,,,,,,,,,,,,,,,,,,,,,,,,,,416.05012189998524,416.06628790003015,416.5664456000086,416.5497893000138,416.55957570002647,416.5664456000086,416.5664456000086,416.5664456000086,422.08345670002745,Objects\007b.jpg,pre,s,5.511422000010498,None,,,,,,,,00054,001,2026-01-25_17h34.48.535,MST_test,2024.2.0,59.4586881208297,2026-01-25 17h34.55.535341 +0530,
71,0,72,o,2.3825239000143483,None,72,0,71,422.09955470002024,,,,,,,,,,,,,,,,,,,,,,,,,,,,,,,,,,,,,,,,,,,,,,,,,,422.08354730001884,422.09955470002024,422.59986309998203,422.5833822999848,422.5864321999834,422.59986309998203,422.59986309998203,422.59986309998203,424.9840145999915,Objects\075a.jpg,mid,o,2.3825239000143483,None,,,,,,,,00054,001,2026-01-25_17h34.48.535,MST_test,2024.2.0,59.4586881208297,2026-01-25 17h34.55.535341 +0530,
72,0,73,o,2.7391610000049695,None,73,0,72,424.99946560000535,,,,,,,,,,,,,,,,,,,,,,,,,,,,,,,,,,,,,,,,,,,,,,,,,,424.9841101000202,424.99946560000535,425.50005730002886,425.48316300002625,425.48989070003154,425.50005730002886,425.50005730002886,425.50005730002886,428.2502808999852,Scenes\147a.jpg,post,o,2.7391610000049695,None,,,,,,,,00054,001,2026-01-25_17h34.48.535,MST_test,2024.2.0,59.4586881208297,2026-01-25 17h34.55.535341 +0530,
73,0,74,o,1.3191206000046805,None,74,0,73,428.26644039998064,,,,,,,,,,,,,,,,,,,,,,,,,,,,,,,,,,,,,,,,,,,,,,,,,,428.2503791000345,428.26644039998064,428.76688180002384,428.7498237999971,428.753882399993,428.76688180002384,428.76688180002384,428.76688180002384,430.100058800017,Objects\023a.jpg,pre,o,1.3191206000046805,None,,,,,,,,00054,001,2026-01-25_17h34.48.535,MST_test,2024.2.0,59.4586881208297,2026-01-25 17h34.55.535341 +0530,
74,0,75,n,1.1333483000053093,None,75,0,74,430.11626530002104,,,,,,,,,,,,,,,,,,,,,,,,,,,,,,,,,,,,,,,,,,,,,,,,,,430.1001531999791,430.11626530002104,,430.60138439998263,430.6103194000316,430.61661740002455,430.61661740002455,430.61661740002455,431.7667057000217,Foils\097a.jpg,none,n,1.1333483000053093,None,,,,,,,,00054,001,2026-01-25_17h34.48.535,MST_test,2024.2.0,59.4586881208297,2026-01-25 17h34.55.535341 +0530,
75,0,76,n,1.8640104999649338,None,76,0,75,431.78294380003354,,,,,,,,,,,,,,,,,,,,,,,,,,,,,,,,,,,,,,,,,,,,,,,,,,431.76679949997924,431.78294380003354,432.28576780000003,432.2665233000298,432.2835845000227,432.28576780000003,432.28576780000003,432.28576780000003,434.15048180002486,Scenes\074b.jpg,pre,n,1.8640104999649338,None,,,,,,,,00054,001,2026-01-25_17h34.48.535,MST_test,2024.2.0,59.4586881208297,2026-01-25 17h34.55.535341 +0530,
76,0,77,n,2.1075933999964036,None,77,0,76,434.16627059999155,,,,,,,,,,,,,,,,,,,,,,,,,,,,,,,,,,,,,,,,,,,,,,,,,,434.150574600033,434.16627059999155,434.66673579998314,434.64980090002064,434.6587653000024,434.66673579998314,434.66673579998314,434.66673579998314,436.7835232000216,Foils\scenes2.jpg,none,n,2.1075933999964036,None,,,,,,,,00054,001,2026-01-25_17h34.48.535,MST_test,2024.2.0,59.4586881208297,2026-01-25 17h34.55.535341 +0530,
77,0,78,n,1.3140714999753982,None,78,0,77,436.79948899999727,,,,,,,,,,,,,,,,,,,,,,,,,,,,,,,,,,,,,,,,,,,,,,,,,,436.7836148000206,436.79948899999727,437.2998491000035,437.2832075000042,437.2937036000076,437.2998491000035,437.2998491000035,437.2998491000035,438.61682960001053,Objects\037b.jpg,pre,n,1.3140714999753982,None,,,,,,,,00054,001,2026-01-25_17h34.48.535,MST_test,2024.2.0,59.4586881208297,2026-01-25 17h34.55.535341 +0530,
78,0,79,o,1.4334510000189766,None,79,0,78,438.63293710001744,,,,,,,,,,,,,,,,,,,,,,,,,,,,,,,,,,,,,,,,,,,,,,,,,,438.6169544000295,438.63293710001744,439.13308010000037,439.11652300000424,439.11902460001875,439.13308010000037,439.13308010000037,439.13308010000037,440.5669870999991,Objects\067a.jpg,mid,o,1.4334510000189766,None,,,,,,,,00054,001,2026-01-25_17h34.48.535,MST_test,2024.2.0,59.4586881208297,2026-01-25 17h34.55.535341 +0530,
79,0,80,n,1.395406300027389,None,80,0,79,440.58290540002054,,,,,,,,,,,,,,,,,,,,,,,,,,,,,,,,,,,,,,,,,,,,,,,,,,440.567082500027,440.58290540002054,441.08325359999435,441.0666100999806,441.0784067999921,441.08325359999435,441.08325359999435,441.08325359999435,442.4835738000111,Foils\086a.jpg,none,n,1.395406300027389,None,,,,,,,,00054,001,2026-01-25_17h34.48.535,MST_test,2024.2.0,59.4586881208297,2026-01-25 17h34.55.535341 +0530,
80,0,81,s,3.597759500029497,None,81,0,80,442.49952359998133,,,,,,,,,,,,,,,,,,,,,,,,,,,,,,,,,,,,,,,,,,,,,,,,,,442.4836696999846,442.49952359998133,443.00018820003606,442.983181699994,442.99114830000326,443.00018820003606,443.00018820003606,443.00018820003606,446.6002781999996,Scenes\115a.jpg,mid,s,3.597759500029497,None,,,,,,,,00054,001,2026-01-25_17h34.48.535,MST_test,2024.2.0,59.4586881208297,2026-01-25 17h34.55.535341 +0530,
81,0,82,s,1.7534884000197053,None,82,0,81,446.6163104000152,,,,,,,,,,,,,,,,,,,,,,,,,,,,,,,,,,,,,,,,,,,,,,,,,,446.6003696999978,446.6163104000152,447.1168532000156,447.09978649998084,447.1060204000096,447.1168532000156,447.1168532000156,447.1168532000156,448.8835341000231,Scenes\191a.jpg,mid,s,1.7534884000197053,None,,,,,,,,00054,001,2026-01-25_17h34.48.535,MST_test,2024.2.0,59.4586881208297,2026-01-25 17h34.55.535341 +0530,
82,0,83,s,1.8137705000117421,None,83,0,82,448.8994641000172,,,,,,,,,,,,,,,,,,,,,,,,,,,,,,,,,,,,,,,,,,,,,,,,,,448.88362630002666,448.8994641000172,449.40007610002067,449.3832243999932,449.3872807000298,449.40007610002067,449.40007610002067,449.40007610002067,451.2168765999959,Objects\117a.jpg,pre,s,1.8137705000117421,None,,,,,,,,00054,001,2026-01-25_17h34.48.535,MST_test,2024.2.0,59.4586881208297,2026-01-25 17h34.55.535341 +0530,
83,0,84,s,9.10258339997381,None,84,0,83,451.23289240000304,,,,,,,,,,,,,,,,,,,,,,,,,,,,,,,,,,,,,,,,,,,,,,,,,,451.2169667999842,451.23289240000304,451.73601729999064,451.71655020001344,451.73390920000384,451.73601729999064,451.73601729999064,451.73601729999064,460.8500291000237,Scenes\017b.jpg,post,s,9.10258339997381,None,,,,,,,,00054,001,2026-01-25_17h34.48.535,MST_test,2024.2.0,59.4586881208297,2026-01-25 17h34.55.535341 +0530,
84,0,85,n,1.5921972999931313,None,85,0,84,460.86638449999737,,,,,,,,,,,,,,,,,,,,,,,,,,,,,,,,,,,,,,,,,,,,,,,,,,460.850121400028,460.86638449999737,461.3667404000298,461.3497863999801,461.35977280000225,461.3667404000298,461.3667404000298,461.3667404000298,462.96704299998237,Foils\058a.jpg,none,n,1.5921972999931313,None,,,,,,,,00054,001,2026-01-25_17h34.48.535,MST_test,2024.2.0,59.4586881208297,2026-01-25 17h34.55.535341 +0530,
85,0,86,o,1.6103960000327788,None,86,0,85,462.9828889000346,,,,,,,,,,,,,,,,,,,,,,,,,,,,,,,,,,,,,,,,,,,,,,,,,,462.96713720000116,462.9828889000346,463.4834529000218,463.4665075999801,463.47390530002303,463.4834529000218,463.4834529000218,463.4834529000218,465.1003609999898,Scenes\107a.jpg,post,o,1.6103960000327788,None,,,,,,,,00054,001,2026-01-25_17h34.48.535,MST_test,2024.2.0,59.4586881208297,2026-01-25 17h34.55.535341 +0530,
86,0,87,o,2.9333917000330985,None,87,0,86,465.11652300000424,,,,,,,,,,,,,,,,,,,,,,,,,,,,,,,,,,,,,,,,,,,,,,,,,,465.1004647000227,465.11652300000424,,465.6011806000024,465.6074302000343,465.6169053000049,465.6169053000049,465.6169053000049,468.5668168999837,Scenes\140a.jpg,post,o,2.9333917000330985,None,,,,,,,,00054,001,2026-01-25_17h34.48.535,MST_test,2024.2.0,59.4586881208297,2026-01-25 17h34.55.535341 +0530,
87,0,88,s,1.2987673999741673,None,88,0,87,468.58291779999854,,,,,,,,,,,,,,,,,,,,,,,,,,,,,,,,,,,,,,,,,,,,,,,,,,468.5669077000348,468.58291779999854,469.0834894999862,469.0664986000047,469.0765597000136,469.0834894999862,469.0834894999862,469.0834894999862,470.38422680000076,Objects\018b.jpg,pre,s,1.2987673999741673,None,,,,,,,,00054,001,2026-01-25_17h34.48.535,MST_test,2024.2.0,59.4586881208297,2026-01-25 17h34.55.535341 +0530,
88,0,89,n,1.8985603000037372,None,89,0,88,470.3994901999831,,,,,,,,,,,,,,,,,,,,,,,,,,,,,,,,,,,,,,,,,,,,,,,,,,470.3843241999857,470.3994901999831,470.8996438999893,470.88311250001425,470.8925985000096,470.8996438999893,470.8996438999893,470.8996438999893,472.79999020003015,Objects\069b.jpg,post,n,1.8985603000037372,None,,,,,,,,00054,001,2026-01-25_17h34.48.535,MST_test,2024.2.0,59.4586881208297,2026-01-25 17h34.55.535341 +0530,
89,0,90,s,6.7531218000222,None,90,0,89,472.8162814999814,,,,,,,,,,,,,,,,,,,,,,,,,,,,,,,,,,,,,,,,,,,,,,,,,,472.8000887000235,472.8162814999814,473.3167875999934,473.299699300027,473.310234100034,473.3167875999934,473.3167875999934,473.3167875999934,480.0834393000114,Scenes\086a.jpg,pre,s,6.7531218000222,None,,,,,,,,00054,001,2026-01-25_17h34.48.535,MST_test,2024.2.0,59.4586881208297,2026-01-25 17h34.55.535341 +0530,
90,0,91,n,2.030561400053557,None,91,0,90,480.0995286999969,,,,,,,,,,,,,,,,,,,,,,,,,,,,,,,,,,,,,,,,,,,,,,,,,,480.0835324000218,480.0995286999969,480.6001912000356,480.58313980000094,480.58960459998343,480.6001912000356,480.6001912000356,480.6001912000356,482.63346149999416,Scenes\173a.jpg,pre,n,2.030561400053557,None,,,,,,,,00054,001,2026-01-25_17h34.48.535,MST_test,2024.2.0,59.4586881208297,2026-01-25 17h34.55.535341 +0530,
91,0,92,n,1.733138700015843,None,92,0,91,482.64948110003024,,,,,,,,,,,,,,,,,,,,,,,,,,,,,,,,,,,,,,,,,,,,,,,,,,482.6335577000282,482.64948110003024,483.15293710003607,483.133229100029,483.1507997000008,483.15293710003607,483.15293710003607,483.15293710003607,484.9000760000199,Scenes\059b.jpg,pre,n,1.733138700015843,None,,,,,,,,00054,001,2026-01-25_17h34.48.535,MST_test,2024.2.0,59.4586881208297,2026-01-25 17h34.55.535341 +0530,
92,0,93,n,1.1575030999956653,None,93,0,92,484.9162157999817,,,,,,,,,,,,,,,,,,,,,,,,,,,,,,,,,,,,,,,,,,,,,,,,,,484.90016750001814,484.9162157999817,485.4169055999955,485.39969560003374,485.4097566999844,485.4169055999955,485.4169055999955,485.4169055999955,486.5835351999849,Objects\070b.jpg,pre,n,1.1575030999956653,None,,,,,,,,00054,001,2026-01-25_17h34.48.535,MST_test,2024.2.0,59.4586881208297,2026-01-25 17h34.55.535341 +0530,
93,0,94,n,1.9755900999880396,None,94,0,93,486.60071840003366,,,,,,,,,,,,,,,,,,,,,,,,,,,,,,,,,,,,,,,,,,,,,,,,,,486.58362619997934,486.60071840003366,,487.0996249000309,487.11692579998635,487.11901870003203,487.11901870003203,487.11901870003203,489.09992409998085,Scenes\038b.jpg,mid,n,1.9755900999880396,None,,,,,,,,00054,001,2026-01-25_17h34.48.535,MST_test,2024.2.0,59.4586881208297,2026-01-25 17h34.55.535341 +0530,
94,0,95,n,5.765417799993884,None,95,0,94,489.1162536999909,,,,,,,,,,,,,,,,,,,,,,,,,,,,,,,,,,,,,,,,,,,,,,,,,,489.10001619998366,489.1162536999909,,489.6010831000167,489.6066542000044,489.6169178999844,489.6169178999844,489.6169178999844,495.3834736000281,Scenes\117a.jpg,pre,n,5.765417799993884,None,,,,,,,,00054,001,2026-01-25_17h34.48.535,MST_test,2024.2.0,59.4586881208297,2026-01-25 17h34.55.535341 +0530,
95,0,96,s,1.7004371999646537,None,96,0,95,495.39943809999386,,,,,,,,,,,,,,,,,,,,,,,,,,,,,,,,,,,,,,,,,,,,,,,,,,495.3835646000225,495.39943809999386,495.90000890003284,495.88324779999675,495.8865307000233,495.90000890003284,495.90000890003284,495.90000890003284,497.6017608999973,Objects\031a.jpg,post,s,1.7004371999646537,None,,,,,,,,00054,001,2026-01-25_17h34.48.535,MST_test,2024.2.0,59.4586881208297,2026-01-25 17h34.55.535341 +0530,
96,0,97,s,1.314494399994146,None,97,0,96,497.61624020000454,,,,,,,,,,,,,,,,,,,,,,,,,,,,,,,,,,,,,,,,,,,,,,,,,,497.6018514999887,497.61624020000454,498.11647360003553,498.0997885999968,498.1088738000253,498.11647360003553,498.11647360003553,498.11647360003553,499.4337162000011,Objects\166b.jpg,pre,s,1.314494399994146,None,,,,,,,,00054,001,2026-01-25_17h34.48.535,MST_test,2024.2.0,59.4586881208297,2026-01-25 17h34.55.535341 +0530,
97,0,98,n,1.2563101000268944,None,98,0,97,499.4495685999864,,,,,,,,,,,,,,,,,,,,,,,,,,,,,,,,,,,,,,,,,,,,,,,,,,499.4338093000115,499.4495685999864,499.94988460000604,499.9331920000259,499.9420917999814,499.94988460000604,499.94988460000604,499.94988460000604,501.2167606999865,Foils\042a.jpg,none,n,1.2563101000268944,None,,,,,,,,00054,001,2026-01-25_17h34.48.535,MST_test,2024.2.0,59.4586881208297,2026-01-25 17h34.55.535341 +0530,
98,0,99,o,3.913869300042279,None,99,0,98,501.2328707000124,,,,,,,,,,,,,,,,,,,,,,,,,,,,,,,,,,,,,,,,,,,,,,,,,,501.2168510000338,501.2328707000124,501.73313090001466,501.7165739000193,501.7191580000217,501.73313090001466,501.73313090001466,501.73313090001466,505.6503749000258,Objects\009a.jpg,pre,o,3.913869300042279,None,,,,,,,,00054,001,2026-01-25_17h34.48.535,MST_test,2024.2.0,59.4586881208297,2026-01-25 17h34.55.535341 +0530,
99,0,100,n,1.551948899985291,None,100,0,99,505.6663231999846,,,,,,,,,,,,,,,,,,,,,,,,,,,,,,,,,,,,,,,,,,,,,,,,,,505.65046889998484,505.6663231999846,506.43023529998027,506.1498636000324,506.42565980000654,506.43023529998027,506.43023529998027,506.43023529998027,507.9836639999994,Foils\scenes26.jpg,none,n,1.551948899985291,None,,,,,,,,00054,001,2026-01-25_17h34.48.535,MST_test,2024.2.0,59.4586881208297,2026-01-25 17h34.55.535341 +0530,
100,0,101,o,5.300184800056741,None,101,0,100,507.999690000026,,,,,,,,,,,,,,,,,,,,,,,,,,,,,,,,,,,,,,,,,,,,,,,,,,507.9837550999946,507.999690000026,508.52214289997937,508.4832896000007,508.5200828000088,508.52214289997937,508.52214289997937,508.52214289997937,513.8335943000275,Objects\050a.jpg,pre,o,5.300184800056741,None,,,,,,,,00054,001,2026-01-25_17h34.48.535,MST_test,2024.2.0,59.4586881208297,2026-01-25 17h34.55.535341 +0530,
101,0,102,s,4.800465499982238,None,102,0,101,513.8496701000258,,,,,,,,,,,,,,,,,,,,,,,,,,,,,,,,,,,,,,,,,,,,,,,,,,513.8336837000097,513.8496701000258,514.3500736000133,514.3332264000201,514.3394932000083,514.3500736000133,514.3500736000133,514.3500736000133,519.1669808999868,Scenes\139a.jpg,post,s,4.800465499982238,None,,,,,,,,00054,001,2026-01-25_17h34.48.535,MST_test,2024.2.0,59.4586881208297,2026-01-25 17h34.55.535341 +0530,
102,0,103,n,1.2342304999474436,None,103,0,102,519.183070500032,,,,,,,,,,,,,,,,,,,,,,,,,,,,,,,,,,,,,,,,,,,,,,,,,,519.1670716999797,519.183070500032,519.6836247000028,519.66659540002,519.6762417000136,519.6836247000028,519.6836247000028,519.6836247000028,520.9334174999967,Foils\113a.jpg,none,n,1.2342304999474436,None,,,,,,,,00054,001,2026-01-25_17h34.48.535,MST_test,2024.2.0,59.4586881208297,2026-01-25 17h34.55.535341 +0530,
103,0,104,n,2.4037615000270307,None,104,0,103,520.9496775000007,,,,,,,,,,,,,,,,,,,,,,,,,,,,,,,,,,,,,,,,,,,,,,,,,,520.9335094999988,520.9496775000007,521.4500691000139,521.4332499000011,521.4422652000212,521.4500691000139,521.4500691000139,521.4500691000139,523.8669411999872,Foils\scenes14.jpg,none,n,2.4037615000270307,None,,,,,,,,00054,001,2026-01-25_17h34.48.535,MST_test,2024.2.0,59.4586881208297,2026-01-25 17h34.55.535341 +0530,
104,0,105,n,4.895060900016688,None,105,0,104,523.8829347999999,,,,,,,,,,,,,,,,,,,,,,,,,,,,,,,,,,,,,,,,,,,,,,,,,,523.8670413999935,523.8829347999999,524.3831898000208,524.3668624000275,524.3776611000067,524.3831898000208,524.3831898000208,524.3831898000208,529.2835990000167,Scenes\125a.jpg,mid,n,4.895060900016688,None,,,,,,,,00054,001,2026-01-25_17h34.48.535,MST_test,2024.2.0,59.4586881208297,2026-01-25 17h34.55.535341 +0530,
105,0,106,o,8.310323599958792,None,106,0,105,529.2996775999782,,,,,,,,,,,,,,,,,,,,,,,,,,,,,,,,,,,,,,,,,,,,,,,,,,529.2836903000134,529.2996775999782,529.8002391000045,529.783230400004,529.7944227000116,529.8002391000045,529.8002391000045,529.8002391000045,538.1169357000035,Scenes\008b.jpg,mid,o,8.310323599958792,None,,,,,,,,00054,001,2026-01-25_17h34.48.535,MST_test,2024.2.0,59.4586881208297,2026-01-25 17h34.55.535341 +0530,
106,0,107,n,1.7010933000128716,None,107,0,106,538.1330648000003,,,,,,,,,,,,,,,,,,,,,,,,,,,,,,,,,,,,,,,,,,,,,,,,,,538.1170334999915,538.1330648000003,538.6333553000004,538.61649580003,538.629251300008,538.6333553000004,538.6333553000004,538.6333553000004,540.3502910999814,Scenes\079b.jpg,mid,n,1.7010933000128716,None,,,,,,,,00054,001,2026-01-25_17h34.48.535,MST_test,2024.2.0,59.4586881208297,2026-01-25 17h34.55.535341 +0530,
107,0,108,n,2.89911190001294,None,108,0,107,540.3663868000149,,,,,,,,,,,,,,,,,,,,,,,,,,,,,,,,,,,,,,,,,,,,,,,,,,540.3503948000143,540.3663868000149,540.8669147000182,540.8499038000009,540.8603165000095,540.8669147000182,540.8669147000182,540.8669147000182,543.7668328,Scenes\145a.jpg,post,n,2.89911190001294,None,,,,,,,,00054,001,2026-01-25_17h34.48.535,MST_test,2024.2.0,59.4586881208297,2026-01-25 17h34.55.535341 +0530,
108,0,109,n,1.978415599965956,None,109,0,108,543.7830155999982,,,,,,,,,,,,,,,,,,,,,,,,,,,,,,,,,,,,,,,,,,,,,,,,,,543.7669280000264,543.7830155999982,544.2833972999942,544.2665284000104,544.2763637999888,544.2833972999942,544.2833972999942,544.2833972999942,546.2669445999782,Foils\101b.jpg,none,n,1.978415599965956,None,,,,,,,,00054,001,2026-01-25_17h34.48.535,MST_test,2024.2.0,59.4586881208297,2026-01-25 17h34.55.535341 +0530,
109,0,110,n,6.046112100011669,None,110,0,109,546.282912500028,,,,,,,,,,,,,,,,,,,,,,,,,,,,,,,,,,,,,,,,,,,,,,,,,,546.26703550003,546.282912500028,546.784187000012,546.7665673000156,546.7821104000323,546.784187000012,546.784187000012,546.784187000012,552.833644600003,Scenes\028b.jpg,mid,n,6.046112100011669,None,,,,,,,,00054,001,2026-01-25_17h34.48.535,MST_test,2024.2.0,59.4586881208297,2026-01-25 17h34.55.535341 +0530,
110,0,111,s,3.8640539000043646,None,111,0,110,552.8496753000072,,,,,,,,,,,,,,,,,,,,,,,,,,,,,,,,,,,,,,,,,,,,,,,,,,552.8337536000181,552.8496753000072,553.3502255000058,553.3331226999871,553.3398387000198,553.3502255000058,553.3502255000058,553.3502255000058,557.2168187000207,Scenes\124a.jpg,mid,s,3.8640539000043646,None,,,,,,,,00054,001,2026-01-25_17h34.48.535,MST_test,2024.2.0,59.4586881208297,2026-01-25 17h34.55.535341 +0530,
111,0,112,n,3.112372300005518,None,112,0,111,557.2329853000119,,,,,,,,,,,,,,,,,,,,,,,,,,,,,,,,,,,,,,,,,,,,,,,,,,557.2169103000197,557.2329853000119,557.7334373000194,557.7166121000191,557.7286461000331,557.7334373000194,557.7334373000194,557.7334373000194,560.850317400007,Scenes\141b.jpg,post,n,3.112372300005518,None,,,,,,,,00054,001,2026-01-25_17h34.48.535,MST_test,2024.2.0,59.4586881208297,2026-01-25 17h34.55.535341 +0530,
112,0,113,s,1.9518257000017911,None,113,0,112,560.8663651000243,,,,,,,,,,,,,,,,,,,,,,,,,,,,,,,,,,,,,,,,,,,,,,,,,,560.8504133999813,560.8663651000243,561.3667691000155,561.3499453000259,561.3533663999988,561.3667691000155,561.3667691000155,561.3667691000155,563.3335824999958,Objects\119a.jpg,mid,s,1.9518257000017911,None,,,,,,,,00054,001,2026-01-25_17h34.48.535,MST_test,2024.2.0,59.4586881208297,2026-01-25 17h34.55.535341 +0530,
113,0,114,n,4.500320999999531,None,114,0,113,563.3496340999845,,,,,,,,,,,,,,,,,,,,,,,,,,,,,,,,,,,,,,,,,,,,,,,,,,563.3336748000002,563.3496340999845,563.850082000019,563.833095000009,563.8434091000236,563.850082000019,563.850082000019,563.850082000019,568.3668147000135,Objects\151b.jpg,post,n,4.500320999999531,None,,,,,,,,00054,001,2026-01-25_17h34.48.535,MST_test,2024.2.0,59.4586881208297,2026-01-25 17h34.55.535341 +0530,
114,0,115,n,2.226900800014846,None,115,0,114,568.3828173999791,,,,,,,,,,,,,,,,,,,,,,,,,,,,,,,,,,,,,,,,,,,,,,,,,,568.3669168000342,568.3828173999791,568.8831061000237,568.866463000013,568.8760004999931,568.8831061000237,568.8831061000237,568.8831061000237,571.1168350999942,Objects\148b.jpg,mid,n,2.226900800014846,None,,,,,,,,00054,001,2026-01-25_17h34.48.535,MST_test,2024.2.0,59.4586881208297,2026-01-25 17h34.55.535341 +0530,
115,0,116,n,2.7491872000391595,None,116,0,115,571.1328215000103,,,,,,,,,,,,,,,,,,,,,,,,,,,,,,,,,,,,,,,,,,,,,,,,,,571.116926799994,571.1328215000103,571.6329847000306,571.6164625000092,571.6253465000191,571.6329847000306,571.6329847000306,571.6329847000306,574.3833662000252,Objects\019b.jpg,mid,n,2.7491872000391595,None,,,,,,,,00054,001,2026-01-25_17h34.48.535,MST_test,2024.2.0,59.4586881208297,2026-01-25 17h34.55.535341 +0530,
116,0,117,n,1.0971162000205368,None,117,0,116,574.3995001000003,,,,,,,,,,,,,,,,,,,,,,,,,,,,,,,,,,,,,,,,,,,,,,,,,,574.3834610999911,574.3995001000003,574.9017981999787,574.8831341000041,574.8997557000257,574.9017981999787,574.9017981999787,574.9017981999787,576.0001553000184,Scenes\072b.jpg,post,n,1.0971162000205368,None,,,,,,,,00054,001,2026-01-25_17h34.48.535,MST_test,2024.2.0,59.4586881208297,2026-01-25 17h34.55.535341 +0530,
117,0,118,n,4.401269699970726,None,118,0,117,576.0162090000231,,,,,,,,,,,,,,,,,,,,,,,,,,,,,,,,,,,,,,,,,,,,,,,,,,576.0002452000044,576.0162090000231,576.5167314999853,576.4998491000151,576.5102654999937,576.5167314999853,576.5167314999853,576.5167314999853,580.9334697999875,Scenes\176a.jpg,pre,n,4.401269699970726,None,,,,,,,,00054,001,2026-01-25_17h34.48.535,MST_test,2024.2.0,59.4586881208297,2026-01-25 17h34.55.535341 +0530,
118,0,119,n,2.1479572000098415,None,119,0,118,580.9495266000158,,,,,,,,,,,,,,,,,,,,,,,,,,,,,,,,,,,,,,,,,,,,,,,,,,580.9335617999895,580.9495266000158,581.4579240999883,581.4329841000144,581.4556403000024,581.4579240999883,581.4579240999883,581.4579240999883,583.6167675000033,Foils\scenes23.jpg,none,n,2.1479572000098415,None,,,,,,,,00054,001,2026-01-25_17h34.48.535,MST_test,2024.2.0,59.4586881208297,2026-01-25 17h34.55.535341 +0530,
119,0,120,s,4.191348899970762,None,120,0,119,583.6327083000215,,,,,,,,,,,,,,,,,,,,,,,,,,,,,,,,,,,,,,,,,,,,,,,,,,583.6168683000142,583.6327083000215,584.1348343000282,584.1163886000286,584.1325428999844,584.1348343000282,584.1348343000282,584.1348343000282,588.3336057999986,Scenes\131b.jpg,pre,s,4.191348899970762,None,,,,,,,,00054,001,2026-01-25_17h34.48.535,MST_test,2024.2.0,59.4586881208297,2026-01-25 17h34.55.535341 +0530,
120,0,121,n,1.1566221000393853,None,121,0,120,588.3495062000002,,,,,,,,,,,,,,,,,,,,,,,,,,,,,,,,,,,,,,,,,,,,,,,,,,588.3337041999912,588.3495062000002,588.8500512000173,588.8330593000283,588.8427962000133,588.8500512000173,588.8500512000173,588.8500512000173,590.0167801000061,Foils\010a.jpg,none,n,1.1566221000393853,None,,,,,,,,00054,001,2026-01-25_17h34.48.535,MST_test,2024.2.0,59.4586881208297,2026-01-25 17h34.55.535341 +0530,
121,0,122,o,5.273184299992863,None,122,0,121,590.0327252999996,,,,,,,,,,,,,,,,,,,,,,,,,,,,,,,,,,,,,,,,,,,,,,,,,,590.0168684999808,590.0327252999996,590.5329651000211,590.5166572000016,590.5195405000122,590.5329651000211,590.5329651000211,590.5329651000211,595.8167133000097,Objects\126a.jpg,post,o,5.273184299992863,None,,,,,,,,00054,001,2026-01-25_17h34.48.535,MST_test,2024.2.0,59.4586881208297,2026-01-25 17h34.55.535341 +0530,
122,0,123,n,1.6334297000430524,None,123,0,122,595.8328301000292,,,,,,,,,,,,,,,,,,,,,,,,,,,,,,,,,,,,,,,,,,,,,,,,,,595.8168042000034,595.8328301000292,596.3330458999844,596.3166146000149,596.3195287000271,596.3330458999844,596.3330458999844,596.3330458999844,597.9670235000085,Objects\005a.jpg,post,n,1.6334297000430524,None,,,,,,,,00054,001,2026-01-25_17h34.48.535,MST_test,2024.2.0,59.4586881208297,2026-01-25 17h34.55.535341 +0530,
123,0,124,s,3.586756900011096,None,124,0,123,597.9827397000045,,,,,,,,,,,,,,,,,,,,,,,,,,,,,,,,,,,,,,,,,,,,,,,,,,597.9671156000113,597.9827397000045,598.4832437000005,598.4664134000195,598.475920900004,598.4832437000005,598.4832437000005,598.4832437000005,602.0833866000175,Scenes\134a.jpg,mid,s,3.586756900011096,None,,,,,,,,00054,001,2026-01-25_17h34.48.535,MST_test,2024.2.0,59.4586881208297,2026-01-25 17h34.55.535341 +0530,
124,0,125,o,4.5502073999959975,None,125,0,124,602.0995404000278,,,,,,,,,,,,,,,,,,,,,,,,,,,,,,,,,,,,,,,,,,,,,,,,,,602.0834781000158,602.0995404000278,602.6000181999989,602.5831001999904,602.586873000022,602.6000181999989,602.6000181999989,602.6000181999989,607.1666517999838,Objects\144a.jpg,post,o,4.5502073999959975,None,,,,,,,,00054,001,2026-01-25_17h34.48.535,MST_test,2024.2.0,59.4586881208297,2026-01-25 17h34.55.535341 +0530,
125,0,126,s,1.379603400011547,None,126,0,125,607.1827689000056,,,,,,,,,,,,,,,,,,,,,,,,,,,,,,,,,,,,,,,,,,,,,,,,,,607.1667417000281,607.1827689000056,607.6828852000181,607.666453199985,607.669038299995,607.6828852000181,607.6828852000181,607.6828852000181,609.0668255999917,Objects\115a.jpg,pre,s,1.379603400011547,None,,,,,,,,00054,001,2026-01-25_17h34.48.535,MST_test,2024.2.0,59.4586881208297,2026-01-25 17h34.55.535341 +0530,
126,0,127,o,7.647206099994946,None,127,0,126,609.0827638999908,,,,,,,,,,,,,,,,,,,,,,,,,,,,,,,,,,,,,,,,,,,,,,,,,,609.0669151000329,609.0827638999908,609.5830265000113,609.5664151000092,609.5764166000299,609.5830265000113,609.5830265000113,609.5830265000113,617.2334385000286,Objects\093b.jpg,mid,o,7.647206099994946,None,,,,,,,,00054,001,2026-01-25_17h34.48.535,MST_test,2024.2.0,59.4586881208297,2026-01-25 17h34.55.535341 +0530,
127,0,128,n,4.336295099987183,None,128,0,127,617.2494639999932,,,,,,,,,,,,,,,,,,,,,,,,,,,,,,,,,,,,,,,,,,,,,,,,,,617.2335280000116,617.2494639999932,617.7500072999974,617.732948800025,617.7463285999838,617.7500072999974,617.7500072999974,617.7500072999974,622.1003370999824,Scenes\169b.jpg,mid,n,4.336295099987183,None,,,,,,,,00054,001,2026-01-25_17h34.48.535,MST_test,2024.2.0,59.4586881208297,2026-01-25 17h34.55.535341 +0530,
128,0,129,n,1.1499489999841899,None,129,0,128,622.1162231999915,,,,,,,,,,,,,,,,,,,,,,,,,,,,,,,,,,,,,,,,,,,,,,,,,,622.1004330000142,622.1162231999915,,622.6010427000001,622.6124422000139,622.6166749999975,622.6166749999975,622.6166749999975,623.7831898999866,Foils\090a.jpg,none,n,1.1499489999841899,None,,,,,,,,00054,001,2026-01-25_17h34.48.535,MST_test,2024.2.0,59.4586881208297,2026-01-25 17h34.55.535341 +0530,
129,0,130,n,2.3059213000233285,None,130,0,129,623.7994596000062,,,,,,,,,,,,,,,,,,,,,,,,,,,,,,,,,,,,,,,,,,,,,,,,,,623.7832787000225,623.7994596000062,624.3001232999959,624.2831093000132,624.2905656999792,624.3001232999959,624.3001232999959,624.3001232999959,626.6168125999975,Scenes\077a.jpg,pre,n,2.3059213000233285,None,,,,,,,,00054,001,2026-01-25_17h34.48.535,MST_test,2024.2.0,59.4586881208297,2026-01-25 17h34.55.535341 +0530,
130,0,131,n,1.5933370999991894,None,131,0,130,626.6329614000279,,,,,,,,,,,,,,,,,,,,,,,,,,,,,,,,,,,,,,,,,,,,,,,,,,626.6169050000026,626.6329614000279,627.1335103000165,627.1165491000284,627.1239222000004,627.1335103000165,627.1335103000165,627.1335103000165,628.7334318000358,Scenes\095a.jpg,pre,n,1.5933370999991894,None,,,,,,,,00054,001,2026-01-25_17h34.48.535,MST_test,2024.2.0,59.4586881208297,2026-01-25 17h34.55.535341 +0530,
131,0,132,s,1.7482429000083357,None,132,0,131,628.7495833000285,,,,,,,,,,,,,,,,,,,,,,,,,,,,,,,,,,,,,,,,,,,,,,,,,,628.7335371000227,628.7495833000285,629.2501040000352,629.2331474000239,629.2428194999811,629.2501040000352,629.2501040000352,629.2501040000352,631.000204299984,Objects\175b.jpg,pre,s,1.7482429000083357,None,,,,,,,,00054,001,2026-01-25_17h34.48.535,MST_test,2024.2.0,59.4586881208297,2026-01-25 17h34.55.535341 +0530,
132,0,133,n,1.7144273999729194,None,133,0,132,631.0162174000288,,,,,,,,,,,,,,,,,,,,,,,,,,,,,,,,,,,,,,,,,,,,,,,,,,631.00030840002,631.0162174000288,631.5168171999976,631.4998754999833,631.509722799994,631.5168171999976,631.5168171999976,631.5168171999976,633.2335477999877,Scenes\105a.jpg,post,n,1.7144273999729194,None,,,,,,,,00054,001,2026-01-25_17h34.48.535,MST_test,2024.2.0,59.4586881208297,2026-01-25 17h34.55.535341 +0530,
133,0,134,s,4.9443741999566555,None,134,0,133,633.2496570000076,,,,,,,,,,,,,,,,,,,,,,,,,,,,,,,,,,,,,,,,,,,,,,,,,,633.2336473999894,633.2496570000076,633.7500393000082,633.7331110999803,633.7363401000039,633.7500393000082,633.7500393000082,633.7500393000082,638.7001331000356,Objects\088a.jpg,mid,s,4.9443741999566555,None,,,,,,,,00054,001,2026-01-25_17h34.48.535,MST_test,2024.2.0,59.4586881208297,2026-01-25 17h34.55.535341 +0530,
134,0,135,s,1.5647813999676146,None,135,0,134,638.7162842000253,,,,,,,,,,,,,,,,,,,,,,,,,,,,,,,,,,,,,,,,,,,,,,,,,,638.7002235000255,638.7162842000253,639.2169980999897,639.1999059999944,639.2109227000037,639.2169980999897,639.2169980999897,639.2169980999897,640.7834385000169,Scenes\045a.jpg,mid,s,1.5647813999676146,None,,,,,,,,00054,001,2026-01-25_17h34.48.535,MST_test,2024.2.0,59.4586881208297,2026-01-25 17h34.55.535341 +0530,
135,0,136,s,2.402744300023187,None,136,0,135,640.7996554999845,,,,,,,,,,,,,,,,,,,,,,,,,,,,,,,,,,,,,,,,,,,,,,,,,,640.7835302000167,640.7996554999845,641.3001431000303,641.2833928000182,641.2945069000125,641.3001431000303,641.3001431000303,641.3001431000303,643.71695490001,Scenes\009a.jpg,mid,s,2.402744300023187,None,,,,,,,,00054,001,2026-01-25_17h34.48.535,MST_test,2024.2.0,59.4586881208297,2026-01-25 17h34.55.535341 +0530,
136,0,137,s,1.4012421000516042,None,137,0,136,643.7328829999897,,,,,,,,,,,,,,,,,,,,,,,,,,,,,,,,,,,,,,,,,,,,,,,,,,643.7170445999946,643.7328829999897,644.237620000029,644.2166318999953,644.2353455999983,644.237620000029,644.237620000029,644.237620000029,645.6507432999788,Scenes\183b.jpg,mid,s,1.4012421000516042,None,,,,,,,,00054,001,2026-01-25_17h34.48.535,MST_test,2024.2.0,59.4586881208297,2026-01-25 17h34.55.535341 +0530,
137,0,138,o,1.9990674000000581,None,138,0,137,645.6662773999851,,,,,,,,,,,,,,,,,,,,,,,,,,,,,,,,,,,,,,,,,,,,,,,,,,645.6508464000071,645.6662773999851,646.1667981999926,646.1498773000203,646.1530627000029,646.1667981999926,646.1667981999926,646.1667981999926,648.1669181000325,Objects\058a.jpg,pre,o,1.9990674000000581,None,,,,,,,,00054,001,2026-01-25_17h34.48.535,MST_test,2024.2.0,59.4586881208297,2026-01-25 17h34.55.535341 +0530,
138,0,139,o,1.4183508999994956,None,139,0,138,648.1828223000048,,,,,,,,,,,,,,,,,,,,,,,,,,,,,,,,,,,,,,,,,,,,,,,,,,648.1670113999862,648.1828223000048,648.6834668000229,648.6665410000132,648.6755462000147,648.6834668000229,648.6834668000229,648.6834668000229,650.116921400011,Scenes\093a.jpg,post,o,1.4183508999994956,None,,,,,,,,00054,001,2026-01-25_17h34.48.535,MST_test,2024.2.0,59.4586881208297,2026-01-25 17h34.55.535341 +0530,
139,0,140,n,3.4697621999657713,None,140,0,139,650.132837800018,,,,,,,,,,,,,,,,,,,,,,,,,,,,,,,,,,,,,,,,,,,,,,,,,,650.1170102999895,650.132837800018,650.6333998999908,650.6165512999869,650.6264598999987,650.6333998999908,650.6333998999908,650.6333998999908,654.1167469000211,Foils\scenes3.jpg,none,n,3.4697621999657713,None,,,,,,,,00054,001,2026-01-25_17h34.48.535,MST_test,2024.2.0,59.4586881208297,2026-01-25 17h34.55.535341 +0530,
140,0,141,n,6.781049399985932,None,141,0,140,654.1329512000084,,,,,,,,,,,,,,,,,,,,,,,,,,,,,,,,,,,,,,,,,,,,,,,,,,654.116837300011,654.1329512000084,654.6333116000169,654.6165266000316,654.626177099999,654.6333116000169,654.6333116000169,654.6333116000169,661.4169101000298,Objects\087b.jpg,post,n,6.781049399985932,None,,,,,,,,00054,001,2026-01-25_17h34.48.535,MST_test,2024.2.0,59.4586881208297,2026-01-25 17h34.55.535341 +0530,
141,0,142,n,2.4648434999980964,None,142,0,141,661.4329035999835,,,,,,,,,,,,,,,,,,,,,,,,,,,,,,,,,,,,,,,,,,,,,,,,,,661.4170021000318,661.4329035999835,661.9337286999798,661.9165580000263,661.9315713000251,661.9337286999798,661.9337286999798,661.9337286999798,664.4003945000004,Scenes\042b.jpg,post,n,2.4648434999980964,None,,,,,,,,00054,001,2026-01-25_17h34.48.535,MST_test,2024.2.0,59.4586881208297,2026-01-25 17h34.55.535341 +0530,
142,0,143,s,7.337652400019579,None,143,0,142,664.4162751000258,,,,,,,,,,,,,,,,,,,,,,,,,,,,,,,,,,,,,,,,,,,,,,,,,,664.4004987999797,664.4162751000258,664.9167531999992,664.899789099989,664.9033252000227,664.9167531999992,664.9167531999992,664.9167531999992,672.2669419000158,Objects\122a.jpg,mid,s,7.337652400019579,None,,,,,,,,00054,001,2026-01-25_17h34.48.535,MST_test,2024.2.0,59.4586881208297,2026-01-25 17h34.55.535341 +0530,
143,0,144,o,1.8473974000080489,None,144,0,143,672.2829565000138,,,,,,,,,,,,,,,,,,,,,,,,,,,,,,,,,,,,,,,,,,,,,,,,,,672.2670333000133,672.2829565000138,672.7832307000062,672.766599900031,672.7759190000361,672.7832307000062,672.7832307000062,672.7832307000062,674.6336203999817,Objects\123b.jpg,pre,o,1.8473974000080489,None,,,,,,,,00054,001,2026-01-25_17h34.48.535,MST_test,2024.2.0,59.4586881208297,2026-01-25 17h34.55.535341 +0530,
144,0,145,n,2.1122108999988995,None,145,0,144,674.6496090000146,,,,,,,,,,,,,,,,,,,,,,,,,,,,,,,,,,,,,,,,,,,,,,,,,,674.6337127999868,674.6496090000146,675.1499732999946,675.1330357000115,675.1423967999872,675.1499732999946,675.1499732999946,675.1499732999946,677.2667564000003,Foils\scenes7.jpg,none,n,2.1122108999988995,None,,,,,,,,00054,001,2026-01-25_17h34.48.535,MST_test,2024.2.0,59.4586881208297,2026-01-25 17h34.55.535341 +0530,
145,0,146,o,2.3506585999857634,None,146,0,145,677.2829469999997,,,,,,,,,,,,,,,,,,,,,,,,,,,,,,,,,,,,,,,,,,,,,,,,,,677.2668475999963,677.2829469999997,677.7831140999915,677.7664579999982,677.7736602000077,677.7831140999915,677.7831140999915,677.7831140999915,680.1502000000328,Scenes\184a.jpg,mid,o,2.3506585999857634,None,,,,,,,,00054,001,2026-01-25_17h34.48.535,MST_test,2024.2.0,59.4586881208297,2026-01-25 17h34.55.535341 +0530,
146,0,147,o,1.4032809999771416,None,147,0,146,680.1661911000265,,,,,,,,,,,,,,,,,,,,,,,,,,,,,,,,,,,,,,,,,,,,,,,,,,680.150299800036,680.1661911000265,680.6667079000035,680.6498358999961,680.6534442999982,680.6667079000035,680.6667079000035,680.6667079000035,682.0839406999876,Objects\081a.jpg,mid,o,1.4032809999771416,None,,,,,,,,00054,001,2026-01-25_17h34.48.535,MST_test,2024.2.0,59.4586881208297,2026-01-25 17h34.55.535341 +0530,
147,0,148,n,1.9104489999590442,None,148,0,147,682.0997050000005,,,,,,,,,,,,,,,,,,,,,,,,,,,,,,,,,,,,,,,,,,,,,,,,,,682.0840417,682.0997050000005,682.5997517000069,682.5831466999953,682.5936616000254,682.5997517000069,682.5997517000069,682.5997517000069,684.5167413000017,Objects\102b.jpg,post,n,1.9104489999590442,None,,,,,,,,00054,001,2026-01-25_17h34.48.535,MST_test,2024.2.0,59.4586881208297,2026-01-25 17h34.55.535341 +0530,
148,0,149,o,1.6929932999773882,None,149,0,148,684.5326854999876,,,,,,,,,,,,,,,,,,,,,,,,,,,,,,,,,,,,,,,,,,,,,,,,,,684.5168340000091,684.5326854999876,685.0328610999859,685.0164090000326,685.0189279000042,685.0328610999859,685.0328610999859,685.0328610999859,686.7332373000099,Objects\114a.jpg,mid,o,1.6929932999773882,None,,,,,,,,00054,001,2026-01-25_17h34.48.535,MST_test,2024.2.0,59.4586881208297,2026-01-25 17h34.55.535341 +0530,
149,0,150,n,1.4847672000178136,None,150,0,149,686.7495056000189,,,,,,,,,,,,,,,,,,,,,,,,,,,,,,,,,,,,,,,,,,,,,,,,,,686.7333289000089,686.7495056000189,687.2498835999868,687.2330005000113,687.2425329000107,687.2498835999868,687.2498835999868,687.2498835999868,688.7500907999929,Foils\scenes30.jpg,none,n,1.4847672000178136,None,,,,,,,,00054,001,2026-01-25_17h34.48.535,MST_test,2024.2.0,59.4586881208297,2026-01-25 17h34.55.535341 +0530,
,,,,,,,,,,,,,,,,,,,,,,,,,,,,,,,,,,,,,,,,,,,,,,,,,,,,,,,,,,,,,,,,,,,,,,,,,688.750156300026,688.7662099000299,688.7662099000299,691.7831043000333,space,3.0004185999860056,None,00054,001,2026-01-25_17h34.48.535,MST_test,2024.2.0,59.4586881208297,2026-01-25 17h34.55.535341 +0530,
