thisN,thisTrialN,thisRepN,key_resp_3.keys,key_resp_3.rt,key_resp_3.duration,trials.thisRepN,trials.thisTrialN,trials.thisN,thisRow.t,notes,intro_page.started,text.started,key_resp.started,intro_page.stopped,key_resp.keys,key_resp.rt,key_resp.duration,instructions.started,text_2.started,key_resp_2.started,instructions.stopped,key_resp_2.keys,key_resp_2.rt,key_resp_2.duration,demo1.started,image_1.started,image_2.started,text_7.started,key_resp_6.started,text_9.started,demo1.stopped,key_resp_6.keys,key_resp_6.rt,key_resp_6.duration,demo2.started,image_5.started,image_6.started,text_11.started,text_12.started,key_resp_8.started,demo2.stopped,key_resp_8.keys,key_resp_8.rt,key_resp_8.duration,demo_conclusion.started,text_13.started,key_resp_9.started,demo_conclusion.stopped,key_resp_9.keys,key_resp_9.rt,key_resp_9.duration,start_test.started,text_6.started,key_resp_5.started,start_test.stopped,key_resp_5.keys,key_resp_5.rt,key_resp_5.duration,ISI.started,text_4.started,text_4.stopped,ISI.stopped,routine_1.started,image.started,text_3.started,key_resp_3.started,routine_1.stopped,image_path,position_of_stimuli,trials.key_resp_3.keys,trials.key_resp_3.rt,trials.key_resp_3.duration,End_page.started,text_5.started,key_resp_4.started,End_page.stopped,key_resp_4.keys,key_resp_4.rt,key_resp_4.duration,participant,session,date,expName,psychopyVersion,frameRate,expStart,
,,,,,,,,,,,0.0011546000005182577,0.002979599999889615,0.002979599999889615,2.395630999999412,space,2.3863689999998314,None,,,,,,,,,,,,,,,,,,,,,,,,,,,,,,,,,,,,,,,,,,,,,,,,,,,,,,,,,,,,,,,00053,001,2026-01-25_15h25.49.781,MST_test,2024.2.0,60.04192126994873,2026-01-25 15h26.04.320780 +0530,
,,,,,,,,,,,,,,,,,,2.3956983999996737,2.4099442000006093,2.4099442000006093,16.959133599999404,space,14.54730170000039,None,,,,,,,,,,,,,,,,,,,,,,,,,,,,,,,,,,,,,,,,,,,,,,,,,,,,,,,,00053,001,2026-01-25_15h25.49.781,MST_test,2024.2.0,60.04192126994873,2026-01-25 15h26.04.320780 +0530,
,,,,,,,,,,,,,,,,,,,,,,,,,16.959213199999795,16.995468999999503,16.995468999999503,16.995468999999503,16.995468999999503,16.995468999999503,23.926152199999706,space,6.914068800000678,None,,,,,,,,,,,,,,,,,,,,,,,,,,,,,,,,,,,,,,,,,,,,,,00053,001,2026-01-25_15h25.49.781,MST_test,2024.2.0,60.04192126994873,2026-01-25 15h26.04.320780 +0530,
,,,,,,,,,,,,,,,,,,,,,,,,,,,,,,,,,,,23.926235999999335,23.942665200000192,23.942665200000192,23.942665200000192,23.942665200000192,23.942665200000192,28.425681999999142,space,4.470565600000555,None,,,,,,,,,,,,,,,,,,,,,,,,,,,,,,,,,,,,00053,001,2026-01-25_15h25.49.781,MST_test,2024.2.0,60.04192126994873,2026-01-25 15h26.04.320780 +0530,
,,,,,,,,,,,,,,,,,,,,,,,,,,,,,,,,,,,,,,,,,,,,,28.425722699999824,28.442054699999062,28.442054699999062,54.309720400000515,space,25.859708899999532,None,,,,,,,,,,,,,,,,,,,,,,,,,,,,,00053,001,2026-01-25_15h25.49.781,MST_test,2024.2.0,60.04192126994873,2026-01-25 15h26.04.320780 +0530,
,,,,,,,,,,,,,,,,,,,,,,,,,,,,,,,,,,,,,,,,,,,,,,,,,,,,54.309826200000316,54.32568279999941,54.32568279999941,114.4434824,space,60.11191770000005,None,,,,,,,,,,,,,,,,,,,,,,00053,001,2026-01-25_15h25.49.781,MST_test,2024.2.0,60.04192126994873,2026-01-25 15h26.04.320780 +0530,
0,0,1,o,4.585827099999733,None,1,0,0,114.45933549999972,,,,,,,,,,,,,,,,,,,,,,,,,,,,,,,,,,,,,,,,,,,,,,,,,,114.45317129999967,114.45933549999972,114.97227580000072,114.94317059999958,114.96933659999922,114.97227580000072,114.97227580000072,114.97227580000072,119.55978460000006,Scenes\009b.jpg,post,o,4.585827099999733,None,,,,,,,,00053,001,2026-01-25_15h25.49.781,MST_test,2024.2.0,60.04192126994873,2026-01-25 15h26.04.320780 +0530,
1,0,2,n,12.009893899999952,None,2,0,1,119.57606060000035,,,,,,,,,,,,,,,,,,,,,,,,,,,,,,,,,,,,,,,,,,,,,,,,,,119.56015579999985,119.57606060000035,,120.0603231999994,120.0713584999994,120.07616869999947,120.07616869999947,120.07616869999947,132.0935795000005,Foils\scenes19.jpg,none,n,12.009893899999952,None,,,,,,,,00053,001,2026-01-25_15h25.49.781,MST_test,2024.2.0,60.04192126994873,2026-01-25 15h26.04.320780 +0530,
2,0,3,o,3.76553419999982,None,3,0,2,132.10948599999938,,,,,,,,,,,,,,,,,,,,,,,,,,,,,,,,,,,,,,,,,,,,,,,,,,132.09397399999943,132.10948599999938,132.61600729999918,132.59323159999985,132.61372160000064,132.61600729999918,132.61600729999918,132.61600729999918,136.39335500000016,Scenes\124a.jpg,post,o,3.76553419999982,None,,,,,,,,00053,001,2026-01-25_15h25.49.781,MST_test,2024.2.0,60.04192126994873,2026-01-25 15h26.04.320780 +0530,
3,0,4,o,2.9351941000004445,None,4,0,3,136.40929630000028,,,,,,,,,,,,,,,,,,,,,,,,,,,,,,,,,,,,,,,,,,,,,,,,,,136.3937158000008,136.40929630000028,136.9100799000007,136.89283629999954,136.9014084999999,136.9100799000007,136.9100799000007,136.9100799000007,139.86005990000012,Objects\017a.jpg,mid,o,2.9351941000004445,None,,,,,,,,00053,001,2026-01-25_15h25.49.781,MST_test,2024.2.0,60.04192126994873,2026-01-25 15h26.04.320780 +0530,
4,0,5,o,3.9887746999993396,None,5,0,4,139.87581949999912,,,,,,,,,,,,,,,,,,,,,,,,,,,,,,,,,,,,,,,,,,,,,,,,,,139.8604491999995,139.87581949999912,140.4172837999995,140.35983789999955,140.41487779999989,140.4172837999995,140.4172837999995,140.4172837999995,144.41012179999962,Objects\173b.jpg,pre,o,3.9887746999993396,None,,,,,,,,00053,001,2026-01-25_15h25.49.781,MST_test,2024.2.0,60.04192126994873,2026-01-25 15h26.04.320780 +0530,
5,0,6,n,13.275720499999807,None,6,0,5,144.4261353999991,,,,,,,,,,,,,,,,,,,,,,,,,,,,,,,,,,,,,,,,,,,,,,,,,,144.41048310000042,144.4261353999991,144.9464365999993,144.90981810000085,144.9441356999996,144.9464365999993,144.9464365999993,144.9464365999993,158.2268550000008,Objects\108b.jpg,pre,n,13.275720499999807,None,,,,,,,,00053,001,2026-01-25_15h25.49.781,MST_test,2024.2.0,60.04192126994873,2026-01-25 15h26.04.320780 +0530,
6,0,7,n,1.4870233000001463,None,7,0,6,158.24278400000003,,,,,,,,,,,,,,,,,,,,,,,,,,,,,,,,,,,,,,,,,,,,,,,,,,158.22724630000084,158.24278400000003,158.74300070000027,158.72645009999906,158.7352845000005,158.74300070000027,158.74300070000027,158.74300070000027,160.24343430000044,Foils\033a.jpg,none,n,1.4870233000001463,None,,,,,,,,00053,001,2026-01-25_15h25.49.781,MST_test,2024.2.0,60.04192126994873,2026-01-25 15h26.04.320780 +0530,
7,0,8,o,7.141764500000136,None,8,0,7,160.2592151000008,,,,,,,,,,,,,,,,,,,,,,,,,,,,,,,,,,,,,,,,,,,,,,,,,,160.24379109999973,160.2592151000008,160.76035410000077,160.74316120000003,160.7579036999996,160.76035410000077,160.76035410000077,160.76035410000077,167.91022669999984,Scenes\109a.jpg,post,o,7.141764500000136,None,,,,,,,,00053,001,2026-01-25_15h25.49.781,MST_test,2024.2.0,60.04192126994873,2026-01-25 15h26.04.320780 +0530,
8,0,9,s,5.374358400000347,None,9,0,8,167.92617459999929,,,,,,,,,,,,,,,,,,,,,,,,,,,,,,,,,,,,,,,,,,,,,,,,,,167.91070609999952,167.92617459999929,168.43128810000053,168.40991070000018,168.42805880000014,168.43128810000053,168.43128810000053,168.43128810000053,173.8102302999996,Scenes\117a.jpg,post,s,5.374358400000347,None,,,,,,,,00053,001,2026-01-25_15h25.49.781,MST_test,2024.2.0,60.04192126994873,2026-01-25 15h26.04.320780 +0530,
9,0,10,s,5.552568600000086,None,10,0,9,173.8261765999996,,,,,,,,,,,,,,,,,,,,,,,,,,,,,,,,,,,,,,,,,,,,,,,,,,173.81062070000007,173.8261765999996,174.3495036000004,174.30977619999976,174.34646769999927,174.3495036000004,174.3495036000004,174.3495036000004,179.90991039999972,Objects\179b.jpg,pre,s,5.552568600000086,None,,,,,,,,00053,001,2026-01-25_15h25.49.781,MST_test,2024.2.0,60.04192126994873,2026-01-25 15h26.04.320780 +0530,
10,0,11,s,6.590371700000105,None,11,0,10,179.92618199999924,,,,,,,,,,,,,,,,,,,,,,,,,,,,,,,,,,,,,,,,,,,,,,,,,,179.91030769999998,179.92618199999924,180.43170669999927,180.40992619999997,180.4293662,180.43170669999927,180.43170669999927,180.43170669999927,187.02766750000046,Foils\scenes27.jpg,none,s,6.590371700000105,None,,,,,,,,00053,001,2026-01-25_15h25.49.781,MST_test,2024.2.0,60.04192126994873,2026-01-25 15h26.04.320780 +0530,
11,0,12,n,4.302059899999222,None,12,0,11,187.0428140999993,,,,,,,,,,,,,,,,,,,,,,,,,,,,,,,,,,,,,,,,,,,,,,,,,,187.0280500000008,187.0428140999993,187.54334779999954,187.52658239999982,187.53546690000076,187.54334779999954,187.54334779999954,187.54334779999954,191.86019440000018,Foils\073a.jpg,none,n,4.302059899999222,None,,,,,,,,00053,001,2026-01-25_15h25.49.781,MST_test,2024.2.0,60.04192126994873,2026-01-25 15h26.04.320780 +0530,
12,0,13,n,3.5975906000003306,None,13,0,12,191.87615650000043,,,,,,,,,,,,,,,,,,,,,,,,,,,,,,,,,,,,,,,,,,,,,,,,,,191.8606209999998,191.87615650000043,192.37645899999916,192.35976090000077,192.36723209999946,192.37645899999916,192.37645899999916,192.37645899999916,195.97659810000005,Foils\scenes7.jpg,none,n,3.5975906000003306,None,,,,,,,,00053,001,2026-01-25_15h25.49.781,MST_test,2024.2.0,60.04192126994873,2026-01-25 15h26.04.320780 +0530,
13,0,14,n,12.589558099998612,None,14,0,13,195.9925430000003,,,,,,,,,,,,,,,,,,,,,,,,,,,,,,,,,,,,,,,,,,,,,,,,,,195.97701249999955,195.9925430000003,196.4961927000004,196.47659770000064,196.49375119999968,196.4961927000004,196.4961927000004,196.4961927000004,209.09306880000076,Scenes\122b.jpg,post,n,12.589558099998612,None,,,,,,,,00053,001,2026-01-25_15h25.49.781,MST_test,2024.2.0,60.04192126994873,2026-01-25 15h26.04.320780 +0530,
14,0,15,s,3.7333999000002223,None,15,0,14,209.1093832000006,,,,,,,,,,,,,,,,,,,,,,,,,,,,,,,,,,,,,,,,,,,,,,,,,,209.09342800000013,209.1093832000006,209.61584089999997,209.59314169999925,209.6130716000007,209.61584089999997,209.61584089999997,209.61584089999997,213.35969939999995,Scenes\168a.jpg,pre,s,3.7333999000002223,None,,,,,,,,00053,001,2026-01-25_15h25.49.781,MST_test,2024.2.0,60.04192126994873,2026-01-25 15h26.04.320780 +0530,
15,0,16,n,2.2326948000008997,None,16,0,15,213.37591930000053,,,,,,,,,,,,,,,,,,,,,,,,,,,,,,,,,,,,,,,,,,,,,,,,,,213.36007550000068,213.37591930000053,213.87679070000013,213.85989469999913,213.86984689999917,213.87679070000013,213.87679070000013,213.87679070000013,216.11032349999914,Foils\081a.jpg,none,n,2.2326948000008997,None,,,,,,,,00053,001,2026-01-25_15h25.49.781,MST_test,2024.2.0,60.04192126994873,2026-01-25 15h26.04.320780 +0530,
16,0,17,o,2.9453649999995832,None,17,0,16,216.12621279999985,,,,,,,,,,,,,,,,,,,,,,,,,,,,,,,,,,,,,,,,,,,,,,,,,,216.1107123999991,216.12621279999985,216.6289295000006,216.60990990000028,216.62628679999943,216.6289295000006,216.6289295000006,216.6289295000006,219.5765539999993,Scenes\149a.jpg,pre,o,2.9453649999995832,None,,,,,,,,00053,001,2026-01-25_15h25.49.781,MST_test,2024.2.0,60.04192126994873,2026-01-25 15h26.04.320780 +0530,
17,0,18,o,2.3283056000000215,None,18,0,17,219.59253519999947,,,,,,,,,,,,,,,,,,,,,,,,,,,,,,,,,,,,,,,,,,,,,,,,,,219.57690870000079,219.59253519999947,220.09330729999965,220.07645579999917,220.08674919999976,220.09330729999965,220.09330729999965,220.09330729999965,222.42673839999952,Objects\144a.jpg,post,o,2.3283056000000215,None,,,,,,,,00053,001,2026-01-25_15h25.49.781,MST_test,2024.2.0,60.04192126994873,2026-01-25 15h26.04.320780 +0530,
18,0,19,s,7.530115500001557,None,19,0,18,222.4426767999994,,,,,,,,,,,,,,,,,,,,,,,,,,,,,,,,,,,,,,,,,,,,,,,,,,222.42701490000036,222.4426767999994,222.96357060000082,222.92647220000072,222.9614070000007,222.96357060000082,222.96357060000082,222.96357060000082,230.51014150000083,Objects\027b.jpg,post,s,7.530115500001557,None,,,,,,,,00053,001,2026-01-25_15h25.49.781,MST_test,2024.2.0,60.04192126994873,2026-01-25 15h26.04.320780 +0530,
19,0,20,o,3.3282586000004812,None,20,0,19,230.52623490000042,,,,,,,,,,,,,,,,,,,,,,,,,,,,,,,,,,,,,,,,,,,,,,,,,,230.51052730000083,230.52623490000042,231.02920919999997,231.00996710000072,231.0268257000007,231.02920919999997,231.02920919999997,231.02920919999997,234.35998169999948,Scenes\070b.jpg,pre,o,3.3282586000004812,None,,,,,,,,00053,001,2026-01-25_15h25.49.781,MST_test,2024.2.0,60.04192126994873,2026-01-25 15h26.04.320780 +0530,
20,0,21,s,7.142403300000296,None,21,0,20,234.37623990000066,,,,,,,,,,,,,,,,,,,,,,,,,,,,,,,,,,,,,,,,,,,,,,,,,,234.36034049999944,234.37623990000066,234.87970329999916,234.8599835999994,234.8776942000004,234.87970329999916,234.87970329999916,234.87970329999916,242.0269597000006,Scenes\082a.jpg,pre,s,7.142403300000296,None,,,,,,,,00053,001,2026-01-25_15h25.49.781,MST_test,2024.2.0,60.04192126994873,2026-01-25 15h26.04.320780 +0530,
21,0,22,s,5.541623199998867,None,22,0,21,242.0428635999997,,,,,,,,,,,,,,,,,,,,,,,,,,,,,,,,,,,,,,,,,,,,,,,,,,242.02736840000034,242.0428635999997,242.54448480000065,242.5266546999992,242.5417108999991,242.54448480000065,242.54448480000065,242.54448480000065,248.0936139000005,Scenes\054b.jpg,post,s,5.541623199998867,None,,,,,,,,00053,001,2026-01-25_15h25.49.781,MST_test,2024.2.0,60.04192126994873,2026-01-25 15h26.04.320780 +0530,
22,0,23,o,4.666819800000667,None,23,0,22,248.11147739999979,,,,,,,,,,,,,,,,,,,,,,,,,,,,,,,,,,,,,,,,,,,,,,,,,,248.0940116999991,248.11147739999979,,248.60984219999955,248.62023210000007,248.62698289999935,248.62698289999935,248.62698289999935,253.3100945999995,Objects\131a.jpg,mid,o,4.666819800000667,None,,,,,,,,00053,001,2026-01-25_15h25.49.781,MST_test,2024.2.0,60.04192126994873,2026-01-25 15h26.04.320780 +0530,
23,0,24,s,3.758495899999616,None,24,0,23,253.32590150000033,,,,,,,,,,,,,,,,,,,,,,,,,,,,,,,,,,,,,,,,,,,,,,,,,,253.31047749999925,253.32590150000033,253.8635223000001,253.8100556999998,253.86047759999929,253.8635223000001,253.8635223000001,253.8635223000001,257.62696940000023,Objects\119b.jpg,post,s,3.758495899999616,None,,,,,,,,00053,001,2026-01-25_15h25.49.781,MST_test,2024.2.0,60.04192126994873,2026-01-25 15h26.04.320780 +0530,
24,0,25,o,4.933833600000071,None,25,0,24,257.6428130000004,,,,,,,,,,,,,,,,,,,,,,,,,,,,,,,,,,,,,,,,,,,,,,,,,,257.6273627999999,257.6428130000004,258.1435727999997,258.12667449999935,258.13932380000006,258.1435727999997,258.1435727999997,258.1435727999997,263.09364839999944,Scenes\077a.jpg,pre,o,4.933833600000071,None,,,,,,,,00053,001,2026-01-25_15h25.49.781,MST_test,2024.2.0,60.04192126994873,2026-01-25 15h26.04.320780 +0530,
25,0,26,s,9.065296199998556,None,26,0,25,263.1095490000007,,,,,,,,,,,,,,,,,,,,,,,,,,,,,,,,,,,,,,,,,,,,,,,,,,263.09405719999995,263.1095490000007,263.6602595000004,263.59334560000025,263.65753199999926,263.6602595000004,263.6602595000004,263.6602595000004,272.7272518999998,Scenes\110b.jpg,pre,s,9.065296199998556,None,,,,,,,,00053,001,2026-01-25_15h25.49.781,MST_test,2024.2.0,60.04192126994873,2026-01-25 15h26.04.320780 +0530,
26,0,27,n,2.362616700000217,None,27,0,26,272.74301860000014,,,,,,,,,,,,,,,,,,,,,,,,,,,,,,,,,,,,,,,,,,,,,,,,,,272.72767249999924,272.74301860000014,273.2434508000006,273.2267259,273.2339871000004,273.2434508000006,273.2434508000006,273.2434508000006,275.61028409999926,Objects\069b.jpg,post,n,2.362616700000217,None,,,,,,,,00053,001,2026-01-25_15h25.49.781,MST_test,2024.2.0,60.04192126994873,2026-01-25 15h26.04.320780 +0530,
27,0,28,s,4.310025099999621,None,28,0,27,275.62629620000007,,,,,,,,,,,,,,,,,,,,,,,,,,,,,,,,,,,,,,,,,,,,,,,,,,275.6106751999996,275.62629620000007,276.1673936999996,276.1100040000001,276.1649075000005,276.1673936999996,276.1673936999996,276.1673936999996,280.4935640999993,Scenes\024b.jpg,pre,s,4.310025099999621,None,,,,,,,,00053,001,2026-01-25_15h25.49.781,MST_test,2024.2.0,60.04192126994873,2026-01-25 15h26.04.320780 +0530,
28,0,29,s,3.3330035000017233,None,29,0,28,280.5093312000008,,,,,,,,,,,,,,,,,,,,,,,,,,,,,,,,,,,,,,,,,,,,,,,,,,280.49392590000025,280.5093312000008,281.02444189999915,280.99334289999933,281.0216068999998,281.02444189999915,281.02444189999915,281.02444189999915,284.3598982000003,Objects\063b.jpg,mid,s,3.3330035000017233,None,,,,,,,,00053,001,2026-01-25_15h25.49.781,MST_test,2024.2.0,60.04192126994873,2026-01-25 15h26.04.320780 +0530,
29,0,30,s,5.912741500000266,None,30,0,29,284.3763247000006,,,,,,,,,,,,,,,,,,,,,,,,,,,,,,,,,,,,,,,,,,,,,,,,,,284.36028310000074,284.3763247000006,284.8773614999991,284.8600200000001,284.8683664,284.8773614999991,284.8773614999991,284.8773614999991,290.79368819999945,Objects\041a.jpg,mid,s,5.912741500000266,None,,,,,,,,00053,001,2026-01-25_15h25.49.781,MST_test,2024.2.0,60.04192126994873,2026-01-25 15h26.04.320780 +0530,
30,0,31,n,2.727934099999402,None,31,0,30,290.8095797999995,,,,,,,,,,,,,,,,,,,,,,,,,,,,,,,,,,,,,,,,,,,,,,,,,,290.7941470000005,290.8095797999995,291.3498761999999,291.29335999999967,291.34624430000076,291.3498761999999,291.3498761999999,291.3498761999999,294.09416319999946,Foils\scenes15.jpg,none,n,2.727934099999402,None,,,,,,,,00053,001,2026-01-25_15h25.49.781,MST_test,2024.2.0,60.04192126994873,2026-01-25 15h26.04.320780 +0530,
31,0,32,n,4.701183900000615,None,32,0,31,294.1094288000004,,,,,,,,,,,,,,,,,,,,,,,,,,,,,,,,,,,,,,,,,,,,,,,,,,294.0945398999993,294.1094288000004,294.8809179,294.59301400000004,294.8725964000005,294.8809179,294.8809179,294.8809179,299.5941082999998,Foils\scenes26.jpg,none,n,4.701183900000615,None,,,,,,,,00053,001,2026-01-25_15h25.49.781,MST_test,2024.2.0,60.04192126994873,2026-01-25 15h26.04.320780 +0530,
32,0,33,s,4.403345100001388,None,33,0,32,299.60963549999906,,,,,,,,,,,,,,,,,,,,,,,,,,,,,,,,,,,,,,,,,,,,,,,,,,299.59447159999945,299.60963549999906,300.1467575000006,300.0934080999996,300.1446761999996,300.1467575000006,300.1467575000006,300.1467575000006,304.5606865999998,Objects\088a.jpg,post,s,4.403345100001388,None,,,,,,,,00053,001,2026-01-25_15h25.49.781,MST_test,2024.2.0,60.04192126994873,2026-01-25 15h26.04.320780 +0530,
33,0,34,n,3.4274175000009564,None,34,0,33,304.5759804999998,,,,,,,,,,,,,,,,,,,,,,,,,,,,,,,,,,,,,,,,,,,,,,,,,,304.5610486000005,304.5759804999998,305.08225219999986,305.06004960000064,305.07991220000076,305.08225219999986,305.08225219999986,305.08225219999986,308.51047180000023,Scenes\025a.jpg,mid,n,3.4274175000009564,None,,,,,,,,00053,001,2026-01-25_15h25.49.781,MST_test,2024.2.0,60.04192126994873,2026-01-25 15h26.04.320780 +0530,
34,0,35,s,3.784866300000431,None,35,0,34,308.52668859999903,,,,,,,,,,,,,,,,,,,,,,,,,,,,,,,,,,,,,,,,,,,,,,,,,,308.5108387,308.52668859999903,309.0452153999995,309.01023410000016,309.0423895999993,309.0452153999995,309.0452153999995,309.0452153999995,312.84366600000067,Objects\053b.jpg,mid,s,3.784866300000431,None,,,,,,,,00053,001,2026-01-25_15h25.49.781,MST_test,2024.2.0,60.04192126994873,2026-01-25 15h26.04.320780 +0530,
35,0,36,n,2.1002768999987893,None,36,0,35,312.8597114000004,,,,,,,,,,,,,,,,,,,,,,,,,,,,,,,,,,,,,,,,,,,,,,,,,,312.8440919000004,312.8597114000004,313.3614017,313.34335119999923,313.3592301000008,313.3614017,313.3614017,313.3614017,315.4770377999994,Foils\scenes8.jpg,none,n,2.1002768999987893,None,,,,,,,,00053,001,2026-01-25_15h25.49.781,MST_test,2024.2.0,60.04192126994873,2026-01-25 15h26.04.320780 +0530,
36,0,37,s,4.902617300000202,None,37,0,36,315.4926054999996,,,,,,,,,,,,,,,,,,,,,,,,,,,,,,,,,,,,,,,,,,,,,,,,,,315.4774493999994,315.4926054999996,316.03090429999975,315.9767233999992,316.02851139999984,316.03090429999975,316.03090429999975,316.03090429999975,320.9437151000002,Scenes\046b.jpg,pre,s,4.902617300000202,None,,,,,,,,00053,001,2026-01-25_15h25.49.781,MST_test,2024.2.0,60.04192126994873,2026-01-25 15h26.04.320780 +0530,
37,0,38,n,2.35914689999845,None,38,0,37,320.9596170999994,,,,,,,,,,,,,,,,,,,,,,,,,,,,,,,,,,,,,,,,,,,,,,,,,,320.94416549999914,320.9596170999994,321.4864412000006,321.4432154999995,321.4836333000003,321.4864412000006,321.4864412000006,321.4864412000006,323.8602334999996,Scenes\120b.jpg,post,n,2.35914689999845,None,,,,,,,,00053,001,2026-01-25_15h25.49.781,MST_test,2024.2.0,60.04192126994873,2026-01-25 15h26.04.320780 +0530,
38,0,39,n,5.516708999999537,None,39,0,38,323.8763669,,,,,,,,,,,,,,,,,,,,,,,,,,,,,,,,,,,,,,,,,,,,,,,,,,323.8605970000008,323.8763669,324.37697449999905,324.3605602000007,324.36880930000007,324.37697449999905,324.37697449999905,324.37697449999905,329.91035270000066,Foils\101b.jpg,none,n,5.516708999999537,None,,,,,,,,00053,001,2026-01-25_15h25.49.781,MST_test,2024.2.0,60.04192126994873,2026-01-25 15h26.04.320780 +0530,
39,0,40,s,2.9721394999996846,None,40,0,39,329.9263312000003,,,,,,,,,,,,,,,,,,,,,,,,,,,,,,,,,,,,,,,,,,,,,,,,,,329.9108053,329.9263312000003,330.47325959999944,330.4104822999998,330.4707312999999,330.47325959999944,330.47325959999944,330.47325959999944,333.46061890000055,Scenes\103b.jpg,mid,s,2.9721394999996846,None,,,,,,,,00053,001,2026-01-25_15h25.49.781,MST_test,2024.2.0,60.04192126994873,2026-01-25 15h26.04.320780 +0530,
40,0,41,o,3.333023699999103,None,41,0,40,333.47627119999925,,,,,,,,,,,,,,,,,,,,,,,,,,,,,,,,,,,,,,,,,,,,,,,,,,333.46098879999954,333.47627119999925,333.9768060999995,333.95999269999993,333.9698862999994,333.9768060999995,333.9768060999995,333.9768060999995,337.31140219999907,Objects\005a.jpg,post,o,3.333023699999103,None,,,,,,,,00053,001,2026-01-25_15h25.49.781,MST_test,2024.2.0,60.04192126994873,2026-01-25 15h26.04.320780 +0530,
41,0,42,o,3.6607602999993105,None,42,0,41,337.32631369999945,,,,,,,,,,,,,,,,,,,,,,,,,,,,,,,,,,,,,,,,,,,,,,,,,,337.31177580000076,337.32631369999945,337.8262417999995,337.81007150000005,337.8210737999998,337.8262417999995,337.8262417999995,337.8262417999995,341.4937783000005,Objects\043a.jpg,mid,o,3.6607602999993105,None,,,,,,,,00053,001,2026-01-25_15h25.49.781,MST_test,2024.2.0,60.04192126994873,2026-01-25 15h26.04.320780 +0530,
42,0,43,s,4.275769100000616,None,43,0,42,341.5096267000008,,,,,,,,,,,,,,,,,,,,,,,,,,,,,,,,,,,,,,,,,,,,,,,,,,341.4941343999999,341.5096267000008,342.00996850000047,341.99347510000007,342.00750759999937,342.00996850000047,342.00996850000047,342.00996850000047,346.29420109999955,Scenes\191b.jpg,mid,s,4.275769100000616,None,,,,,,,,00053,001,2026-01-25_15h25.49.781,MST_test,2024.2.0,60.04192126994873,2026-01-25 15h26.04.320780 +0530,
43,0,44,n,2.963783900000635,None,44,0,43,346.30970010000055,,,,,,,,,,,,,,,,,,,,,,,,,,,,,,,,,,,,,,,,,,,,,,,,,,346.2945627000008,346.30970010000055,346.81011240000043,346.7933678999998,346.8031045000007,346.81011240000043,346.81011240000043,346.81011240000043,349.77671089999967,Foils\050a.jpg,none,n,2.963783900000635,None,,,,,,,,00053,001,2026-01-25_15h25.49.781,MST_test,2024.2.0,60.04192126994873,2026-01-25 15h26.04.320780 +0530,
44,0,45,s,23.174131599998873,None,45,0,44,349.7927094000006,,,,,,,,,,,,,,,,,,,,,,,,,,,,,,,,,,,,,,,,,,,,,,,,,,349.77712299999985,349.7927094000006,350.2954518000006,350.2765417999999,350.2930918999991,350.2954518000006,350.2954518000006,350.2954518000006,373.4770189999999,Scenes\161a.jpg,post,s,23.174131599998873,None,,,,,,,,00053,001,2026-01-25_15h25.49.781,MST_test,2024.2.0,60.04192126994873,2026-01-25 15h26.04.320780 +0530,
45,0,46,s,3.1240262999999686,None,46,0,45,373.4930951999995,,,,,,,,,,,,,,,,,,,,,,,,,,,,,,,,,,,,,,,,,,,,,,,,,,373.4773960000002,373.4930951999995,373.99361490000047,373.9767293999994,373.9874655000003,373.99361490000047,373.99361490000047,373.99361490000047,377.12677690000055,Objects\018b.jpg,pre,s,3.1240262999999686,None,,,,,,,,00053,001,2026-01-25_15h25.49.781,MST_test,2024.2.0,60.04192126994873,2026-01-25 15h26.04.320780 +0530,
46,0,47,n,1.1506646999987424,None,47,0,46,377.1428777000001,,,,,,,,,,,,,,,,,,,,,,,,,,,,,,,,,,,,,,,,,,,,,,,,,,377.12713389999954,377.1428777000001,,377.62822199999937,377.7152246000005,377.71943680000004,377.71943680000004,377.71943680000004,378.87709990000076,Foils\scenes25.jpg,none,n,1.1506646999987424,None,,,,,,,,00053,001,2026-01-25_15h25.49.781,MST_test,2024.2.0,60.04192126994873,2026-01-25 15h26.04.320780 +0530,
47,0,48,s,3.5311227000001963,None,48,0,47,378.8930065000004,,,,,,,,,,,,,,,,,,,,,,,,,,,,,,,,,,,,,,,,,,,,,,,,,,378.8775451999991,378.8930065000004,379.4262940999997,379.37672940000084,379.4211360999998,379.4262940999997,379.4262940999997,379.4262940999997,382.96042990000024,Scenes\107b.jpg,mid,s,3.5311227000001963,None,,,,,,,,00053,001,2026-01-25_15h25.49.781,MST_test,2024.2.0,60.04192126994873,2026-01-25 15h26.04.320780 +0530,
48,0,49,o,1.735286900000574,None,49,0,48,382.97684689999915,,,,,,,,,,,,,,,,,,,,,,,,,,,,,,,,,,,,,,,,,,,,,,,,,,382.96078189999935,382.97684689999915,383.4781297999998,383.4602481000002,383.46790580000015,383.4781297999998,383.4781297999998,383.4781297999998,385.2270819000005,Objects\080a.jpg,pre,o,1.735286900000574,None,,,,,,,,00053,001,2026-01-25_15h25.49.781,MST_test,2024.2.0,60.04192126994873,2026-01-25 15h26.04.320780 +0530,
49,0,50,s,8.595595900000262,None,50,0,49,385.24302159999934,,,,,,,,,,,,,,,,,,,,,,,,,,,,,,,,,,,,,,,,,,,,,,,,,,385.2274404,385.24302159999934,385.7628096999997,385.72702089999984,385.7605091000005,385.7628096999997,385.7628096999997,385.7628096999997,394.36033359999965,Objects\156b.jpg,post,s,8.595595900000262,None,,,,,,,,00053,001,2026-01-25_15h25.49.781,MST_test,2024.2.0,60.04192126994873,2026-01-25 15h26.04.320780 +0530,
50,0,51,n,1.249004799999966,None,51,0,50,394.37610979999954,,,,,,,,,,,,,,,,,,,,,,,,,,,,,,,,,,,,,,,,,,,,,,,,,,394.3607458000006,394.37610979999954,,394.8610112000006,394.86862239999937,394.8767251999998,394.8767251999998,394.8767251999998,396.1271557,Foils\113a.jpg,none,n,1.249004799999966,None,,,,,,,,00053,001,2026-01-25_15h25.49.781,MST_test,2024.2.0,60.04192126994873,2026-01-25 15h26.04.320780 +0530,
51,0,52,o,3.2259202000004734,None,52,0,51,396.1430242999995,,,,,,,,,,,,,,,,,,,,,,,,,,,,,,,,,,,,,,,,,,,,,,,,,,396.1275129000005,396.1430242999995,396.6442057999993,396.62668830000075,396.6418725000003,396.6442057999993,396.6442057999993,396.6442057999993,399.87694379999994,Scenes\182a.jpg,mid,o,3.2259202000004734,None,,,,,,,,00053,001,2026-01-25_15h25.49.781,MST_test,2024.2.0,60.04192126994873,2026-01-25 15h26.04.320780 +0530,
52,0,53,s,5.492509100000461,None,53,0,52,399.89302169999974,,,,,,,,,,,,,,,,,,,,,,,,,,,,,,,,,,,,,,,,,,,,,,,,,,399.87732549999964,399.89302169999974,400.39356430000043,400.3767580999993,400.3861973000003,400.39356430000043,400.39356430000043,400.39356430000043,405.8937549000002,Objects\159a.jpg,pre,s,5.492509100000461,None,,,,,,,,00053,001,2026-01-25_15h25.49.781,MST_test,2024.2.0,60.04192126994873,2026-01-25 15h26.04.320780 +0530,
53,0,54,s,2.2353431999999884,None,54,0,53,405.90979289999996,,,,,,,,,,,,,,,,,,,,,,,,,,,,,,,,,,,,,,,,,,,,,,,,,,405.8941740999999,405.90979289999996,406.4100445999993,406.39336919999914,406.40192240000033,406.4100445999993,406.4100445999993,406.4100445999993,408.66031010000006,Objects\161a.jpg,pre,s,2.2353431999999884,None,,,,,,,,00053,001,2026-01-25_15h25.49.781,MST_test,2024.2.0,60.04192126994873,2026-01-25 15h26.04.320780 +0530,
54,0,55,o,2.079388399999516,None,55,0,54,408.6762789000004,,,,,,,,,,,,,,,,,,,,,,,,,,,,,,,,,,,,,,,,,,,,,,,,,,408.6606950000005,408.6762789000004,409.2220940999996,409.16024259999904,409.2196296000002,409.2220940999996,409.2220940999996,409.2220940999996,411.31036719999975,Scenes\042b.jpg,mid,o,2.079388399999516,None,,,,,,,,00053,001,2026-01-25_15h25.49.781,MST_test,2024.2.0,60.04192126994873,2026-01-25 15h26.04.320780 +0530,
55,0,56,o,4.3314000999998825,None,56,0,55,411.3264538000003,,,,,,,,,,,,,,,,,,,,,,,,,,,,,,,,,,,,,,,,,,,,,,,,,,411.31072519999907,411.3264538000003,411.82669329999953,411.8101251999997,411.8218574000002,411.82669329999953,411.82669329999953,411.82669329999953,416.16002710000066,Objects\130b.jpg,post,o,4.3314000999998825,None,,,,,,,,00053,001,2026-01-25_15h25.49.781,MST_test,2024.2.0,60.04192126994873,2026-01-25 15h26.04.320780 +0530,
56,0,57,s,3.167477599999984,None,57,0,56,416.1762314000007,,,,,,,,,,,,,,,,,,,,,,,,,,,,,,,,,,,,,,,,,,,,,,,,,,416.1604798999997,416.1762314000007,416.6939476000007,416.66011590000016,416.69199579999986,416.6939476000007,416.6939476000007,416.6939476000007,419.8768684000006,Objects\163b.jpg,pre,s,3.167477599999984,None,,,,,,,,00053,001,2026-01-25_15h25.49.781,MST_test,2024.2.0,60.04192126994873,2026-01-25 15h26.04.320780 +0530,
57,0,58,n,2.826655299999402,None,58,0,57,419.89286960000027,,,,,,,,,,,,,,,,,,,,,,,,,,,,,,,,,,,,,,,,,,,,,,,,,,419.87722609999946,419.89286960000027,420.39542430000074,420.37645189999967,420.3930206999994,420.39542430000074,420.39542430000074,420.39542430000074,423.2271225000004,Foils\057a.jpg,none,n,2.826655299999402,None,,,,,,,,00053,001,2026-01-25_15h25.49.781,MST_test,2024.2.0,60.04192126994873,2026-01-25 15h26.04.320780 +0530,
58,0,59,n,3.3106267000002845,None,59,0,58,423.24310660000083,,,,,,,,,,,,,,,,,,,,,,,,,,,,,,,,,,,,,,,,,,,,,,,,,,423.2274830999995,423.24310660000083,423.7432384999993,423.7267553999991,423.7335712999993,423.7432384999993,423.7432384999993,423.7432384999993,427.0603690000007,Foils\scenes5.jpg,none,n,3.3106267000002845,None,,,,,,,,00053,001,2026-01-25_15h25.49.781,MST_test,2024.2.0,60.04192126994873,2026-01-25 15h26.04.320780 +0530,
59,0,60,n,2.8351656000013463,None,60,0,59,427.0764589999999,,,,,,,,,,,,,,,,,,,,,,,,,,,,,,,,,,,,,,,,,,,,,,,,,,427.06072949999907,427.0764589999999,427.57895649999955,427.5600768000004,427.5767434999998,427.57895649999955,427.57895649999955,427.57895649999955,430.4271090000002,Scenes\133a.jpg,post,n,2.8351656000013463,None,,,,,,,,00053,001,2026-01-25_15h25.49.781,MST_test,2024.2.0,60.04192126994873,2026-01-25 15h26.04.320780 +0530,
60,0,61,o,1.2704313000012917,None,61,0,60,430.4431308000003,,,,,,,,,,,,,,,,,,,,,,,,,,,,,,,,,,,,,,,,,,,,,,,,,,430.42748720000054,430.4431308000003,430.94365370000014,430.9265723999997,430.9356778000001,430.94365370000014,430.94365370000014,430.94365370000014,432.2272152000005,Objects\070a.jpg,pre,o,1.2704313000012917,None,,,,,,,,00053,001,2026-01-25_15h25.49.781,MST_test,2024.2.0,60.04192126994873,2026-01-25 15h26.04.320780 +0530,
61,0,62,n,1.5905932000005123,None,62,0,61,432.2430636000008,,,,,,,,,,,,,,,,,,,,,,,,,,,,,,,,,,,,,,,,,,,,,,,,,,432.22757210000054,432.2430636000008,432.74348590000045,432.72688779999953,432.73396479999974,432.74348590000045,432.74348590000045,432.74348590000045,434.34477270000025,Scenes\053a.jpg,post,n,1.5905932000005123,None,,,,,,,,00053,001,2026-01-25_15h25.49.781,MST_test,2024.2.0,60.04192126994873,2026-01-25 15h26.04.320780 +0530,
62,0,63,n,1.1542410999991262,None,63,0,62,434.3594116999993,,,,,,,,,,,,,,,,,,,,,,,,,,,,,,,,,,,,,,,,,,,,,,,,,,434.34518059999937,434.3594116999993,434.85989569999947,434.84301869999945,434.8503120999994,434.85989569999947,434.85989569999947,434.85989569999947,436.0271018000003,Foils\scenes30.jpg,none,n,1.1542410999991262,None,,,,,,,,00053,001,2026-01-25_15h25.49.781,MST_test,2024.2.0,60.04192126994873,2026-01-25 15h26.04.320780 +0530,
63,0,64,s,8.45140050000009,None,64,0,63,436.04312759999993,,,,,,,,,,,,,,,,,,,,,,,,,,,,,,,,,,,,,,,,,,,,,,,,,,436.0274575000003,436.04312759999993,436.54609229999915,436.52673089999917,436.5438592999999,436.54609229999915,436.54609229999915,436.54609229999915,445.01069169999937,Scenes\125a.jpg,mid,s,8.45140050000009,None,,,,,,,,00053,001,2026-01-25_15h25.49.781,MST_test,2024.2.0,60.04192126994873,2026-01-25 15h26.04.320780 +0530,
64,0,65,s,1.6078238999998575,None,65,0,64,445.02650879999965,,,,,,,,,,,,,,,,,,,,,,,,,,,,,,,,,,,,,,,,,,,,,,,,,,445.01111019999917,445.02650879999965,445.5502768000006,445.5100734000007,445.54727640000056,445.5502768000006,445.5502768000006,445.5502768000006,447.1601221000001,Objects\146b.jpg,mid,s,1.6078238999998575,None,,,,,,,,00053,001,2026-01-25_15h25.49.781,MST_test,2024.2.0,60.04192126994873,2026-01-25 15h26.04.320780 +0530,
65,0,66,o,2.8410258000003523,None,66,0,65,447.1766112999994,,,,,,,,,,,,,,,,,,,,,,,,,,,,,,,,,,,,,,,,,,,,,,,,,,447.1605290000007,447.1766112999994,447.6771563000002,447.66012950000004,447.67485189999934,447.6771563000002,447.6771563000002,447.6771563000002,450.52704620000077,Scenes\049a.jpg,mid,o,2.8410258000003523,None,,,,,,,,00053,001,2026-01-25_15h25.49.781,MST_test,2024.2.0,60.04192126994873,2026-01-25 15h26.04.320780 +0530,
66,0,67,o,3.385161500000322,None,67,0,66,450.54313940000065,,,,,,,,,,,,,,,,,,,,,,,,,,,,,,,,,,,,,,,,,,,,,,,,,,450.5274274000003,450.54313940000065,451.04435170000033,451.02710599999955,451.03332469999987,451.04435170000033,451.04435170000033,451.04435170000033,454.4438921000001,Objects\004a.jpg,mid,o,3.385161500000322,None,,,,,,,,00053,001,2026-01-25_15h25.49.781,MST_test,2024.2.0,60.04192126994873,2026-01-25 15h26.04.320780 +0530,
67,0,68,s,6.66953839999951,None,68,0,67,454.45977329999914,,,,,,,,,,,,,,,,,,,,,,,,,,,,,,,,,,,,,,,,,,,,,,,,,,454.44431540000005,454.45977329999914,454.96000959999947,454.94356700000026,454.95192359999965,454.96000959999947,454.96000959999947,454.96000959999947,461.64348880000034,Objects\134b.jpg,mid,s,6.66953839999951,None,,,,,,,,00053,001,2026-01-25_15h25.49.781,MST_test,2024.2.0,60.04192126994873,2026-01-25 15h26.04.320780 +0530,
68,0,69,s,3.6184627000002365,None,69,0,68,461.65930149999986,,,,,,,,,,,,,,,,,,,,,,,,,,,,,,,,,,,,,,,,,,,,,,,,,,461.64387720000013,461.65930149999986,462.1790017000003,462.1435490999993,462.17646779999995,462.1790017000003,462.1790017000003,462.1790017000003,465.81037859999924,Objects\075b.jpg,mid,s,3.6184627000002365,None,,,,,,,,00053,001,2026-01-25_15h25.49.781,MST_test,2024.2.0,60.04192126994873,2026-01-25 15h26.04.320780 +0530,
69,0,70,s,4.871424899998601,None,70,0,69,465.8265773999992,,,,,,,,,,,,,,,,,,,,,,,,,,,,,,,,,,,,,,,,,,,,,,,,,,465.8107342000003,465.8265773999992,466.3267157999999,466.3098513999994,466.32364810000036,466.3267157999999,466.3267157999999,466.3267157999999,471.21048599999995,Scenes\106a.jpg,post,s,4.871424899998601,None,,,,,,,,00053,001,2026-01-25_15h25.49.781,MST_test,2024.2.0,60.04192126994873,2026-01-25 15h26.04.320780 +0530,
70,0,71,s,7.294601800000237,None,71,0,70,471.22652949999974,,,,,,,,,,,,,,,,,,,,,,,,,,,,,,,,,,,,,,,,,,,,,,,,,,471.2108924000004,471.22652949999974,471.7270286999992,471.7101641999998,471.72097740000027,471.7270286999992,471.7270286999992,471.7270286999992,479.0270125999996,Objects\115a.jpg,mid,s,7.294601800000237,None,,,,,,,,00053,001,2026-01-25_15h25.49.781,MST_test,2024.2.0,60.04192126994873,2026-01-25 15h26.04.320780 +0530,
71,0,72,o,2.8316082999990613,None,72,0,71,479.0429299000007,,,,,,,,,,,,,,,,,,,,,,,,,,,,,,,,,,,,,,,,,,,,,,,,,,479.0273768999996,479.0429299000007,479.5824912999997,479.5269114999992,479.58030320000034,479.5824912999997,479.5824912999997,479.5824912999997,482.4270837999993,Objects\022b.jpg,post,o,2.8316082999990613,None,,,,,,,,00053,001,2026-01-25_15h25.49.781,MST_test,2024.2.0,60.04192126994873,2026-01-25 15h26.04.320780 +0530,
72,0,73,s,4.437860600000931,None,73,0,72,482.44318659999954,,,,,,,,,,,,,,,,,,,,,,,,,,,,,,,,,,,,,,,,,,,,,,,,,,482.42755749999924,482.44318659999954,482.9434218000006,482.92680219999966,482.9348272999996,482.9434218000006,482.9434218000006,482.9434218000006,487.39330209999935,Foils\066a.jpg,none,s,4.437860600000931,None,,,,,,,,00053,001,2026-01-25_15h25.49.781,MST_test,2024.2.0,60.04192126994873,2026-01-25 15h26.04.320780 +0530,
73,0,74,n,1.360157100001743,None,74,0,73,487.4093584000002,,,,,,,,,,,,,,,,,,,,,,,,,,,,,,,,,,,,,,,,,,,,,,,,,,487.3935240999999,487.4093584000002,487.9099270000006,487.89357700000073,487.9004870000008,487.9099270000006,487.9099270000006,487.9099270000006,489.2770192000007,Foils\090a.jpg,none,n,1.360157100001743,None,,,,,,,,00053,001,2026-01-25_15h25.49.781,MST_test,2024.2.0,60.04192126994873,2026-01-25 15h26.04.320780 +0530,
74,0,75,s,1.571960700001,None,75,0,74,489.29356279999956,,,,,,,,,,,,,,,,,,,,,,,,,,,,,,,,,,,,,,,,,,,,,,,,,,489.27741480000077,489.29356279999956,489.79348670000036,489.7768665000003,489.78498539999964,489.79348670000036,489.79348670000036,489.79348670000036,491.3769572000001,Objects\002a.jpg,mid,s,1.571960700001,None,,,,,,,,00053,001,2026-01-25_15h25.49.781,MST_test,2024.2.0,60.04192126994873,2026-01-25 15h26.04.320780 +0530,
75,0,76,n,3.4736305000005814,None,76,0,75,491.3928173000004,,,,,,,,,,,,,,,,,,,,,,,,,,,,,,,,,,,,,,,,,,,,,,,,,,491.3772057999995,491.3928173000004,491.91652330000034,491.87687469999946,491.91403680000076,491.91652330000034,491.91652330000034,491.91652330000034,495.3938299000001,Objects\048b.jpg,post,n,3.4736305000005814,None,,,,,,,,00053,001,2026-01-25_15h25.49.781,MST_test,2024.2.0,60.04192126994873,2026-01-25 15h26.04.320780 +0530,
76,0,77,s,2.105042399998638,None,77,0,76,495.4099055000006,,,,,,,,,,,,,,,,,,,,,,,,,,,,,,,,,,,,,,,,,,,,,,,,,,495.3941567999991,495.4099055000006,495.9330740000005,495.8932409000008,495.9305932999996,495.9330740000005,495.9330740000005,495.9330740000005,498.0438295999993,Objects\175b.jpg,pre,s,2.105042399998638,None,,,,,,,,00053,001,2026-01-25_15h25.49.781,MST_test,2024.2.0,60.04192126994873,2026-01-25 15h26.04.320780 +0530,
77,0,78,s,2.797741099999257,None,78,0,77,498.0597479999997,,,,,,,,,,,,,,,,,,,,,,,,,,,,,,,,,,,,,,,,,,,,,,,,,,498.04418609999993,498.0597479999997,498.56011149999904,498.54358049999973,498.55721959999937,498.56011149999904,498.56011149999904,498.56011149999904,501.3602740999995,Scenes\051b.jpg,post,s,2.797741099999257,None,,,,,,,,00053,001,2026-01-25_15h25.49.781,MST_test,2024.2.0,60.04192126994873,2026-01-25 15h26.04.320780 +0530,
78,0,79,o,1.8249949000000925,None,79,0,78,501.3765036999994,,,,,,,,,,,,,,,,,,,,,,,,,,,,,,,,,,,,,,,,,,,,,,,,,,501.3606579999996,501.3765036999994,501.8770791000006,501.8602697000006,501.8697133000005,501.8770791000006,501.8770791000006,501.8770791000006,503.7105515000003,Objects\098a.jpg,pre,o,1.8249949000000925,None,,,,,,,,00053,001,2026-01-25_15h25.49.781,MST_test,2024.2.0,60.04192126994873,2026-01-25 15h26.04.320780 +0530,
79,0,80,s,2.3260128000001714,None,80,0,79,503.72648560000016,,,,,,,,,,,,,,,,,,,,,,,,,,,,,,,,,,,,,,,,,,,,,,,,,,503.71094190000076,503.72648560000016,504.2317380000004,504.2103179000005,504.2292551999999,504.2317380000004,504.2317380000004,504.2317380000004,506.5602626,Scenes\058a.jpg,pre,s,2.3260128000001714,None,,,,,,,,00053,001,2026-01-25_15h25.49.781,MST_test,2024.2.0,60.04192126994873,2026-01-25 15h26.04.320780 +0530,
80,0,81,s,1.3350296999997227,None,81,0,80,506.57627049999974,,,,,,,,,,,,,,,,,,,,,,,,,,,,,,,,,,,,,,,,,,,,,,,,,,506.5606489999991,506.57627049999974,507.0941488999997,507.0597550000002,507.0916796999991,507.0941488999997,507.0941488999997,507.0941488999997,508.44353149999915,Objects\079b.jpg,mid,s,1.3350296999997227,None,,,,,,,,00053,001,2026-01-25_15h25.49.781,MST_test,2024.2.0,60.04192126994873,2026-01-25 15h26.04.320780 +0530,
81,0,82,s,9.869421500001408,None,82,0,81,508.45986579999953,,,,,,,,,,,,,,,,,,,,,,,,,,,,,,,,,,,,,,,,,,,,,,,,,,508.4439146000004,508.45986579999953,508.9601437000001,508.9435192000001,508.9518793999996,508.9601437000001,508.9601437000001,508.9601437000001,518.8444393999998,Objects\092a.jpg,mid,s,9.869421500001408,None,,,,,,,,00053,001,2026-01-25_15h25.49.781,MST_test,2024.2.0,60.04192126994873,2026-01-25 15h26.04.320780 +0530,
82,0,83,s,2.6384763999994902,None,83,0,82,518.8597602999998,,,,,,,,,,,,,,,,,,,,,,,,,,,,,,,,,,,,,,,,,,,,,,,,,,518.8447919999999,518.8597602999998,519.4070222999999,519.3435269999991,519.4041391999999,519.4070222999999,519.4070222999999,519.4070222999999,522.0603508999993,Scenes\153b.jpg,mid,s,2.6384763999994902,None,,,,,,,,00053,001,2026-01-25_15h25.49.781,MST_test,2024.2.0,60.04192126994873,2026-01-25 15h26.04.320780 +0530,
83,0,84,o,2.9164130999997724,None,84,0,83,522.0765515000003,,,,,,,,,,,,,,,,,,,,,,,,,,,,,,,,,,,,,,,,,,,,,,,,,,522.0607113000005,522.0765515000003,522.5770465000005,522.5603159999991,522.5702688999991,522.5770465000005,522.5770465000005,522.5770465000005,525.5105567999999,Objects\020a.jpg,pre,o,2.9164130999997724,None,,,,,,,,00053,001,2026-01-25_15h25.49.781,MST_test,2024.2.0,60.04192126994873,2026-01-25 15h26.04.320780 +0530,
84,0,85,o,3.0021421999990707,None,85,0,84,525.5274119000005,,,,,,,,,,,,,,,,,,,,,,,,,,,,,,,,,,,,,,,,,,,,,,,,,,525.5109095999996,525.5274119000005,,526.0266936000007,526.0330353999998,526.0432756999999,526.0432756999999,526.0432756999999,529.0605639000005,Objects\025a.jpg,post,o,3.0021421999990707,None,,,,,,,,00053,001,2026-01-25_15h25.49.781,MST_test,2024.2.0,60.04192126994873,2026-01-25 15h26.04.320780 +0530,
85,0,86,o,1.2967045999994298,None,86,0,85,529.0767522999995,,,,,,,,,,,,,,,,,,,,,,,,,,,,,,,,,,,,,,,,,,,,,,,,,,529.0609193,529.0767522999995,529.5807177000006,529.5604215999992,529.5781757999994,529.5807177000006,529.5807177000006,529.5807177000006,530.8938180000005,Scenes\156a.jpg,mid,o,1.2967045999994298,None,,,,,,,,00053,001,2026-01-25_15h25.49.781,MST_test,2024.2.0,60.04192126994873,2026-01-25 15h26.04.320780 +0530,
86,0,87,s,3.1630261999998766,None,87,0,86,530.9099014000003,,,,,,,,,,,,,,,,,,,,,,,,,,,,,,,,,,,,,,,,,,,,,,,,,,530.8941713000004,530.9099014000003,531.4104205000003,531.3932277999993,531.4024831000006,531.4104205000003,531.4104205000003,531.4104205000003,534.5768253000006,Objects\077b.jpg,mid,s,3.1630261999998766,None,,,,,,,,00053,001,2026-01-25_15h25.49.781,MST_test,2024.2.0,60.04192126994873,2026-01-25 15h26.04.320780 +0530,
87,0,88,o,1.696063299999878,None,88,0,87,534.5929698,,,,,,,,,,,,,,,,,,,,,,,,,,,,,,,,,,,,,,,,,,,,,,,,,,534.5771776999991,534.5929698,535.1020458000003,535.0769724000002,535.0993079,535.1020458000003,535.1020458000003,535.1020458000003,536.8102717999991,Scenes\066b.jpg,mid,o,1.696063299999878,None,,,,,,,,00053,001,2026-01-25_15h25.49.781,MST_test,2024.2.0,60.04192126994873,2026-01-25 15h26.04.320780 +0530,
88,0,89,s,3.4628044000000955,None,89,0,88,536.8266060000005,,,,,,,,,,,,,,,,,,,,,,,,,,,,,,,,,,,,,,,,,,,,,,,,,,536.8106370999994,536.8266060000005,537.3274168000007,537.3103064999996,537.3208541000004,537.3274168000007,537.3274168000007,537.3274168000007,540.7935557000001,Objects\062a.jpg,post,s,3.4628044000000955,None,,,,,,,,00053,001,2026-01-25_15h25.49.781,MST_test,2024.2.0,60.04192126994873,2026-01-25 15h26.04.320780 +0530,
89,0,90,o,1.6800128000013501,None,90,0,89,540.8099168999997,,,,,,,,,,,,,,,,,,,,,,,,,,,,,,,,,,,,,,,,,,,,,,,,,,540.7939057999993,540.8099168999997,541.3100918,541.2936109999991,541.3022435000003,541.3100918,541.3100918,541.3100918,542.9938545999994,Objects\129a.jpg,post,o,1.6800128000013501,None,,,,,,,,00053,001,2026-01-25_15h25.49.781,MST_test,2024.2.0,60.04192126994873,2026-01-25 15h26.04.320780 +0530,
90,0,91,s,1.7666992000013124,None,91,0,90,543.0099516999999,,,,,,,,,,,,,,,,,,,,,,,,,,,,,,,,,,,,,,,,,,,,,,,,,,542.9942131000007,543.0099516999999,543.5106883999997,543.4934181000008,543.5012688000006,543.5106883999997,543.5106883999997,543.5106883999997,545.2936590000008,Objects\064b.jpg,pre,s,1.7666992000013124,None,,,,,,,,00053,001,2026-01-25_15h25.49.781,MST_test,2024.2.0,60.04192126994873,2026-01-25 15h26.04.320780 +0530,
91,0,92,n,2.5571055000000342,None,92,0,91,545.3096244000008,,,,,,,,,,,,,,,,,,,,,,,,,,,,,,,,,,,,,,,,,,,,,,,,,,545.2940113000004,545.3096244000008,545.8403084000001,545.7932313000001,545.8377739999996,545.8403084000001,545.8403084000001,545.8403084000001,548.4103663999995,Scenes\045b.jpg,pre,n,2.5571055000000342,None,,,,,,,,00053,001,2026-01-25_15h25.49.781,MST_test,2024.2.0,60.04192126994873,2026-01-25 15h26.04.320780 +0530,
92,0,93,s,3.1034861000007368,None,93,0,92,548.4266134999998,,,,,,,,,,,,,,,,,,,,,,,,,,,,,,,,,,,,,,,,,,,,,,,,,,548.4106745999998,548.4266134999998,548.9506411000002,548.9102889999995,548.9481137999992,548.9506411000002,548.9506411000002,548.9506411000002,552.0603938000004,Objects\019b.jpg,mid,s,3.1034861000007368,None,,,,,,,,00053,001,2026-01-25_15h25.49.781,MST_test,2024.2.0,60.04192126994873,2026-01-25 15h26.04.320780 +0530,
93,0,94,n,1.30048429999988,None,94,0,93,552.0766079999994,,,,,,,,,,,,,,,,,,,,,,,,,,,,,,,,,,,,,,,,,,,,,,,,,,552.0607452999993,552.0766079999994,552.5769965,552.5603504999999,552.5676800000001,552.5769965,552.5769965,552.5769965,553.8938725999997,Foils\scenes20.jpg,none,n,1.30048429999988,None,,,,,,,,00053,001,2026-01-25_15h25.49.781,MST_test,2024.2.0,60.04192126994873,2026-01-25 15h26.04.320780 +0530,
94,0,95,s,2.1074381999987963,None,95,0,94,553.9099676999995,,,,,,,,,,,,,,,,,,,,,,,,,,,,,,,,,,,,,,,,,,,,,,,,,,553.8942439000002,553.9099676999995,554.4100362999998,554.3931854999992,554.4026496000006,554.4100362999998,554.4100362999998,554.4100362999998,556.5271236999997,Objects\071a.jpg,post,s,2.1074381999987963,None,,,,,,,,00053,001,2026-01-25_15h25.49.781,MST_test,2024.2.0,60.04192126994873,2026-01-25 15h26.04.320780 +0530,
95,0,96,n,4.234926099999939,None,96,0,95,556.5430252999995,,,,,,,,,,,,,,,,,,,,,,,,,,,,,,,,,,,,,,,,,,,,,,,,,,556.5274719999998,556.5430252999995,557.0512020000006,557.0263797000007,557.0487745999999,557.0512020000006,557.0512020000006,557.0512020000006,561.2939442999996,Foils\scenes12.jpg,none,n,4.234926099999939,None,,,,,,,,00053,001,2026-01-25_15h25.49.781,MST_test,2024.2.0,60.04192126994873,2026-01-25 15h26.04.320780 +0530,
96,0,97,s,6.548478100001375,None,97,0,96,561.3099562999996,,,,,,,,,,,,,,,,,,,,,,,,,,,,,,,,,,,,,,,,,,,,,,,,,,561.2943438999991,561.3099562999996,561.8174923000006,561.7934318999996,561.8151460999998,561.8174923000006,561.8174923000006,561.8174923000006,568.3772635999994,Scenes\034a.jpg,pre,s,6.548478100001375,None,,,,,,,,00053,001,2026-01-25_15h25.49.781,MST_test,2024.2.0,60.04192126994873,2026-01-25 15h26.04.320780 +0530,
97,0,98,n,3.1150305999999546,None,98,0,97,568.3932296000003,,,,,,,,,,,,,,,,,,,,,,,,,,,,,,,,,,,,,,,,,,,,,,,,,,568.3776144999993,568.3932296000003,568.9304668000004,568.8765191999992,568.9273297,568.9304668000004,568.9304668000004,568.9304668000004,572.0606585000005,Objects\128b.jpg,pre,n,3.1150305999999546,None,,,,,,,,00053,001,2026-01-25_15h25.49.781,MST_test,2024.2.0,60.04192126994873,2026-01-25 15h26.04.320780 +0530,
98,0,99,o,1.5463799000008294,None,99,0,98,572.0766531999998,,,,,,,,,,,,,,,,,,,,,,,,,,,,,,,,,,,,,,,,,,,,,,,,,,572.0610555999992,572.0766531999998,572.5796575999993,572.5603264000001,572.5773888000003,572.5796575999993,572.5796575999993,572.5796575999993,574.1276321000005,Scenes\136b.jpg,post,o,1.5463799000008294,None,,,,,,,,00053,001,2026-01-25_15h25.49.781,MST_test,2024.2.0,60.04192126994873,2026-01-25 15h26.04.320780 +0530,
99,0,100,s,7.695354899999074,None,100,0,99,574.1432975000007,,,,,,,,,,,,,,,,,,,,,,,,,,,,,,,,,,,,,,,,,,,,,,,,,,574.1280172999996,574.1432975000007,574.6627742000001,574.6270353,574.6604575999991,574.6627742000001,574.6627742000001,574.6627742000001,582.3602052000006,Objects\049b.jpg,pre,s,7.695354899999074,None,,,,,,,,00053,001,2026-01-25_15h25.49.781,MST_test,2024.2.0,60.04192126994873,2026-01-25 15h26.04.320780 +0530,
100,0,101,n,2.2785562999997637,None,101,0,100,582.3765810000004,,,,,,,,,,,,,,,,,,,,,,,,,,,,,,,,,,,,,,,,,,,,,,,,,,582.3605614999997,582.3765810000004,582.8955537999991,582.8602785999992,582.8934250000002,582.8955537999991,582.8955537999991,582.8955537999991,585.1776597999997,Objects\182b.jpg,post,n,2.2785562999997637,None,,,,,,,,00053,001,2026-01-25_15h25.49.781,MST_test,2024.2.0,60.04192126994873,2026-01-25 15h26.04.320780 +0530,
101,0,102,n,3.0874701000011555,None,102,0,101,585.1932840999998,,,,,,,,,,,,,,,,,,,,,,,,,,,,,,,,,,,,,,,,,,,,,,,,,,585.1780166999997,585.1932840999998,585.6946243999992,585.6773899,585.6857147999999,585.6946243999992,585.6946243999992,585.6946243999992,588.7939697000002,Foils\scenes1.jpg,none,n,3.0874701000011555,None,,,,,,,,00053,001,2026-01-25_15h25.49.781,MST_test,2024.2.0,60.04192126994873,2026-01-25 15h26.04.320780 +0530,
102,0,103,n,2.3993485999999393,None,103,0,102,588.8099144000007,,,,,,,,,,,,,,,,,,,,,,,,,,,,,,,,,,,,,,,,,,,,,,,,,,588.7943472999996,588.8099144000007,589.3102029000001,589.2934884999995,589.3000119000008,589.3102029000001,589.3102029000001,589.3102029000001,591.7107104999995,Foils\scenes14.jpg,none,n,2.3993485999999393,None,,,,,,,,00053,001,2026-01-25_15h25.49.781,MST_test,2024.2.0,60.04192126994873,2026-01-25 15h26.04.320780 +0530,
103,0,104,s,2.506351599999107,None,104,0,103,591.7266337000001,,,,,,,,,,,,,,,,,,,,,,,,,,,,,,,,,,,,,,,,,,,,,,,,,,591.7110694999992,591.7266337000001,592.2277787000003,592.2099997000005,592.2255769999992,592.2277787000003,592.2277787000003,592.2277787000003,594.7439371,Scenes\005a.jpg,pre,s,2.506351599999107,None,,,,,,,,00053,001,2026-01-25_15h25.49.781,MST_test,2024.2.0,60.04192126994873,2026-01-25 15h26.04.320780 +0530,
104,0,105,o,3.4976253999993787,None,105,0,104,594.7599095999994,,,,,,,,,,,,,,,,,,,,,,,,,,,,,,,,,,,,,,,,,,,,,,,,,,594.7442859000002,594.7599095999994,595.2604895999993,595.2437040999994,595.2540107000004,595.2604895999993,595.2604895999993,595.2604895999993,598.7601708999991,Objects\132a.jpg,post,o,3.4976253999993787,None,,,,,,,,00053,001,2026-01-25_15h25.49.781,MST_test,2024.2.0,60.04192126994873,2026-01-25 15h26.04.320780 +0530,
105,0,106,s,5.816652800000156,None,106,0,105,598.7765715000005,,,,,,,,,,,,,,,,,,,,,,,,,,,,,,,,,,,,,,,,,,,,,,,,,,598.7605232999995,598.7765715000005,599.2768782000003,599.2601355999996,599.2743059999993,599.2768782000003,599.2768782000003,599.2768782000003,605.1104589000006,Scenes\013b.jpg,pre,s,5.816652800000156,None,,,,,,,,00053,001,2026-01-25_15h25.49.781,MST_test,2024.2.0,60.04192126994873,2026-01-25 15h26.04.320780 +0530,
106,0,107,n,2.0821300000006886,None,107,0,106,605.1264792000002,,,,,,,,,,,,,,,,,,,,,,,,,,,,,,,,,,,,,,,,,,,,,,,,,,605.1108366999997,605.1264792000002,605.6274068000002,605.6103206999996,605.6248508999997,605.6274068000002,605.6274068000002,605.6274068000002,607.7106980999997,Scenes\169a.jpg,post,n,2.0821300000006886,None,,,,,,,,00053,001,2026-01-25_15h25.49.781,MST_test,2024.2.0,60.04192126994873,2026-01-25 15h26.04.320780 +0530,
107,0,108,s,3.0826006999996025,None,108,0,107,607.7264804999995,,,,,,,,,,,,,,,,,,,,,,,,,,,,,,,,,,,,,,,,,,,,,,,,,,607.7111098999994,607.7264804999995,608.2269293000008,608.2103626000007,608.2223259000002,608.2269293000008,608.2269293000008,608.2269293000008,611.3105682000005,Objects\123a.jpg,post,s,3.0826006999996025,None,,,,,,,,00053,001,2026-01-25_15h25.49.781,MST_test,2024.2.0,60.04192126994873,2026-01-25 15h26.04.320780 +0530,
108,0,109,n,1.6747795000010228,None,109,0,108,611.3266524999999,,,,,,,,,,,,,,,,,,,,,,,,,,,,,,,,,,,,,,,,,,,,,,,,,,611.3109330999996,611.3266524999999,611.8272660000002,611.8103580999996,611.8227594,611.8272660000002,611.8272660000002,611.8272660000002,613.5105769000002,Scenes\083b.jpg,mid,n,1.6747795000010228,None,,,,,,,,00053,001,2026-01-25_15h25.49.781,MST_test,2024.2.0,60.04192126994873,2026-01-25 15h26.04.320780 +0530,
109,0,110,n,5.78645989999859,None,110,0,109,613.5266585000008,,,,,,,,,,,,,,,,,,,,,,,,,,,,,,,,,,,,,,,,,,,,,,,,,,613.5109291999997,613.5266585000008,614.0516994999998,614.0103335000003,614.0494314999996,614.0516994999998,614.0516994999998,614.0516994999998,619.8448384999992,Scenes\143b.jpg,post,n,5.78645989999859,None,,,,,,,,00053,001,2026-01-25_15h25.49.781,MST_test,2024.2.0,60.04192126994873,2026-01-25 15h26.04.320780 +0530,
110,0,111,n,1.2459921999998187,None,111,0,110,619.8595858000008,,,,,,,,,,,,,,,,,,,,,,,,,,,,,,,,,,,,,,,,,,,,,,,,,,619.8452011000008,619.8595858000008,620.3681187000002,620.3437474000002,620.3655242999994,620.3681187000002,620.3681187000002,620.3681187000002,621.6270667999997,Scenes\047b.jpg,mid,n,1.2459921999998187,None,,,,,,,,00053,001,2026-01-25_15h25.49.781,MST_test,2024.2.0,60.04192126994873,2026-01-25 15h26.04.320780 +0530,
111,0,112,n,1.2219804999986081,None,112,0,111,621.6431936999998,,,,,,,,,,,,,,,,,,,,,,,,,,,,,,,,,,,,,,,,,,,,,,,,,,621.6274458000007,621.6431936999998,622.1435287999993,622.1273954999997,622.1387364000002,622.1435287999993,622.1435287999993,622.1435287999993,623.3773189000003,Foils\018a.jpg,none,n,1.2219804999986081,None,,,,,,,,00053,001,2026-01-25_15h25.49.781,MST_test,2024.2.0,60.04192126994873,2026-01-25 15h26.04.320780 +0530,
112,0,113,n,2.7354150000010122,None,113,0,112,623.3933429000008,,,,,,,,,,,,,,,,,,,,,,,,,,,,,,,,,,,,,,,,,,,,,,,,,,623.3776741000001,623.3933429000008,623.9027050000004,623.8770884999994,623.9004580000001,623.9027050000004,623.9027050000004,623.9027050000004,626.6440304000007,Objects\030b.jpg,post,n,2.7354150000010122,None,,,,,,,,00053,001,2026-01-25_15h25.49.781,MST_test,2024.2.0,60.04192126994873,2026-01-25 15h26.04.320780 +0530,
113,0,114,n,5.109973300001002,None,114,0,113,626.6599411999996,,,,,,,,,,,,,,,,,,,,,,,,,,,,,,,,,,,,,,,,,,,,,,,,,,626.6444069000008,626.6599411999996,627.1601475999996,627.1437683999993,627.1550989999996,627.1601475999996,627.1601475999996,627.1601475999996,632.2770961000006,Scenes\112b.jpg,post,n,5.109973300001002,None,,,,,,,,00053,001,2026-01-25_15h25.49.781,MST_test,2024.2.0,60.04192126994873,2026-01-25 15h26.04.320780 +0530,
114,0,115,n,1.1803073000010045,None,115,0,114,632.2932949000005,,,,,,,,,,,,,,,,,,,,,,,,,,,,,,,,,,,,,,,,,,,,,,,,,,632.2774465000002,632.2932949000005,632.7938288999994,632.7771028999996,632.7886111999997,632.7938288999994,632.7938288999994,632.7938288999994,633.9773083,Foils\121a.jpg,none,n,1.1803073000010045,None,,,,,,,,00053,001,2026-01-25_15h25.49.781,MST_test,2024.2.0,60.04192126994873,2026-01-25 15h26.04.320780 +0530,
115,0,116,o,11.399879599999622,None,116,0,115,633.9933610999997,,,,,,,,,,,,,,,,,,,,,,,,,,,,,,,,,,,,,,,,,,,,,,,,,,633.9776949999996,633.9933610999997,634.4936502,634.4770900999993,634.4835929000001,634.4936502,634.4936502,634.4936502,645.8940440999995,Objects\023a.jpg,mid,o,11.399879599999622,None,,,,,,,,00053,001,2026-01-25_15h25.49.781,MST_test,2024.2.0,60.04192126994873,2026-01-25 15h26.04.320780 +0530,
116,0,117,s,3.610207800000353,None,117,0,116,645.9099931000001,,,,,,,,,,,,,,,,,,,,,,,,,,,,,,,,,,,,,,,,,,,,,,,,,,645.8944272999997,645.9099931000001,646.4113584999996,646.3937604000002,646.4090355999997,646.4113584999996,646.4113584999996,646.4113584999996,650.0274004999992,Scenes\180a.jpg,pre,s,3.610207800000353,None,,,,,,,,00053,001,2026-01-25_15h25.49.781,MST_test,2024.2.0,60.04192126994873,2026-01-25 15h26.04.320780 +0530,
117,0,118,s,3.6298315999993065,None,118,0,117,650.0433814000007,,,,,,,,,,,,,,,,,,,,,,,,,,,,,,,,,,,,,,,,,,,,,,,,,,650.0277982000007,650.0433814000007,650.5439695000005,650.5271204000001,650.5364007999997,650.5439695000005,650.5439695000005,650.5439695000005,654.1773842000002,Objects\170b.jpg,mid,s,3.6298315999993065,None,,,,,,,,00053,001,2026-01-25_15h25.49.781,MST_test,2024.2.0,60.04192126994873,2026-01-25 15h26.04.320780 +0530,
118,0,119,n,1.482318700000178,None,119,0,118,654.1934211000007,,,,,,,,,,,,,,,,,,,,,,,,,,,,,,,,,,,,,,,,,,,,,,,,,,654.1777339,654.1934211000007,654.7398668999995,654.6771398000001,654.7372892999992,654.7398668999995,654.7398668999995,654.7398668999995,656.2272689000001,Scenes\065b.jpg,post,n,1.482318700000178,None,,,,,,,,00053,001,2026-01-25_15h25.49.781,MST_test,2024.2.0,60.04192126994873,2026-01-25 15h26.04.320780 +0530,
119,0,120,s,2.5977130999999645,None,120,0,119,656.2433927000002,,,,,,,,,,,,,,,,,,,,,,,,,,,,,,,,,,,,,,,,,,,,,,,,,,656.2276339,656.2433927000002,656.7437769000007,656.7270492000007,656.7410103999991,656.7437769000007,656.7437769000007,656.7437769000007,659.3437331999994,Scenes\151a.jpg,mid,s,2.5977130999999645,None,,,,,,,,00053,001,2026-01-25_15h25.49.781,MST_test,2024.2.0,60.04192126994873,2026-01-25 15h26.04.320780 +0530,
120,0,121,n,1.0574188999999024,None,121,0,120,659.3600501000001,,,,,,,,,,,,,,,,,,,,,,,,,,,,,,,,,,,,,,,,,,,,,,,,,,659.3441179000001,659.3600501000001,659.8607265999999,659.8437763000002,659.8582649,659.8607265999999,659.8607265999999,659.8607265999999,660.9273563999996,Scenes\105a.jpg,mid,n,1.0574188999999024,None,,,,,,,,00053,001,2026-01-25_15h25.49.781,MST_test,2024.2.0,60.04192126994873,2026-01-25 15h26.04.320780 +0530,
121,0,122,n,1.0345328000003065,None,122,0,121,660.943217,,,,,,,,,,,,,,,,,,,,,,,,,,,,,,,,,,,,,,,,,,,,,,,,,,660.9277392000004,660.943217,661.4758180999997,661.4270381000006,661.4730438999995,661.4758180999997,661.4758180999997,661.4758180999997,662.5111754999998,Scenes\188b.jpg,mid,n,1.0345328000003065,None,,,,,,,,00053,001,2026-01-25_15h25.49.781,MST_test,2024.2.0,60.04192126994873,2026-01-25 15h26.04.320780 +0530,
122,0,123,s,2.5703207999995357,None,123,0,122,662.5268531000002,,,,,,,,,,,,,,,,,,,,,,,,,,,,,,,,,,,,,,,,,,,,,,,,,,662.5115286,662.5268531000002,663.0272700000005,663.0101102999997,663.0175706999999,663.0272700000005,663.0272700000005,663.0272700000005,665.6106049999999,Scenes\033a.jpg,pre,s,2.5703207999995357,None,,,,,,,,00053,001,2026-01-25_15h25.49.781,MST_test,2024.2.0,60.04192126994873,2026-01-25 15h26.04.320780 +0530,
123,0,124,n,2.247085999999399,None,124,0,123,665.6267143999994,,,,,,,,,,,,,,,,,,,,,,,,,,,,,,,,,,,,,,,,,,,,,,,,,,665.6109849000004,665.6267143999994,666.1270937000008,666.1102499000008,666.1169515000001,666.1270937000008,666.1270937000008,666.1270937000008,668.3774020000001,Foils\scenes16.jpg,none,n,2.247085999999399,None,,,,,,,,00053,001,2026-01-25_15h25.49.781,MST_test,2024.2.0,60.04192126994873,2026-01-25 15h26.04.320780 +0530,
124,0,125,o,6.4327668999994785,None,125,0,124,668.3933094000004,,,,,,,,,,,,,,,,,,,,,,,,,,,,,,,,,,,,,,,,,,,,,,,,,,668.3777573999996,668.3933094000004,668.893199099999,668.8772279999994,668.8890754000004,668.893199099999,668.893199099999,668.893199099999,675.3275474000002,Objects\190a.jpg,pre,o,6.4327668999994785,None,,,,,,,,00053,001,2026-01-25_15h25.49.781,MST_test,2024.2.0,60.04192126994873,2026-01-25 15h26.04.320780 +0530,
125,0,126,n,1.0980613000010635,None,126,0,125,675.3431385999993,,,,,,,,,,,,,,,,,,,,,,,,,,,,,,,,,,,,,,,,,,,,,,,,,,675.3280302000003,675.3431385999993,675.8435651,675.8271179000003,675.8358079999998,675.8435651,675.8435651,675.8435651,676.9436413999993,Foils\093b.jpg,none,n,1.0980613000010635,None,,,,,,,,00053,001,2026-01-25_15h25.49.781,MST_test,2024.2.0,60.04192126994873,2026-01-25 15h26.04.320780 +0530,
126,0,127,s,1.8657074999991892,None,127,0,126,676.9600608000001,,,,,,,,,,,,,,,,,,,,,,,,,,,,,,,,,,,,,,,,,,,,,,,,,,676.9440269000006,676.9600608000001,677.4602474000003,677.4434139999994,677.4573003999994,677.4602474000003,677.4602474000003,677.4602474000003,679.3273511999996,Scenes\004b.jpg,pre,s,1.8657074999991892,None,,,,,,,,00053,001,2026-01-25_15h25.49.781,MST_test,2024.2.0,60.04192126994873,2026-01-25 15h26.04.320780 +0530,
127,0,128,n,1.3966576000002533,None,128,0,127,679.3431419000008,,,,,,,,,,,,,,,,,,,,,,,,,,,,,,,,,,,,,,,,,,,,,,,,,,679.3276996000004,679.3431419000008,679.8730254000002,679.8271096999997,679.8704780999997,679.8730254000002,679.8730254000002,679.8730254000002,681.2772359999999,Scenes\137b.jpg,pre,n,1.3966576000002533,None,,,,,,,,00053,001,2026-01-25_15h25.49.781,MST_test,2024.2.0,60.04192126994873,2026-01-25 15h26.04.320780 +0530,
128,0,129,s,2.5959665999998833,None,129,0,128,681.2931544000003,,,,,,,,,,,,,,,,,,,,,,,,,,,,,,,,,,,,,,,,,,,,,,,,,,681.2775882999995,681.2931544000003,681.7935835999997,681.7771300000004,681.7880389000002,681.7935835999997,681.7935835999997,681.7935835999997,684.3950093000003,Objects\014a.jpg,pre,s,2.5959665999998833,None,,,,,,,,00053,001,2026-01-25_15h25.49.781,MST_test,2024.2.0,60.04192126994873,2026-01-25 15h26.04.320780 +0530,
129,0,130,n,3.2960189999994327,None,130,0,129,684.4100486999996,,,,,,,,,,,,,,,,,,,,,,,,,,,,,,,,,,,,,,,,,,,,,,,,,,684.3953679999995,684.4100486999996,684.9494555000001,684.8933347999991,684.9470003000006,684.9494555000001,684.9494555000001,684.9494555000001,688.2607902,Objects\050b.jpg,post,n,3.2960189999994327,None,,,,,,,,00053,001,2026-01-25_15h25.49.781,MST_test,2024.2.0,60.04192126994873,2026-01-25 15h26.04.320780 +0530,
130,0,131,n,2.2842665999996825,None,131,0,130,688.2767459000006,,,,,,,,,,,,,,,,,,,,,,,,,,,,,,,,,,,,,,,,,,,,,,,,,,688.2611562999991,688.2767459000006,688.7771895000005,688.760412399999,688.7719754999998,688.7771895000005,688.7771895000005,688.7771895000005,691.0787204000007,Scenes\097b.jpg,pre,n,2.2842665999996825,None,,,,,,,,00053,001,2026-01-25_15h25.49.781,MST_test,2024.2.0,60.04192126994873,2026-01-25 15h26.04.320780 +0530,
131,0,132,o,2.2280993000003946,None,132,0,131,691.0934133999999,,,,,,,,,,,,,,,,,,,,,,,,,,,,,,,,,,,,,,,,,,,,,,,,,,691.0791040999993,691.0934133999999,691.5935549000005,691.5771595000006,691.5905430000003,691.5935549000005,691.5935549000005,691.5935549000005,693.8279817000002,Scenes\166a.jpg,mid,o,2.2280993000003946,None,,,,,,,,00053,001,2026-01-25_15h25.49.781,MST_test,2024.2.0,60.04192126994873,2026-01-25 15h26.04.320780 +0530,
132,0,133,n,1.2541572999998607,None,133,0,132,693.8431127000003,,,,,,,,,,,,,,,,,,,,,,,,,,,,,,,,,,,,,,,,,,,,,,,,,,693.8283374999992,693.8431127000003,694.3439431000006,694.3271666,694.3349213999991,694.3439431000006,694.3439431000006,694.3439431000006,695.6106830000008,Foils\scenes29.jpg,none,n,1.2541572999998607,None,,,,,,,,00053,001,2026-01-25_15h25.49.781,MST_test,2024.2.0,60.04192126994873,2026-01-25 15h26.04.320780 +0530,
133,0,134,n,1.9271440000011353,None,134,0,133,695.626456,,,,,,,,,,,,,,,,,,,,,,,,,,,,,,,,,,,,,,,,,,,,,,,,,,695.6110348000002,695.626456,696.1269171999993,696.1104211999991,696.1197100000009,696.1269171999993,696.1269171999993,696.1269171999993,698.0606819999994,Foils\020b.jpg,none,n,1.9271440000011353,None,,,,,,,,00053,001,2026-01-25_15h25.49.781,MST_test,2024.2.0,60.04192126994873,2026-01-25 15h26.04.320780 +0530,
134,0,135,n,0.9708638000010978,None,135,0,134,698.0774130999998,,,,,,,,,,,,,,,,,,,,,,,,,,,,,,,,,,,,,,,,,,,,,,,,,,698.0610297000003,698.0774130999998,698.6188671,698.5604134000005,698.6163434999999,698.6188671,698.6188671,698.6188671,699.5940859000002,Scenes\162b.jpg,pre,n,0.9708638000010978,None,,,,,,,,00053,001,2026-01-25_15h25.49.781,MST_test,2024.2.0,60.04192126994873,2026-01-25 15h26.04.320780 +0530,
135,0,136,n,1.831262900001093,None,136,0,135,699.6100836999994,,,,,,,,,,,,,,,,,,,,,,,,,,,,,,,,,,,,,,,,,,,,,,,,,,699.5944366999993,699.6100836999994,700.1102365000006,700.0938141999995,700.1044005999993,700.1102365000006,700.1102365000006,700.1102365000006,701.9437746999993,Foils\scenes17.jpg,none,n,1.831262900001093,None,,,,,,,,00053,001,2026-01-25_15h25.49.781,MST_test,2024.2.0,60.04192126994873,2026-01-25 15h26.04.320780 +0530,
136,0,137,n,2.5532648999997036,None,137,0,136,701.9600023999992,,,,,,,,,,,,,,,,,,,,,,,,,,,,,,,,,,,,,,,,,,,,,,,,,,701.9441258999996,701.9600023999992,702.4922203999995,702.4437612000002,702.4896506999994,702.4922203999995,702.4922203999995,702.4922203999995,705.0606958000008,Scenes\026b.jpg,pre,n,2.5532648999997036,None,,,,,,,,00053,001,2026-01-25_15h25.49.781,MST_test,2024.2.0,60.04192126994873,2026-01-25 15h26.04.320780 +0530,
137,0,138,n,3.15823139999884,None,138,0,137,705.0773272999995,,,,,,,,,,,,,,,,,,,,,,,,,,,,,,,,,,,,,,,,,,,,,,,,,,705.0610536000004,705.0773272999995,705.5839126999999,705.5604858000006,705.5813555999994,705.5839126999999,705.5839126999999,705.5839126999999,708.7437105999998,Scenes\174b.jpg,mid,n,3.15823139999884,None,,,,,,,,00053,001,2026-01-25_15h25.49.781,MST_test,2024.2.0,60.04192126994873,2026-01-25 15h26.04.320780 +0530,
138,0,139,n,1.497508899999957,None,139,0,138,708.7599602999999,,,,,,,,,,,,,,,,,,,,,,,,,,,,,,,,,,,,,,,,,,,,,,,,,,708.744079,708.7599602999999,709.2759781999994,709.2434424999992,709.2732624,709.2759781999994,709.2759781999994,709.2759781999994,710.7770760999992,Objects\024b.jpg,post,n,1.497508899999957,None,,,,,,,,00053,001,2026-01-25_15h25.49.781,MST_test,2024.2.0,60.04192126994873,2026-01-25 15h26.04.320780 +0530,
139,0,140,n,6.9797273999993195,None,140,0,139,710.7931934999997,,,,,,,,,,,,,,,,,,,,,,,,,,,,,,,,,,,,,,,,,,,,,,,,,,710.7774430999998,710.7931934999997,711.2977061999991,711.2770044000008,711.2952495999998,711.2977061999991,711.2977061999991,711.2977061999991,718.2940211000005,Scenes\050a.jpg,post,n,6.9797273999993195,None,,,,,,,,00053,001,2026-01-25_15h25.49.781,MST_test,2024.2.0,60.04192126994873,2026-01-25 15h26.04.320780 +0530,
140,0,141,s,2.274868599999536,None,141,0,140,718.3101155999993,,,,,,,,,,,,,,,,,,,,,,,,,,,,,,,,,,,,,,,,,,,,,,,,,,718.2943694999994,718.3101155999993,718.8108563000005,718.7937712000003,718.8035147999999,718.8108563000005,718.8108563000005,718.8108563000005,721.0938136999994,Objects\121a.jpg,mid,s,2.274868599999536,None,,,,,,,,00053,001,2026-01-25_15h25.49.781,MST_test,2024.2.0,60.04192126994873,2026-01-25 15h26.04.320780 +0530,
141,0,142,s,1.7555009000006976,None,142,0,141,721.1101010999992,,,,,,,,,,,,,,,,,,,,,,,,,,,,,,,,,,,,,,,,,,,,,,,,,,721.0941951000004,721.1101010999992,721.6101710999992,721.5937355999995,721.6019051000003,721.6101710999992,721.6101710999992,721.6101710999992,723.3773318999993,Objects\057a.jpg,pre,s,1.7555009000006976,None,,,,,,,,00053,001,2026-01-25_15h25.49.781,MST_test,2024.2.0,60.04192126994873,2026-01-25 15h26.04.320780 +0530,
142,0,143,o,2.048118799999429,None,143,0,142,723.3932917000002,,,,,,,,,,,,,,,,,,,,,,,,,,,,,,,,,,,,,,,,,,,,,,,,,,723.3776892000005,723.3932917000002,,723.8779068000003,723.8868280000006,723.8936448000004,723.8936448000004,723.8936448000004,725.9436155999992,Objects\008a.jpg,pre,o,2.048118799999429,None,,,,,,,,00053,001,2026-01-25_15h25.49.781,MST_test,2024.2.0,60.04192126994873,2026-01-25 15h26.04.320780 +0530,
143,0,144,o,3.2410803999991913,None,144,0,143,725.9599670999996,,,,,,,,,,,,,,,,,,,,,,,,,,,,,,,,,,,,,,,,,,,,,,,,,,725.9439824000001,725.9599670999996,726.4603829999996,726.4431492999993,726.4479960999997,726.4603829999996,726.4603829999996,726.4603829999996,729.7104770000005,Objects\054a.jpg,pre,o,3.2410803999991913,None,,,,,,,,00053,001,2026-01-25_15h25.49.781,MST_test,2024.2.0,60.04192126994873,2026-01-25 15h26.04.320780 +0530,
144,0,145,o,2.484458500000983,None,145,0,144,729.7265434000001,,,,,,,,,,,,,,,,,,,,,,,,,,,,,,,,,,,,,,,,,,,,,,,,,,729.7108372000002,729.7265434000001,730.2656320999995,730.2105324000004,730.2623377,730.2656320999995,730.2656320999995,730.2656320999995,732.7607298000003,Scenes\022b.jpg,mid,o,2.484458500000983,None,,,,,,,,00053,001,2026-01-25_15h25.49.781,MST_test,2024.2.0,60.04192126994873,2026-01-25 15h26.04.320780 +0530,
145,0,146,n,1.3003447000010055,None,146,0,145,732.7768101999991,,,,,,,,,,,,,,,,,,,,,,,,,,,,,,,,,,,,,,,,,,,,,,,,,,732.7610860999994,732.7768101999991,733.2817727999991,733.2607355,733.2789747999996,733.2817727999991,733.2817727999991,733.2817727999991,734.5939168000004,Foils\002a.jpg,none,n,1.3003447000010055,None,,,,,,,,00053,001,2026-01-25_15h25.49.781,MST_test,2024.2.0,60.04192126994873,2026-01-25 15h26.04.320780 +0530,
146,0,147,o,1.5832428000012442,None,147,0,146,734.6097948000006,,,,,,,,,,,,,,,,,,,,,,,,,,,,,,,,,,,,,,,,,,,,,,,,,,734.5942876000008,734.6097948000006,735.1103531999997,735.0937814000008,735.1077982999996,735.1103531999997,735.1103531999997,735.1103531999997,736.6941984999994,Scenes\111a.jpg,post,o,1.5832428000012442,None,,,,,,,,00053,001,2026-01-25_15h25.49.781,MST_test,2024.2.0,60.04192126994873,2026-01-25 15h26.04.320780 +0530,
147,0,148,n,1.2669906999999512,None,148,0,147,736.7100628000007,,,,,,,,,,,,,,,,,,,,,,,,,,,,,,,,,,,,,,,,,,,,,,,,,,736.6945529999994,736.7100628000007,737.2105296999998,737.1938571999999,737.2081283000007,737.2105296999998,737.2105296999998,737.2105296999998,738.4938624999995,Scenes\175a.jpg,post,n,1.2669906999999512,None,,,,,,,,00053,001,2026-01-25_15h25.49.781,MST_test,2024.2.0,60.04192126994873,2026-01-25 15h26.04.320780 +0530,
148,0,149,s,1.9634436999986065,None,149,0,148,738.5099370999997,,,,,,,,,,,,,,,,,,,,,,,,,,,,,,,,,,,,,,,,,,,,,,,,,,738.4942319999991,738.5099370999997,739.0106708000003,738.9938576000004,739.0032816999992,739.0106708000003,739.0106708000003,739.0106708000003,740.9772541000002,Objects\191a.jpg,mid,s,1.9634436999986065,None,,,,,,,,00053,001,2026-01-25_15h25.49.781,MST_test,2024.2.0,60.04192126994873,2026-01-25 15h26.04.320780 +0530,
149,0,150,o,2.9259816000012506,None,150,0,149,740.9931773000008,,,,,,,,,,,,,,,,,,,,,,,,,,,,,,,,,,,,,,,,,,,,,,,,,,740.9776330999994,740.9931773000008,741.4961801999998,741.4771858000004,741.4938963000004,741.4961801999998,741.4961801999998,741.4961801999998,744.4273152000005,Scenes\170a.jpg,mid,o,2.9259816000012506,None,,,,,,,,00053,001,2026-01-25_15h25.49.781,MST_test,2024.2.0,60.04192126994873,2026-01-25 15h26.04.320780 +0530,
,,,,,,,,,,,,,,,,,,,,,,,,,,,,,,,,,,,,,,,,,,,,,,,,,,,,,,,,,,,,,,,,,,,,,,,,,744.4275498999996,744.4434789000006,744.4434789000006,746.4939995999994,space,2.042671100000007,None,00053,001,2026-01-25_15h25.49.781,MST_test,2024.2.0,60.04192126994873,2026-01-25 15h26.04.320780 +0530,
