Sl_no,image_path,thisN,thisTrialN,thisRepN,key_resp_5.keys,key_resp_7.keys,key_resp_7.rt,key_resp_7.duration,key_resp_5.rt,key_resp_5.duration,key_resp_9.keys,key_resp_8.keys,key_resp_8.rt,key_resp_8.duration,key_resp_9.rt,key_resp_9.duration,practice.thisRepN,practice.thisTrialN,practice.thisN,trials.thisRepN,trials.thisTrialN,trials.thisN,thisRow.t,notes,welcome_page.started,text.started,key_resp.started,welcome_page.stopped,key_resp.keys,key_resp.rt,key_resp.duration,instructions.started,ins.started,key_resp_2.started,instructions.stopped,key_resp_2.keys,key_resp_2.rt,key_resp_2.duration,objects_only_instruction.started,text_3.started,key_resp_3.started,objects_only_instruction.stopped,key_resp_3.keys,key_resp_3.rt,key_resp_3.duration,ISI.started,text_4.started,ISI.stopped,practice_block.started,image.started,text_5.started,key_resp_5.started,practice_block.stopped,practice.key_resp_5.keys,indoor_outdoor.started,text_7.started,key_resp_7.started,indoor_outdoor.stopped,practice.key_resp_7.keys,practice.key_resp_7.rt,practice.key_resp_7.duration,text_4.stopped,practice.key_resp_5.rt,practice.key_resp_5.duration,practice_to_main.started,text_2.started,key_resp_4.started,practice_to_main.stopped,key_resp_4.keys,key_resp_4.rt,key_resp_4.duration,objects.started,image_2.started,text_9.started,key_resp_9.started,objects.stopped,trials.key_resp_9.keys,encoding_task.started,text_8.started,key_resp_8.started,encoding_task.stopped,trials.key_resp_8.keys,trials.key_resp_8.rt,trials.key_resp_8.duration,image_2.stopped,text_9.stopped,key_resp_9.stopped,trials.key_resp_9.rt,trials.key_resp_9.duration,end_experiment.started,text_6.started,key_resp_6.started,end_experiment.stopped,key_resp_6.keys,key_resp_6.rt,key_resp_6.duration,list_of_stimuli,encoding_task_accuracy,participant,session,date,expName,psychopyVersion,frameRate,expStart,
,,,,,,,,,,,,,,,,,,,,,,,,,0.001263199999812059,0.002976699994178489,0.002976699994178489,18.621939199991175,space,18.60682679999445,None,,,,,,,,,,,,,,,,,,,,,,,,,,,,,,,,,,,,,,,,,,,,,,,,,,,,,,,,,,,,,,,,,,,,00050,001,2026-01-25_11h21.39.278,MST_task,2024.2.0,59.872065370619765,2026-01-25 11h21.46.216966 +0530,
,,,,,,,,,,,,,,,,,,,,,,,,,,,,,,,,18.622011100000236,18.635933500001556,18.635933500001556,54.9162948000012,space,36.269822299989755,None,,,,,,,,,,,,,,,,,,,,,,,,,,,,,,,,,,,,,,,,,,,,,,,,,,,,,,,,,,,,,00050,001,2026-01-25_11h21.39.278,MST_task,2024.2.0,59.872065370619765,2026-01-25 11h21.46.216966 +0530,
,,,,,,,,,,,,,,,,,,,,,,,,,,,,,,,,,,,,,,,54.91643689999182,54.94502489999286,54.94502489999286,99.99958859999606,space,45.04896280000685,None,,,,,,,,,,,,,,,,,,,,,,,,,,,,,,,,,,,,,,,,,,,,,,,,,,,,,,00050,001,2026-01-25_11h21.39.278,MST_task,2024.2.0,59.872065370619765,2026-01-25 11h21.46.216966 +0530,
2,practice_images/031a.jpg,0,0,1,None,f,2.7332987999980105,None,,,,,,,,,1,0,0,,,,100.02657689999614,,,,,,,,,,,,,,,,,,,,,,,100.02349279999908,100.02657689999614,100.50022390000231,100.52293150000332,100.55471949999628,100.55471949999628,100.55471949999628,103.51617580000311,None,103.5235154999973,103.5322421000019,103.5322421000019,106.2664489000017,f,2.7332987999980105,None,,,,,,,,,,,,,,,,,,,,,,,,,,,,,,,,,,,,,,00050,001,2026-01-25_11h21.39.278,MST_task,2024.2.0,59.872065370619765,2026-01-25 11h21.46.216966 +0530,
7,practice_images/166a.jpg,1,1,1,f,None,,,2.120950399999856,0.12066630000481382,,,,,,,1,1,1,,,,106.28247560000455,,,,,,,,,,,,,,,,,,,,,,,106.26679500000319,106.28247560000455,106.7661603000015,106.78164590000233,106.78477379999822,106.78477379999822,106.78477379999822,109.78285489999689,f,109.78305399999954,,,109.7831262999971,None,,,106.78477379999822,2.120950399999856,0.12066630000481382,,,,,,,,,,,,,,,,,,,,,,,,,,,,,,,,,,,00050,001,2026-01-25_11h21.39.278,MST_task,2024.2.0,59.872065370619765,2026-01-25 11h21.46.216966 +0530,
9,practice_images/180a.jpg,2,2,1,f,None,,,1.8033762000122806,0.14432739999028854,,,,,,,1,2,2,,,,109.79885249999643,,,,,,,,,,,,,,,,,,,,,,,109.7834104999929,109.79885249999643,110.28256609999517,110.29897279999568,110.30217709999124,110.30217709999124,110.30217709999124,113.29946490000293,f,113.29966969999077,,,113.29974629999197,None,,,110.30217709999124,1.8033762000122806,0.14432739999028854,,,,,,,,,,,,,,,,,,,,,,,,,,,,,,,,,,,00050,001,2026-01-25_11h21.39.278,MST_task,2024.2.0,59.872065370619765,2026-01-25 11h21.46.216966 +0530,
3,practice_images/037a.jpg,3,3,1,None,f,0.21752190000552218,None,,,,,,,,,1,3,3,,,,113.3158059999987,,,,,,,,,,,,,,,,,,,,,,,113.30006959999446,113.3158059999987,113.79944419999083,113.81544399999257,113.81855759999598,113.81855759999598,113.81855759999598,116.81620010000188,None,116.81637479999335,116.83228419999068,116.83228419999068,117.06634449999547,f,0.21752190000552218,None,113.81855759999598,,,,,,,,,,,,,,,,,,,,,,,,,,,,,,,,,,,,,00050,001,2026-01-25_11h21.39.278,MST_task,2024.2.0,59.872065370619765,2026-01-25 11h21.46.216966 +0530,
1,practice_images/013a.jpg,4,4,1,j,None,,,1.0360707999934675,0.14456780000182334,,,,,,,1,4,4,,,,117.08213619999879,,,,,,,,,,,,,,,,,,,,,,,117.06667459999153,117.08213619999879,117.56618909999088,117.5861498000013,117.58970009999757,117.58970009999757,117.58970009999757,120.58283440000378,j,120.58303470000101,,,120.58310799999163,None,,,117.58970009999757,1.0360707999934675,0.14456780000182334,,,,,,,,,,,,,,,,,,,,,,,,,,,,,,,,,,,00050,001,2026-01-25_11h21.39.278,MST_task,2024.2.0,59.872065370619765,2026-01-25 11h21.46.216966 +0530,
10,practice_images/182a.jpg,5,5,1,None,f,0.4462792999984231,None,,,,,,,,,1,5,5,,,,120.5990552000003,,,,,,,,,,,,,,,,,,,,,,,120.58339060000435,120.5990552000003,121.08287389999896,121.0984438000014,121.10164829999849,121.10164829999849,121.10164829999849,124.09914009999193,None,124.09933739999542,124.11549280000327,124.11549280000327,124.56609779999417,f,0.4462792999984231,None,121.10164829999849,,,,,,,,,,,,,,,,,,,,,,,,,,,,,,,,,,,,,00050,001,2026-01-25_11h21.39.278,MST_task,2024.2.0,59.872065370619765,2026-01-25 11h21.46.216966 +0530,
8,practice_images/178a.jpg,6,6,1,j,None,,,1.6932450999884168,0.12024290001136251,,,,,,,1,6,6,,,,124.5821358999965,,,,,,,,,,,,,,,,,,,,,,,124.56643310000072,124.5821358999965,125.06617890000052,125.08188289999089,125.08490069999243,125.08490069999243,125.08490069999243,128.08263710000028,j,128.08283079999092,,,128.0829015999916,None,,,125.08490069999243,1.6932450999884168,0.12024290001136251,,,,,,,,,,,,,,,,,,,,,,,,,,,,,,,,,,,00050,001,2026-01-25_11h21.39.278,MST_task,2024.2.0,59.872065370619765,2026-01-25 11h21.46.216966 +0530,
5,practice_images/139a.jpg,7,7,1,None,j,0.5300450999930035,None,,,,,,,,,1,7,7,,,,128.09892239999317,,,,,,,,,,,,,,,,,,,,,,,128.08318149999832,128.09892239999317,128.58241029999044,128.6010135999968,128.60397589999775,128.60397589999775,128.60397589999775,131.59945599999628,None,131.5996285000001,131.61568499999703,131.61568499999703,132.1495702999964,j,0.5300450999930035,None,128.60397589999775,,,,,,,,,,,,,,,,,,,,,,,,,,,,,,,,,,,,,00050,001,2026-01-25_11h21.39.278,MST_task,2024.2.0,59.872065370619765,2026-01-25 11h21.46.216966 +0530,
6,practice_images/158a.jpg,8,8,1,None,j,0.43107679999957327,None,,,,,,,,,1,8,8,,,,132.165485599995,,,,,,,,,,,,,,,,,,,,,,,132.14990960000432,132.165485599995,132.64933269999165,132.6657559000014,132.66795380000258,132.66795380000258,132.66795380000258,135.66617869999027,None,135.66635600000154,135.6826796999958,135.6826796999958,136.1163719000033,j,0.43107679999957327,None,132.66795380000258,,,,,,,,,,,,,,,,,,,,,,,,,,,,,,,,,,,,,00050,001,2026-01-25_11h21.39.278,MST_task,2024.2.0,59.872065370619765,2026-01-25 11h21.46.216966 +0530,
4,practice_images/002b.jpg,9,9,1,None,f,1.4650664999935543,None,,,,,,,,,1,9,9,,,,136.1324556000036,,,,,,,,,,,,,,,,,,,,,,,136.11671980000392,136.1324556000036,136.61607920000097,136.63295919999655,136.63502299999527,136.63502299999527,136.63502299999527,139.63284269999713,None,139.63303769999766,139.6490511000011,139.6490511000011,141.11595409999427,f,1.4650664999935543,None,136.63502299999527,,,,,,,,,,,,,,,,,,,,,,,,,,,,,,,,,,,,,00050,001,2026-01-25_11h21.39.278,MST_task,2024.2.0,59.872065370619765,2026-01-25 11h21.46.216966 +0530,
,,,,,,,,,,,,,,,,,,,,,,,,,,,,,,,,,,,,,,,,,,,,,,,,,,,,,,,,,,,,,,,,,141.1161934999982,141.13225850000163,141.13225850000163,164.0328865999909,space,22.893488800007617,None,,,,,,,,,,,,,,,,,,,,,,,,,,,,00050,001,2026-01-25_11h21.39.278,MST_task,2024.2.0,59.872065370619765,2026-01-25 11h21.46.216966 +0530,
,Scenes\165a.jpg,0,0,1,,,,,,,None,j,0.10807930000009947,None,,,,,,1,0,0,164.0488527999987,,,,,,,,,,,,,,,,,,,,,,,164.03620349999983,164.0488527999987,164.5326567000011,,,,,,,,,,,,,,164.5533102000045,,,,,,,,,,164.54767639999045,164.5533102000045,164.5533102000045,164.5533102000045,167.54945350000344,None,167.55618349999713,167.5658553999965,167.5658553999965,167.68296999999438,j,0.10807930000009947,None,,,,,,,,,,,,,,,00050,001,2026-01-25_11h21.39.278,MST_task,2024.2.0,59.872065370619765,2026-01-25 11h21.46.216966 +0530,
,Scenes\041a.jpg,1,0,2,,,,,,,None,j,0.4496374000009382,None,,,,,,2,0,1,167.6990550000046,,,,,,,,,,,,,,,,,,,,,,,167.6833173999912,167.6990550000046,168.18374120000226,,,,,,,,,,,,,,,,,,,,,,,,168.19821550000052,168.20086670000455,168.20086670000455,168.20086670000455,171.19914299999073,None,171.19932519999566,171.21579889999703,171.21579889999703,171.66684689999965,j,0.4496374000009382,None,,,,,,,,,,,,,,,00050,001,2026-01-25_11h21.39.278,MST_task,2024.2.0,59.872065370619765,2026-01-25 11h21.46.216966 +0530,
,Scenes\137a.jpg,2,0,3,,,,,,,None,j,0.47501770000963006,None,,,,,,3,0,2,171.6824515000044,,,,,,,,,,,,,,,,,,,,,,,171.66721800000232,171.6824515000044,172.16588050000428,,,,,,,,,,,,,,172.19305030000396,,,,,,,,,,172.190419999999,172.19305030000396,172.19305030000396,172.19305030000396,175.1826352999924,None,175.18282629999158,175.1990569000045,175.1990569000045,175.68274619999283,j,0.47501770000963006,None,,,,,,,,,,,,,,,00050,001,2026-01-25_11h21.39.278,MST_task,2024.2.0,59.872065370619765,2026-01-25 11h21.46.216966 +0530,
,Scenes\153a.jpg,3,0,4,,,,,,,None,j,0.4742588000081014,None,,,,,,4,0,3,175.69860590000462,,,,,,,,,,,,,,,,,,,,,,,175.68319419999898,175.69860590000462,176.18269499999587,,,,,,,,,,,,,,176.21466719999444,,,,,,,,,,176.21162459999323,176.21466719999444,176.21466719999444,176.21466719999444,179.19945889999508,None,179.19965159999265,179.2158111000026,179.2158111000026,179.69956969999475,j,0.4742588000081014,None,,,,,,,,,,,,,,,00050,001,2026-01-25_11h21.39.278,MST_task,2024.2.0,59.872065370619765,2026-01-25 11h21.46.216966 +0530,
,Scenes\042a.jpg,4,0,5,,,,,,,None,j,0.43428459999267943,None,,,,,,5,0,4,179.7158022999938,,,,,,,,,,,,,,,,,,,,,,,179.70008759999473,179.7158022999938,180.19944759999635,,,,,,,,,,,,,,180.21603589999722,,,,,,,,,,180.21166119999543,180.21603589999722,180.21603589999722,180.21603589999722,183.20032419999188,None,183.2005330999964,183.2155083999969,183.2155083999969,183.6663172999979,j,0.43428459999267943,None,183.2155083999969,183.2155083999969,183.2155083999969,,,,,,,,,,,,00050,001,2026-01-25_11h21.39.278,MST_task,2024.2.0,59.872065370619765,2026-01-25 11h21.46.216966 +0530,
,Scenes\015a.jpg,5,0,6,,,,,,,None,j,0.5549967999977525,None,,,,,,6,0,5,183.68234959999972,,,,,,,,,,,,,,,,,,,,,,,183.666656100002,183.68234959999972,184.16657390000182,,,,,,,,,,,,,,,,,,,,,,,,184.1824137999938,184.18531159999839,184.18531159999839,184.18531159999839,187.18285529999412,None,187.18304350000108,187.19907960000273,187.19907960000273,187.76632059999974,j,0.5549967999977525,None,,,,,,,,,,,,,,,00050,001,2026-01-25_11h21.39.278,MST_task,2024.2.0,59.872065370619765,2026-01-25 11h21.46.216966 +0530,
,Scenes\004a.jpg,6,0,7,,,,,,,None,j,0.703743799997028,None,,,,,,7,0,6,187.78247839999676,,,,,,,,,,,,,,,,,,,,,,,187.76683680000133,187.78247839999676,188.26620289999119,,,,,,,,,,,,,,188.305747099992,,,,,,,,,,188.30289099999936,188.305747099992,188.305747099992,188.305747099992,191.26685759999964,None,191.2670352999994,191.2823184000008,191.2823184000008,191.99924509999983,j,0.703743799997028,None,,,,,,,,,,,,,,,00050,001,2026-01-25_11h21.39.278,MST_task,2024.2.0,59.872065370619765,2026-01-25 11h21.46.216966 +0530,
,Objects\130a.jpg,7,0,8,,,,,,,None,f,0.5172084999940125,None,,,,,,8,0,7,192.01579969999148,,,,,,,,,,,,,,,,,,,,,,,191.99970990000293,192.01579969999148,192.49947239999892,,,,,,,,,,,,,,192.5183066000027,,,,,,,,,,192.5138799999986,192.5183066000027,192.5183066000027,192.5183066000027,195.51617950000218,None,195.5163603999972,195.53249399999913,195.53249399999913,196.06624669999292,f,0.5172084999940125,None,,,,,,,,,,,,,,,00050,001,2026-01-25_11h21.39.278,MST_task,2024.2.0,59.872065370619765,2026-01-25 11h21.46.216966 +0530,
,Objects\151a.jpg,8,0,9,,,,,,,None,f,1.307576400009566,None,,,,,,9,0,8,196.08245980000356,,,,,,,,,,,,,,,,,,,,,,,196.0665883000038,196.08245980000356,196.56595730000117,,,,,,,,,,,,,,196.58246989999316,,,,,,,,,,196.57426169999235,196.58246989999316,196.58246989999316,196.58246989999316,199.56699619999563,None,199.5671841000003,199.5824791999912,199.5824791999912,200.89958489999117,f,1.307576400009566,None,199.5824791999912,199.5824791999912,199.5824791999912,,,,,,,,,,,,00050,001,2026-01-25_11h21.39.278,MST_task,2024.2.0,59.872065370619765,2026-01-25 11h21.46.216966 +0530,
,Objects\076a.jpg,9,0,10,,,,,,,None,j,0.7613732000027085,None,,,,,,10,0,9,200.91579640000418,,,,,,,,,,,,,,,,,,,,,,,200.89993379999942,200.91579640000418,201.39981689999695,,,,,,,,,,,,,,,,,,,,,,,,201.4222812999942,201.42454209999414,201.42454209999414,201.42454209999414,204.41609060000337,None,204.4162944999989,204.43230349999794,204.43230349999794,205.1995700999978,j,0.7613732000027085,None,,,,,,,,,,,,,,,00050,001,2026-01-25_11h21.39.278,MST_task,2024.2.0,59.872065370619765,2026-01-25 11h21.46.216966 +0530,
,Objects\036a.jpg,10,0,11,,,,,,,None,f,0.6302242999954615,None,,,,,,11,0,10,205.2158047999983,,,,,,,,,,,,,,,,,,,,,,,205.2000404999999,205.2158047999983,205.6994713000022,,,,,,,,,,,,,,205.71604729999672,,,,,,,,,,205.70651540000108,205.71604729999672,205.71604729999672,205.71604729999672,208.7002685000043,None,208.70045190000383,208.7158092000027,208.7158092000027,209.34928310000396,f,0.6302242999954615,None,208.7158092000027,208.7158092000027,208.7158092000027,,,,,,,,,,,,00050,001,2026-01-25_11h21.39.278,MST_task,2024.2.0,59.872065370619765,2026-01-25 11h21.46.216966 +0530,
,Objects\137a.jpg,11,0,12,,,,,,,None,f,0.8236694999941392,None,,,,,,12,0,11,209.36577609999222,,,,,,,,,,,,,,,,,,,,,,,209.34962280000036,209.36577609999222,209.8494548000017,,,,,,,,,,,,,,209.86603350000223,,,,,,,,,,209.85790950000228,209.86603350000223,209.86603350000223,209.86603350000223,212.85020939999959,None,212.85040159999335,212.86579090000305,212.86579090000305,213.69957339999382,f,0.8236694999941392,None,212.86579090000305,212.86579090000305,212.86579090000305,,,,,,,,,,,,00050,001,2026-01-25_11h21.39.278,MST_task,2024.2.0,59.872065370619765,2026-01-25 11h21.46.216966 +0530,
,Objects\131a.jpg,12,0,13,,,,,,,None,f,0.7215819999983069,None,,,,,,13,0,12,213.71579889999703,,,,,,,,,,,,,,,,,,,,,,,213.6999106000003,213.71579889999703,214.19948799999838,,,,,,,,,,,,,,214.22013659999357,,,,,,,,,,214.21789810000337,214.22013659999357,214.22013659999357,214.22013659999357,217.21618879999733,None,217.21637439999904,217.2324760999909,217.2324760999909,217.96605229999113,f,0.7215819999983069,None,,,,,,,,,,,,,,,00050,001,2026-01-25_11h21.39.278,MST_task,2024.2.0,59.872065370619765,2026-01-25 11h21.46.216966 +0530,
,Objects\122a.jpg,13,0,14,,,,,,,None,f,2.8950846000079764,None,,,,,,14,0,13,217.98236909999105,,,,,,,,,,,,,,,,,,,,,,,217.96641850000015,217.98236909999105,218.4661913000018,,,,,,,,,,,,,,218.48270330000378,,,,,,,,,,218.47546699999657,218.48270330000378,218.48270330000378,218.48270330000378,221.46632969999337,None,221.4665035999933,221.48234859999502,221.48234859999502,224.38273529999424,f,2.8950846000079764,None,,,,,,,,,,,,,,,00050,001,2026-01-25_11h21.39.278,MST_task,2024.2.0,59.872065370619765,2026-01-25 11h21.46.216966 +0530,
,Scenes\125a.jpg,14,0,15,,,,,,,None,j,0.5738314000045648,None,,,,,,15,0,14,224.39905959999305,,,,,,,,,,,,,,,,,,,,,,,224.3831024999963,224.39905959999305,224.8828582999995,,,,,,,,,,,,,,224.9132113999949,,,,,,,,,,224.9106194999913,224.9132113999949,224.9132113999949,224.9132113999949,227.89947469999606,None,227.89965949999169,227.91580259999319,227.91580259999319,228.4995815000002,j,0.5738314000045648,None,,,,,,,,,,,,,,,00050,001,2026-01-25_11h21.39.278,MST_task,2024.2.0,59.872065370619765,2026-01-25 11h21.46.216966 +0530,
,Scenes\159a.jpg,15,0,16,,,,,,,None,j,0.47357580000243615,None,,,,,,16,0,15,228.51568329999282,,,,,,,,,,,,,,,,,,,,,,,228.50003509999078,228.51568329999282,228.99947369999427,,,,,,,,,,,,,,229.0308107000019,,,,,,,,,,229.0279695999925,229.0308107000019,229.0308107000019,229.0308107000019,232.0160465999943,None,232.01622379999026,232.03249230000074,232.03249230000074,232.51630170000135,j,0.47357580000243615,None,,,,,,,,,,,,,,,00050,001,2026-01-25_11h21.39.278,MST_task,2024.2.0,59.872065370619765,2026-01-25 11h21.46.216966 +0530,
,Scenes\079a.jpg,16,0,17,,,,,,,None,j,0.43301619999692775,None,,,,,,17,0,16,232.53246879999642,,,,,,,,,,,,,,,,,,,,,,,232.51675409999734,232.53246879999642,233.01618489999964,,,,,,,,,,,,,,233.0453383999993,,,,,,,,,,233.04146569999284,233.0453383999993,233.0453383999993,233.0453383999993,236.032864599998,None,236.03304159999243,236.0489319999906,236.0489319999906,236.48316099999647,j,0.43301619999692775,None,,,,,,,,,,,,,,,00050,001,2026-01-25_11h21.39.278,MST_task,2024.2.0,59.872065370619765,2026-01-25 11h21.46.216966 +0530,
,Scenes\050a.jpg,17,0,18,,,,,,,None,j,0.4753969000012148,None,,,,,,18,0,17,236.49913159999414,,,,,,,,,,,,,,,,,,,,,,,236.4836370999983,236.49913159999414,236.98286299999745,,,,,,,,,,,,,,236.9994452999963,,,,,,,,,,236.99662289999833,236.9994452999963,236.9994452999963,236.9994452999963,239.98332069999014,None,239.98350149999897,239.99861379999493,239.99861379999493,240.48298739999882,j,0.4753969000012148,None,239.99861379999493,239.99861379999493,239.99861379999493,,,,,,,,,,,,00050,001,2026-01-25_11h21.39.278,MST_task,2024.2.0,59.872065370619765,2026-01-25 11h21.46.216966 +0530,
,Scenes\152a.jpg,18,0,19,,,,,,,None,j,0.4979968999978155,None,,,,,,19,0,18,240.4990625999926,,,,,,,,,,,,,,,,,,,,,,,240.48344270000234,240.4990625999926,240.98310189999756,,,,,,,,,,,,,,241.0024468999909,,,,,,,,,,240.99958560000232,241.0024468999909,241.0024468999909,241.0024468999909,243.99945609999122,None,243.99964189999446,244.01561729999958,244.01561729999958,244.51601959999243,j,0.4979968999978155,None,,,,,,,,,,,,,,,00050,001,2026-01-25_11h21.39.278,MST_task,2024.2.0,59.872065370619765,2026-01-25 11h21.46.216966 +0530,
,Scenes\158a.jpg,19,0,20,,,,,,,None,j,3.4489460999902803,None,,,,,,20,0,19,244.5323270999943,,,,,,,,,,,,,,,,,,,,,,,244.5164683000039,244.5323270999943,245.01621570000134,,,,,,,,,,,,,,245.03608999999415,,,,,,,,,,245.03343490000407,245.03608999999415,245.03608999999415,245.03608999999415,248.03287539999292,None,248.033093799997,248.04909159999806,248.04909159999806,251.4992487999989,j,3.4489460999902803,None,,,,,,,,,,,,,,,00050,001,2026-01-25_11h21.39.278,MST_task,2024.2.0,59.872065370619765,2026-01-25 11h21.46.216966 +0530,
,Scenes\167a.jpg,20,0,21,,,,,,,None,f,1.4812390000006417,None,,,,,,21,0,20,251.51579779999156,,,,,,,,,,,,,,,,,,,,,,,251.49959809999564,251.51579779999156,251.99944200000027,,,,,,,,,,,,,,252.03116070000397,,,,,,,,,,252.02835379999306,252.03116070000397,252.03116070000397,252.03116070000397,255.0156674000027,None,255.01582089999283,255.03208950000408,255.03208950000408,256.5157734999957,f,1.4812390000006417,None,,,,,,,,,,,,,,,00050,001,2026-01-25_11h21.39.278,MST_task,2024.2.0,59.872065370619765,2026-01-25 11h21.46.216966 +0530,
,Objects\172a.jpg,21,0,22,,,,,,,None,j,4.513163900002837,None,,,,,,22,0,21,256.5321041999996,,,,,,,,,,,,,,,,,,,,,,,256.5161994999944,256.5321041999996,257.0161931000039,,,,,,,,,,,,,,257.03301299999293,,,,,,,,,,257.0254630999989,257.03301299999293,257.03301299999293,257.03301299999293,260.01613779999025,None,260.01633969999966,260.03223640000215,260.03223640000215,264.54935549999936,j,4.513163900002837,None,,,,,,,,,,,,,,,00050,001,2026-01-25_11h21.39.278,MST_task,2024.2.0,59.872065370619765,2026-01-25 11h21.46.216966 +0530,
,Objects\035a.jpg,22,0,23,,,,,,,None,f,0.9029729000030784,None,,,,,,23,0,22,264.5658032999927,,,,,,,,,,,,,,,,,,,,,,,264.54981280000356,264.5658032999927,265.04947299999185,,,,,,,,,,,,,,265.0766638999921,,,,,,,,,,265.0739812999964,265.0766638999921,265.0766638999921,265.0766638999921,268.0662023000041,None,268.06638550000207,268.0824900000007,268.0824900000007,268.99958449999394,f,0.9029729000030784,None,,,,,,,,,,,,,,,00050,001,2026-01-25_11h21.39.278,MST_task,2024.2.0,59.872065370619765,2026-01-25 11h21.46.216966 +0530,
,Objects\068a.jpg,23,0,24,,,,,,,None,j,0.7007735000079265,None,,,,,,24,0,23,269.01579979999224,,,,,,,,,,,,,,,,,,,,,,,268.99992360000033,269.01579979999224,269.49960270000156,,,,,,,,,,,,,,269.520346099991,,,,,,,,,,269.51814549999835,269.520346099991,269.520346099991,269.520346099991,272.5161636999983,None,272.5163501999923,272.532486600001,272.532486600001,273.2496125000034,j,0.7007735000079265,None,,,,,,,,,,,,,,,00050,001,2026-01-25_11h21.39.278,MST_task,2024.2.0,59.872065370619765,2026-01-25 11h21.46.216966 +0530,
,Objects\089a.jpg,24,0,25,,,,,,,None,f,0.42807080000056885,None,,,,,,25,0,24,273.265779399997,,,,,,,,,,,,,,,,,,,,,,,273.249960599991,273.265779399997,273.74941129999934,,,,,,,,,,,,,,273.7660249000037,,,,,,,,,,273.755877699994,273.7660249000037,273.7660249000037,273.7660249000037,276.7501869999978,None,276.7503755999933,276.76581139999325,276.76581139999325,277.1994268999988,f,0.42807080000056885,None,276.76581139999325,276.76581139999325,276.76581139999325,,,,,,,,,,,,00050,001,2026-01-25_11h21.39.278,MST_task,2024.2.0,59.872065370619765,2026-01-25 11h21.46.216966 +0530,
,Objects\016a.jpg,25,0,26,,,,,,,None,f,0.48549479999928735,None,,,,,,26,0,25,277.21565080000437,,,,,,,,,,,,,,,,,,,,,,,277.19988190000004,277.21565080000437,277.6994685999962,,,,,,,,,,,,,,277.7160301999975,,,,,,,,,,277.7087243999995,277.7160301999975,277.7160301999975,277.7160301999975,280.69999510000343,None,280.7001769999915,280.71581529999094,280.71581529999094,281.2163253000035,f,0.48549479999928735,None,280.71581529999094,280.71581529999094,280.71581529999094,,,,,,,,,,,,00050,001,2026-01-25_11h21.39.278,MST_task,2024.2.0,59.872065370619765,2026-01-25 11h21.46.216966 +0530,
,Objects\128a.jpg,26,0,27,,,,,,,None,f,5.380939699985902,None,,,,,,27,0,26,281.2324743999925,,,,,,,,,,,,,,,,,,,,,,,281.2168420999951,281.2324743999925,281.7162185999914,,,,,,,,,,,,,,281.7327137999964,,,,,,,,,,281.7254305999959,281.7327137999964,281.7327137999964,281.7327137999964,284.7169637999905,None,284.71713920000184,284.7324754000001,284.7324754000001,290.11601599999995,f,5.380939699985902,None,284.7324754000001,284.7324754000001,284.7324754000001,,,,,,,,,,,,00050,001,2026-01-25_11h21.39.278,MST_task,2024.2.0,59.872065370619765,2026-01-25 11h21.46.216966 +0530,
,Objects\010a.jpg,27,0,28,,,,,,,None,f,1.608775800006697,None,,,,,,28,0,27,290.1322289999953,,,,,,,,,,,,,,,,,,,,,,,290.11619169999904,290.1322289999953,290.6159109,,,,,,,,,,,,,,290.6333115000016,,,,,,,,,,290.62465749999683,290.6333115000016,290.6333115000016,290.6333115000016,293.63250130000233,None,293.63268389999575,293.6486797999969,293.6486797999969,295.266317799993,f,1.608775800006697,None,,,,,,,,,,,,,,,00050,001,2026-01-25_11h21.39.278,MST_task,2024.2.0,59.872065370619765,2026-01-25 11h21.46.216966 +0530,
,Scenes\160a.jpg,28,0,29,,,,,,,None,j,0.6754018000065116,None,,,,,,29,0,28,295.2833332000009,,,,,,,,,,,,,,,,,,,,,,,295.26665669999784,295.2833332000009,295.76607389999845,,,,,,,,,,,,,,295.78319859999465,,,,,,,,,,295.7773215999914,295.78319859999465,295.78319859999465,295.78319859999465,298.7670858999918,None,298.76726579999377,298.7824832000042,298.7824832000042,299.4663273999904,j,0.6754018000065116,None,298.7824832000042,298.7824832000042,298.7824832000042,,,,,,,,,,,,00050,001,2026-01-25_11h21.39.278,MST_task,2024.2.0,59.872065370619765,2026-01-25 11h21.46.216966 +0530,
,Scenes\034a.jpg,29,0,30,,,,,,,None,j,0.6665702000027522,None,,,,,,30,0,29,299.4824665999913,,,,,,,,,,,,,,,,,,,,,,,299.4668328999978,299.4824665999913,299.9662071999919,,,,,,,,,,,,,,299.991723500003,,,,,,,,,,299.98882420000155,299.991723500003,299.991723500003,299.991723500003,302.9829744000017,None,302.9831702999945,302.9988136000029,302.9988136000029,303.6663966999913,j,0.6665702000027522,None,,,,,,,,,,,,,,,00050,001,2026-01-25_11h21.39.278,MST_task,2024.2.0,59.872065370619765,2026-01-25 11h21.46.216966 +0530,
,Scenes\176a.jpg,30,0,31,,,,,,,None,j,1.515217499996652,None,,,,,,31,0,30,303.6824746999919,,,,,,,,,,,,,,,,,,,,,,,303.6668648999912,303.6824746999919,304.1661901000043,,,,,,,,,,,,,,304.1868921999994,,,,,,,,,,304.18400969999493,304.1868921999994,304.1868921999994,304.1868921999994,307.18306559999473,None,307.18325069999264,307.1987623000023,307.1987623000023,308.7160195000033,j,1.515217499996652,None,,,,,,,,,,,,,,,00050,001,2026-01-25_11h21.39.278,MST_task,2024.2.0,59.872065370619765,2026-01-25 11h21.46.216966 +0530,
,Scenes\047a.jpg,31,0,32,,,,,,,None,j,0.6404871999984607,None,,,,,,32,0,31,308.73248669999884,,,,,,,,,,,,,,,,,,,,,,,308.7163620999927,308.73248669999884,309.21621319999394,,,,,,,,,,,,,,309.253472299999,,,,,,,,,,309.25073869999324,309.253472299999,309.253472299999,309.253472299999,312.2327643000026,None,312.23293469999044,312.2488280999969,312.2488280999969,312.89957769999455,j,0.6404871999984607,None,,,,,,,,,,,,,,,00050,001,2026-01-25_11h21.39.278,MST_task,2024.2.0,59.872065370619765,2026-01-25 11h21.46.216966 +0530,
,Scenes\191a.jpg,32,0,33,,,,,,,None,j,0.48168410001380835,None,,,,,,33,0,32,312.9158502999926,,,,,,,,,,,,,,,,,,,,,,,312.90010549999715,312.9158502999926,313.3994842999964,,,,,,,,,,,,,,313.4161500999908,,,,,,,,,,313.413091800001,313.4161500999908,313.4161500999908,313.4161500999908,316.4000728999963,None,316.4002463999932,316.41580239999166,316.41580239999166,316.89919749999535,j,0.48168410001380835,None,316.41580239999166,316.41580239999166,316.41580239999166,,,,,,,,,,,,00050,001,2026-01-25_11h21.39.278,MST_task,2024.2.0,59.872065370619765,2026-01-25 11h21.46.216966 +0530,
,Scenes\107a.jpg,33,0,34,,,,,,,None,j,0.48950300000433344,None,,,,,,34,0,33,316.9156462999963,,,,,,,,,,,,,,,,,,,,,,,316.899534199998,316.9156462999963,317.3994531999924,,,,,,,,,,,,,,317.41675239999313,,,,,,,,,,317.41406480000296,317.41675239999313,317.41675239999313,317.41675239999313,320.3994636999996,None,320.39965289999964,320.4158080999914,320.4158080999914,320.9163506999903,j,0.48950300000433344,None,,,,,,,,,,,,,,,00050,001,2026-01-25_11h21.39.278,MST_task,2024.2.0,59.872065370619765,2026-01-25 11h21.46.216966 +0530,
,Scenes\186a.jpg,34,0,35,,,,,,,None,j,2.008875600004103,None,,,,,,35,0,34,320.9324701000005,,,,,,,,,,,,,,,,,,,,,,,320.9166938999988,320.9324701000005,321.416206599999,,,,,,,,,,,,,,321.4455869999947,,,,,,,,,,321.442779399993,321.4455869999947,321.4455869999947,321.4455869999947,324.43274689999816,None,324.4329499000014,324.4490553999931,324.4490553999931,326.4663319999963,j,2.008875600004103,None,,,,,,,,,,,,,,,00050,001,2026-01-25_11h21.39.278,MST_task,2024.2.0,59.872065370619765,2026-01-25 11h21.46.216966 +0530,
,Objects\037a.jpg,35,0,36,,,,,,,None,j,1.443426100013312,None,,,,,,36,0,35,326.4824915999925,,,,,,,,,,,,,,,,,,,,,,,326.466685899999,326.4824915999925,326.9662997999985,,,,,,,,,,,,,,326.98300890000246,,,,,,,,,,326.97636289999355,326.98300890000246,326.98300890000246,326.98300890000246,329.9670405999932,None,329.9672489999939,329.9824970999907,329.9824970999907,331.43299089999346,j,1.443426100013312,None,329.9824970999907,329.9824970999907,329.9824970999907,,,,,,,,,,,,00050,001,2026-01-25_11h21.39.278,MST_task,2024.2.0,59.872065370619765,2026-01-25 11h21.46.216966 +0530,
,Objects\139a.jpg,36,0,37,,,,,,,None,f,2.5244773000013083,None,,,,,,37,0,36,331.4490772999998,,,,,,,,,,,,,,,,,,,,,,,331.43355139999767,331.4490772999998,331.93287730000156,,,,,,,,,,,,,,331.9553930999973,,,,,,,,,,331.9525893999962,331.9553930999973,331.9553930999973,331.9553930999973,334.9489130000002,None,334.94904049999604,334.9654712999909,334.9654712999909,337.49961669999175,f,2.5244773000013083,None,,,,,,,,,,,,,,,00050,001,2026-01-25_11h21.39.278,MST_task,2024.2.0,59.872065370619765,2026-01-25 11h21.46.216966 +0530,
,Objects\096a.jpg,37,0,38,,,,,,,None,f,0.4340978999971412,None,,,,,,38,0,37,337.5158037999936,,,,,,,,,,,,,,,,,,,,,,,337.49996469999314,337.5158037999936,337.9993606999924,,,,,,,,,,,,,,338.01623649999965,,,,,,,,,,338.00844429999415,338.01623649999965,338.01623649999965,338.01623649999965,341.00024880000274,None,341.0004243000003,341.0157005999936,341.0157005999936,341.4661393999995,f,0.4340978999971412,None,341.0157005999936,341.0157005999936,341.0157005999936,,,,,,,,,,,,00050,001,2026-01-25_11h21.39.278,MST_task,2024.2.0,59.872065370619765,2026-01-25 11h21.46.216966 +0530,
,Objects\162a.jpg,38,0,39,,,,,,,None,f,0.31505570000445005,None,,,,,,39,0,38,341.4824365999957,,,,,,,,,,,,,,,,,,,,,,,341.4665079999977,341.4824365999957,341.96621060000325,,,,,,,,,,,,,,341.9889772000024,,,,,,,,,,341.98632989999896,341.9889772000024,341.9889772000024,341.9889772000024,344.98266039999726,None,344.9828482000012,344.9988766000024,344.9988766000024,345.3163286999916,f,0.31505570000445005,None,,,,,,,,,,,,,,,00050,001,2026-01-25_11h21.39.278,MST_task,2024.2.0,59.872065370619765,2026-01-25 11h21.46.216966 +0530,
,Objects\152a.jpg,39,0,40,,,,,,,None,j,1.2484237999888137,None,,,,,,40,0,39,345.3321974999999,,,,,,,,,,,,,,,,,,,,,,,345.3166724000039,345.3321974999999,345.8162309000036,,,,,,,,,,,,,,345.8389446999936,,,,,,,,,,345.83619770000223,345.8389446999936,345.8389446999936,345.8389446999936,348.8328678999969,None,348.8330516999995,348.84906979999505,348.84906979999505,350.09923599999456,j,1.2484237999888137,None,,,,,,,,,,,,,,,00050,001,2026-01-25_11h21.39.278,MST_task,2024.2.0,59.872065370619765,2026-01-25 11h21.46.216966 +0530,
,Objects\106a.jpg,40,0,41,,,,,,,None,f,0.38543369999388233,None,,,,,,41,0,40,350.1154857999936,,,,,,,,,,,,,,,,,,,,,,,350.0996950999979,350.1154857999936,350.5992074999958,,,,,,,,,,,,,,350.615902599995,,,,,,,,,,350.6074129000044,350.615902599995,350.615902599995,350.615902599995,353.6002365000022,None,353.600409199993,353.6158140000043,353.6158140000043,354.016335399996,f,0.38543369999388233,None,353.6158140000043,353.6158140000043,353.6158140000043,,,,,,,,,,,,00050,001,2026-01-25_11h21.39.278,MST_task,2024.2.0,59.872065370619765,2026-01-25 11h21.46.216966 +0530,
,Objects\014a.jpg,41,0,42,,,,,,,None,f,0.5330321999936132,None,,,,,,42,0,41,354.03244379999524,,,,,,,,,,,,,,,,,,,,,,,354.0167883999966,354.03244379999524,354.5159596000012,,,,,,,,,,,,,,354.53273209999315,,,,,,,,,,354.5253246999928,354.53273209999315,354.53273209999315,354.53273209999315,357.5168913999951,None,357.51706569999806,357.5323658999987,357.5323658999987,358.0663801000046,f,0.5330321999936132,None,357.5323658999987,357.5323658999987,357.5323658999987,,,,,,,,,,,,00050,001,2026-01-25_11h21.39.278,MST_task,2024.2.0,59.872065370619765,2026-01-25 11h21.46.216966 +0530,
,Scenes\179a.jpg,42,0,43,,,,,,,None,j,1.3793987999961246,None,,,,,,43,0,42,358.0824666999979,,,,,,,,,,,,,,,,,,,,,,,358.06684620000306,358.0824666999979,358.5662100999907,,,,,,,,,,,,,,358.5826778000046,,,,,,,,,,358.5793178000022,358.5826778000046,358.5826778000046,358.5826778000046,361.566991899992,None,361.56717090000166,361.5824898999999,361.5824898999999,362.966331100004,j,1.3793987999961246,None,361.5824898999999,361.5824898999999,361.5824898999999,,,,,,,,,,,,00050,001,2026-01-25_11h21.39.278,MST_task,2024.2.0,59.872065370619765,2026-01-25 11h21.46.216966 +0530,
,Scenes\093a.jpg,43,0,44,,,,,,,None,f,0.4708126000041375,None,,,,,,44,0,43,362.98219830000016,,,,,,,,,,,,,,,,,,,,,,,362.96668359999603,362.98219830000016,363.4658791999973,,,,,,,,,,,,,,363.48395249999885,,,,,,,,,,363.48088049999205,363.48395249999885,363.48395249999885,363.48395249999885,366.4839721000026,None,366.48417090000294,366.49907299999904,366.49907299999904,366.98300530000415,f,0.4708126000041375,None,,,,,,,,,,,,,,,00050,001,2026-01-25_11h21.39.278,MST_task,2024.2.0,59.872065370619765,2026-01-25 11h21.46.216966 +0530,
,Scenes\180a.jpg,44,0,45,,,,,,,None,j,0.38209320000896696,None,,,,,,45,0,44,366.99906279999414,,,,,,,,,,,,,,,,,,,,,,,366.9835221999965,366.99906279999414,367.48289179999847,,,,,,,,,,,,,,367.5041033000016,,,,,,,,,,367.5014111999917,367.5041033000016,367.5041033000016,367.5041033000016,370.4991138000041,None,370.4992942999961,370.51584320000256,370.51584320000256,370.89927120000357,j,0.38209320000896696,None,,,,,,,,,,,,,,,00050,001,2026-01-25_11h21.39.278,MST_task,2024.2.0,59.872065370619765,2026-01-25 11h21.46.216966 +0530,
,Scenes\005a.jpg,45,0,46,,,,,,,None,f,0.441679399998975,None,,,,,,46,0,45,370.9158139999927,,,,,,,,,,,,,,,,,,,,,,,370.8996075000032,370.9158139999927,371.39946529999725,,,,,,,,,,,,,,371.42985919999774,,,,,,,,,,371.42723869999463,371.42985919999774,371.42985919999774,371.42985919999774,374.39949359999446,None,374.3996879000042,374.41583260000334,374.41583260000334,374.8662980999943,f,0.441679399998975,None,,,,,,,,,,,,,,,00050,001,2026-01-25_11h21.39.278,MST_task,2024.2.0,59.872065370619765,2026-01-25 11h21.46.216966 +0530,
,Scenes\035a.jpg,46,0,47,,,,,,,None,j,0.5788641999970423,None,,,,,,47,0,46,374.8824681999977,,,,,,,,,,,,,,,,,,,,,,,374.8666682000039,374.8824681999977,375.366220099997,,,,,,,,,,,,,,375.4098663999903,,,,,,,,,,375.4061545000004,375.4098663999903,375.4098663999903,375.4098663999903,378.38249829999404,None,378.3826831999904,378.39865960000316,378.39865960000316,378.9830473000038,j,0.5788641999970423,None,,,,,,,,,,,,,,,00050,001,2026-01-25_11h21.39.278,MST_task,2024.2.0,59.872065370619765,2026-01-25 11h21.46.216966 +0530,
,Scenes\038a.jpg,47,0,48,,,,,,,None,j,0.36626070000056643,None,,,,,,48,0,47,378.999072599996,,,,,,,,,,,,,,,,,,,,,,,378.98341249999066,378.999072599996,379.48371990000305,,,,,,,,,,,,,,,,,,,,,,,,379.50001659999543,379.5028802000015,379.5028802000015,379.5028802000015,382.49948509999376,None,382.49967740000284,382.5156476999982,382.5156476999982,382.8831257999991,j,0.36626070000056643,None,,,,,,,,,,,,,,,00050,001,2026-01-25_11h21.39.278,MST_task,2024.2.0,59.872065370619765,2026-01-25 11h21.46.216966 +0530,
,Scenes\139a.jpg,48,0,49,,,,,,,None,j,0.6107728000060888,None,,,,,,49,0,48,382.8990022999933,,,,,,,,,,,,,,,,,,,,,,,382.883654499994,382.8990022999933,383.3828618999978,,,,,,,,,,,,,,383.3999729999923,,,,,,,,,,383.39502619999985,383.3999729999923,383.3999729999923,383.3999729999923,386.38365099999646,None,386.3838290999993,386.39907339999627,386.39907339999627,387.01631479999924,j,0.6107728000060888,None,386.39907339999627,386.39907339999627,386.39907339999627,,,,,,,,,,,,00050,001,2026-01-25_11h21.39.278,MST_task,2024.2.0,59.872065370619765,2026-01-25 11h21.46.216966 +0530,
,Objects\050a.jpg,49,0,50,,,,,,,None,f,2.00555919999897,None,,,,,,50,0,49,387.03246259999287,,,,,,,,,,,,,,,,,,,,,,,387.01677149999887,387.03246259999287,387.51622119999956,,,,,,,,,,,,,,387.53306220000377,,,,,,,,,,387.5228883999953,387.53306220000377,387.53306220000377,387.53306220000377,390.5169934000005,None,390.51717419999477,390.5323572999914,390.5323572999914,392.54950379999354,f,2.00555919999897,None,390.5323572999914,390.5323572999914,390.5323572999914,,,,,,,,,,,,00050,001,2026-01-25_11h21.39.278,MST_task,2024.2.0,59.872065370619765,2026-01-25 11h21.46.216966 +0530,
,Objects\171a.jpg,50,0,51,,,,,,,None,f,1.319674499987741,None,,,,,,51,0,50,392.5658090999932,,,,,,,,,,,,,,,,,,,,,,,392.5498421999946,392.5658090999932,393.04951299999084,,,,,,,,,,,,,,393.06601959999534,,,,,,,,,,393.05593119999685,393.06601959999534,393.06601959999534,393.06601959999534,396.0500106999971,None,396.050190199996,396.065583299991,396.065583299991,397.3996160999959,f,1.319674499987741,None,396.065583299991,396.065583299991,396.065583299991,,,,,,,,,,,,00050,001,2026-01-25_11h21.39.278,MST_task,2024.2.0,59.872065370619765,2026-01-25 11h21.46.216966 +0530,
,Objects\133a.jpg,51,0,52,,,,,,,None,j,0.4133580999914557,None,,,,,,52,0,51,397.41584899999725,,,,,,,,,,,,,,,,,,,,,,,397.40008249999664,397.41584899999725,397.89934479999647,,,,,,,,,,,,,,397.9246121000033,,,,,,,,,,397.9220540999959,397.9246121000033,397.9246121000033,397.9246121000033,400.91591609999887,None,400.9160273000016,400.9320243999973,400.9320243999973,401.34942279999086,j,0.4133580999914557,None,,,,,,,,,,,,,,,00050,001,2026-01-25_11h21.39.278,MST_task,2024.2.0,59.872065370619765,2026-01-25 11h21.46.216966 +0530,
,Objects\046a.jpg,52,0,53,,,,,,,None,f,0.9506375000055414,None,,,,,,53,0,52,401.36565710000286,,,,,,,,,,,,,,,,,,,,,,,401.3498141000018,401.36565710000286,401.8495444,,,,,,,,,,,,,,401.87270379999245,,,,,,,,,,401.87042379999184,401.87270379999245,401.87270379999245,401.87270379999245,404.8669943999994,None,404.8672039999947,404.88261899999634,404.88261899999634,405.8495819999953,f,0.9506375000055414,None,,,,,,,,,,,,,,,00050,001,2026-01-25_11h21.39.278,MST_task,2024.2.0,59.872065370619765,2026-01-25 11h21.46.216966 +0530,
,Objects\180a.jpg,53,0,54,,,,,,,None,f,0.3080363000044599,None,,,,,,54,0,53,405.8658029999933,,,,,,,,,,,,,,,,,,,,,,,405.84992039999634,405.8658029999933,406.3494748999947,,,,,,,,,,,,,,406.3660532999929,,,,,,,,,,406.35894499999995,406.3660532999929,406.3660532999929,406.3660532999929,409.35034550000273,None,409.35052530000394,409.36581839999417,409.36581839999417,409.68292449999717,f,0.3080363000044599,None,409.36581839999417,409.36581839999417,409.36581839999417,,,,,,,,,,,,00050,001,2026-01-25_11h21.39.278,MST_task,2024.2.0,59.872065370619765,2026-01-25 11h21.46.216966 +0530,
,Objects\109a.jpg,54,0,55,,,,,,,None,f,0.32942139999067876,None,,,,,,55,0,54,409.69909259999986,,,,,,,,,,,,,,,,,,,,,,,409.6832568999962,409.69909259999986,410.18287069999496,,,,,,,,,,,,,,410.2054222000006,,,,,,,,,,410.20240009999543,410.2054222000006,410.2054222000006,410.2054222000006,413.1994527999923,None,413.19964019999315,413.21587,413.21587,413.5495848999999,f,0.32942139999067876,None,,,,,,,,,,,,,,,00050,001,2026-01-25_11h21.39.278,MST_task,2024.2.0,59.872065370619765,2026-01-25 11h21.46.216966 +0530,
,Objects\073a.jpg,55,0,56,,,,,,,None,f,0.3108633999945596,None,,,,,,56,0,55,413.565821199998,,,,,,,,,,,,,,,,,,,,,,,413.5500428999949,413.565821199998,414.0494850999967,,,,,,,,,,,,,,414.0708780999994,,,,,,,,,,414.0685131999926,414.0708780999994,414.0708780999994,414.0708780999994,417.0662166999973,None,417.0663945999986,417.0824805000011,417.0824805000011,417.3993902999937,f,0.3108633999945596,None,,,,,,,,,,,,,,,00050,001,2026-01-25_11h21.39.278,MST_task,2024.2.0,59.872065370619765,2026-01-25 11h21.46.216966 +0530,
,Scenes\013a.jpg,56,0,57,,,,,,,None,j,0.43693070000153966,None,,,,,,57,0,56,417.4153992999927,,,,,,,,,,,,,,,,,,,,,,,417.39985929999966,417.4153992999927,417.899588699991,,,,,,,,,,,,,,417.92100400000345,,,,,,,,,,417.91733009999734,417.92100400000345,417.92100400000345,417.92100400000345,420.9162018999923,None,420.91639070000383,420.93235239999194,420.93235239999194,421.3830125999957,j,0.43693070000153966,None,,,,,,,,,,,,,,,00050,001,2026-01-25_11h21.39.278,MST_task,2024.2.0,59.872065370619765,2026-01-25 11h21.46.216966 +0530,
,Scenes\021a.jpg,57,0,58,,,,,,,None,j,1.1260226000013063,None,,,,,,58,0,57,421.3990957999922,,,,,,,,,,,,,,,,,,,,,,,421.3834644000017,421.3990957999922,421.8828876000043,,,,,,,,,,,,,,421.9026504999929,,,,,,,,,,421.89993620000314,421.9026504999929,421.9026504999929,421.9026504999929,424.89947639999446,None,424.8996888999973,424.9158153000026,424.9158153000026,426.04925209999783,j,1.1260226000013063,None,,,,,,,,,,,,,,,00050,001,2026-01-25_11h21.39.278,MST_task,2024.2.0,59.872065370619765,2026-01-25 11h21.46.216966 +0530,
,Scenes\028a.jpg,58,0,59,,,,,,,None,j,0.4120124999899417,None,,,,,,59,0,58,426.0658029000042,,,,,,,,,,,,,,,,,,,,,,,426.04961619999085,426.0658029000042,426.54947109999193,,,,,,,,,,,,,,426.57607799999823,,,,,,,,,,426.57346959999995,426.57607799999823,426.57607799999823,426.57607799999823,429.5494763000024,None,429.549657399999,429.5658289999992,429.5658289999992,429.982989199998,j,0.4120124999899417,None,,,,,,,,,,,,,,,00050,001,2026-01-25_11h21.39.278,MST_task,2024.2.0,59.872065370619765,2026-01-25 11h21.46.216966 +0530,
,Scenes\097a.jpg,59,0,60,,,,,,,None,f,0.4860505000106059,None,,,,,,60,0,59,429.99908300000243,,,,,,,,,,,,,,,,,,,,,,,429.9835008999944,429.99908300000243,430.4827728999953,,,,,,,,,,,,,,430.4995523999969,,,,,,,,,,430.4913361999934,430.4995523999969,430.4995523999969,430.4995523999969,433.48342279999633,None,433.48360089999915,433.4990974999964,433.4990974999964,433.99959609999496,f,0.4860505000106059,None,,,,,,,,,,,,,,,00050,001,2026-01-25_11h21.39.278,MST_task,2024.2.0,59.872065370619765,2026-01-25 11h21.46.216966 +0530,
,Scenes\114a.jpg,60,0,61,,,,,,,None,f,3.2526814000011655,None,,,,,,61,0,60,434.01584710000316,,,,,,,,,,,,,,,,,,,,,,,434.0000464999903,434.01584710000316,434.49953649999225,,,,,,,,,,,,,,434.51830419999897,,,,,,,,,,434.51576149999164,434.51830419999897,434.51830419999897,434.51830419999897,437.5159863000008,None,437.51616519999516,437.532489899997,437.532489899997,440.79961039999034,f,3.2526814000011655,None,,,,,,,,,,,,,,,00050,001,2026-01-25_11h21.39.278,MST_task,2024.2.0,59.872065370619765,2026-01-25 11h21.46.216966 +0530,
,Scenes\061a.jpg,61,0,62,,,,,,,None,j,1.7653744999988703,None,,,,,,62,0,61,440.8158024000004,,,,,,,,,,,,,,,,,,,,,,,440.800064199997,440.8158024000004,441.29950480000116,,,,,,,,,,,,,,441.31751700000314,,,,,,,,,,441.31162340000446,441.31751700000314,441.31751700000314,441.31751700000314,444.31621779999114,None,444.3163973999908,444.33250180000323,444.33250180000323,446.09926629999245,j,1.7653744999988703,None,,,,,,,,,,,,,,,00050,001,2026-01-25_11h21.39.278,MST_task,2024.2.0,59.872065370619765,2026-01-25 11h21.46.216966 +0530,
,Scenes\161a.jpg,62,0,63,,,,,,,None,j,0.4251399000058882,None,,,,,,63,0,62,446.1158037999994,,,,,,,,,,,,,,,,,,,,,,,446.09972389999893,446.1158037999994,446.59942440000304,,,,,,,,,,,,,,446.63915269999416,,,,,,,,,,446.636062199992,446.63915269999416,446.63915269999416,446.63915269999416,449.6162045999954,None,449.61638819999644,449.6323878999974,449.6323878999974,450.0663238999987,j,0.4251399000058882,None,,,,,,,,,,,,,,,00050,001,2026-01-25_11h21.39.278,MST_task,2024.2.0,59.872065370619765,2026-01-25 11h21.46.216966 +0530,
,Objects\163a.jpg,63,0,64,,,,,,,None,j,0.31453260000853334,None,,,,,,64,0,63,450.0824741999968,,,,,,,,,,,,,,,,,,,,,,,450.06678320000356,450.0824741999968,450.5662408999924,,,,,,,,,,,,,,450.58942899999965,,,,,,,,,,450.5867828000046,450.58942899999965,450.58942899999965,450.58942899999965,453.5828557999921,None,453.58303579999483,453.5990887999942,453.5990887999942,453.9160814999923,j,0.31453260000853334,None,,,,,,,,,,,,,,,00050,001,2026-01-25_11h21.39.278,MST_task,2024.2.0,59.872065370619765,2026-01-25 11h21.46.216966 +0530,
,Objects\091a.jpg,64,0,65,,,,,,,None,j,3.913055600001826,None,,,,,,65,0,64,453.93215670000063,,,,,,,,,,,,,,,,,,,,,,,453.9164422000031,453.93215670000063,454.41622830000415,,,,,,,,,,,,,,454.432690200003,,,,,,,,,,454.4247059999907,454.432690200003,454.432690200003,454.432690200003,457.4169775000046,None,457.41718049999326,457.4324839000037,457.4324839000037,461.34959349999554,j,3.913055600001826,None,457.4324839000037,457.4324839000037,457.4324839000037,,,,,,,,,,,,00050,001,2026-01-25_11h21.39.278,MST_task,2024.2.0,59.872065370619765,2026-01-25 11h21.46.216966 +0530,
,Objects\176a.jpg,65,0,66,,,,,,,None,f,1.7121194999926956,None,,,,,,66,0,65,461.36581239999214,,,,,,,,,,,,,,,,,,,,,,,461.3500590999902,461.36581239999214,461.84940169999027,,,,,,,,,,,,,,461.86587470000086,,,,,,,,,,461.8593073999946,461.86587470000086,461.86587470000086,461.86587470000086,464.8497453000018,None,464.8499235999916,464.86569989999407,464.86569989999407,466.58298579999246,f,1.7121194999926956,None,464.86569989999407,464.86569989999407,464.86569989999407,,,,,,,,,,,,00050,001,2026-01-25_11h21.39.278,MST_task,2024.2.0,59.872065370619765,2026-01-25 11h21.46.216966 +0530,
,Objects\095a.jpg,66,0,67,,,,,,,None,f,0.358091100002639,None,,,,,,67,0,66,466.59908449999057,,,,,,,,,,,,,,,,,,,,,,,466.58349190000445,466.59908449999057,467.082883199997,,,,,,,,,,,,,,467.1068443999975,,,,,,,,,,467.10404859999835,467.1068443999975,467.1068443999975,467.1068443999975,470.0994590999908,None,470.0996343000006,470.11572299999534,470.11572299999534,470.4830198999989,f,0.358091100002639,None,,,,,,,,,,,,,,,00050,001,2026-01-25_11h21.39.278,MST_task,2024.2.0,59.872065370619765,2026-01-25 11h21.46.216966 +0530,
,Objects\026a.jpg,67,0,68,,,,,,,None,j,4.289599499999895,None,,,,,,68,0,67,470.49893610000436,,,,,,,,,,,,,,,,,,,,,,,470.48358179999923,470.49893610000436,470.98260540000047,,,,,,,,,,,,,,471.00599799999327,,,,,,,,,,471.0028394999972,471.00599799999327,471.00599799999327,471.00599799999327,473.99947789999715,None,473.9996695000009,474.0158136999962,474.0158136999962,478.3163312999968,j,4.289599499999895,None,,,,,,,,,,,,,,,00050,001,2026-01-25_11h21.39.278,MST_task,2024.2.0,59.872065370619765,2026-01-25 11h21.46.216966 +0530,
,Objects\182a.jpg,68,0,69,,,,,,,None,f,0.3293035999959102,None,,,,,,69,0,68,478.3324963999912,,,,,,,,,,,,,,,,,,,,,,,478.3168130999984,478.3324963999912,478.8161803999974,,,,,,,,,,,,,,478.83271519999835,,,,,,,,,,478.8231139999989,478.83271519999835,478.83271519999835,478.83271519999835,481.81707380000444,None,481.81727189999947,481.83250409999164,481.83250409999164,482.16634549999435,f,0.3293035999959102,None,481.83250409999164,481.83250409999164,481.83250409999164,,,,,,,,,,,,00050,001,2026-01-25_11h21.39.278,MST_task,2024.2.0,59.872065370619765,2026-01-25 11h21.46.216966 +0530,
,Objects\129a.jpg,69,0,70,,,,,,,None,f,1.1661788000055822,None,,,,,,70,0,69,482.18248859999585,,,,,,,,,,,,,,,,,,,,,,,482.1667061000044,482.18248859999585,482.6662207999907,,,,,,,,,,,,,,482.6890107999934,,,,,,,,,,482.686202900004,482.6890107999934,482.6890107999934,482.6890107999934,485.6828680000035,None,485.6830831999978,485.6990882999962,485.6990882999962,486.8664221999934,f,1.1661788000055822,None,,,,,,,,,,,,,,,00050,001,2026-01-25_11h21.39.278,MST_task,2024.2.0,59.872065370619765,2026-01-25 11h21.46.216966 +0530,
,Scenes\080a.jpg,70,0,71,,,,,,,None,j,0.49935009999899194,None,,,,,,71,0,70,486.8824791999941,,,,,,,,,,,,,,,,,,,,,,,486.86693819999346,486.8824791999941,487.36622680000437,,,,,,,,,,,,,,487.38264979999803,,,,,,,,,,487.3799934999988,487.38264979999803,487.38264979999803,487.38264979999803,490.3670026000036,None,490.3671783000027,490.3824888999952,490.3824888999952,490.8831241000007,j,0.49935009999899194,None,490.3824888999952,490.3824888999952,490.3824888999952,,,,,,,,,,,,00050,001,2026-01-25_11h21.39.278,MST_task,2024.2.0,59.872065370619765,2026-01-25 11h21.46.216966 +0530,
,Scenes\147a.jpg,71,0,72,,,,,,,None,j,0.4667178000090644,None,,,,,,72,0,71,490.89907929999754,,,,,,,,,,,,,,,,,,,,,,,490.88362779999443,490.89907929999754,491.38288399999146,,,,,,,,,,,,,,491.3994262999913,,,,,,,,,,491.3960057999939,491.3994262999913,491.3994262999913,491.3994262999913,494.383307600001,None,494.38347149999754,494.39862389999325,494.39862389999325,494.86641649999365,j,0.4667178000090644,None,494.39862389999325,494.39862389999325,494.39862389999325,,,,,,,,,,,,00050,001,2026-01-25_11h21.39.278,MST_task,2024.2.0,59.872065370619765,2026-01-25 11h21.46.216966 +0530,
,Scenes\025a.jpg,72,0,73,,,,,,,None,j,0.30671000000438653,None,,,,,,73,0,72,494.88248249999015,,,,,,,,,,,,,,,,,,,,,,,494.8668647000013,494.88248249999015,495.36574799999653,,,,,,,,,,,,,,495.3942027000012,,,,,,,,,,495.3914533999923,495.3942027000012,495.3942027000012,495.3942027000012,498.3828813,None,498.38306189999275,498.3991285999946,498.3991285999946,498.7163067999936,j,0.30671000000438653,None,,,,,,,,,,,,,,,00050,001,2026-01-25_11h21.39.278,MST_task,2024.2.0,59.872065370619765,2026-01-25 11h21.46.216966 +0530,
,Scenes\117a.jpg,73,0,74,,,,,,,None,j,0.47205419999954756,None,,,,,,74,0,73,498.7325084999902,,,,,,,,,,,,,,,,,,,,,,,498.7166694000043,498.7325084999902,499.2160365000018,,,,,,,,,,,,,,499.2457544999925,,,,,,,,,,499.24307329999283,499.2457544999925,499.2457544999925,499.2457544999925,502.23287300000084,None,502.233072899995,502.2491025999916,502.2491025999916,502.7334431999916,j,0.47205419999954756,None,,,,,,,,,,,,,,,00050,001,2026-01-25_11h21.39.278,MST_task,2024.2.0,59.872065370619765,2026-01-25 11h21.46.216966 +0530,
,Scenes\007a.jpg,74,0,75,,,,,,,None,f,0.6800094000063837,None,,,,,,75,0,74,502.74907879999955,,,,,,,,,,,,,,,,,,,,,,,502.73401639999065,502.74907879999955,503.2328942000022,,,,,,,,,,,,,,503.26230449999275,,,,,,,,,,503.2600184999901,503.26230449999275,503.26230449999275,503.26230449999275,506.249278999996,None,506.24945930000104,506.265825399998,506.265825399998,506.94961019999755,f,0.6800094000063837,None,,,,,,,,,,,,,,,00050,001,2026-01-25_11h21.39.278,MST_task,2024.2.0,59.872065370619765,2026-01-25 11h21.46.216966 +0530,
,Scenes\017a.jpg,75,0,76,,,,,,,None,f,0.3916099999914877,None,,,,,,76,0,75,506.9658345999924,,,,,,,,,,,,,,,,,,,,,,,506.9499453000026,506.9658345999924,507.44938479999837,,,,,,,,,,,,,,507.4802101999958,,,,,,,,,,507.47737999999663,507.4802101999958,507.4802101999958,507.4802101999958,510.4662432999903,None,510.4664458000043,510.48218110000016,510.48218110000016,510.88299220000044,f,0.3916099999914877,None,,,,,,,,,,,,,,,00050,001,2026-01-25_11h21.39.278,MST_task,2024.2.0,59.872065370619765,2026-01-25 11h21.46.216966 +0530,
,Scenes\129a.jpg,76,0,77,,,,,,,None,j,4.530105400001048,None,,,,,,77,0,76,510.8991122000007,,,,,,,,,,,,,,,,,,,,,,,510.8834422999935,510.8991122000007,511.38287489999493,,,,,,,,,,,,,,511.39979579999635,,,,,,,,,,511.3954246999929,511.39979579999635,511.39979579999635,511.39979579999635,514.3836748000031,None,514.3838512999937,514.3990959999937,514.3990959999937,518.9327439000044,j,4.530105400001048,None,514.3990959999937,514.3990959999937,514.3990959999937,,,,,,,,,,,,00050,001,2026-01-25_11h21.39.278,MST_task,2024.2.0,59.872065370619765,2026-01-25 11h21.46.216966 +0530,
,Objects\100a.jpg,77,0,78,,,,,,,None,f,1.3201832000049762,None,,,,,,78,0,77,518.949077600002,,,,,,,,,,,,,,,,,,,,,,,518.9330898999906,518.949077600002,519.4328776000038,,,,,,,,,,,,,,519.4495900000038,,,,,,,,,,519.4419116999925,519.4495900000038,519.4495900000038,519.4495900000038,522.4336352999962,None,522.4338234000024,522.4490859999933,522.4490859999933,523.7829057999916,f,1.3201832000049762,None,522.4490859999933,522.4490859999933,522.4490859999933,,,,,,,,,,,,00050,001,2026-01-25_11h21.39.278,MST_task,2024.2.0,59.872065370619765,2026-01-25 11h21.46.216966 +0530,
,Objects\179a.jpg,78,0,79,,,,,,,None,f,0.6701535000029253,None,,,,,,79,0,78,523.7989070999902,,,,,,,,,,,,,,,,,,,,,,,523.7832468999986,523.7989070999902,524.2828879000008,,,,,,,,,,,,,,524.299314799995,,,,,,,,,,524.2920752999926,524.299314799995,524.299314799995,524.299314799995,527.2836415999918,None,527.2838190000039,527.2990972999978,527.2990972999978,527.9829762000008,f,0.6701535000029253,None,527.2990972999978,527.2990972999978,527.2990972999978,,,,,,,,,,,,00050,001,2026-01-25_11h21.39.278,MST_task,2024.2.0,59.872065370619765,2026-01-25 11h21.46.216966 +0530,
,Objects\159a.jpg,79,0,80,,,,,,,None,f,0.3899249000096461,None,,,,,,80,0,79,527.9990787999996,,,,,,,,,,,,,,,,,,,,,,,527.9834252,527.9990787999996,528.4829002000042,,,,,,,,,,,,,,528.5116375999933,,,,,,,,,,528.5091593999969,528.5116375999933,528.5116375999933,528.5116375999933,531.4994823000015,None,531.4996619000012,531.5158322999923,531.5158322999923,531.9163384999993,f,0.3899249000096461,None,,,,,,,,,,,,,,,00050,001,2026-01-25_11h21.39.278,MST_task,2024.2.0,59.872065370619765,2026-01-25 11h21.46.216966 +0530,
,Objects\125a.jpg,80,0,81,,,,,,,None,f,2.841462500000489,None,,,,,,81,0,80,531.9324827999953,,,,,,,,,,,,,,,,,,,,,,,531.916788699993,531.9324827999953,532.4162222000014,,,,,,,,,,,,,,532.4327894000016,,,,,,,,,,532.4244972000015,532.4327894000016,532.4327894000016,532.4327894000016,535.417005700001,None,535.4171795000002,535.4323173000012,535.4323173000012,538.2830524000019,f,2.841462500000489,None,535.4323173000012,535.4323173000012,535.4323173000012,,,,,,,,,,,,00050,001,2026-01-25_11h21.39.278,MST_task,2024.2.0,59.872065370619765,2026-01-25 11h21.46.216966 +0530,
,Objects\003a.jpg,81,0,82,,,,,,,None,j,0.850313200004166,None,,,,,,82,0,81,538.2990896999981,,,,,,,,,,,,,,,,,,,,,,,538.2835649000044,538.2990896999981,538.7831230000011,,,,,,,,,,,,,,538.7993133999989,,,,,,,,,,538.7927167000016,538.7993133999989,538.7993133999989,538.7993133999989,541.7836510999914,None,541.7838246000028,541.7988327999919,541.7988327999919,542.649628500003,j,0.850313200004166,None,541.7988327999919,541.7988327999919,541.7988327999919,,,,,,,,,,,,00050,001,2026-01-25_11h21.39.278,MST_task,2024.2.0,59.872065370619765,2026-01-25 11h21.46.216966 +0530,
,Objects\079a.jpg,82,0,83,,,,,,,None,f,0.579649800012703,None,,,,,,83,0,82,542.6658160999941,,,,,,,,,,,,,,,,,,,,,,,542.6499639999965,542.6658160999941,543.1490784999914,,,,,,,,,,,,,,543.1658093000005,,,,,,,,,,543.1556784999993,543.1658093000005,543.1658093000005,543.1658093000005,546.1504033999954,None,546.1506178999989,546.1656723999913,546.1656723999913,546.7495975999918,f,0.579649800012703,None,546.1656723999913,546.1656723999913,546.1656723999913,,,,,,,,,,,,00050,001,2026-01-25_11h21.39.278,MST_task,2024.2.0,59.872065370619765,2026-01-25 11h21.46.216966 +0530,
,Objects\157a.jpg,83,0,84,,,,,,,None,f,0.2955993000068702,None,,,,,,84,0,83,546.7658168999915,,,,,,,,,,,,,,,,,,,,,,,546.7500479000009,546.7658168999915,547.2494946999941,,,,,,,,,,,,,,547.2657192000042,,,,,,,,,,547.2577318999975,547.2657192000042,547.2657192000042,547.2657192000042,550.2503243999963,None,550.250512700004,550.2658267999941,550.2658267999941,550.5663199999981,f,0.2955993000068702,None,550.2658267999941,550.2658267999941,550.2658267999941,,,,,,,,,,,,00050,001,2026-01-25_11h21.39.278,MST_task,2024.2.0,59.872065370619765,2026-01-25 11h21.46.216966 +0530,
,Scenes\031a.jpg,84,0,85,,,,,,,None,f,0.4150106000015512,None,,,,,,85,0,84,550.5824487999926,,,,,,,,,,,,,,,,,,,,,,,550.566871499992,550.5824487999926,551.0658981000015,,,,,,,,,,,,,,551.1031771999988,,,,,,,,,,551.1005167999974,551.1031771999988,551.1031771999988,551.1031771999988,554.0829342999932,None,554.0831118999922,554.0989315000043,554.0989315000043,554.5159897999984,f,0.4150106000015512,None,,,,,,,,,,,,,,,00050,001,2026-01-25_11h21.39.278,MST_task,2024.2.0,59.872065370619765,2026-01-25 11h21.46.216966 +0530,
,Scenes\012a.jpg,85,0,86,,,,,,,None,j,0.3519081999984337,None,,,,,,86,0,85,554.532169500002,,,,,,,,,,,,,,,,,,,,,,,554.5164360999916,554.532169500002,555.016212100003,,,,,,,,,,,,,,555.0746275999991,,,,,,,,,,555.0717754999932,555.0746275999991,555.0746275999991,555.0746275999991,558.0329252999945,None,558.0331157000037,558.0491619999957,558.0491619999957,558.4163904000015,j,0.3519081999984337,None,,,,,,,,,,,,,,,00050,001,2026-01-25_11h21.39.278,MST_task,2024.2.0,59.872065370619765,2026-01-25 11h21.46.216966 +0530,
,Scenes\192a.jpg,86,0,87,,,,,,,None,j,0.5801873000018531,None,,,,,,87,0,86,558.4322878999956,,,,,,,,,,,,,,,,,,,,,,,558.4168671999942,558.4322878999956,558.9161974000017,,,,,,,,,,,,,,558.9420814000041,,,,,,,,,,558.9392656999989,558.9420814000041,558.9420814000041,558.9420814000041,561.9326489999949,None,561.9328582000016,561.9491745999985,561.9491745999985,562.5327026000014,j,0.5801873000018531,None,,,,,,,,,,,,,,,00050,001,2026-01-25_11h21.39.278,MST_task,2024.2.0,59.872065370619765,2026-01-25 11h21.46.216966 +0530,
,Scenes\076a.jpg,87,0,88,,,,,,,None,j,0.3039799999969546,None,,,,,,88,0,87,562.5490929999942,,,,,,,,,,,,,,,,,,,,,,,562.5330390000017,562.5490929999942,563.0329246000038,,,,,,,,,,,,,,563.0687441999908,,,,,,,,,,563.0658708999981,563.0687441999908,563.0687441999908,563.0687441999908,566.0493905000039,None,566.0495700000029,566.0657582999993,566.0657582999993,566.3830634999904,j,0.3039799999969546,None,,,,,,,,,,,,,,,00050,001,2026-01-25_11h21.39.278,MST_task,2024.2.0,59.872065370619765,2026-01-25 11h21.46.216966 +0530,
,Scenes\090a.jpg,88,0,89,,,,,,,None,j,0.31737010000506416,None,,,,,,89,0,88,566.3991829000006,,,,,,,,,,,,,,,,,,,,,,,566.3835441999981,566.3991829000006,566.8828799000039,,,,,,,,,,,,,,566.9041743999987,,,,,,,,,,566.9013922000013,566.9041743999987,566.9041743999987,566.9041743999987,569.8995371999918,None,569.8997124000016,569.9158645999996,569.9158645999996,570.2496570999938,j,0.31737010000506416,None,,,,,,,,,,,,,,,00050,001,2026-01-25_11h21.39.278,MST_task,2024.2.0,59.872065370619765,2026-01-25 11h21.46.216966 +0530,
,Scenes\074a.jpg,89,0,90,,,,,,,None,j,0.4908099000022048,None,,,,,,90,0,89,570.2657550000004,,,,,,,,,,,,,,,,,,,,,,,570.2501058999915,570.2657550000004,570.7494691000029,,,,,,,,,,,,,,570.7829380000039,,,,,,,,,,570.7787608999934,570.7829380000039,570.7829380000039,570.7829380000039,573.7661493999913,None,573.7663286000025,573.7824890999909,573.7824890999909,574.2827691999992,j,0.4908099000022048,None,,,,,,,,,,,,,,,00050,001,2026-01-25_11h21.39.278,MST_task,2024.2.0,59.872065370619765,2026-01-25 11h21.46.216966 +0530,
,Scenes\112a.jpg,90,0,91,,,,,,,None,j,0.641910000005737,None,,,,,,91,0,90,574.2990714000043,,,,,,,,,,,,,,,,,,,,,,,574.2832842999924,574.2990714000043,574.7827550999937,,,,,,,,,,,,,,574.8004728999949,,,,,,,,,,574.7976693999954,574.8004728999949,574.8004728999949,574.8004728999949,577.7994524999958,None,577.7996455999964,577.8157625000022,577.8157625000022,578.4659454999928,j,0.641910000005737,None,,,,,,,,,,,,,,,00050,001,2026-01-25_11h21.39.278,MST_task,2024.2.0,59.872065370619765,2026-01-25 11h21.46.216966 +0530,
,Objects\077a.jpg,91,0,92,,,,,,,None,j,0.595199399991543,None,,,,,,92,0,91,578.4824817999906,,,,,,,,,,,,,,,,,,,,,,,578.4662787999987,578.4824817999906,578.966170899992,,,,,,,,,,,,,,578.9827829999995,,,,,,,,,,578.9752620999934,578.9827829999995,578.9827829999995,578.9827829999995,581.966989499997,None,581.9671667999937,581.9825164999929,581.9825164999929,582.5827069999941,j,0.595199399991543,None,581.9825164999929,581.9825164999929,581.9825164999929,,,,,,,,,,,,00050,001,2026-01-25_11h21.39.278,MST_task,2024.2.0,59.872065370619765,2026-01-25 11h21.46.216966 +0530,
,Objects\040a.jpg,92,0,93,,,,,,,None,f,0.7583910999965155,None,,,,,,93,0,92,582.5991444999963,,,,,,,,,,,,,,,,,,,,,,,582.5831510999997,582.5991444999963,583.0829107000027,,,,,,,,,,,,,,583.0993860000017,,,,,,,,,,583.0918003999977,583.0993860000017,583.0993860000017,583.0993860000017,586.0836906999903,None,586.083865099994,586.0991618999979,586.0991618999979,586.8662688999902,f,0.7583910999965155,None,586.0991618999979,586.0991618999979,586.0991618999979,,,,,,,,,,,,00050,001,2026-01-25_11h21.39.278,MST_task,2024.2.0,59.872065370619765,2026-01-25 11h21.46.216966 +0530,
,Objects\021a.jpg,93,0,94,,,,,,,f,None,,,1.9951378999976441,0.16818249999778345,,,,94,0,93,586.8824795999972,,,,,,,,,,,,,,,,,,,,,,,586.8665994000039,586.8824795999972,587.3660367999983,,,,,,,,,,,,,,587.3825839999918,,,,,,,,,,587.3747977000021,587.3825839999918,587.3825839999918,587.3825839999918,590.3673331000027,f,590.3675416999904,,,590.3676057999983,None,,,,,,1.9951378999976441,0.16818249999778345,,,,,,,,,,00050,001,2026-01-25_11h21.39.278,MST_task,2024.2.0,59.872065370619765,2026-01-25 11h21.46.216966 +0530,
,Objects\181a.jpg,94,0,95,,,,,,,None,j,1.0234165000001667,None,,,,,,95,0,94,590.3825000999932,,,,,,,,,,,,,,,,,,,,,,,590.3678997999959,590.3825000999932,590.8662897000031,,,,,,,,,,,,,,590.882723200004,,,,,,,,,,590.8725382999983,590.882723200004,590.882723200004,590.882723200004,593.8668736999971,None,593.8670544999914,593.8823220999911,593.8823220999911,594.9162853000016,j,1.0234165000001667,None,593.8823220999911,593.8823220999911,593.8823220999911,,,,,,,,,,,,00050,001,2026-01-25_11h21.39.278,MST_task,2024.2.0,59.872065370619765,2026-01-25 11h21.46.216966 +0530,
,Objects\146a.jpg,95,0,96,,,,,,,None,f,0.40887020000081975,None,,,,,,96,0,95,594.9324993999908,,,,,,,,,,,,,,,,,,,,,,,594.9166168999946,594.9324993999908,595.416175899998,,,,,,,,,,,,,,595.4327954000037,,,,,,,,,,595.424762900002,595.4327954000037,595.4327954000037,595.4327954000037,598.4167468999949,None,598.4169316999905,598.432212300002,598.432212300002,598.8493586999975,f,0.40887020000081975,None,598.432212300002,598.432212300002,598.432212300002,,,,,,,,,,,,00050,001,2026-01-25_11h21.39.278,MST_task,2024.2.0,59.872065370619765,2026-01-25 11h21.46.216966 +0530,
,Objects\007a.jpg,96,0,97,,,,,,,None,f,0.3159983999939868,None,,,,,,97,0,96,598.8652398999984,,,,,,,,,,,,,,,,,,,,,,,598.8496932999988,598.8652398999984,599.3492764999974,,,,,,,,,,,,,,599.3659528999997,,,,,,,,,,599.3583695999987,599.3659528999997,599.3659528999997,599.3659528999997,602.3503348999948,None,602.3505227999995,602.3657684999926,602.3657684999926,602.6829868999921,f,0.3159983999939868,None,602.3657684999926,602.3657684999926,602.3657684999926,,,,,,,,,,,,00050,001,2026-01-25_11h21.39.278,MST_task,2024.2.0,59.872065370619765,2026-01-25 11h21.46.216966 +0530,
,Objects\066a.jpg,97,0,98,,,,,,,None,f,0.32942339999135584,None,,,,,,98,0,97,602.6991394999932,,,,,,,,,,,,,,,,,,,,,,,602.683325799997,602.6991394999932,603.1829666999984,,,,,,,,,,,,,,603.2121143999975,,,,,,,,,,603.2095631999982,603.2121143999975,603.2121143999975,603.2121143999975,606.1995388999931,None,606.1997257000039,606.2157903999905,606.2157903999905,606.5499917999987,f,0.32942339999135584,None,,,,,,,,,,,,,,,00050,001,2026-01-25_11h21.39.278,MST_task,2024.2.0,59.872065370619765,2026-01-25 11h21.46.216966 +0530,
,Scenes\121a.jpg,98,0,99,,,,,,,None,j,0.8711696999962442,None,,,,,,99,0,98,606.5654474999901,,,,,,,,,,,,,,,,,,,,,,,606.5503620999953,606.5654474999901,607.0495443999971,,,,,,,,,,,,,,607.0681696999964,,,,,,,,,,607.0656405000045,607.0681696999964,607.0681696999964,607.0681696999964,610.0659006999922,None,610.0661148999934,610.0825289999921,610.0825289999921,610.9662786999979,j,0.8711696999962442,None,,,,,,,,,,,,,,,00050,001,2026-01-25_11h21.39.278,MST_task,2024.2.0,59.872065370619765,2026-01-25 11h21.46.216966 +0530,
,Scenes\014a.jpg,99,0,100,,,,,,,None,f,0.48584090000076685,None,,,,,,100,0,99,610.9824882999965,,,,,,,,,,,,,,,,,,,,,,,610.9667654999939,610.9824882999965,611.465927600002,,,,,,,,,,,,,,611.4864234999986,,,,,,,,,,611.4831241999927,611.4864234999986,611.4864234999986,611.4864234999986,614.482677299995,None,614.4828542000032,614.4991550999985,614.4991550999985,614.9996665999934,f,0.48584090000076685,None,,,,,,,,,,,,,,,00050,001,2026-01-25_11h21.39.278,MST_task,2024.2.0,59.872065370619765,2026-01-25 11h21.46.216966 +0530,
,Scenes\142a.jpg,100,0,101,,,,,,,None,j,1.5725767000112683,None,,,,,,101,0,100,615.0173979999963,,,,,,,,,,,,,,,,,,,,,,,615.0000015999976,615.0173979999963,615.5159686999978,,,,,,,,,,,,,,,,,,,,,,,,615.5326801999909,615.5352912999952,615.5352912999952,615.5352912999952,618.5161664000043,None,618.5163455000002,618.5324997999996,618.5324997999996,620.1162840000034,j,1.5725767000112683,None,,,,,,,,,,,,,,,00050,001,2026-01-25_11h21.39.278,MST_task,2024.2.0,59.872065370619765,2026-01-25 11h21.46.216966 +0530,
,Scenes\108a.jpg,101,0,102,,,,,,,None,j,0.33630099998845253,None,,,,,,102,0,101,620.1333247000002,,,,,,,,,,,,,,,,,,,,,,,620.116741699996,620.1333247000002,620.6162460999913,,,,,,,,,,,,,,620.6492438999994,,,,,,,,,,620.646209700004,620.6492438999994,620.6492438999994,620.6492438999994,623.6326386000001,None,623.6328333999991,623.6486914999987,623.6486914999987,623.9993953999947,j,0.33630099998845253,None,,,,,,,,,,,,,,,00050,001,2026-01-25_11h21.39.278,MST_task,2024.2.0,59.872065370619765,2026-01-25 11h21.46.216966 +0530,
,Scenes\138a.jpg,102,0,103,,,,,,,None,j,0.4525173000001814,None,,,,,,103,0,102,624.0155229999946,,,,,,,,,,,,,,,,,,,,,,,623.9997323999996,624.0155229999946,624.499567699997,,,,,,,,,,,,,,624.5170351999986,,,,,,,,,,624.5143608999933,624.5170351999986,624.5170351999986,624.5170351999986,627.5161755000008,None,627.5163592000026,627.5324816999928,627.5324816999928,627.999722499997,j,0.4525173000001814,None,,,,,,,,,,,,,,,00050,001,2026-01-25_11h21.39.278,MST_task,2024.2.0,59.872065370619765,2026-01-25 11h21.46.216966 +0530,
,Scenes\096a.jpg,103,0,104,,,,,,,None,j,0.28468419999990147,None,,,,,,104,0,103,628.0157656999945,,,,,,,,,,,,,,,,,,,,,,,628.0002134999959,628.0157656999945,628.4996185999917,,,,,,,,,,,,,,628.5197957999917,,,,,,,,,,628.5165975999989,628.5197957999917,628.5197957999917,628.5197957999917,631.5161095999938,None,631.5162888999912,631.5326170999906,631.5326170999906,631.833071599991,j,0.28468419999990147,None,,,,,,,,,,,,,,,00050,001,2026-01-25_11h21.39.278,MST_task,2024.2.0,59.872065370619765,2026-01-25 11h21.46.216966 +0530,
,Scenes\053a.jpg,104,0,105,,,,,,,None,j,1.5408663999987766,None,,,,,,105,0,104,631.8488497999933,,,,,,,,,,,,,,,,,,,,,,,631.8335159999988,631.8488497999933,632.3328786999919,,,,,,,,,,,,,,632.349602000002,,,,,,,,,,632.339135999995,632.349602000002,632.349602000002,632.349602000002,635.3333490999939,None,635.3334710999916,635.3488155999949,635.3488155999949,636.8996805999923,j,1.5408663999987766,None,635.3488155999949,635.3488155999949,635.3488155999949,,,,,,,,,,,,00050,001,2026-01-25_11h21.39.278,MST_task,2024.2.0,59.872065370619765,2026-01-25 11h21.46.216966 +0530,
,Objects\081a.jpg,105,0,106,,,,,,,None,j,0.5694802000070922,None,,,,,,106,0,105,636.915760799995,,,,,,,,,,,,,,,,,,,,,,,636.9001261999947,636.915760799995,637.3995842000004,,,,,,,,,,,,,,637.4161873999983,,,,,,,,,,637.4087967999949,637.4161873999983,637.4161873999983,637.4161873999983,640.4001212000003,None,640.4003094999935,640.4155752999941,640.4155752999941,640.999487699999,j,0.5694802000070922,None,640.4155752999941,640.4155752999941,640.4155752999941,,,,,,,,,,,,00050,001,2026-01-25_11h21.39.278,MST_task,2024.2.0,59.872065370619765,2026-01-25 11h21.46.216966 +0530,
,Objects\045a.jpg,106,0,107,,,,,,,None,f,0.9418687999859685,None,,,,,,107,0,106,641.015584599998,,,,,,,,,,,,,,,,,,,,,,,640.9998183999996,641.015584599998,641.4995419000043,,,,,,,,,,,,,,641.5160206,,,,,,,,,,641.5095192000008,641.5160206,641.5160206,641.5160206,644.5002858999942,None,644.5004633999924,644.5157626,644.5157626,645.4662946000026,f,0.9418687999859685,None,644.5157626,644.5157626,644.5157626,,,,,,,,,,,,00050,001,2026-01-25_11h21.39.278,MST_task,2024.2.0,59.872065370619765,2026-01-25 11h21.46.216966 +0530,
,Objects\051a.jpg,107,0,108,,,,,,,None,j,2.738467999995919,None,,,,,,108,0,107,645.4824760999909,,,,,,,,,,,,,,,,,,,,,,,645.466751999993,645.4824760999909,645.9661695999966,,,,,,,,,,,,,,646.0171528999927,,,,,,,,,,646.0140971999936,646.0171528999927,646.0171528999927,646.0171528999927,648.9824787999969,None,648.9826729999913,648.9991760999983,648.9991760999983,651.749387399992,j,2.738467999995919,None,,,,,,,,,,,,,,,00050,001,2026-01-25_11h21.39.278,MST_task,2024.2.0,59.872065370619765,2026-01-25 11h21.46.216966 +0530,
,Objects\144a.jpg,108,0,109,,,,,,,None,f,0.4790706999920076,None,,,,,,109,0,108,651.7658159999992,,,,,,,,,,,,,,,,,,,,,,,651.7497179999918,651.7658159999992,652.2495512000023,,,,,,,,,,,,,,652.2783219999983,,,,,,,,,,652.2759240000014,652.2783219999983,652.2783219999983,652.2783219999983,655.266223899991,None,655.2664017999923,655.2820793999999,655.2820793999999,655.7663992000016,f,0.4790706999920076,None,,,,,,,,,,,,,,,00050,001,2026-01-25_11h21.39.278,MST_task,2024.2.0,59.872065370619765,2026-01-25 11h21.46.216966 +0530,
,Objects\013a.jpg,109,0,110,,,,,,,None,f,0.3111996000079671,None,,,,,,110,0,109,655.7824449000036,,,,,,,,,,,,,,,,,,,,,,,655.766929999998,655.7824449000036,656.2662207999965,,,,,,,,,,,,,,656.2826895000035,,,,,,,,,,656.2753831000009,656.2826895000035,656.2826895000035,656.2826895000035,659.2669879000023,None,659.267161900003,659.2824421999976,659.2824421999976,659.5997161999985,f,0.3111996000079671,None,659.2824421999976,659.2824421999976,659.2824421999976,,,,,,,,,,,,00050,001,2026-01-25_11h21.39.278,MST_task,2024.2.0,59.872065370619765,2026-01-25 11h21.46.216966 +0530,
,Objects\142a.jpg,110,0,111,,,,,,,None,f,0.9815378000057535,None,,,,,,111,0,110,659.6174459000031,,,,,,,,,,,,,,,,,,,,,,,659.6000810999976,659.6174459000031,660.1160435999918,,,,,,,,,,,,,,,,,,,,,,,,660.1239952000033,660.1326619000029,660.1326619000029,660.1326619000029,663.116240599993,None,663.1164391999919,663.1320847000025,663.1320847000025,664.1161162999924,f,0.9815378000057535,None,,,,,,,,,,,,,,,00050,001,2026-01-25_11h21.39.278,MST_task,2024.2.0,59.872065370619765,2026-01-25 11h21.46.216966 +0530,
,Objects\043a.jpg,111,0,112,,,,,,,None,f,1.6244598999910522,None,,,,,,112,0,111,664.1322940999962,,,,,,,,,,,,,,,,,,,,,,,664.1165867999953,664.1322940999962,664.6162869999971,,,,,,,,,,,,,,664.6387913999934,,,,,,,,,,664.6360618000035,664.6387913999934,664.6387913999934,664.6387913999934,667.6328260000009,None,667.6330173000024,667.649184199996,667.649184199996,669.2825728000025,f,1.6244598999910522,None,,,,,,,,,,,,,,,00050,001,2026-01-25_11h21.39.278,MST_task,2024.2.0,59.872065370619765,2026-01-25 11h21.46.216966 +0530,
,Scenes\173a.jpg,112,0,113,,,,,,,None,j,0.6177913999999873,None,,,,,,113,0,112,669.2991639999964,,,,,,,,,,,,,,,,,,,,,,,669.2829069,669.2991639999964,669.782824599999,,,,,,,,,,,,,,669.7996338999947,,,,,,,,,,669.7940430000017,669.7996338999947,669.7996338999947,669.7996338999947,672.7828135000018,None,672.7829990000027,672.7991664000001,672.7991664000001,673.4329404000018,j,0.6177913999999873,None,,,,,,,,,,,,,,,00050,001,2026-01-25_11h21.39.278,MST_task,2024.2.0,59.872065370619765,2026-01-25 11h21.46.216966 +0530,
,Scenes\134a.jpg,113,0,114,,,,,,,None,j,0.5485054000018863,None,,,,,,114,0,113,673.4490136999957,,,,,,,,,,,,,,,,,,,,,,,673.4332762999984,673.4490136999957,673.9323446999915,,,,,,,,,,,,,,673.9494201999914,,,,,,,,,,673.946572300003,673.9494201999914,673.9494201999914,673.9494201999914,676.9336886999954,None,676.9338748000009,676.9491158000019,676.9491158000019,677.4993434999924,j,0.5485054000018863,None,676.9491158000019,676.9491158000019,676.9491158000019,,,,,,,,,,,,00050,001,2026-01-25_11h21.39.278,MST_task,2024.2.0,59.872065370619765,2026-01-25 11h21.46.216966 +0530,
,Scenes\029a.jpg,114,0,115,,,,,,,None,j,0.4093791999912355,None,,,,,,115,0,114,677.5157842999906,,,,,,,,,,,,,,,,,,,,,,,677.4998033000011,677.5157842999906,678.0007092000014,,,,,,,,,,,,,,,,,,,,,,,,678.0191362999904,678.0218450999964,678.0218450999964,678.0218450999964,681.0162352000043,None,681.016446900001,681.0320555999933,681.0320555999933,681.4492219999956,j,0.4093791999912355,None,,,,,,,,,,,,,,,00050,001,2026-01-25_11h21.39.278,MST_task,2024.2.0,59.872065370619765,2026-01-25 11h21.46.216966 +0530,
,Scenes\036a.jpg,115,0,116,,,,,,,None,j,0.5546413999982178,None,,,,,,116,0,115,681.4656878999958,,,,,,,,,,,,,,,,,,,,,,,681.4495332999941,681.4656878999958,681.9495218999946,,,,,,,,,,,,,,681.9774484999944,,,,,,,,,,681.9745678000036,681.9774484999944,681.9774484999944,681.9774484999944,684.9662037999951,None,684.9664104999974,684.9823312999943,684.9823312999943,685.5492061999976,j,0.5546413999982178,None,,,,,,,,,,,,,,,00050,001,2026-01-25_11h21.39.278,MST_task,2024.2.0,59.872065370619765,2026-01-25 11h21.46.216966 +0530,
,Scenes\184a.jpg,116,0,117,,,,,,,None,j,0.5109411000012187,None,,,,,,117,0,116,685.5654689999938,,,,,,,,,,,,,,,,,,,,,,,685.5495572999935,685.5654689999938,686.0493895999971,,,,,,,,,,,,,,,,,,,,,,,,686.1018093000021,686.1043838999904,686.1043838999904,686.1043838999904,689.0661370000016,None,689.0663746999926,689.0825134999905,689.0825134999905,689.5996124999947,j,0.5109411000012187,None,,,,,,,,,,,,,,,00050,001,2026-01-25_11h21.39.278,MST_task,2024.2.0,59.872065370619765,2026-01-25 11h21.46.216966 +0530,
,Scenes\003a.jpg,117,0,118,,,,,,,None,j,0.5731481999973767,None,,,,,,118,0,117,689.6157187999925,,,,,,,,,,,,,,,,,,,,,,,689.5999483999913,689.6157187999925,690.0995008000027,,,,,,,,,,,,,,690.1240257000027,,,,,,,,,,690.1212835999904,690.1240257000027,690.1240257000027,690.1240257000027,693.1162230000045,None,693.1164384000003,693.1324979999918,693.1324979999918,693.7163241999951,j,0.5731481999973767,None,,,,,,,,,,,,,,,00050,001,2026-01-25_11h21.39.278,MST_task,2024.2.0,59.872065370619765,2026-01-25 11h21.46.216966 +0530,
,Scenes\086a.jpg,118,0,119,,,,,,,j,None,,,2.915440500000841,None,,,,119,0,118,693.7321586000035,,,,,,,,,,,,,,,,,,,,,,,693.716825800002,693.7321586000035,694.2162341999938,,,,,,,,,,,,,,694.2382469000004,,,,,,,,,,694.2355393000034,694.2382469000004,694.2382469000004,694.2382469000004,697.2172504999908,j,697.2174564000015,,,697.2175382999994,None,,,,,,2.915440500000841,None,,,,,,,,,,00050,001,2026-01-25_11h21.39.278,MST_task,2024.2.0,59.872065370619765,2026-01-25 11h21.46.216966 +0530,
,Objects\062a.jpg,119,0,120,,,,,,,j,None,,,0.04449529999692459,0.10345169999345671,,,,120,0,119,697.2325210999988,,,,,,,,,,,,,,,,,,,,,,,697.2178400999983,697.2325210999988,697.7162749999989,,,,,,,,,,,,,,697.7331127999933,,,,,,,,,,697.7253945999983,697.7331127999933,697.7331127999933,697.7331127999933,700.7170026999956,j,700.7172076999996,,,700.7172657999909,None,,,700.7325030999928,700.7325030999928,700.7325030999928,0.04449529999692459,0.10345169999345671,,,,,,,,,,00050,001,2026-01-25_11h21.39.278,MST_task,2024.2.0,59.872065370619765,2026-01-25 11h21.46.216966 +0530,
,Objects\072a.jpg,120,0,121,,,,,,,None,f,2.7282182999915676,None,,,,,,121,0,120,700.7325030999928,,,,,,,,,,,,,,,,,,,,,,,700.7175704999972,700.7325030999928,701.2162299999909,,,,,,,,,,,,,,701.2391792999988,,,,,,,,,,701.2364627999923,701.2391792999988,701.2391792999988,701.2391792999988,704.2328846000019,None,704.2330781999917,704.2490871000045,704.2490871000045,706.9830089000025,f,2.7282182999915676,None,,,,,,,,,,,,,,,00050,001,2026-01-25_11h21.39.278,MST_task,2024.2.0,59.872065370619765,2026-01-25 11h21.46.216966 +0530,
,Objects\135a.jpg,121,0,122,,,,,,,None,f,1.6543415999913123,None,,,,,,122,0,121,706.9990829000017,,,,,,,,,,,,,,,,,,,,,,,706.983364899992,706.9990829000017,707.4829242999986,,,,,,,,,,,,,,707.5054130999924,,,,,,,,,,707.5033297999908,707.5054130999924,707.5054130999924,707.5054130999924,710.483785199991,None,710.4839986000006,710.4991233000037,710.4991233000037,712.1660535999981,f,1.6543415999913123,None,,,,,,,,,,,,,,,00050,001,2026-01-25_11h21.39.278,MST_task,2024.2.0,59.872065370619765,2026-01-25 11h21.46.216966 +0530,
,Objects\048a.jpg,122,0,123,,,,,,,None,j,0.2705922000022838,None,,,,,,123,0,122,712.1824767999933,,,,,,,,,,,,,,,,,,,,,,,712.1665137999953,712.1824767999933,712.6659184000018,,,,,,,,,,,,,,712.6913111000031,,,,,,,,,,712.6888011999981,712.6913111000031,712.6913111000031,712.6913111000031,715.6828891000041,None,715.6830688000045,715.6989941999927,715.6989941999927,715.983009299991,j,0.2705922000022838,None,,,,,,,,,,,,,,,00050,001,2026-01-25_11h21.39.278,MST_task,2024.2.0,59.872065370619765,2026-01-25 11h21.46.216966 +0530,
,Objects\136a.jpg,123,0,124,,,,,,,None,f,0.8464762999938102,None,,,,,,124,0,123,715.9991186999978,,,,,,,,,,,,,,,,,,,,,,,715.9833427999984,715.9991186999978,716.4828858999972,,,,,,,,,,,,,,716.4992390999978,,,,,,,,,,716.4894128000014,716.4992390999978,716.4992390999978,716.4992390999978,719.483751199994,None,719.4839253999962,719.4991076000006,719.4991076000006,720.3496124999947,f,0.8464762999938102,None,719.4991076000006,719.4991076000006,719.4991076000006,,,,,,,,,,,,00050,001,2026-01-25_11h21.39.278,MST_task,2024.2.0,59.872065370619765,2026-01-25 11h21.46.216966 +0530,
,Objects\065a.jpg,124,0,125,,,,,,,None,f,0.703799800001434,None,,,,,,125,0,124,720.3658305999998,,,,,,,,,,,,,,,,,,,,,,,720.3500570000033,720.3658305999998,720.8494934000046,,,,,,,,,,,,,,720.8660565000027,,,,,,,,,,720.8582801000011,720.8660565000027,720.8660565000027,720.8660565000027,723.850279899998,None,723.8504508000042,723.8657531999925,723.8657531999925,724.5838808999979,f,0.703799800001434,None,723.8657531999925,723.8657531999925,723.8657531999925,,,,,,,,,,,,00050,001,2026-01-25_11h21.39.278,MST_task,2024.2.0,59.872065370619765,2026-01-25 11h21.46.216966 +0530,
,Objects\124a.jpg,125,0,126,,,,,,,None,f,0.24533980000705924,None,,,,,,126,0,125,724.5990968999977,,,,,,,,,,,,,,,,,,,,,,,724.5843358999991,724.5990968999977,725.0830757999938,,,,,,,,,,,,,,725.1103679999942,,,,,,,,,,725.1076246000011,725.1103679999942,725.1103679999942,725.1103679999942,728.0994827999966,None,728.0996726000012,728.1158339999965,728.1158339999965,728.3661316999933,f,0.24533980000705924,None,,,,,,,,,,,,,,,00050,001,2026-01-25_11h21.39.278,MST_task,2024.2.0,59.872065370619765,2026-01-25 11h21.46.216966 +0530,
,Scenes\155a.jpg,126,0,127,,,,,,,None,j,0.5423800999997184,None,,,,,,127,0,126,728.3824546999967,,,,,,,,,,,,,,,,,,,,,,,728.3666493999917,728.3824546999967,728.8676583999913,,,,,,,,,,,,,,,,,,,,,,,,728.8790712999908,728.8827827999921,728.8827827999921,728.8827827999921,731.866689699993,None,731.866861100003,731.8825187000039,731.8825187000039,732.4331305999949,j,0.5423800999997184,None,731.8825187000039,731.8825187000039,731.8825187000039,,,,,,,,,,,,00050,001,2026-01-25_11h21.39.278,MST_task,2024.2.0,59.872065370619765,2026-01-25 11h21.46.216966 +0530,
,Scenes\141a.jpg,127,0,128,,,,,,,None,j,0.3484970000135945,None,,,,,,128,0,127,732.4494544000045,,,,,,,,,,,,,,,,,,,,,,,732.4335748000012,732.4494544000045,732.9324725999904,,,,,,,,,,,,,,732.9496915999916,,,,,,,,,,732.9464192000014,732.9496915999916,732.9496915999916,732.9496915999916,735.9336747999914,None,735.9338484000036,735.9490872000024,735.9490872000024,736.2993234000023,j,0.3484970000135945,None,735.9490872000024,735.9490872000024,735.9490872000024,,,,,,,,,,,,00050,001,2026-01-25_11h21.39.278,MST_task,2024.2.0,59.872065370619765,2026-01-25 11h21.46.216966 +0530,
,Scenes\156a.jpg,128,0,129,,,,,,,None,j,0.9199212999956217,None,,,,,,129,0,128,736.3158530999935,,,,,,,,,,,,,,,,,,,,,,,736.2998118999967,736.3158530999935,736.7995014000044,,,,,,,,,,,,,,736.8317795999901,,,,,,,,,,736.8289512999909,736.8317795999901,736.8317795999901,736.8317795999901,739.8160884999961,None,739.8162733999925,739.8336616000015,739.8336616000015,740.7663662999985,j,0.9199212999956217,None,,,,,,,,,,,,,,,00050,001,2026-01-25_11h21.39.278,MST_task,2024.2.0,59.872065370619765,2026-01-25 11h21.46.216966 +0530,
,Scenes\175a.jpg,129,0,130,,,,,,,None,j,0.2630609000043478,None,,,,,,130,0,129,740.7821945000032,,,,,,,,,,,,,,,,,,,,,,,740.7668243999942,740.7821945000032,741.2661907000002,,,,,,,,,,,,,,741.2831147999968,,,,,,,,,,741.2785288000014,741.2831147999968,741.2831147999968,741.2831147999968,744.2667887999996,None,744.2669638999942,744.2825008999935,744.2825008999935,744.5496023000014,j,0.2630609000043478,None,744.2825008999935,744.2825008999935,744.2825008999935,,,,,,,,,,,,00050,001,2026-01-25_11h21.39.278,MST_task,2024.2.0,59.872065370619765,2026-01-25 11h21.46.216966 +0530,
,Scenes\088a.jpg,130,0,131,,,,,,,None,j,0.3026131999940844,None,,,,,,131,0,130,744.5658352000028,,,,,,,,,,,,,,,,,,,,,,,744.5499398999964,744.5658352000028,745.0494993000029,,,,,,,,,,,,,,745.074552399994,,,,,,,,,,745.0715753999975,745.074552399994,745.074552399994,745.074552399994,748.0662144999951,None,748.0664166999923,748.0822838000022,748.0822838000022,748.4001781999978,j,0.3026131999940844,None,,,,,,,,,,,,,,,00050,001,2026-01-25_11h21.39.278,MST_task,2024.2.0,59.872065370619765,2026-01-25 11h21.46.216966 +0530,
,Scenes\072a.jpg,131,0,132,,,,,,,None,j,0.4930655999924056,None,,,,,,132,0,131,748.4158414999984,,,,,,,,,,,,,,,,,,,,,,,748.4006546000019,748.4158414999984,748.8993925999966,,,,,,,,,,,,,,748.9319537999982,,,,,,,,,,748.9289824000007,748.9319537999982,748.9319537999982,748.9319537999982,751.9161972000002,None,751.9163764999976,751.932518200003,751.932518200003,752.4330123999971,j,0.4930655999924056,None,,,,,,,,,,,,,,,00050,001,2026-01-25_11h21.39.278,MST_task,2024.2.0,59.872065370619765,2026-01-25 11h21.46.216966 +0530,
,Scenes\023a.jpg,132,0,133,,,,,,,None,f,0.26744049999979325,None,,,,,,133,0,132,752.4487999999983,,,,,,,,,,,,,,,,,,,,,,,752.4335041000013,752.4487999999983,752.9329084999918,,,,,,,,,,,,,,752.9694233999908,,,,,,,,,,752.9663717999938,752.9694233999908,752.9694233999908,752.9694233999908,755.9494997000002,None,755.9496739000024,755.9659336000041,755.9659336000041,756.2495978999941,f,0.26744049999979325,None,,,,,,,,,,,,,,,00050,001,2026-01-25_11h21.39.278,MST_task,2024.2.0,59.872065370619765,2026-01-25 11h21.46.216966 +0530,
,Objects\191a.jpg,133,0,134,,,,,,,None,j,1.4904663999914192,None,,,,,,134,0,133,756.2658360999922,,,,,,,,,,,,,,,,,,,,,,,756.2500442000019,756.2658360999922,756.7494538000028,,,,,,,,,,,,,,756.772864300001,,,,,,,,,,756.7696828000044,756.772864300001,756.772864300001,756.772864300001,759.7658164000022,None,759.7659883000015,759.7825095000007,759.7825095000007,761.2830195999995,j,1.4904663999914192,None,,,,,,,,,,,,,,,00050,001,2026-01-25_11h21.39.278,MST_task,2024.2.0,59.872065370619765,2026-01-25 11h21.46.216966 +0530,
,Objects\001a.jpg,134,0,135,,,,,,,None,f,3.70658800000092,None,,,,,,135,0,134,761.2991001999908,,,,,,,,,,,,,,,,,,,,,,,761.2834741999977,761.2991001999908,761.7828924999922,,,,,,,,,,,,,,761.799085599996,,,,,,,,,,761.7922707999969,761.799085599996,761.799085599996,761.799085599996,764.7837338999962,None,764.7839034999924,764.7989212999964,764.7989212999964,768.5163533000014,f,3.70658800000092,None,764.7989212999964,764.7989212999964,764.7989212999964,,,,,,,,,,,,00050,001,2026-01-25_11h21.39.278,MST_task,2024.2.0,59.872065370619765,2026-01-25 11h21.46.216966 +0530,
,Objects\017a.jpg,135,0,136,,,,,,,None,j,0.352336900003138,None,,,,,,136,0,135,768.5324716000032,,,,,,,,,,,,,,,,,,,,,,,768.516687299998,768.5324716000032,769.0166720999987,,,,,,,,,,,,,,769.0326645000023,,,,,,,,,,769.0255942999938,769.0326645000023,769.0326645000023,769.0326645000023,772.0170600999991,None,772.017236300002,772.0325063999917,772.0325063999917,772.3996027999965,j,0.352336900003138,None,772.0325063999917,772.0325063999917,772.0325063999917,,,,,,,,,,,,00050,001,2026-01-25_11h21.39.278,MST_task,2024.2.0,59.872065370619765,2026-01-25 11h21.46.216966 +0530,
,Objects\057a.jpg,136,0,137,,,,,,,None,f,0.6609147999988636,None,,,,,,137,0,136,772.4154531999957,,,,,,,,,,,,,,,,,,,,,,,772.3999675999949,772.4154531999957,772.8994956999959,,,,,,,,,,,,,,772.9213327000034,,,,,,,,,,772.9191433999949,772.9213327000034,772.9213327000034,772.9213327000034,775.9162297000003,None,775.916410699996,775.9323905999918,775.9323905999918,776.6002497000009,f,0.6609147999988636,None,,,,,,,,,,,,,,,00050,001,2026-01-25_11h21.39.278,MST_task,2024.2.0,59.872065370619765,2026-01-25 11h21.46.216966 +0530,
,Objects\132a.jpg,137,0,138,,,,,,,None,j,4.29367810000258,None,,,,,,138,0,137,776.615830099996,,,,,,,,,,,,,,,,,,,,,,,776.600581199993,776.615830099996,777.0995513999951,,,,,,,,,,,,,,777.1161314999918,,,,,,,,,,777.1064325999905,777.1161314999918,777.1161314999918,777.1161314999918,780.101081300003,None,780.1012570000021,780.1158600999916,780.1158600999916,784.4163685999956,j,4.29367810000258,None,780.1158600999916,780.1158600999916,780.1158600999916,,,,,,,,,,,,00050,001,2026-01-25_11h21.39.278,MST_task,2024.2.0,59.872065370619765,2026-01-25 11h21.46.216966 +0530,
,Objects\019a.jpg,138,0,139,,,,,,,None,f,0.26035769999725744,None,,,,,,139,0,138,784.4334794000024,,,,,,,,,,,,,,,,,,,,,,,784.4168159999972,784.4334794000024,784.916220500003,,,,,,,,,,,,,,784.9456762999907,,,,,,,,,,784.9428936999902,784.9456762999907,784.9456762999907,784.9456762999907,787.9329016999982,None,787.9330910999997,787.949160499993,787.949160499993,788.216073699994,f,0.26035769999725744,None,,,,,,,,,,,,,,,00050,001,2026-01-25_11h21.39.278,MST_task,2024.2.0,59.872065370619765,2026-01-25 11h21.46.216966 +0530,
,Objects\189a.jpg,139,0,140,,,,,,,None,f,1.7571766000037314,None,,,,,,140,0,139,788.2324725999933,,,,,,,,,,,,,,,,,,,,,,,788.2164017000032,788.2324725999933,788.7167969000002,,,,,,,,,,,,,,,,,,,,,,,,788.7261350000044,788.7326355999976,788.7326355999976,788.7326355999976,791.7169184999948,None,791.7170920999924,791.7323656999943,791.7323656999943,793.4996470000042,f,1.7571766000037314,None,791.7323656999943,791.7323656999943,791.7323656999943,,,,,,,,,,,,00050,001,2026-01-25_11h21.39.278,MST_task,2024.2.0,59.872065370619765,2026-01-25 11h21.46.216966 +0530,
,Scenes\054a.jpg,140,0,141,,,,,,,None,j,0.3684291999961715,None,,,,,,141,0,140,793.5158794000017,,,,,,,,,,,,,,,,,,,,,,,793.5000967999949,793.5158794000017,793.9994673000037,,,,,,,,,,,,,,794.0207566000026,,,,,,,,,,794.0181234999909,794.0207566000026,794.0207566000026,794.0207566000026,797.0162502000021,None,797.0164316000009,797.0325096000015,797.0325096000015,797.4163540000009,j,0.3684291999961715,None,,,,,,,,,,,,,,,00050,001,2026-01-25_11h21.39.278,MST_task,2024.2.0,59.872065370619765,2026-01-25 11h21.46.216966 +0530,
,Scenes\046a.jpg,141,0,142,,,,,,,None,j,0.38839579999330454,None,,,,,,142,0,141,797.4325116999971,,,,,,,,,,,,,,,,,,,,,,,797.4168046999985,797.4325116999971,797.9162544999999,,,,,,,,,,,,,,797.9395137999963,,,,,,,,,,797.9367150000035,797.9395137999963,797.9395137999963,797.9395137999963,800.9329465999908,None,800.9331485000002,800.9491253000015,800.9491253000015,801.3496329000045,j,0.38839579999330454,None,,,,,,,,,,,,,,,00050,001,2026-01-25_11h21.39.278,MST_task,2024.2.0,59.872065370619765,2026-01-25 11h21.46.216966 +0530,
,Scenes\123a.jpg,142,0,143,,,,,,,None,j,0.48701910000818316,None,,,,,,143,0,142,801.3657099999982,,,,,,,,,,,,,,,,,,,,,,,801.3501447000017,801.3657099999982,801.8495486000029,,,,,,,,,,,,,,801.8749279999902,,,,,,,,,,801.8718038999941,801.8749279999902,801.8749279999902,801.8749279999902,804.8662325000041,None,804.8664400999987,804.8825026999984,804.8825026999984,805.3830166999978,j,0.48701910000818316,None,,,,,,,,,,,,,,,00050,001,2026-01-25_11h21.39.278,MST_task,2024.2.0,59.872065370619765,2026-01-25 11h21.46.216966 +0530,
,Scenes\104a.jpg,143,0,144,,,,,,,None,j,0.4137691999931121,None,,,,,,144,0,143,805.3989693999902,,,,,,,,,,,,,,,,,,,,,,,805.3834728999936,805.3989693999902,805.8829031999921,,,,,,,,,,,,,,805.9111956999986,,,,,,,,,,805.9084490999958,805.9111956999986,805.9111956999986,805.9111956999986,808.8992919000011,None,808.8994667999941,808.9157376999938,808.9157376999938,809.3330195000017,j,0.4137691999931121,None,,,,,,,,,,,,,,,00050,001,2026-01-25_11h21.39.278,MST_task,2024.2.0,59.872065370619765,2026-01-25 11h21.46.216966 +0530,
,Scenes\115a.jpg,144,0,145,,,,,,,None,j,0.3673469000059413,None,,,,,,145,0,144,809.3491181999998,,,,,,,,,,,,,,,,,,,,,,,809.3333484000032,809.3491181999998,809.8329280000034,,,,,,,,,,,,,,809.8590929999918,,,,,,,,,,809.8558967999998,809.8590929999918,809.8590929999918,809.8590929999918,812.8494948000007,None,812.8496722999989,812.8658475999982,812.8658475999982,813.2494546999951,j,0.3673469000059413,None,,,,,,,,,,,,,,,00050,001,2026-01-25_11h21.39.278,MST_task,2024.2.0,59.872065370619765,2026-01-25 11h21.46.216966 +0530,
,Scenes\111a.jpg,145,0,146,,,,,,,None,j,0.2749574999907054,None,,,,,,146,0,145,813.2658200000005,,,,,,,,,,,,,,,,,,,,,,,813.2496319999918,813.2658200000005,813.7492861999926,,,,,,,,,,,,,,813.7662426000024,,,,,,,,,,813.7624765999935,813.7662426000024,813.7662426000024,813.7662426000024,816.7499529999914,None,816.7501301000011,816.7658665999916,816.7658665999916,817.0496625999949,j,0.2749574999907054,None,816.7658665999916,816.7658665999916,816.7658665999916,,,,,,,,,,,,00050,001,2026-01-25_11h21.39.278,MST_task,2024.2.0,59.872065370619765,2026-01-25 11h21.46.216966 +0530,
,Scenes\122a.jpg,146,0,147,,,,,,,None,f,0.32296109999879263,None,,,,,,147,0,146,817.0658550999942,,,,,,,,,,,,,,,,,,,,,,,817.0500197999936,817.0658550999942,817.549357099997,,,,,,,,,,,,,,817.5817825999984,,,,,,,,,,817.5788628000009,817.5817825999984,817.5817825999984,817.5817825999984,820.5662882000033,None,820.5664854999923,820.582541900003,820.582541900003,820.9160157000006,f,0.32296109999879263,None,,,,,,,,,,,,,,,00050,001,2026-01-25_11h21.39.278,MST_task,2024.2.0,59.872065370619765,2026-01-25 11h21.46.216966 +0530,
,Objects\111a.jpg,147,0,148,,,,,,,None,f,5.024967399993329,None,,,,,,148,0,147,820.9325083000003,,,,,,,,,,,,,,,,,,,,,,,820.9164722999994,820.9325083000003,821.4160216000018,,,,,,,,,,,,,,821.4328464999999,,,,,,,,,,821.4250382000027,821.4328464999999,821.4328464999999,821.4328464999999,824.4167795999965,None,824.4169630999968,824.4325173999969,824.4325173999969,829.4663035999984,f,5.024967399993329,None,824.4325173999969,824.4325173999969,824.4325173999969,,,,,,,,,,,,00050,001,2026-01-25_11h21.39.278,MST_task,2024.2.0,59.872065370619765,2026-01-25 11h21.46.216966 +0530,
,Objects\167a.jpg,148,0,149,,,,,,,None,f,0.9137026999960653,None,,,,,,149,0,148,829.4824669999944,,,,,,,,,,,,,,,,,,,,,,,829.4668358999916,829.4824669999944,829.9662252999988,,,,,,,,,,,,,,829.9894232999941,,,,,,,,,,829.9866886999953,829.9894232999941,829.9894232999941,829.9894232999941,832.9829388999933,None,832.9831265999965,832.9991178999917,832.9991178999917,833.9160227999964,f,0.9137026999960653,None,,,,,,,,,,,,,,,00050,001,2026-01-25_11h21.39.278,MST_task,2024.2.0,59.872065370619765,2026-01-25 11h21.46.216966 +0530,
,Objects\034a.jpg,149,0,150,,,,,,,None,f,0.31203309999546036,None,,,,,,150,0,149,833.9323132999998,,,,,,,,,,,,,,,,,,,,,,,833.9163518999994,833.9323132999998,834.4162387999968,,,,,,,,,,,,,,834.4388400000025,,,,,,,,,,834.436712499999,834.4388400000025,834.4388400000025,834.4388400000025,837.4326350999909,None,837.4328120999999,837.4491010999918,837.4491010999918,837.7661989999906,f,0.31203309999546036,None,,,,,,,,,,,,,,,00050,001,2026-01-25_11h21.39.278,MST_task,2024.2.0,59.872065370619765,2026-01-25 11h21.46.216966 +0530,
,Objects\056a.jpg,150,0,151,,,,,,,None,f,2.1423104999994393,None,,,,,,151,0,150,837.7824555999978,,,,,,,,,,,,,,,,,,,,,,,837.7666809999937,837.7824555999978,838.2662492999953,,,,,,,,,,,,,,838.2825413999963,,,,,,,,,,838.2747792000009,838.2825413999963,838.2825413999963,838.2825413999963,841.2671451999922,None,841.267310700001,841.2825253999908,841.2825253999908,843.4326366000023,f,2.1423104999994393,None,841.2825253999908,841.2825253999908,841.2825253999908,,,,,,,,,,,,00050,001,2026-01-25_11h21.39.278,MST_task,2024.2.0,59.872065370619765,2026-01-25 11h21.46.216966 +0530,
,Objects\164a.jpg,151,0,152,,,,,,,None,f,0.3642575999983819,None,,,,,,152,0,151,843.4487179999996,,,,,,,,,,,,,,,,,,,,,,,843.432974299998,843.4487179999996,843.9323136000021,,,,,,,,,,,,,,843.9490949000028,,,,,,,,,,843.9395709999953,843.9490949000028,843.9490949000028,843.9490949000028,846.9326691000024,None,846.932747400002,846.9484236999997,846.9484236999997,847.3156847999926,f,0.3642575999983819,None,846.9484236999997,846.9484236999997,846.9484236999997,,,,,,,,,,,,00050,001,2026-01-25_11h21.39.278,MST_task,2024.2.0,59.872065370619765,2026-01-25 11h21.46.216966 +0530,
,Objects\041a.jpg,152,0,153,,,,,,,None,f,0.5606221999914851,None,,,,,,153,0,152,847.3318795999949,,,,,,,,,,,,,,,,,,,,,,,847.3160757000005,847.3318795999949,847.815526099992,,,,,,,,,,,,,,847.8329597999982,,,,,,,,,,847.8227073000016,847.8329597999982,847.8329597999982,847.8329597999982,850.8166922999953,None,850.8168704999989,850.8321368000034,850.8321368000034,851.398984799991,f,0.5606221999914851,None,850.8321368000034,850.8321368000034,850.8321368000034,,,,,,,,,,,,00050,001,2026-01-25_11h21.39.278,MST_task,2024.2.0,59.872065370619765,2026-01-25 11h21.46.216966 +0530,
,Objects\067a.jpg,153,0,154,,,,,,,None,f,0.821852500012028,None,,,,,,154,0,153,851.4151439999987,,,,,,,,,,,,,,,,,,,,,,,851.3993788999942,851.4151439999987,851.8993499999924,,,,,,,,,,,,,,,,,,,,,,,,851.9088976999919,851.9161000000022,851.9161000000022,851.9161000000022,854.8994946000021,None,854.8996723000018,854.9156060999958,854.9156060999958,855.7496677000017,f,0.821852500012028,None,,,,,,,,,,,,,,,00050,001,2026-01-25_11h21.39.278,MST_task,2024.2.0,59.872065370619765,2026-01-25 11h21.46.216966 +0530,
,Scenes\136a.jpg,154,0,155,,,,,,,None,j,0.5663194999942789,None,,,,,,155,0,154,855.7655698000017,,,,,,,,,,,,,,,,,,,,,,,855.7500686999992,855.7655698000017,856.2494999000046,,,,,,,,,,,,,,856.2766545999912,,,,,,,,,,856.2741086000024,856.2766545999912,856.2766545999912,856.2766545999912,859.2663326000038,None,859.266447499991,859.2825078000023,859.2825078000023,859.8497504999978,j,0.5663194999942789,None,,,,,,,,,,,,,,,00050,001,2026-01-25_11h21.39.278,MST_task,2024.2.0,59.872065370619765,2026-01-25 11h21.46.216966 +0530,
,Scenes\030a.jpg,155,0,156,,,,,,,None,j,1.0594643000076758,None,,,,,,156,0,155,859.8658427000046,,,,,,,,,,,,,,,,,,,,,,,859.8502440000011,859.8658427000046,860.3495265999954,,,,,,,,,,,,,,860.3830901000038,,,,,,,,,,860.3802043000032,860.3830901000038,860.3830901000038,860.3830901000038,863.3663193999964,None,863.3665054000012,863.3823446000024,863.3823446000024,864.4496092000045,j,1.0594643000076758,None,,,,,,,,,,,,,,,00050,001,2026-01-25_11h21.39.278,MST_task,2024.2.0,59.872065370619765,2026-01-25 11h21.46.216966 +0530,
,Scenes\095a.jpg,156,0,157,,,,,,,None,f,0.24370629999611992,None,,,,,,157,0,156,864.465850499997,,,,,,,,,,,,,,,,,,,,,,,864.449941999992,864.465850499997,864.948980599991,,,,,,,,,,,,,,864.9664899999916,,,,,,,,,,864.9606328999944,864.9664899999916,864.9664899999916,864.9664899999916,867.9501746000024,None,867.9503480999992,867.9657242999965,867.9657242999965,868.216411699992,f,0.24370629999611992,None,867.9657242999965,867.9657242999965,867.9657242999965,,,,,,,,,,,,00050,001,2026-01-25_11h21.39.278,MST_task,2024.2.0,59.872065370619765,2026-01-25 11h21.46.216966 +0530,
,Scenes\066a.jpg,157,0,158,,,,,,,None,j,0.2931963999872096,None,,,,,,158,0,157,868.2323534000025,,,,,,,,,,,,,,,,,,,,,,,868.216863099995,868.2323534000025,868.7159086000029,,,,,,,,,,,,,,868.7328490999935,,,,,,,,,,868.7259838000027,868.7328490999935,868.7328490999935,868.7328490999935,871.7170199999964,None,871.7171866999997,871.7322278999927,871.7322278999927,872.0331092999986,j,0.2931963999872096,None,871.7322278999927,871.7322278999927,871.7322278999927,,,,,,,,,,,,00050,001,2026-01-25_11h21.39.278,MST_task,2024.2.0,59.872065370619765,2026-01-25 11h21.46.216966 +0530,
,Scenes\081a.jpg,158,0,159,,,,,,,None,j,0.5637338999949861,None,,,,,,159,0,158,872.0491007999954,,,,,,,,,,,,,,,,,,,,,,,872.0335824999929,872.0491007999954,872.5327667999954,,,,,,,,,,,,,,872.5672742000024,,,,,,,,,,872.5625856999977,872.5672742000024,872.5672742000024,872.5672742000024,875.5495028000005,None,875.5496767000004,875.5657510000019,875.5657510000019,876.1327387999918,j,0.5637338999949861,None,,,,,,,,,,,,,,,00050,001,2026-01-25_11h21.39.278,MST_task,2024.2.0,59.872065370619765,2026-01-25 11h21.46.216966 +0530,
,Scenes\052a.jpg,159,0,160,,,,,,,None,j,6.71112500000163,None,,,,,,160,0,159,876.1493990000017,,,,,,,,,,,,,,,,,,,,,,,876.1331860999926,876.1493990000017,876.6324153000023,,,,,,,,,,,,,,876.6527533000044,,,,,,,,,,876.6503090000042,876.6527533000044,876.6527533000044,876.6527533000044,879.6493618999957,None,879.6495409999916,879.6658423000044,879.6658423000044,886.3827487999952,j,6.71112500000163,None,,,,,,,,,,,,,,,00050,001,2026-01-25_11h21.39.278,MST_task,2024.2.0,59.872065370619765,2026-01-25 11h21.46.216966 +0530,
,Scenes\062a.jpg,160,0,161,,,,,,,None,j,0.3012882999901194,None,,,,,,161,0,160,886.3986981999915,,,,,,,,,,,,,,,,,,,,,,,886.3830782000005,886.3986981999915,886.8825390999991,,,,,,,,,,,,,,886.9124688000011,,,,,,,,,,886.9101308999961,886.9124688000011,886.9124688000011,886.9124688000011,889.8993716999976,None,889.8995591999992,889.9155623999977,889.9155623999977,890.233018400002,j,0.3012882999901194,None,,,,,,,,,,,,,,,00050,001,2026-01-25_11h21.39.278,MST_task,2024.2.0,59.872065370619765,2026-01-25 11h21.46.216966 +0530,
,Objects\094a.jpg,161,0,162,,,,,,,None,f,1.5310059000039473,None,,,,,,162,0,161,890.2490948999912,,,,,,,,,,,,,,,,,,,,,,,890.2334685999958,890.2490948999912,890.733031900003,,,,,,,,,,,,,,890.7612324999936,,,,,,,,,,890.757102699994,890.7612324999936,890.7612324999936,890.7612324999936,893.7495022999938,None,893.7497162999935,893.7658536999952,893.7658536999952,895.2992372000008,f,1.5310059000039473,None,,,,,,,,,,,,,,,00050,001,2026-01-25_11h21.39.278,MST_task,2024.2.0,59.872065370619765,2026-01-25 11h21.46.216966 +0530,
,Objects\088a.jpg,162,0,163,,,,,,,f,None,,,2.8042143000056967,0.14416070000152104,,,,163,0,162,895.3153590000002,,,,,,,,,,,,,,,,,,,,,,,895.2995464999985,895.3153590000002,895.7991795999988,,,,,,,,,,,,,,895.8205641999957,,,,,,,,,,895.818180000002,895.8205641999957,895.8205641999957,895.8205641999957,898.8158892999927,f,898.8160893000022,,,898.8161561000015,None,,,,,,2.8042143000056967,0.14416070000152104,,,,,,,,,,00050,001,2026-01-25_11h21.39.278,MST_task,2024.2.0,59.872065370619765,2026-01-25 11h21.46.216966 +0530,
,Objects\155a.jpg,163,0,164,,,,,,,None,f,0.31581980000191834,None,,,,,,164,0,163,898.8322082999948,,,,,,,,,,,,,,,,,,,,,,,898.8165291999903,898.8322082999948,899.3160346999939,,,,,,,,,,,,,,899.3394850000041,,,,,,,,,,899.3368760000012,899.3394850000041,899.3394850000041,899.3394850000041,902.3324770000036,None,902.3325872999994,902.3488016999909,902.3488016999909,902.6657516999985,f,0.31581980000191834,None,,,,,,,,,,,,,,,00050,001,2026-01-25_11h21.39.278,MST_task,2024.2.0,59.872065370619765,2026-01-25 11h21.46.216966 +0530,
,Objects\185a.jpg,164,0,165,,,,,,,None,f,0.33038220000162255,None,,,,,,165,0,164,902.682008799995,,,,,,,,,,,,,,,,,,,,,,,902.6662096999935,902.682008799995,903.166067099999,,,,,,,,,,,,,,903.1917648999952,,,,,,,,,,903.189116900001,903.1917648999952,903.1917648999952,903.1917648999952,906.1826950999966,None,906.1828910999902,906.1986596999923,906.1986596999923,906.5332430999988,f,0.33038220000162255,None,,,,,,,,,,,,,,,00050,001,2026-01-25_11h21.39.278,MST_task,2024.2.0,59.872065370619765,2026-01-25 11h21.46.216966 +0530,
,Objects\064a.jpg,165,0,166,,,,,,,None,j,0.4306335000001127,None,,,,,,166,0,165,906.5486804999964,,,,,,,,,,,,,,,,,,,,,,,906.5337582999928,906.5486804999964,907.0325434999977,,,,,,,,,,,,,,907.0553046999994,,,,,,,,,,907.052496999997,907.0553046999994,907.0553046999994,907.0553046999994,910.0492853000032,None,910.0494603999978,910.0656772999937,910.0656772999937,910.4986560999969,j,0.4306335000001127,None,,,,,,,,,,,,,,,00050,001,2026-01-25_11h21.39.278,MST_task,2024.2.0,59.872065370619765,2026-01-25 11h21.46.216966 +0530,
,Objects\177a.jpg,166,0,167,,,,,,,None,j,0.8654921999986982,None,,,,,,167,0,166,910.5153764999995,,,,,,,,,,,,,,,,,,,,,,,910.4988108999969,910.5153764999995,910.9985970999987,,,,,,,,,,,,,,911.0179973999911,,,,,,,,,,911.0154077999905,911.0179973999911,911.0179973999911,911.0179973999911,913.9992001999926,None,913.9993834999914,914.0155219000007,914.0155219000007,914.8826835999935,j,0.8654921999986982,None,,,,,,,,,,,,,,,00050,001,2026-01-25_11h21.39.278,MST_task,2024.2.0,59.872065370619765,2026-01-25 11h21.46.216966 +0530,
,Objects\038a.jpg,167,0,168,,,,,,,None,f,0.24142140000185464,None,,,,,,168,0,167,914.898898600004,,,,,,,,,,,,,,,,,,,,,,,914.8832355999912,914.898898600004,915.3822150999913,,,,,,,,,,,,,,915.4003167000046,,,,,,,,,,915.3972016999905,915.4003167000046,915.4003167000046,915.4003167000046,918.3988152999955,None,918.3989685999986,918.4151936999988,918.4151936999988,918.6656452000025,f,0.24142140000185464,None,,,,,,,,,,,,,,,00050,001,2026-01-25_11h21.39.278,MST_task,2024.2.0,59.872065370619765,2026-01-25 11h21.46.216966 +0530,
,Scenes\069a.jpg,168,0,169,,,,,,,None,j,0.36228509999637026,None,,,,,,169,0,168,918.6822451999906,,,,,,,,,,,,,,,,,,,,,,,918.6660300999938,918.6822451999906,919.1659725999925,,,,,,,,,,,,,,919.1828970999923,,,,,,,,,,919.1771388999914,919.1828970999923,919.1828970999923,919.1828970999923,922.1662169999909,None,922.1662763999921,922.1821381999907,922.1821381999907,922.5487801999989,j,0.36228509999637026,None,922.1821381999907,922.1821381999907,922.1821381999907,,,,,,,,,,,,00050,001,2026-01-25_11h21.39.278,MST_task,2024.2.0,59.872065370619765,2026-01-25 11h21.46.216966 +0530,
