Sl_no,image_path,thisN,thisTrialN,thisRepN,key_resp_5.keys,key_resp_7.keys,key_resp_7.rt,key_resp_7.duration,key_resp_5.rt,key_resp_5.duration,key_resp_9.keys,key_resp_9.rt,key_resp_9.duration,key_resp_8.keys,key_resp_8.rt,key_resp_8.duration,practice.thisRepN,practice.thisTrialN,practice.thisN,trials.thisRepN,trials.thisTrialN,trials.thisN,thisRow.t,notes,welcome_page.started,text.started,key_resp.started,welcome_page.stopped,key_resp.keys,key_resp.rt,key_resp.duration,instructions.started,ins.started,key_resp_2.started,instructions.stopped,key_resp_2.keys,key_resp_2.rt,key_resp_2.duration,objects_only_instruction.started,text_3.started,key_resp_3.started,objects_only_instruction.stopped,key_resp_3.keys,key_resp_3.rt,key_resp_3.duration,ISI.started,text_4.started,ISI.stopped,practice_block.started,image.started,text_5.started,key_resp_5.started,practice_block.stopped,practice.key_resp_5.keys,indoor_outdoor.started,text_7.started,key_resp_7.started,indoor_outdoor.stopped,practice.key_resp_7.keys,practice.key_resp_7.rt,practice.key_resp_7.duration,text_4.stopped,practice.key_resp_5.rt,practice.key_resp_5.duration,practice_to_main.started,text_2.started,key_resp_4.started,practice_to_main.stopped,key_resp_4.keys,key_resp_4.rt,key_resp_4.duration,objects.started,image_2.started,text_9.started,key_resp_9.started,objects.stopped,trials.key_resp_9.keys,trials.key_resp_9.rt,trials.key_resp_9.duration,encoding_task.started,encoding_task.stopped,trials.key_resp_8.keys,text_8.started,key_resp_8.started,trials.key_resp_8.rt,trials.key_resp_8.duration,image_2.stopped,text_9.stopped,key_resp_9.stopped,end_experiment.started,text_6.started,key_resp_6.started,end_experiment.stopped,key_resp_6.keys,key_resp_6.rt,key_resp_6.duration,list_of_stimuli,encoding_task_accuracy,participant,session,date,expName,psychopyVersion,frameRate,expStart,
,,,,,,,,,,,,,,,,,,,,,,,,,0.0014091999910306185,0.003487799986032769,0.003487799986032769,19.787806799984537,space,19.707282999996096,None,,,,,,,,,,,,,,,,,,,,,,,,,,,,,,,,,,,,,,,,,,,,,,,,,,,,,,,,,,,,,,,,,,,,00032,001,2026-01-21_17h29.13.240,MST_task,2024.2.0,60.11089257577618,2026-01-21 17h29.20.067495 +0530,
,,,,,,,,,,,,,,,,,,,,,,,,,,,,,,,,19.78786719997879,19.801633099996252,19.801633099996252,52.55733329997747,space,32.741051599994535,None,,,,,,,,,,,,,,,,,,,,,,,,,,,,,,,,,,,,,,,,,,,,,,,,,,,,,,,,,,,,,00032,001,2026-01-21_17h29.13.240,MST_task,2024.2.0,60.11089257577618,2026-01-21 17h29.20.067495 +0530,
,,,,,,,,,,,,,,,,,,,,,,,,,,,,,,,,,,,,,,,52.55746139999246,52.58019439998316,52.58019439998316,80.05736340000294,space,27.474247499980265,None,,,,,,,,,,,,,,,,,,,,,,,,,,,,,,,,,,,,,,,,,,,,,,,,,,,,,,00032,001,2026-01-21_17h29.13.240,MST_task,2024.2.0,60.11089257577618,2026-01-21 17h29.20.067495 +0530,
8,practice_images/178a.jpg,0,0,1,None,j,0.33592729998053983,None,,,,,,,,,1,0,0,,,,80.08278470000369,,,,,,,,,,,,,,,,,,,,,,,80.08047620000434,80.08278470000369,80.57368089997908,80.60045420000097,80.63144779999857,80.63144779999857,80.63144779999857,83.57408219997887,None,83.58109779999359,83.58999149998999,83.58999149998999,83.94058450000011,j,0.33592729998053983,None,,,,,,,,,,,,,,,,,,,,,,,,,,,,,,,,,,,,,,00032,001,2026-01-21_17h29.13.240,MST_task,2024.2.0,60.11089257577618,2026-01-21 17h29.20.067495 +0530,
9,practice_images/180a.jpg,1,1,1,f,None,,,2.872269099985715,None,,,,,,,1,1,1,,,,83.9565292999905,,,,,,,,,,,,,,,,,,,,,,,83.94091289999778,83.9565292999905,84.44065019997652,84.46011949999956,84.46259629999986,84.46259629999986,84.46259629999986,87.45683119999012,f,87.45702539998456,,,87.45709290000377,None,,,84.46259629999986,2.872269099985715,None,,,,,,,,,,,,,,,,,,,,,,,,,,,,,,,,,,,00032,001,2026-01-21_17h29.13.240,MST_task,2024.2.0,60.11089257577618,2026-01-21 17h29.20.067495 +0530,
5,practice_images/139a.jpg,2,2,1,j,None,,,1.7314686000172514,0.13598950000596233,,,,,,,1,2,2,,,,87.47304219999933,,,,,,,,,,,,,,,,,,,,,,,87.45727069998975,87.47304219999933,87.95717059998424,87.97598699998343,87.97896979999496,87.97896979999496,87.97896979999496,90.97340739998617,j,90.97360860000481,,,90.97367839998333,None,,,87.97896979999496,1.7314686000172514,0.13598950000596233,,,,,,,,,,,,,,,,,,,,,,,,,,,,,,,,,,,00032,001,2026-01-21_17h29.13.240,MST_task,2024.2.0,60.11089257577618,2026-01-21 17h29.20.067495 +0530,
2,practice_images/031a.jpg,3,3,1,f,None,,,1.2857736999867484,0.15971540001919493,,,,,,,1,3,3,,,,90.98989870000514,,,,,,,,,,,,,,,,,,,,,,,90.97399090000545,90.98989870000514,91.47375809997902,91.49359689999255,91.49684310000157,91.49684310000157,91.49684310000157,94.49047029999201,f,94.49068190000253,,,94.49075149997952,None,,,91.49684310000157,1.2857736999867484,0.15971540001919493,,,,,,,,,,,,,,,,,,,,,,,,,,,,,,,,,,,00032,001,2026-01-21_17h29.13.240,MST_task,2024.2.0,60.11089257577618,2026-01-21 17h29.20.067495 +0530,
6,practice_images/158a.jpg,4,4,1,j,None,,,1.6519437000097241,0.14399899999261834,,,,,,,1,4,4,,,,94.50646889998461,,,,,,,,,,,,,,,,,,,,,,,94.49104900000384,94.50646889998461,94.99116929998854,95.00696699999389,95.01025870000012,95.01025870000012,95.01025870000012,98.00713689997792,j,98.00732979999157,,,98.00739409998641,None,,,,1.6519437000097241,0.14399899999261834,,,,,,,,,,,,,,,,,,,,,,,,,,,,,,,,,,,00032,001,2026-01-21_17h29.13.240,MST_task,2024.2.0,60.11089257577618,2026-01-21 17h29.20.067495 +0530,
10,practice_images/182a.jpg,5,5,1,f,None,,,1.345852600003127,0.13603090000106022,,,,,,,1,5,5,,,,98.02341429999797,,,,,,,,,,,,,,,,,,,,,,,98.0077023000049,98.02341429999797,98.50715940000373,98.52126529999077,98.52474520000396,98.52474520000396,98.52474520000396,101.52374029997736,f,101.52392809998128,,,101.52399859999423,None,,,98.52474520000396,1.345852600003127,0.13603090000106022,,,,,,,,,,,,,,,,,,,,,,,,,,,,,,,,,,,00032,001,2026-01-21_17h29.13.240,MST_task,2024.2.0,60.11089257577618,2026-01-21 17h29.20.067495 +0530,
3,practice_images/037a.jpg,6,6,1,f,None,,,1.800097300001653,0.16820990000269376,,,,,,,1,6,6,,,,101.54083439998794,,,,,,,,,,,,,,,,,,,,,,,101.52427669998724,101.54083439998794,102.02416800000356,102.04309649998322,102.04631740000332,102.04631740000332,102.04631740000332,105.04030150000472,f,105.04050719999941,,,105.0405780999863,None,,,102.04631740000332,1.800097300001653,0.16820990000269376,,,,,,,,,,,,,,,,,,,,,,,,,,,,,,,,,,,00032,001,2026-01-21_17h29.13.240,MST_task,2024.2.0,60.11089257577618,2026-01-21 17h29.20.067495 +0530,
7,practice_images/166a.jpg,7,7,1,f,None,,,1.4045713000232354,0.14360640000086278,,,,,,,1,7,7,,,,105.05645409997669,,,,,,,,,,,,,,,,,,,,,,,105.04085349998786,105.05645409997669,105.54077699998743,105.55895499998587,105.5620422999782,105.5620422999782,105.5620422999782,108.55697119998513,f,108.55717210000148,,,108.55723679999937,None,,,,1.4045713000232354,0.14360640000086278,,,,,,,,,,,,,,,,,,,,,,,,,,,,,,,,,,,00032,001,2026-01-21_17h29.13.240,MST_task,2024.2.0,60.11089257577618,2026-01-21 17h29.20.067495 +0530,
4,practice_images/002b.jpg,8,8,1,None,f,2.372291599982418,None,,,,,,,,,1,8,8,,,,108.57303460000549,,,,,,,,,,,,,,,,,,,,,,,108.55752249999205,108.57303460000549,109.05708119997871,109.07673649999197,109.07971910000197,109.07971910000197,109.07971910000197,112.07374870000058,None,112.07392279998749,112.08993719998398,112.08993719998398,114.47352030000184,f,2.372291599982418,None,109.07971910000197,,,,,,,,,,,,,,,,,,,,,,,,,,,,,,,,,,,,,00032,001,2026-01-21_17h29.13.240,MST_task,2024.2.0,60.11089257577618,2026-01-21 17h29.20.067495 +0530,
1,practice_images/013a.jpg,9,9,1,j,None,,,1.1714149999897927,0.11223970001447015,,,,,,,1,9,9,,,,114.49075179998181,,,,,,,,,,,,,,,,,,,,,,,114.47383829997852,114.49075179998181,114.97370999999112,114.99210229999153,114.9951775999798,114.9951775999798,114.9951775999798,117.99047379998956,j,117.9906635999796,,,117.99073399999179,None,,,114.9951775999798,1.1714149999897927,0.11223970001447015,,,,,,,,,,,,,,,,,,,,,,,,,,,,,,,,,,,00032,001,2026-01-21_17h29.13.240,MST_task,2024.2.0,60.11089257577618,2026-01-21 17h29.20.067495 +0530,
,,,,,,,,,,,,,,,,,,,,,,,,,,,,,,,,,,,,,,,,,,,,,,,,,,,,,,,,,,,,,,,,,117.99091929997667,118.00745969999116,118.00745969999116,135.49068580000312,space,17.478494699986186,None,,,,,,,,,,,,,,,,,,,,,,,,,,,,00032,001,2026-01-21_17h29.13.240,MST_task,2024.2.0,60.11089257577618,2026-01-21 17h29.20.067495 +0530,
,Scenes\153a.jpg,0,0,1,,,,,,,j,1.0152296999876853,0.09628900000825524,None,,,,,,1,0,0,135.50657489997684,,,,,,,,,,,,,,,,,,,,,,,135.49408249999397,135.50657489997684,135.9904511999921,,,,,,,,,,,,,,136.03074529999867,,,,,,,,,,136.02735960000427,136.03074529999867,136.03074529999867,136.03074529999867,139.0069908000005,j,1.0152296999876853,0.09628900000825524,139.01353430000017,139.01357609999832,None,,,,,,,,,,,,,,,,,00032,001,2026-01-21_17h29.13.240,MST_task,2024.2.0,60.11089257577618,2026-01-21 17h29.20.067495 +0530,
,Scenes\028a.jpg,1,0,2,,,,,,,j,1.2452664999873377,0.13556130000506528,None,,,,,,2,0,1,139.023381099978,,,,,,,,,,,,,,,,,,,,,,,139.01377389999107,139.023381099978,139.5069278999872,,,,,,,,,,,,,,139.53736610000487,,,,,,,,,,139.53475199997774,139.53736610000487,139.53736610000487,139.53736610000487,142.52408179998747,j,1.2452664999873377,0.13556130000506528,142.52428699997836,142.52435449999757,None,,,,,,,,,,,,,,,,,00032,001,2026-01-21_17h29.13.240,MST_task,2024.2.0,60.11089257577618,2026-01-21 17h29.20.067495 +0530,
,Scenes\169a.jpg,2,0,3,,,,,,,j,0.9832412000105251,0.10364849999314174,None,,,,,,3,0,2,142.53976279997732,,,,,,,,,,,,,,,,,,,,,,,142.5247323999938,142.53976279997732,143.02365699998336,,,,,,,,,,,,,,143.05537769998773,,,,,,,,,,143.0525330999808,143.05537769998773,143.05537769998773,143.05537769998773,146.04047869998612,j,0.9832412000105251,0.10364849999314174,146.04067709998344,146.04074169998057,None,,,,,,,,,,,,,,,,,00032,001,2026-01-21_17h29.13.240,MST_task,2024.2.0,60.11089257577618,2026-01-21 17h29.20.067495 +0530,
,Scenes\011a.jpg,3,0,4,,,,,,,j,1.6397829999914393,0.10467030000290833,None,,,,,,4,0,3,146.05675299998256,,,,,,,,,,,,,,,,,,,,,,,146.04103769999347,146.05675299998256,146.5401612999849,,,,,,,,,,,,,,146.57436159998178,,,,,,,,,,146.5714676999778,146.57436159998178,146.57436159998178,146.57436159998178,149.55717119999463,j,1.6397829999914393,0.10467030000290833,149.5573713000049,149.5574379999889,None,,,,,,,,,,,,,,,,,00032,001,2026-01-21_17h29.13.240,MST_task,2024.2.0,60.11089257577618,2026-01-21 17h29.20.067495 +0530,
,Scenes\159a.jpg,4,0,5,,,,,,,j,1.059614799974952,0.1441917000047397,None,,,,,,5,0,4,149.5733704000013,,,,,,,,,,,,,,,,,,,,,,,149.55779329998768,149.5733704000013,150.05698329998995,,,,,,,,,,,,,,150.09036839997862,,,,,,,,,,150.0873019999999,150.09036839997862,150.09036839997862,150.09036839997862,153.07334780000383,j,1.059614799974952,0.1441917000047397,153.07357429998228,153.07364159999997,None,,,,,,,,,,,,,,,,,00032,001,2026-01-21_17h29.13.240,MST_task,2024.2.0,60.11089257577618,2026-01-21 17h29.20.067495 +0530,
,Scenes\075a.jpg,5,0,6,,,,,,,j,1.163325099973008,0.12758490000851452,None,,,,,,6,0,5,153.0900918999978,,,,,,,,,,,,,,,,,,,,,,,153.07398469999316,153.0900918999978,153.573754299985,,,,,,,,,,,,,,153.60328749998007,,,,,,,,,,153.60065889998805,153.60328749998007,153.60328749998007,153.60328749998007,156.5902959999803,j,1.163325099973008,0.12758490000851452,156.59050229997956,156.59057079997729,None,,,,,,,,,,,,,,,,,00032,001,2026-01-21_17h29.13.240,MST_task,2024.2.0,60.11089257577618,2026-01-21 17h29.20.067495 +0530,
,Scenes\074a.jpg,6,0,7,,,,,,,j,1.0143163000175264,0.15165749998413958,None,,,,,,7,0,6,156.60657029997674,,,,,,,,,,,,,,,,,,,,,,,156.59094829999958,156.60657029997674,157.09042759999284,,,,,,,,,,,,,,157.12028390000341,,,,,,,,,,157.11744410000392,157.12028390000341,157.12028390000341,157.12028390000341,160.10718809999526,j,1.0143163000175264,0.15165749998413958,160.1073871999979,160.10745280000265,None,,,,,,,,,,,,,,,,,00032,001,2026-01-21_17h29.13.240,MST_task,2024.2.0,60.11089257577618,2026-01-21 17h29.20.067495 +0530,
,Objects\153a.jpg,7,0,8,,,,,,,f,0.8083912000001874,0.16017490002559498,None,,,,,,8,0,7,160.12326179997763,,,,,,,,,,,,,,,,,,,,,,,160.10782229999313,160.12326179997763,160.6071646999917,,,,,,,,,,,,,,160.64618749998044,,,,,,,,,,160.64382279998972,160.64618749998044,160.64618749998044,160.64618749998044,163.623744099983,f,0.8083912000001874,0.16017490002559498,163.62394649998168,163.62401359999785,None,,,,,,,,,,,,,,,,,00032,001,2026-01-21_17h29.13.240,MST_task,2024.2.0,60.11089257577618,2026-01-21 17h29.20.067495 +0530,
,Objects\083a.jpg,8,0,9,,,,,,,f,1.071494400006486,0.1439161000016611,None,,,,,,9,0,8,163.63975579998805,,,,,,,,,,,,,,,,,,,,,,,163.62430799999856,163.63975579998805,164.12365189997945,,,,,,,,,,,,,,164.21446399998968,,,,,,,,,,164.21220619999804,164.21446399998968,164.21446399998968,164.21446399998968,167.1404782999889,f,1.071494400006486,0.1439161000016611,167.14068359998055,167.14074879998225,None,,,,,,,,,,,,,,,,,00032,001,2026-01-21_17h29.13.240,MST_task,2024.2.0,60.11089257577618,2026-01-21 17h29.20.067495 +0530,
,Objects\140a.jpg,9,0,10,,,,,,,j,2.164217199984705,0.12030790001153946,None,,,,,,10,0,9,167.15676399998483,,,,,,,,,,,,,,,,,,,,,,,167.14104019998922,167.15676399998483,167.6404919999768,,,,,,,,,,,,,,167.66623770000297,,,,,,,,,,167.6632430999889,167.66623770000297,167.66623770000297,167.66623770000297,170.6571394999919,j,2.164217199984705,0.12030790001153946,170.65734350000275,170.65740840000217,None,,,,,,,,,,,,,,,,,00032,001,2026-01-21_17h29.13.240,MST_task,2024.2.0,60.11089257577618,2026-01-21 17h29.20.067495 +0530,
,Objects\183a.jpg,10,0,11,,,,,,,f,0.6931374999985565,0.16786690001026727,None,,,,,,11,0,10,170.67338920000475,,,,,,,,,,,,,,,,,,,,,,,170.65770239999983,170.67338920000475,171.1571469999908,,,,,,,,,,,,,,171.19324540000525,,,,,,,,,,171.19041260000085,171.19324540000525,171.19324540000525,171.19324540000525,174.1738624999998,f,0.6931374999985565,0.16786690001026727,174.17406659998232,174.17413199998555,None,,,,,,,,,,,,,,,,,00032,001,2026-01-21_17h29.13.240,MST_task,2024.2.0,60.11089257577618,2026-01-21 17h29.20.067495 +0530,
,Objects\047a.jpg,11,0,12,,,,,,,f,0.9173534000001382,0.16012580000096932,None,,,,,,12,0,11,174.19011219998356,,,,,,,,,,,,,,,,,,,,,,,174.17450319998898,174.19011219998356,174.67376949999016,,,,,,,,,,,,,,174.69676609997987,,,,,,,,,,174.69386949998443,174.69676609997987,174.69676609997987,174.69676609997987,177.69028839998646,f,0.9173534000001382,0.16012580000096932,177.69048769999063,177.69055259999004,None,,,,,,,,,,,,,,,,,00032,001,2026-01-21_17h29.13.240,MST_task,2024.2.0,60.11089257577618,2026-01-21 17h29.20.067495 +0530,
,Objects\123a.jpg,12,0,13,,,,,,,j,1.5768150000076275,0.12008259998401627,None,,,,,,13,0,12,177.70651889999863,,,,,,,,,,,,,,,,,,,,,,,177.69092199997976,177.70651889999863,178.19049779998022,,,,,,,,,,,,,,178.21313139999984,,,,,,,,,,178.2101152999967,178.21313139999984,178.21313139999984,178.21313139999984,181.20717829998466,j,1.5768150000076275,0.12008259998401627,181.20737229997758,181.20743919999222,None,,,,,,,,,,,,,,,,,00032,001,2026-01-21_17h29.13.240,MST_task,2024.2.0,60.11089257577618,2026-01-21 17h29.20.067495 +0530,
,Objects\126a.jpg,13,0,14,,,,,,,j,2.415327900002012,0.07290949998423457,None,,,,,,14,0,13,181.22354300000006,,,,,,,,,,,,,,,,,,,,,,,181.20773639998515,181.22354300000006,181.7072024999943,,,,,,,,,,,,,,181.74253039999167,,,,,,,,,,181.7402868999925,181.74253039999167,181.74253039999167,181.74253039999167,184.7238526000001,j,2.415327900002012,0.07290949998423457,184.72405289998278,184.72411629999988,None,,,,,,,,,,,,,,,,,00032,001,2026-01-21_17h29.13.240,MST_task,2024.2.0,60.11089257577618,2026-01-21 17h29.20.067495 +0530,
,Scenes\031a.jpg,14,0,15,,,,,,,j,2.8495101000007708,None,None,,,,,,15,0,14,184.74009189999197,,,,,,,,,,,,,,,,,,,,,,,184.72440589999314,184.74009189999197,185.22367159998976,,,,,,,,,,,,,,185.268711599987,,,,,,,,,,185.2659416999959,185.268711599987,185.268711599987,185.268711599987,188.24050519999582,j,2.8495101000007708,None,188.2407057999808,188.2407702000055,None,,,,,,,,,,,,,,,,,00032,001,2026-01-21_17h29.13.240,MST_task,2024.2.0,60.11089257577618,2026-01-21 17h29.20.067495 +0530,
,Scenes\182a.jpg,15,0,16,,,,,,,j,1.0787899999995716,0.1278435999993235,None,,,,,,16,0,15,188.25679379998473,,,,,,,,,,,,,,,,,,,,,,,188.2411357999954,188.25679379998473,188.74049070000183,,,,,,,,,,,,,,188.76776099999552,,,,,,,,,,188.76502120000077,188.76776099999552,188.76776099999552,188.76776099999552,191.75716280000051,j,1.0787899999995716,0.1278435999993235,191.75736200000392,191.75742759997956,None,,,,,,,,,,,,,,,,,00032,001,2026-01-21_17h29.13.240,MST_task,2024.2.0,60.11089257577618,2026-01-21 17h29.20.067495 +0530,
,Scenes\091a.jpg,16,0,17,,,,,,,j,0.8849657999817282,0.11974200000986457,None,,,,,,17,0,16,191.77378799999133,,,,,,,,,,,,,,,,,,,,,,,191.75772419999703,191.77378799999133,192.25722219998715,,,,,,,,,,,,,,192.28160839999327,,,,,,,,,,192.27938679998624,192.28160839999327,192.28160839999327,192.28160839999327,195.2741585999902,j,0.8849657999817282,0.11974200000986457,195.27440709999064,195.2744746999815,None,,,,,,,,,,,,,,,,,00032,001,2026-01-21_17h29.13.240,MST_task,2024.2.0,60.11089257577618,2026-01-21 17h29.20.067495 +0530,
,Scenes\188a.jpg,17,0,18,,,,,,,j,0.8047163999872282,0.14442470000358298,None,,,,,,18,0,17,195.2901004999876,,,,,,,,,,,,,,,,,,,,,,,195.27485909999814,195.2901004999876,195.77333440000075,,,,,,,,,,,,,,195.81722969998373,,,,,,,,,,195.8145428999851,195.81722969998373,195.81722969998373,195.81722969998373,198.7904978999868,j,0.8047163999872282,0.14442470000358298,198.79070139999385,198.79076760000316,None,,,,,,,,,,,,,,,,,00032,001,2026-01-21_17h29.13.240,MST_task,2024.2.0,60.11089257577618,2026-01-21 17h29.20.067495 +0530,
,Scenes\179a.jpg,18,0,19,,,,,,,j,0.848929700005101,0.1281909999961499,None,,,,,,19,0,18,198.80677649998688,,,,,,,,,,,,,,,,,,,,,,,198.79106899999897,198.80677649998688,199.29051249998156,,,,,,,,,,,,,,199.31760059998487,,,,,,,,,,199.31407369999215,199.31760059998487,199.31760059998487,199.31760059998487,202.30709379998734,j,0.848929700005101,0.1281909999961499,202.3072920999839,202.30735739998636,None,,,,,,,,,,,,,,,,,00032,001,2026-01-21_17h29.13.240,MST_task,2024.2.0,60.11089257577618,2026-01-21 17h29.20.067495 +0530,
,Scenes\004a.jpg,19,0,20,,,,,,,j,1.2912638999987394,0.09584120000363328,None,,,,,,20,0,19,202.32343210000545,,,,,,,,,,,,,,,,,,,,,,,202.3076532999985,202.32343210000545,202.80715849998523,,,,,,,,,,,,,,202.8432935999881,,,,,,,,,,202.84047699999064,202.8432935999881,202.8432935999881,202.8432935999881,205.82426029999624,j,1.2912638999987394,0.09584120000363328,205.82445789998746,205.82452319998993,None,,,,,,,,,,,,,,,,,00032,001,2026-01-21_17h29.13.240,MST_task,2024.2.0,60.11089257577618,2026-01-21 17h29.20.067495 +0530,
,Scenes\098a.jpg,20,0,21,,,,,,,f,0.9993982999876607,0.15981600002851337,None,,,,,,21,0,20,205.839785499993,,,,,,,,,,,,,,,,,,,,,,,205.82489210000494,205.839785499993,206.3237822999945,,,,,,,,,,,,,,206.35086819998105,,,,,,,,,,206.3480084000039,206.35086819998105,206.35086819998105,206.35086819998105,209.3404401000007,f,0.9993982999876607,0.15981600002851337,209.34052179998253,209.34054380000453,None,,,,,,,,,,,,,,,,,00032,001,2026-01-21_17h29.13.240,MST_task,2024.2.0,60.11089257577618,2026-01-21 17h29.20.067495 +0530,
,Objects\023a.jpg,21,0,22,,,,,,,f,0.8541251999849919,0.12120380002306774,None,,,,,,22,0,21,209.35677949999808,,,,,,,,,,,,,,,,,,,,,,,209.34065549998195,209.35677949999808,209.84053929999936,,,,,,,,,,,,,,209.87138100000448,,,,,,,,,,209.86764449998736,209.87138100000448,209.87138100000448,209.87138100000448,212.8571430000011,f,0.8541251999849919,0.12120380002306774,212.85734159999993,212.8574060999963,None,,,,,,,,,,,,,,,,,00032,001,2026-01-21_17h29.13.240,MST_task,2024.2.0,60.11089257577618,2026-01-21 17h29.20.067495 +0530,
,Objects\075a.jpg,22,0,23,,,,,,,j,1.7228777999989688,0.13557409998611547,None,,,,,,23,0,22,212.8731443999859,,,,,,,,,,,,,,,,,,,,,,,212.85769659999642,212.8731443999859,213.35717509998358,,,,,,,,,,,,,,213.37967140000546,,,,,,,,,,213.3772855999996,213.37967140000546,213.37967140000546,213.37967140000546,216.37340660000336,j,1.7228777999989688,0.13557409998611547,216.3736121999973,216.3736768999952,None,,,,,,,,,,,,,,,,,00032,001,2026-01-21_17h29.13.240,MST_task,2024.2.0,60.11089257577618,2026-01-21 17h29.20.067495 +0530,
,Objects\141a.jpg,23,0,24,,,,,,,j,1.261902900005225,0.14398870000150055,None,,,,,,24,0,23,216.38973179997993,,,,,,,,,,,,,,,,,,,,,,,216.3740509999916,216.38973179997993,216.8737878999964,,,,,,,,,,,,,,216.90415619997657,,,,,,,,,,216.90189700000337,216.90415619997657,216.90415619997657,216.90415619997657,219.89047729998128,j,1.261902900005225,0.14398870000150055,219.89067559997784,219.89074030000484,None,,,,,,,,,,,,,,,,,00032,001,2026-01-21_17h29.13.240,MST_task,2024.2.0,60.11089257577618,2026-01-21 17h29.20.067495 +0530,
,Objects\031a.jpg,24,0,25,,,,,,,f,1.136249700008193,0.12021679998724721,None,,,,,,25,0,24,219.90676369998255,,,,,,,,,,,,,,,,,,,,,,,219.89104089999455,219.90676369998255,220.39051029999973,,,,,,,,,,,,,,220.4142859999847,,,,,,,,,,220.41119210000033,220.4142859999847,220.4142859999847,220.4142859999847,223.40692670000135,f,1.136249700008193,0.12021679998724721,223.40715240000281,223.40721879998455,None,,,,,,,,,,,,,,,,,00032,001,2026-01-21_17h29.13.240,MST_task,2024.2.0,60.11089257577618,2026-01-21 17h29.20.067495 +0530,
,Objects\003a.jpg,25,0,26,,,,,,,j,1.3181391999823973,0.1441536000056658,None,,,,,,26,0,25,223.423358799977,,,,,,,,,,,,,,,,,,,,,,,223.4076046999835,223.423358799977,223.90716659999453,,,,,,,,,,,,,,223.927763899992,,,,,,,,,,223.925599899987,223.927763899992,223.927763899992,223.927763899992,226.92347739997786,j,1.3181391999823973,0.1441536000056658,226.92368779997923,226.92375419999007,None,,,,,,,,,,,,,,,,,00032,001,2026-01-21_17h29.13.240,MST_task,2024.2.0,60.11089257577618,2026-01-21 17h29.20.067495 +0530,
,Objects\071a.jpg,26,0,27,,,,,,,j,2.5321303000091575,0.1434841000009328,None,,,,,,27,0,26,226.9398784999794,,,,,,,,,,,,,,,,,,,,,,,226.92404919999535,226.9398784999794,227.42377419999684,,,,,,,,,,,,,,227.45040750000044,,,,,,,,,,227.44769369999995,227.45040750000044,227.45040750000044,227.45040750000044,230.44020209999871,j,2.5321303000091575,0.1434841000009328,230.44040490000043,230.44047309999587,None,,,,,,,,,,,,,,,,,00032,001,2026-01-21_17h29.13.240,MST_task,2024.2.0,60.11089257577618,2026-01-21 17h29.20.067495 +0530,
,Objects\146a.jpg,27,0,28,,,,,,,f,0.7058501999999862,0.1605425000016112,None,,,,,,28,0,27,230.45676849997835,,,,,,,,,,,,,,,,,,,,,,,230.44084599998314,230.45676849997835,230.940497100004,,,,,,,,,,,,,,230.96468730000197,,,,,,,,,,230.96253089999664,230.96468730000197,230.96468730000197,230.96468730000197,233.95718139997916,f,0.7058501999999862,0.1605425000016112,233.95739149997826,233.95745899999747,None,,,,,,,,,,,,,,,,,00032,001,2026-01-21_17h29.13.240,MST_task,2024.2.0,60.11089257577618,2026-01-21 17h29.20.067495 +0530,
,Scenes\019a.jpg,28,0,29,,,,,,,j,1.9555092999944463,0.16828739998163655,None,,,,,,29,0,28,233.97320849998505,,,,,,,,,,,,,,,,,,,,,,,233.95776999997906,233.97320849998505,234.457190599991,,,,,,,,,,,,,,234.49051059997873,,,,,,,,,,234.4879335000005,234.49051059997873,234.49051059997873,234.49051059997873,237.47430829997757,j,1.9555092999944463,0.16828739998163655,237.47451299999375,237.47457659998327,None,,,,,,,,,,,,,,,,,00032,001,2026-01-21_17h29.13.240,MST_task,2024.2.0,60.11089257577618,2026-01-21 17h29.20.067495 +0530,
,Scenes\112a.jpg,29,0,30,,,,,,,j,1.499170499999309,0.12027829998987727,None,,,,,,30,0,29,237.49009869998554,,,,,,,,,,,,,,,,,,,,,,,237.47487259999616,237.49009869998554,237.97380229999544,,,,,,,,,,,,,,238.0107430999924,,,,,,,,,,238.0077861000027,238.0107430999924,238.0107430999924,238.0107430999924,240.9905310999893,j,1.499170499999309,0.12027829998987727,240.9907724999939,240.99083759999485,None,,,,,,,,,,,,,,,,,00032,001,2026-01-21_17h29.13.240,MST_task,2024.2.0,60.11089257577618,2026-01-21 17h29.20.067495 +0530,
,Scenes\047a.jpg,30,0,31,,,,,,,j,1.715185700013535,0.11242209997726604,None,,,,,,31,0,30,241.00678189998143,,,,,,,,,,,,,,,,,,,,,,,240.99115039999015,241.00678189998143,241.49067329999525,,,,,,,,,,,,,,241.54672019998543,,,,,,,,,,241.54393159999745,241.54672019998543,241.54672019998543,241.54672019998543,244.50717609998537,j,1.715185700013535,0.11242209997726604,244.5073775999772,244.5074409999943,None,,,,,,,,,,,,,,,,,00032,001,2026-01-21_17h29.13.240,MST_task,2024.2.0,60.11089257577618,2026-01-21 17h29.20.067495 +0530,
,Scenes\044a.jpg,31,0,32,,,,,,,None,,,j,0.2857903999974951,None,,,,32,0,31,244.52342620000127,,,,,,,,,,,,,,,,,,,,,,,244.50780389999272,244.52342620000127,245.00724039998022,,,,,,,,,,,,,,245.03445009997813,,,,,,,,,,245.03167719999328,245.03445009997813,245.03445009997813,245.03445009997813,248.0240172999911,None,,,248.02419669998926,248.34045570000308,j,248.0400396999903,248.0400396999903,0.2857903999974951,None,,,,,,,,,,,,,00032,001,2026-01-21_17h29.13.240,MST_task,2024.2.0,60.11089257577618,2026-01-21 17h29.20.067495 +0530,
,Scenes\082a.jpg,32,0,33,,,,,,,j,1.7835744000039995,0.11971689999336377,None,,,,,,33,0,32,248.3566800999979,,,,,,,,,,,,,,,,,,,,,,,248.3408066999982,248.3566800999979,248.84028740000213,,,,,,,,,,,,,,248.87098279999918,,,,,,,,,,248.86826779998955,248.87098279999918,248.87098279999918,248.87098279999918,251.85702399999718,j,1.7835744000039995,0.11971689999336377,251.85722259999602,251.85728969998308,None,,,,,,,,,,,,,,,,,00032,001,2026-01-21_17h29.13.240,MST_task,2024.2.0,60.11089257577618,2026-01-21 17h29.20.067495 +0530,
,Scenes\026a.jpg,33,0,34,,,,,,,j,0.9996760999783874,0.12007430000812747,None,,,,,,34,0,33,251.87353719997918,,,,,,,,,,,,,,,,,,,,,,,251.85765900000115,251.87353719997918,252.35718419999466,,,,,,,,,,,,,,252.39024539999082,,,,,,,,,,252.38707119997707,252.39024539999082,252.39024539999082,252.39024539999082,255.3579211999895,j,0.9996760999783874,0.12007430000812747,255.35812219997752,255.35818629999994,None,,,,,,,,,,,,,,,,,00032,001,2026-01-21_17h29.13.240,MST_task,2024.2.0,60.11089257577618,2026-01-21 17h29.20.067495 +0530,
,Scenes\022a.jpg,34,0,35,,,,,,,j,1.9956343999947421,0.12016640001093037,None,,,,,,35,0,34,255.37343179999152,,,,,,,,,,,,,,,,,,,,,,,255.3584811000037,255.37343179999152,255.85700389998965,,,,,,,,,,,,,,255.88284649999696,,,,,,,,,,255.87959119997686,255.88284649999696,255.88284649999696,255.88284649999696,258.87422319999314,j,1.9956343999947421,0.12016640001093037,258.8744222999958,258.8744882000028,None,,,,,,,,,,,,,,,,,00032,001,2026-01-21_17h29.13.240,MST_task,2024.2.0,60.11089257577618,2026-01-21 17h29.20.067495 +0530,
,Objects\161a.jpg,35,0,36,,,,,,,f,0.7126017999835312,0.16826780000701547,None,,,,,,36,0,35,258.89002199997776,,,,,,,,,,,,,,,,,,,,,,,258.8748565999849,258.89002199997776,259.3741789999767,,,,,,,,,,,,,,259.39743789998465,,,,,,,,,,259.39483459998155,259.39743789998465,259.39743789998465,259.39743789998465,262.39077979998547,f,0.7126017999835312,0.16826780000701547,262.390978099982,262.3910451999982,None,,,,,,,,,,,,,,,,,00032,001,2026-01-21_17h29.13.240,MST_task,2024.2.0,60.11089257577618,2026-01-21 17h29.20.067495 +0530,
,Objects\028a.jpg,36,0,37,,,,,,,f,1.6289029000035953,0.16813949999050237,None,,,,,,37,0,36,262.40671839998686,,,,,,,,,,,,,,,,,,,,,,,262.3913423999911,262.40671839998686,262.890462499985,,,,,,,,,,,,,,262.91295579998405,,,,,,,,,,262.90979209999205,262.91295579998405,262.91295579998405,262.91295579998405,265.90728659997694,f,1.6289029000035953,0.16813949999050237,265.90749589999905,265.90756219998,None,,,,,,,,,,,,,,,,,00032,001,2026-01-21_17h29.13.240,MST_task,2024.2.0,60.11089257577618,2026-01-21 17h29.20.067495 +0530,
,Objects\149a.jpg,37,0,38,,,,,,,f,0.9688090999843553,0.1681795000040438,None,,,,,,38,0,37,265.9230370000005,,,,,,,,,,,,,,,,,,,,,,,265.90794429997914,265.9230370000005,266.4071303999808,,,,,,,,,,,,,,266.42969509999966,,,,,,,,,,266.426768299978,266.42969509999966,266.42969509999966,266.42969509999966,269.4235731999797,f,0.9688090999843553,0.1681795000040438,269.42377309998847,269.42381249999744,None,,,,,,,,,,,,,,,,,00032,001,2026-01-21_17h29.13.240,MST_task,2024.2.0,60.11089257577618,2026-01-21 17h29.20.067495 +0530,
,Objects\038a.jpg,38,0,39,,,,,,,f,0.9324473000015132,0.14479029999347404,None,,,,,,39,0,38,269.4398558999819,,,,,,,,,,,,,,,,,,,,,,,269.42403679998824,269.4398558999819,269.9235875000013,,,,,,,,,,,,,,269.94545959998504,,,,,,,,,,269.9425890999846,269.94545959998504,269.94545959998504,269.94545959998504,272.94028219999745,f,0.9324473000015132,0.14479029999347404,272.94047549998504,272.94053989998065,None,,,,,,,,,,,,,,,,,00032,001,2026-01-21_17h29.13.240,MST_task,2024.2.0,60.11089257577618,2026-01-21 17h29.20.067495 +0530,
,Objects\103a.jpg,39,0,40,,,,,,,f,1.415642799984198,0.15173790001426823,None,,,,,,40,0,39,272.9567659999884,,,,,,,,,,,,,,,,,,,,,,,272.9409042999905,272.9567659999884,273.44032439999864,,,,,,,,,,,,,,273.46286849997705,,,,,,,,,,273.4607022999844,273.46286849997705,273.46286849997705,273.46286849997705,276.457210099994,f,1.415642799984198,0.15173790001426823,276.45741949998774,276.45748260000255,None,,,,,,,,,,,,,,,,,00032,001,2026-01-21_17h29.13.240,MST_task,2024.2.0,60.11089257577618,2026-01-21 17h29.20.067495 +0530,
,Objects\049a.jpg,40,0,41,,,,,,,f,1.8270225999876857,0.1439560000144411,None,,,,,,41,0,40,276.47343719998025,,,,,,,,,,,,,,,,,,,,,,,276.457857100002,276.47343719998025,276.9569528999855,,,,,,,,,,,,,,276.97926729999017,,,,,,,,,,276.97627959999954,276.97926729999017,276.97926729999017,276.97926729999017,279.9734602999815,f,1.8270225999876857,0.1439560000144411,279.9736619000032,279.97372849998646,None,,,,,,,,,,,,,,,,,00032,001,2026-01-21_17h29.13.240,MST_task,2024.2.0,60.11089257577618,2026-01-21 17h29.20.067495 +0530,
,Objects\099a.jpg,41,0,42,,,,,,,j,2.5558131000143476,0.12818919998244382,None,,,,,,42,0,41,279.9900387999951,,,,,,,,,,,,,,,,,,,,,,,279.9740206999995,279.9900387999951,280.47443279999425,,,,,,,,,,,,,,,,,,,,,,,,280.49619429997983,280.49866019998444,280.49866019998444,280.49866019998444,283.4900997999939,j,2.5558131000143476,0.12818919998244382,283.4903109000006,283.49037519999547,None,,,,,,,,,,,,,,,,,00032,001,2026-01-21_17h29.13.240,MST_task,2024.2.0,60.11089257577618,2026-01-21 17h29.20.067495 +0530,
,Scenes\130a.jpg,42,0,43,,,,,,,j,1.0220712999871466,0.1199551000026986,None,,,,,,43,0,42,283.50645739998436,,,,,,,,,,,,,,,,,,,,,,,283.4906684999878,283.50645739998436,283.99024019998615,,,,,,,,,,,,,,284.02466939997976,,,,,,,,,,284.0215552999871,284.02466939997976,284.02466939997976,284.02466939997976,287.00716579999425,j,1.0220712999871466,0.1199551000026986,287.0073648999969,287.00743070000317,None,,,,,,,,,,,,,,,,,00032,001,2026-01-21_17h29.13.240,MST_task,2024.2.0,60.11089257577618,2026-01-21 17h29.20.067495 +0530,
,Scenes\003a.jpg,43,0,44,,,,,,,f,2.187930799991591,0.1522578000149224,None,,,,,,44,0,43,287.02311079998617,,,,,,,,,,,,,,,,,,,,,,,287.007729999983,287.02311079998617,287.50702349998755,,,,,,,,,,,,,,287.5381036000035,,,,,,,,,,287.5352382999845,287.5381036000035,287.5381036000035,287.5381036000035,290.52356289999443,f,2.187930799991591,0.1522578000149224,290.52376849998836,290.52383299998473,None,,,,,,,,,,,,,,,,,00032,001,2026-01-21_17h29.13.240,MST_task,2024.2.0,60.11089257577618,2026-01-21 17h29.20.067495 +0530,
,Scenes\134a.jpg,44,0,45,,,,,,,j,1.6458185000228696,0.1520095999876503,None,,,,,,45,0,44,290.54002819999005,,,,,,,,,,,,,,,,,,,,,,,290.5242006999906,290.54002819999005,291.0242176000029,,,,,,,,,,,,,,,,,,,,,,,,291.0535511999915,291.05627619998995,291.05627619998995,291.05627619998995,294.03982199999155,j,1.6458185000228696,0.1520095999876503,294.0399747999909,294.0400296000007,None,,,,,,,,,,,,,,,,,00032,001,2026-01-21_17h29.13.240,MST_task,2024.2.0,60.11089257577618,2026-01-21 17h29.20.067495 +0530,
,Scenes\129a.jpg,45,0,46,,,,,,,j,1.7710059999953955,0.12039060000097379,None,,,,,,46,0,45,294.056259999983,,,,,,,,,,,,,,,,,,,,,,,294.04033839999465,294.056259999983,294.54030090000015,,,,,,,,,,,,,,,,,,,,,,,,294.56822419998934,294.5708153999876,294.5708153999876,294.5708153999876,297.54033839999465,j,1.7710059999953955,0.12039060000097379,297.54056039999705,297.54062529999646,None,,,,,,,,,,,,,,,,,00032,001,2026-01-21_17h29.13.240,MST_task,2024.2.0,60.11089257577618,2026-01-21 17h29.20.067495 +0530,
,Scenes\144a.jpg,46,0,47,,,,,,,j,0.768477100005839,0.1434337999962736,None,,,,,,47,0,46,297.5569562999881,,,,,,,,,,,,,,,,,,,,,,,297.54093239997746,297.5569562999881,298.0404531999957,,,,,,,,,,,,,,298.0699534000014,,,,,,,,,,298.0671228999854,298.0699534000014,298.0699534000014,298.0699534000014,301.05687979998766,j,0.768477100005839,0.1434337999962736,301.05707670000265,301.0571427999821,None,,,,,,,,,,,,,,,,,00032,001,2026-01-21_17h29.13.240,MST_task,2024.2.0,60.11089257577618,2026-01-21 17h29.20.067495 +0530,
,Scenes\147a.jpg,47,0,48,,,,,,,j,0.6671907000127248,0.12756039999658242,None,,,,,,48,0,47,301.07314589997986,,,,,,,,,,,,,,,,,,,,,,,301.05751939999755,301.07314589997986,301.5571518999932,,,,,,,,,,,,,,301.5952570999798,,,,,,,,,,301.59208959998796,301.5952570999798,301.5952570999798,301.5952570999798,304.5735113999981,j,0.6671907000127248,0.12756039999658242,304.57370949999313,304.57377519999864,None,,,,,,,,,,,,,,,,,00032,001,2026-01-21_17h29.13.240,MST_task,2024.2.0,60.11089257577618,2026-01-21 17h29.20.067495 +0530,
,Scenes\177a.jpg,48,0,49,,,,,,,j,0.8192800999968313,0.1208018000179436,None,,,,,,49,0,48,304.5897901999997,,,,,,,,,,,,,,,,,,,,,,,304.5741431999777,304.5897901999997,305.07413890000316,,,,,,,,,,,,,,305.122601399984,,,,,,,,,,305.1192042999901,305.122601399984,305.122601399984,305.122601399984,308.0741897999833,j,0.8192800999968313,0.1208018000179436,308.0743997999816,308.07446409997647,None,,,,,,,,,,,,,,,,,00032,001,2026-01-21_17h29.13.240,MST_task,2024.2.0,60.11089257577618,2026-01-21 17h29.20.067495 +0530,
,Objects\165a.jpg,49,0,50,,,,,,,f,1.4289798999961931,0.1440512000117451,None,,,,,,50,0,49,308.0901384000026,,,,,,,,,,,,,,,,,,,,,,,308.0747612999985,308.0901384000026,308.57354949999717,,,,,,,,,,,,,,308.6010951999924,,,,,,,,,,308.5982531000045,308.6010951999924,308.6010951999924,308.6010951999924,311.590495499986,f,1.4289798999961931,0.1440512000117451,311.590710199991,311.5907748999889,None,,,,,,,,,,,,,,,,,00032,001,2026-01-21_17h29.13.240,MST_task,2024.2.0,60.11089257577618,2026-01-21 17h29.20.067495 +0530,
,Objects\185a.jpg,50,0,51,,,,,,,f,1.6249660999746993,0.12874310000916012,None,,,,,,51,0,50,311.6067139999941,,,,,,,,,,,,,,,,,,,,,,,311.59115100000054,311.6067139999941,312.09050540000317,,,,,,,,,,,,,,312.1168298999837,,,,,,,,,,312.1139241999772,312.1168298999837,312.1168298999837,312.1168298999837,315.1070890999981,f,1.6249660999746993,0.12874310000916012,315.1072829999903,315.10736349999206,None,,,,,,,,,,,,,,,,,00032,001,2026-01-21_17h29.13.240,MST_task,2024.2.0,60.11089257577618,2026-01-21 17h29.20.067495 +0530,
,Objects\187a.jpg,51,0,52,,,,,,,f,1.3398270000179764,0.14439869998022914,None,,,,,,52,0,51,315.1234507999907,,,,,,,,,,,,,,,,,,,,,,,315.10773329998483,315.1234507999907,315.6068828999996,,,,,,,,,,,,,,315.6419760999852,,,,,,,,,,315.6397129999823,315.6419760999852,315.6419760999852,315.6419760999852,318.6238994000014,f,1.3398270000179764,0.14439869998022914,318.62409539998043,318.6241608999844,None,,,,,,,,,,,,,,,,,00032,001,2026-01-21_17h29.13.240,MST_task,2024.2.0,60.11089257577618,2026-01-21 17h29.20.067495 +0530,
,Objects\066a.jpg,52,0,53,,,,,,,f,2.4751083999872208,0.14368710000417195,None,,,,,,53,0,52,318.64011619999656,,,,,,,,,,,,,,,,,,,,,,,318.6245319999871,318.64011619999656,319.1235252000042,,,,,,,,,,,,,,319.14742679998744,,,,,,,,,,319.14494149998063,319.14742679998744,319.14742679998744,319.14742679998744,322.1403662999801,f,2.4751083999872208,0.14368710000417195,322.1405625999905,322.14062769999146,None,,,,,,,,,,,,,,,,,00032,001,2026-01-21_17h29.13.240,MST_task,2024.2.0,60.11089257577618,2026-01-21 17h29.20.067495 +0530,
,Objects\160a.jpg,53,0,54,,,,,,,j,2.6211898000037763,0.12898770000902005,None,,,,,,54,0,53,322.1567151999916,,,,,,,,,,,,,,,,,,,,,,,322.1409201999777,322.1567151999916,322.6405203999893,,,,,,,,,,,,,,322.67261429998325,,,,,,,,,,322.6702546000015,322.67261429998325,322.67261429998325,322.67261429998325,325.6570989000029,j,2.6211898000037763,0.12898770000902005,325.65730500000063,325.65736990000005,None,,,,,,,,,,,,,,,,,00032,001,2026-01-21_17h29.13.240,MST_task,2024.2.0,60.11089257577618,2026-01-21 17h29.20.067495 +0530,
,Objects\058a.jpg,54,0,55,,,,,,,f,0.9860877000028268,0.15993819999857806,None,,,,,,55,0,54,325.67341950000264,,,,,,,,,,,,,,,,,,,,,,,325.6576783999917,325.67341950000264,326.1568682999932,,,,,,,,,,,,,,326.18816299998434,,,,,,,,,,326.1859476999962,326.18816299998434,326.18816299998434,326.18816299998434,329.17457929998636,f,0.9860877000028268,0.15993819999857806,329.1747806999774,329.17484510000213,None,,,,,,,,,,,,,,,,,00032,001,2026-01-21_17h29.13.240,MST_task,2024.2.0,60.11089257577618,2026-01-21 17h29.20.067495 +0530,
,Objects\109a.jpg,55,0,56,,,,,,,f,1.8194196999829728,0.1443126999947708,None,,,,,,56,0,55,329.1900237999798,,,,,,,,,,,,,,,,,,,,,,,329.1751384999952,329.1900237999798,329.6738594000053,,,,,,,,,,,,,,329.6988847999892,,,,,,,,,,329.6959794999857,329.6988847999892,329.6988847999892,329.6988847999892,332.6904879999929,f,1.8194196999829728,0.1443126999947708,332.6906939999899,332.69076029999997,None,,,,,,,,,,,,,,,,,00032,001,2026-01-21_17h29.13.240,MST_task,2024.2.0,60.11089257577618,2026-01-21 17h29.20.067495 +0530,
,Scenes\181a.jpg,56,0,57,,,,,,,f,1.3397885999875143,0.16027910000411794,None,,,,,,57,0,56,332.7067077999818,,,,,,,,,,,,,,,,,,,,,,,332.6911278000043,332.7067077999818,333.19052849998116,,,,,,,,,,,,,,333.22620529998676,,,,,,,,,,333.22343019998516,333.22620529998676,333.22620529998676,333.22620529998676,336.207001999981,f,1.3397885999875143,0.16027910000411794,336.20719679998,336.20726189998095,None,,,,,,,,,,,,,,,,,00032,001,2026-01-21_17h29.13.240,MST_task,2024.2.0,60.11089257577618,2026-01-21 17h29.20.067495 +0530,
,Scenes\059a.jpg,57,0,58,,,,,,,j,0.9923603999777697,0.14467060001334175,None,,,,,,58,0,57,336.22343899999396,,,,,,,,,,,,,,,,,,,,,,,336.2075566999847,336.22343899999396,336.7069363000046,,,,,,,,,,,,,,336.7416034999769,,,,,,,,,,336.73877219998394,336.7416034999769,336.7416034999769,336.7416034999769,339.7241708999791,j,0.9923603999777697,0.14467060001334175,339.7243729000038,339.72443669999484,None,,,,,,,,,,,,,,,,,00032,001,2026-01-21_17h29.13.240,MST_task,2024.2.0,60.11089257577618,2026-01-21 17h29.20.067495 +0530,
,Scenes\034a.jpg,58,0,59,,,,,,,j,1.6761632999987341,0.14426790000288747,None,,,,,,59,0,58,339.7401147999917,,,,,,,,,,,,,,,,,,,,,,,339.7248114999966,339.7401147999917,340.2238507999864,,,,,,,,,,,,,,340.26560600000084,,,,,,,,,,340.2624227000051,340.26560600000084,340.26560600000084,340.26560600000084,343.2403287999914,j,1.6761632999987341,0.14426790000288747,343.2405380999844,343.2406029999838,None,,,,,,,,,,,,,,,,,00032,001,2026-01-21_17h29.13.240,MST_task,2024.2.0,60.11089257577618,2026-01-21 17h29.20.067495 +0530,
,Scenes\117a.jpg,59,0,60,,,,,,,j,0.8336178000026848,0.14441079998505302,None,,,,,,60,0,59,343.2567068999924,,,,,,,,,,,,,,,,,,,,,,,343.2409752999956,343.2567068999924,343.7405261999811,,,,,,,,,,,,,,343.7723070999782,,,,,,,,,,343.76902690000134,343.7723070999782,343.7723070999782,343.7723070999782,346.75712749999366,j,0.8336178000026848,0.14441079998505302,346.75732419997803,346.7573881999997,None,,,,,,,,,,,,,,,,,00032,001,2026-01-21_17h29.13.240,MST_task,2024.2.0,60.11089257577618,2026-01-21 17h29.20.067495 +0530,
,Scenes\170a.jpg,60,0,61,,,,,,,j,1.1974169999884907,0.13686220001545735,None,,,,,,61,0,60,346.77388079999946,,,,,,,,,,,,,,,,,,,,,,,346.7577521999774,346.77388079999946,347.2568872999982,,,,,,,,,,,,,,347.3043578999932,,,,,,,,,,347.30167220000294,347.3043578999932,347.3043578999932,347.3043578999932,350.27365779998945,j,1.1974169999884907,0.13686220001545735,350.27380419999827,350.2738490999909,None,,,,,,,,,,,,,,,,,00032,001,2026-01-21_17h29.13.240,MST_task,2024.2.0,60.11089257577618,2026-01-21 17h29.20.067495 +0530,
,Scenes\192a.jpg,61,0,62,,,,,,,j,1.4645415999984834,0.1442174999974668,None,,,,,,62,0,61,350.29006599998684,,,,,,,,,,,,,,,,,,,,,,,350.27405929999077,350.29006599998684,350.7735720000055,,,,,,,,,,,,,,350.80588469997747,,,,,,,,,,350.80314360000193,350.80588469997747,350.80588469997747,350.80588469997747,353.79051049999543,j,1.4645415999984834,0.1442174999974668,353.7907076999836,353.7907703999954,None,,,,,,,,,,,,,,,,,00032,001,2026-01-21_17h29.13.240,MST_task,2024.2.0,60.11089257577618,2026-01-21 17h29.20.067495 +0530,
,Scenes\002a.jpg,62,0,63,,,,,,,j,0.8265476999804378,0.09715890002553351,None,,,,,,63,0,62,353.80671319999965,,,,,,,,,,,,,,,,,,,,,,,353.7910608999955,353.80671319999965,354.29040769999847,,,,,,,,,,,,,,354.32327349999105,,,,,,,,,,354.3203786999802,354.32327349999105,354.32327349999105,354.32327349999105,357.3064812999801,j,0.8265476999804378,0.09715890002553351,357.3065495000046,357.30656779999845,None,,,,,,,,,,,,,,,,,00032,001,2026-01-21_17h29.13.240,MST_task,2024.2.0,60.11089257577618,2026-01-21 17h29.20.067495 +0530,
,Objects\107a.jpg,63,0,64,,,,,,,f,0.9541053999855649,0.12862860001041554,None,,,,,,64,0,63,357.3228428000002,,,,,,,,,,,,,,,,,,,,,,,357.3066858999955,357.3228428000002,357.80683039998985,,,,,,,,,,,,,,,,,,,,,,,,357.83317779999925,357.8357793999894,357.8357793999894,357.8357793999894,360.80712509999285,f,0.9541053999855649,0.12862860001041554,360.8073075999855,360.807367100002,None,,,,,,,,,,,,,,,,,00032,001,2026-01-21_17h29.13.240,MST_task,2024.2.0,60.11089257577618,2026-01-21 17h29.20.067495 +0530,
,Objects\173a.jpg,64,0,65,,,,,,,f,0.6856425000005402,0.16776700000627898,None,,,,,,65,0,64,360.82345149997855,,,,,,,,,,,,,,,,,,,,,,,360.8077091999876,360.82345149997855,361.3069755999895,,,,,,,,,,,,,,361.32879319999483,,,,,,,,,,361.32604159999755,361.32879319999483,361.32879319999483,361.32879319999483,364.3246016999765,f,0.6856425000005402,0.16776700000627898,364.3247960000008,364.32486130000325,None,,,,,,,,,,,,,,,,,00032,001,2026-01-21_17h29.13.240,MST_task,2024.2.0,60.11089257577618,2026-01-21 17h29.20.067495 +0530,
,Objects\168a.jpg,65,0,66,,,,,,,f,2.590001200005645,0.15204200000152923,None,,,,,,66,0,65,364.3401169999852,,,,,,,,,,,,,,,,,,,,,,,364.3252302999899,364.3401169999852,364.82384579998325,,,,,,,,,,,,,,364.8479226999916,,,,,,,,,,364.8454189999902,364.8479226999916,364.8479226999916,364.8479226999916,367.8404387999908,f,2.590001200005645,0.15204200000152923,367.8406385999988,367.8407036999997,None,,,,,,,,,,,,,,,,,00032,001,2026-01-21_17h29.13.240,MST_task,2024.2.0,60.11089257577618,2026-01-21 17h29.20.067495 +0530,
,Objects\046a.jpg,66,0,67,,,,,,,f,1.0247844000114128,0.14413870000862516,None,,,,,,67,0,66,367.8566091999819,,,,,,,,,,,,,,,,,,,,,,,367.84107569998014,367.8566091999819,368.34025340000517,,,,,,,,,,,,,,368.38121059999685,,,,,,,,,,368.37810279999394,368.38121059999685,368.38121059999685,368.38121059999685,371.35714129998814,f,1.0247844000114128,0.14413870000862516,371.3573318999843,371.3573966999829,None,,,,,,,,,,,,,,,,,00032,001,2026-01-21_17h29.13.240,MST_task,2024.2.0,60.11089257577618,2026-01-21 17h29.20.067495 +0530,
,Objects\021a.jpg,67,0,68,,,,,,,f,1.116024799994193,0.16824639998958446,None,,,,,,68,0,67,371.37347729998874,,,,,,,,,,,,,,,,,,,,,,,371.3576965999964,371.37347729998874,371.8571344999946,,,,,,,,,,,,,,371.89004349999595,,,,,,,,,,371.88738719999674,371.89004349999595,371.89004349999595,371.89004349999595,374.87403999999515,f,1.116024799994193,0.16824639998958446,374.8742396000016,374.87430409999797,None,,,,,,,,,,,,,,,,,00032,001,2026-01-21_17h29.13.240,MST_task,2024.2.0,60.11089257577618,2026-01-21 17h29.20.067495 +0530,
,Objects\102a.jpg,68,0,69,,,,,,,f,1.0058439999993425,0.1525139000150375,None,,,,,,69,0,68,374.8901219999825,,,,,,,,,,,,,,,,,,,,,,,374.874596699985,374.8901219999825,375.3734222999774,,,,,,,,,,,,,,375.40797770000063,,,,,,,,,,375.40578669999377,375.40797770000063,375.40797770000063,375.40797770000063,378.39049759999034,f,1.0058439999993425,0.1525139000150375,378.3906932999962,378.39075679998496,None,,,,,,,,,,,,,,,,,00032,001,2026-01-21_17h29.13.240,MST_task,2024.2.0,60.11089257577618,2026-01-21 17h29.20.067495 +0530,
,Objects\095a.jpg,69,0,70,,,,,,,f,0.7640219000168145,0.1287249999877531,None,,,,,,70,0,69,378.40673859999515,,,,,,,,,,,,,,,,,,,,,,,378.39105019997805,378.40673859999515,378.8907802999893,,,,,,,,,,,,,,378.9137432999851,,,,,,,,,,378.9111811000039,378.9137432999851,378.9137432999851,378.9137432999851,381.9071210999973,f,0.7640219000168145,0.1287249999877531,381.90732119997847,381.9073842999933,None,,,,,,,,,,,,,,,,,00032,001,2026-01-21_17h29.13.240,MST_task,2024.2.0,60.11089257577618,2026-01-21 17h29.20.067495 +0530,
,Scenes\032a.jpg,70,0,71,,,,,,,j,0.7476312999788206,0.15220140002202243,None,,,,,,71,0,70,381.92372189997695,,,,,,,,,,,,,,,,,,,,,,,381.90774659998715,381.92372189997695,382.40713469998445,,,,,,,,,,,,,,382.442200999998,,,,,,,,,,382.4387577000016,382.442200999998,382.442200999998,382.442200999998,385.4238637999806,j,0.7476312999788206,0.15220140002202243,385.42406289998326,385.42412729997886,None,,,,,,,,,,,,,,,,,00032,001,2026-01-21_17h29.13.240,MST_task,2024.2.0,60.11089257577618,2026-01-21 17h29.20.067495 +0530,
,Scenes\125a.jpg,71,0,72,,,,,,,j,0.4466025999863632,0.10367630000109784,None,,,,,,72,0,71,385.4401350999833,,,,,,,,,,,,,,,,,,,,,,,385.42442149997805,385.4401350999833,385.92386339997756,,,,,,,,,,,,,,385.9596806000045,,,,,,,,,,385.9567696999875,385.9596806000045,385.9596806000045,385.9596806000045,388.940574999986,j,0.4466025999863632,0.10367630000109784,388.9407689999789,388.9408331000013,None,,,,,,,,,,,,,,,,,00032,001,2026-01-21_17h29.13.240,MST_task,2024.2.0,60.11089257577618,2026-01-21 17h29.20.067495 +0530,
,Scenes\053a.jpg,72,0,73,,,,,,,j,0.7111047999933362,0.12010340002598241,None,,,,,,73,0,72,388.956529099989,,,,,,,,,,,,,,,,,,,,,,,388.9412080000038,388.956529099989,389.4409248000011,,,,,,,,,,,,,,389.4627111000009,,,,,,,,,,389.460253199999,389.4627111000009,389.4627111000009,389.4627111000009,392.4571401999856,j,0.7111047999933362,0.12010340002598241,392.457339399989,392.4574032999808,None,,,,,,,,,,,,,,,,,00032,001,2026-01-21_17h29.13.240,MST_task,2024.2.0,60.11089257577618,2026-01-21 17h29.20.067495 +0530,
,Scenes\076a.jpg,73,0,74,,,,,,,j,0.880406700016465,0.14400130001013167,None,,,,,,74,0,73,392.47421059999033,,,,,,,,,,,,,,,,,,,,,,,392.4577675999899,392.47421059999033,392.9736910999927,,,,,,,,,,,,,,,,,,,,,,,,393.0190183999948,393.0217657999892,393.0217657999892,393.0217657999892,395.973709199985,j,0.880406700016465,0.14400130001013167,395.9739200999902,395.97398749997956,None,,,,,,,,,,,,,,,,,00032,001,2026-01-21_17h29.13.240,MST_task,2024.2.0,60.11089257577618,2026-01-21 17h29.20.067495 +0530,
,Scenes\107a.jpg,74,0,75,,,,,,,j,1.799696700007189,0.18346699999528937,None,,,,,,75,0,74,395.9897650999774,,,,,,,,,,,,,,,,,,,,,,,395.97438359999796,395.9897650999774,396.47385009998106,,,,,,,,,,,,,,396.518739799998,,,,,,,,,,396.5159318999795,396.518739799998,396.518739799998,396.518739799998,399.49044870000216,j,1.799696700007189,0.18346699999528937,399.4906557999784,399.49072040000465,None,,,,,,,,,,,,,,,,,00032,001,2026-01-21_17h29.13.240,MST_task,2024.2.0,60.11089257577618,2026-01-21 17h29.20.067495 +0530,
,Scenes\110a.jpg,75,0,76,,,,,,,j,0.5815829999919515,0.16821440000785515,None,,,,,,76,0,75,399.5064618999895,,,,,,,,,,,,,,,,,,,,,,,399.4910295000009,399.5064618999895,399.9911219999776,,,,,,,,,,,,,,,,,,,,,,,,400.0935591000016,400.09679579999647,400.09679579999647,400.09679579999647,403.0070362999977,j,0.5815829999919515,0.16821440000785515,403.0072419999924,403.0073048999766,None,,,,,,,,,,,,,,,,,00032,001,2026-01-21_17h29.13.240,MST_task,2024.2.0,60.11089257577618,2026-01-21 17h29.20.067495 +0530,
,Scenes\155a.jpg,76,0,77,,,,,,,j,0.7317519999924116,0.12834739999379963,None,,,,,,77,0,76,403.0230687999865,,,,,,,,,,,,,,,,,,,,,,,403.0076745999977,403.0230687999865,403.50713089999044,,,,,,,,,,,,,,403.53795040000114,,,,,,,,,,403.53522180000436,403.53795040000114,403.53795040000114,403.53795040000114,406.52379909998854,j,0.7317519999924116,0.12834739999379963,406.52399259997765,406.5240555999917,None,,,,,,,,,,,,,,,,,00032,001,2026-01-21_17h29.13.240,MST_task,2024.2.0,60.11089257577618,2026-01-21 17h29.20.067495 +0530,
,Objects\020a.jpg,77,0,78,,,,,,,f,2.7243221000244375,0.16019599998253398,None,,,,,,78,0,77,406.53975759999594,,,,,,,,,,,,,,,,,,,,,,,406.5244249999814,406.53975759999594,407.0237960999948,,,,,,,,,,,,,,407.05002619998413,,,,,,,,,,407.0467119999812,407.05002619998413,407.05002619998413,407.05002619998413,410.04052700000466,f,2.7243221000244375,0.16019599998253398,410.04071979998844,410.04078630000004,None,,,,,,,,,,,,,,,,,00032,001,2026-01-21_17h29.13.240,MST_task,2024.2.0,60.11089257577618,2026-01-21 17h29.20.067495 +0530,
,Objects\059a.jpg,78,0,79,,,,,,,f,0.9613789000140969,0.16053069999907166,None,,,,,,79,0,78,410.05679370000144,,,,,,,,,,,,,,,,,,,,,,,410.0411477999878,410.05679370000144,410.54021320000174,,,,,,,,,,,,,,410.56445269999676,,,,,,,,,,410.5623055000033,410.56445269999676,410.56445269999676,410.56445269999676,413.5572861999972,f,0.9613789000140969,0.16053069999907166,413.55748909999966,413.55755349999527,None,,,,,,,,,,,,,,,,,00032,001,2026-01-21_17h29.13.240,MST_task,2024.2.0,60.11089257577618,2026-01-21 17h29.20.067495 +0530,
,Objects\050a.jpg,79,0,80,,,,,,,f,0.66276450001169,0.17636750001111068,None,,,,,,80,0,79,413.5734295999864,,,,,,,,,,,,,,,,,,,,,,,413.55792819999624,413.5734295999864,414.0571908999991,,,,,,,,,,,,,,414.07900090000476,,,,,,,,,,414.0764409999829,414.07900090000476,414.07900090000476,414.07900090000476,417.0736149000004,f,0.66276450001169,0.17636750001111068,417.07381109998096,417.07387419999577,None,,,,,,,,,,,,,,,,,00032,001,2026-01-21_17h29.13.240,MST_task,2024.2.0,60.11089257577618,2026-01-21 17h29.20.067495 +0530,
,Objects\124a.jpg,80,0,81,,,,,,,f,0.9402738999924622,0.1682866000046488,None,,,,,,81,0,80,417.09012429998256,,,,,,,,,,,,,,,,,,,,,,,417.0741646999959,417.09012429998256,417.57375209999736,,,,,,,,,,,,,,417.5933264999767,,,,,,,,,,417.59119310000096,417.5933264999767,417.5933264999767,417.5933264999767,420.59051729997736,f,0.9402738999924622,0.1682866000046488,420.59071190000395,420.5907765000011,None,,,,,,,,,,,,,,,,,00032,001,2026-01-21_17h29.13.240,MST_task,2024.2.0,60.11089257577618,2026-01-21 17h29.20.067495 +0530,
,Objects\182a.jpg,81,0,82,,,,,,,f,0.9273085999884643,0.13615820000995882,None,,,,,,82,0,81,420.60668899997836,,,,,,,,,,,,,,,,,,,,,,,420.5911417999887,420.60668899997836,421.09021409999696,,,,,,,,,,,,,,421.11860129999695,,,,,,,,,,421.1154193999828,421.11860129999695,421.11860129999695,421.11860129999695,424.10690009998507,f,0.9273085999884643,0.13615820000995882,424.1070914999873,424.1071544000006,None,,,,,,,,,,,,,,,,,00032,001,2026-01-21_17h29.13.240,MST_task,2024.2.0,60.11089257577618,2026-01-21 17h29.20.067495 +0530,
,Objects\129a.jpg,82,0,83,,,,,,,f,1.2941325000138022,0.12877149999258108,None,,,,,,83,0,82,424.12313989998074,,,,,,,,,,,,,,,,,,,,,,,424.1074417999771,424.12313989998074,424.6072067999921,,,,,,,,,,,,,,424.631674299977,,,,,,,,,,424.6289074999804,424.631674299977,424.631674299977,424.631674299977,427.62355619997834,f,1.2941325000138022,0.12877149999258108,427.6237542000017,427.6238191000011,None,,,,,,,,,,,,,,,,,00032,001,2026-01-21_17h29.13.240,MST_task,2024.2.0,60.11089257577618,2026-01-21 17h29.20.067495 +0530,
,Objects\110a.jpg,83,0,84,,,,,,,f,2.823956799984444,None,None,,,,,,84,0,83,427.63983109997935,,,,,,,,,,,,,,,,,,,,,,,427.62418439998874,427.63983109997935,428.1237912999932,,,,,,,,,,,,,,428.15008880000096,,,,,,,,,,428.1471879000019,428.15008880000096,428.15008880000096,428.15008880000096,431.14037159999134,f,2.823956799984444,None,431.1405556999962,431.14061479998054,None,,,,,,,,,,,,,,,,,00032,001,2026-01-21_17h29.13.240,MST_task,2024.2.0,60.11089257577618,2026-01-21 17h29.20.067495 +0530,
,Scenes\070a.jpg,84,0,85,,,,,,,f,2.68477150000399,0.1606405999918934,None,,,,,,85,0,84,431.1566691999906,,,,,,,,,,,,,,,,,,,,,,,431.14088669998455,431.1566691999906,431.6405320999911,,,,,,,,,,,,,,431.6731569999829,,,,,,,,,,431.6704772999801,431.6731569999829,431.6731569999829,431.6731569999829,434.64130869999644,f,2.68477150000399,0.1606405999918934,434.6415066999907,434.6415698999772,None,,,,,,,,,,,,,,,,,00032,001,2026-01-21_17h29.13.240,MST_task,2024.2.0,60.11089257577618,2026-01-21 17h29.20.067495 +0530,
,Scenes\018a.jpg,85,0,86,,,,,,,f,1.1811091000272427,0.15945219999412075,None,,,,,,86,0,85,434.6567994999932,,,,,,,,,,,,,,,,,,,,,,,434.64193189999787,434.6567994999932,435.14133769998443,,,,,,,,,,,,,,435.1692465999804,,,,,,,,,,435.16654019997804,435.1692465999804,435.1692465999804,435.1692465999804,438.15720039998996,f,1.1811091000272427,0.15945219999412075,438.1573943999829,438.1574586999777,None,,,,,,,,,,,,,,,,,00032,001,2026-01-21_17h29.13.240,MST_task,2024.2.0,60.11089257577618,2026-01-21 17h29.20.067495 +0530,
,Scenes\166a.jpg,86,0,87,,,,,,,j,0.8674825000052806,0.1923763999948278,None,,,,,,87,0,86,438.1733963000006,,,,,,,,,,,,,,,,,,,,,,,438.1577479999978,438.1733963000006,438.6572176000045,,,,,,,,,,,,,,438.69850249998854,,,,,,,,,,438.69587509997655,438.69850249998854,438.69850249998854,438.69850249998854,441.65778639999917,j,0.8674825000052806,0.1923763999948278,441.657981700002,441.6580466000014,None,,,,,,,,,,,,,,,,,00032,001,2026-01-21_17h29.13.240,MST_task,2024.2.0,60.11089257577618,2026-01-21 17h29.20.067495 +0530,
,Scenes\187a.jpg,87,0,88,,,,,,,j,1.0754848000069614,0.17554609998478554,None,,,,,,88,0,87,441.67310299997916,,,,,,,,,,,,,,,,,,,,,,,441.6584038999863,441.67310299997916,442.15720610000426,,,,,,,,,,,,,,442.18690499998047,,,,,,,,,,442.1840637999994,442.18690499998047,442.18690499998047,442.18690499998047,445.17380160000175,j,1.0754848000069614,0.17554609998478554,445.1740174999868,445.17407999999705,None,,,,,,,,,,,,,,,,,00032,001,2026-01-21_17h29.13.240,MST_task,2024.2.0,60.11089257577618,2026-01-21 17h29.20.067495 +0530,
,Scenes\027a.jpg,88,0,89,,,,,,,f,1.0945401999924798,0.1678161000018008,None,,,,,,89,0,88,445.19064990000334,,,,,,,,,,,,,,,,,,,,,,,445.1743829000043,445.19064990000334,445.67381069998373,,,,,,,,,,,,,,445.7038229999889,,,,,,,,,,445.7009656000009,445.7038229999889,445.7038229999889,445.7038229999889,448.69053469999926,f,1.0945401999924798,0.1678161000018008,448.69073400000343,448.69079860000056,None,,,,,,,,,,,,,,,,,00032,001,2026-01-21_17h29.13.240,MST_task,2024.2.0,60.11089257577618,2026-01-21 17h29.20.067495 +0530,
,Scenes\033a.jpg,89,0,90,,,,,,,j,1.995609700010391,0.11214440001640469,None,,,,,,90,0,89,448.70679389999714,,,,,,,,,,,,,,,,,,,,,,,448.69109330000356,448.70679389999714,449.1909309999901,,,,,,,,,,,,,,449.2179673999781,,,,,,,,,,449.21527279997827,449.2179673999781,449.2179673999781,449.2179673999781,452.19129359998624,j,1.995609700010391,0.11214440001640469,452.19149149997975,452.19155489999685,None,,,,,,,,,,,,,,,,,00032,001,2026-01-21_17h29.13.240,MST_task,2024.2.0,60.11089257577618,2026-01-21 17h29.20.067495 +0530,
,Scenes\083a.jpg,90,0,91,,,,,,,j,1.0099259999988135,0.10488749999785796,None,,,,,,91,0,90,452.2069647999888,,,,,,,,,,,,,,,,,,,,,,,452.1918455999985,452.2069647999888,452.69054739997955,,,,,,,,,,,,,,452.72374739998486,,,,,,,,,,452.721172199992,452.72374739998486,452.72374739998486,452.72374739998486,455.7074104999774,j,1.0099259999988135,0.10488749999785796,455.70760989998234,455.70767410000553,None,,,,,,,,,,,,,,,,,00032,001,2026-01-21_17h29.13.240,MST_task,2024.2.0,60.11089257577618,2026-01-21 17h29.20.067495 +0530,
,Objects\152a.jpg,91,0,92,,,,,,,f,1.7321295000147074,0.15947719998075627,None,,,,,,92,0,91,455.723399599985,,,,,,,,,,,,,,,,,,,,,,,455.70804379999754,455.723399599985,456.206935299997,,,,,,,,,,,,,,456.2342020999931,,,,,,,,,,456.2311755999981,456.2342020999931,456.2342020999931,456.2342020999931,459.22396469998057,f,1.7321295000147074,0.15947719998075627,459.22416339998017,459.2242275000026,None,,,,,,,,,,,,,,,,,00032,001,2026-01-21_17h29.13.240,MST_task,2024.2.0,60.11089257577618,2026-01-21 17h29.20.067495 +0530,
,Objects\143a.jpg,92,0,93,,,,,,,f,2.651741100009531,0.16814089997205883,None,,,,,,93,0,92,459.2404797000054,,,,,,,,,,,,,,,,,,,,,,,459.22459369999706,459.2404797000054,459.7238210999931,,,,,,,,,,,,,,459.7460016999976,,,,,,,,,,459.74316119999276,459.7460016999976,459.7460016999976,459.7460016999976,462.74069370000507,f,2.651741100009531,0.16814089997205883,462.74090000000433,462.7409664999868,None,,,,,,,,,,,,,,,,,00032,001,2026-01-21_17h29.13.240,MST_task,2024.2.0,60.11089257577618,2026-01-21 17h29.20.067495 +0530,
,Objects\137a.jpg,93,0,94,,,,,,,f,2.974347800016403,None,None,,,,,,94,0,93,462.75651639999705,,,,,,,,,,,,,,,,,,,,,,,462.74126189999515,462.75651639999705,463.24054259998957,,,,,,,,,,,,,,463.26331469998695,,,,,,,,,,463.26046540000243,463.26331469998695,463.26331469998695,463.26331469998695,466.2567543000041,f,2.974347800016403,None,466.2568277999817,466.2568468999816,None,,,,,,,,,,,,,,,,,00032,001,2026-01-21_17h29.13.240,MST_task,2024.2.0,60.11089257577618,2026-01-21 17h29.20.067495 +0530,
,Objects\092a.jpg,94,0,95,,,,,,,f,1.5691373999870848,0.16893240000354126,None,,,,,,95,0,94,466.2727011999814,,,,,,,,,,,,,,,,,,,,,,,466.2569392999867,466.2727011999814,466.75705139999627,,,,,,,,,,,,,,,,,,,,,,,,466.7786520999798,466.7808095999935,466.7808095999935,466.7808095999935,469.7571190999879,f,1.5691373999870848,0.16893240000354126,469.75731379998615,469.75737750000553,None,,,,,,,,,,,,,,,,,00032,001,2026-01-21_17h29.13.240,MST_task,2024.2.0,60.11089257577618,2026-01-21 17h29.20.067495 +0530,
,Objects\067a.jpg,95,0,96,,,,,,,f,1.276409500016598,0.16076719999546185,None,,,,,,96,0,95,469.77310029999353,,,,,,,,,,,,,,,,,,,,,,,469.7577413999825,469.77310029999353,470.2568003999768,,,,,,,,,,,,,,470.281351099984,,,,,,,,,,470.2782920000027,470.281351099984,470.281351099984,470.281351099984,473.2738136999833,f,1.276409500016598,0.16076719999546185,473.2740055999893,473.27407099999255,None,,,,,,,,,,,,,,,,,00032,001,2026-01-21_17h29.13.240,MST_task,2024.2.0,60.11089257577618,2026-01-21 17h29.20.067495 +0530,
,Objects\125a.jpg,96,0,97,,,,,,,f,2.1528042999852914,0.14361430000280961,None,,,,,,97,0,96,473.2899485999951,,,,,,,,,,,,,,,,,,,,,,,473.27435999998124,473.2899485999951,473.77367769999546,,,,,,,,,,,,,,473.89354979997734,,,,,,,,,,473.8911051999894,473.89354979997734,473.89354979997734,473.89354979997734,476.7905447999947,f,2.1528042999852914,0.14361430000280961,476.79074619998573,476.79081009997753,None,,,,,,,,,,,,,,,,,00032,001,2026-01-21_17h29.13.240,MST_task,2024.2.0,60.11089257577618,2026-01-21 17h29.20.067495 +0530,
,Objects\004a.jpg,97,0,98,,,,,,,f,2.3952942000178155,0.12088709999807179,None,,,,,,98,0,97,476.80674239998916,,,,,,,,,,,,,,,,,,,,,,,476.79117379998206,476.80674239998916,477.29056480000145,,,,,,,,,,,,,,477.314337799995,,,,,,,,,,477.3121889999893,477.314337799995,477.314337799995,477.314337799995,480.30719599997974,f,2.3952942000178155,0.12088709999807179,480.3073914999841,480.30745520000346,None,,,,,,,,,,,,,,,,,00032,001,2026-01-21_17h29.13.240,MST_task,2024.2.0,60.11089257577618,2026-01-21 17h29.20.067495 +0530,
,Scenes\094a.jpg,98,0,99,,,,,,,j,1.7165769999846816,0.12875100001110695,None,,,,,,99,0,98,480.32346499999403,,,,,,,,,,,,,,,,,,,,,,,480.30774779999047,480.32346499999403,480.80754399998114,,,,,,,,,,,,,,480.85714539999026,,,,,,,,,,480.8543457999767,480.85714539999026,480.85714539999026,480.85714539999026,483.8239959999919,j,1.7165769999846816,0.12875100001110695,483.82420339999953,483.8242681999982,None,,,,,,,,,,,,,,,,,00032,001,2026-01-21_17h29.13.240,MST_task,2024.2.0,60.11089257577618,2026-01-21 17h29.20.067495 +0530,
,Scenes\067a.jpg,99,0,100,,,,,,,f,1.1986361999879591,0.15223090001381934,None,,,,,,100,0,99,483.84025399998063,,,,,,,,,,,,,,,,,,,,,,,483.82456009997986,483.84025399998063,484.323799899983,,,,,,,,,,,,,,484.3516576999973,,,,,,,,,,484.34897789999377,484.3516576999973,484.3516576999973,484.3516576999973,487.3406395999773,f,1.1986361999879591,0.15223090001381934,487.34083319999627,487.3408977999934,None,,,,,,,,,,,,,,,,,00032,001,2026-01-21_17h29.13.240,MST_task,2024.2.0,60.11089257577618,2026-01-21 17h29.20.067495 +0530,
,Scenes\150a.jpg,100,0,101,,,,,,,j,1.1045335999806412,0.1441165000142064,None,,,,,,101,0,100,487.3567428999813,,,,,,,,,,,,,,,,,,,,,,,487.3412663000054,487.3567428999813,487.8405383999925,,,,,,,,,,,,,,487.8772537999903,,,,,,,,,,487.874441699998,487.8772537999903,487.8772537999903,487.8772537999903,490.8568846999842,j,1.1045335999806412,0.1441165000142064,490.8570798999863,490.8571459999948,None,,,,,,,,,,,,,,,,,00032,001,2026-01-21_17h29.13.240,MST_task,2024.2.0,60.11089257577618,2026-01-21 17h29.20.067495 +0530,
,Scenes\095a.jpg,101,0,102,,,,,,,f,2.7523595000093337,0.13617660000454634,None,,,,,,102,0,101,490.87339679998695,,,,,,,,,,,,,,,,,,,,,,,490.8575162999914,490.87339679998695,491.35721239997656,,,,,,,,,,,,,,491.3979388999869,,,,,,,,,,491.3950450999837,491.3979388999869,491.3979388999869,491.3979388999869,494.37374999999884,f,2.7523595000093337,0.13617660000454634,494.3739472999878,494.3740118999849,None,,,,,,,,,,,,,,,,,00032,001,2026-01-21_17h29.13.240,MST_task,2024.2.0,60.11089257577618,2026-01-21 17h29.20.067495 +0530,
,Scenes\088a.jpg,102,0,103,,,,,,,j,0.8684579999826383,0.12011540000094101,None,,,,,,103,0,102,494.3899318999902,,,,,,,,,,,,,,,,,,,,,,,494.3743821999815,494.3899318999902,494.8738085999794,,,,,,,,,,,,,,494.9139173000003,,,,,,,,,,494.9107127999887,494.9139173000003,494.9139173000003,494.9139173000003,497.8904454000003,j,0.8684579999826383,0.12011540000094101,497.89065259997733,497.89071769997827,None,,,,,,,,,,,,,,,,,00032,001,2026-01-21_17h29.13.240,MST_task,2024.2.0,60.11089257577618,2026-01-21 17h29.20.067495 +0530,
,Scenes\133a.jpg,103,0,104,,,,,,,j,1.0467578000098001,0.11961619998328388,None,,,,,,104,0,103,497.90680460000294,,,,,,,,,,,,,,,,,,,,,,,497.89110909999,497.90680460000294,498.3907106999832,,,,,,,,,,,,,,498.4235582999827,,,,,,,,,,498.4207124999957,498.4235582999827,498.4235582999827,498.4235582999827,501.4073083999974,j,1.0467578000098001,0.11961619998328388,501.40751940000337,501.4075847999775,None,,,,,,,,,,,,,,,,,00032,001,2026-01-21_17h29.13.240,MST_task,2024.2.0,60.11089257577618,2026-01-21 17h29.20.067495 +0530,
,Scenes\037a.jpg,104,0,105,,,,,,,j,1.2231693999783602,0.14404210000066087,None,,,,,,105,0,104,501.42344039998716,,,,,,,,,,,,,,,,,,,,,,,501.4079666000034,501.42344039998716,501.90748890000395,,,,,,,,,,,,,,501.9345597999927,,,,,,,,,,501.93073599998024,501.9345597999927,501.9345597999927,501.9345597999927,504.92398429999594,j,1.2231693999783602,0.14404210000066087,504.9241820999887,504.924245400005,None,,,,,,,,,,,,,,,,,00032,001,2026-01-21_17h29.13.240,MST_task,2024.2.0,60.11089257577618,2026-01-21 17h29.20.067495 +0530,
,Objects\184a.jpg,105,0,106,,,,,,,f,1.3272740000102203,0.14452410000376403,None,,,,,,106,0,105,504.94013679999625,,,,,,,,,,,,,,,,,,,,,,,504.92454340000404,504.94013679999625,505.4238323000027,,,,,,,,,,,,,,505.446715500002,,,,,,,,,,505.44383269999526,505.446715500002,505.446715500002,505.446715500002,508.44019429999753,f,1.3272740000102203,0.14452410000376403,508.44038779998664,508.44045140000526,None,,,,,,,,,,,,,,,,,00032,001,2026-01-21_17h29.13.240,MST_task,2024.2.0,60.11089257577618,2026-01-21 17h29.20.067495 +0530,
,Objects\033a.jpg,106,0,107,,,,,,,f,1.1414295999857131,0.19148690000292845,None,,,,,,107,0,106,508.45666759999585,,,,,,,,,,,,,,,,,,,,,,,508.44081489997916,508.45666759999585,508.9402121999883,,,,,,,,,,,,,,508.9768278999836,,,,,,,,,,508.97463489999063,508.9768278999836,508.9768278999836,508.9768278999836,511.95719099999405,f,1.1414295999857131,0.19148690000292845,511.9573864999984,511.95744899997953,None,,,,,,,,,,,,,,,,,00032,001,2026-01-21_17h29.13.240,MST_task,2024.2.0,60.11089257577618,2026-01-21 17h29.20.067495 +0530,
,Objects\025a.jpg,107,0,108,,,,,,,f,2.7499045000004116,0.1356272999837529,None,,,,,,108,0,107,511.97340099999565,,,,,,,,,,,,,,,,,,,,,,,511.9577416999964,511.97340099999565,512.4575881999917,,,,,,,,,,,,,,512.480392700003,,,,,,,,,,512.4782553999976,512.480392700003,512.480392700003,512.480392700003,515.4735615999962,f,2.7499045000004116,0.1356272999837529,515.4737624999834,515.4738253999967,None,,,,,,,,,,,,,,,,,00032,001,2026-01-21_17h29.13.240,MST_task,2024.2.0,60.11089257577618,2026-01-21 17h29.20.067495 +0530,
,Objects\032a.jpg,108,0,109,,,,,,,j,1.2147770000156015,0.1689176999789197,None,,,,,,109,0,108,515.4901423999981,,,,,,,,,,,,,,,,,,,,,,,515.4741960999963,515.4901423999981,515.9735546000011,,,,,,,,,,,,,,515.9989984999993,,,,,,,,,,515.9962287999806,515.9989984999993,515.9989984999993,515.9989984999993,518.9905166999961,j,1.2147770000156015,0.1689176999789197,518.9907082999998,518.9907720999909,None,,,,,,,,,,,,,,,,,00032,001,2026-01-21_17h29.13.240,MST_task,2024.2.0,60.11089257577618,2026-01-21 17h29.20.067495 +0530,
,Objects\035a.jpg,109,0,110,,,,,,,j,1.1718184000055771,0.1201973999850452,None,,,,,,110,0,109,519.0068147999991,,,,,,,,,,,,,,,,,,,,,,,518.9911403000006,519.0068147999991,519.4911420999852,,,,,,,,,,,,,,,,,,,,,,,,519.512329899997,519.5144742999983,519.5144742999983,519.5144742999983,522.5071850999957,j,1.1718184000055771,0.1201973999850452,522.507377699978,522.5074418000004,None,,,,,,,,,,,,,,,,,00032,001,2026-01-21_17h29.13.240,MST_task,2024.2.0,60.11089257577618,2026-01-21 17h29.20.067495 +0530,
,Objects\128a.jpg,110,0,111,,,,,,,f,2.122466100001475,0.14399360000970773,None,,,,,,111,0,110,522.5232294999878,,,,,,,,,,,,,,,,,,,,,,,522.5077338999836,522.5232294999878,523.007804599998,,,,,,,,,,,,,,,,,,,,,,,,523.0251321999822,523.0273966999957,523.0273966999957,523.0273966999957,526.0238098999835,f,2.122466100001475,0.14399360000970773,526.0239768000029,526.0240298999997,None,,,,,,,,,,,,,,,,,00032,001,2026-01-21_17h29.13.240,MST_task,2024.2.0,60.11089257577618,2026-01-21 17h29.20.067495 +0530,
,Objects\069a.jpg,111,0,112,,,,,,,j,1.9963940999878105,0.1360354000062216,None,,,,,,112,0,111,526.0400414000032,,,,,,,,,,,,,,,,,,,,,,,526.024267300003,526.0400414000032,526.5238218999875,,,,,,,,,,,,,,526.5456007999892,,,,,,,,,,526.5430125999846,526.5456007999892,526.5456007999892,526.5456007999892,529.5405704999866,j,1.9963940999878105,0.1360354000062216,529.5407664999948,529.5408294999797,None,,,,,,,,,,,,,,,,,00032,001,2026-01-21_17h29.13.240,MST_task,2024.2.0,60.11089257577618,2026-01-21 17h29.20.067495 +0530,
,Scenes\014a.jpg,112,0,113,,,,,,,j,1.8808560999750625,0.16819260001648217,None,,,,,,113,0,112,529.5568300999876,,,,,,,,,,,,,,,,,,,,,,,529.5411946999957,529.5568300999876,530.0408873999841,,,,,,,,,,,,,,530.0693476999877,,,,,,,,,,530.0667405999848,530.0693476999877,530.0693476999877,530.0693476999877,533.0573050999956,j,1.8808560999750625,0.16819260001648217,533.0574995999923,533.057564399991,None,,,,,,,,,,,,,,,,,00032,001,2026-01-21_17h29.13.240,MST_task,2024.2.0,60.11089257577618,2026-01-21 17h29.20.067495 +0530,
,Scenes\167a.jpg,113,0,114,,,,,,,f,2.096580499986885,0.16784129998995923,None,,,,,,114,0,113,533.0731537999818,,,,,,,,,,,,,,,,,,,,,,,533.0578610999801,533.0731537999818,533.5576207999839,,,,,,,,,,,,,,533.5897578999866,,,,,,,,,,533.5870302999974,533.5897578999866,533.5897578999866,533.5897578999866,536.5738029999775,f,2.096580499986885,0.16784129998995923,536.5739982999803,536.5740627999767,None,,,,,,,,,,,,,,,,,00032,001,2026-01-21_17h29.13.240,MST_task,2024.2.0,60.11089257577618,2026-01-21 17h29.20.067495 +0530,
,Scenes\015a.jpg,114,0,115,,,,,,,j,1.7229941999830771,0.12780580000253394,None,,,,,,115,0,114,536.5901488999953,,,,,,,,,,,,,,,,,,,,,,,536.5744316999917,536.5901488999953,537.0738127999939,,,,,,,,,,,,,,537.1072472999804,,,,,,,,,,537.1042195000045,537.1072472999804,537.1072472999804,537.1072472999804,540.0905380999902,j,1.7229941999830771,0.12780580000253394,540.0907313999778,540.0908121999819,None,,,,,,,,,,,,,,,,,00032,001,2026-01-21_17h29.13.240,MST_task,2024.2.0,60.11089257577618,2026-01-21 17h29.20.067495 +0530,
,Scenes\020a.jpg,115,0,116,,,,,,,None,,,f,0.17501089998404495,None,,,,116,0,115,540.1068033000047,,,,,,,,,,,,,,,,,,,,,,,540.0911813999992,540.1068033000047,540.5902260000003,,,,,,,,,,,,,,540.6243003999989,,,,,,,,,,540.6212053000054,540.6243003999989,540.6243003999989,540.6243003999989,543.607218899997,None,,,543.6073987999989,543.8076718999946,f,543.623276999977,543.623276999977,0.17501089998404495,None,,,,,,,,,,,,,00032,001,2026-01-21_17h29.13.240,MST_task,2024.2.0,60.11089257577618,2026-01-21 17h29.20.067495 +0530,
,Scenes\055a.jpg,116,0,117,,,,,,,j,1.2559917999897152,0.16022740001790226,None,,,,,,117,0,116,543.8234116999956,,,,,,,,,,,,,,,,,,,,,,,543.8081258999882,543.8234116999956,544.3072250999976,,,,,,,,,,,,,,544.3502853999962,,,,,,,,,,544.3473356000031,544.3502853999962,544.3502853999962,544.3502853999962,547.3237967999885,j,1.2559917999897152,0.16022740001790226,547.3240061999823,547.3240719999885,None,,,,,,,,,,,,,,,,,00032,001,2026-01-21_17h29.13.240,MST_task,2024.2.0,60.11089257577618,2026-01-21 17h29.20.067495 +0530,
,Scenes\100a.jpg,117,0,118,,,,,,,f,2.2956513999961317,0.13592969998717308,None,,,,,,118,0,117,547.3401973999862,,,,,,,,,,,,,,,,,,,,,,,547.3243758000026,547.3401973999862,547.8238098000002,,,,,,,,,,,,,,547.8541796999925,,,,,,,,,,547.8514900000009,547.8541796999925,547.8541796999925,547.8541796999925,550.8405165000004,f,2.2956513999961317,0.13592969998717308,550.8407121999771,550.8407775999804,None,,,,,,,,,,,,,,,,,00032,001,2026-01-21_17h29.13.240,MST_task,2024.2.0,60.11089257577618,2026-01-21 17h29.20.067495 +0530,
,Scenes\023a.jpg,118,0,119,,,,,,,f,0.7803205999953207,0.17669029999524355,None,,,,,,119,0,118,550.8566059999866,,,,,,,,,,,,,,,,,,,,,,,550.8411465999961,550.8566059999866,551.3407718999952,,,,,,,,,,,,,,551.3774379999959,,,,,,,,,,551.3744597999903,551.3774379999959,551.3774379999959,551.3774379999959,554.3578253999876,f,0.7803205999953207,0.17669029999524355,554.3580166999891,554.3580818999908,None,,,,,,,,,,,,,,,,,00032,001,2026-01-21_17h29.13.240,MST_task,2024.2.0,60.11089257577618,2026-01-21 17h29.20.067495 +0530,
,Objects\087a.jpg,119,0,120,,,,,,,j,1.5360268999938853,0.1435050999862142,None,,,,,,120,0,119,554.3734620999894,,,,,,,,,,,,,,,,,,,,,,,554.3584849000035,554.3734620999894,554.8569104000053,,,,,,,,,,,,,,554.878219199978,,,,,,,,,,554.8752257000015,554.878219199978,554.878219199978,554.878219199978,557.8736542999977,j,1.5360268999938853,0.1435050999862142,557.8738486999937,557.8739135999931,None,,,,,,,,,,,,,,,,,00032,001,2026-01-21_17h29.13.240,MST_task,2024.2.0,60.11089257577618,2026-01-21 17h29.20.067495 +0530,
,Objects\029a.jpg,120,0,121,,,,,,,f,0.8022232000075746,0.16718399999081157,None,,,,,,121,0,120,557.890413999994,,,,,,,,,,,,,,,,,,,,,,,557.8742801999906,557.890413999994,558.3740303999803,,,,,,,,,,,,,,558.3964005000016,,,,,,,,,,558.3933314000024,558.3964005000016,558.3964005000016,558.3964005000016,561.3902713999851,f,0.8022232000075746,0.16718399999081157,561.390473699983,561.3905392999877,None,,,,,,,,,,,,,,,,,00032,001,2026-01-21_17h29.13.240,MST_task,2024.2.0,60.11089257577618,2026-01-21 17h29.20.067495 +0530,
,Objects\017a.jpg,121,0,122,,,,,,,f,2.081010200025048,0.16019939997931942,None,,,,,,122,0,121,561.4068649999972,,,,,,,,,,,,,,,,,,,,,,,561.390808600001,561.4068649999972,561.891128999996,,,,,,,,,,,,,,,,,,,,,,,,561.913931099989,561.9167929999821,561.9167929999821,561.9167929999821,564.9081592999864,f,2.081010200025048,0.16019939997931942,564.9083641000034,564.9084305999859,None,,,,,,,,,,,,,,,,,00032,001,2026-01-21_17h29.13.240,MST_task,2024.2.0,60.11089257577618,2026-01-21 17h29.20.067495 +0530,
,Objects\041a.jpg,122,0,123,,,,,,,j,0.9399124000046868,0.1448005000129342,None,,,,,,123,0,122,564.9233664999774,,,,,,,,,,,,,,,,,,,,,,,564.9087284999841,564.9233664999774,565.4072045999928,,,,,,,,,,,,,,565.4337550999771,,,,,,,,,,565.43142909999,565.4337550999771,565.4337550999771,565.4337550999771,568.4234288999869,j,0.9399124000046868,0.1448005000129342,568.4236332,568.4236979999987,None,,,,,,,,,,,,,,,,,00032,001,2026-01-21_17h29.13.240,MST_task,2024.2.0,60.11089257577618,2026-01-21 17h29.20.067495 +0530,
,Objects\154a.jpg,123,0,124,,,,,,,f,1.688886799995089,0.17556099998182617,None,,,,,,124,0,123,568.4400882000045,,,,,,,,,,,,,,,,,,,,,,,568.4240705999837,568.4400882000045,568.923506799998,,,,,,,,,,,,,,568.9494193999853,,,,,,,,,,568.9465070999868,568.9494193999853,568.9494193999853,568.9494193999853,571.9241980999941,f,1.688886799995089,0.17556099998182617,571.9243918999855,571.9244726999896,None,,,,,,,,,,,,,,,,,00032,001,2026-01-21_17h29.13.240,MST_task,2024.2.0,60.11089257577618,2026-01-21 17h29.20.067495 +0530,
,Objects\044a.jpg,124,0,125,,,,,,,f,1.908251000015298,0.16853419999824837,None,,,,,,125,0,124,571.9401727999793,,,,,,,,,,,,,,,,,,,,,,,571.924837700004,571.9401727999793,572.4238171000034,,,,,,,,,,,,,,572.4580029999779,,,,,,,,,,572.4548474999901,572.4580029999779,572.4580029999779,572.4580029999779,575.4412815999822,f,1.908251000015298,0.16853419999824837,575.4414843999839,575.4415495999856,None,,,,,,,,,,,,,,,,,00032,001,2026-01-21_17h29.13.240,MST_task,2024.2.0,60.11089257577618,2026-01-21 17h29.20.067495 +0530,
,Objects\189a.jpg,125,0,126,,,,,,,f,1.4771668000030331,0.16751509997993708,None,,,,,,126,0,125,575.4566866999958,,,,,,,,,,,,,,,,,,,,,,,575.4418450999947,575.4566866999958,575.9403108999832,,,,,,,,,,,,,,575.9611000999867,,,,,,,,,,575.958739099995,575.9611000999867,575.9611000999867,575.9611000999867,578.9572375999996,f,1.4771668000030331,0.16751509997993708,578.9574327000009,578.9574969999958,None,,,,,,,,,,,,,,,,,00032,001,2026-01-21_17h29.13.240,MST_task,2024.2.0,60.11089257577618,2026-01-21 17h29.20.067495 +0530,
,Scenes\111a.jpg,126,0,127,,,,,,,j,0.8509236999962013,0.17686890001641586,None,,,,,,127,0,126,578.9734055000008,,,,,,,,,,,,,,,,,,,,,,,578.9578654999787,578.9734055000008,579.4572264000017,,,,,,,,,,,,,,579.4906283000018,,,,,,,,,,579.4879390999849,579.4906283000018,579.4906283000018,579.4906283000018,582.4738402999938,j,0.8509236999962013,0.17686890001641586,582.474033299979,582.4740979000053,None,,,,,,,,,,,,,,,,,00032,001,2026-01-21_17h29.13.240,MST_task,2024.2.0,60.11089257577618,2026-01-21 17h29.20.067495 +0530,
,Scenes\189a.jpg,127,0,128,,,,,,,None,,,j,1.8555913000018336,None,,,,128,0,127,582.4900847999961,,,,,,,,,,,,,,,,,,,,,,,582.4744092999899,582.4900847999961,582.9738342999772,,,,,,,,,,,,,,583.0172623999824,,,,,,,,,,583.0143920999835,583.0172623999824,583.0172623999824,583.0172623999824,585.9911768999882,None,,,585.9913588999771,587.8735898000014,j,586.0066219999862,586.0066219999862,1.8555913000018336,None,,,,,,,,,,,,,00032,001,2026-01-21_17h29.13.240,MST_task,2024.2.0,60.11089257577618,2026-01-21 17h29.20.067495 +0530,
,Scenes\178a.jpg,128,0,129,,,,,,,j,1.109895699977642,0.16788069999893196,None,,,,,,129,0,128,587.8897627999831,,,,,,,,,,,,,,,,,,,,,,,587.8739320999885,587.8897627999831,588.3738059999887,,,,,,,,,,,,,,588.4082966999849,,,,,,,,,,588.4049616999982,588.4082966999849,588.4082966999849,588.4082966999849,591.3902243000048,j,1.109895699977642,0.16788069999893196,591.3904220999975,591.3904905999952,None,,,,,,,,,,,,,,,,,00032,001,2026-01-21_17h29.13.240,MST_task,2024.2.0,60.11089257577618,2026-01-21 17h29.20.067495 +0530,
,Scenes\118a.jpg,129,0,130,,,,,,,j,1.6673841000010725,0.12818689999403432,None,,,,,,130,0,129,591.4069128999836,,,,,,,,,,,,,,,,,,,,,,,591.3907824000053,591.4069128999836,591.8905749999976,,,,,,,,,,,,,,591.9228893999825,,,,,,,,,,591.9201013999991,591.9228893999825,591.9228893999825,591.9228893999825,594.9064396999893,j,1.6673841000010725,0.12818689999403432,594.9065909000055,594.9066432999971,None,,,,,,,,,,,,,,,,,00032,001,2026-01-21_17h29.13.240,MST_task,2024.2.0,60.11089257577618,2026-01-21 17h29.20.067495 +0530,
,Scenes\010a.jpg,130,0,131,,,,,,,j,1.2031389999901876,0.14423999999416992,None,,,,,,131,0,130,594.9228698999796,,,,,,,,,,,,,,,,,,,,,,,594.9069320999843,594.9228698999796,595.4075976999884,,,,,,,,,,,,,,,,,,,,,,,,595.4391641999828,595.4424739999813,595.4424739999813,595.4424739999813,598.4072127999971,j,1.2031389999901876,0.14423999999416992,598.4074059999839,598.407472699997,None,,,,,,,,,,,,,,,,,00032,001,2026-01-21_17h29.13.240,MST_task,2024.2.0,60.11089257577618,2026-01-21 17h29.20.067495 +0530,
,Scenes\051a.jpg,131,0,132,,,,,,,j,0.8041798000049312,0.16016239998862147,None,,,,,,132,0,131,598.4234270000015,,,,,,,,,,,,,,,,,,,,,,,598.4078461999889,598.4234270000015,598.907238499989,,,,,,,,,,,,,,598.9373320000013,,,,,,,,,,598.9345959999773,598.9373320000013,598.9373320000013,598.9373320000013,601.923821000004,j,0.8041798000049312,0.16016239998862147,601.9240351000044,601.9240993999992,None,,,,,,,,,,,,,,,,,00032,001,2026-01-21_17h29.13.240,MST_task,2024.2.0,60.11089257577618,2026-01-21 17h29.20.067495 +0530,
,Scenes\077a.jpg,132,0,133,,,,,,,j,0.8032634999835864,0.16791530000045896,None,,,,,,133,0,132,601.9401415000029,,,,,,,,,,,,,,,,,,,,,,,601.9245451999886,601.9401415000029,602.4240674999892,,,,,,,,,,,,,,602.4589375999931,,,,,,,,,,602.4557635999809,602.4589375999931,602.4589375999931,602.4589375999931,605.4405947999912,j,0.8032634999835864,0.16791530000045896,605.4407868999988,605.4408515999967,None,,,,,,,,,,,,,,,,,00032,001,2026-01-21_17h29.13.240,MST_task,2024.2.0,60.11089257577618,2026-01-21 17h29.20.067495 +0530,
,Objects\090a.jpg,133,0,134,,,,,,,j,1.603804599988507,0.12759079999523237,None,,,,,,134,0,133,605.4568146999809,,,,,,,,,,,,,,,,,,,,,,,605.441147399979,605.4568146999809,605.9401996999804,,,,,,,,,,,,,,605.9623862000008,,,,,,,,,,605.95978439998,605.9623862000008,605.9623862000008,605.9623862000008,608.9572077000048,j,1.603804599988507,0.12759079999523237,608.9574033999816,608.9574667999987,None,,,,,,,,,,,,,,,,,00032,001,2026-01-21_17h29.13.240,MST_task,2024.2.0,60.11089257577618,2026-01-21 17h29.20.067495 +0530,
,Objects\180a.jpg,134,0,135,,,,,,,f,1.461359499982791,0.1520547000109218,None,,,,,,135,0,134,608.9734080999915,,,,,,,,,,,,,,,,,,,,,,,608.9577610999986,608.9734080999915,609.4574292000034,,,,,,,,,,,,,,609.4890019999875,,,,,,,,,,609.4865665999823,609.4890019999875,609.4890019999875,609.4890019999875,612.4738130999904,f,1.461359499982791,0.1520547000109218,612.4740085999947,612.4740714999789,None,,,,,,,,,,,,,,,,,00032,001,2026-01-21_17h29.13.240,MST_task,2024.2.0,60.11089257577618,2026-01-21 17h29.20.067495 +0530,
,Objects\088a.jpg,135,0,136,,,,,,,f,1.0997350999969058,0.18437950001680292,None,,,,,,136,0,135,612.4901496999955,,,,,,,,,,,,,,,,,,,,,,,612.474369899981,612.4901496999955,612.9735693999974,,,,,,,,,,,,,,613.0022473999998,,,,,,,,,,612.9997412999801,613.0022473999998,613.0022473999998,613.0022473999998,615.9903029999987,f,1.0997350999969058,0.18437950001680292,615.9905061000027,615.9905677999777,None,,,,,,,,,,,,,,,,,00032,001,2026-01-21_17h29.13.240,MST_task,2024.2.0,60.11089257577618,2026-01-21 17h29.20.067495 +0530,
,Objects\055a.jpg,136,0,137,,,,,,,f,1.0231371000118088,0.1599694000033196,None,,,,,,137,0,136,616.00683139998,,,,,,,,,,,,,,,,,,,,,,,615.9909594999917,616.00683139998,616.4903389999818,,,,,,,,,,,,,,616.5106120999844,,,,,,,,,,616.5078910999873,616.5106120999844,616.5106120999844,616.5106120999844,619.5068936999887,f,1.0231371000118088,0.1599694000033196,619.5070917999838,619.5071543999948,None,,,,,,,,,,,,,,,,,00032,001,2026-01-21_17h29.13.240,MST_task,2024.2.0,60.11089257577618,2026-01-21 17h29.20.067495 +0530,
,Objects\008a.jpg,137,0,138,,,,,,,f,1.9910230999812484,0.1448046000150498,None,,,,,,138,0,137,619.5230470999959,,,,,,,,,,,,,,,,,,,,,,,619.5074449999956,619.5230470999959,620.0072290999815,,,,,,,,,,,,,,620.0305891000025,,,,,,,,,,620.0277766999789,620.0305891000025,620.0305891000025,620.0305891000025,623.0236921999895,f,1.9910230999812484,0.1448046000150498,623.0238652999979,623.0239204999816,None,,,,,,,,,,,,,,,,,00032,001,2026-01-21_17h29.13.240,MST_task,2024.2.0,60.11089257577618,2026-01-21 17h29.20.067495 +0530,
,Objects\027a.jpg,138,0,139,,,,,,,f,1.4183075999899302,0.1678957999974955,None,,,,,,139,0,138,623.0401050999935,,,,,,,,,,,,,,,,,,,,,,,623.0242370999767,623.0401050999935,623.5238189999945,,,,,,,,,,,,,,623.5555135000031,,,,,,,,,,623.5531803999911,623.5555135000031,623.5555135000031,623.5555135000031,626.5412936999928,f,1.4183075999899302,0.1678957999974955,626.5414845999912,626.5415469,None,,,,,,,,,,,,,,,,,00032,001,2026-01-21_17h29.13.240,MST_task,2024.2.0,60.11089257577618,2026-01-21 17h29.20.067495 +0530,
,Objects\169a.jpg,139,0,140,,,,,,,j,1.736286100000143,0.15267470001708716,None,,,,,,140,0,139,626.5568134999776,,,,,,,,,,,,,,,,,,,,,,,626.5418372999993,626.5568134999776,627.0406729999813,,,,,,,,,,,,,,627.0934425999876,,,,,,,,,,627.0903977999988,627.0934425999876,627.0934425999876,627.0934425999876,630.0568698999996,j,1.736286100000143,0.15267470001708716,630.0570591999858,630.0571233999799,None,,,,,,,,,,,,,,,,,00032,001,2026-01-21_17h29.13.240,MST_task,2024.2.0,60.11089257577618,2026-01-21 17h29.20.067495 +0530,
,Scenes\140a.jpg,140,0,141,,,,,,,j,1.7498053000017535,0.11979810000048019,None,,,,,,141,0,140,630.0733887999959,,,,,,,,,,,,,,,,,,,,,,,630.0574111999886,630.0733887999959,630.5571330999956,,,,,,,,,,,,,,630.5844389999984,,,,,,,,,,630.5818051999959,630.5844389999984,630.5844389999984,630.5844389999984,633.5738896999974,j,1.7498053000017535,0.11979810000048019,633.574088399997,633.5741568999947,None,,,,,,,,,,,,,,,,,00032,001,2026-01-21_17h29.13.240,MST_task,2024.2.0,60.11089257577618,2026-01-21 17h29.20.067495 +0530,
,Scenes\126a.jpg,141,0,142,,,,,,,j,0.5791108999983408,0.12815589999081567,None,,,,,,142,0,141,633.5900984999898,,,,,,,,,,,,,,,,,,,,,,,633.5745258999814,633.5900984999898,634.0738824,,,,,,,,,,,,,,634.106784100004,,,,,,,,,,634.1039530999842,634.106784100004,634.106784100004,634.106784100004,637.0901201999804,j,0.5791108999983408,0.12815589999081567,637.0903077999828,637.0903725999815,None,,,,,,,,,,,,,,,,,00032,001,2026-01-21_17h29.13.240,MST_task,2024.2.0,60.11089257577618,2026-01-21 17h29.20.067495 +0530,
,Scenes\149a.jpg,142,0,143,,,,,,,f,2.307600000000093,0.16059099999256432,None,,,,,,143,0,142,637.106852900004,,,,,,,,,,,,,,,,,,,,,,,637.0907353999792,637.106852900004,637.5904870999802,,,,,,,,,,,,,,637.6181907999853,,,,,,,,,,637.6154039999819,637.6181907999853,637.6181907999853,637.6181907999853,640.5907503000053,f,2.307600000000093,0.16059099999256432,640.5909444999998,640.5910105999792,None,,,,,,,,,,,,,,,,,00032,001,2026-01-21_17h29.13.240,MST_task,2024.2.0,60.11089257577618,2026-01-21 17h29.20.067495 +0530,
,Scenes\145a.jpg,143,0,144,,,,,,,j,0.7509135000000242,0.1443859999999404,None,,,,,,144,0,143,640.6065417999926,,,,,,,,,,,,,,,,,,,,,,,640.5913045999769,640.6065417999926,641.0906222999911,,,,,,,,,,,,,,641.1190797000017,,,,,,,,,,641.116735699994,641.1190797000017,641.1190797000017,641.1190797000017,644.1072198000038,j,0.7509135000000242,0.1443859999999404,644.1074158999836,644.107479600003,None,,,,,,,,,,,,,,,,,00032,001,2026-01-21_17h29.13.240,MST_task,2024.2.0,60.11089257577618,2026-01-21 17h29.20.067495 +0530,
,Scenes\063a.jpg,144,0,145,,,,,,,j,1.753553100017598,0.20023099999525584,None,,,,,,145,0,144,644.123492099985,,,,,,,,,,,,,,,,,,,,,,,644.1078455999959,644.123492099985,644.6069653999875,,,,,,,,,,,,,,644.6527292999963,,,,,,,,,,644.6498845999886,644.6527292999963,644.6527292999963,644.6527292999963,647.6238903999911,j,1.753553100017598,0.20023099999525584,647.6240977999987,647.6241636999766,None,,,,,,,,,,,,,,,,,00032,001,2026-01-21_17h29.13.240,MST_task,2024.2.0,60.11089257577618,2026-01-21 17h29.20.067495 +0530,
,Scenes\180a.jpg,145,0,146,,,,,,,j,0.6510813000204507,0.1201223999960348,None,,,,,,146,0,145,647.6402744999796,,,,,,,,,,,,,,,,,,,,,,,647.6245313999825,647.6402744999796,648.1235768999904,,,,,,,,,,,,,,648.1544986999943,,,,,,,,,,648.1516064000025,648.1544986999943,648.1544986999943,648.1544986999943,651.1404957999766,j,0.6510813000204507,0.1201223999960348,651.1406921999878,651.1407559999789,None,,,,,,,,,,,,,,,,,00032,001,2026-01-21_17h29.13.240,MST_task,2024.2.0,60.11089257577618,2026-01-21 17h29.20.067495 +0530,
,Scenes\120a.jpg,146,0,147,,,,,,,j,2.7334665000089444,0.15951199998380616,None,,,,,,147,0,146,651.1568192999985,,,,,,,,,,,,,,,,,,,,,,,651.1410484999942,651.1568192999985,651.6401371999818,,,,,,,,,,,,,,651.6728310000035,,,,,,,,,,651.6689540999942,651.6728310000035,651.6728310000035,651.6728310000035,654.6570327999943,j,2.7334665000089444,0.15951199998380616,654.6572260999819,654.6572913999844,None,,,,,,,,,,,,,,,,,00032,001,2026-01-21_17h29.13.240,MST_task,2024.2.0,60.11089257577618,2026-01-21 17h29.20.067495 +0530,
,Objects\111a.jpg,147,0,148,,,,,,,f,2.719403900002362,0.12753579998388886,None,,,,,,148,0,147,654.6734904999903,,,,,,,,,,,,,,,,,,,,,,,654.6575114000007,654.6734904999903,655.1569348999765,,,,,,,,,,,,,,655.1827647000027,,,,,,,,,,655.1795892999799,655.1827647000027,655.1827647000027,655.1827647000027,658.1737062000029,f,2.719403900002362,0.12753579998388886,658.1738964999968,658.1739610999939,None,,,,,,,,,,,,,,,,,00032,001,2026-01-21_17h29.13.240,MST_task,2024.2.0,60.11089257577618,2026-01-21 17h29.20.067495 +0530,
,Objects\065a.jpg,148,0,149,,,,,,,f,2.2796872000035364,0.13611630001105368,None,,,,,,149,0,148,658.1897304999875,,,,,,,,,,,,,,,,,,,,,,,658.1743252000015,658.1897304999875,658.6735843999777,,,,,,,,,,,,,,658.7978641999944,,,,,,,,,,658.7945404999773,658.7978641999944,658.7978641999944,658.7978641999944,661.6903129999992,f,2.2796872000035364,0.13611630001105368,661.6905107999919,661.6905774000043,None,,,,,,,,,,,,,,,,,00032,001,2026-01-21_17h29.13.240,MST_task,2024.2.0,60.11089257577618,2026-01-21 17h29.20.067495 +0530,
,Objects\081a.jpg,149,0,150,,,,,,,j,1.5821195999742486,0.16812000001664273,None,,,,,,150,0,149,661.7068217999768,,,,,,,,,,,,,,,,,,,,,,,661.6909445999772,661.7068217999768,662.189997199981,,,,,,,,,,,,,,662.2078121999803,,,,,,,,,,662.2057514000044,662.2078121999803,662.2078121999803,662.2078121999803,665.1912873999972,j,1.5821195999742486,0.16812000001664273,665.191479799978,665.1915437999996,None,,,,,,,,,,,,,,,,,00032,001,2026-01-21_17h29.13.240,MST_task,2024.2.0,60.11089257577618,2026-01-21 17h29.20.067495 +0530,
,Objects\134a.jpg,150,0,151,,,,,,,j,2.323774999997113,0.16804129999945872,None,,,,,,151,0,150,665.2068355999945,,,,,,,,,,,,,,,,,,,,,,,665.1918379999988,665.2068355999945,665.6905852000054,,,,,,,,,,,,,,665.7379503999837,,,,,,,,,,665.7357708000054,665.7379503999837,665.7379503999837,665.7379503999837,668.707196399977,j,2.323774999997113,0.16804129999945872,668.7073942999996,668.7074621999927,None,,,,,,,,,,,,,,,,,00032,001,2026-01-21_17h29.13.240,MST_task,2024.2.0,60.11089257577618,2026-01-21 17h29.20.067495 +0530,
,Objects\076a.jpg,151,0,152,,,,,,,j,0.9095826999982819,0.17668659999617375,None,,,,,,152,0,151,668.7233408000029,,,,,,,,,,,,,,,,,,,,,,,668.7078376999998,668.7233408000029,669.2073037999799,,,,,,,,,,,,,,669.231925,,,,,,,,,,669.2293752999976,669.231925,669.231925,669.231925,672.2238530000031,j,0.9095826999982819,0.17668659999617375,672.2240518000035,672.2241179999837,None,,,,,,,,,,,,,,,,,00032,001,2026-01-21_17h29.13.240,MST_task,2024.2.0,60.11089257577618,2026-01-21 17h29.20.067495 +0530,
,Objects\178a.jpg,152,0,153,,,,,,,j,1.295481800014386,0.14363149998825975,None,,,,,,153,0,152,672.2409099999932,,,,,,,,,,,,,,,,,,,,,,,672.2244913000031,672.2409099999932,672.7404103000008,,,,,,,,,,,,,,,,,,,,,,,,672.764415099984,672.7666888999811,672.7666888999811,672.7666888999811,675.740868199995,j,1.295481800014386,0.14363149998825975,675.7410602000018,675.741128099995,None,,,,,,,,,,,,,,,,,00032,001,2026-01-21_17h29.13.240,MST_task,2024.2.0,60.11089257577618,2026-01-21 17h29.20.067495 +0530,
,Objects\108a.jpg,153,0,154,,,,,,,j,1.8340214999916498,0.21596580001641996,None,,,,,,154,0,153,675.7565171000024,,,,,,,,,,,,,,,,,,,,,,,675.741418199992,675.7565171000024,676.2405891999952,,,,,,,,,,,,,,676.2756525999866,,,,,,,,,,676.2727472999832,676.2756525999866,676.2756525999866,676.2756525999866,679.25727859998,j,1.8340214999916498,0.21596580001641996,679.2574672999908,679.2575308999803,None,,,,,,,,,,,,,,,,,00032,001,2026-01-21_17h29.13.240,MST_task,2024.2.0,60.11089257577618,2026-01-21 17h29.20.067495 +0530,
,Scenes\012a.jpg,154,0,155,,,,,,,j,1.5099729999783449,0.16789750001044013,None,,,,,,155,0,154,679.2734250999929,,,,,,,,,,,,,,,,,,,,,,,679.2578954999917,679.2734250999929,679.7567101999884,,,,,,,,,,,,,,679.7997841000033,,,,,,,,,,679.7965072999941,679.7997841000033,679.7997841000033,679.7997841000033,682.7735138999997,j,1.5099729999783449,0.16789750001044013,682.7737091000017,682.7737729999935,None,,,,,,,,,,,,,,,,,00032,001,2026-01-21_17h29.13.240,MST_task,2024.2.0,60.11089257577618,2026-01-21 17h29.20.067495 +0530,
,Scenes\092a.jpg,155,0,156,,,,,,,j,2.854461500013713,None,None,,,,,,156,0,155,682.7898505999765,,,,,,,,,,,,,,,,,,,,,,,682.7741496999806,682.7898505999765,683.2737075999903,,,,,,,,,,,,,,683.3031112999888,,,,,,,,,,683.3003890999826,683.3031112999888,683.3031112999888,683.3031112999888,686.2904196000018,j,2.854461500013713,None,686.2906094999926,686.2906758000026,None,,,,,,,,,,,,,,,,,00032,001,2026-01-21_17h29.13.240,MST_task,2024.2.0,60.11089257577618,2026-01-21 17h29.20.067495 +0530,
,Scenes\066a.jpg,156,0,157,,,,,,,j,0.6874984999885783,0.14429910000762902,None,,,,,,157,0,156,686.3068675999821,,,,,,,,,,,,,,,,,,,,,,,686.2909622000006,686.3068675999821,686.7903218999854,,,,,,,,,,,,,,686.8219687999808,,,,,,,,,,686.8193421000033,686.8219687999808,686.8219687999808,686.8219687999808,689.8072364999971,j,0.6874984999885783,0.14429910000762902,689.8074296999839,689.8074960999948,None,,,,,,,,,,,,,,,,,00032,001,2026-01-21_17h29.13.240,MST_task,2024.2.0,60.11089257577618,2026-01-21 17h29.20.067495 +0530,
,Scenes\122a.jpg,157,0,158,,,,,,,f,2.405182300019078,0.15217919999849983,None,,,,,,158,0,157,689.8234352,,,,,,,,,,,,,,,,,,,,,,,689.8078613999824,689.8234352,690.307247299992,,,,,,,,,,,,,,690.3522759999905,,,,,,,,,,690.3491319000022,690.3522759999905,690.3522759999905,690.3522759999905,693.323840099998,f,2.405182300019078,0.15217919999849983,693.3240321999765,693.324098299985,None,,,,,,,,,,,,,,,,,00032,001,2026-01-21_17h29.13.240,MST_task,2024.2.0,60.11089257577618,2026-01-21 17h29.20.067495 +0530,
,Scenes\142a.jpg,158,0,159,,,,,,,j,0.9035840000142343,0.1682233999890741,None,,,,,,159,0,158,693.3399218999839,,,,,,,,,,,,,,,,,,,,,,,693.324472599983,693.3399218999839,693.8237619999854,,,,,,,,,,,,,,693.8541082000011,,,,,,,,,,693.8511821999855,693.8541082000011,693.8541082000011,693.8541082000011,696.8405897999764,j,0.9035840000142343,0.1682233999890741,696.8407913999981,696.8408610000042,None,,,,,,,,,,,,,,,,,00032,001,2026-01-21_17h29.13.240,MST_task,2024.2.0,60.11089257577618,2026-01-21 17h29.20.067495 +0530,
,Scenes\191a.jpg,159,0,160,,,,,,,j,1.2038330000068527,0.1439783000096213,None,,,,,,160,0,159,696.8568099999975,,,,,,,,,,,,,,,,,,,,,,,696.8412441999826,696.8568099999975,697.3402457000047,,,,,,,,,,,,,,697.3857006999897,,,,,,,,,,697.3829824999848,697.3857006999897,697.3857006999897,697.3857006999897,700.3572490999941,j,1.2038330000068527,0.1439783000096213,700.3574500999821,700.3575129999954,None,,,,,,,,,,,,,,,,,00032,001,2026-01-21_17h29.13.240,MST_task,2024.2.0,60.11089257577618,2026-01-21 17h29.20.067495 +0530,
,Scenes\052a.jpg,160,0,161,,,,,,,j,2.099327699979767,0.12818309999420308,None,,,,,,161,0,160,700.3734454999794,,,,,,,,,,,,,,,,,,,,,,,700.3578247999831,700.3734454999794,700.8572369999893,,,,,,,,,,,,,,700.890794499981,,,,,,,,,,700.8877403999795,700.890794499981,700.890794499981,700.890794499981,703.8734788000002,j,2.099327699979767,0.12818309999420308,703.8736861999787,703.8737533999956,None,,,,,,,,,,,,,,,,,00032,001,2026-01-21_17h29.13.240,MST_task,2024.2.0,60.11089257577618,2026-01-21 17h29.20.067495 +0530,
,Objects\121a.jpg,161,0,162,,,,,,,f,1.773704200022621,0.12809409998590127,None,,,,,,162,0,161,703.8901834999851,,,,,,,,,,,,,,,,,,,,,,,703.8740589999943,703.8901834999851,704.3734967999917,,,,,,,,,,,,,,704.407775300002,,,,,,,,,,704.4048409999814,704.407775300002,704.407775300002,704.407775300002,707.3905521999986,f,1.773704200022621,0.12809409998590127,707.3907471999992,707.3908117999963,None,,,,,,,,,,,,,,,,,00032,001,2026-01-21_17h29.13.240,MST_task,2024.2.0,60.11089257577618,2026-01-21 17h29.20.067495 +0530,
,Objects\056a.jpg,162,0,163,,,,,,,f,1.2976121999963652,0.15987599999061786,None,,,,,,163,0,162,707.4068345999985,,,,,,,,,,,,,,,,,,,,,,,707.3911004999827,707.4068345999985,707.8907668000029,,,,,,,,,,,,,,707.9165341999906,,,,,,,,,,707.9134631000052,707.9165341999906,707.9165341999906,707.9165341999906,710.90759659998,f,1.2976121999963652,0.15987599999061786,710.9077872000053,710.9078521000047,None,,,,,,,,,,,,,,,,,00032,001,2026-01-21_17h29.13.240,MST_task,2024.2.0,60.11089257577618,2026-01-21 17h29.20.067495 +0530,
,Objects\155a.jpg,163,0,164,,,,,,,f,2.117406600009417,0.1277438999968581,None,,,,,,164,0,163,710.9234188999981,,,,,,,,,,,,,,,,,,,,,,,710.908142100001,710.9234188999981,711.4072262999834,,,,,,,,,,,,,,711.4326826999895,,,,,,,,,,711.4305468999955,711.4326826999895,711.4326826999895,711.4326826999895,714.4238083999953,f,2.117406600009417,0.1277438999968581,714.4239992999937,714.4240614000009,None,,,,,,,,,,,,,,,,,00032,001,2026-01-21_17h29.13.240,MST_task,2024.2.0,60.11089257577618,2026-01-21 17h29.20.067495 +0530,
,Objects\093a.jpg,164,0,165,,,,,,,j,1.740436199994292,0.1596795000077691,None,,,,,,165,0,164,714.4401650999789,,,,,,,,,,,,,,,,,,,,,,,714.4244248000032,714.4401650999789,714.9238274999952,,,,,,,,,,,,,,714.9617128999962,,,,,,,,,,714.9589227999968,714.9617128999962,714.9617128999962,714.9617128999962,717.940574999986,j,1.740436199994292,0.1596795000077691,717.9407788999961,717.9408444000001,None,,,,,,,,,,,,,,,,,00032,001,2026-01-21_17h29.13.240,MST_task,2024.2.0,60.11089257577618,2026-01-21 17h29.20.067495 +0530,
,Objects\170a.jpg,165,0,166,,,,,,,f,1.0595100999926217,0.14426100000855513,None,,,,,,166,0,165,717.956846999994,,,,,,,,,,,,,,,,,,,,,,,717.9411363999825,717.956846999994,718.4405593999836,,,,,,,,,,,,,,718.4660557000025,,,,,,,,,,718.4639054999861,718.4660557000025,718.4660557000025,718.4660557000025,721.4572931999865,f,1.0595100999926217,0.14426100000855513,721.4574932999967,721.4575571999885,None,,,,,,,,,,,,,,,,,00032,001,2026-01-21_17h29.13.240,MST_task,2024.2.0,60.11089257577618,2026-01-21 17h29.20.067495 +0530,
,Objects\127a.jpg,166,0,167,,,,,,,f,1.008857699984219,0.16799230000469834,None,,,,,,167,0,166,721.4734367999772,,,,,,,,,,,,,,,,,,,,,,,721.4578468999825,721.4734367999772,721.9576556999818,,,,,,,,,,,,,,721.9808143999835,,,,,,,,,,721.9782639000041,721.9808143999835,721.9808143999835,721.9808143999835,724.9738190999778,f,1.008857699984219,0.16799230000469834,724.9740195999912,724.974087199982,None,,,,,,,,,,,,,,,,,00032,001,2026-01-21_17h29.13.240,MST_task,2024.2.0,60.11089257577618,2026-01-21 17h29.20.067495 +0530,
,Objects\104a.jpg,167,0,168,,,,,,,f,2.4101946000009775,0.1528604000050109,None,,,,,,168,0,167,724.9898655999859,,,,,,,,,,,,,,,,,,,,,,,724.9743825999903,724.9898655999859,725.4738549999893,,,,,,,,,,,,,,725.4993281999778,,,,,,,,,,725.4965790999995,725.4993281999778,725.4993281999778,725.4993281999778,728.4905608999834,f,2.4101946000009775,0.1528604000050109,728.490752999991,728.4908181999926,None,,,,,,,,,,,,,,,,,00032,001,2026-01-21_17h29.13.240,MST_task,2024.2.0,60.11089257577618,2026-01-21 17h29.20.067495 +0530,
,Scenes\114a.jpg,168,0,169,,,,,,,f,1.1613549999892712,0.17711530000087805,None,,,,,,169,0,168,728.5068272999779,,,,,,,,,,,,,,,,,,,,,,,728.4911836999818,728.5068272999779,728.9905886999913,,,,,,,,,,,,,,729.0281484999869,,,,,,,,,,729.025229699997,729.0281484999869,729.0281484999869,729.0281484999869,732.0079979999864,f,1.1613549999892712,0.17711530000087805,732.0081973999913,732.0082615999854,None,,,,,,,,,,,,,,,,,00032,001,2026-01-21_17h29.13.240,MST_task,2024.2.0,60.11089257577618,2026-01-21 17h29.20.067495 +0530,
,Scenes\164a.jpg,169,0,170,,,,,,,j,0.8530979999923147,0.15170869999565184,None,,,,,,170,0,169,732.0234330999956,,,,,,,,,,,,,,,,,,,,,,,732.0086991999997,732.0234330999956,732.5071109999844,,,,,,,,,,,,,,732.5531263999874,,,,,,,,,,732.5503330999927,732.5531263999874,732.5531263999874,732.5531263999874,735.5238222999906,j,0.8530979999923147,0.15170869999565184,735.5240154999774,735.5240799000021,None,,,,,,,,,,,,,,,,,00032,001,2026-01-21_17h29.13.240,MST_task,2024.2.0,60.11089257577618,2026-01-21 17h29.20.067495 +0530,
,Scenes\081a.jpg,170,0,171,,,,,,,j,1.9835154000029434,0.14471140000387095,None,,,,,,171,0,170,735.5401761999819,,,,,,,,,,,,,,,,,,,,,,,735.5243696999969,735.5401761999819,736.0238284999796,,,,,,,,,,,,,,736.0621540999855,,,,,,,,,,736.0591359999962,736.0621540999855,736.0621540999855,736.0621540999855,739.0246030999988,j,1.9835154000029434,0.14471140000387095,739.0248759999813,739.0249445999798,None,,,,,,,,,,,,,,,,,00032,001,2026-01-21_17h29.13.240,MST_task,2024.2.0,60.11089257577618,2026-01-21 17h29.20.067495 +0530,
,Scenes\071a.jpg,171,0,172,,,,,,,None,,,j,0.8251764999877196,None,,,,172,0,171,739.0398889999778,,,,,,,,,,,,,,,,,,,,,,,739.0253173999954,739.0398889999778,739.5238368999853,,,,,,,,,,,,,,739.5603129999945,,,,,,,,,,739.5574579999957,739.5603129999945,739.5603129999945,739.5603129999945,742.5403187999909,None,,,742.540494099987,743.3907018000027,j,742.5569495999953,742.5569495999953,0.8251764999877196,None,,,,,,,,,,,,,00032,001,2026-01-21_17h29.13.240,MST_task,2024.2.0,60.11089257577618,2026-01-21 17h29.20.067495 +0530,
,Scenes\128a.jpg,172,0,173,,,,,,,j,1.5880209000024479,0.16861019999487326,None,,,,,,173,0,172,743.4068360999809,,,,,,,,,,,,,,,,,,,,,,,743.3910356999841,743.4068360999809,743.8905913000053,,,,,,,,,,,,,,743.9457255000016,,,,,,,,,,743.9426861999964,743.9457255000016,743.9457255000016,743.9457255000016,746.9072194999899,j,1.5880209000024479,0.16861019999487326,746.9074217999878,746.9074877999956,None,,,,,,,,,,,,,,,,,00032,001,2026-01-21_17h29.13.240,MST_task,2024.2.0,60.11089257577618,2026-01-21 17h29.20.067495 +0530,
,Scenes\043a.jpg,173,0,174,,,,,,,j,1.586575300025288,0.14415929999086075,None,,,,,,174,0,173,746.9234982999915,,,,,,,,,,,,,,,,,,,,,,,746.9078542999923,746.9234982999915,747.4072461999895,,,,,,,,,,,,,,747.4510781999852,,,,,,,,,,747.4482569999818,747.4510781999852,747.4510781999852,747.4510781999852,750.4239213999826,j,1.586575300025288,0.14415929999086075,750.4241189000022,750.4241839000024,None,,,,,,,,,,,,,,,,,00032,001,2026-01-21_17h29.13.240,MST_task,2024.2.0,60.11089257577618,2026-01-21 17h29.20.067495 +0530,
,Scenes\138a.jpg,174,0,175,,,,,,,j,1.2685099999944214,0.16822429999592714,None,,,,,,175,0,174,750.4399744999828,,,,,,,,,,,,,,,,,,,,,,,750.4245549000043,750.4399744999828,750.9235291999939,,,,,,,,,,,,,,750.9611019000004,,,,,,,,,,750.9581675999798,750.9611019000004,750.9611019000004,750.9611019000004,753.9406887999794,j,1.2685099999944214,0.16822429999592714,753.9408819999953,753.9409474999993,None,,,,,,,,,,,,,,,,,00032,001,2026-01-21_17h29.13.240,MST_task,2024.2.0,60.11089257577618,2026-01-21 17h29.20.067495 +0530,
,Objects\105a.jpg,175,0,176,,,,,,,f,1.855497300013667,0.14415929999086075,None,,,,,,176,0,175,753.9568957999873,,,,,,,,,,,,,,,,,,,,,,,753.9413256999978,753.9568957999873,754.4408024000004,,,,,,,,,,,,,,754.4699914999946,,,,,,,,,,754.4664219999977,754.4699914999946,754.4699914999946,754.4699914999946,757.4570701000048,f,1.855497300013667,0.14415929999086075,757.4572576999781,757.4573256000003,None,,,,,,,,,,,,,,,,,00032,001,2026-01-21_17h29.13.240,MST_task,2024.2.0,60.11089257577618,2026-01-21 17h29.20.067495 +0530,
,Objects\036a.jpg,176,0,177,,,,,,,f,1.983348699985072,0.1204421000147704,None,,,,,,177,0,176,757.4735021999804,,,,,,,,,,,,,,,,,,,,,,,757.4576125000021,757.4735021999804,757.9572391999827,,,,,,,,,,,,,,757.9820686999883,,,,,,,,,,757.9794484000013,757.9820686999883,757.9820686999883,757.9820686999883,760.9739007999888,f,1.983348699985072,0.1204421000147704,760.9740911999834,760.9741570999904,None,,,,,,,,,,,,,,,,,00032,001,2026-01-21_17h29.13.240,MST_task,2024.2.0,60.11089257577618,2026-01-21 17h29.20.067495 +0530,
