Sl_no,image_path,thisN,thisTrialN,thisRepN,key_resp_5.keys,key_resp_7.keys,key_resp_7.rt,key_resp_7.duration,key_resp_5.rt,key_resp_5.duration,key_resp_9.keys,key_resp_9.rt,key_resp_9.duration,key_resp_8.keys,key_resp_8.rt,key_resp_8.duration,practice.thisRepN,practice.thisTrialN,practice.thisN,trials.thisRepN,trials.thisTrialN,trials.thisN,thisRow.t,notes,welcome_page.started,text.started,key_resp.started,welcome_page.stopped,key_resp.keys,key_resp.rt,key_resp.duration,instructions.started,ins.started,key_resp_2.started,instructions.stopped,key_resp_2.keys,key_resp_2.rt,key_resp_2.duration,objects_only_instruction.started,text_3.started,key_resp_3.started,objects_only_instruction.stopped,key_resp_3.keys,key_resp_3.rt,key_resp_3.duration,ISI.started,text_4.started,text_4.stopped,ISI.stopped,practice_block.started,image.started,text_5.started,key_resp_5.started,practice_block.stopped,practice.key_resp_5.keys,indoor_outdoor.started,text_7.started,key_resp_7.started,indoor_outdoor.stopped,practice.key_resp_7.keys,practice.key_resp_7.rt,practice.key_resp_7.duration,image.stopped,text_5.stopped,key_resp_5.stopped,practice.key_resp_5.rt,practice.key_resp_5.duration,practice_to_main.started,text_2.started,key_resp_4.started,practice_to_main.stopped,key_resp_4.keys,key_resp_4.rt,key_resp_4.duration,objects.started,image_2.started,text_9.started,key_resp_9.started,image_2.stopped,text_9.stopped,key_resp_9.stopped,objects.stopped,trials.key_resp_9.keys,trials.key_resp_9.rt,trials.key_resp_9.duration,encoding_task.started,encoding_task.stopped,trials.key_resp_8.keys,text_8.started,key_resp_8.started,trials.key_resp_8.rt,trials.key_resp_8.duration,end_experiment.started,text_6.started,key_resp_6.started,end_experiment.stopped,key_resp_6.keys,key_resp_6.rt,key_resp_6.duration,list_of_stimuli,encoding_task_accuracy,participant,session,date,expName,psychopyVersion,frameRate,expStart,
,,,,,,,,,,,,,,,,,,,,,,,,,0.001256300020031631,0.0028972000000067055,0.0028972000000067055,9.828403100022115,space,9.818570400006138,None,,,,,,,,,,,,,,,,,,,,,,,,,,,,,,,,,,,,,,,,,,,,,,,,,,,,,,,,,,,,,,,,,,,,,,,00051,001,2026-01-25_12h15.06.091,MST_task,2024.2.0,59.864108491313615,2026-01-25 12h16.10.509588 +0530,
,,,,,,,,,,,,,,,,,,,,,,,,,,,,,,,,9.828438199998345,9.84320399997523,9.84320399997523,31.810319299984258,space,21.96289219998289,None,,,,,,,,,,,,,,,,,,,,,,,,,,,,,,,,,,,,,,,,,,,,,,,,,,,,,,,,,,,,,,,,00051,001,2026-01-25_12h15.06.091,MST_task,2024.2.0,59.864108491313615,2026-01-25 12h16.10.509588 +0530,
,,,,,,,,,,,,,,,,,,,,,,,,,,,,,,,,,,,,,,,31.810350199986715,31.826362400024664,31.826362400024664,70.4769722999772,space,38.63557819998823,None,,,,,,,,,,,,,,,,,,,,,,,,,,,,,,,,,,,,,,,,,,,,,,,,,,,,,,,,,00051,001,2026-01-25_12h15.06.091,MST_task,2024.2.0,59.864108491313615,2026-01-25 12h16.10.509588 +0530,
4,practice_images/002b.jpg,0,0,1,None,f,3.691028599976562,None,,,,,,,,,1,0,0,,,,70.49305180000374,,,,,,,,,,,,,,,,,,,,,,,70.48078969999915,70.49305180000374,70.9950190000236,70.9766797000193,70.98397679999471,70.9950190000236,70.9950190000236,70.9950190000236,73.99339540000074,None,73.99500470003113,74.00980529998196,74.00980529998196,77.71030919998884,f,3.691028599976562,None,,,,,,,,,,,,,,,,,,,,,,,,,,,,,,,,,,,,,,,,00051,001,2026-01-25_12h15.06.091,MST_task,2024.2.0,59.864108491313615,2026-01-25 12h16.10.509588 +0530,
5,practice_images/139a.jpg,1,1,1,j,None,,,1.8108032000018284,0.07998999999836087,,,,,,,1,1,1,,,,77.72646690002875,,,,,,,,,,,,,,,,,,,,,,,77.71039439999731,77.72646690002875,78.22666859999299,78.21002479997696,78.21196649997728,78.22666859999299,78.22666859999299,78.22666859999299,81.21022539999103,j,81.21028260001913,,,81.21029529999942,None,,,81.22646869998425,81.22646869998425,81.22646869998425,1.8108032000018284,0.07998999999836087,,,,,,,,,,,,,,,,,,,,,,,,,,,,,,,,,,,00051,001,2026-01-25_12h15.06.091,MST_task,2024.2.0,59.864108491313615,2026-01-25 12h16.10.509588 +0530,
1,practice_images/013a.jpg,2,2,1,j,None,,,1.0462378000374883,0.09693609998794273,,,,,,,1,2,2,,,,81.22646869998425,,,,,,,,,,,,,,,,,,,,,,,81.21035830001347,81.22646869998425,81.72667699999874,81.71007390000159,81.71150640002452,81.72667699999874,81.72667699999874,81.72667699999874,84.7102774999803,j,84.71032880002167,,,84.71034130000044,None,,,84.72647210001014,84.72647210001014,84.72647210001014,1.0462378000374883,0.09693609998794273,,,,,,,,,,,,,,,,,,,,,,,,,,,,,,,,,,,00051,001,2026-01-25_12h15.06.091,MST_task,2024.2.0,59.864108491313615,2026-01-25 12h16.10.509588 +0530,
8,practice_images/178a.jpg,3,3,1,j,None,,,1.5308951999759302,0.11931690003257245,,,,,,,1,3,3,,,,84.72647210001014,,,,,,,,,,,,,,,,,,,,,,,84.71040410001297,84.72647210001014,85.22665040002903,85.21009369997773,85.21149220003281,85.22665040002903,85.22665040002903,85.22665040002903,88.21021250000922,j,88.2102687000297,,,88.21028280002065,None,,,88.22624240000732,88.22624240000732,88.22624240000732,1.5308951999759302,0.11931690003257245,,,,,,,,,,,,,,,,,,,,,,,,,,,,,,,,,,,00051,001,2026-01-25_12h15.06.091,MST_task,2024.2.0,59.864108491313615,2026-01-25 12h16.10.509588 +0530,
9,practice_images/180a.jpg,4,4,1,f,None,,,1.0875693000270985,0.1508996000047773,,,,,,,1,4,4,,,,88.22624240000732,,,,,,,,,,,,,,,,,,,,,,,88.21034980000695,88.22624240000732,88.72660669998731,88.71010379999643,88.71155619999627,88.72660669998731,88.72660669998731,88.72660669998731,91.7102995000314,f,91.71035180002218,,,91.71036460000323,None,,,91.72646410000743,91.72646410000743,91.72646410000743,1.0875693000270985,0.1508996000047773,,,,,,,,,,,,,,,,,,,,,,,,,,,,,,,,,,,00051,001,2026-01-25_12h15.06.091,MST_task,2024.2.0,59.864108491313615,2026-01-25 12h16.10.509588 +0530,
7,practice_images/166a.jpg,5,5,1,f,None,,,1.5862117999931797,0.11192440002923831,,,,,,,1,5,5,,,,91.72646410000743,,,,,,,,,,,,,,,,,,,,,,,91.71043109998573,91.72646410000743,92.22664900001837,92.2100047999993,92.2114503000048,92.22664900001837,92.22664900001837,92.22664900001837,95.21030029997928,f,95.21035090001533,,,95.21036359999562,None,,,95.22648210002808,95.22648210002808,95.22648210002808,1.5862117999931797,0.11192440002923831,,,,,,,,,,,,,,,,,,,,,,,,,,,,,,,,,,,00051,001,2026-01-25_12h15.06.091,MST_task,2024.2.0,59.864108491313615,2026-01-25 12h16.10.509588 +0530,
6,practice_images/158a.jpg,6,6,1,j,None,,,1.20689339999808,0.11125919996993616,,,,,,,1,6,6,,,,95.22648210002808,,,,,,,,,,,,,,,,,,,,,,,95.21042550000129,95.22648210002808,95.72665289998986,95.71011729998281,95.71164510003291,95.72665289998986,95.72665289998986,95.72665289998986,98.71017690002918,j,98.71022680000169,,,98.71023959998274,None,,,98.72631790000014,98.72631790000014,98.72631790000014,1.20689339999808,0.11125919996993616,,,,,,,,,,,,,,,,,,,,,,,,,,,,,,,,,,,00051,001,2026-01-25_12h15.06.091,MST_task,2024.2.0,59.864108491313615,2026-01-25 12h16.10.509588 +0530,
3,practice_images/037a.jpg,7,7,1,f,None,,,2.379536399967037,0.11921490001259372,,,,,,,1,7,7,,,,98.72631790000014,,,,,,,,,,,,,,,,,,,,,,,98.71030089998385,98.72631790000014,99.22652929998003,99.21000810002442,99.2114251999883,99.22652929998003,99.22652929998003,99.22652929998003,102.21005739999237,f,102.21011200000066,,,102.21012479998171,None,,,102.22632379998686,102.22632379998686,102.22632379998686,2.379536399967037,0.11921490001259372,,,,,,,,,,,,,,,,,,,,,,,,,,,,,,,,,,,00051,001,2026-01-25_12h15.06.091,MST_task,2024.2.0,59.864108491313615,2026-01-25 12h16.10.509588 +0530,
10,practice_images/182a.jpg,8,8,1,None,j,2.8633175999857485,None,,,,,,,,,1,8,8,,,,102.22632379998686,,,,,,,,,,,,,,,,,,,,,,,102.21018709999043,102.22632379998686,102.72633829998085,102.70999850000953,102.71130889997585,102.72633829998085,102.72633829998085,102.72633829998085,105.71008089999668,None,105.71012629999314,105.7262545999838,105.7262545999838,108.59343800001079,j,2.8633175999857485,None,105.7262545999838,105.7262545999838,105.7262545999838,,,,,,,,,,,,,,,,,,,,,,,,,,,,,,,,,,,,,00051,001,2026-01-25_12h15.06.091,MST_task,2024.2.0,59.864108491313615,2026-01-25 12h16.10.509588 +0530,
2,practice_images/031a.jpg,9,9,1,f,None,,,0.9271082000341266,0.1446627999539487,,,,,,,1,9,9,,,,108.60964660003083,,,,,,,,,,,,,,,,,,,,,,,108.59353160002502,108.60964660003083,109.10982620000141,109.09328380000079,109.09525250003207,109.10982620000141,109.10982620000141,109.10982620000141,112.09337040001992,f,112.09341989998939,,,112.09343300003093,None,,,112.11001300002681,112.11001300002681,112.11001300002681,0.9271082000341266,0.1446627999539487,,,,,,,,,,,,,,,,,,,,,,,,,,,,,,,,,,,00051,001,2026-01-25_12h15.06.091,MST_task,2024.2.0,59.864108491313615,2026-01-25 12h16.10.509588 +0530,
,,,,,,,,,,,,,,,,,,,,,,,,,,,,,,,,,,,,,,,,,,,,,,,,,,,,,,,,,,,,,,,,,,,,112.09348390001105,112.11001300002681,112.11001300002681,124.84346120001283,space,12.719994699989911,None,,,,,,,,,,,,,,,,,,,,,,,,,,,,00051,001,2026-01-25_12h15.06.091,MST_task,2024.2.0,59.864108491313615,2026-01-25 12h16.10.509588 +0530,
,Objects\171a.jpg,0,0,1,,,,,,,f,1.445224299968686,0.119998799986206,None,,,,,,1,0,0,124.85971009999048,,,,,,,,,,,,,,,,,,,,,,,124.84410510002635,124.85971009999048,125.36012010002742,125.3432741999859,,,,,,,,,,,,,,,,,,,,,,,,,,125.3487084999797,125.36012010002742,125.36012010002742,125.36012010002742,128.35971659998177,128.35971659998177,128.35971659998177,128.34352920000674,f,1.445224299968686,0.119998799986206,128.34521140001016,128.34523089998402,None,,,,,,,,,,,,,,00051,001,2026-01-25_12h15.06.091,MST_task,2024.2.0,59.864108491313615,2026-01-25 12h16.10.509588 +0530,
,Objects\005a.jpg,1,0,2,,,,,,,None,,,j,0.4811436999589205,None,,,,2,0,1,128.35971659998177,,,,,,,,,,,,,,,,,,,,,,,128.3453197000199,128.35971659998177,128.8599261000054,128.84328139998252,,,,,,,,,,,,,,,,,,,,,,,,,,128.84601610002574,128.8599261000054,128.8599261000054,128.8599261000054,131.85970989998896,131.85970989998896,131.85970989998896,131.84355769999092,None,,,131.84360740002012,132.34344770002645,j,131.85970989998896,131.85970989998896,0.4811436999589205,None,,,,,,,,,,00051,001,2026-01-25_12h15.06.091,MST_task,2024.2.0,59.864108491313615,2026-01-25 12h16.10.509588 +0530,
,Objects\052a.jpg,2,0,3,,,,,,,None,,,f,4.674310900038108,None,,,,3,0,2,132.35969439998735,,,,,,,,,,,,,,,,,,,,,,,132.34356820001267,132.35969439998735,132.85990450001555,132.84337439999217,,,,,,,,,,,,,,,,,,,,,,,,,,132.8532613000134,132.85990450001555,132.85990450001555,132.85990450001555,135.8597002000315,135.8597002000315,135.8597002000315,135.84361049998552,None,,,135.84365850000177,140.54344540002057,f,135.8597002000315,135.8597002000315,4.674310900038108,None,,,,,,,,,,00051,001,2026-01-25_12h15.06.091,MST_task,2024.2.0,59.864108491313615,2026-01-25 12h16.10.509588 +0530,
,Objects\100a.jpg,3,0,4,,,,,,,j,1.153342799982056,0.09592430002521724,None,,,,,,4,0,3,140.55969680001726,,,,,,,,,,,,,,,,,,,,,,,140.54353979998268,140.55969680001726,141.05992480000714,141.04328550002538,,,,,,,,,,,,,,,,,,,,,,,,,,141.04630470002303,141.05992480000714,141.05992480000714,141.05992480000714,144.05969080002978,144.05969080002978,144.05969080002978,144.04369179997593,j,1.153342799982056,0.09592430002521724,144.0437539999839,144.04376630001934,None,,,,,,,,,,,,,,00051,001,2026-01-25_12h15.06.091,MST_task,2024.2.0,59.864108491313615,2026-01-25 12h16.10.509588 +0530,
,Objects\182a.jpg,4,0,5,,,,,,,j,1.0698151999968104,0.09590770001523197,None,,,,,,5,0,4,144.05969080002978,,,,,,,,,,,,,,,,,,,,,,,144.0438334000064,144.05969080002978,144.55996709997999,144.54344650002895,,,,,,,,,,,,,,,,,,,,,,,,,,144.5463032000116,144.55996709997999,144.55996709997999,144.55996709997999,147.55963430000702,147.55963430000702,147.55963430000702,147.54361930000596,j,1.0698151999968104,0.09590770001523197,147.54367320000893,147.54368469998008,None,,,,,,,,,,,,,,00051,001,2026-01-25_12h15.06.091,MST_task,2024.2.0,59.864108491313615,2026-01-25 12h16.10.509588 +0530,
,Objects\043a.jpg,5,0,6,,,,,,,None,,,j,0.46516540000448003,None,,,,6,0,5,147.55963430000702,,,,,,,,,,,,,,,,,,,,,,,147.5437501000124,147.55963430000702,148.0599452999886,148.04329100000905,,,,,,,,,,,,,,,,,,,,,,,,,,148.04655979998643,148.0599452999886,148.0599452999886,148.0599452999886,151.05969949997962,151.05969949997962,151.05969949997962,151.04347899998538,None,,,151.04352930001915,151.52657639997778,j,151.05969949997962,151.05969949997962,0.46516540000448003,None,,,,,,,,,,00051,001,2026-01-25_12h15.06.091,MST_task,2024.2.0,59.864108491313615,2026-01-25 12h16.10.509588 +0530,
,Objects\145a.jpg,6,0,7,,,,,,,f,1.8498300000210293,0.12798769999062642,None,,,,,,7,0,6,151.54301110003144,,,,,,,,,,,,,,,,,,,,,,,151.5266627999954,151.54301110003144,152.04318490001606,152.02641220000805,,,,,,,,,,,,,,,,,,,,,,,,,,152.0291365000303,152.04318490001606,152.04318490001606,152.04318490001606,155.04302580002695,155.04302580002695,155.04302580002695,155.02678509999532,f,1.8498300000210293,0.12798769999062642,155.0268405000097,155.02685259998543,None,,,,,,,,,,,,,,00051,001,2026-01-25_12h15.06.091,MST_task,2024.2.0,59.864108491313615,2026-01-25 12h16.10.509588 +0530,
,Scenes\122a.jpg,7,0,8,,,,,,,f,2.119313700008206,0.12799559999257326,None,,,,,,8,0,7,155.04302580002695,,,,,,,,,,,,,,,,,,,,,,,155.02693950000685,155.04302580002695,155.54968130000634,155.5264487999957,,,,,,,,,,,,,,,,,,,,,,,,,,155.54716620000545,155.54968130000634,155.54968130000634,155.54968130000634,,,,158.54324490000727,f,2.119313700008206,0.12799559999257326,158.5432984000072,158.54331029998139,None,,,,,,,,,,,,,,00051,001,2026-01-25_12h15.06.091,MST_task,2024.2.0,59.864108491313615,2026-01-25 12h16.10.509588 +0530,
,Scenes\010a.jpg,8,0,9,,,,,,,j,0.8811742999823764,0.11299970000982285,None,,,,,,9,0,8,158.55969890003325,,,,,,,,,,,,,,,,,,,,,,,158.54339569999138,158.55969890003325,159.060254800017,159.04343530000187,,,,,,,,,,,,,,,,,,,,,,,,,,159.055414500006,159.060254800017,159.060254800017,159.060254800017,162.05970270000398,162.05970270000398,162.05970270000398,162.04366249998566,j,0.8811742999823764,0.11299970000982285,162.04371599998558,162.04372700001113,None,,,,,,,,,,,,,,00051,001,2026-01-25_12h15.06.091,MST_task,2024.2.0,59.864108491313615,2026-01-25 12h16.10.509588 +0530,
,Scenes\189a.jpg,9,0,10,,,,,,,j,0.8186947999638505,0.11192230001324788,None,,,,,,10,0,9,162.05970270000398,,,,,,,,,,,,,,,,,,,,,,,162.04381360003026,162.05970270000398,162.56312050000997,162.54330940003274,,,,,,,,,,,,,,,,,,,,,,,,,,162.56098740000743,162.56312050000997,162.56312050000997,162.56312050000997,,,,165.5599790000124,j,0.8186947999638505,0.11192230001324788,165.56003160000546,165.5600429000333,None,,,,,,,,,,,,,,00051,001,2026-01-25_12h15.06.091,MST_task,2024.2.0,59.864108491313615,2026-01-25 12h16.10.509588 +0530,
,Scenes\105a.jpg,10,0,11,,,,,,,j,0.9396314999903552,0.11999669997021556,None,,,,,,11,0,10,165.57618809997803,,,,,,,,,,,,,,,,,,,,,,,165.56011140003102,165.57618809997803,166.08181820000755,166.05994549999014,,,,,,,,,,,,,,,,,,,,,,,,,,166.07937769999262,166.08181820000755,166.08181820000755,166.08181820000755,,,,169.07652870001039,j,0.9396314999903552,0.11999669997021556,169.07658260001335,169.07659389998298,None,,,,,,,,,,,,,,00051,001,2026-01-25_12h15.06.091,MST_task,2024.2.0,59.864108491313615,2026-01-25 12h16.10.509588 +0530,
,Scenes\187a.jpg,11,0,12,,,,,,,j,0.9933116000029258,0.1200237000011839,None,,,,,,12,0,11,169.093014699989,,,,,,,,,,,,,,,,,,,,,,,169.0766821000143,169.093014699989,169.5957421999774,169.57676690001972,,,,,,,,,,,,,,,,,,,,,,,,,,169.59350920002908,169.5957421999774,169.5957421999774,169.5957421999774,,,,172.59321590000764,j,0.9933116000029258,0.1200237000011839,172.5932674999931,172.59327960002702,None,,,,,,,,,,,,,,00051,001,2026-01-25_12h15.06.091,MST_task,2024.2.0,59.864108491313615,2026-01-25 12h16.10.509588 +0530,
,Scenes\131a.jpg,12,0,13,,,,,,,j,1.04490330000408,0.12800080003216863,None,,,,,,13,0,12,172.60968069999944,,,,,,,,,,,,,,,,,,,,,,,172.59334670001408,172.60968069999944,173.11249790003058,173.0933384000091,,,,,,,,,,,,,,,,,,,,,,,,,,173.10987260000547,173.11249790003058,173.11249790003058,173.11249790003058,,,,176.10993560001953,j,1.04490330000408,0.12800080003216863,176.1099877000088,176.11000410001725,None,,,,,,,,,,,,,,00051,001,2026-01-25_12h15.06.091,MST_task,2024.2.0,59.864108491313615,2026-01-25 12h16.10.509588 +0530,
,Scenes\118a.jpg,13,0,14,,,,,,,j,1.5785937000182457,0.1279967000009492,None,,,,,,14,0,13,176.12618790002307,,,,,,,,,,,,,,,,,,,,,,,176.11007220001193,176.12618790002307,176.6269719999982,176.6098551999894,,,,,,,,,,,,,,,,,,,,,,,,,,176.61592240002938,176.6269719999982,176.6269719999982,176.6269719999982,179.62619769998128,179.62619769998128,179.62619769998128,179.6102622000035,j,1.5785937000182457,0.1279967000009492,179.6103155000019,179.6103266000282,None,,,,,,,,,,,,,,00051,001,2026-01-25_12h15.06.091,MST_task,2024.2.0,59.864108491313615,2026-01-25 12h16.10.509588 +0530,
,Objects\073a.jpg,14,0,15,,,,,,,f,0.8150779000134207,0.11979030002839863,None,,,,,,15,0,14,179.62619769998128,,,,,,,,,,,,,,,,,,,,,,,179.61041289998684,179.62619769998128,180.12653409998165,180.10994380002376,,,,,,,,,,,,,,,,,,,,,,,,,,180.1141705000191,180.12653409998165,180.12653409998165,180.12653409998165,183.12628680001944,183.12628680001944,183.12628680001944,183.11021160002565,f,0.8150779000134207,0.11979030002839863,183.11026460002176,183.11027549998835,None,,,,,,,,,,,,,,00051,001,2026-01-25_12h15.06.091,MST_task,2024.2.0,59.864108491313615,2026-01-25 12h16.10.509588 +0530,
,Objects\141a.jpg,15,0,16,,,,,,,f,0.9464188000420108,0.12795529997674748,None,,,,,,16,0,15,183.12628680001944,,,,,,,,,,,,,,,,,,,,,,,183.11035899998387,183.12628680001944,183.62649890000466,183.60994699998992,,,,,,,,,,,,,,,,,,,,,,,,,,183.61247260001255,183.62649890000466,183.62649890000466,183.62649890000466,186.62629019998712,186.62629019998712,186.62629019998712,186.61021230003098,f,0.9464188000420108,0.12795529997674748,186.6102648000233,186.6102755999891,None,,,,,,,,,,,,,,00051,001,2026-01-25_12h15.06.091,MST_task,2024.2.0,59.864108491313615,2026-01-25 12h16.10.509588 +0530,
,Objects\133a.jpg,16,0,17,,,,,,,j,1.623785899952054,0.0947184000397101,None,,,,,,17,0,16,186.62629019998712,,,,,,,,,,,,,,,,,,,,,,,186.61034230003133,186.62629019998712,187.1263652999769,187.10990989999846,,,,,,,,,,,,,,,,,,,,,,,,,,187.1126607999904,187.1263652999769,187.1263652999769,187.1263652999769,190.126553900016,190.126553900016,190.126553900016,190.1102683999925,j,1.623785899952054,0.0947184000397101,190.1103221999947,190.1103331000195,None,,,,,,,,,,,,,,00051,001,2026-01-25_12h15.06.091,MST_task,2024.2.0,59.864108491313615,2026-01-25 12h16.10.509588 +0530,
,Objects\109a.jpg,17,0,18,,,,,,,f,1.1149168999982066,0.1519073999952525,None,,,,,,18,0,17,190.126553900016,,,,,,,,,,,,,,,,,,,,,,,190.11039869999513,190.126553900016,190.6267746000085,190.61003169999458,,,,,,,,,,,,,,,,,,,,,,,,,,190.6185448000324,190.6267746000085,190.6267746000085,190.6267746000085,193.62644900003215,193.62644900003215,193.62644900003215,193.6102983999881,f,1.1149168999982066,0.1519073999952525,193.61035209998954,193.61036370001966,None,,,,,,,,,,,,,,00051,001,2026-01-25_12h15.06.091,MST_task,2024.2.0,59.864108491313615,2026-01-25 12h16.10.509588 +0530,
,Objects\055a.jpg,18,0,19,,,,,,,j,2.710039500030689,0.11198059999151155,None,,,,,,19,0,18,193.62644900003215,,,,,,,,,,,,,,,,,,,,,,,193.610445600003,193.62644900003215,194.12679130001925,194.11024409998208,,,,,,,,,,,,,,,,,,,,,,,,,,194.11304600001313,194.12679130001925,194.12679130001925,194.12679130001925,197.12644169997657,197.12644169997657,197.12644169997657,197.11021260003326,j,2.710039500030689,0.11198059999151155,197.11026360001415,197.11027419997845,None,,,,,,,,,,,,,,00051,001,2026-01-25_12h15.06.091,MST_task,2024.2.0,59.864108491313615,2026-01-25 12h16.10.509588 +0530,
,Objects\140a.jpg,19,0,20,,,,,,,j,1.52238669997314,0.12802290002582595,None,,,,,,20,0,19,197.12644169997657,,,,,,,,,,,,,,,,,,,,,,,197.1103376999963,197.12644169997657,197.6264551000204,197.61008800001582,,,,,,,,,,,,,,,,,,,,,,,,,,197.61956409999402,197.6264551000204,197.6264551000204,197.6264551000204,200.626387300028,200.626387300028,200.626387300028,200.61026869999478,j,1.52238669997314,0.12802290002582595,200.61031969997566,200.61033039999893,None,,,,,,,,,,,,,,00051,001,2026-01-25_12h15.06.091,MST_task,2024.2.0,59.864108491313615,2026-01-25 12h16.10.509588 +0530,
,Objects\191a.jpg,20,0,21,,,,,,,j,1.7672498000320047,0.11897269997280091,None,,,,,,21,0,20,200.626387300028,,,,,,,,,,,,,,,,,,,,,,,200.61040519998642,200.626387300028,201.12662100000307,201.1100661000237,,,,,,,,,,,,,,,,,,,,,,,,,,201.11285109998425,201.12662100000307,201.12662100000307,201.12662100000307,204.12633280002046,204.12633280002046,204.12633280002046,204.11040379997576,j,1.7672498000320047,0.11897269997280091,204.11045789998025,204.11046880000504,None,,,,,,,,,,,,,,00051,001,2026-01-25_12h15.06.091,MST_task,2024.2.0,59.864108491313615,2026-01-25 12h16.10.509588 +0530,
,Scenes\013a.jpg,21,0,22,,,,,,,j,0.9629491000087,0.13490849995287135,None,,,,,,22,0,21,204.12633280002046,,,,,,,,,,,,,,,,,,,,,,,204.11055290000513,204.12633280002046,204.62694580003154,204.61000739998417,,,,,,,,,,,,,,,,,,,,,,,,,,204.6207059000153,204.62694580003154,204.62694580003154,204.62694580003154,207.62643820000812,207.62643820000812,207.62643820000812,207.61024670000188,j,0.9629491000087,0.13490849995287135,207.61029909999343,207.6103098000167,None,,,,,,,,,,,,,,00051,001,2026-01-25_12h15.06.091,MST_task,2024.2.0,59.864108491313615,2026-01-25 12h16.10.509588 +0530,
,Scenes\144a.jpg,22,0,23,,,,,,,j,0.8297156000044197,0.09688749996712431,None,,,,,,23,0,22,207.62643820000812,,,,,,,,,,,,,,,,,,,,,,,207.61039819999132,207.62643820000812,208.12709760002326,208.11001619999297,,,,,,,,,,,,,,,,,,,,,,,,,,208.11762199999066,208.12709760002326,208.12709760002326,208.12709760002326,211.126385200012,211.126385200012,211.126385200012,211.11038109997753,j,0.8297156000044197,0.09688749996712431,211.1104459000053,211.11045779997949,None,,,,,,,,,,,,,,00051,001,2026-01-25_12h15.06.091,MST_task,2024.2.0,59.864108491313615,2026-01-25 12h16.10.509588 +0530,
,Scenes\168a.jpg,23,0,24,,,,,,,j,1.0422557999845594,0.11206120002316311,None,,,,,,24,0,23,211.126385200012,,,,,,,,,,,,,,,,,,,,,,,211.1105511999922,211.126385200012,211.62712150003063,211.61003600002732,,,,,,,,,,,,,,,,,,,,,,,,,,211.624812700029,211.62712150003063,211.62712150003063,211.62712150003063,214.62638440000592,214.62638440000592,214.62638440000592,214.61032360000536,j,1.0422557999845594,0.11206120002316311,214.6103749999893,214.61038550001103,None,,,,,,,,,,,,,,00051,001,2026-01-25_12h15.06.091,MST_task,2024.2.0,59.864108491313615,2026-01-25 12h16.10.509588 +0530,
,Scenes\113a.jpg,24,0,25,,,,,,,j,1.4382218000246212,0.11305210000136867,None,,,,,,25,0,24,214.62638440000592,,,,,,,,,,,,,,,,,,,,,,,214.6104507999844,214.62638440000592,215.12695350003196,215.11001260002377,,,,,,,,,,,,,,,,,,,,,,,,,,215.11427770002047,215.12695350003196,215.12695350003196,215.12695350003196,218.12636850000126,218.12636850000126,218.12636850000126,218.1103063999908,j,1.4382218000246212,0.11305210000136867,218.1103693000041,218.1103804000304,None,,,,,,,,,,,,,,00051,001,2026-01-25_12h15.06.091,MST_task,2024.2.0,59.864108491313615,2026-01-25 12h16.10.509588 +0530,
,Scenes\149a.jpg,25,0,26,,,,,,,j,1.6346051000291482,0.11231970001244918,None,,,,,,26,0,25,218.12636850000126,,,,,,,,,,,,,,,,,,,,,,,218.110466299986,218.12636850000126,218.62680430000182,218.61000639997656,,,,,,,,,,,,,,,,,,,,,,,,,,218.61981040000683,218.62680430000182,218.62680430000182,218.62680430000182,221.62639550003223,221.62639550003223,221.62639550003223,221.6102428000304,j,1.6346051000291482,0.11231970001244918,221.61029640003107,221.6103077000007,None,,,,,,,,,,,,,,00051,001,2026-01-25_12h15.06.091,MST_task,2024.2.0,59.864108491313615,2026-01-25 12h16.10.509588 +0530,
,Scenes\163a.jpg,26,0,27,,,,,,,j,1.2623936000163667,0.11998610000591725,None,,,,,,27,0,26,221.62639550003223,,,,,,,,,,,,,,,,,,,,,,,221.61037260002922,221.62639550003223,222.1270804000087,222.11001290002605,,,,,,,,,,,,,,,,,,,,,,,,,,222.11604039999656,222.1270804000087,222.1270804000087,222.1270804000087,225.12618760002078,225.12618760002078,225.12618760002078,225.11020350002218,j,1.2623936000163667,0.11998610000591725,225.11026300000958,225.11027419997845,None,,,,,,,,,,,,,,00051,001,2026-01-25_12h15.06.091,MST_task,2024.2.0,59.864108491313615,2026-01-25 12h16.10.509588 +0530,
,Scenes\094a.jpg,27,0,28,,,,,,,f,1.6666582999750972,0.15161770000122488,None,,,,,,28,0,27,225.12618760002078,,,,,,,,,,,,,,,,,,,,,,,225.11036569997668,225.12618760002078,225.62717470002826,225.60997049999423,,,,,,,,,,,,,,,,,,,,,,,,,,225.62071180000203,225.62717470002826,225.62717470002826,225.62717470002826,228.62641129997792,228.62641129997792,228.62641129997792,228.61024629999883,f,1.6666582999750972,0.15161770000122488,228.61030060000485,228.61031170003116,None,,,,,,,,,,,,,,00051,001,2026-01-25_12h15.06.091,MST_task,2024.2.0,59.864108491313615,2026-01-25 12h16.10.509588 +0530,
,Objects\022a.jpg,28,0,29,,,,,,,j,1.878569399996195,0.1440011999802664,None,,,,,,29,0,28,228.62641129997792,,,,,,,,,,,,,,,,,,,,,,,228.610376800003,228.62641129997792,229.12687259999802,229.11002600000938,,,,,,,,,,,,,,,,,,,,,,,,,,229.11343790002866,229.12687259999802,229.12687259999802,229.12687259999802,232.12636070000008,232.12636070000008,232.12636070000008,232.11030430003302,j,1.878569399996195,0.1440011999802664,232.11035580001771,232.11036679998506,None,,,,,,,,,,,,,,00051,001,2026-01-25_12h15.06.091,MST_task,2024.2.0,59.864108491313615,2026-01-25 12h16.10.509588 +0530,
,Objects\177a.jpg,29,0,30,,,,,,,j,1.06696110003395,0.14313539996510372,None,,,,,,30,0,29,232.12636070000008,,,,,,,,,,,,,,,,,,,,,,,232.11043380002957,232.12636070000008,232.62667750002583,232.60997879999923,,,,,,,,,,,,,,,,,,,,,,,,,,232.61973869998474,232.62667750002583,232.62667750002583,232.62667750002583,235.62643649999518,235.62643649999518,235.62643649999518,235.6102270000265,j,1.06696110003395,0.14313539996510372,235.61028630001238,235.61029769998277,None,,,,,,,,,,,,,,00051,001,2026-01-25_12h15.06.091,MST_task,2024.2.0,59.864108491313615,2026-01-25 12h16.10.509588 +0530,
,Objects\040a.jpg,30,0,31,,,,,,,f,1.4872056000167504,0.1439881999976933,None,,,,,,31,0,30,235.62643649999518,,,,,,,,,,,,,,,,,,,,,,,235.61038289999124,235.62643649999518,236.12670279998565,236.1100321999984,,,,,,,,,,,,,,,,,,,,,,,,,,236.1126163000008,236.12670279998565,236.12670279998565,236.12670279998565,239.1263172000181,239.1263172000181,239.1263172000181,239.11031870002626,f,1.4872056000167504,0.1439881999976933,239.11037070001476,239.11038109997753,None,,,,,,,,,,,,,,00051,001,2026-01-25_12h15.06.091,MST_task,2024.2.0,59.864108491313615,2026-01-25 12h16.10.509588 +0530,
,Objects\178a.jpg,31,0,32,,,,,,,j,0.9304633000283502,0.13591259997338057,None,,,,,,32,0,31,239.1263172000181,,,,,,,,,,,,,,,,,,,,,,,239.11044489999767,239.1263172000181,239.62633669999195,239.61027629999444,,,,,,,,,,,,,,,,,,,,,,,,,,239.61358750000363,239.62633669999195,239.62633669999195,239.62633669999195,242.6263705000165,242.6263705000165,242.6263705000165,242.61031409999123,j,0.9304633000283502,0.13591259997338057,242.61036859999876,242.61037980002584,None,,,,,,,,,,,,,,00051,001,2026-01-25_12h15.06.091,MST_task,2024.2.0,59.864108491313615,2026-01-25 12h16.10.509588 +0530,
,Objects\132a.jpg,32,0,33,,,,,,,j,1.455061399959959,0.11135100002866238,None,,,,,,33,0,32,242.6263705000165,,,,,,,,,,,,,,,,,,,,,,,242.61044319998473,242.6263705000165,243.1266240000259,243.10994009999558,,,,,,,,,,,,,,,,,,,,,,,,,,243.11251910001738,243.1266240000259,243.1266240000259,243.1266240000259,246.12634989997605,246.12634989997605,246.12634989997605,246.11028369999258,j,1.455061399959959,0.11135100002866238,246.1103366999887,246.11034700000891,None,,,,,,,,,,,,,,00051,001,2026-01-25_12h15.06.091,MST_task,2024.2.0,59.864108491313615,2026-01-25 12h16.10.509588 +0530,
,Objects\187a.jpg,33,0,34,,,,,,,f,0.7950864000013098,0.14322240004548803,None,,,,,,34,0,33,246.12634989997605,,,,,,,,,,,,,,,,,,,,,,,246.11043619998964,246.12634989997605,246.6265366000007,246.61001910001505,,,,,,,,,,,,,,,,,,,,,,,,,,246.61303270002827,246.6265366000007,246.6265366000007,246.6265366000007,249.62621120002586,249.62621120002586,249.62621120002586,249.6101357000298,f,0.7950864000013098,0.14322240004548803,249.61018830002286,249.6101992999902,None,,,,,,,,,,,,,,00051,001,2026-01-25_12h15.06.091,MST_task,2024.2.0,59.864108491313615,2026-01-25 12h16.10.509588 +0530,
,Objects\003a.jpg,34,0,35,,,,,,,j,0.9522465000045486,0.1346911999862641,None,,,,,,35,0,34,249.62621120002586,,,,,,,,,,,,,,,,,,,,,,,249.61028419999639,249.62621120002586,250.12634399998933,250.1099362000241,,,,,,,,,,,,,,,,,,,,,,,,,,250.11260350001976,250.12634399998933,250.12634399998933,250.12634399998933,253.12625809997553,253.12625809997553,253.12625809997553,253.1101887000259,j,0.9522465000045486,0.1346911999862641,253.1102412000182,253.11025169998175,None,,,,,,,,,,,,,,00051,001,2026-01-25_12h15.06.091,MST_task,2024.2.0,59.864108491313615,2026-01-25 12h16.10.509588 +0530,
,Scenes\009a.jpg,35,0,36,,,,,,,j,2.110833399987314,0.12760320003144443,None,,,,,,36,0,35,253.12625809997553,,,,,,,,,,,,,,,,,,,,,,,253.1103168000118,253.12625809997553,253.630567300017,253.60996989998966,,,,,,,,,,,,,,,,,,,,,,,,,,253.62823209998896,253.630567300017,253.630567300017,253.630567300017,,,,256.6264425999834,j,2.110833399987314,0.12760320003144443,256.62649659998715,256.62650830001803,None,,,,,,,,,,,,,,00051,001,2026-01-25_12h15.06.091,MST_task,2024.2.0,59.864108491313615,2026-01-25 12h16.10.509588 +0530,
,Scenes\042a.jpg,36,0,37,,,,,,,j,1.214061499980744,0.13697930000489578,None,,,,,,37,0,36,256.64370860002236,,,,,,,,,,,,,,,,,,,,,,,256.626574599999,256.64370860002236,257.14355540002,257.126491300005,,,,,,,,,,,,,,,,,,,,,,,,,,257.1345989999827,257.14355540002,257.14355540002,257.14355540002,260.1429906000267,260.1429906000267,260.1429906000267,260.1266478000325,j,1.214061499980744,0.13697930000489578,260.1267050000024,260.1267162000295,None,,,,,,,,,,,,,,00051,001,2026-01-25_12h15.06.091,MST_task,2024.2.0,59.864108491313615,2026-01-25 12h16.10.509588 +0530,
,Scenes\146a.jpg,37,0,38,,,,,,,j,0.874079899978824,0.11200270004337654,None,,,,,,38,0,37,260.1429906000267,,,,,,,,,,,,,,,,,,,,,,,260.12678170000436,260.1429906000267,260.6435648999759,260.6264170000213,,,,,,,,,,,,,,,,,,,,,,,,,,260.6361582999816,260.6435648999759,260.6435648999759,260.6435648999759,263.64292240003124,263.64292240003124,263.64292240003124,263.6268460000283,j,0.874079899978824,0.11200270004337654,263.6268999000313,263.62691130000167,None,,,,,,,,,,,,,,00051,001,2026-01-25_12h15.06.091,MST_task,2024.2.0,59.864108491313615,2026-01-25 12h16.10.509588 +0530,
,Scenes\121a.jpg,38,0,39,,,,,,,j,1.5660674999817275,0.11198899999726564,None,,,,,,39,0,38,263.64292240003124,,,,,,,,,,,,,,,,,,,,,,,263.62699620000785,263.64292240003124,264.14358159998665,264.12648680002894,,,,,,,,,,,,,,,,,,,,,,,,,,264.1358084999956,264.14358159998665,264.14358159998665,264.14358159998665,267.1429807000095,267.1429807000095,267.1429807000095,267.12689369998407,j,1.5660674999817275,0.11198899999726564,267.12695710000116,267.1269741000142,None,,,,,,,,,,,,,,00051,001,2026-01-25_12h15.06.091,MST_task,2024.2.0,59.864108491313615,2026-01-25 12h16.10.509588 +0530,
,Scenes\039a.jpg,39,0,40,,,,,,,j,1.0014396000187844,0.13713390001794323,None,,,,,,40,0,39,267.1429807000095,,,,,,,,,,,,,,,,,,,,,,,267.12706630001776,267.1429807000095,267.6435416000313,267.62649320001947,,,,,,,,,,,,,,,,,,,,,,,,,,267.63294169999426,267.6435416000313,267.6435416000313,267.6435416000313,270.6429424000089,270.6429424000089,270.6429424000089,270.62677909998456,j,1.0014396000187844,0.13713390001794323,270.62683189997915,270.62684250000166,None,,,,,,,,,,,,,,00051,001,2026-01-25_12h15.06.091,MST_task,2024.2.0,59.864108491313615,2026-01-25 12h16.10.509588 +0530,
,Scenes\005a.jpg,40,0,41,,,,,,,j,2.2427869000239298,0.12019190000137314,None,,,,,,41,0,40,270.6429424000089,,,,,,,,,,,,,,,,,,,,,,,270.62692660000175,270.6429424000089,271.1460644999752,271.1264198999852,,,,,,,,,,,,,,,,,,,,,,,,,,271.14358909998555,271.1460644999752,271.1460644999752,271.1460644999752,,,,274.14327030000277,j,2.2427869000239298,0.12019190000137314,274.1433218999882,274.14333370001987,None,,,,,,,,,,,,,,00051,001,2026-01-25_12h15.06.091,MST_task,2024.2.0,59.864108491313615,2026-01-25 12h16.10.509588 +0530,
,Scenes\029a.jpg,41,0,42,,,,,,,j,0.8252642000443302,0.13627109996741638,None,,,,,,42,0,41,274.1596553000272,,,,,,,,,,,,,,,,,,,,,,,274.14339919999475,274.1596553000272,274.66017940000165,274.6432533999905,,,,,,,,,,,,,,,,,,,,,,,,,,274.6538720999961,274.66017940000165,274.66017940000165,274.66017940000165,277.6596481000306,277.6596481000306,277.6596481000306,277.64347010001075,j,0.8252642000443302,0.13627109996741638,277.6435219999985,277.64353300002404,None,,,,,,,,,,,,,,00051,001,2026-01-25_12h15.06.091,MST_task,2024.2.0,59.864108491313615,2026-01-25 12h16.10.509588 +0530,
,Objects\090a.jpg,42,0,43,,,,,,,j,1.909554100013338,0.10399849998066202,None,,,,,,43,0,42,277.6596481000306,,,,,,,,,,,,,,,,,,,,,,,277.6436154000112,277.6596481000306,278.16020759998355,278.14348969998537,,,,,,,,,,,,,,,,,,,,,,,,,,278.1536976000061,278.16020759998355,278.16020759998355,278.16020759998355,281.1596570999827,281.1596570999827,281.1596570999827,281.143547100015,j,1.909554100013338,0.10399849998066202,281.14360100001795,281.14361259998986,None,,,,,,,,,,,,,,00051,001,2026-01-25_12h15.06.091,MST_task,2024.2.0,59.864108491313615,2026-01-25 12h16.10.509588 +0530,
,Objects\049a.jpg,43,0,44,,,,,,,None,,,f,0.1139858000096865,None,,,,44,0,43,281.1596570999827,,,,,,,,,,,,,,,,,,,,,,,281.1436782000237,281.1596570999827,281.65982160001295,281.6431572000147,,,,,,,,,,,,,,,,,,,,,,,,,,281.6456315999967,281.65982160001295,281.65982160001295,281.65982160001295,284.6596648999839,284.6596648999839,284.6596648999839,284.64349290000973,None,,,284.6435425999807,284.7768288999796,f,284.6596648999839,284.6596648999839,0.1139858000096865,None,,,,,,,,,,00051,001,2026-01-25_12h15.06.091,MST_task,2024.2.0,59.864108491313615,2026-01-25 12h16.10.509588 +0530,
,Objects\172a.jpg,44,0,45,,,,,,,j,1.2961448999703862,0.10392850002972409,None,,,,,,45,0,44,284.793017900025,,,,,,,,,,,,,,,,,,,,,,,284.7769194000284,284.793017900025,285.2931958999834,285.2765648000059,,,,,,,,,,,,,,,,,,,,,,,,,,285.27906979998806,285.2931958999834,285.2931958999834,285.2931958999834,288.2929366999888,288.2929366999888,288.2929366999888,288.27678299997933,j,1.2961448999703862,0.10392850002972409,288.27683779998915,288.2768493000185,None,,,,,,,,,,,,,,00051,001,2026-01-25_12h15.06.091,MST_task,2024.2.0,59.864108491313615,2026-01-25 12h16.10.509588 +0530,
,Objects\078a.jpg,45,0,46,,,,,,,j,0.8278874999959953,0.12123439996503294,None,,,,,,46,0,45,288.2929366999888,,,,,,,,,,,,,,,,,,,,,,,288.2769334000186,288.2929366999888,288.7932084000204,288.77650660002837,,,,,,,,,,,,,,,,,,,,,,,,,,288.78627250000136,288.7932084000204,288.7932084000204,288.7932084000204,291.7929757999955,291.7929757999955,291.7929757999955,291.776674200024,j,0.8278874999959953,0.12123439996503294,291.77672810002696,291.7767393999966,None,,,,,,,,,,,,,,00051,001,2026-01-25_12h15.06.091,MST_task,2024.2.0,59.864108491313615,2026-01-25 12h16.10.509588 +0530,
,Objects\186a.jpg,46,0,47,,,,,,,f,2.7366279999841936,0.10352300002705306,None,,,,,,47,0,46,291.7929757999955,,,,,,,,,,,,,,,,,,,,,,,291.77680420002434,291.7929757999955,292.2932321000262,292.27646449999884,,,,,,,,,,,,,,,,,,,,,,,,,,292.27916969999205,292.2932321000262,292.2932321000262,292.2932321000262,295.2930463000084,295.2930463000084,295.2930463000084,295.27696039999137,f,2.7366279999841936,0.10352300002705306,295.27702899998985,295.277041000023,None,,,,,,,,,,,,,,00051,001,2026-01-25_12h15.06.091,MST_task,2024.2.0,59.864108491313615,2026-01-25 12h16.10.509588 +0530,
,Objects\110a.jpg,47,0,48,,,,,,,j,1.611738100007642,0.10452699998859316,None,,,,,,48,0,47,295.2930463000084,,,,,,,,,,,,,,,,,,,,,,,295.27711100003216,295.2930463000084,295.79314820002764,295.7764775999822,,,,,,,,,,,,,,,,,,,,,,,,,,295.78591310000047,295.79314820002764,295.79314820002764,295.79314820002764,298.7929757999955,298.7929757999955,298.7929757999955,298.7767798000132,j,1.611738100007642,0.10452699998859316,298.7768341000192,298.7768445999827,None,,,,,,,,,,,,,,00051,001,2026-01-25_12h15.06.091,MST_task,2024.2.0,59.864108491313615,2026-01-25 12h16.10.509588 +0530,
,Objects\139a.jpg,48,0,49,,,,,,,f,1.728189299989026,0.11142650002148002,None,,,,,,49,0,48,298.7929757999955,,,,,,,,,,,,,,,,,,,,,,,298.7769088000059,298.7929757999955,299.29324109997833,299.27665650000563,,,,,,,,,,,,,,,,,,,,,,,,,,299.2862022999907,299.29324109997833,299.29324109997833,299.29324109997833,302.2929912999971,302.2929912999971,302.2929912999971,302.27675369998906,f,1.728189299989026,0.11142650002148002,302.27681060001487,302.2768215999822,None,,,,,,,,,,,,,,00051,001,2026-01-25_12h15.06.091,MST_task,2024.2.0,59.864108491313615,2026-01-25 12h16.10.509588 +0530,
,Scenes\114a.jpg,49,0,50,,,,,,,j,1.4202545000007376,0.1112744000274688,None,,,,,,50,0,49,302.2929912999971,,,,,,,,,,,,,,,,,,,,,,,302.27692319999915,302.2929912999971,302.79347309999866,302.7764472999843,,,,,,,,,,,,,,,,,,,,,,,,,,302.7876895000227,302.79347309999866,302.79347309999866,302.79347309999866,305.7929213999887,305.7929213999887,305.7929213999887,305.7768066999852,j,1.4202545000007376,0.1112744000274688,305.77686290000565,305.7768736000289,None,,,,,,,,,,,,,,00051,001,2026-01-25_12h15.06.091,MST_task,2024.2.0,59.864108491313615,2026-01-25 12h16.10.509588 +0530,
,Scenes\181a.jpg,50,0,51,,,,,,,f,1.9992948999861255,0.10400440002558753,None,,,,,,51,0,50,305.7929213999887,,,,,,,,,,,,,,,,,,,,,,,305.7769624000066,305.7929213999887,306.29352230002405,306.2764865999925,,,,,,,,,,,,,,,,,,,,,,,,,,306.28749810002046,306.29352230002405,306.29352230002405,306.29352230002405,309.2930862000212,309.2930862000212,309.2930862000212,309.27684820001014,f,1.9992948999861255,0.10400440002558753,309.2769023000146,309.2769126999774,None,,,,,,,,,,,,,,00051,001,2026-01-25_12h15.06.091,MST_task,2024.2.0,59.864108491313615,2026-01-25 12h16.10.509588 +0530,
,Scenes\138a.jpg,51,0,52,,,,,,,j,0.8193285000161268,0.11261989997001365,None,,,,,,52,0,51,309.2930862000212,,,,,,,,,,,,,,,,,,,,,,,309.2769776000059,309.2930862000212,309.79366510000546,309.7765695999842,,,,,,,,,,,,,,,,,,,,,,,,,,309.7843732999754,309.79366510000546,309.79366510000546,309.79366510000546,312.79308919998584,312.79308919998584,312.79308919998584,312.77699620003114,j,0.8193285000161268,0.11261989997001365,312.77705229999265,312.7770633000182,None,,,,,,,,,,,,,,00051,001,2026-01-25_12h15.06.091,MST_task,2024.2.0,59.864108491313615,2026-01-25 12h16.10.509588 +0530,
,Scenes\073a.jpg,52,0,53,,,,,,,j,0.8557628999697044,0.12798620003741235,None,,,,,,53,0,52,312.79308919998584,,,,,,,,,,,,,,,,,,,,,,,312.7771531000035,312.79308919998584,313.2936282000155,313.2766115000122,,,,,,,,,,,,,,,,,,,,,,,,,,313.2914642000105,313.2936282000155,313.2936282000155,313.2936282000155,316.29303459997755,316.29303459997755,316.29303459997755,316.2770378999994,j,0.8557628999697044,0.12798620003741235,316.27709729998605,316.2771085000131,None,,,,,,,,,,,,,,00051,001,2026-01-25_12h15.06.091,MST_task,2024.2.0,59.864108491313615,2026-01-25 12h16.10.509588 +0530,
,Scenes\021a.jpg,53,0,54,,,,,,,j,2.067535099980887,0.09609240002464503,None,,,,,,54,0,53,316.29303459997755,,,,,,,,,,,,,,,,,,,,,,,316.2772023000289,316.29303459997755,316.7937028000015,316.77665359998355,,,,,,,,,,,,,,,,,,,,,,,,,,316.78619519999484,316.7937028000015,316.7937028000015,316.7937028000015,319.79299909999827,319.79299909999827,319.79299909999827,319.776976299996,j,2.067535099980887,0.09609240002464503,319.7770272999769,319.7770380000002,None,,,,,,,,,,,,,,00051,001,2026-01-25_12h15.06.091,MST_task,2024.2.0,59.864108491313615,2026-01-25 12h16.10.509588 +0530,
,Scenes\129a.jpg,54,0,55,,,,,,,j,1.6233551999903284,0.10399780003353953,None,,,,,,55,0,54,319.79299909999827,,,,,,,,,,,,,,,,,,,,,,,319.77710250002565,319.79299909999827,320.29362170002423,320.27664480003295,,,,,,,,,,,,,,,,,,,,,,,,,,320.2835917000193,320.29362170002423,320.29362170002423,320.29362170002423,323.2930855000159,323.2930855000159,323.2930855000159,323.27692969999043,j,1.6233551999903284,0.10399780003353953,323.2769822999835,323.27699300000677,None,,,,,,,,,,,,,,00051,001,2026-01-25_12h15.06.091,MST_task,2024.2.0,59.864108491313615,2026-01-25 12h16.10.509588 +0530,
,Scenes\023a.jpg,55,0,56,,,,,,,f,1.4138749000267126,0.11956089996965602,None,,,,,,56,0,55,323.2930855000159,,,,,,,,,,,,,,,,,,,,,,,323.27705700002844,323.2930855000159,323.7993604000076,323.776626100007,,,,,,,,,,,,,,,,,,,,,,,,,,323.7969575999887,323.7993604000076,323.7993604000076,323.7993604000076,,,,326.7932606000104,f,1.4138749000267126,0.11956089996965602,326.79331480001565,326.7933260999853,None,,,,,,,,,,,,,,00051,001,2026-01-25_12h15.06.091,MST_task,2024.2.0,59.864108491313615,2026-01-25 12h16.10.509588 +0530,
,Objects\042a.jpg,56,0,57,,,,,,,f,1.199380200006999,0.12801709998166189,None,,,,,,57,0,56,326.80976869998267,,,,,,,,,,,,,,,,,,,,,,,326.7934110999922,326.80976869998267,327.31020000000717,327.293227999995,,,,,,,,,,,,,,,,,,,,,,,,,,327.29723550000926,327.31020000000717,327.31020000000717,327.31020000000717,,,,330.29342679999536,f,1.199380200006999,0.12801709998166189,330.29348320001736,330.2934951999923,None,,,,,,,,,,,,,,00051,001,2026-01-25_12h15.06.091,MST_task,2024.2.0,59.864108491313615,2026-01-25 12h16.10.509588 +0530,
,Objects\091a.jpg,57,0,58,,,,,,,j,1.7793239000020549,0.1195096000446938,None,,,,,,58,0,57,330.3098106000107,,,,,,,,,,,,,,,,,,,,,,,330.29356520000147,330.3098106000107,330.80992939998396,330.79328610002995,,,,,,,,,,,,,,,,,,,,,,,,,,330.7958672000095,330.80992939998396,330.80992939998396,330.80992939998396,333.80974029999925,333.80974029999925,333.80974029999925,333.7938277000212,j,1.7793239000020549,0.1195096000446938,333.79388970002765,333.7939141999814,None,,,,,,,,,,,,,,00051,001,2026-01-25_12h15.06.091,MST_task,2024.2.0,59.864108491313615,2026-01-25 12h16.10.509588 +0530,
,Objects\051a.jpg,58,0,59,,,,,,,None,,,j,0.29594390001147985,None,,,,59,0,58,333.80974029999925,,,,,,,,,,,,,,,,,,,,,,,333.79400789999636,333.80974029999925,334.3099727000226,334.2933082000236,,,,,,,,,,,,,,,,,,,,,,,,,,334.2958169999765,334.3099727000226,334.3099727000226,334.3099727000226,337.30966189998435,337.30966189998435,337.30966189998435,337.29358910000883,None,,,337.2936366000213,337.61014820000855,j,337.30966189998435,337.30966189998435,0.29594390001147985,None,,,,,,,,,,00051,001,2026-01-25_12h15.06.091,MST_task,2024.2.0,59.864108491313615,2026-01-25 12h16.10.509588 +0530,
,Objects\086a.jpg,59,0,60,,,,,,,j,1.9502032999880612,0.10403849999420345,None,,,,,,60,0,59,337.6264056999935,,,,,,,,,,,,,,,,,,,,,,,337.6102314000018,337.6264056999935,338.1265960999881,338.10996969998814,,,,,,,,,,,,,,,,,,,,,,,,,,338.1124751000316,338.1265960999881,338.1265960999881,338.1265960999881,341.12638530001277,341.12638530001277,341.12638530001277,341.1103682999965,j,1.9502032999880612,0.10403849999420345,341.1104207999888,341.1104321000166,None,,,,,,,,,,,,,,00051,001,2026-01-25_12h15.06.091,MST_task,2024.2.0,59.864108491313615,2026-01-25 12h16.10.509588 +0530,
,Objects\016a.jpg,60,0,61,,,,,,,f,1.0033484000014141,0.11168410000391304,None,,,,,,61,0,60,341.12638530001277,,,,,,,,,,,,,,,,,,,,,,,341.1105157000129,341.12638530001277,341.6264532000059,341.60997330001555,,,,,,,,,,,,,,,,,,,,,,,,,,341.6195613000309,341.6264532000059,341.6264532000059,341.6264532000059,344.6263448999962,344.6263448999962,344.6263448999962,344.61039889999665,f,1.0033484000014141,0.11168410000391304,344.61045119998744,344.61046180000994,None,,,,,,,,,,,,,,00051,001,2026-01-25_12h15.06.091,MST_task,2024.2.0,59.864108491313615,2026-01-25 12h16.10.509588 +0530,
,Objects\095a.jpg,61,0,62,,,,,,,f,0.8309532999992371,0.11990629998035729,None,,,,,,62,0,61,344.6263448999962,,,,,,,,,,,,,,,,,,,,,,,344.6105460000108,344.6263448999962,345.1265707000275,345.1099697999889,,,,,,,,,,,,,,,,,,,,,,,,,,345.1199631000054,345.1265707000275,345.1265707000275,345.1265707000275,348.1264042999828,348.1264042999828,348.1264042999828,348.1102533999947,f,0.8309532999992371,0.11990629998035729,348.1103071999969,348.1103183000232,None,,,,,,,,,,,,,,00051,001,2026-01-25_12h15.06.091,MST_task,2024.2.0,59.864108491313615,2026-01-25 12h16.10.509588 +0530,
,Objects\002a.jpg,62,0,63,,,,,,,f,0.49814909999258816,0.1695361000020057,None,,,,,,63,0,62,348.1264042999828,,,,,,,,,,,,,,,,,,,,,,,348.11040050000884,348.1264042999828,348.62661690003006,348.61006229999475,,,,,,,,,,,,,,,,,,,,,,,,,,348.61264290002873,348.62661690003006,348.62661690003006,348.62661690003006,351.62639029999264,351.62639029999264,351.62639029999264,351.6102512999787,f,0.49814909999258816,0.1695361000020057,351.61030400003074,351.6103149999981,None,,,,,,,,,,,,,,00051,001,2026-01-25_12h15.06.091,MST_task,2024.2.0,59.864108491313615,2026-01-25 12h16.10.509588 +0530,
,Scenes\072a.jpg,63,0,64,,,,,,,j,0.7983047000016086,0.13609840004937723,None,,,,,,64,0,63,351.62639029999264,,,,,,,,,,,,,,,,,,,,,,,351.6103989999974,351.62639029999264,352.12681380001595,352.10996089997934,,,,,,,,,,,,,,,,,,,,,,,,,,352.1208296000259,352.12681380001595,352.12681380001595,352.12681380001595,355.1263325000182,355.1263325000182,355.1263325000182,355.1104154000059,j,0.7983047000016086,0.13609840004937723,355.11046799999895,355.1104790000245,None,,,,,,,,,,,,,,00051,001,2026-01-25_12h15.06.091,MST_task,2024.2.0,59.864108491313615,2026-01-25 12h16.10.509588 +0530,
,Scenes\022a.jpg,64,0,65,,,,,,,j,0.8428210000274703,0.11161030002404004,None,,,,,,65,0,64,355.1263325000182,,,,,,,,,,,,,,,,,,,,,,,355.11056449997704,355.1263325000182,355.626926500001,355.6099925999879,,,,,,,,,,,,,,,,,,,,,,,,,,355.6211752999807,355.626926500001,355.626926500001,355.626926500001,358.6262175000156,358.6262175000156,358.6262175000156,358.61035670002457,j,0.8428210000274703,0.11161030002404004,358.61043050000444,358.6104418000323,None,,,,,,,,,,,,,,00051,001,2026-01-25_12h15.06.091,MST_task,2024.2.0,59.864108491313615,2026-01-25 12h16.10.509588 +0530,
,Scenes\046a.jpg,65,0,66,,,,,,,j,1.2460432999650948,0.16795840003760532,None,,,,,,66,0,65,358.6262175000156,,,,,,,,,,,,,,,,,,,,,,,358.6105307000107,358.6262175000156,359.1268420999986,359.1100479000015,,,,,,,,,,,,,,,,,,,,,,,,,,359.1220678000245,359.1268420999986,359.1268420999986,359.1268420999986,362.12645859998884,362.12645859998884,362.12645859998884,362.1102704000077,j,1.2460432999650948,0.16795840003760532,362.11032129998785,362.11033160000807,None,,,,,,,,,,,,,,00051,001,2026-01-25_12h15.06.091,MST_task,2024.2.0,59.864108491313615,2026-01-25 12h16.10.509588 +0530,
,Scenes\015a.jpg,66,0,67,,,,,,,j,1.0343015999533236,0.11998560000211,None,,,,,,67,0,66,362.12645859998884,,,,,,,,,,,,,,,,,,,,,,,362.11041389999446,362.12645859998884,362.62663810001686,362.61007450002944,,,,,,,,,,,,,,,,,,,,,,,,,,362.6203672999982,362.62663810001686,362.62663810001686,362.62663810001686,365.6263919000048,365.6263919000048,365.6263919000048,365.6108914000215,j,1.0343015999533236,0.11998560000211,365.6109439000138,365.6109552999842,None,,,,,,,,,,,,,,00051,001,2026-01-25_12h15.06.091,MST_task,2024.2.0,59.864108491313615,2026-01-25 12h16.10.509588 +0530,
,Scenes\191a.jpg,67,0,68,,,,,,,j,1.1585798999876715,0.11969669995596632,None,,,,,,68,0,67,365.6263919000048,,,,,,,,,,,,,,,,,,,,,,,365.61103949998505,365.6263919000048,366.1269251999911,366.10996039997553,,,,,,,,,,,,,,,,,,,,,,,,,,366.11678679997567,366.1269251999911,366.1269251999911,366.1269251999911,369.12613410002086,369.12613410002086,369.12613410002086,369.1102635000134,j,1.1585798999876715,0.11969669995596632,369.11031509999884,369.1103259000229,None,,,,,,,,,,,,,,00051,001,2026-01-25_12h15.06.091,MST_task,2024.2.0,59.864108491313615,2026-01-25 12h16.10.509588 +0530,
,Scenes\077a.jpg,68,0,69,,,,,,,j,1.7526348999817856,0.12000380002427846,None,,,,,,69,0,68,369.12613410002086,,,,,,,,,,,,,,,,,,,,,,,369.1103941000183,369.12613410002086,369.62858580000466,369.6098682000302,,,,,,,,,,,,,,,,,,,,,,,,,,369.6257723000017,369.62858580000466,369.62858580000466,369.62858580000466,,,,372.62646370002767,j,1.7526348999817856,0.12000380002427846,372.62651650002226,372.62652769999113,None,,,,,,,,,,,,,,00051,001,2026-01-25_12h15.06.091,MST_task,2024.2.0,59.864108491313615,2026-01-25 12h16.10.509588 +0530,
,Scenes\007a.jpg,69,0,70,,,,,,,f,0.9104915999923833,0.1667445999919437,None,,,,,,70,0,69,372.6428878000006,,,,,,,,,,,,,,,,,,,,,,,372.62659420003183,372.6428878000006,373.1435125999851,373.1264553000219,,,,,,,,,,,,,,,,,,,,,,,,,,373.13294670003233,373.1435125999851,373.1435125999851,373.1435125999851,376.1429496000055,376.1429496000055,376.1429496000055,376.12678530003177,f,0.9104915999923833,0.1667445999919437,376.1268380000256,376.12684919999447,None,,,,,,,,,,,,,,00051,001,2026-01-25_12h15.06.091,MST_task,2024.2.0,59.864108491313615,2026-01-25 12h16.10.509588 +0530,
,Objects\041a.jpg,70,0,71,,,,,,,j,1.8346129999845289,0.1199800000176765,None,,,,,,71,0,70,376.1429496000055,,,,,,,,,,,,,,,,,,,,,,,376.1269131000154,376.1429496000055,376.64345329999924,376.6264781000209,,,,,,,,,,,,,,,,,,,,,,,,,,376.629257099994,376.64345329999924,376.64345329999924,376.64345329999924,379.6428822000162,379.6428822000162,379.6428822000162,379.626854000031,j,1.8346129999845289,0.1199800000176765,379.62690750003094,379.6269184999983,None,,,,,,,,,,,,,,00051,001,2026-01-25_12h15.06.091,MST_task,2024.2.0,59.864108491313615,2026-01-25 12h16.10.509588 +0530,
,Objects\034a.jpg,71,0,72,,,,,,,f,2.517657999997027,0.08798579999711365,None,,,,,,72,0,71,379.6428822000162,,,,,,,,,,,,,,,,,,,,,,,379.6270041000098,379.6428822000162,380.14317619998474,380.12644880003063,,,,,,,,,,,,,,,,,,,,,,,,,,380.12927759997547,380.14317619998474,380.14317619998474,380.14317619998474,383.1429408999975,383.1429408999975,383.1429408999975,383.12682700000005,f,2.517657999997027,0.08798579999711365,383.126889200008,383.12690129998373,None,,,,,,,,,,,,,,00051,001,2026-01-25_12h15.06.091,MST_task,2024.2.0,59.864108491313615,2026-01-25 12h16.10.509588 +0530,
,Objects\035a.jpg,72,0,73,,,,,,,f,1.4018225999898277,0.10400619998108596,None,,,,,,73,0,72,383.1429408999975,,,,,,,,,,,,,,,,,,,,,,,383.126997400017,383.1429408999975,383.6432000999921,383.6264548000181,,,,,,,,,,,,,,,,,,,,,,,,,,383.63626459997613,383.6432000999921,383.6432000999921,383.6432000999921,386.64298830000916,386.64298830000916,386.64298830000916,386.62667119997786,f,1.4018225999898277,0.10400619998108596,386.62672380002914,386.6267346999957,None,,,,,,,,,,,,,,00051,001,2026-01-25_12h15.06.091,MST_task,2024.2.0,59.864108491313615,2026-01-25 12h16.10.509588 +0530,
,Objects\027a.jpg,73,0,74,,,,,,,None,,,f,0.06191759998910129,None,,,,74,0,73,386.64298830000916,,,,,,,,,,,,,,,,,,,,,,,386.6267989000189,386.64298830000916,387.14310450002085,387.1262811999768,,,,,,,,,,,,,,,,,,,,,,,,,,387.1290109999827,387.14310450002085,387.14310450002085,387.14310450002085,390.1430105000036,390.1430105000036,390.1430105000036,390.12666369997896,None,,,390.1267125000013,390.2100404999801,f,390.1430105000036,390.1430105000036,0.06191759998910129,None,,,,,,,,,,00051,001,2026-01-25_12h15.06.091,MST_task,2024.2.0,59.864108491313615,2026-01-25 12h16.10.509588 +0530,
,Objects\028a.jpg,74,0,75,,,,,,,f,1.2394010999705642,0.11118349997559562,None,,,,,,75,0,74,390.2261256999918,,,,,,,,,,,,,,,,,,,,,,,390.2101199000026,390.2261256999918,390.72651449998375,390.70989569998346,,,,,,,,,,,,,,,,,,,,,,,,,,390.71257839998,390.72651449998375,390.72651449998375,390.72651449998375,,,,393.7101882999996,f,1.2394010999705642,0.11118349997559562,393.710242000001,393.7102537000319,None,,,,,,,,,,,,,,00051,001,2026-01-25_12h15.06.091,MST_task,2024.2.0,59.864108491313615,2026-01-25 12h16.10.509588 +0530,
,Objects\127a.jpg,75,0,76,,,,,,,j,1.6753365999902599,0.11230689997319132,None,,,,,,76,0,75,393.7262165999855,,,,,,,,,,,,,,,,,,,,,,,393.7103400999913,393.7262165999855,394.2262861999916,394.20985230000224,,,,,,,,,,,,,,,,,,,,,,,,,,394.21242759999586,394.2262861999916,394.2262861999916,394.2262861999916,397.2261259999941,397.2261259999941,397.2261259999941,397.2102921999758,j,1.6753365999902599,0.11230689997319132,397.2103580000112,397.21036889997777,None,,,,,,,,,,,,,,00051,001,2026-01-25_12h15.06.091,MST_task,2024.2.0,59.864108491313615,2026-01-25 12h16.10.509588 +0530,
,Objects\152a.jpg,76,0,77,,,,,,,f,0.894911699986551,0.11954260000493377,None,,,,,,77,0,76,397.2261259999941,,,,,,,,,,,,,,,,,,,,,,,397.2104350000154,397.2261259999941,397.7264360000263,397.7099338999833,,,,,,,,,,,,,,,,,,,,,,,,,,397.7126776999794,397.7264360000263,397.7264360000263,397.7264360000263,400.7261907000211,400.7261907000211,400.7261907000211,400.71020959998714,f,0.894911699986551,0.11954260000493377,400.71026239998173,400.71027300000424,None,,,,,,,,,,,,,,00051,001,2026-01-25_12h15.06.091,MST_task,2024.2.0,59.864108491313615,2026-01-25 12h16.10.509588 +0530,
,Scenes\152a.jpg,77,0,78,,,,,,,j,0.7785499000456184,0.11166039999807253,None,,,,,,78,0,77,400.7261907000211,,,,,,,,,,,,,,,,,,,,,,,400.7103580000112,400.7261907000211,401.22664310003165,401.2097536000074,,,,,,,,,,,,,,,,,,,,,,,,,,401.2157703000121,401.22664310003165,401.22664310003165,401.22664310003165,404.226193599985,404.226193599985,404.226193599985,404.210239899985,j,0.7785499000456184,0.11166039999807253,404.2102974000154,404.2103087999858,None,,,,,,,,,,,,,,00051,001,2026-01-25_12h15.06.091,MST_task,2024.2.0,59.864108491313615,2026-01-25 12h16.10.509588 +0530,
,Scenes\126a.jpg,78,0,79,,,,,,,j,1.0629894000012428,0.13591119996272027,None,,,,,,79,0,78,404.226193599985,,,,,,,,,,,,,,,,,,,,,,,404.2103946999996,404.226193599985,404.72675819997676,404.7099110999843,,,,,,,,,,,,,,,,,,,,,,,,,,404.7189711999963,404.72675819997676,404.72675819997676,404.72675819997676,407.72611300001154,407.72611300001154,407.72611300001154,407.71035060001304,j,1.0629894000012428,0.13591119996272027,407.7104203000199,407.7104319999926,None,,,,,,,,,,,,,,00051,001,2026-01-25_12h15.06.091,MST_task,2024.2.0,59.864108491313615,2026-01-25 12h16.10.509588 +0530,
,Scenes\028a.jpg,79,0,80,,,,,,,j,0.8501131999655627,0.13595580001128837,None,,,,,,80,0,79,407.72611300001154,,,,,,,,,,,,,,,,,,,,,,,407.7105262000114,407.72611300001154,408.22688470000867,408.20987610000884,,,,,,,,,,,,,,,,,,,,,,,,,,408.21745729999384,408.22688470000867,408.22688470000867,408.22688470000867,411.2261612000293,411.2261612000293,411.2261612000293,411.2103317999863,j,0.8501131999655627,0.13595580001128837,411.2103843999794,411.21039510000264,None,,,,,,,,,,,,,,00051,001,2026-01-25_12h15.06.091,MST_task,2024.2.0,59.864108491313615,2026-01-25 12h16.10.509588 +0530,
,Scenes\024a.jpg,80,0,81,,,,,,,j,1.9430282000103034,0.11893509997753426,None,,,,,,81,0,80,411.2261612000293,,,,,,,,,,,,,,,,,,,,,,,411.21047920000274,411.2261612000293,411.7268584999838,411.70987349998904,,,,,,,,,,,,,,,,,,,,,,,,,,411.7158779000165,411.7268584999838,411.7268584999838,411.7268584999838,414.7260898000095,414.7260898000095,414.7260898000095,414.7102843000321,j,1.9430282000103034,0.11893509997753426,414.7103365000221,414.7103470999864,None,,,,,,,,,,,,,,00051,001,2026-01-25_12h15.06.091,MST_task,2024.2.0,59.864108491313615,2026-01-25 12h16.10.509588 +0530,
,Scenes\128a.jpg,81,0,82,,,,,,,j,0.9862854999955744,0.1119992999592796,None,,,,,,82,0,81,414.7260898000095,,,,,,,,,,,,,,,,,,,,,,,414.7104308999842,414.7260898000095,415.226820699987,415.2098069000058,,,,,,,,,,,,,,,,,,,,,,,,,,415.2214083999861,415.226820699987,415.226820699987,415.226820699987,418.22611560003133,418.22611560003133,418.22611560003133,418.21051409997744,j,0.9862854999955744,0.1119992999592796,418.21056889998727,418.21057950000977,None,,,,,,,,,,,,,,00051,001,2026-01-25_12h15.06.091,MST_task,2024.2.0,59.864108491313615,2026-01-25 12h16.10.509588 +0530,
,Scenes\090a.jpg,82,0,83,,,,,,,j,2.058399899979122,0.11968390003312379,None,,,,,,83,0,82,418.22611560003133,,,,,,,,,,,,,,,,,,,,,,,418.2106664000312,418.22611560003133,418.7313350000186,418.7098719999776,,,,,,,,,,,,,,,,,,,,,,,,,,418.7288379999809,418.7313350000186,418.7313350000186,418.7313350000186,,,,421.7263053000206,j,2.058399899979122,0.11968390003312379,421.7263571000076,421.72636939998483,None,,,,,,,,,,,,,,00051,001,2026-01-25_12h15.06.091,MST_task,2024.2.0,59.864108491313615,2026-01-25 12h16.10.509588 +0530,
,Scenes\127a.jpg,83,0,84,,,,,,,j,1.2094776000012644,0.11270759999752045,None,,,,,,84,0,83,421.74293850001413,,,,,,,,,,,,,,,,,,,,,,,421.726458500023,421.74293850001413,422.2435135000269,422.22635439998703,,,,,,,,,,,,,,,,,,,,,,,,,,422.2355363999959,422.2435135000269,422.2435135000269,422.2435135000269,425.24293300003046,425.24293300003046,425.24293300003046,425.2267137999879,j,1.2094776000012644,0.11270759999752045,425.2267656000331,425.2267764999997,None,,,,,,,,,,,,,,00051,001,2026-01-25_12h15.06.091,MST_task,2024.2.0,59.864108491313615,2026-01-25 12h16.10.509588 +0530,
,Objects\019a.jpg,84,0,85,,,,,,,f,2.4459545999998227,0.09609999996609986,None,,,,,,85,0,84,425.24293300003046,,,,,,,,,,,,,,,,,,,,,,,425.22686330002034,425.24293300003046,425.74372259998927,425.7264312999905,,,,,,,,,,,,,,,,,,,,,,,,,,425.7297506000032,425.74372259998927,425.74372259998927,425.74372259998927,428.743037200009,428.743037200009,428.743037200009,428.72696519998135,f,2.4459545999998227,0.09609999996609986,428.7270178000326,428.7270286999992,None,,,,,,,,,,,,,,00051,001,2026-01-25_12h15.06.091,MST_task,2024.2.0,59.864108491313615,2026-01-25 12h16.10.509588 +0530,
,Objects\103a.jpg,85,0,86,,,,,,,f,1.9137430000118911,0.1279857000336051,None,,,,,,86,0,85,428.743037200009,,,,,,,,,,,,,,,,,,,,,,,428.7270929000224,428.743037200009,429.243222900026,429.22653520002495,,,,,,,,,,,,,,,,,,,,,,,,,,429.2294620000175,429.243222900026,429.243222900026,429.243222900026,432.2430382000166,432.2430382000166,432.2430382000166,432.2267568000243,f,1.9137430000118911,0.1279857000336051,432.2268094000174,432.22682009998243,None,,,,,,,,,,,,,,00051,001,2026-01-25_12h15.06.091,MST_task,2024.2.0,59.864108491313615,2026-01-25 12h16.10.509588 +0530,
,Objects\134a.jpg,86,0,87,,,,,,,j,2.4142702000099234,0.09509409999009222,None,,,,,,87,0,86,432.2430382000166,,,,,,,,,,,,,,,,,,,,,,,432.22690569999395,432.2430382000166,432.74325950001366,432.72654250002233,,,,,,,,,,,,,,,,,,,,,,,,,,432.7290689999936,432.74325950001366,432.74325950001366,432.74325950001366,435.74303910002345,435.74303910002345,435.74303910002345,435.72683170001255,j,2.4142702000099234,0.09509409999009222,435.7268846000079,435.7268966999836,None,,,,,,,,,,,,,,00051,001,2026-01-25_12h15.06.091,MST_task,2024.2.0,59.864108491313615,2026-01-25 12h16.10.509588 +0530,
,Objects\144a.jpg,87,0,88,,,,,,,j,2.3618561000330374,0.11979779996909201,None,,,,,,88,0,87,435.74303910002345,,,,,,,,,,,,,,,,,,,,,,,435.7269785000244,435.74303910002345,436.2431956999935,436.22666169999866,,,,,,,,,,,,,,,,,,,,,,,,,,436.23713939997833,436.2431956999935,436.2431956999935,436.2431956999935,439.2430945999804,439.2430945999804,439.2430945999804,439.22696060000453,j,2.3618561000330374,0.11979779996909201,439.2270116999862,439.22702190000564,None,,,,,,,,,,,,,,00051,001,2026-01-25_12h15.06.091,MST_task,2024.2.0,59.864108491313615,2026-01-25 12h16.10.509588 +0530,
,Objects\179a.jpg,88,0,89,,,,,,,f,1.9103649000171572,0.10418939997907728,None,,,,,,89,0,88,439.2430945999804,,,,,,,,,,,,,,,,,,,,,,,439.22710620000726,439.2430945999804,439.743149499991,439.7265210999758,,,,,,,,,,,,,,,,,,,,,,,,,,439.7357902000076,439.743149499991,439.743149499991,439.743149499991,442.7430404999759,442.7430404999759,442.7430404999759,442.72682889999123,f,1.9103649000171572,0.10418939997907728,442.72687960002804,442.72689089999767,None,,,,,,,,,,,,,,00051,001,2026-01-25_12h15.06.091,MST_task,2024.2.0,59.864108491313615,2026-01-25 12h16.10.509588 +0530,
,Objects\163a.jpg,89,0,90,,,,,,,j,1.8974929000250995,0.11199599999235943,None,,,,,,90,0,89,442.7430404999759,,,,,,,,,,,,,,,,,,,,,,,442.7269765000092,442.7430404999759,443.24323500000173,443.2264955000137,,,,,,,,,,,,,,,,,,,,,,,,,,443.22905110003194,443.24323500000173,443.24323500000173,443.24323500000173,446.2429252000293,446.2429252000293,446.2429252000293,446.2265576000209,j,1.8974929000250995,0.11199599999235943,446.22661309997784,446.22662400000263,None,,,,,,,,,,,,,,00051,001,2026-01-25_12h15.06.091,MST_task,2024.2.0,59.864108491313615,2026-01-25 12h16.10.509588 +0530,
,Objects\048a.jpg,90,0,91,,,,,,,j,0.91710779996356,0.12103959999512881,None,,,,,,91,0,90,446.2429252000293,,,,,,,,,,,,,,,,,,,,,,,446.22668989998056,446.2429252000293,446.743612500024,446.7268806999782,,,,,,,,,,,,,,,,,,,,,,,,,,446.7295686000143,446.743612500024,446.743612500024,446.743612500024,449.7432604000205,449.7432604000205,449.7432604000205,449.7269507999881,j,0.91710779996356,0.12103959999512881,449.72700250003254,449.7270131999976,None,,,,,,,,,,,,,,00051,001,2026-01-25_12h15.06.091,MST_task,2024.2.0,59.864108491313615,2026-01-25 12h16.10.509588 +0530,
,Scenes\003a.jpg,91,0,92,,,,,,,j,1.2276359000243247,0.12808459997177124,None,,,,,,92,0,91,449.7432604000205,,,,,,,,,,,,,,,,,,,,,,,449.7270774000208,449.7432604000205,450.2497491000104,450.2264843999874,,,,,,,,,,,,,,,,,,,,,,,,,,450.2474241000018,450.2497491000104,450.2497491000104,450.2497491000104,,,,453.2432390000322,j,1.2276359000243247,0.12808459997177124,453.2432922000298,453.2433039000025,None,,,,,,,,,,,,,,00051,001,2026-01-25_12h15.06.091,MST_task,2024.2.0,59.864108491313615,2026-01-25 12h16.10.509588 +0530,
,Scenes\055a.jpg,92,0,93,,,,,,,j,0.933026599988807,0.1113476000027731,None,,,,,,93,0,92,453.2597156999982,,,,,,,,,,,,,,,,,,,,,,,453.2433944999939,453.2597156999982,453.76035589998355,453.7431606000173,,,,,,,,,,,,,,,,,,,,,,,,,,453.75311230000807,453.76035589998355,453.76035589998355,453.76035589998355,456.7596444999799,456.7596444999799,456.7596444999799,456.74371329997666,j,0.933026599988807,0.1113476000027731,456.74376560002565,456.74377619998995,None,,,,,,,,,,,,,,00051,001,2026-01-25_12h15.06.091,MST_task,2024.2.0,59.864108491313615,2026-01-25 12h16.10.509588 +0530,
,Scenes\087a.jpg,93,0,94,,,,,,,j,0.9372661000234075,0.12000599998282269,None,,,,,,94,0,93,456.7596444999799,,,,,,,,,,,,,,,,,,,,,,,456.7438420000253,456.7596444999799,457.2602737999987,457.2432307000272,,,,,,,,,,,,,,,,,,,,,,,,,,457.2576224000077,457.2602737999987,457.2602737999987,457.2602737999987,460.25961409998126,460.25961409998126,460.25961409998126,460.24340859998483,j,0.9372661000234075,0.12000599998282269,460.2434594000224,460.24347039998975,None,,,,,,,,,,,,,,00051,001,2026-01-25_12h15.06.091,MST_task,2024.2.0,59.864108491313615,2026-01-25 12h16.10.509588 +0530,
,Scenes\036a.jpg,94,0,95,,,,,,,j,1.077040699950885,0.12050449999514967,None,,,,,,95,0,94,460.25961409998126,,,,,,,,,,,,,,,,,,,,,,,460.2435347000137,460.25961409998126,460.7602220000117,460.7431891000015,,,,,,,,,,,,,,,,,,,,,,,,,,460.747677700012,460.7602220000117,460.7602220000117,460.7602220000117,463.75970729999244,463.75970729999244,463.75970729999244,463.7433887000079,j,1.077040699950885,0.12050449999514967,463.7434449000284,463.74345639999956,None,,,,,,,,,,,,,,00051,001,2026-01-25_12h15.06.091,MST_task,2024.2.0,59.864108491313615,2026-01-25 12h16.10.509588 +0530,
,Scenes\092a.jpg,95,0,96,,,,,,,j,1.152509799983818,0.11198390001663938,None,,,,,,96,0,95,463.75970729999244,,,,,,,,,,,,,,,,,,,,,,,463.7435229999828,463.75970729999244,464.26021620002575,464.24314899998717,,,,,,,,,,,,,,,,,,,,,,,,,,464.2510777999996,464.26021620002575,464.26021620002575,464.26021620002575,467.25953129999107,467.25953129999107,467.25953129999107,467.2435283000232,j,1.152509799983818,0.11198390001663938,467.2435807000147,467.2435918999836,None,,,,,,,,,,,,,,00051,001,2026-01-25_12h15.06.091,MST_task,2024.2.0,59.864108491313615,2026-01-25 12h16.10.509588 +0530,
,Scenes\012a.jpg,96,0,97,,,,,,,j,1.0773219999973662,0.14397209999151528,None,,,,,,97,0,96,467.25953129999107,,,,,,,,,,,,,,,,,,,,,,,467.2436570000136,467.25953129999107,467.7602678000112,467.74311410001246,,,,,,,,,,,,,,,,,,,,,,,,,,467.7541170999757,467.7602678000112,467.7602678000112,467.7602678000112,470.7595925999922,470.7595925999922,470.7595925999922,470.74337550002383,j,1.0773219999973662,0.14397209999151528,470.7434271000093,470.74343780003255,None,,,,,,,,,,,,,,00051,001,2026-01-25_12h15.06.091,MST_task,2024.2.0,59.864108491313615,2026-01-25 12h16.10.509588 +0530,
,Scenes\081a.jpg,97,0,98,,,,,,,j,0.9336582000250928,0.12000110000371933,None,,,,,,98,0,97,470.7595925999922,,,,,,,,,,,,,,,,,,,,,,,470.7435219999752,470.7595925999922,471.2637991000083,471.2431166000315,,,,,,,,,,,,,,,,,,,,,,,,,,471.2615107999882,471.2637991000083,471.2637991000083,471.2637991000083,,,,474.25979009998264,j,0.9336582000250928,0.12000110000371933,474.25984080001945,474.2598519999883,None,,,,,,,,,,,,,,00051,001,2026-01-25_12h15.06.091,MST_task,2024.2.0,59.864108491313615,2026-01-25 12h16.10.509588 +0530,
,Objects\047a.jpg,98,0,99,,,,,,,f,0.8769422000041232,0.10399939998751506,None,,,,,,99,0,98,474.2760783000267,,,,,,,,,,,,,,,,,,,,,,,474.2599365999922,474.2760783000267,474.7765561999986,474.7599944000249,,,,,,,,,,,,,,,,,,,,,,,,,,474.7699072000105,474.7765561999986,474.7765561999986,474.7765561999986,477.77610479999566,477.77610479999566,477.77610479999566,477.76016270002583,f,0.8769422000041232,0.10399939998751506,477.7602145000128,477.7602253999794,None,,,,,,,,,,,,,,00051,001,2026-01-25_12h15.06.091,MST_task,2024.2.0,59.864108491313615,2026-01-25 12h16.10.509588 +0530,
,Objects\037a.jpg,99,0,100,,,,,,,None,,,f,1.2490281999926083,None,,,,100,0,99,477.77610479999566,,,,,,,,,,,,,,,,,,,,,,,477.7603101999848,477.77610479999566,478.27647300000535,478.2598495000275,,,,,,,,,,,,,,,,,,,,,,,,,,478.2628463000292,478.27647300000535,478.27647300000535,478.27647300000535,481.2761133000022,481.2761133000022,481.2761133000022,481.26022060000105,None,,,481.2602746000048,482.52658710000105,f,481.2761133000022,481.2761133000022,1.2490281999926083,None,,,,,,,,,,00051,001,2026-01-25_12h15.06.091,MST_task,2024.2.0,59.864108491313615,2026-01-25 12h16.10.509588 +0530,
,Objects\105a.jpg,100,0,101,,,,,,,f,1.1535005000187084,0.11221890000160784,None,,,,,,101,0,100,482.5429095000145,,,,,,,,,,,,,,,,,,,,,,,482.52670970000327,482.5429095000145,483.04321309999796,483.0264234999777,,,,,,,,,,,,,,,,,,,,,,,,,,483.0366939000087,483.04321309999796,483.04321309999796,483.04321309999796,486.0429313000059,486.0429313000059,486.0429313000059,486.0266726000118,f,1.1535005000187084,0.11221890000160784,486.026732600003,486.0267438000301,None,,,,,,,,,,,,,,00051,001,2026-01-25_12h15.06.091,MST_task,2024.2.0,59.864108491313615,2026-01-25 12h16.10.509588 +0530,
,Objects\151a.jpg,101,0,102,,,,,,,f,1.5176741000032052,0.11265409999759868,None,,,,,,102,0,101,486.0429313000059,,,,,,,,,,,,,,,,,,,,,,,486.02681070001563,486.0429313000059,486.5431388000143,486.5264571000007,,,,,,,,,,,,,,,,,,,,,,,,,,486.5289372000261,486.5431388000143,486.5431388000143,486.5431388000143,489.5429080000031,489.5429080000031,489.5429080000031,489.5265791999991,f,1.5176741000032052,0.11265409999759868,489.52663129998837,489.5266426000162,None,,,,,,,,,,,,,,00051,001,2026-01-25_12h15.06.091,MST_task,2024.2.0,59.864108491313615,2026-01-25 12h16.10.509588 +0530,
,Objects\189a.jpg,102,0,103,,,,,,,None,,,j,0.8263565000379458,None,,,,103,0,102,489.5429080000031,,,,,,,,,,,,,,,,,,,,,,,489.5267062999774,489.5429080000031,490.04311189998407,490.0263383000274,,,,,,,,,,,,,,,,,,,,,,,,,,490.0292037000181,490.04311189998407,490.04311189998407,490.04311189998407,493.04292079998413,493.04292079998413,493.04292079998413,493.0267149999854,None,,,493.0267695999937,493.87662980001187,j,493.04292079998413,493.04292079998413,0.8263565000379458,None,,,,,,,,,,00051,001,2026-01-25_12h15.06.091,MST_task,2024.2.0,59.864108491313615,2026-01-25 12h16.10.509588 +0530,
,Objects\065a.jpg,103,0,104,,,,,,,j,2.419712900009472,0.10397230001399294,None,,,,,,104,0,103,493.89293989998987,,,,,,,,,,,,,,,,,,,,,,,493.8767519000103,493.89293989998987,494.3931526999804,494.3763290999923,,,,,,,,,,,,,,,,,,,,,,,,,,494.38628680002876,494.3931526999804,494.3931526999804,494.3931526999804,497.3929447000264,497.3929447000264,497.3929447000264,497.3768237999757,j,2.419712900009472,0.10397230001399294,497.3768835000228,497.3768956999993,None,,,,,,,,,,,,,,00051,001,2026-01-25_12h15.06.091,MST_task,2024.2.0,59.864108491313615,2026-01-25 12h16.10.509588 +0530,
,Objects\174a.jpg,104,0,105,,,,,,,f,1.3925382000161335,0.13577739999163896,None,,,,,,105,0,104,497.3929447000264,,,,,,,,,,,,,,,,,,,,,,,497.3769958000048,497.3929447000264,497.8930819000234,497.87634529999923,,,,,,,,,,,,,,,,,,,,,,,,,,497.88052760000573,497.8930819000234,497.8930819000234,497.8930819000234,500.89292130002286,500.89292130002286,500.89292130002286,500.8765402000281,f,1.3925382000161335,0.13577739999163896,500.87659360002726,500.87660449999385,None,,,,,,,,,,,,,,00051,001,2026-01-25_12h15.06.091,MST_task,2024.2.0,59.864108491313615,2026-01-25 12h16.10.509588 +0530,
,Scenes\062a.jpg,105,0,106,,,,,,,j,1.0677813999936916,0.11196190002374351,None,,,,,,106,0,105,500.89292130002286,,,,,,,,,,,,,,,,,,,,,,,500.87668859999394,500.89292130002286,501.39335730002495,501.3763091000146,,,,,,,,,,,,,,,,,,,,,,,,,,501.387661100016,501.39335730002495,501.39335730002495,501.39335730002495,504.39297769998666,504.39297769998666,504.39297769998666,504.3768395999796,j,1.0677813999936916,0.11196190002374351,504.3768937999848,504.37690490001114,None,,,,,,,,,,,,,,00051,001,2026-01-25_12h15.06.091,MST_task,2024.2.0,59.864108491313615,2026-01-25 12h16.10.509588 +0530,
,Scenes\083a.jpg,106,0,107,,,,,,,j,0.9997787000029348,0.11194059997797012,None,,,,,,107,0,106,504.39297769998666,,,,,,,,,,,,,,,,,,,,,,,504.3769906000234,504.39297769998666,504.8931861000019,504.87641020002775,,,,,,,,,,,,,,,,,,,,,,,,,,504.88590829999885,504.8931861000019,504.8931861000019,504.8931861000019,507.8929269000073,507.8929269000073,507.8929269000073,507.87663040001644,j,0.9997787000029348,0.11194059997797012,507.8766854000278,507.87669609999284,None,,,,,,,,,,,,,,00051,001,2026-01-25_12h15.06.091,MST_task,2024.2.0,59.864108491313615,2026-01-25 12h16.10.509588 +0530,
,Scenes\165a.jpg,107,0,108,,,,,,,j,1.1242535000201315,0.12897209997754544,None,,,,,,108,0,107,507.8929269000073,,,,,,,,,,,,,,,,,,,,,,,507.87678589997813,507.8929269000073,508.39319059997797,508.37659800000256,,,,,,,,,,,,,,,,,,,,,,,,,,508.38647259998834,508.39319059997797,508.39319059997797,508.39319059997797,511.392899700033,511.392899700033,511.392899700033,511.37664819997735,j,1.1242535000201315,0.12897209997754544,511.3767033999902,511.3767146000173,None,,,,,,,,,,,,,,00051,001,2026-01-25_12h15.06.091,MST_task,2024.2.0,59.864108491313615,2026-01-25 12h16.10.509588 +0530,
,Scenes\166a.jpg,108,0,109,,,,,,,j,0.8306255999486893,0.12022490001982078,None,,,,,,109,0,108,511.392899700033,,,,,,,,,,,,,,,,,,,,,,,511.37678300001426,511.392899700033,511.8943847999908,511.87641590001294,,,,,,,,,,,,,,,,,,,,,,,,,,511.8917773999856,511.8943847999908,511.8943847999908,511.8943847999908,,,,514.8931690999889,j,0.8306255999486893,0.12022490001982078,514.8932213999797,514.8932327000075,None,,,,,,,,,,,,,,00051,001,2026-01-25_12h15.06.091,MST_task,2024.2.0,59.864108491313615,2026-01-25 12h16.10.509588 +0530,
,Scenes\160a.jpg,109,0,110,,,,,,,j,1.1870530999731272,0.14396930002840236,None,,,,,,110,0,109,514.9095678000012,,,,,,,,,,,,,,,,,,,,,,,514.8933006000007,514.9095678000012,515.4098673000117,515.3931067999802,,,,,,,,,,,,,,,,,,,,,,,,,,515.3993802000186,515.4098673000117,515.4098673000117,515.4098673000117,518.4095723999781,518.4095723999781,518.4095723999781,518.3934402000159,j,1.1870530999731272,0.14396930002840236,518.3934921000036,518.3935030000284,None,,,,,,,,,,,,,,00051,001,2026-01-25_12h15.06.091,MST_task,2024.2.0,59.864108491313615,2026-01-25 12h16.10.509588 +0530,
,Scenes\020a.jpg,110,0,111,,,,,,,f,1.310670700040646,0.11999949999153614,None,,,,,,111,0,110,518.4095723999781,,,,,,,,,,,,,,,,,,,,,,,518.39358730003,518.4095723999781,518.9101400999934,518.8931551999995,,,,,,,,,,,,,,,,,,,,,,,,,,518.9053111000103,518.9101400999934,518.9101400999934,518.9101400999934,521.9095826999983,521.9095826999983,521.9095826999983,521.8935561000253,f,1.310670700040646,0.11999949999153614,521.8936168000218,521.8936283999938,None,,,,,,,,,,,,,,00051,001,2026-01-25_12h15.06.091,MST_task,2024.2.0,59.864108491313615,2026-01-25 12h16.10.509588 +0530,
,Scenes\076a.jpg,111,0,112,,,,,,,j,0.9396682000369765,0.13461349997669458,None,,,,,,112,0,111,521.9095826999983,,,,,,,,,,,,,,,,,,,,,,,521.893718199979,521.9095826999983,522.4104823999805,522.3931628999999,,,,,,,,,,,,,,,,,,,,,,,,,,522.4072258999804,522.4104823999805,522.4104823999805,522.4104823999805,525.4096033999813,525.4096033999813,525.4096033999813,525.3934894999838,j,0.9396682000369765,0.13461349997669458,525.3935440999921,525.3935559000238,None,,,,,,,,,,,,,,00051,001,2026-01-25_12h15.06.091,MST_task,2024.2.0,59.864108491313615,2026-01-25 12h16.10.509588 +0530,
,Objects\011a.jpg,112,0,113,,,,,,,j,2.599545400007628,0.12718700000550598,None,,,,,,113,0,112,525.4096033999813,,,,,,,,,,,,,,,,,,,,,,,525.3936397000216,525.4096033999813,525.9101501000114,525.8930921999854,,,,,,,,,,,,,,,,,,,,,,,,,,525.9034781000228,525.9101501000114,525.9101501000114,525.9101501000114,528.9095609000069,528.9095609000069,528.9095609000069,528.8934442999889,j,2.599545400007628,0.12718700000550598,528.8934973999858,528.8935080000083,None,,,,,,,,,,,,,,00051,001,2026-01-25_12h15.06.091,MST_task,2024.2.0,59.864108491313615,2026-01-25 12h16.10.509588 +0530,
,Objects\115a.jpg,113,0,114,,,,,,,f,0.8435920000192709,0.11191689997212961,None,,,,,,114,0,113,528.9095609000069,,,,,,,,,,,,,,,,,,,,,,,528.8935741999885,528.9095609000069,529.4097212000052,529.3930602000328,,,,,,,,,,,,,,,,,,,,,,,,,,529.3955762999831,529.4097212000052,529.4097212000052,529.4097212000052,532.4095567999757,532.4095567999757,532.4095567999757,532.3933775000041,f,0.8435920000192709,0.11191689997212961,532.3934302999987,532.3934415000258,None,,,,,,,,,,,,,,00051,001,2026-01-25_12h15.06.091,MST_task,2024.2.0,59.864108491313615,2026-01-25 12h16.10.509588 +0530,
,Objects\058a.jpg,114,0,115,,,,,,,None,,,j,None,None,,,,115,0,114,532.4095567999757,,,,,,,,,,,,,,,,,,,,,,,532.393534599978,532.4095567999757,532.9098418999929,532.8932362999767,,,,,,,,,,,,,,,,,,,,,,,,,,532.8959695000085,532.9098418999929,532.9098418999929,532.9098418999929,535.909591100004,535.909591100004,535.909591100004,535.8933821999817,None,,,535.8934322000132,536.0433070000145,j,535.909591100004,535.909591100004,None,None,,,,,,,,,,00051,001,2026-01-25_12h15.06.091,MST_task,2024.2.0,59.864108491313615,2026-01-25 12h16.10.509588 +0530,
,Objects\175a.jpg,115,0,116,,,,,,,f,1.2224871999933384,0.15899939998053014,None,,,,,,116,0,115,536.0595530000282,,,,,,,,,,,,,,,,,,,,,,,536.0433914000168,536.0595530000282,536.5598357000272,536.5433444000082,,,,,,,,,,,,,,,,,,,,,,,,,,536.5471666000085,536.5598357000272,536.5598357000272,536.5598357000272,539.5595762000303,539.5595762000303,539.5595762000303,539.543400900031,f,1.2224871999933384,0.15899939998053014,539.5434543000301,539.5434657000005,None,,,,,,,,,,,,,,00051,001,2026-01-25_12h15.06.091,MST_task,2024.2.0,59.864108491313615,2026-01-25 12h16.10.509588 +0530,
,Objects\038a.jpg,116,0,117,,,,,,,f,1.6734060000162572,0.11213149997638538,None,,,,,,117,0,116,539.5595762000303,,,,,,,,,,,,,,,,,,,,,,,539.5435301000252,539.5595762000303,540.0597136000288,540.0430783000193,,,,,,,,,,,,,,,,,,,,,,,,,,540.0455269999802,540.0597136000288,540.0597136000288,540.0597136000288,543.0595513000153,543.0595513000153,543.0595513000153,543.043467200012,f,1.6734060000162572,0.11213149997638538,543.0435205000103,543.0435318999807,None,,,,,,,,,,,,,,00051,001,2026-01-25_12h15.06.091,MST_task,2024.2.0,59.864108491313615,2026-01-25 12h16.10.509588 +0530,
,Objects\168a.jpg,117,0,118,,,,,,,None,,,j,0.2618557999958284,None,,,,118,0,117,543.0595513000153,,,,,,,,,,,,,,,,,,,,,,,543.0436146000284,543.0595513000153,543.5597070999793,543.5431604000041,,,,,,,,,,,,,,,,,,,,,,,,,,543.5456581999897,543.5597070999793,543.5597070999793,543.5597070999793,546.5594928999781,546.5594928999781,546.5594928999781,546.5434258999885,None,,,546.5434741000063,546.8265506000025,j,546.5594928999781,546.5594928999781,0.2618557999958284,None,,,,,,,,,,00051,001,2026-01-25_12h15.06.091,MST_task,2024.2.0,59.864108491313615,2026-01-25 12h16.10.509588 +0530,
,Objects\158a.jpg,118,0,119,,,,,,,f,1.3663995999959297,0.11200690001714975,None,,,,,,119,0,118,546.8429347000201,,,,,,,,,,,,,,,,,,,,,,,546.8266678000218,546.8429347000201,547.3431449999916,547.3263462000177,,,,,,,,,,,,,,,,,,,,,,,,,,547.336555899994,547.3431449999916,547.3431449999916,547.3431449999916,550.3429447999806,550.3429447999806,550.3429447999806,550.3268561000004,f,1.3663995999959297,0.11200690001714975,550.326906799979,550.3269177000038,None,,,,,,,,,,,,,,00051,001,2026-01-25_12h15.06.091,MST_task,2024.2.0,59.864108491313615,2026-01-25 12h16.10.509588 +0530,
,Scenes\106a.jpg,119,0,120,,,,,,,j,0.9612861000350676,0.13637789996573702,None,,,,,,120,0,119,550.3429447999806,,,,,,,,,,,,,,,,,,,,,,,550.3270049000275,550.3429447999806,550.8435159000219,550.826619200001,,,,,,,,,,,,,,,,,,,,,,,,,,550.8371731999796,550.8435159000219,550.8435159000219,550.8435159000219,553.8429859000025,553.8429859000025,553.8429859000025,553.8267775999848,j,0.9612861000350676,0.13637789996573702,553.8268322999938,553.8268434000202,None,,,,,,,,,,,,,,00051,001,2026-01-25_12h15.06.091,MST_task,2024.2.0,59.864108491313615,2026-01-25 12h16.10.509588 +0530,
,Scenes\032a.jpg,120,0,121,,,,,,,j,2.093429400003515,0.12818300002254546,None,,,,,,121,0,120,553.8429859000025,,,,,,,,,,,,,,,,,,,,,,,553.8269266000134,553.8429859000025,554.3436761000194,554.3265716999886,,,,,,,,,,,,,,,,,,,,,,,,,,554.3393479000079,554.3436761000194,554.3436761000194,554.3436761000194,557.342937199981,557.342937199981,557.342937199981,557.3268762999796,j,2.093429400003515,0.12818300002254546,557.3269293999765,557.3269396999967,None,,,,,,,,,,,,,,00051,001,2026-01-25_12h15.06.091,MST_task,2024.2.0,59.864108491313615,2026-01-25 12h16.10.509588 +0530,
,Scenes\190a.jpg,121,0,122,,,,,,,j,0.9370444000232965,0.13599099998828024,None,,,,,,122,0,121,557.342937199981,,,,,,,,,,,,,,,,,,,,,,,557.3270034000161,557.342937199981,557.8436710999813,557.8265654999996,,,,,,,,,,,,,,,,,,,,,,,,,,557.8380502000218,557.8436710999813,557.8436710999813,557.8436710999813,560.8430014000041,560.8430014000041,560.8430014000041,560.8267359000165,j,0.9370444000232965,0.13599099998828024,560.8267898000195,560.8268005999853,None,,,,,,,,,,,,,,00051,001,2026-01-25_12h15.06.091,MST_task,2024.2.0,59.864108491313615,2026-01-25 12h16.10.509588 +0530,
,Scenes\038a.jpg,122,0,123,,,,,,,j,1.3634398000431247,0.14351269998587668,None,,,,,,123,0,122,560.8430014000041,,,,,,,,,,,,,,,,,,,,,,,560.8268663000199,560.8430014000041,561.3459349999903,561.3268562000012,,,,,,,,,,,,,,,,,,,,,,,,,,561.3429250000045,561.3459349999903,561.3459349999903,561.3459349999903,,,,564.3433051999891,j,1.3634398000431247,0.14351269998587668,564.3433890999877,564.3434015000239,None,,,,,,,,,,,,,,00051,001,2026-01-25_12h15.06.091,MST_task,2024.2.0,59.864108491313615,2026-01-25 12h16.10.509588 +0530,
,Scenes\154a.jpg,123,0,124,,,,,,,j,0.9931096999789588,0.14399160002358258,None,,,,,,124,0,123,564.3597146000247,,,,,,,,,,,,,,,,,,,,,,,564.3434926000191,564.3597146000247,564.8603204999818,564.8432205999852,,,,,,,,,,,,,,,,,,,,,,,,,,564.8494088000152,564.8603204999818,564.8603204999818,564.8603204999818,567.859674700012,567.859674700012,567.859674700012,567.8434724999825,j,0.9931096999789588,0.14399160002358258,567.8435306000174,567.8435421999893,None,,,,,,,,,,,,,,00051,001,2026-01-25_12h15.06.091,MST_task,2024.2.0,59.864108491313615,2026-01-25 12h16.10.509588 +0530,
,Scenes\088a.jpg,124,0,125,,,,,,,j,1.0695799000095576,0.14295989996753633,None,,,,,,125,0,124,567.859674700012,,,,,,,,,,,,,,,,,,,,,,,567.8436301000183,567.859674700012,568.3602907999884,568.3432374999975,,,,,,,,,,,,,,,,,,,,,,,,,,568.3565857000067,568.3602907999884,568.3602907999884,568.3602907999884,571.3596267999965,571.3596267999965,571.3596267999965,571.343522900017,j,1.0695799000095576,0.14295989996753633,571.343575100007,571.3435860000318,None,,,,,,,,,,,,,,00051,001,2026-01-25_12h15.06.091,MST_task,2024.2.0,59.864108491313615,2026-01-25 12h16.10.509588 +0530,
,Scenes\018a.jpg,125,0,126,,,,,,,f,1.2329535000026226,0.11992079997435212,None,,,,,,126,0,125,571.3596267999965,,,,,,,,,,,,,,,,,,,,,,,571.343670799979,571.3596267999965,571.8604053999879,571.8432041999768,,,,,,,,,,,,,,,,,,,,,,,,,,571.8490710000042,571.8604053999879,571.8604053999879,571.8604053999879,574.8596557999845,574.8596557999845,574.8596557999845,574.8434425999876,f,1.2329535000026226,0.11992079997435212,574.8434957999852,574.8435068000108,None,,,,,,,,,,,,,,00051,001,2026-01-25_12h15.06.091,MST_task,2024.2.0,59.864108491313615,2026-01-25 12h16.10.509588 +0530,
,Objects\155a.jpg,126,0,127,,,,,,,f,1.3818076000316069,0.09521900000981987,None,,,,,,127,0,126,574.8596557999845,,,,,,,,,,,,,,,,,,,,,,,574.8435730999918,574.8596557999845,575.3600136000314,575.343289899989,,,,,,,,,,,,,,,,,,,,,,,,,,575.3550326999975,575.3600136000314,575.3600136000314,575.3600136000314,578.3597218000214,578.3597218000214,578.3597218000214,578.3437795999926,f,1.3818076000316069,0.09521900000981987,578.3438433000119,578.3438544999808,None,,,,,,,,,,,,,,00051,001,2026-01-25_12h15.06.091,MST_task,2024.2.0,59.864108491313615,2026-01-25 12h16.10.509588 +0530,
,Objects\176a.jpg,127,0,128,,,,,,,j,0.8975328999804333,0.13591190002625808,None,,,,,,128,0,127,578.3597218000214,,,,,,,,,,,,,,,,,,,,,,,578.3439466999844,578.3597218000214,578.8598972000182,578.843241900031,,,,,,,,,,,,,,,,,,,,,,,,,,578.84600770002,578.8598972000182,578.8598972000182,578.8598972000182,581.8595901000081,581.8595901000081,581.8595901000081,581.8435220000101,j,0.8975328999804333,0.13591190002625808,581.8435722999857,581.8435829000082,None,,,,,,,,,,,,,,00051,001,2026-01-25_12h15.06.091,MST_task,2024.2.0,59.864108491313615,2026-01-25 12h16.10.509588 +0530,
,Objects\190a.jpg,128,0,129,,,,,,,j,1.4207377000129782,0.13648779998766258,None,,,,,,129,0,128,581.8595901000081,,,,,,,,,,,,,,,,,,,,,,,581.8436652999953,581.8595901000081,582.3599036000087,582.3432076000026,,,,,,,,,,,,,,,,,,,,,,,,,,582.3456244000117,582.3599036000087,582.3599036000087,582.3599036000087,585.359656399989,585.359656399989,585.359656399989,585.3435615000199,j,1.4207377000129782,0.13648779998766258,585.3436130000046,585.3436237000278,None,,,,,,,,,,,,,,00051,001,2026-01-25_12h15.06.091,MST_task,2024.2.0,59.864108491313615,2026-01-25 12h16.10.509588 +0530,
,Objects\126a.jpg,129,0,130,,,,,,,f,1.8889232000219636,0.1280345999985002,None,,,,,,130,0,129,585.359656399989,,,,,,,,,,,,,,,,,,,,,,,585.3436893000035,585.359656399989,585.8598808000097,585.8432163000107,,,,,,,,,,,,,,,,,,,,,,,,,,585.8459204999963,585.8598808000097,585.8598808000097,585.8598808000097,588.8595428999979,588.8595428999979,588.8595428999979,588.8434956999845,f,1.8889232000219636,0.1280345999985002,588.8435545000248,588.8435653999913,None,,,,,,,,,,,,,,00051,001,2026-01-25_12h15.06.091,MST_task,2024.2.0,59.864108491313615,2026-01-25 12h16.10.509588 +0530,
,Objects\143a.jpg,130,0,131,,,,,,,j,2.1729288999922574,0.1363755000056699,None,,,,,,131,0,130,588.8595428999979,,,,,,,,,,,,,,,,,,,,,,,588.8436316000298,588.8595428999979,589.3598810000112,589.343225300021,,,,,,,,,,,,,,,,,,,,,,,,,,589.3457977999933,589.3598810000112,589.3598810000112,589.3598810000112,592.3595811999985,592.3595811999985,592.3595811999985,592.3433720000321,j,2.1729288999922574,0.1363755000056699,592.3434276999906,592.3434386000154,None,,,,,,,,,,,,,,00051,001,2026-01-25_12h15.06.091,MST_task,2024.2.0,59.864108491313615,2026-01-25 12h16.10.509588 +0530,
,Objects\112a.jpg,131,0,132,,,,,,,f,0.7848588999477215,0.16794920002575964,None,,,,,,132,0,131,592.3595811999985,,,,,,,,,,,,,,,,,,,,,,,592.3435033999849,592.3595811999985,592.8598714999971,592.843210400024,,,,,,,,,,,,,,,,,,,,,,,,,,592.845780899981,592.8598714999971,592.8598714999971,592.8598714999971,595.8595820000046,595.8595820000046,595.8595820000046,595.8435242000269,f,0.7848588999477215,0.16794920002575964,595.8435769000207,595.843587899988,None,,,,,,,,,,,,,,00051,001,2026-01-25_12h15.06.091,MST_task,2024.2.0,59.864108491313615,2026-01-25 12h16.10.509588 +0530,
,Objects\148a.jpg,132,0,133,,,,,,,f,1.4049655999988317,0.12815609999233857,None,,,,,,133,0,132,595.8595820000046,,,,,,,,,,,,,,,,,,,,,,,595.843652200012,595.8595820000046,596.3598464999814,596.3432098000194,,,,,,,,,,,,,,,,,,,,,,,,,,596.3528594999807,596.3598464999814,596.3598464999814,596.3598464999814,599.3596283000079,599.3596283000079,599.3596283000079,599.3434705000254,f,1.4049655999988317,0.12815609999233857,599.3435254999786,599.3435366000049,None,,,,,,,,,,,,,,00051,001,2026-01-25_12h15.06.091,MST_task,2024.2.0,59.864108491313615,2026-01-25 12h16.10.509588 +0530,
,Scenes\066a.jpg,133,0,134,,,,,,,j,0.7453765000100248,0.11915290000615641,None,,,,,,134,0,133,599.3596283000079,,,,,,,,,,,,,,,,,,,,,,,599.3436022999813,599.3596283000079,599.8601303999894,599.8432563000242,,,,,,,,,,,,,,,,,,,,,,,,,,599.8478392999968,599.8601303999894,599.8601303999894,599.8601303999894,602.8595695000258,602.8595695000258,602.8595695000258,602.8438277000096,j,0.7453765000100248,0.11915290000615641,602.8438832000247,602.8438942999928,None,,,,,,,,,,,,,,00051,001,2026-01-25_12h15.06.091,MST_task,2024.2.0,59.864108491313615,2026-01-25 12h16.10.509588 +0530,
,Scenes\139a.jpg,134,0,135,,,,,,,j,1.7804559000069275,0.12000789999729022,None,,,,,,135,0,134,602.8595695000258,,,,,,,,,,,,,,,,,,,,,,,602.8439803000074,602.8595695000258,603.3600933999987,603.3433166000177,,,,,,,,,,,,,,,,,,,,,,,,,,603.3560336999944,603.3600933999987,603.3600933999987,603.3600933999987,606.3596347999992,606.3596347999992,606.3596347999992,606.3434300000081,j,1.7804559000069275,0.12000789999729022,606.3434818999958,606.3434933000244,None,,,,,,,,,,,,,,00051,001,2026-01-25_12h15.06.091,MST_task,2024.2.0,59.864108491313615,2026-01-25 12h16.10.509588 +0530,
,Scenes\089a.jpg,135,0,136,,,,,,,j,2.0653345999890007,0.13557919999584556,None,,,,,,136,0,135,606.3596347999992,,,,,,,,,,,,,,,,,,,,,,,606.3435790999793,606.3596347999992,606.8602870000177,606.8432414000272,,,,,,,,,,,,,,,,,,,,,,,,,,606.8552978999796,606.8602870000177,606.8602870000177,606.8602870000177,609.8595340999891,609.8595340999891,609.8595340999891,609.8433879999793,j,2.0653345999890007,0.13557919999584556,609.8434456000105,609.8434571999824,None,,,,,,,,,,,,,,00051,001,2026-01-25_12h15.06.091,MST_task,2024.2.0,59.864108491313615,2026-01-25 12h16.10.509588 +0530,
,Scenes\047a.jpg,136,0,137,,,,,,,j,1.0607592000160366,0.11309920001076534,None,,,,,,137,0,136,609.8595340999891,,,,,,,,,,,,,,,,,,,,,,,609.8435217000078,609.8595340999891,610.3601368999807,610.3431535999989,,,,,,,,,,,,,,,,,,,,,,,,,,610.3539703999995,610.3601368999807,610.3601368999807,610.3601368999807,613.3595518000075,613.3595518000075,613.3595518000075,613.3435187999858,j,1.0607592000160366,0.11309920001076534,613.3435890999972,613.3436006000265,None,,,,,,,,,,,,,,00051,001,2026-01-25_12h15.06.091,MST_task,2024.2.0,59.864108491313615,2026-01-25 12h16.10.509588 +0530,
,Scenes\104a.jpg,137,0,138,,,,,,,j,2.113482699962333,0.11135220003779978,None,,,,,,138,0,137,613.3595518000075,,,,,,,,,,,,,,,,,,,,,,,613.3436947999871,613.3595518000075,613.8598970000166,613.8431428999756,,,,,,,,,,,,,,,,,,,,,,,,,,613.8519132999936,613.8598970000166,613.8598970000166,613.8598970000166,616.859537500015,616.859537500015,616.859537500015,616.8434012000216,j,2.113482699962333,0.11135220003779978,616.8434536000132,616.8434644999797,None,,,,,,,,,,,,,,00051,001,2026-01-25_12h15.06.091,MST_task,2024.2.0,59.864108491313615,2026-01-25 12h16.10.509588 +0530,
,Scenes\075a.jpg,138,0,139,,,,,,,j,0.6530480000074022,0.14419500000076368,None,,,,,,139,0,138,616.859537500015,,,,,,,,,,,,,,,,,,,,,,,616.8435304000159,616.859537500015,617.3601277000271,617.3430804000236,,,,,,,,,,,,,,,,,,,,,,,,,,617.349427499983,617.3601277000271,617.3601277000271,617.3601277000271,620.3595376000158,620.3595376000158,620.3595376000158,620.3433740999899,j,0.6530480000074022,0.14419500000076368,620.3434261999791,620.3434373000055,None,,,,,,,,,,,,,,00051,001,2026-01-25_12h15.06.091,MST_task,2024.2.0,59.864108491313615,2026-01-25 12h16.10.509588 +0530,
,Scenes\051a.jpg,139,0,140,,,,,,,j,1.4816310000023805,0.1358081999933347,None,,,,,,140,0,139,620.3595376000158,,,,,,,,,,,,,,,,,,,,,,,620.3435231000185,620.3595376000158,620.8600673000328,620.843135299976,,,,,,,,,,,,,,,,,,,,,,,,,,620.8566073999973,620.8600673000328,620.8600673000328,620.8600673000328,623.8595536000212,623.8595536000212,623.8595536000212,623.8433619000134,j,1.4816310000023805,0.1358081999933347,623.8434128999943,623.8434240000206,None,,,,,,,,,,,,,,00051,001,2026-01-25_12h15.06.091,MST_task,2024.2.0,59.864108491313615,2026-01-25 12h16.10.509588 +0530,
,Objects\169a.jpg,140,0,141,,,,,,,j,2.037736500031315,0.1270587999606505,None,,,,,,141,0,140,623.8595536000212,,,,,,,,,,,,,,,,,,,,,,,623.8439084999845,623.8595536000212,624.360113999981,624.3430949000176,,,,,,,,,,,,,,,,,,,,,,,,,,624.3463767999783,624.360113999981,624.360113999981,624.360113999981,627.3595242000301,627.3595242000301,627.3595242000301,627.3433806999819,j,2.037736500031315,0.1270587999606505,627.3434326000279,627.3434429999907,None,,,,,,,,,,,,,,00051,001,2026-01-25_12h15.06.091,MST_task,2024.2.0,59.864108491313615,2026-01-25 12h16.10.509588 +0530,
,Objects\113a.jpg,141,0,142,,,,,,,j,0.8808898999704979,0.13612300000386313,None,,,,,,142,0,141,627.3595242000301,,,,,,,,,,,,,,,,,,,,,,,627.3435061000055,627.3595242000301,627.8598140000249,627.8431042000302,,,,,,,,,,,,,,,,,,,,,,,,,,627.8458963999874,627.8598140000249,627.8598140000249,627.8598140000249,630.8601166000008,630.8601166000008,630.8601166000008,630.8434224000084,j,0.8808898999704979,0.13612300000386313,630.8434760000091,630.8434872999787,None,,,,,,,,,,,,,,00051,001,2026-01-25_12h15.06.091,MST_task,2024.2.0,59.864108491313615,2026-01-25 12h16.10.509588 +0530,
,Objects\082a.jpg,142,0,143,,,,,,,j,0.8613270999630913,0.12801970000145957,None,,,,,,143,0,142,630.8601166000008,,,,,,,,,,,,,,,,,,,,,,,630.8435535000172,630.8601166000008,631.359697900014,631.3430915999925,,,,,,,,,,,,,,,,,,,,,,,,,,631.3458259000327,631.359697900014,631.359697900014,631.359697900014,634.3594576999894,634.3594576999894,634.3594576999894,634.3434114999836,j,0.8613270999630913,0.12801970000145957,634.3434633000288,634.3434738999931,None,,,,,,,,,,,,,,00051,001,2026-01-25_12h15.06.091,MST_task,2024.2.0,59.864108491313615,2026-01-25 12h16.10.509588 +0530,
,Objects\107a.jpg,143,0,144,,,,,,,f,2.305497399996966,0.11997930001234636,None,,,,,,144,0,143,634.3594576999894,,,,,,,,,,,,,,,,,,,,,,,634.343558099994,634.3594576999894,634.8597592000151,634.8430518999812,,,,,,,,,,,,,,,,,,,,,,,,,,634.8539873000118,634.8597592000151,634.8597592000151,634.8597592000151,637.8594881999888,637.8594881999888,637.8594881999888,637.8433921000105,f,2.305497399996966,0.11997930001234636,637.8434444000013,637.8434554000269,None,,,,,,,,,,,,,,00051,001,2026-01-25_12h15.06.091,MST_task,2024.2.0,59.864108491313615,2026-01-25 12h16.10.509588 +0530,
,Objects\015a.jpg,144,0,145,,,,,,,j,0.9183585999999195,0.11887860001297668,None,,,,,,145,0,144,637.8594881999888,,,,,,,,,,,,,,,,,,,,,,,637.8435428999946,637.8594881999888,638.3597278000088,638.3430859000073,,,,,,,,,,,,,,,,,,,,,,,,,,638.3460332999821,638.3597278000088,638.3597278000088,638.3597278000088,641.3595783999772,641.3595783999772,641.3595783999772,641.3435286000022,j,0.9183585999999195,0.11887860001297668,641.3435866999789,641.3435981000075,None,,,,,,,,,,,,,,00051,001,2026-01-25_12h15.06.091,MST_task,2024.2.0,59.864108491313615,2026-01-25 12h16.10.509588 +0530,
,Objects\101a.jpg,145,0,146,,,,,,,j,1.5295020999619737,0.11957480001728982,None,,,,,,146,0,145,641.3595783999772,,,,,,,,,,,,,,,,,,,,,,,641.3436868999852,641.3595783999772,641.8598211000208,641.8430493000196,,,,,,,,,,,,,,,,,,,,,,,,,,641.8525057000224,641.8598211000208,641.8598211000208,641.8598211000208,644.8595285000047,644.8595285000047,644.8595285000047,644.8433293999988,j,1.5295020999619737,0.11957480001728982,644.843383200001,644.843394400028,None,,,,,,,,,,,,,,00051,001,2026-01-25_12h15.06.091,MST_task,2024.2.0,59.864108491313615,2026-01-25 12h16.10.509588 +0530,
,Objects\044a.jpg,146,0,147,,,,,,,j,2.9091757999849506,None,None,,,,,,147,0,146,644.8595285000047,,,,,,,,,,,,,,,,,,,,,,,644.8434629000258,644.8595285000047,645.3597678000224,645.3431340000243,,,,,,,,,,,,,,,,,,,,,,,,,,645.3456998000038,645.3597678000224,645.3597678000224,645.3597678000224,648.3595259999856,648.3595259999856,648.3595259999856,648.3434035999817,j,2.9091757999849506,None,648.3434531000094,648.3434641999775,None,,,,,,,,,,,,,,00051,001,2026-01-25_12h15.06.091,MST_task,2024.2.0,59.864108491313615,2026-01-25 12h16.10.509588 +0530,
,Scenes\136a.jpg,147,0,148,,,,,,,j,0.8566504000336863,0.13599899999098852,None,,,,,,148,0,147,648.3595259999856,,,,,,,,,,,,,,,,,,,,,,,648.3435284000007,648.3595259999856,648.8600829999777,648.8431034000241,,,,,,,,,,,,,,,,,,,,,,,,,,648.8500079999794,648.8600829999777,648.8600829999777,648.8600829999777,651.8594599000062,651.8594599000062,651.8594599000062,651.8433879999793,j,0.8566504000336863,0.13599899999098852,651.8434401000268,651.8434508999926,None,,,,,,,,,,,,,,00051,001,2026-01-25_12h15.06.091,MST_task,2024.2.0,59.864108491313615,2026-01-25 12h16.10.509588 +0530,
,Scenes\068a.jpg,148,0,149,,,,,,,j,0.7010827000485733,0.12748119997559115,None,,,,,,149,0,148,651.8594599000062,,,,,,,,,,,,,,,,,,,,,,,651.8435347999912,651.8594599000062,652.3601308999932,652.343014699989,,,,,,,,,,,,,,,,,,,,,,,,,,652.3531360999914,652.3601308999932,652.3601308999932,652.3601308999932,655.3595173999784,655.3595173999784,655.3595173999784,655.3433199999854,j,0.7010827000485733,0.12748119997559115,655.3433726999792,655.3433835000033,None,,,,,,,,,,,,,,00051,001,2026-01-25_12h15.06.091,MST_task,2024.2.0,59.864108491313615,2026-01-25 12h16.10.509588 +0530,
,Scenes\091a.jpg,149,0,150,,,,,,,j,0.7931995000108145,0.1119703000294976,None,,,,,,150,0,149,655.3595173999784,,,,,,,,,,,,,,,,,,,,,,,655.3434689000132,655.3595173999784,655.8600367000327,655.8432116000331,,,,,,,,,,,,,,,,,,,,,,,,,,655.8488790999982,655.8600367000327,655.8600367000327,655.8600367000327,658.8595071000163,658.8595071000163,658.8595071000163,658.8433818999911,j,0.7931995000108145,0.1119703000294976,658.8434340999811,658.8434452000074,None,,,,,,,,,,,,,,00051,001,2026-01-25_12h15.06.091,MST_task,2024.2.0,59.864108491313615,2026-01-25 12h16.10.509588 +0530,
,Scenes\026a.jpg,150,0,151,,,,,,,j,0.7294508999912068,0.12807979999342933,None,,,,,,151,0,150,658.8595071000163,,,,,,,,,,,,,,,,,,,,,,,658.8435284000007,658.8595071000163,659.3645350000006,659.3430273000267,,,,,,,,,,,,,,,,,,,,,,,,,,659.3621256999904,659.3645350000006,659.3645350000006,659.3645350000006,,,,662.3597042000038,j,0.7294508999912068,0.12807979999342933,662.3597571999999,662.3597689000308,None,,,,,,,,,,,,,,00051,001,2026-01-25_12h15.06.091,MST_task,2024.2.0,59.864108491313615,2026-01-25 12h16.10.509588 +0530,
,Scenes\172a.jpg,151,0,152,,,,,,,j,1.0080422000028193,0.11999849998392165,None,,,,,,152,0,151,662.376056500012,,,,,,,,,,,,,,,,,,,,,,,662.3598343000049,662.376056500012,662.8767761000199,662.8596926000318,,,,,,,,,,,,,,,,,,,,,,,,,,662.8679813999915,662.8767761000199,662.8767761000199,662.8767761000199,665.8760291999788,665.8760291999788,665.8760291999788,665.8600507000228,j,1.0080422000028193,0.11999849998392165,665.8601132000331,665.8601246000035,None,,,,,,,,,,,,,,00051,001,2026-01-25_12h15.06.091,MST_task,2024.2.0,59.864108491313615,2026-01-25 12h16.10.509588 +0530,
,Scenes\103a.jpg,152,0,153,,,,,,,j,0.8368555000051856,0.12799269997049123,None,,,,,,153,0,152,665.8760291999788,,,,,,,,,,,,,,,,,,,,,,,665.8601920999936,665.8760291999788,666.3766465000226,666.3596971000079,,,,,,,,,,,,,,,,,,,,,,,,,,666.370490900008,666.3766465000226,666.3766465000226,666.3766465000226,669.3763280999847,669.3763280999847,669.3763280999847,669.3603358999826,j,0.8368555000051856,0.12799269997049123,669.360397099983,669.3604091000161,None,,,,,,,,,,,,,,00051,001,2026-01-25_12h15.06.091,MST_task,2024.2.0,59.864108491313615,2026-01-25 12h16.10.509588 +0530,
,Scenes\101a.jpg,153,0,154,,,,,,,j,0.6245224000304006,0.11999929999001324,None,,,,,,154,0,153,669.3763280999847,,,,,,,,,,,,,,,,,,,,,,,669.3604993000044,669.3763280999847,669.8768852999783,669.8598050000146,,,,,,,,,,,,,,,,,,,,,,,,,,669.8680719999829,669.8768852999783,669.8768852999783,669.8768852999783,672.8762094000122,672.8762094000122,672.8762094000122,672.8606615000172,j,0.6245224000304006,0.11999929999001324,672.8607258999837,672.8607378000161,None,,,,,,,,,,,,,,00051,001,2026-01-25_12h15.06.091,MST_task,2024.2.0,59.864108491313615,2026-01-25 12h16.10.509588 +0530,
,Objects\008a.jpg,154,0,155,,,,,,,f,1.5408144000102766,0.10312000004341826,None,,,,,,155,0,154,672.8762094000122,,,,,,,,,,,,,,,,,,,,,,,672.8608167999773,672.8762094000122,673.3767651999951,673.3598402999924,,,,,,,,,,,,,,,,,,,,,,,,,,673.3704523000051,673.3767651999951,673.3767651999951,673.3767651999951,676.3762308000005,676.3762308000005,676.3762308000005,676.3600941000041,f,1.5408144000102766,0.10312000004341826,676.3601513000322,676.3601622999995,None,,,,,,,,,,,,,,00051,001,2026-01-25_12h15.06.091,MST_task,2024.2.0,59.864108491313615,2026-01-25 12h16.10.509588 +0530,
,Objects\053a.jpg,155,0,156,,,,,,,None,,,f,0.13723890000255778,None,,,,156,0,155,676.3762308000005,,,,,,,,,,,,,,,,,,,,,,,676.360247500008,676.3762308000005,676.8764202999882,676.859729400021,,,,,,,,,,,,,,,,,,,,,,,,,,676.8625298999832,676.8764202999882,676.8764202999882,676.8764202999882,679.876218600024,679.876218600024,679.876218600024,679.8602883000276,None,,,679.8603438999853,680.0265912000323,f,679.876218600024,679.876218600024,0.13723890000255778,None,,,,,,,,,,00051,001,2026-01-25_12h15.06.091,MST_task,2024.2.0,59.864108491313615,2026-01-25 12h16.10.509588 +0530,
,Objects\104a.jpg,156,0,157,,,,,,,f,0.9178493999643251,0.10403099999530241,None,,,,,,157,0,156,680.0429173000157,,,,,,,,,,,,,,,,,,,,,,,680.0267063999781,680.0429173000157,680.5431294000009,680.5264347000048,,,,,,,,,,,,,,,,,,,,,,,,,,680.5290087999892,680.5431294000009,680.5431294000009,680.5431294000009,683.542942500033,683.542942500033,683.542942500033,683.5267350000213,f,0.9178493999643251,0.10403099999530241,683.5267859000014,683.52679730003,None,,,,,,,,,,,,,,00051,001,2026-01-25_12h15.06.091,MST_task,2024.2.0,59.864108491313615,2026-01-25 12h16.10.509588 +0530,
,Objects\129a.jpg,157,0,158,,,,,,,None,,,f,None,None,,,,158,0,157,683.542942500033,,,,,,,,,,,,,,,,,,,,,,,683.5268870000145,683.542942500033,684.0431603000034,684.0264832000248,,,,,,,,,,,,,,,,,,,,,,,,,,684.0291072999826,684.0431603000034,684.0431603000034,684.0431603000034,687.0428752999869,687.0428752999869,687.0428752999869,687.0266955000116,None,,,687.0267525999807,687.1432966000284,f,687.0428752999869,687.0428752999869,None,None,,,,,,,,,,00051,001,2026-01-25_12h15.06.091,MST_task,2024.2.0,59.864108491313615,2026-01-25 12h16.10.509588 +0530,
,Objects\033a.jpg,158,0,159,,,,,,,None,,,j,1.2490781000233255,None,,,,159,0,158,687.1596266999841,,,,,,,,,,,,,,,,,,,,,,,687.1434271999751,687.1596266999841,687.6598313000286,687.6431311999913,,,,,,,,,,,,,,,,,,,,,,,,,,687.6524704999756,687.6598313000286,687.6598313000286,687.6598313000286,690.6595989000052,690.6595989000052,690.6595989000052,690.6433638000162,None,,,690.6434124999796,691.9101176999975,j,690.6595989000052,690.6595989000052,1.2490781000233255,None,,,,,,,,,,00051,001,2026-01-25_12h15.06.091,MST_task,2024.2.0,59.864108491313615,2026-01-25 12h16.10.509588 +0530,
