Sl_no,image_path,thisN,thisTrialN,thisRepN,key_resp_5.keys,key_resp_5.rt,key_resp_5.duration,key_resp_7.keys,key_resp_7.rt,key_resp_7.duration,key_resp_9.keys,key_resp_8.keys,key_resp_8.rt,key_resp_8.duration,key_resp_9.rt,key_resp_9.duration,practice.thisRepN,practice.thisTrialN,practice.thisN,trials.thisRepN,trials.thisTrialN,trials.thisN,thisRow.t,notes,welcome_page.started,text.started,key_resp.started,welcome_page.stopped,key_resp.keys,key_resp.rt,key_resp.duration,instructions.started,ins.started,key_resp_2.started,instructions.stopped,key_resp_2.keys,key_resp_2.rt,key_resp_2.duration,objects_only_instruction.started,text_3.started,key_resp_3.started,objects_only_instruction.stopped,key_resp_3.keys,key_resp_3.rt,key_resp_3.duration,ISI.started,text_4.started,ISI.stopped,practice_block.started,image.started,text_5.started,key_resp_5.started,practice_block.stopped,practice.key_resp_5.keys,practice.key_resp_5.rt,practice.key_resp_5.duration,indoor_outdoor.started,indoor_outdoor.stopped,practice.key_resp_7.keys,text_4.stopped,image.stopped,text_5.stopped,key_resp_5.stopped,text_7.started,key_resp_7.started,practice.key_resp_7.rt,practice.key_resp_7.duration,practice_to_main.started,text_2.started,key_resp_4.started,practice_to_main.stopped,key_resp_4.keys,key_resp_4.rt,key_resp_4.duration,objects.started,image_2.started,text_9.started,key_resp_9.started,objects.stopped,trials.key_resp_9.keys,encoding_task.started,text_8.started,key_resp_8.started,encoding_task.stopped,trials.key_resp_8.keys,trials.key_resp_8.rt,trials.key_resp_8.duration,image_2.stopped,text_9.stopped,key_resp_9.stopped,trials.key_resp_9.rt,trials.key_resp_9.duration,end_experiment.started,text_6.started,key_resp_6.started,end_experiment.stopped,key_resp_6.keys,key_resp_6.rt,key_resp_6.duration,list_of_stimuli,encoding_task_accuracy,participant,session,date,expName,psychopyVersion,frameRate,expStart,
,,,,,,,,,,,,,,,,,,,,,,,,,0.0011746999807655811,0.0029289000085555017,0.0029289000085555017,7.854677999974228,space,7.802217899996322,None,,,,,,,,,,,,,,,,,,,,,,,,,,,,,,,,,,,,,,,,,,,,,,,,,,,,,,,,,,,,,,,,,,,,,,,00054,001,2026-01-25_17h08.49.872,MST_task,2024.2.0,59.95886822428647,2026-01-25 17h09.14.257002 +0530,
,,,,,,,,,,,,,,,,,,,,,,,,,,,,,,,,7.854718899994623,7.866716199961957,7.866716199961957,35.16207169997506,space,27.28183849999914,None,,,,,,,,,,,,,,,,,,,,,,,,,,,,,,,,,,,,,,,,,,,,,,,,,,,,,,,,,,,,,,,,00054,001,2026-01-25_17h08.49.872,MST_task,2024.2.0,59.95886822428647,2026-01-25 17h09.14.257002 +0530,
,,,,,,,,,,,,,,,,,,,,,,,,,,,,,,,,,,,,,,,35.16210279997904,35.17818389995955,35.17818389995955,47.961918199958745,space,12.77079139999114,None,,,,,,,,,,,,,,,,,,,,,,,,,,,,,,,,,,,,,,,,,,,,,,,,,,,,,,,,,00054,001,2026-01-25_17h08.49.872,MST_task,2024.2.0,59.95886822428647,2026-01-25 17h09.14.257002 +0530,
9,practice_images/180a.jpg,0,0,1,f,2.158177200006321,0.08816859999205917,None,,,,,,,,,1,0,0,,,,47.98203369998373,,,,,,,,,,,,,,,,,,,,,,,47.98006659996463,47.98203369998373,48.478295999986585,48.49168859998463,48.50220479996642,48.50220479996642,48.50220479996642,51.47851719998289,f,2.158177200006321,0.08816859999205917,51.4801618999918,51.480183199979365,None,,,,,,,,,,,,,,,,,,,,,,,,,,,,,,,,,,,,,,,,,,,00054,001,2026-01-25_17h08.49.872,MST_task,2024.2.0,59.95886822428647,2026-01-25 17h09.14.257002 +0530,
2,practice_images/031a.jpg,1,1,1,f,1.2094777000020258,0.09600059996591881,None,,,,,,,,,1,1,1,,,,51.49482530000387,,,,,,,,,,,,,,,,,,,,,,,51.48025179997785,51.49482530000387,51.97855309996521,51.986399699992035,51.99512019997928,51.99512019997928,51.99512019997928,54.97862119995989,f,1.2094777000020258,0.09600059996591881,54.97867250000127,54.97868549998384,None,51.99512019997928,54.994909000000916,54.994909000000916,54.994909000000916,,,,,,,,,,,,,,,,,,,,,,,,,,,,,,,,,,,,,,,00054,001,2026-01-25_17h08.49.872,MST_task,2024.2.0,59.95886822428647,2026-01-25 17h09.14.257002 +0530,
6,practice_images/158a.jpg,2,2,1,j,2.029677399958018,0.07999570004176348,None,,,,,,,,,1,2,2,,,,54.994909000000916,,,,,,,,,,,,,,,,,,,,,,,54.97874990000855,54.994909000000916,55.47847929998534,55.486262599995825,55.49514779995661,55.49514779995661,55.49514779995661,58.478604200005066,j,2.029677399958018,0.07999570004176348,58.47865999996429,58.47867350000888,None,55.49514779995661,58.494762999995146,58.494762999995146,58.494762999995146,,,,,,,,,,,,,,,,,,,,,,,,,,,,,,,,,,,,,,,00054,001,2026-01-25_17h08.49.872,MST_task,2024.2.0,59.95886822428647,2026-01-25 17h09.14.257002 +0530,
4,practice_images/002b.jpg,3,3,1,j,2.8815589000005275,0.07199850003235042,None,,,,,,,,,1,3,3,,,,58.494762999995146,,,,,,,,,,,,,,,,,,,,,,,58.47874970000703,58.494762999995146,58.97856799996225,58.986439000000246,58.995123800006695,58.995123800006695,58.995123800006695,61.978697199956514,j,2.8815589000005275,0.07199850003235042,61.97875249997014,61.97876520000864,None,58.995123800006695,61.994810900010634,61.994810900010634,61.994810900010634,,,,,,,,,,,,,,,,,,,,,,,,,,,,,,,,,,,,,,,00054,001,2026-01-25_17h08.49.872,MST_task,2024.2.0,59.95886822428647,2026-01-25 17h09.14.257002 +0530,
1,practice_images/013a.jpg,4,4,1,None,,,f,0.04656950000207871,None,,,,,,,1,4,4,,,,61.994810900010634,,,,,,,,,,,,,,,,,,,,,,,61.978827699960675,61.994810900010634,62.47852659999626,62.48640140000498,62.495107499998994,62.495107499998994,62.495107499998994,65.4784956999938,None,,,65.47854310000548,65.54512139997678,f,62.495107499998994,65.49460819998058,65.49460819998058,65.49460819998058,65.49460819998058,65.49460819998058,0.04656950000207871,None,,,,,,,,,,,,,,,,,,,,,,,,,,,,,,,,,,,00054,001,2026-01-25_17h08.49.872,MST_task,2024.2.0,59.95886822428647,2026-01-25 17h09.14.257002 +0530,
5,practice_images/139a.jpg,5,5,1,j,2.694530400040094,0.055932799994479865,None,,,,,,,,,1,5,5,,,,65.5614717999706,,,,,,,,,,,,,,,,,,,,,,,65.54520289995708,65.5614717999706,66.04497270000866,66.05275059997803,66.06166449998273,66.06166449998273,66.06166449998273,69.04527169995708,j,2.694530400040094,0.055932799994479865,69.04532400000608,69.04533829999855,None,66.06166449998273,69.06142889999319,69.06142889999319,69.06142889999319,,,,,,,,,,,,,,,,,,,,,,,,,,,,,,,,,,,,,,,00054,001,2026-01-25_17h08.49.872,MST_task,2024.2.0,59.95886822428647,2026-01-25 17h09.14.257002 +0530,
7,practice_images/166a.jpg,6,6,1,f,2.7632767999893986,0.07997230003820732,None,,,,,,,,,1,6,6,,,,69.06142889999319,,,,,,,,,,,,,,,,,,,,,,,69.04540040000575,69.06142889999319,69.54502349998802,69.55293700000038,69.56166339997435,69.56166339997435,69.56166339997435,72.5450832999777,f,2.7632767999893986,0.07997230003820732,72.5451386999921,72.54515209997771,None,69.56166339997435,72.56149629998254,72.56149629998254,72.56149629998254,,,,,,,,,,,,,,,,,,,,,,,,,,,,,,,,,,,,,,,00054,001,2026-01-25_17h08.49.872,MST_task,2024.2.0,59.95886822428647,2026-01-25 17h09.14.257002 +0530,
3,practice_images/037a.jpg,7,7,1,None,,,f,5.343286599963903,None,,,,,,,1,7,7,,,,72.56149629998254,,,,,,,,,,,,,,,,,,,,,,,72.54521359998034,72.56149629998254,73.04519139998592,73.05282410001382,73.06177609995939,73.06177609995939,73.06177609995939,76.04503189999377,None,,,76.04507799999556,81.41193830000702,f,73.06177609995939,76.06150429998524,76.06150429998524,76.06150429998524,76.06150429998524,76.06150429998524,5.343286599963903,None,,,,,,,,,,,,,,,,,,,,,,,,,,,,,,,,,,,00054,001,2026-01-25_17h08.49.872,MST_task,2024.2.0,59.95886822428647,2026-01-25 17h09.14.257002 +0530,
10,practice_images/182a.jpg,8,8,1,f,1.2126808000029996,0.11208389996318147,None,,,,,,,,,1,8,8,,,,81.42815019999398,,,,,,,,,,,,,,,,,,,,,,,81.41202170000179,81.42815019999398,81.91175109997857,81.91971599997487,81.92838070000289,81.92838070000289,81.92838070000289,84.91196349996608,f,1.2126808000029996,0.11208389996318147,84.91202150000026,84.91203489998588,None,81.92838070000289,84.9281552999746,84.9281552999746,84.9281552999746,,,,,,,,,,,,,,,,,,,,,,,,,,,,,,,,,,,,,,,00054,001,2026-01-25_17h08.49.872,MST_task,2024.2.0,59.95886822428647,2026-01-25 17h09.14.257002 +0530,
8,practice_images/178a.jpg,9,9,1,j,2.2883524000062607,0.08809269999619573,None,,,,,,,,,1,9,9,,,,84.9281552999746,,,,,,,,,,,,,,,,,,,,,,,84.91209890000755,84.9281552999746,85.4119248999632,85.42030820000218,85.42832899995847,85.42832899995847,85.42832899995847,88.41188490000786,j,2.2883524000062607,0.08809269999619573,88.41193479998037,88.41194719995838,None,85.42832899995847,88.4282031999901,88.4282031999901,88.4282031999901,,,,,,,,,,,,,,,,,,,,,,,,,,,,,,,,,,,,,,,00054,001,2026-01-25_17h08.49.872,MST_task,2024.2.0,59.95886822428647,2026-01-25 17h09.14.257002 +0530,
,,,,,,,,,,,,,,,,,,,,,,,,,,,,,,,,,,,,,,,,,,,,,,,,,,,,,,,,,,,,,,,,,,,,88.41199389996473,88.4282031999901,88.4282031999901,144.39545109996106,space,55.952022599987686,None,,,,,,,,,,,,,,,,,,,,,,,,,,,,00054,001,2026-01-25_17h08.49.872,MST_task,2024.2.0,59.95886822428647,2026-01-25 17h09.14.257002 +0530,
,Scenes\112a.jpg,0,0,1,,,,,,,None,j,0.267901899991557,None,,,,,,1,0,0,144.41148780001095,,,,,,,,,,,,,,,,,,,,,,,144.39609589998145,144.41148780001095,144.89513499999885,,,,,,,,,,,,144.91971499996725,,,,,,,,,,,,,,,144.91495979996398,144.91971499996725,144.91971499996725,144.91971499996725,147.91177090001293,None,147.91341729997657,147.92826409998816,147.92826409998816,148.21196109999437,j,0.267901899991557,None,,,,,,,,,,,,,,,00054,001,2026-01-25_17h08.49.872,MST_task,2024.2.0,59.95886822428647,2026-01-25 17h09.14.257002 +0530,
,Scenes\101a.jpg,1,0,2,,,,,,,None,j,0.027244800003245473,None,,,,,,2,0,1,148.22825139999622,,,,,,,,,,,,,,,,,,,,,,,148.21205349999946,148.22825139999622,148.71178519999376,,,,,,,,,,,,148.7299975999631,,,,,,,,,,,,,,,148.72744330001296,148.7299975999631,148.7299975999631,148.7299975999631,151.72841360000893,None,151.7284667000058,151.7448771999916,151.7448771999916,151.77858059998835,j,0.027244800003245473,None,,,,,,,,,,,,,,,00054,001,2026-01-25_17h08.49.872,MST_task,2024.2.0,59.95886822428647,2026-01-25 17h09.14.257002 +0530,
,Scenes\185a.jpg,2,0,3,,,,,,,j,None,,,2.437941599986516,0.08001500001410022,,,,3,0,2,151.79489329998614,,,,,,,,,,,,,,,,,,,,,,,151.77866489998996,151.79489329998614,152.27843549998943,,,,,,,,,,,,152.2954008000088,,,,,,,,,,,,,,,152.29302380001172,152.2954008000088,152.2954008000088,152.2954008000088,155.27873689995613,j,155.278792099969,,,155.27880410000216,None,,,155.29468599997927,155.29468599997927,155.29468599997927,2.437941599986516,0.08001500001410022,,,,,,,,,,00054,001,2026-01-25_17h08.49.872,MST_task,2024.2.0,59.95886822428647,2026-01-25 17h09.14.257002 +0530,
,Scenes\079a.jpg,3,0,4,,,,,,,j,None,,,1.361146799987182,0.11954800004605204,,,,4,0,3,155.29468599997927,,,,,,,,,,,,,,,,,,,,,,,155.2788701999816,155.29468599997927,155.7783273999812,,,,,,,,,,,,155.79541329998756,,,,,,,,,,,,,,,155.79035719996318,155.79541329998756,155.79541329998756,155.79541329998756,158.7786422999925,j,158.77870009996695,,,158.7787127000047,None,,,158.7947471999796,158.7947471999796,158.7947471999796,1.361146799987182,0.11954800004605204,,,,,,,,,,00054,001,2026-01-25_17h08.49.872,MST_task,2024.2.0,59.95886822428647,2026-01-25 17h09.14.257002 +0530,
,Scenes\069a.jpg,4,0,5,,,,,,,j,None,,,1.717269100015983,0.12784540001302958,,,,5,0,4,158.7947471999796,,,,,,,,,,,,,,,,,,,,,,,158.77879199996823,158.7947471999796,159.278429900005,,,,,,,,,,,,159.29539290000685,,,,,,,,,,,,,,,159.29080419999082,159.29539290000685,159.29539290000685,159.29539290000685,162.27872989996104,j,162.27878519997466,,,162.27879670000402,None,,,162.2947497999994,162.2947497999994,162.2947497999994,1.717269100015983,0.12784540001302958,,,,,,,,,,00054,001,2026-01-25_17h08.49.872,MST_task,2024.2.0,59.95886822428647,2026-01-25 17h09.14.257002 +0530,
,Scenes\116a.jpg,5,0,6,,,,,,,j,None,,,0.9373962999670766,0.12026850000256673,,,,6,0,5,162.2947497999994,,,,,,,,,,,,,,,,,,,,,,,162.2788811000064,162.2947497999994,162.77836120000575,,,,,,,,,,,,162.79533890000312,,,,,,,,,,,,,,,162.79061129997717,162.79533890000312,162.79533890000312,162.79533890000312,165.7792019000044,j,165.77927870000713,,,165.77929149998818,None,,,165.79479359998368,165.79479359998368,165.79479359998368,0.9373962999670766,0.12026850000256673,,,,,,,,,,00054,001,2026-01-25_17h08.49.872,MST_task,2024.2.0,59.95886822428647,2026-01-25 17h09.14.257002 +0530,
,Scenes\095a.jpg,6,0,7,,,,,,,None,f,0.18937649996951222,None,,,,,,7,0,6,165.79479359998368,,,,,,,,,,,,,,,,,,,,,,,165.77938969997922,165.79479359998368,166.27844560000813,,,,,,,,,,,,166.29536990000634,,,,,,,,,,,,,,,166.2920341999852,166.29536990000634,166.29536990000634,166.29536990000634,169.27867699996568,None,169.27872800000478,169.29477139998926,169.29477139998926,169.49512959999265,f,0.18937649996951222,None,169.29477139998926,169.29477139998926,169.29477139998926,,,,,,,,,,,,00054,001,2026-01-25_17h08.49.872,MST_task,2024.2.0,59.95886822428647,2026-01-25 17h09.14.257002 +0530,
,Objects\102a.jpg,7,0,8,,,,,,,f,None,,,1.3951643999898806,0.10398100002203137,,,,8,0,7,169.51139279996278,,,,,,,,,,,,,,,,,,,,,,,169.4952837000019,169.51139279996278,169.99521630001254,,,,,,,,,,,,170.01717149995966,,,,,,,,,,,,,,,170.01477399998112,170.01717149995966,170.01717149995966,170.01717149995966,173.01167739997618,f,173.0117360999575,,,173.01174889999675,None,,,,,,1.3951643999898806,0.10398100002203137,,,,,,,,,,00054,001,2026-01-25_17h08.49.872,MST_task,2024.2.0,59.95886822428647,2026-01-25 17h09.14.257002 +0530,
,Objects\051a.jpg,8,0,9,,,,,,,None,f,0.5565821999916807,None,,,,,,9,0,8,173.02809549996164,,,,,,,,,,,,,,,,,,,,,,,173.01181980001274,173.02809549996164,173.5116837999667,,,,,,,,,,,,173.52836249995744,,,,,,,,,,,,,,,173.52069929998834,173.52836249995744,173.52836249995744,173.52836249995744,176.5119678999763,None,176.512019399961,176.52814379998017,176.52814379998017,177.09508870000718,f,0.5565821999916807,None,176.52814379998017,176.52814379998017,176.52814379998017,,,,,,,,,,,,00054,001,2026-01-25_17h08.49.872,MST_task,2024.2.0,59.95886822428647,2026-01-25 17h09.14.257002 +0530,
,Objects\167a.jpg,9,0,10,,,,,,,f,None,,,1.9376123999827541,0.10298540000803769,,,,10,0,9,177.1114690999966,,,,,,,,,,,,,,,,,,,,,,,177.09517619997496,177.1114690999966,177.59505199996056,,,,,,,,,,,,177.61169589997735,,,,,,,,,,,,,,,177.60412629996426,177.61169589997735,177.61169589997735,177.61169589997735,180.59528720000526,f,180.59534389997134,,,180.59535600000527,None,,,180.6115759999957,180.6115759999957,180.6115759999957,1.9376123999827541,0.10298540000803769,,,,,,,,,,00054,001,2026-01-25_17h08.49.872,MST_task,2024.2.0,59.95886822428647,2026-01-25 17h09.14.257002 +0530,
,Objects\067a.jpg,10,0,11,,,,,,,None,f,2.7331532000098377,None,,,,,,11,0,10,180.6115759999957,,,,,,,,,,,,,,,,,,,,,,,180.59547329996713,180.6115759999957,181.0949113999959,,,,,,,,,,,,181.11173419997795,,,,,,,,,,,,,,,181.1038411000045,181.11173419997795,181.11173419997795,181.11173419997795,184.09532879997278,None,184.0953819999704,184.1114812999731,184.1114812999731,186.84530479996465,f,2.7331532000098377,None,184.1114812999731,184.1114812999731,184.1114812999731,,,,,,,,,,,,00054,001,2026-01-25_17h08.49.872,MST_task,2024.2.0,59.95886822428647,2026-01-25 17h09.14.257002 +0530,
,Objects\072a.jpg,11,0,12,,,,,,,f,None,,,2.3311157999560237,0.10400470002787188,,,,12,0,11,186.8614429999725,,,,,,,,,,,,,,,,,,,,,,,186.8453915999853,186.8614429999725,187.34497549996013,,,,,,,,,,,,187.3618183999788,,,,,,,,,,,,,,,187.35453259997303,187.3618183999788,187.3618183999788,187.3618183999788,190.3452836999786,f,190.3453418999561,,,190.34535389998928,None,,,190.36140250001336,190.36140250001336,190.36140250001336,2.3311157999560237,0.10400470002787188,,,,,,,,,,00054,001,2026-01-25_17h08.49.872,MST_task,2024.2.0,59.95886822428647,2026-01-25 17h09.14.257002 +0530,
,Objects\034a.jpg,12,0,13,,,,,,,f,None,,,1.870328699995298,0.10515079996548593,,,,13,0,12,190.36140250001336,,,,,,,,,,,,,,,,,,,,,,,190.34547110000858,190.36140250001336,190.84487530001206,,,,,,,,,,,,190.86182270001154,,,,,,,,,,,,,,,190.85398089996306,190.86182270001154,190.86182270001154,190.86182270001154,193.84530869999435,f,193.8453654999612,,,193.84537699999055,None,,,193.86145209998358,193.86145209998358,193.86145209998358,1.870328699995298,0.10515079996548593,,,,,,,,,,00054,001,2026-01-25_17h08.49.872,MST_task,2024.2.0,59.95886822428647,2026-01-25 17h09.14.257002 +0530,
,Objects\110a.jpg,13,0,14,,,,,,,None,f,1.8426734000095166,None,,,,,,14,0,13,193.86145209998358,,,,,,,,,,,,,,,,,,,,,,,193.8454606999876,193.86145209998358,194.3449799999944,,,,,,,,,,,,194.36168450000696,,,,,,,,,,,,,,,194.3541186999646,194.36168450000696,194.36168450000696,194.36168450000696,197.34513319999678,None,197.34518219996244,197.36144859995693,197.36144859995693,199.2119521999848,f,1.8426734000095166,None,197.36144859995693,197.36144859995693,197.36144859995693,,,,,,,,,,,,00054,001,2026-01-25_17h08.49.872,MST_task,2024.2.0,59.95886822428647,2026-01-25 17h09.14.257002 +0530,
,Scenes\105a.jpg,14,0,15,,,,,,,j,None,,,2.880595800001174,None,,,,15,0,14,199.22804979997454,,,,,,,,,,,,,,,,,,,,,,,199.21203930000775,199.22804979997454,199.71176039997954,,,,,,,,,,,,199.73168099997565,,,,,,,,,,,,,,,199.72944530000677,199.73168099997565,199.73168099997565,199.73168099997565,202.72837809997145,j,202.7284338999889,,,202.72844639996765,None,,,,,,2.880595800001174,None,,,,,,,,,,00054,001,2026-01-25_17h08.49.872,MST_task,2024.2.0,59.95886822428647,2026-01-25 17h09.14.257002 +0530,
,Scenes\157a.jpg,15,0,16,,,,,,,j,None,,,2.0546885000076145,0.13688629999523982,,,,16,0,15,202.74469849996967,,,,,,,,,,,,,,,,,,,,,,,202.72853299998678,202.74469849996967,203.2285085999756,,,,,,,,,,,,203.24544480000623,,,,,,,,,,,,,,,203.24303929996677,203.24544480000623,203.24544480000623,203.24544480000623,206.22867229999974,j,206.22874629998114,,,206.2287578000105,None,,,206.24462149996543,206.24462149996543,206.24462149996543,2.0546885000076145,0.13688629999523982,,,,,,,,,,00054,001,2026-01-25_17h08.49.872,MST_task,2024.2.0,59.95886822428647,2026-01-25 17h09.14.257002 +0530,
,Scenes\011a.jpg,16,0,17,,,,,,,j,None,,,1.3283951000194065,0.14268509997054935,,,,17,0,16,206.24462149996543,,,,,,,,,,,,,,,,,,,,,,,206.22885009995662,206.24462149996543,206.7283599000075,,,,,,,,,,,,206.74908119998872,,,,,,,,,,,,,,,206.74667009996483,206.74908119998872,206.74908119998872,206.74908119998872,209.74493049999,j,209.74499139998807,,,209.74500459997216,None,,,,,,1.3283951000194065,0.14268509997054935,,,,,,,,,,00054,001,2026-01-25_17h08.49.872,MST_task,2024.2.0,59.95886822428647,2026-01-25 17h09.14.257002 +0530,
,Scenes\183a.jpg,17,0,18,,,,,,,f,None,,,1.9408765999833122,0.10510200000135228,,,,18,0,17,209.76138659997378,,,,,,,,,,,,,,,,,,,,,,,209.7450935000088,209.76138659997378,210.24499039998045,,,,,,,,,,,,210.263421199983,,,,,,,,,,,,,,,210.26115460001165,210.263421199983,210.263421199983,210.263421199983,213.2617665999569,f,213.26185319997603,,,213.2618666999624,None,,,,,,1.9408765999833122,0.10510200000135228,,,,,,,,,,00054,001,2026-01-25_17h08.49.872,MST_task,2024.2.0,59.95886822428647,2026-01-25 17h09.14.257002 +0530,
,Scenes\182a.jpg,18,0,19,,,,,,,j,None,,,2.1375234000151977,0.10501619998831302,,,,19,0,18,213.27819639997324,,,,,,,,,,,,,,,,,,,,,,,213.26196199998958,213.27819639997324,213.76173359999666,,,,,,,,,,,,213.77859900001204,,,,,,,,,,,,,,,213.77512030000798,213.77859900001204,213.77859900001204,213.77859900001204,216.76201299997047,j,216.76207259995863,,,216.76208449999103,None,,,216.77804110001307,216.77804110001307,216.77804110001307,2.1375234000151977,0.10501619998831302,,,,,,,,,,00054,001,2026-01-25_17h08.49.872,MST_task,2024.2.0,59.95886822428647,2026-01-25 17h09.14.257002 +0530,
,Scenes\075a.jpg,19,0,20,,,,,,,j,None,,,1.0057465000427328,0.1291143999551423,,,,20,0,19,216.77804110001307,,,,,,,,,,,,,,,,,,,,,,,216.76215119997505,216.77804110001307,217.2617210999597,,,,,,,,,,,,217.27862719999393,,,,,,,,,,,,,,,217.27397839998594,217.27862719999393,217.27862719999393,217.27862719999393,220.26196189998882,j,220.26201780000702,,,220.26202959998045,None,,,220.27815440000268,220.27815440000268,220.27815440000268,1.0057465000427328,0.1291143999551423,,,,,,,,,,00054,001,2026-01-25_17h08.49.872,MST_task,2024.2.0,59.95886822428647,2026-01-25 17h09.14.257002 +0530,
,Scenes\023a.jpg,20,0,21,,,,,,,f,None,,,1.3965645999996923,0.0876692000310868,,,,21,0,20,220.27815440000268,,,,,,,,,,,,,,,,,,,,,,,220.26211399998283,220.27815440000268,220.76169199997094,,,,,,,,,,,,220.78456719999667,,,,,,,,,,,,,,,220.78201279998757,220.78456719999667,220.78456719999667,220.78456719999667,223.77835649996996,f,223.77841159998206,,,223.77842399996007,None,,,,,,1.3965645999996923,0.0876692000310868,,,,,,,,,,00054,001,2026-01-25_17h08.49.872,MST_task,2024.2.0,59.95886822428647,2026-01-25 17h09.14.257002 +0530,
,Objects\005a.jpg,21,0,22,,,,,,,f,None,,,1.0528417999739759,0.07198479998623952,,,,22,0,21,223.79462790000252,,,,,,,,,,,,,,,,,,,,,,,223.77852079999866,223.79462790000252,224.27838959998917,,,,,,,,,,,,224.29528049996588,,,,,,,,,,,,,,,224.28828179999255,224.29528049996588,224.29528049996588,224.29528049996588,227.27865880000172,f,227.27871429995866,,,227.2787255999865,None,,,227.2945381999598,227.2945381999598,227.2945381999598,1.0528417999739759,0.07198479998623952,,,,,,,,,,00054,001,2026-01-25_17h08.49.872,MST_task,2024.2.0,59.95886822428647,2026-01-25 17h09.14.257002 +0530,
,Objects\026a.jpg,22,0,23,,,,,,,f,None,,,2.3455177000141703,0.09599479997996241,,,,23,0,22,227.2945381999598,,,,,,,,,,,,,,,,,,,,,,,227.2788115000003,227.2945381999598,227.77835310000228,,,,,,,,,,,,227.79510019998997,,,,,,,,,,,,,,,227.7875240999856,227.79510019998997,227.79510019998997,227.79510019998997,230.7786642999854,f,230.77871839998988,,,230.7787299999618,None,,,230.794627700001,230.794627700001,230.794627700001,2.3455177000141703,0.09599479997996241,,,,,,,,,,00054,001,2026-01-25_17h08.49.872,MST_task,2024.2.0,59.95886822428647,2026-01-25 17h09.14.257002 +0530,
,Objects\010a.jpg,23,0,24,,,,,,,f,None,,,2.245282699994277,0.09709499997552484,,,,24,0,23,230.794627700001,,,,,,,,,,,,,,,,,,,,,,,230.7788118000026,230.794627700001,231.2783511999878,,,,,,,,,,,,231.29490959999384,,,,,,,,,,,,,,,231.2887264000019,231.29490959999384,231.29490959999384,231.29490959999384,234.27860409999266,f,234.27865980000934,,,234.2786717999843,None,,,234.2947070999653,234.2947070999653,234.2947070999653,2.245282699994277,0.09709499997552484,,,,,,,,,,00054,001,2026-01-25_17h08.49.872,MST_task,2024.2.0,59.95886822428647,2026-01-25 17h09.14.257002 +0530,
,Objects\114a.jpg,24,0,25,,,,,,,f,None,,,1.2653541000327095,0.11243340000510216,,,,25,0,24,234.2947070999653,,,,,,,,,,,,,,,,,,,,,,,234.27873670001281,234.2947070999653,234.7784216,,,,,,,,,,,,234.79510849999497,,,,,,,,,,,,,,,234.7872790999827,234.79510849999497,234.79510849999497,234.79510849999497,237.77867470000638,f,237.77873660001205,,,237.77874879998853,None,,,237.7946052000043,237.7946052000043,237.7946052000043,1.2653541000327095,0.11243340000510216,,,,,,,,,,00054,001,2026-01-25_17h08.49.872,MST_task,2024.2.0,59.95886822428647,2026-01-25 17h09.14.257002 +0530,
,Objects\024a.jpg,25,0,26,,,,,,,f,None,,,0.997692700009793,0.12101989996153861,,,,26,0,25,237.7946052000043,,,,,,,,,,,,,,,,,,,,,,,237.7788163999794,237.7946052000043,238.27835549996234,,,,,,,,,,,,238.2949135999661,,,,,,,,,,,,,,,238.28735389997019,238.2949135999661,238.2949135999661,238.2949135999661,241.27864659996703,f,241.27870189998066,,,241.27871390001383,None,,,241.29470069997478,241.29470069997478,241.29470069997478,0.997692700009793,0.12101989996153861,,,,,,,,,,00054,001,2026-01-25_17h08.49.872,MST_task,2024.2.0,59.95886822428647,2026-01-25 17h09.14.257002 +0530,
,Objects\142a.jpg,26,0,27,,,,,,,f,None,,,1.5297188999829814,0.15999850002117455,,,,27,0,26,241.29470069997478,,,,,,,,,,,,,,,,,,,,,,,241.27879919996485,241.29470069997478,241.77841400000034,,,,,,,,,,,,241.7949410000001,,,,,,,,,,,,,,,241.78732289996697,241.7949410000001,241.7949410000001,241.7949410000001,244.77887069998542,f,244.77892620000057,,,244.77893819997553,None,,,244.79471220000414,244.79471220000414,244.79471220000414,1.5297188999829814,0.15999850002117455,,,,,,,,,,00054,001,2026-01-25_17h08.49.872,MST_task,2024.2.0,59.95886822428647,2026-01-25 17h09.14.257002 +0530,
,Objects\018a.jpg,27,0,28,,,,,,,j,None,,,1.9335839999839664,0.15309460001299158,,,,28,0,27,244.79471220000414,,,,,,,,,,,,,,,,,,,,,,,244.77903340000194,244.79471220000414,245.2784189999802,,,,,,,,,,,,245.29512199998135,,,,,,,,,,,,,,,245.28756669996073,245.29512199998135,245.29512199998135,245.29512199998135,248.27889939997112,j,248.27896989998408,,,248.27898339997046,None,,,248.29470729996683,248.29470729996683,248.29470729996683,1.9335839999839664,0.15309460001299158,,,,,,,,,,00054,001,2026-01-25_17h08.49.872,MST_task,2024.2.0,59.95886822428647,2026-01-25 17h09.14.257002 +0530,
,Scenes\072a.jpg,28,0,29,,,,,,,j,None,,,0.933350800012704,0.13659559999359772,,,,29,0,28,248.29470729996683,,,,,,,,,,,,,,,,,,,,,,,248.27905809995718,248.29470729996683,248.778775499959,,,,,,,,,,,,248.79867759998888,,,,,,,,,,,,,,,248.79628959996626,248.79867759998888,248.79867759998888,248.79867759998888,251.79524080001283,j,251.79529889998958,,,251.79531159996986,None,,,,,,0.933350800012704,0.13659559999359772,,,,,,,,,,00054,001,2026-01-25_17h08.49.872,MST_task,2024.2.0,59.95886822428647,2026-01-25 17h09.14.257002 +0530,
,Scenes\004a.jpg,29,0,30,,,,,,,j,None,,,1.1440939999883994,0.08896109997294843,,,,30,0,29,251.8115400999668,,,,,,,,,,,,,,,,,,,,,,,251.79539889999432,251.8115400999668,252.29505389998667,,,,,,,,,,,,252.31632199999876,,,,,,,,,,,,,,,252.3137706000125,252.31632199999876,252.31632199999876,252.31632199999876,255.31180069997208,j,255.31185459997505,,,255.31186650000745,None,,,,,,1.1440939999883994,0.08896109997294843,,,,,,,,,,00054,001,2026-01-25_17h08.49.872,MST_task,2024.2.0,59.95886822428647,2026-01-25 17h09.14.257002 +0530,
,Scenes\122a.jpg,30,0,31,,,,,,,f,None,,,1.1896236999891698,0.12727860000450164,,,,31,0,30,255.3281704999972,,,,,,,,,,,,,,,,,,,,,,,255.31195299996762,255.3281704999972,255.8118053000071,,,,,,,,,,,,255.83172899996862,,,,,,,,,,,,,,,255.8292240999872,255.83172899996862,255.83172899996862,255.83172899996862,258.82840900000883,f,258.8284638999612,,,258.82847599999513,None,,,,,,1.1896236999891698,0.12727860000450164,,,,,,,,,,00054,001,2026-01-25_17h08.49.872,MST_task,2024.2.0,59.95886822428647,2026-01-25 17h09.14.257002 +0530,
,Scenes\038a.jpg,31,0,32,,,,,,,j,None,,,1.0870568999671377,0.11200220003956929,,,,32,0,31,258.84482180001214,,,,,,,,,,,,,,,,,,,,,,,258.82856210001046,258.84482180001214,259.32850209996104,,,,,,,,,,,,259.34899430000223,,,,,,,,,,,,,,,259.34654180001235,259.34899430000223,259.34899430000223,259.34899430000223,262.34627449995605,j,262.3463429000112,,,262.3463560999953,None,,,,,,1.0870568999671377,0.11200220003956929,,,,,,,,,,00054,001,2026-01-25_17h08.49.872,MST_task,2024.2.0,59.95886822428647,2026-01-25 17h09.14.257002 +0530,
,Scenes\128a.jpg,32,0,33,,,,,,,j,None,,,1.3313821999472566,0.13607310003135353,,,,33,0,32,262.3615992999985,,,,,,,,,,,,,,,,,,,,,,,262.34644970000954,262.3615992999985,262.8451802000054,,,,,,,,,,,,262.86461669998243,,,,,,,,,,,,,,,262.86206229997333,262.86461669998243,262.86461669998243,262.86461669998243,265.86172099999385,j,265.8617774999584,,,265.86179029999766,None,,,,,,1.3313821999472566,0.13607310003135353,,,,,,,,,,00054,001,2026-01-25_17h08.49.872,MST_task,2024.2.0,59.95886822428647,2026-01-25 17h09.14.257002 +0530,
,Scenes\043a.jpg,33,0,34,,,,,,,j,None,,,1.2933183999848552,0.09598829998867586,,,,34,0,33,265.87818989995867,,,,,,,,,,,,,,,,,,,,,,,265.8618807999883,265.87818989995867,266.3618248999701,,,,,,,,,,,,266.3827557999757,,,,,,,,,,,,,,,266.3802176999743,266.3827557999757,266.3827557999757,266.3827557999757,269.3783988999785,j,269.3784580999636,,,269.37847070000134,None,,,,,,1.2933183999848552,0.09598829998867586,,,,,,,,,,00054,001,2026-01-25_17h08.49.872,MST_task,2024.2.0,59.95886822428647,2026-01-25 17h09.14.257002 +0530,
,Scenes\059a.jpg,34,0,35,,,,,,,j,None,,,1.9467606000253,0.09600679995492101,,,,35,0,34,269.3948134999955,,,,,,,,,,,,,,,,,,,,,,,269.3785571999615,269.3948134999955,269.8783584999619,,,,,,,,,,,,269.89782799995737,,,,,,,,,,,,,,,269.89543199999025,269.89782799995737,269.89782799995737,269.89782799995737,272.89502190001076,j,272.8950814999989,,,272.89509409997845,None,,,,,,1.9467606000253,0.09600679995492101,,,,,,,,,,00054,001,2026-01-25_17h08.49.872,MST_task,2024.2.0,59.95886822428647,2026-01-25 17h09.14.257002 +0530,
,Objects\042a.jpg,35,0,36,,,,,,,f,None,,,1.5446368999546394,0.08797729999059811,,,,36,0,35,272.91154160001315,,,,,,,,,,,,,,,,,,,,,,,272.89518489997135,272.91154160001315,273.39510959998006,,,,,,,,,,,,273.4120575999841,,,,,,,,,,,,,,,273.4050158999744,273.4120575999841,273.4120575999841,273.4120575999841,276.3953741999576,f,276.39543149998644,,,276.3954434999614,None,,,276.41154880000977,276.41154880000977,276.41154880000977,1.5446368999546394,0.08797729999059811,,,,,,,,,,00054,001,2026-01-25_17h08.49.872,MST_task,2024.2.0,59.95886822428647,2026-01-25 17h09.14.257002 +0530,
,Objects\078a.jpg,36,0,37,,,,,,,j,None,,,1.9414713000296615,0.10352639999473467,,,,37,0,36,276.41154880000977,,,,,,,,,,,,,,,,,,,,,,,276.3955138999736,276.41154880000977,276.8949974999996,,,,,,,,,,,,276.9117354999762,,,,,,,,,,,,,,,276.90321499999845,276.9117354999762,276.9117354999762,276.9117354999762,279.8952726999996,j,279.8953306999756,,,279.89534270000877,None,,,279.91154939995613,279.91154939995613,279.91154939995613,1.9414713000296615,0.10352639999473467,,,,,,,,,,00054,001,2026-01-25_17h08.49.872,MST_task,2024.2.0,59.95886822428647,2026-01-25 17h09.14.257002 +0530,
,Objects\170a.jpg,37,0,38,,,,,,,None,j,2.6336061999900267,None,,,,,,38,0,37,279.91154939995613,,,,,,,,,,,,,,,,,,,,,,,279.8954072999768,279.91154939995613,280.39542859996436,,,,,,,,,,,,280.41178169997875,,,,,,,,,,,,,,,280.4061321999761,280.41178169997875,280.41178169997875,280.41178169997875,283.39538539998466,None,283.3954370999709,283.41149109997787,283.41149109997787,286.04586379998364,j,2.6336061999900267,None,283.41149109997787,283.41149109997787,283.41149109997787,,,,,,,,,,,,00054,001,2026-01-25_17h08.49.872,MST_task,2024.2.0,59.95886822428647,2026-01-25 17h09.14.257002 +0530,
,Objects\168a.jpg,38,0,39,,,,,,,None,j,0.4349435999756679,None,,,,,,39,0,38,286.0616061000037,,,,,,,,,,,,,,,,,,,,,,,286.04595719999634,286.0616061000037,286.54499450000003,,,,,,,,,,,,286.5616117999889,,,,,,,,,,,,,,,286.55480979999993,286.5616117999889,286.5616117999889,286.5616117999889,289.54538689996116,None,289.5454397999565,289.5615501999855,289.5615501999855,290.01187879999634,j,0.4349435999756679,None,289.5615501999855,289.5615501999855,289.5615501999855,,,,,,,,,,,,00054,001,2026-01-25_17h08.49.872,MST_task,2024.2.0,59.95886822428647,2026-01-25 17h09.14.257002 +0530,
,Objects\157a.jpg,39,0,40,,,,,,,f,None,,,1.3088007999467663,0.09489950002171099,,,,40,0,39,290.0281848000013,,,,,,,,,,,,,,,,,,,,,,,290.0119989999803,290.0281848000013,290.5117618999793,,,,,,,,,,,,290.52859040000476,,,,,,,,,,,,,,,290.5221702000126,290.52859040000476,290.52859040000476,290.52859040000476,293.5119766999851,f,293.5120364999748,,,293.51204979995964,None,,,,,,1.3088007999467663,0.09489950002171099,,,,,,,,,,00054,001,2026-01-25_17h08.49.872,MST_task,2024.2.0,59.95886822428647,2026-01-25 17h09.14.257002 +0530,
,Objects\086a.jpg,40,0,41,,,,,,,j,None,,,1.9439038999844342,0.11239939997904003,,,,41,0,40,293.52818209998077,,,,,,,,,,,,,,,,,,,,,,,293.5121354999719,293.52818209998077,294.0117576000048,,,,,,,,,,,,294.0284482999705,,,,,,,,,,,,,,,294.0204080999829,294.0284482999705,294.0284482999705,294.0284482999705,297.0121042999672,j,297.0121585999732,,,297.0121702000033,None,,,297.0281169000082,297.0281169000082,297.0281169000082,1.9439038999844342,0.11239939997904003,,,,,,,,,,00054,001,2026-01-25_17h08.49.872,MST_task,2024.2.0,59.95886822428647,2026-01-25 17h09.14.257002 +0530,
,Objects\070a.jpg,41,0,42,,,,,,,f,None,,,1.0921421999810264,0.11942840000847355,,,,42,0,41,297.0281169000082,,,,,,,,,,,,,,,,,,,,,,,297.01225619995967,297.0281169000082,297.511750900012,,,,,,,,,,,,297.52842230000533,,,,,,,,,,,,,,,297.52203990001,297.52842230000533,297.52842230000533,297.52842230000533,300.5119568000082,f,300.51201740000397,,,300.51202909997664,None,,,300.5280614999938,300.5280614999938,300.5280614999938,1.0921421999810264,0.11942840000847355,,,,,,,,,,00054,001,2026-01-25_17h08.49.872,MST_task,2024.2.0,59.95886822428647,2026-01-25 17h09.14.257002 +0530,
,Scenes\024a.jpg,42,0,43,,,,,,,j,None,,,1.511422700015828,0.088091199984774,,,,43,0,42,300.5280614999938,,,,,,,,,,,,,,,,,,,,,,,300.5120971999713,300.5280614999938,301.0119652999565,,,,,,,,,,,,301.0290373999742,,,,,,,,,,,,,,,301.0250479999813,301.0290373999742,301.0290373999742,301.0290373999742,304.01199049997376,j,304.0120469999965,,,304.01205879996996,None,,,304.02818759996444,304.02818759996444,304.02818759996444,1.511422700015828,0.088091199984774,,,,,,,,,,00054,001,2026-01-25_17h08.49.872,MST_task,2024.2.0,59.95886822428647,2026-01-25 17h09.14.257002 +0530,
,Scenes\089a.jpg,43,0,44,,,,,,,j,None,,,1.5255198999657296,0.07982430001720786,,,,44,0,43,304.02818759996444,,,,,,,,,,,,,,,,,,,,,,,304.01215019996744,304.02818759996444,304.51174190000165,,,,,,,,,,,,304.53524429997196,,,,,,,,,,,,,,,304.53268399997614,304.53524429997196,304.53524429997196,304.53524429997196,307.5283341999748,j,307.528396299982,,,307.52840899996227,None,,,,,,1.5255198999657296,0.07982430001720786,,,,,,,,,,00054,001,2026-01-25_17h08.49.872,MST_task,2024.2.0,59.95886822428647,2026-01-25 17h09.14.257002 +0530,
,Scenes\092a.jpg,44,0,45,,,,,,,j,None,,,0.6389003000222147,0.16103479999583215,,,,45,0,44,307.54460059996927,,,,,,,,,,,,,,,,,,,,,,,307.52847660001134,307.54460059996927,308.0282733999775,,,,,,,,,,,,308.0452909999876,,,,,,,,,,,,,,,308.04272879997734,308.0452909999876,308.0452909999876,308.0452909999876,311.0286148999585,j,311.0286707999767,,,311.02868250000756,None,,,311.04466559999855,311.04466559999855,311.04466559999855,0.6389003000222147,0.16103479999583215,,,,,,,,,,00054,001,2026-01-25_17h08.49.872,MST_task,2024.2.0,59.95886822428647,2026-01-25 17h09.14.257002 +0530,
,Scenes\134a.jpg,45,0,46,,,,,,,j,None,,,0.7851099999970756,0.11090720002539456,,,,46,0,45,311.04466559999855,,,,,,,,,,,,,,,,,,,,,,,311.0287475999794,311.04466559999855,311.5283240999561,,,,,,,,,,,,311.5482983000111,,,,,,,,,,,,,,,311.54587279999396,311.5482983000111,311.5482983000111,311.5482983000111,314.5449183000019,j,314.5449733999558,,,314.5449862999958,None,,,,,,0.7851099999970756,0.11090720002539456,,,,,,,,,,00054,001,2026-01-25_17h08.49.872,MST_task,2024.2.0,59.95886822428647,2026-01-25 17h09.14.257002 +0530,
,Scenes\034a.jpg,46,0,47,,,,,,,j,None,,,2.3129316000267863,0.1029949999647215,,,,47,0,46,314.5613369999919,,,,,,,,,,,,,,,,,,,,,,,314.5450728999567,314.5613369999919,315.04493519995594,,,,,,,,,,,,315.0687657999806,,,,,,,,,,,,,,,315.06622370000696,315.0687657999806,315.0687657999806,315.0687657999806,318.0616001999588,j,318.0616546999663,,,318.06166750000557,None,,,,,,2.3129316000267863,0.1029949999647215,,,,,,,,,,00054,001,2026-01-25_17h08.49.872,MST_task,2024.2.0,59.95886822428647,2026-01-25 17h09.14.257002 +0530,
,Scenes\192a.jpg,47,0,48,,,,,,,None,j,0.8425414000521414,None,,,,,,48,0,47,318.0780775999883,,,,,,,,,,,,,,,,,,,,,,,318.06175190000795,318.0780775999883,318.56201469997177,,,,,,,,,,,,318.5787725999835,,,,,,,,,,,,,,,318.5754021999892,318.5787725999835,318.5787725999835,318.5787725999835,321.5620191000053,None,321.5620704999892,321.57808579999255,321.57808579999255,322.42850159999216,j,0.8425414000521414,None,321.57808579999255,321.57808579999255,321.57808579999255,,,,,,,,,,,,00054,001,2026-01-25_17h08.49.872,MST_task,2024.2.0,59.95886822428647,2026-01-25 17h09.14.257002 +0530,
,Scenes\178a.jpg,48,0,49,,,,,,,None,j,0.2597133999806829,None,,,,,,49,0,48,322.4445953000104,,,,,,,,,,,,,,,,,,,,,,,322.42859610001324,322.4445953000104,322.92838549998123,,,,,,,,,,,,322.94532499997877,,,,,,,,,,,,,,,322.9413963999832,322.94532499997877,322.94532499997877,322.94532499997877,325.9288836999913,None,325.9289365999866,325.94492739997804,325.94492739997804,326.2118673999794,j,0.2597133999806829,None,325.94492739997804,325.94492739997804,325.94492739997804,,,,,,,,,,,,00054,001,2026-01-25_17h08.49.872,MST_task,2024.2.0,59.95886822428647,2026-01-25 17h09.14.257002 +0530,
,Objects\131a.jpg,49,0,50,,,,,,,None,f,1.4124138000188395,None,,,,,,50,0,49,326.2280002000043,,,,,,,,,,,,,,,,,,,,,,,326.21195550000994,326.2280002000043,326.7116723000072,,,,,,,,,,,,326.7285088999779,,,,,,,,,,,,,,,326.72215369995683,326.7285088999779,326.7285088999779,326.7285088999779,329.7119864000124,None,329.71204809995834,329.72808139998233,329.72808139998233,331.145040399977,f,1.4124138000188395,None,329.72808139998233,329.72808139998233,329.72808139998233,,,,,,,,,,,,00054,001,2026-01-25_17h08.49.872,MST_task,2024.2.0,59.95886822428647,2026-01-25 17h09.14.257002 +0530,
,Objects\118a.jpg,50,0,51,,,,,,,j,None,,,1.791239099984523,0.11225609999382868,,,,51,0,50,331.16139959997963,,,,,,,,,,,,,,,,,,,,,,,331.1451281000045,331.16139959997963,331.64496659999713,,,,,,,,,,,,331.66163320001215,,,,,,,,,,,,,,,331.65473289997317,331.66163320001215,331.66163320001215,331.66163320001215,334.64526199997636,j,334.64531920000445,,,334.6453314999817,None,,,334.66139879997354,334.66139879997354,334.66139879997354,1.791239099984523,0.11225609999382868,,,,,,,,,,00054,001,2026-01-25_17h08.49.872,MST_task,2024.2.0,59.95886822428647,2026-01-25 17h09.14.257002 +0530,
,Objects\135a.jpg,51,0,52,,,,,,,j,None,,,1.938554499996826,0.08800050005083904,,,,52,0,51,334.66139879997354,,,,,,,,,,,,,,,,,,,,,,,334.64539839996723,334.66139879997354,335.14510239998344,,,,,,,,,,,,335.1616845999961,,,,,,,,,,,,,,,335.15376640000613,335.1616845999961,335.1616845999961,335.1616845999961,338.1451255999855,j,338.14517899998464,,,338.1451903000125,None,,,338.1614114000113,338.1614114000113,338.1614114000113,1.938554499996826,0.08800050005083904,,,,,,,,,,00054,001,2026-01-25_17h08.49.872,MST_task,2024.2.0,59.95886822428647,2026-01-25 17h09.14.257002 +0530,
,Objects\053a.jpg,52,0,53,,,,,,,None,j,3.702966300013941,None,,,,,,53,0,52,338.1614114000113,,,,,,,,,,,,,,,,,,,,,,,338.14527340000495,338.1614114000113,338.6448822999955,,,,,,,,,,,,338.66158660000656,,,,,,,,,,,,,,,338.6538145999657,338.66158660000656,338.66158660000656,338.66158660000656,341.6452382999705,None,341.6452893000096,341.6614146999782,341.6614146999782,345.3786710000131,j,3.702966300013941,None,341.6614146999782,341.6614146999782,341.6614146999782,,,,,,,,,,,,00054,001,2026-01-25_17h08.49.872,MST_task,2024.2.0,59.95886822428647,2026-01-25 17h09.14.257002 +0530,
,Objects\029a.jpg,53,0,54,,,,,,,f,None,,,2.8298850000137463,None,,,,54,0,53,345.3946898999857,,,,,,,,,,,,,,,,,,,,,,,345.37879799999064,345.3946898999857,345.8785230999929,,,,,,,,,,,,345.8949164999649,,,,,,,,,,,,,,,345.88795269996626,345.8949164999649,345.8949164999649,345.8949164999649,348.8787551999558,f,348.87881530000595,,,348.8788275999832,None,,,348.89464059995953,348.89464059995953,348.89464059995953,2.8298850000137463,None,,,,,,,,,,00054,001,2026-01-25_17h08.49.872,MST_task,2024.2.0,59.95886822428647,2026-01-25 17h09.14.257002 +0530,
,Objects\121a.jpg,54,0,55,,,,,,,f,None,,,2.201279999979306,0.1679837999981828,,,,55,0,54,348.89464059995953,,,,,,,,,,,,,,,,,,,,,,,348.8789206999936,348.89464059995953,349.3784440999734,,,,,,,,,,,,349.3950383999618,,,,,,,,,,,,,,,349.38857369998004,349.3950383999618,349.3950383999618,349.3950383999618,352.3785334000131,f,352.37858939997386,,,352.3786017000093,None,,,352.39465530001326,352.39465530001326,352.39465530001326,2.201279999979306,0.1679837999981828,,,,,,,,,,00054,001,2026-01-25_17h08.49.872,MST_task,2024.2.0,59.95886822428647,2026-01-25 17h09.14.257002 +0530,
,Objects\009a.jpg,55,0,56,,,,,,,f,None,,,2.3973338999785483,0.11999670002842322,,,,56,0,55,352.39465530001326,,,,,,,,,,,,,,,,,,,,,,,352.3786678999895,352.39465530001326,352.8782293999684,,,,,,,,,,,,352.89479659998324,,,,,,,,,,,,,,,352.88721949997125,352.89479659998324,352.89479659998324,352.89479659998324,355.87866649997886,f,355.8787231000024,,,355.8787348999758,None,,,355.89457299996866,355.89457299996866,355.89457299996866,2.3973338999785483,0.11999670002842322,,,,,,,,,,00054,001,2026-01-25_17h08.49.872,MST_task,2024.2.0,59.95886822428647,2026-01-25 17h09.14.257002 +0530,
,Scenes\058a.jpg,56,0,57,,,,,,,None,f,0.8087408000137657,None,,,,,,57,0,56,355.89457299996866,,,,,,,,,,,,,,,,,,,,,,,355.87880080001196,355.89457299996866,356.37845829996513,,,,,,,,,,,,356.3978116000071,,,,,,,,,,,,,,,356.39549639995676,356.3978116000071,356.3978116000071,356.3978116000071,359.3948271999834,None,359.3948783999658,359.4114011999918,359.4114011999918,360.2284575999947,f,0.8087408000137657,None,,,,,,,,,,,,,,,00054,001,2026-01-25_17h08.49.872,MST_task,2024.2.0,59.95886822428647,2026-01-25 17h09.14.257002 +0530,
,Scenes\096a.jpg,57,0,58,,,,,,,j,None,,,0.9234621000359766,0.18342700001085177,,,,58,0,57,360.2446503000101,,,,,,,,,,,,,,,,,,,,,,,360.22857729997486,360.2446503000101,360.7283052999992,,,,,,,,,,,,360.74521139997523,,,,,,,,,,,,,,,360.7393572999863,360.74521139997523,360.74521139997523,360.74521139997523,363.72861529997317,j,363.7286705999868,,,363.72868259996176,None,,,363.74456560000544,363.74456560000544,363.74456560000544,0.9234621000359766,0.18342700001085177,,,,,,,,,,00054,001,2026-01-25_17h08.49.872,MST_task,2024.2.0,59.95886822428647,2026-01-25 17h09.14.257002 +0530,
,Scenes\106a.jpg,58,0,59,,,,,,,j,None,,,2.28386500000488,0.16012210003100336,,,,59,0,58,363.74456560000544,,,,,,,,,,,,,,,,,,,,,,,363.72876899997937,363.74456560000544,364.22828320000554,,,,,,,,,,,,364.24839829996927,,,,,,,,,,,,,,,364.24610419996316,364.24839829996927,364.24839829996927,364.24839829996927,367.2450700000045,j,367.24512549996143,,,367.2451374999946,None,,,,,,2.28386500000488,0.16012210003100336,,,,,,,,,,00054,001,2026-01-25_17h08.49.872,MST_task,2024.2.0,59.95886822428647,2026-01-25 17h09.14.257002 +0530,
,Scenes\169a.jpg,59,0,60,,,,,,,j,None,,,0.9620636999607086,0.11199649999616668,,,,60,0,59,367.2614351999946,,,,,,,,,,,,,,,,,,,,,,,367.2452262999723,367.2614351999946,367.7449508999707,,,,,,,,,,,,367.7620196999633,,,,,,,,,,,,,,,367.75944829999935,367.7620196999633,367.7620196999633,367.7620196999633,370.7456765999668,j,370.74574980000034,,,370.7457622999791,None,,,370.7615213000099,370.7615213000099,370.7615213000099,0.9620636999607086,0.11199649999616668,,,,,,,,,,00054,001,2026-01-25_17h08.49.872,MST_task,2024.2.0,59.95886822428647,2026-01-25 17h09.14.257002 +0530,
,Scenes\052a.jpg,60,0,61,,,,,,,j,None,,,1.7325458999839611,0.16006309998920187,,,,61,0,60,370.7615213000099,,,,,,,,,,,,,,,,,,,,,,,370.74583390000043,370.7615213000099,371.24492929998087,,,,,,,,,,,,371.26340970001183,,,,,,,,,,,,,,,371.2607791000046,371.26340970001183,371.26340970001183,371.26340970001183,374.2616993999691,j,374.26175979996333,,,374.2617733000079,None,,,,,,1.7325458999839611,0.16006309998920187,,,,,,,,,,00054,001,2026-01-25_17h08.49.872,MST_task,2024.2.0,59.95886822428647,2026-01-25 17h09.14.257002 +0530,
,Scenes\071a.jpg,61,0,62,,,,,,,j,None,,,1.4333869999973103,0.15198359999340028,,,,62,0,61,374.27805199997965,,,,,,,,,,,,,,,,,,,,,,,374.26184379996266,374.27805199997965,374.76169269997627,,,,,,,,,,,,374.778739899979,,,,,,,,,,,,,,,374.7760927999625,374.778739899979,374.778739899979,374.778739899979,377.7618264000048,j,377.76188080001157,,,377.76189249998424,None,,,,,,1.4333869999973103,0.15198359999340028,,,,,,,,,,00054,001,2026-01-25_17h08.49.872,MST_task,2024.2.0,59.95886822428647,2026-01-25 17h09.14.257002 +0530,
,Scenes\080a.jpg,62,0,63,,,,,,,j,None,,,1.4226588999736123,0.1749402999994345,,,,63,0,62,377.7781517999829,,,,,,,,,,,,,,,,,,,,,,,377.7619595999713,377.7781517999829,378.2616539999726,,,,,,,,,,,,378.278779699991,,,,,,,,,,,,,,,378.2762578999973,378.278779699991,378.278779699991,378.278779699991,381.26202419999754,j,381.26208570000017,,,381.2620977999759,None,,,381.2781704000081,381.2781704000081,381.2781704000081,1.4226588999736123,0.1749402999994345,,,,,,,,,,00054,001,2026-01-25_17h08.49.872,MST_task,2024.2.0,59.95886822428647,2026-01-25 17h09.14.257002 +0530,
,Objects\069a.jpg,63,0,64,,,,,,,j,None,,,0.9867381000076421,0.14347660000203177,,,,64,0,63,381.2781704000081,,,,,,,,,,,,,,,,,,,,,,,381.26218899997184,381.2781704000081,381.76169379998464,,,,,,,,,,,,381.7786019999767,,,,,,,,,,,,,,,381.77137789997505,381.7786019999767,381.7786019999767,381.7786019999767,384.7622398000094,j,384.7622937000124,,,384.7623059999896,None,,,,,,0.9867381000076421,0.14347660000203177,,,,,,,,,,00054,001,2026-01-25_17h08.49.872,MST_task,2024.2.0,59.95886822428647,2026-01-25 17h09.14.257002 +0530,
,Objects\066a.jpg,64,0,65,,,,,,,j,None,,,2.2623720000265166,0.13600969995604828,,,,65,0,64,384.77815009996993,,,,,,,,,,,,,,,,,,,,,,,384.76239599997643,384.77815009996993,385.2616472999798,,,,,,,,,,,,385.27848619996803,,,,,,,,,,,,,,,385.27184979995945,385.27848619996803,385.27848619996803,385.27848619996803,388.26197890000185,j,388.26203429995803,,,388.26204559998587,None,,,388.2781638999586,388.2781638999586,388.2781638999586,2.2623720000265166,0.13600969995604828,,,,,,,,,,00054,001,2026-01-25_17h08.49.872,MST_task,2024.2.0,59.95886822428647,2026-01-25 17h09.14.257002 +0530,
,Objects\011a.jpg,65,0,66,,,,,,,f,None,,,1.8977854999830015,0.16109860001597553,,,,66,0,65,388.2781638999586,,,,,,,,,,,,,,,,,,,,,,,388.26211059995694,388.2781638999586,388.7617986999685,,,,,,,,,,,,388.7783134999918,,,,,,,,,,,,,,,388.77073649998056,388.7783134999918,388.7783134999918,388.7783134999918,391.76198169996496,f,391.76203629997326,,,391.7620473999996,None,,,391.7781305999961,391.7781305999961,391.7781305999961,1.8977854999830015,0.16109860001597553,,,,,,,,,,00054,001,2026-01-25_17h08.49.872,MST_task,2024.2.0,59.95886822428647,2026-01-25 17h09.14.257002 +0530,
,Objects\038a.jpg,66,0,67,,,,,,,f,None,,,1.1656851000152528,0.17604099999880418,,,,67,0,66,391.7781305999961,,,,,,,,,,,,,,,,,,,,,,,391.7621225999901,391.7781305999961,392.26192530000117,,,,,,,,,,,,392.27834389999043,,,,,,,,,,,,,,,392.270962999959,392.27834389999043,392.27834389999043,392.27834389999043,395.2619100000011,f,395.2619643000071,,,395.26197529997444,None,,,395.2781574999681,395.2781574999681,395.2781574999681,1.1656851000152528,0.17604099999880418,,,,,,,,,,00054,001,2026-01-25_17h08.49.872,MST_task,2024.2.0,59.95886822428647,2026-01-25 17h09.14.257002 +0530,
,Objects\090a.jpg,67,0,68,,,,,,,j,None,,,2.3380446000373922,0.16009629995096475,,,,68,0,67,395.2781574999681,,,,,,,,,,,,,,,,,,,,,,,395.26205929997377,395.2781574999681,395.7617414999986,,,,,,,,,,,,395.77831490000244,,,,,,,,,,,,,,,395.7708682999946,395.77831490000244,395.77831490000244,395.77831490000244,398.76206430001184,j,398.7621183999581,,,398.76213049999205,None,,,398.778073799971,398.778073799971,398.778073799971,2.3380446000373922,0.16009629995096475,,,,,,,,,,00054,001,2026-01-25_17h08.49.872,MST_task,2024.2.0,59.95886822428647,2026-01-25 17h09.14.257002 +0530,
,Objects\141a.jpg,68,0,69,,,,,,,f,None,,,1.470488699967973,0.1600099999923259,,,,69,0,68,398.778073799971,,,,,,,,,,,,,,,,,,,,,,,398.7621973999776,398.778073799971,399.26160219998565,,,,,,,,,,,,399.27840459998697,,,,,,,,,,,,,,,399.270698599983,399.27840459998697,399.27840459998697,399.27840459998697,402.26200739998603,f,402.26206430001184,,,402.2620762999868,None,,,402.2781549000065,402.2781549000065,402.2781549000065,1.470488699967973,0.1600099999923259,,,,,,,,,,00054,001,2026-01-25_17h08.49.872,MST_task,2024.2.0,59.95886822428647,2026-01-25 17h09.14.257002 +0530,
,Objects\065a.jpg,69,0,70,,,,,,,f,None,,,1.946182299987413,0.14399710000725463,,,,70,0,69,402.2781549000065,,,,,,,,,,,,,,,,,,,,,,,402.26214030000847,402.2781549000065,402.76166189997457,,,,,,,,,,,,402.7784227000084,,,,,,,,,,,,,,,402.7706864000065,402.7784227000084,402.7784227000084,402.7784227000084,405.7624581999844,f,405.7625308999559,,,405.76254419999896,None,,,405.7785822000005,405.7785822000005,405.7785822000005,1.946182299987413,0.14399710000725463,,,,,,,,,,00054,001,2026-01-25_17h08.49.872,MST_task,2024.2.0,59.95886822428647,2026-01-25 17h09.14.257002 +0530,
,Scenes\152a.jpg,70,0,71,,,,,,,j,None,,,0.9338733999757096,0.1195638999924995,,,,71,0,70,405.7785822000005,,,,,,,,,,,,,,,,,,,,,,,405.76264490000904,405.7785822000005,406.2618141999701,,,,,,,,,,,,406.27858109999215,,,,,,,,,,,,,,,406.2741862999974,406.27858109999215,406.27858109999215,406.27858109999215,409.2619272999582,j,409.2619804999558,,,409.2619918999844,None,,,409.2780851999996,409.2780851999996,409.2780851999996,0.9338733999757096,0.1195638999924995,,,,,,,,,,00054,001,2026-01-25_17h08.49.872,MST_task,2024.2.0,59.95886822428647,2026-01-25 17h09.14.257002 +0530,
,Scenes\060a.jpg,71,0,72,,,,,,,j,None,,,2.1241061000037007,0.1675870000035502,,,,72,0,71,409.2780851999996,,,,,,,,,,,,,,,,,,,,,,,409.26207799999975,409.2780851999996,409.76188909995835,,,,,,,,,,,,409.80839540000306,,,,,,,,,,,,,,,409.80572979996214,409.80839540000306,409.80839540000306,409.80839540000306,412.77829699998256,j,412.7783558999654,,,412.7783693000092,None,,,,,,2.1241061000037007,0.1675870000035502,,,,,,,,,,00054,001,2026-01-25_17h08.49.872,MST_task,2024.2.0,59.95886822428647,2026-01-25 17h09.14.257002 +0530,
,Scenes\189a.jpg,72,0,73,,,,,,,j,None,,,0.8424694999703206,0.1268483999883756,,,,73,0,72,412.79478539997945,,,,,,,,,,,,,,,,,,,,,,,412.77845869999146,412.79478539997945,413.2784319999628,,,,,,,,,,,,413.2986984999734,,,,,,,,,,,,,,,413.296028999961,413.2986984999734,413.2986984999734,413.2986984999734,416.29494230001,j,416.2950023000012,,,416.29501489998074,None,,,,,,0.8424694999703206,0.1268483999883756,,,,,,,,,,00054,001,2026-01-25_17h08.49.872,MST_task,2024.2.0,59.95886822428647,2026-01-25 17h09.14.257002 +0530,
,Scenes\010a.jpg,73,0,74,,,,,,,j,None,,,0.9577151000266895,0.1600145999691449,,,,74,0,73,416.31147189997137,,,,,,,,,,,,,,,,,,,,,,,416.29508339997847,416.31147189997137,416.79487649997463,,,,,,,,,,,,416.81468589999713,,,,,,,,,,,,,,,416.81266210001195,416.81468589999713,416.81468589999713,416.81468589999713,419.81166909995954,j,419.8117245999747,,,419.81173739995575,None,,,,,,0.9577151000266895,0.1600145999691449,,,,,,,,,,00054,001,2026-01-25_17h08.49.872,MST_task,2024.2.0,59.95886822428647,2026-01-25 17h09.14.257002 +0530,
,Scenes\020a.jpg,74,0,75,,,,,,,f,None,,,1.000200800015591,0.1586263999924995,,,,75,0,74,419.82814190001227,,,,,,,,,,,,,,,,,,,,,,,419.8118267999962,419.82814190001227,420.3117568999878,,,,,,,,,,,,420.333639999968,,,,,,,,,,,,,,,420.3310685000033,420.333639999968,420.333639999968,420.333639999968,423.32843639998464,f,423.32848909997847,,,423.32850699999835,None,,,,,,1.000200800015591,0.1586263999924995,,,,,,,,,,00054,001,2026-01-25_17h08.49.872,MST_task,2024.2.0,59.95886822428647,2026-01-25 17h09.14.257002 +0530,
,Scenes\037a.jpg,75,0,76,,,,,,,j,None,,,1.3510946999886073,0.12798759998986498,,,,76,0,75,423.344812299998,,,,,,,,,,,,,,,,,,,,,,,423.32859449996613,423.344812299998,423.82832559995586,,,,,,,,,,,,423.84526549995644,,,,,,,,,,,,,,,423.8383606999996,423.84526549995644,423.84526549995644,423.84526549995644,426.82854139996925,j,426.82859499996994,,,426.82860690000234,None,,,426.84455609996803,426.84455609996803,426.84455609996803,1.3510946999886073,0.12798759998986498,,,,,,,,,,00054,001,2026-01-25_17h08.49.872,MST_task,2024.2.0,59.95886822428647,2026-01-25 17h09.14.257002 +0530,
,Scenes\173a.jpg,76,0,77,,,,,,,j,None,,,1.3709632999962196,0.1616119999671355,,,,77,0,76,426.84455609996803,,,,,,,,,,,,,,,,,,,,,,,426.82867229997646,426.84455609996803,427.3282835999853,,,,,,,,,,,,427.34513719996903,,,,,,,,,,,,,,,427.3413644999964,427.34513719996903,427.34513719996903,427.34513719996903,430.32866429997375,j,430.32872509997105,,,430.3287374000065,None,,,430.3445131999906,430.3445131999906,430.3445131999906,1.3709632999962196,0.1616119999671355,,,,,,,,,,00054,001,2026-01-25_17h08.49.872,MST_task,2024.2.0,59.95886822428647,2026-01-25 17h09.14.257002 +0530,
,Objects\031a.jpg,77,0,78,,,,,,,f,None,,,2.16730179998558,0.1360751999891363,,,,78,0,77,430.3445131999906,,,,,,,,,,,,,,,,,,,,,,,430.32881390000694,430.3445131999906,430.82846170000266,,,,,,,,,,,,430.8451934999903,,,,,,,,,,,,,,,430.83822789997794,430.8451934999903,430.8451934999903,430.8451934999903,433.82859260000987,f,433.82864849996986,,,433.8286597999977,None,,,433.84457389998715,433.84457389998715,433.84457389998715,2.16730179998558,0.1360751999891363,,,,,,,,,,00054,001,2026-01-25_17h08.49.872,MST_task,2024.2.0,59.95886822428647,2026-01-25 17h09.14.257002 +0530,
,Objects\179a.jpg,78,0,79,,,,,,,f,None,,,1.0678635999793187,0.1599794999929145,,,,79,0,78,433.84457389998715,,,,,,,,,,,,,,,,,,,,,,,433.828749599983,433.84457389998715,434.32830990001094,,,,,,,,,,,,434.34497340000235,,,,,,,,,,,,,,,434.33727530000033,434.34497340000235,434.34497340000235,434.34497340000235,437.3285639999667,f,437.3286175999674,,,437.32862889999524,None,,,437.3445395999588,437.3445395999588,437.3445395999588,1.0678635999793187,0.1599794999929145,,,,,,,,,,00054,001,2026-01-25_17h08.49.872,MST_task,2024.2.0,59.95886822428647,2026-01-25 17h09.14.257002 +0530,
,Objects\095a.jpg,79,0,80,,,,,,,f,None,,,1.064101399970241,0.1511356999981217,,,,80,0,79,437.3445395999588,,,,,,,,,,,,,,,,,,,,,,,437.3287130999961,437.3445395999588,437.8282856000005,,,,,,,,,,,,437.8448756999569,,,,,,,,,,,,,,,437.8375619999715,437.8448756999569,437.8448756999569,437.8448756999569,440.8286450000014,f,440.82869980001124,,,440.8287114999839,None,,,440.84456739999587,440.84456739999587,440.84456739999587,1.064101399970241,0.1511356999981217,,,,,,,,,,00054,001,2026-01-25_17h08.49.872,MST_task,2024.2.0,59.95886822428647,2026-01-25 17h09.14.257002 +0530,
,Objects\071a.jpg,80,0,81,,,,,,,f,None,,,1.1792905000038445,0.1680021000211127,,,,81,0,80,440.84456739999587,,,,,,,,,,,,,,,,,,,,,,,440.8287966999924,440.84456739999587,441.3282814999693,,,,,,,,,,,,441.3449312999728,,,,,,,,,,,,,,,441.33728609996615,441.3449312999728,441.3449312999728,441.3449312999728,444.32855509995716,f,444.3286084999563,,,444.3286198999849,None,,,444.3445306000067,444.3445306000067,444.3445306000067,1.1792905000038445,0.1680021000211127,,,,,,,,,,00054,001,2026-01-25_17h08.49.872,MST_task,2024.2.0,59.95886822428647,2026-01-25 17h09.14.257002 +0530,
,Objects\036a.jpg,81,0,82,,,,,,,f,None,,,1.3034396000439301,0.17599339998560026,,,,82,0,81,444.3445306000067,,,,,,,,,,,,,,,,,,,,,,,444.32870409998577,444.3445306000067,444.82828580000205,,,,,,,,,,,,444.8448929999722,,,,,,,,,,,,,,,444.83776369999396,444.8448929999722,444.8448929999722,444.8448929999722,447.8285293999943,f,447.82858380000107,,,447.8285948999692,None,,,447.84463730000425,447.84463730000425,447.84463730000425,1.3034396000439301,0.17599339998560026,,,,,,,,,,00054,001,2026-01-25_17h08.49.872,MST_task,2024.2.0,59.95886822428647,2026-01-25 17h09.14.257002 +0530,
,Objects\085a.jpg,82,0,83,,,,,,,None,f,4.73284779995447,None,,,,,,83,0,82,447.84463730000425,,,,,,,,,,,,,,,,,,,,,,,447.8286599999992,447.84463730000425,448.3282732999651,,,,,,,,,,,,448.344724799972,,,,,,,,,,,,,,,448.33737069997005,448.344724799972,448.344724799972,448.344724799972,451.32856210001046,None,451.3286124999868,451.3445359999896,451.3445359999896,456.0784840999986,f,4.73284779995447,None,451.3445359999896,451.3445359999896,451.3445359999896,,,,,,,,,,,,00054,001,2026-01-25_17h08.49.872,MST_task,2024.2.0,59.95886822428647,2026-01-25 17h09.14.257002 +0530,
,Objects\007a.jpg,83,0,84,,,,,,,f,None,,,1.2099303999566473,0.15189390000887215,,,,84,0,83,456.09455499995966,,,,,,,,,,,,,,,,,,,,,,,456.0786043999833,456.09455499995966,456.57825630001025,,,,,,,,,,,,456.59494260000065,,,,,,,,,,,,,,,456.58799119998,456.59494260000065,456.59494260000065,456.59494260000065,459.5785973999882,f,459.578651799995,,,459.5786646999768,None,,,459.5946604000055,459.5946604000055,459.5946604000055,1.2099303999566473,0.15189390000887215,,,,,,,,,,00054,001,2026-01-25_17h08.49.872,MST_task,2024.2.0,59.95886822428647,2026-01-25 17h09.14.257002 +0530,
,Scenes\190a.jpg,84,0,85,,,,,,,j,None,,,0.7614354999968782,0.14526239997940138,,,,85,0,84,459.5946604000055,,,,,,,,,,,,,,,,,,,,,,,459.57873079995625,459.5946604000055,460.0782494999585,,,,,,,,,,,,460.09876419999637,,,,,,,,,,,,,,,460.0965356999659,460.09876419999637,460.09876419999637,460.09876419999637,463.0948927999707,j,463.09494849998737,,,463.09496069996385,None,,,,,,0.7614354999968782,0.14526239997940138,,,,,,,,,,00054,001,2026-01-25_17h08.49.872,MST_task,2024.2.0,59.95886822428647,2026-01-25 17h09.14.257002 +0530,
,Scenes\002a.jpg,85,0,86,,,,,,,j,None,,,0.9405057999538258,0.1279967000009492,,,,86,0,85,463.11132229998475,,,,,,,,,,,,,,,,,,,,,,,463.0950260999962,463.11132229998475,463.59479070000816,,,,,,,,,,,,463.6161080999882,,,,,,,,,,,,,,,463.61354549997486,463.6161080999882,463.6161080999882,463.6161080999882,466.61169130000053,j,466.61174640001263,,,466.6117585999891,None,,,,,,0.9405057999538258,0.1279967000009492,,,,,,,,,,00054,001,2026-01-25_17h08.49.872,MST_task,2024.2.0,59.95886822428647,2026-01-25 17h09.14.257002 +0530,
,Scenes\129a.jpg,86,0,87,,,,,,,None,f,0.4127223999821581,None,,,,,,87,0,86,466.62802569998894,,,,,,,,,,,,,,,,,,,,,,,466.61184649995994,466.62802569998894,467.1116546000121,,,,,,,,,,,,467.128613399982,,,,,,,,,,,,,,,467.12418669997714,467.128613399982,467.128613399982,467.128613399982,470.1119987000129,None,470.1120481999824,470.1280364000122,470.1280364000122,470.5451826999779,f,0.4127223999821581,None,470.1280364000122,470.1280364000122,470.1280364000122,,,,,,,,,,,,00054,001,2026-01-25_17h08.49.872,MST_task,2024.2.0,59.95886822428647,2026-01-25 17h09.14.257002 +0530,
,Scenes\125a.jpg,87,0,88,,,,,,,j,None,,,2.8578610999975353,None,,,,88,0,87,470.5613511999836,,,,,,,,,,,,,,,,,,,,,,,470.5452759999898,470.5613511999836,471.04481699998723,,,,,,,,,,,,471.06622059998335,,,,,,,,,,,,,,,471.0637501999736,471.06622059998335,471.06622059998335,471.06622059998335,474.06150710000657,j,474.0615773999598,,,474.0615908000036,None,,,,,,2.8578610999975353,None,,,,,,,,,,00054,001,2026-01-25_17h08.49.872,MST_task,2024.2.0,59.95886822428647,2026-01-25 17h09.14.257002 +0530,
,Scenes\187a.jpg,88,0,89,,,,,,,j,None,,,2.21714260004228,0.15108859998872504,,,,89,0,88,474.0780480999965,,,,,,,,,,,,,,,,,,,,,,,474.0616862999741,474.0780480999965,474.5616050999961,,,,,,,,,,,,474.57990359998075,,,,,,,,,,,,,,,474.5774533000076,474.57990359998075,474.57990359998075,474.57990359998075,477.5783009000006,j,477.57836419995874,,,477.57837760000257,None,,,,,,2.21714260004228,0.15108859998872504,,,,,,,,,,00054,001,2026-01-25_17h08.49.872,MST_task,2024.2.0,59.95886822428647,2026-01-25 17h09.14.257002 +0530,
,Scenes\063a.jpg,89,0,90,,,,,,,j,None,,,1.2130070999846794,0.17600000003585592,,,,90,0,89,477.5947260999819,,,,,,,,,,,,,,,,,,,,,,,477.57844929996645,477.5947260999819,478.0782857000013,,,,,,,,,,,,478.0956878999714,,,,,,,,,,,,,,,478.09328849997837,478.0956878999714,478.0956878999714,478.0956878999714,481.07851449999725,j,481.078568500001,,,481.0785800999729,None,,,481.09452220000094,481.09452220000094,481.09452220000094,1.2130070999846794,0.17600000003585592,,,,,,,,,,00054,001,2026-01-25_17h08.49.872,MST_task,2024.2.0,59.95886822428647,2026-01-25 17h09.14.257002 +0530,
,Scenes\131a.jpg,90,0,91,,,,,,,j,None,,,0.896409599983599,0.12801270000636578,,,,91,0,90,481.09452220000094,,,,,,,,,,,,,,,,,,,,,,,481.07867309998255,481.09452220000094,481.57820739998715,,,,,,,,,,,,481.5956684999983,,,,,,,,,,,,,,,481.5931968999794,481.5956684999983,481.5956684999983,481.5956684999983,484.57864179997705,j,484.57869669998763,,,484.5787083999603,None,,,484.5946447000024,484.5946447000024,484.5946447000024,0.896409599983599,0.12801270000636578,,,,,,,,,,00054,001,2026-01-25_17h08.49.872,MST_task,2024.2.0,59.95886822428647,2026-01-25 17h09.14.257002 +0530,
,Objects\109a.jpg,91,0,92,,,,,,,f,None,,,2.6374670999939553,0.15995860000839457,,,,92,0,91,484.5946447000024,,,,,,,,,,,,,,,,,,,,,,,484.5787735999911,484.5946447000024,485.07821229996625,,,,,,,,,,,,485.09526009997353,,,,,,,,,,,,,,,485.0883511999855,485.09526009997353,485.09526009997353,485.09526009997353,488.0786711999681,f,488.0787249999703,,,488.0787369000027,None,,,488.0947872999823,488.0947872999823,488.0947872999823,2.6374670999939553,0.15995860000839457,,,,,,,,,,00054,001,2026-01-25_17h08.49.872,MST_task,2024.2.0,59.95886822428647,2026-01-25 17h09.14.257002 +0530,
,Objects\190a.jpg,92,0,93,,,,,,,f,None,,,0.8014997999998741,0.14372450002701953,,,,93,0,92,488.0947872999823,,,,,,,,,,,,,,,,,,,,,,,488.0788223000127,488.0947872999823,488.5783658999717,,,,,,,,,,,,488.59480369999073,,,,,,,,,,,,,,,488.5875100999838,488.59480369999073,488.59480369999073,488.59480369999073,491.5787529000081,f,491.578806000005,,,491.5788172999746,None,,,491.59469989995705,491.59469989995705,491.59469989995705,0.8014997999998741,0.14372450002701953,,,,,,,,,,00054,001,2026-01-25_17h08.49.872,MST_task,2024.2.0,59.95886822428647,2026-01-25 17h09.14.257002 +0530,
,Objects\006a.jpg,93,0,94,,,,,,,f,None,,,2.4932348000002094,0.11200870003085583,,,,94,0,93,491.59469989995705,,,,,,,,,,,,,,,,,,,,,,,491.57888270000694,491.59469989995705,492.07852019998245,,,,,,,,,,,,492.09492110001156,,,,,,,,,,,,,,,492.08843100001104,492.09492110001156,492.09492110001156,492.09492110001156,495.07865239999956,f,495.0787063000025,,,495.0787179999752,None,,,495.0947879999876,495.0947879999876,495.0947879999876,2.4932348000002094,0.11200870003085583,,,,,,,,,,00054,001,2026-01-25_17h08.49.872,MST_task,2024.2.0,59.95886822428647,2026-01-25 17h09.14.257002 +0530,
,Objects\158a.jpg,94,0,95,,,,,,,f,None,,,0.9051293000229634,0.12800719996448606,,,,95,0,94,495.0947879999876,,,,,,,,,,,,,,,,,,,,,,,495.07878459995845,495.0947879999876,495.5783732999698,,,,,,,,,,,,495.5948709999793,,,,,,,,,,,,,,,495.5873787999735,495.5948709999793,495.5948709999793,495.5948709999793,498.5790183999925,f,498.5790723999962,,,498.5790838999674,None,,,498.5947636999772,498.5947636999772,498.5947636999772,0.9051293000229634,0.12800719996448606,,,,,,,,,,00054,001,2026-01-25_17h08.49.872,MST_task,2024.2.0,59.95886822428647,2026-01-25 17h09.14.257002 +0530,
,Objects\136a.jpg,95,0,96,,,,,,,f,None,,,0.8213339000358246,0.14376000000629574,,,,96,0,95,498.5947636999772,,,,,,,,,,,,,,,,,,,,,,,498.5791720999987,498.5947636999772,499.0784447999904,,,,,,,,,,,,499.0948912999593,,,,,,,,,,,,,,,499.08752279996406,499.0948912999593,499.0948912999593,499.0948912999593,502.07870029995684,f,502.0787535000127,,,502.0787655999884,None,,,502.09468909999123,502.09468909999123,502.09468909999123,0.8213339000358246,0.14376000000629574,,,,,,,,,,00054,001,2026-01-25_17h08.49.872,MST_task,2024.2.0,59.95886822428647,2026-01-25 17h09.14.257002 +0530,
,Objects\060a.jpg,96,0,97,,,,,,,f,None,,,0.8649445999762975,0.14404119999380782,,,,97,0,96,502.09468909999123,,,,,,,,,,,,,,,,,,,,,,,502.07885270001134,502.09468909999123,502.5784036999685,,,,,,,,,,,,502.5950417999993,,,,,,,,,,,,,,,502.58765169995604,502.5950417999993,502.5950417999993,502.5950417999993,505.5787596000009,f,505.5788148000138,,,505.57882679998875,None,,,505.59474829997635,505.59474829997635,505.59474829997635,0.8649445999762975,0.14404119999380782,,,,,,,,,,00054,001,2026-01-25_17h08.49.872,MST_task,2024.2.0,59.95886822428647,2026-01-25 17h09.14.257002 +0530,
,Objects\098a.jpg,97,0,98,,,,,,,f,None,,,1.5102879000478424,0.175174199976027,,,,98,0,97,505.59474829997635,,,,,,,,,,,,,,,,,,,,,,,505.5788949999842,505.59474829997635,506.07834800001,,,,,,,,,,,,506.0948956999928,,,,,,,,,,,,,,,506.08744009997463,506.0948956999928,506.0948956999928,506.0948956999928,509.0787254999741,f,509.07878250000067,,,509.0787942999741,None,,,509.094793199969,509.094793199969,509.094793199969,1.5102879000478424,0.175174199976027,,,,,,,,,,00054,001,2026-01-25_17h08.49.872,MST_task,2024.2.0,59.95886822428647,2026-01-25 17h09.14.257002 +0530,
,Scenes\147a.jpg,98,0,99,,,,,,,j,None,,,0.7611977999913506,0.17599720001453534,,,,99,0,98,509.094793199969,,,,,,,,,,,,,,,,,,,,,,,509.07887849997496,509.094793199969,509.57826229999773,,,,,,,,,,,,509.5951846999815,,,,,,,,,,,,,,,509.5916627999977,509.5951846999815,509.5951846999815,509.5951846999815,512.5786533000064,j,512.578708099958,,,512.5787190999836,None,,,512.5947770999628,512.5947770999628,512.5947770999628,0.7611977999913506,0.17599720001453534,,,,,,,,,,00054,001,2026-01-25_17h08.49.872,MST_task,2024.2.0,59.95886822428647,2026-01-25 17h09.14.257002 +0530,
,Scenes\100a.jpg,99,0,100,,,,,,,None,j,0.5814085000311024,None,,,,,,100,0,99,512.5947770999628,,,,,,,,,,,,,,,,,,,,,,,512.5788030999829,512.5947770999628,513.0783771999995,,,,,,,,,,,,513.0975272000069,,,,,,,,,,,,,,,513.0950482999906,513.0975272000069,513.0975272000069,513.0975272000069,516.0948928999715,None,516.0949447999592,516.1112926999922,516.1112926999922,516.6949445999926,j,0.5814085000311024,None,,,,,,,,,,,,,,,00054,001,2026-01-25_17h08.49.872,MST_task,2024.2.0,59.95886822428647,2026-01-25 17h09.14.257002 +0530,
,Scenes\082a.jpg,100,0,101,,,,,,,None,j,1.6802793000242673,None,,,,,,101,0,100,516.711344100011,,,,,,,,,,,,,,,,,,,,,,,516.6950599999982,516.711344100011,517.1948185999645,,,,,,,,,,,,517.2154600999784,,,,,,,,,,,,,,,517.2129004999879,517.2154600999784,517.2154600999784,517.2154600999784,520.2116352999583,None,520.2116850999882,520.2280051999842,520.2280051999842,521.9118055999861,j,1.6802793000242673,None,,,,,,,,,,,,,,,00054,001,2026-01-25_17h08.49.872,MST_task,2024.2.0,59.95886822428647,2026-01-25 17h09.14.257002 +0530,
,Scenes\028a.jpg,101,0,102,,,,,,,j,None,,,0.6473269000416622,0.1439947999897413,,,,102,0,101,521.9280053999973,,,,,,,,,,,,,,,,,,,,,,,521.9119286999921,521.9280053999973,522.4116214999813,,,,,,,,,,,,522.4286388999899,,,,,,,,,,,,,,,522.4255992000108,522.4286388999899,522.4286388999899,522.4286388999899,525.4118359999848,j,525.4118903999915,,,525.4119019999634,None,,,525.4280030999798,525.4280030999798,525.4280030999798,0.6473269000416622,0.1439947999897413,,,,,,,,,,00054,001,2026-01-25_17h08.49.872,MST_task,2024.2.0,59.95886822428647,2026-01-25 17h09.14.257002 +0530,
,Scenes\032a.jpg,102,0,103,,,,,,,j,None,,,0.9904786000261083,0.11203439999371767,,,,103,0,102,525.4280030999798,,,,,,,,,,,,,,,,,,,,,,,525.4119869999704,525.4280030999798,525.9115240999963,,,,,,,,,,,,525.9340142000001,,,,,,,,,,,,,,,525.9314501999761,525.9340142000001,525.9340142000001,525.9340142000001,528.9283083999762,j,528.928372800001,,,528.9283858999843,None,,,,,,0.9904786000261083,0.11203439999371767,,,,,,,,,,00054,001,2026-01-25_17h08.49.872,MST_task,2024.2.0,59.95886822428647,2026-01-25 17h09.14.257002 +0530,
,Scenes\090a.jpg,103,0,104,,,,,,,j,None,,,1.042487099999562,0.1610045999987051,,,,104,0,103,528.9445234999876,,,,,,,,,,,,,,,,,,,,,,,528.9284600999672,528.9445234999876,529.4282448999584,,,,,,,,,,,,529.4494883999578,,,,,,,,,,,,,,,529.4466515000095,529.4494883999578,529.4494883999578,529.4494883999578,532.4448744999827,j,532.4449287999887,,,532.444941099966,None,,,,,,1.042487099999562,0.1610045999987051,,,,,,,,,,00054,001,2026-01-25_17h08.49.872,MST_task,2024.2.0,59.95886822428647,2026-01-25 17h09.14.257002 +0530,
,Scenes\074a.jpg,104,0,105,,,,,,,j,None,,,1.120216100011021,0.1273265000199899,,,,105,0,104,532.4612665000022,,,,,,,,,,,,,,,,,,,,,,,532.4450349999825,532.4612665000022,532.9449228000012,,,,,,,,,,,,532.9644145999919,,,,,,,,,,,,,,,532.961735299963,532.9644145999919,532.9644145999919,532.9644145999919,535.9616318999906,j,535.9616846999852,,,535.9616966999602,None,,,,,,1.120216100011021,0.1273265000199899,,,,,,,,,,00054,001,2026-01-25_17h08.49.872,MST_task,2024.2.0,59.95886822428647,2026-01-25 17h09.14.257002 +0530,
,Objects\162a.jpg,105,0,106,,,,,,,j,None,,,1.7580408999929205,0.09596899995813146,,,,106,0,105,535.9779769000015,,,,,,,,,,,,,,,,,,,,,,,535.96178339998,535.9779769000015,536.4616193000111,,,,,,,,,,,,536.47847490001,,,,,,,,,,,,,,,536.4714341000072,536.47847490001,536.47847490001,536.47847490001,539.46190569998,j,539.4619597999845,,,539.4619713000138,None,,,539.4779417999671,539.4779417999671,539.4779417999671,1.7580408999929205,0.09596899995813146,,,,,,,,,,00054,001,2026-01-25_17h08.49.872,MST_task,2024.2.0,59.95886822428647,2026-01-25 17h09.14.257002 +0530,
,Objects\160a.jpg,106,0,107,,,,,,,j,None,,,2.8425082999747247,None,,,,107,0,106,539.4779417999671,,,,,,,,,,,,,,,,,,,,,,,539.4620339999674,539.4779417999671,539.9615755999694,,,,,,,,,,,,539.9781752999988,,,,,,,,,,,,,,,539.9708090999629,539.9781752999988,539.9781752999988,539.9781752999988,542.9618744999752,j,542.961930999998,,,542.961942999973,None,,,542.9779578999733,542.9779578999733,542.9779578999733,2.8425082999747247,None,,,,,,,,,,00054,001,2026-01-25_17h08.49.872,MST_task,2024.2.0,59.95886822428647,2026-01-25 17h09.14.257002 +0530,
,Objects\124a.jpg,107,0,108,,,,,,,None,f,0.30335100000957027,None,,,,,,108,0,107,542.9779578999733,,,,,,,,,,,,,,,,,,,,,,,542.9620118999737,542.9779578999733,543.4615823999629,,,,,,,,,,,,543.4782345999847,,,,,,,,,,,,,,,543.4710504999966,543.4782345999847,543.4782345999847,543.4782345999847,546.4619069999899,None,546.4619563999586,546.4779286999837,546.4779286999837,546.7949449999724,f,0.30335100000957027,None,546.4779286999837,546.4779286999837,546.4779286999837,,,,,,,,,,,,00054,001,2026-01-25_17h08.49.872,MST_task,2024.2.0,59.95886822428647,2026-01-25 17h09.14.257002 +0530,
,Objects\088a.jpg,108,0,109,,,,,,,f,None,,,0.852416199981235,0.15256520005641505,,,,109,0,108,546.8112863999559,,,,,,,,,,,,,,,,,,,,,,,546.795071600005,546.8112863999559,547.2948306999751,,,,,,,,,,,,547.3115551999654,,,,,,,,,,,,,,,547.3040104999673,547.3115551999654,547.3115551999654,547.3115551999654,550.2950729999575,f,550.2951265999582,,,550.2951387999929,None,,,550.3113249999587,550.3113249999587,550.3113249999587,0.852416199981235,0.15256520005641505,,,,,,,,,,00054,001,2026-01-25_17h08.49.872,MST_task,2024.2.0,59.95886822428647,2026-01-25 17h09.14.257002 +0530,
,Objects\025a.jpg,109,0,110,,,,,,,j,None,,,2.0164787999819964,0.13704310002503917,,,,110,0,109,550.3113249999587,,,,,,,,,,,,,,,,,,,,,,,550.295223699999,550.3113249999587,550.7947675999603,,,,,,,,,,,,550.811570699967,,,,,,,,,,,,,,,550.804385699972,550.811570699967,550.811570699967,550.811570699967,553.7951695999946,j,553.7952720999601,,,553.7952889999724,None,,,553.8114202999859,553.8114202999859,553.8114202999859,2.0164787999819964,0.13704310002503917,,,,,,,,,,00054,001,2026-01-25_17h08.49.872,MST_task,2024.2.0,59.95886822428647,2026-01-25 17h09.14.257002 +0530,
,Objects\097a.jpg,110,0,111,,,,,,,j,None,,,0.644515499996487,0.14403030002722517,,,,111,0,110,553.8114202999859,,,,,,,,,,,,,,,,,,,,,,,553.7953803999699,553.8114202999859,554.2948223999701,,,,,,,,,,,,554.3115111999796,,,,,,,,,,,,,,,554.3038281999761,554.3115111999796,554.3115111999796,554.3115111999796,557.2950124999625,j,557.2950661999639,,,557.2950775999925,None,,,557.3113215999911,557.3113215999911,557.3113215999911,0.644515499996487,0.14403030002722517,,,,,,,,,,00054,001,2026-01-25_17h08.49.872,MST_task,2024.2.0,59.95886822428647,2026-01-25 17h09.14.257002 +0530,
,Objects\140a.jpg,111,0,112,,,,,,,None,j,0.41717110003810376,None,,,,,,112,0,111,557.3113215999911,,,,,,,,,,,,,,,,,,,,,,,557.2951424999628,557.3113215999911,557.7947234999738,,,,,,,,,,,,557.811564499978,,,,,,,,,,,,,,,557.8037427999661,557.811564499978,557.811564499978,557.811564499978,560.795002400002,None,560.7950521999737,560.8113313000067,560.8113313000067,561.2451649999712,j,0.41717110003810376,None,560.8113313000067,560.8113313000067,560.8113313000067,,,,,,,,,,,,00054,001,2026-01-25_17h08.49.872,MST_task,2024.2.0,59.95886822428647,2026-01-25 17h09.14.257002 +0530,
,Scenes\123a.jpg,112,0,113,,,,,,,j,None,,,0.6748276999569498,0.13576910004485399,,,,113,0,112,561.2613013999653,,,,,,,,,,,,,,,,,,,,,,,561.2452560999664,561.2613013999653,561.7448694999912,,,,,,,,,,,,561.761811000004,,,,,,,,,,,,,,,561.7586772000068,561.761811000004,561.761811000004,561.761811000004,564.7455265999888,j,564.7455901000067,,,564.7456024999847,None,,,564.7614612999605,564.7614612999605,564.7614612999605,0.6748276999569498,0.13576910004485399,,,,,,,,,,00054,001,2026-01-25_17h08.49.872,MST_task,2024.2.0,59.95886822428647,2026-01-25 17h09.14.257002 +0530,
,Scenes\067a.jpg,113,0,114,,,,,,,None,f,0.6468673000345007,None,,,,,,114,0,113,564.7614612999605,,,,,,,,,,,,,,,,,,,,,,,564.7456970000057,564.7614612999605,565.2448660999653,,,,,,,,,,,,565.263656599971,,,,,,,,,,,,,,,565.2613564999774,565.263656599971,565.263656599971,565.263656599971,568.2616853999789,None,568.2617626999854,568.2779898999725,568.2779898999725,568.9283192000003,f,0.6468673000345007,None,,,,,,,,,,,,,,,00054,001,2026-01-25_17h08.49.872,MST_task,2024.2.0,59.95886822428647,2026-01-25 17h09.14.257002 +0530,
,Scenes\120a.jpg,114,0,115,,,,,,,j,None,,,0.7979178000241518,0.15203769999789074,,,,115,0,114,568.9445620999904,,,,,,,,,,,,,,,,,,,,,,,568.9284403999918,568.9445620999904,569.4282942999853,,,,,,,,,,,,569.4467156999744,,,,,,,,,,,,,,,569.4441606999608,569.4467156999744,569.4467156999744,569.4467156999744,572.4447343999636,j,572.4447878999636,,,572.4448009000043,None,,,,,,0.7979178000241518,0.15203769999789074,,,,,,,,,,00054,001,2026-01-25_17h08.49.872,MST_task,2024.2.0,59.95886822428647,2026-01-25 17h09.14.257002 +0530,
,Scenes\115a.jpg,115,0,116,,,,,,,j,None,,,2.0082839999813586,0.11199569999007508,,,,116,0,115,572.461304299999,,,,,,,,,,,,,,,,,,,,,,,572.4448885999736,572.461304299999,572.9447658999707,,,,,,,,,,,,572.9641965999617,,,,,,,,,,,,,,,572.9616718000034,572.9641965999617,572.9641965999617,572.9641965999617,575.961655799998,j,575.961714199977,,,575.9617272999603,None,,,,,,2.0082839999813586,0.11199569999007508,,,,,,,,,,00054,001,2026-01-25_17h08.49.872,MST_task,2024.2.0,59.95886822428647,2026-01-25 17h09.14.257002 +0530,
,Scenes\061a.jpg,116,0,117,,,,,,,j,None,,,0.7018277000170201,0.14404119999380782,,,,117,0,116,575.9779795999639,,,,,,,,,,,,,,,,,,,,,,,575.9618001999916,575.9779795999639,576.4614767999738,,,,,,,,,,,,576.4785277000046,,,,,,,,,,,,,,,576.4728467999958,576.4785277000046,576.4785277000046,576.4785277000046,579.4618707000045,j,579.4619275999721,,,579.4619396000053,None,,,579.4779893999803,579.4779893999803,579.4779893999803,0.7018277000170201,0.14404119999380782,,,,,,,,,,00054,001,2026-01-25_17h08.49.872,MST_task,2024.2.0,59.95886822428647,2026-01-25 17h09.14.257002 +0530,
,Scenes\151a.jpg,117,0,118,,,,,,,None,j,0.8421732999850065,None,,,,,,118,0,117,579.4779893999803,,,,,,,,,,,,,,,,,,,,,,,579.4620258999639,579.4779893999803,579.9615141999675,,,,,,,,,,,,579.9784921999671,,,,,,,,,,,,,,,579.9726096999948,579.9784921999671,579.9784921999671,579.9784921999671,582.9618773999973,None,582.9619260999607,582.9779241000069,582.9779241000069,583.8283781000064,j,0.8421732999850065,None,582.9779241000069,582.9779241000069,582.9779241000069,,,,,,,,,,,,00054,001,2026-01-25_17h08.49.872,MST_task,2024.2.0,59.95886822428647,2026-01-25 17h09.14.257002 +0530,
,Scenes\077a.jpg,118,0,119,,,,,,,j,None,,,2.106829199998174,0.11301989998901263,,,,119,0,118,583.844570199959,,,,,,,,,,,,,,,,,,,,,,,583.8284662999795,583.844570199959,584.3281507999636,,,,,,,,,,,,584.3451667999616,,,,,,,,,,,,,,,584.3419638999621,584.3451667999616,584.3451667999616,584.3451667999616,587.3285221999977,j,587.3285771000083,,,587.3285888999817,None,,,587.3445885999827,587.3445885999827,587.3445885999827,2.106829199998174,0.11301989998901263,,,,,,,,,,00054,001,2026-01-25_17h08.49.872,MST_task,2024.2.0,59.95886822428647,2026-01-25 17h09.14.257002 +0530,
,Objects\054a.jpg,119,0,120,,,,,,,f,None,,,1.1272977000335231,0.14402269996935502,,,,120,0,119,587.3445885999827,,,,,,,,,,,,,,,,,,,,,,,587.3286545999581,587.3445885999827,587.8284841999994,,,,,,,,,,,,587.8449909999617,,,,,,,,,,,,,,,587.8379730999586,587.8449909999617,587.8449909999617,587.8449909999617,590.828541099967,f,590.8285935999593,,,590.8286051999894,None,,,590.8444813999813,590.8444813999813,590.8444813999813,1.1272977000335231,0.14402269996935502,,,,,,,,,,00054,001,2026-01-25_17h08.49.872,MST_task,2024.2.0,59.95886822428647,2026-01-25 17h09.14.257002 +0530,
,Objects\173a.jpg,120,0,121,,,,,,,None,f,0.4276817999780178,None,,,,,,121,0,120,590.8444813999813,,,,,,,,,,,,,,,,,,,,,,,590.828689099988,590.8444813999813,591.3282074999879,,,,,,,,,,,,591.3447417999851,,,,,,,,,,,,,,,591.3400619999738,591.3447417999851,591.3447417999851,591.3447417999851,594.3284969999804,None,594.3285462000058,594.3445171999629,594.3445171999629,594.7783964999835,f,0.4276817999780178,None,594.3445171999629,594.3445171999629,594.3445171999629,,,,,,,,,,,,00054,001,2026-01-25_17h08.49.872,MST_task,2024.2.0,59.95886822428647,2026-01-25 17h09.14.257002 +0530,
,Objects\076a.jpg,121,0,122,,,,,,,j,None,,,2.502008899988141,0.14345699996920303,,,,122,0,121,594.7945057000034,,,,,,,,,,,,,,,,,,,,,,,594.7785142000066,594.7945057000034,595.2781524999882,,,,,,,,,,,,595.2948430000106,,,,,,,,,,,,,,,595.2886364999576,595.2948430000106,595.2948430000106,595.2948430000106,598.2785300000105,j,598.278583999956,,,598.2785954999854,None,,,598.2945134000038,598.2945134000038,598.2945134000038,2.502008899988141,0.14345699996920303,,,,,,,,,,00054,001,2026-01-25_17h08.49.872,MST_task,2024.2.0,59.95886822428647,2026-01-25 17h09.14.257002 +0530,
,Objects\116a.jpg,122,0,123,,,,,,,None,j,0.5141855999827385,None,,,,,,123,0,122,598.2945134000038,,,,,,,,,,,,,,,,,,,,,,,598.2786842999631,598.2945134000038,598.7782572999713,,,,,,,,,,,,598.7946693999693,,,,,,,,,,,,,,,598.7871493999846,598.7946693999693,598.7946693999693,598.7946693999693,601.7785050999955,None,601.7785657999921,601.7944759000093,601.7944759000093,602.3118118999992,j,0.5141855999827385,None,601.7944759000093,601.7944759000093,601.7944759000093,,,,,,,,,,,,00054,001,2026-01-25_17h08.49.872,MST_task,2024.2.0,59.95886822428647,2026-01-25 17h09.14.257002 +0530,
,Objects\084a.jpg,123,0,124,,,,,,,None,f,0.27244879998033866,None,,,,,,124,0,123,602.3279173999908,,,,,,,,,,,,,,,,,,,,,,,602.3119390999782,602.3279173999908,602.8115725999814,,,,,,,,,,,,602.8282006999943,,,,,,,,,,,,,,,602.8212772000115,602.8282006999943,602.8282006999943,602.8282006999943,605.811918499996,None,605.8119693999761,605.8280884000123,605.8280884000123,606.1119204999995,f,0.27244879998033866,None,605.8280884000123,605.8280884000123,605.8280884000123,,,,,,,,,,,,00054,001,2026-01-25_17h08.49.872,MST_task,2024.2.0,59.95886822428647,2026-01-25 17h09.14.257002 +0530,
,Objects\033a.jpg,124,0,125,,,,,,,None,j,0.5199028000351973,None,,,,,,125,0,124,606.1280703999801,,,,,,,,,,,,,,,,,,,,,,,606.1120373999584,606.1280703999801,606.6117332999711,,,,,,,,,,,,606.6284683999838,,,,,,,,,,,,,,,606.620834900008,606.6284683999838,606.6284683999838,606.6284683999838,609.6120283000055,None,609.6120877999929,609.6280383999692,609.6280383999692,610.1618016999564,j,0.5199028000351973,None,609.6280383999692,609.6280383999692,609.6280383999692,,,,,,,,,,,,00054,001,2026-01-25_17h08.49.872,MST_task,2024.2.0,59.95886822428647,2026-01-25 17h09.14.257002 +0530,
,Objects\037a.jpg,125,0,126,,,,,,,None,f,0.029917599982582033,None,,,,,,126,0,125,610.178048199974,,,,,,,,,,,,,,,,,,,,,,,610.1618992000003,610.178048199974,610.6616561000119,,,,,,,,,,,,610.6783354000072,,,,,,,,,,,,,,,610.6714196999674,610.6783354000072,610.6783354000072,610.6783354000072,613.6619748999947,None,613.6620246999664,613.6780269999872,613.6780269999872,613.7118175000069,f,0.029917599982582033,None,613.6780269999872,613.6780269999872,613.6780269999872,,,,,,,,,,,,00054,001,2026-01-25_17h08.49.872,MST_task,2024.2.0,59.95886822428647,2026-01-25 17h09.14.257002 +0530,
,Scenes\141a.jpg,126,0,127,,,,,,,j,None,,,1.1434418999706395,0.16103900002781302,,,,127,0,126,613.7280308000045,,,,,,,,,,,,,,,,,,,,,,,613.711931400001,613.7280308000045,614.2116673999699,,,,,,,,,,,,614.228500999976,,,,,,,,,,,,,,,614.2243974999874,614.228500999976,614.228500999976,614.228500999976,617.2118747999775,j,617.2119302999927,,,617.2119422999676,None,,,617.228074099985,617.228074099985,617.228074099985,1.1434418999706395,0.16103900002781302,,,,,,,,,,00054,001,2026-01-25_17h08.49.872,MST_task,2024.2.0,59.95886822428647,2026-01-25 17h09.14.257002 +0530,
,Scenes\111a.jpg,127,0,128,,,,,,,j,None,,,2.7554018999799155,0.08798630000092089,,,,128,0,127,617.228074099985,,,,,,,,,,,,,,,,,,,,,,,617.2120252999594,617.228074099985,617.7116434999625,,,,,,,,,,,,617.7286989999702,,,,,,,,,,,,,,,617.7256474999595,617.7286989999702,617.7286989999702,617.7286989999702,620.7120092000114,j,620.7120647999691,,,620.7120838999981,None,,,620.7280991000007,620.7280991000007,620.7280991000007,2.7554018999799155,0.08798630000092089,,,,,,,,,,00054,001,2026-01-25_17h08.49.872,MST_task,2024.2.0,59.95886822428647,2026-01-25 17h09.14.257002 +0530,
,Scenes\164a.jpg,128,0,129,,,,,,,None,j,0.29589690000284463,None,,,,,,129,0,128,620.7280991000007,,,,,,,,,,,,,,,,,,,,,,,620.712151899992,620.7280991000007,621.2116755999741,,,,,,,,,,,,621.2287896999624,,,,,,,,,,,,,,,621.2256724999752,621.2287896999624,621.2287896999624,621.2287896999624,624.2119646999636,None,624.2120158000034,624.2280448999954,624.2280448999954,624.5284574999823,j,0.29589690000284463,None,624.2280448999954,624.2280448999954,624.2280448999954,,,,,,,,,,,,00054,001,2026-01-25_17h08.49.872,MST_task,2024.2.0,59.95886822428647,2026-01-25 17h09.14.257002 +0530,
,Scenes\040a.jpg,129,0,130,,,,,,,f,None,,,2.5561264000134543,0.13688489998457953,,,,130,0,129,624.5446782999788,,,,,,,,,,,,,,,,,,,,,,,624.5285434999969,624.5446782999788,625.0283059999929,,,,,,,,,,,,625.0477929000044,,,,,,,,,,,,,,,625.0453022999573,625.0477929000044,625.0477929000044,625.0477929000044,628.0449789999984,f,628.0450340000098,,,628.0450469999923,None,,,,,,2.5561264000134543,0.13688489998457953,,,,,,,,,,00054,001,2026-01-25_17h08.49.872,MST_task,2024.2.0,59.95886822428647,2026-01-25 17h09.14.257002 +0530,
,Scenes\103a.jpg,130,0,131,,,,,,,j,None,,,2.3202452000114135,0.10353359999135137,,,,131,0,130,628.0613553999574,,,,,,,,,,,,,,,,,,,,,,,628.045133800013,628.0613553999574,628.5449848999851,,,,,,,,,,,,628.5641683999565,,,,,,,,,,,,,,,628.5617845999659,628.5641683999565,628.5641683999565,628.5641683999565,631.5616677000071,j,631.5617300999584,,,631.5617428999976,None,,,,,,2.3202452000114135,0.10353359999135137,,,,,,,,,,00054,001,2026-01-25_17h08.49.872,MST_task,2024.2.0,59.95886822428647,2026-01-25 17h09.14.257002 +0530,
,Scenes\085a.jpg,131,0,132,,,,,,,j,None,,,1.4583499999716878,0.15197740000439808,,,,132,0,131,631.5779908999684,,,,,,,,,,,,,,,,,,,,,,,631.5618311999715,631.5779908999684,632.0620365999639,,,,,,,,,,,,632.0816010999843,,,,,,,,,,,,,,,632.0794384999899,632.0816010999843,632.0816010999843,632.0816010999843,635.078293300001,j,635.078349599964,,,635.0783616999979,None,,,,,,1.4583499999716878,0.15197740000439808,,,,,,,,,,00054,001,2026-01-25_17h08.49.872,MST_task,2024.2.0,59.95886822428647,2026-01-25 17h09.14.257002 +0530,
,Scenes\086a.jpg,132,0,133,,,,,,,None,j,1.2970838000182994,None,,,,,,133,0,132,635.0947183999815,,,,,,,,,,,,,,,,,,,,,,,635.0784493999672,635.0947183999815,635.5783394000027,,,,,,,,,,,,635.5981638999656,,,,,,,,,,,,,,,635.5957966999849,635.5981638999656,635.5981638999656,635.5981638999656,638.5950013999827,None,638.5950509000104,638.6113951999578,638.6113951999578,639.911911299976,j,1.2970838000182994,None,,,,,,,,,,,,,,,00054,001,2026-01-25_17h08.49.872,MST_task,2024.2.0,59.95886822428647,2026-01-25 17h09.14.257002 +0530,
,Objects\144a.jpg,133,0,134,,,,,,,None,f,0.19272909994469956,None,,,,,,134,0,133,639.9280548999668,,,,,,,,,,,,,,,,,,,,,,,639.9119989000028,639.9280548999668,640.4116365999798,,,,,,,,,,,,640.4285571000073,,,,,,,,,,,,,,,640.4223779999884,640.4285571000073,640.4285571000073,640.4285571000073,643.4118891999824,None,643.4119384000078,643.4280773999635,643.4280773999635,643.6283833999769,f,0.19272909994469956,None,643.4280773999635,643.4280773999635,643.4280773999635,,,,,,,,,,,,00054,001,2026-01-25_17h08.49.872,MST_task,2024.2.0,59.95886822428647,2026-01-25 17h09.14.257002 +0530,
,Objects\180a.jpg,134,0,135,,,,,,,None,f,0.37988789996597916,None,,,,,,135,0,134,643.6447056999896,,,,,,,,,,,,,,,,,,,,,,,643.6285028000129,643.6447056999896,644.128226300003,,,,,,,,,,,,644.1449365000008,,,,,,,,,,,,,,,644.1376712999772,644.1449365000008,644.1449365000008,644.1449365000008,647.1286637999583,None,647.1287137999898,647.1447316000122,647.1447316000122,647.5284458000096,f,0.37988789996597916,None,647.1447316000122,647.1447316000122,647.1447316000122,,,,,,,,,,,,00054,001,2026-01-25_17h08.49.872,MST_task,2024.2.0,59.95886822428647,2026-01-25 17h09.14.257002 +0530,
,Objects\080a.jpg,135,0,136,,,,,,,f,None,,,1.4788891000207514,0.13603340002009645,,,,136,0,135,647.5446158999694,,,,,,,,,,,,,,,,,,,,,,,647.5285422999877,647.5446158999694,648.0282748999889,,,,,,,,,,,,648.0450295999763,,,,,,,,,,,,,,,648.0373302999651,648.0450295999763,648.0450295999763,648.0450295999763,651.028490800003,f,651.0285457999562,,,651.0285585999954,None,,,651.0447207000107,651.0447207000107,651.0447207000107,1.4788891000207514,0.13603340002009645,,,,,,,,,,00054,001,2026-01-25_17h08.49.872,MST_task,2024.2.0,59.95886822428647,2026-01-25 17h09.14.257002 +0530,
,Objects\119a.jpg,136,0,137,,,,,,,f,None,,,1.5640261999797076,0.15891980001470074,,,,137,0,136,651.0447207000107,,,,,,,,,,,,,,,,,,,,,,,651.028623399965,651.0447207000107,651.5283128999872,,,,,,,,,,,,651.5449745999649,,,,,,,,,,,,,,,651.5397480999818,651.5449745999649,651.5449745999649,651.5449745999649,654.5285518000019,f,654.5286051000003,,,654.5286168999737,None,,,654.5448061999632,654.5448061999632,654.5448061999632,1.5640261999797076,0.15891980001470074,,,,,,,,,,00054,001,2026-01-25_17h08.49.872,MST_task,2024.2.0,59.95886822428647,2026-01-25 17h09.14.257002 +0530,
,Objects\055a.jpg,137,0,138,,,,,,,f,None,,,1.895098299952224,0.13602840004023165,,,,138,0,137,654.5448061999632,,,,,,,,,,,,,,,,,,,,,,,654.5287118999986,654.5448061999632,655.0282122999779,,,,,,,,,,,,655.045074899972,,,,,,,,,,,,,,,655.0386131000123,655.045074899972,655.045074899972,655.045074899972,658.0287928999751,f,658.0288522999617,,,658.0288640999934,None,,,658.0445860999753,658.0445860999753,658.0445860999753,1.895098299952224,0.13602840004023165,,,,,,,,,,00054,001,2026-01-25_17h08.49.872,MST_task,2024.2.0,59.95886822428647,2026-01-25 17h09.14.257002 +0530,
,Objects\183a.jpg,138,0,139,,,,,,,f,None,,,1.2201790999970399,0.1279954999918118,,,,139,0,138,658.0445860999753,,,,,,,,,,,,,,,,,,,,,,,658.0289307999774,658.0445860999753,658.5282999000046,,,,,,,,,,,,658.5449530999758,,,,,,,,,,,,,,,658.5374686999712,658.5449530999758,658.5449530999758,658.5449530999758,661.5286582999979,f,661.5287129000062,,,661.5287246999796,None,,,661.5446575999958,661.5446575999958,661.5446575999958,1.2201790999970399,0.1279954999918118,,,,,,,,,,00054,001,2026-01-25_17h08.49.872,MST_task,2024.2.0,59.95886822428647,2026-01-25 17h09.14.257002 +0530,
,Objects\050a.jpg,139,0,140,,,,,,,f,None,,,1.1832246000412852,0.12033149995841086,,,,140,0,139,661.5446575999958,,,,,,,,,,,,,,,,,,,,,,,661.5288134999573,661.5446575999958,662.0283808999811,,,,,,,,,,,,662.0448634999921,,,,,,,,,,,,,,,662.0378262999584,662.0448634999921,662.0448634999921,662.0448634999921,665.0286220000125,f,665.0286733999965,,,665.0286844999646,None,,,665.0446105999872,665.0446105999872,665.0446105999872,1.1832246000412852,0.12033149995841086,,,,,,,,,,00054,001,2026-01-25_17h08.49.872,MST_task,2024.2.0,59.95886822428647,2026-01-25 17h09.14.257002 +0530,
,Scenes\042a.jpg,140,0,141,,,,,,,j,None,,,0.9074222999624908,0.1289956000400707,,,,141,0,140,665.0446105999872,,,,,,,,,,,,,,,,,,,,,,,665.0287495999946,665.0446105999872,665.5282660999801,,,,,,,,,,,,665.5453432999784,,,,,,,,,,,,,,,665.5431308000116,665.5453432999784,665.5453432999784,665.5453432999784,668.5285613999586,j,668.528617599979,,,668.5286301999586,None,,,668.5445195999928,668.5445195999928,668.5445195999928,0.9074222999624908,0.1289956000400707,,,,,,,,,,00054,001,2026-01-25_17h08.49.872,MST_task,2024.2.0,59.95886822428647,2026-01-25 17h09.14.257002 +0530,
,Scenes\087a.jpg,141,0,142,,,,,,,j,None,,,2.207637299958151,0.11999550001928583,,,,142,0,141,668.5445195999928,,,,,,,,,,,,,,,,,,,,,,,668.5286959999939,668.5445195999928,669.0282742999843,,,,,,,,,,,,669.0450204999652,,,,,,,,,,,,,,,669.0409036999918,669.0450204999652,669.0450204999652,669.0450204999652,672.0285161999636,j,672.0285704999696,,,672.028582400002,None,,,672.0444949999801,672.0444949999801,672.0444949999801,2.207637299958151,0.11999550001928583,,,,,,,,,,00054,001,2026-01-25_17h08.49.872,MST_task,2024.2.0,59.95886822428647,2026-01-25 17h09.14.257002 +0530,
,Scenes\025a.jpg,142,0,143,,,,,,,j,None,,,0.8964262999943458,0.0960962999961339,,,,143,0,142,672.0444949999801,,,,,,,,,,,,,,,,,,,,,,,672.0286472999724,672.0444949999801,672.5283081000089,,,,,,,,,,,,672.5486274999566,,,,,,,,,,,,,,,672.5463926999946,672.5486274999566,672.5486274999566,672.5486274999566,675.5447883000015,j,675.5448434999562,,,675.5448560999939,None,,,,,,0.8964262999943458,0.0960962999961339,,,,,,,,,,00054,001,2026-01-25_17h08.49.872,MST_task,2024.2.0,59.95886822428647,2026-01-25 17h09.14.257002 +0530,
,Scenes\113a.jpg,143,0,144,,,,,,,j,None,,,1.974659800005611,0.12798480002675205,,,,144,0,143,675.5612678999896,,,,,,,,,,,,,,,,,,,,,,,675.5449247999932,675.5612678999896,676.0447220999631,,,,,,,,,,,,676.0618343999959,,,,,,,,,,,,,,,676.0552678999957,676.0618343999959,676.0618343999959,676.0618343999959,679.0452272999682,j,679.0452862000093,,,679.0452977999812,None,,,679.061302499962,679.061302499962,679.061302499962,1.974659800005611,0.12798480002675205,,,,,,,,,,00054,001,2026-01-25_17h08.49.872,MST_task,2024.2.0,59.95886822428647,2026-01-25 17h09.14.257002 +0530,
,Scenes\091a.jpg,144,0,145,,,,,,,None,j,0.8596910999622196,None,,,,,,145,0,144,679.061302499962,,,,,,,,,,,,,,,,,,,,,,,679.0453866999596,679.061302499962,679.5448918999755,,,,,,,,,,,,679.5617600000114,,,,,,,,,,,,,,,679.558074600005,679.5617600000114,679.5617600000114,679.5617600000114,682.5452604999882,None,682.5453107999638,682.5612909999909,682.5612909999909,683.4287124999682,j,0.8596910999622196,None,682.5612909999909,682.5612909999909,682.5612909999909,,,,,,,,,,,,00054,001,2026-01-25_17h08.49.872,MST_task,2024.2.0,59.95886822428647,2026-01-25 17h09.14.257002 +0530,
,Scenes\015a.jpg,145,0,146,,,,,,,j,None,,,1.0011011000024155,0.12661049998132512,,,,146,0,145,683.4445391999907,,,,,,,,,,,,,,,,,,,,,,,683.4288648999645,683.4445391999907,683.928129500011,,,,,,,,,,,,683.94869499997,,,,,,,,,,,,,,,683.9462179999682,683.94869499997,683.94869499997,683.94869499997,686.9447281999746,j,686.9447796999593,,,686.9447924999986,None,,,,,,1.0011011000024155,0.12661049998132512,,,,,,,,,,00054,001,2026-01-25_17h08.49.872,MST_task,2024.2.0,59.95886822428647,2026-01-25 17h09.14.257002 +0530,
,Scenes\155a.jpg,146,0,147,,,,,,,j,None,,,2.254415399977006,0.09591670002555475,,,,147,0,146,686.9613151999656,,,,,,,,,,,,,,,,,,,,,,,686.9448795999633,686.9613151999656,687.4447153999936,,,,,,,,,,,,687.4622058999958,,,,,,,,,,,,,,,687.4598538000137,687.4622058999958,687.4622058999958,687.4622058999958,690.4451576999854,j,690.4452118999907,,,690.4452226999565,None,,,690.461270699976,690.461270699976,690.461270699976,2.254415399977006,0.09591670002555475,,,,,,,,,,00054,001,2026-01-25_17h08.49.872,MST_task,2024.2.0,59.95886822428647,2026-01-25 17h09.14.257002 +0530,
,Objects\087a.jpg,147,0,148,,,,,,,j,None,,,1.6668411000282504,0.0720261000096798,,,,148,0,147,690.461270699976,,,,,,,,,,,,,,,,,,,,,,,690.4453070999589,690.461270699976,690.9447753999848,,,,,,,,,,,,690.9617990999832,,,,,,,,,,,,,,,690.9544741999707,690.9617990999832,690.9617990999832,690.9617990999832,693.9450741999899,j,693.9451286999974,,,693.945139599964,None,,,693.9612767999643,693.9612767999643,693.9612767999643,1.6668411000282504,0.0720261000096798,,,,,,,,,,00054,001,2026-01-25_17h08.49.872,MST_task,2024.2.0,59.95886822428647,2026-01-25 17h09.14.257002 +0530,
,Objects\163a.jpg,148,0,149,,,,,,,j,None,,,1.5201852000318468,0.11099279997870326,,,,149,0,148,693.9612767999643,,,,,,,,,,,,,,,,,,,,,,,693.9452227999573,693.9612767999643,694.4447214999818,,,,,,,,,,,,694.4615036000032,,,,,,,,,,,,,,,694.4535885999794,694.4615036000032,694.4615036000032,694.4615036000032,697.4450021999655,j,697.4450570999761,,,697.4450681000017,None,,,697.461276499962,697.461276499962,697.461276499962,1.5201852000318468,0.11099279997870326,,,,,,,,,,00054,001,2026-01-25_17h08.49.872,MST_task,2024.2.0,59.95886822428647,2026-01-25 17h09.14.257002 +0530,
,Objects\092a.jpg,149,0,150,,,,,,,j,None,,,1.404072500008624,0.10306400002446026,,,,150,0,149,697.461276499962,,,,,,,,,,,,,,,,,,,,,,,697.4451356999925,697.461276499962,697.9448312000022,,,,,,,,,,,,697.9615132999606,,,,,,,,,,,,,,,697.9537432999932,697.9615132999606,697.9615132999606,697.9615132999606,700.9451010999619,j,700.9451546999626,,,700.9451664999942,None,,,700.9612168999738,700.9612168999738,700.9612168999738,1.404072500008624,0.10306400002446026,,,,,,,,,,00054,001,2026-01-25_17h08.49.872,MST_task,2024.2.0,59.95886822428647,2026-01-25 17h09.14.257002 +0530,
,Objects\122a.jpg,150,0,151,,,,,,,None,f,0.7034233000013046,None,,,,,,151,0,150,700.9612168999738,,,,,,,,,,,,,,,,,,,,,,,700.9452497999882,700.9612168999738,701.4448509999784,,,,,,,,,,,,701.4616389999865,,,,,,,,,,,,,,,701.4540125000058,701.4616389999865,701.4616389999865,701.4616389999865,704.4450917000067,None,704.4451397999655,704.4612148999586,704.4612148999586,705.1782597000129,f,0.7034233000013046,None,704.4612148999586,704.4612148999586,704.4612148999586,,,,,,,,,,,,00054,001,2026-01-25_17h08.49.872,MST_task,2024.2.0,59.95886822428647,2026-01-25 17h09.14.257002 +0530,
,Objects\015a.jpg,151,0,152,,,,,,,f,None,,,2.149779600033071,0.17605429998366162,,,,152,0,151,705.1944188000052,,,,,,,,,,,,,,,,,,,,,,,705.1783466999768,705.1944188000052,705.6781258999836,,,,,,,,,,,,705.6947945000138,,,,,,,,,,,,,,,705.687760700006,705.6947945000138,705.6947945000138,705.6947945000138,708.6784118000069,f,708.6784660000121,,,708.6784785999916,None,,,708.6945397999953,708.6945397999953,708.6945397999953,2.149779600033071,0.17605429998366162,,,,,,,,,,00054,001,2026-01-25_17h08.49.872,MST_task,2024.2.0,59.95886822428647,2026-01-25 17h09.14.257002 +0530,
,Objects\096a.jpg,152,0,153,,,,,,,f,None,,,1.6498073000111617,0.13701110001420602,,,,153,0,152,708.6945397999953,,,,,,,,,,,,,,,,,,,,,,,708.6785633999971,708.6945397999953,709.1781952999881,,,,,,,,,,,,709.1947667999775,,,,,,,,,,,,,,,709.1878406999749,709.1947667999775,709.1947667999775,709.1947667999775,712.1785798000055,f,712.1786407000036,,,712.178652499977,None,,,712.1944603999727,712.1944603999727,712.1944603999727,1.6498073000111617,0.13701110001420602,,,,,,,,,,00054,001,2026-01-25_17h08.49.872,MST_task,2024.2.0,59.95886822428647,2026-01-25 17h09.14.257002 +0530,
,Objects\115a.jpg,153,0,154,,,,,,,f,None,,,1.357715799997095,0.15194700000574812,,,,154,0,153,712.1944603999727,,,,,,,,,,,,,,,,,,,,,,,712.1787185999565,712.1944603999727,712.678273700003,,,,,,,,,,,,712.6947347999667,,,,,,,,,,,,,,,712.6887186999666,712.6947347999667,712.6947347999667,712.6947347999667,715.6783874999965,f,715.6784410999971,,,715.6784524999675,None,,,715.694429199968,715.694429199968,715.694429199968,1.357715799997095,0.15194700000574812,,,,,,,,,,00054,001,2026-01-25_17h08.49.872,MST_task,2024.2.0,59.95886822428647,2026-01-25 17h09.14.257002 +0530,
,Scenes\139a.jpg,154,0,155,,,,,,,j,None,,,1.8337103000376374,0.11180640000384301,,,,155,0,154,715.694429199968,,,,,,,,,,,,,,,,,,,,,,,715.6785475999932,715.694429199968,716.17829359998,,,,,,,,,,,,716.1950853999588,,,,,,,,,,,,,,,716.1898493999615,716.1950853999588,716.1950853999588,716.1950853999588,719.1784418000025,j,719.1784961000085,,,719.1785074999789,None,,,719.1945242999936,719.1945242999936,719.1945242999936,1.8337103000376374,0.11180640000384301,,,,,,,,,,00054,001,2026-01-25_17h08.49.872,MST_task,2024.2.0,59.95886822428647,2026-01-25 17h09.14.257002 +0530,
,Scenes\062a.jpg,155,0,156,,,,,,,None,j,0.29356699995696545,None,,,,,,156,0,155,719.1945242999936,,,,,,,,,,,,,,,,,,,,,,,719.1785921999835,719.1945242999936,719.6781400999753,,,,,,,,,,,,719.6997667999822,,,,,,,,,,,,,,,719.6971993999905,719.6997667999822,719.6997667999822,719.6997667999822,722.6947846999974,None,722.6948399000103,722.7112174999784,722.7112174999784,723.0116792999906,j,0.29356699995696545,None,,,,,,,,,,,,,,,00054,001,2026-01-25_17h08.49.872,MST_task,2024.2.0,59.95886822428647,2026-01-25 17h09.14.257002 +0530,
,Scenes\168a.jpg,156,0,157,,,,,,,j,None,,,0.9561921000131406,0.08799490000819787,,,,157,0,156,723.0278498000116,,,,,,,,,,,,,,,,,,,,,,,723.0117983999662,723.0278498000116,723.511492199963,,,,,,,,,,,,723.5285888999933,,,,,,,,,,,,,,,723.5240678999689,723.5285888999933,723.5285888999933,723.5285888999933,726.511809699994,j,726.5118636999978,,,726.5118758999743,None,,,726.5280489999568,726.5280489999568,726.5280489999568,0.9561921000131406,0.08799490000819787,,,,,,,,,,00054,001,2026-01-25_17h08.49.872,MST_task,2024.2.0,59.95886822428647,2026-01-25 17h09.14.257002 +0530,
,Scenes\008a.jpg,157,0,158,,,,,,,j,None,,,0.7993053999962285,0.08801369997672737,,,,158,0,157,726.5280489999568,,,,,,,,,,,,,,,,,,,,,,,726.5119391999906,726.5280489999568,727.0115453999606,,,,,,,,,,,,727.0286541999667,,,,,,,,,,,,,,,727.0255214999779,727.0286541999667,727.0286541999667,727.0286541999667,730.0123337999685,j,730.0123966999818,,,730.0124094999628,None,,,730.0280341999605,730.0280341999605,730.0280341999605,0.7993053999962285,0.08801369997672737,,,,,,,,,,00054,001,2026-01-25_17h08.49.872,MST_task,2024.2.0,59.95886822428647,2026-01-25 17h09.14.257002 +0530,
,Scenes\159a.jpg,158,0,159,,,,,,,j,None,,,0.910828800057061,0.1353629999794066,,,,159,0,158,730.0280341999605,,,,,,,,,,,,,,,,,,,,,,,730.0124759000028,730.0280341999605,730.511734700005,,,,,,,,,,,,730.5336305999663,,,,,,,,,,,,,,,730.5311017999775,730.5336305999663,730.5336305999663,730.5336305999663,733.5282044999767,j,733.5282579999766,,,733.5282705000136,None,,,,,,0.910828800057061,0.1353629999794066,,,,,,,,,,00054,001,2026-01-25_17h08.49.872,MST_task,2024.2.0,59.95886822428647,2026-01-25 17h09.14.257002 +0530,
,Scenes\188a.jpg,159,0,160,,,,,,,j,None,,,1.0632845000363886,0.0954933000029996,,,,160,0,159,733.5446981999557,,,,,,,,,,,,,,,,,,,,,,,733.528362699959,733.5446981999557,734.0282599999919,,,,,,,,,,,,734.045456199965,,,,,,,,,,,,,,,734.0406982999993,734.045456199965,734.045456199965,734.045456199965,737.0286581999972,j,737.0287141999579,,,737.0287260999903,None,,,737.0445772999665,737.0445772999665,737.0445772999665,1.0632845000363886,0.0954933000029996,,,,,,,,,,00054,001,2026-01-25_17h08.49.872,MST_task,2024.2.0,59.95886822428647,2026-01-25 17h09.14.257002 +0530,
,Scenes\136a.jpg,160,0,161,,,,,,,None,f,2.1879330999800004,None,,,,,,161,0,160,737.0445772999665,,,,,,,,,,,,,,,,,,,,,,,737.0287918999675,737.0445772999665,737.5282529999968,,,,,,,,,,,,737.545223299996,,,,,,,,,,,,,,,737.5409958999953,737.545223299996,737.545223299996,737.545223299996,740.5285437999992,None,740.5286016999744,740.5446302999626,740.5446302999626,742.7448974999716,f,2.1879330999800004,None,740.5446302999626,740.5446302999626,740.5446302999626,,,,,,,,,,,,00054,001,2026-01-25_17h08.49.872,MST_task,2024.2.0,59.95886822428647,2026-01-25 17h09.14.257002 +0530,
,Objects\043a.jpg,161,0,162,,,,,,,None,f,0.3346113999723457,None,,,,,,162,0,161,742.7613850999624,,,,,,,,,,,,,,,,,,,,,,,742.7450263999635,742.7613850999624,743.2449110999587,,,,,,,,,,,,743.2618848999846,,,,,,,,,,,,,,,743.2547373999842,743.2618848999846,743.2618848999846,743.2618848999846,746.2452985999989,None,746.2453483999707,746.2612947999733,746.2612947999733,746.6118204999948,f,0.3346113999723457,None,746.2612947999733,746.2612947999733,746.2612947999733,,,,,,,,,,,,00054,001,2026-01-25_17h08.49.872,MST_task,2024.2.0,59.95886822428647,2026-01-25 17h09.14.257002 +0530,
