thisN,thisTrialN,thisRepN,key_resp_3.keys,key_resp_3.rt,key_resp_3.duration,trials.thisRepN,trials.thisTrialN,trials.thisN,thisRow.t,notes,intro_page.started,text.started,key_resp.started,intro_page.stopped,key_resp.keys,key_resp.rt,key_resp.duration,instructions.started,text_2.started,key_resp_2.started,instructions.stopped,key_resp_2.keys,key_resp_2.rt,key_resp_2.duration,demo1.started,image_1.started,image_2.started,text_7.started,key_resp_6.started,text_9.started,demo1.stopped,key_resp_6.keys,key_resp_6.rt,key_resp_6.duration,demo2.started,image_5.started,image_6.started,text_11.started,text_12.started,key_resp_8.started,demo2.stopped,key_resp_8.keys,key_resp_8.rt,key_resp_8.duration,demo_conclusion.started,text_13.started,key_resp_9.started,demo_conclusion.stopped,key_resp_9.keys,key_resp_9.rt,key_resp_9.duration,start_test.started,text_6.started,key_resp_5.started,start_test.stopped,key_resp_5.keys,key_resp_5.rt,key_resp_5.duration,ISI.started,text_4.started,text_4.stopped,ISI.stopped,routine_1.started,image.started,text_3.started,key_resp_3.started,routine_1.stopped,image_path,position_of_stimuli,trials.key_resp_3.keys,trials.key_resp_3.rt,trials.key_resp_3.duration,End_page.started,text_5.started,key_resp_4.started,End_page.stopped,key_resp_4.keys,key_resp_4.rt,key_resp_4.duration,participant,session,date,expName,psychopyVersion,frameRate,expStart,
,,,,,,,,,,,0.001178800000047886,0.028732200000035846,0.028732200000035846,5.89997679999999,space,5.528760000000034,None,,,,,,,,,,,,,,,,,,,,,,,,,,,,,,,,,,,,,,,,,,,,,,,,,,,,,,,,,,,,,,,00050,001,2026-01-25_12h06.10.875,MST_test,2024.2.0,59.947761520621505,2026-01-25 12h06.25.410447 +0530,
,,,,,,,,,,,,,,,,,,5.900044600000001,5.914000700000088,5.914000700000088,11.909039300000018,space,5.979466500000058,None,,,,,,,,,,,,,,,,,,,,,,,,,,,,,,,,,,,,,,,,,,,,,,,,,,,,,,,,00050,001,2026-01-25_12h06.10.875,MST_test,2024.2.0,59.947761520621505,2026-01-25 12h06.25.410447 +0530,
,,,,,,,,,,,,,,,,,,,,,,,,,11.909154600000079,11.97832679999999,11.97832679999999,11.97832679999999,11.97832679999999,11.97832679999999,28.492619500000046,space,16.50689639999996,None,,,,,,,,,,,,,,,,,,,,,,,,,,,,,,,,,,,,,,,,,,,,,,00050,001,2026-01-25_12h06.10.875,MST_test,2024.2.0,59.947761520621505,2026-01-25 12h06.25.410447 +0530,
,,,,,,,,,,,,,,,,,,,,,,,,,,,,,,,,,,,28.492718200000013,28.50883280000005,28.50883280000005,28.50883280000005,28.50883280000005,28.50883280000005,35.15944730000001,space,6.64033459999996,None,,,,,,,,,,,,,,,,,,,,,,,,,,,,,,,,,,,,00050,001,2026-01-25_12h06.10.875,MST_test,2024.2.0,59.947761520621505,2026-01-25 12h06.25.410447 +0530,
,,,,,,,,,,,,,,,,,,,,,,,,,,,,,,,,,,,,,,,,,,,,,35.15955040000006,35.175156300000026,35.175156300000026,62.24192110000001,space,27.062131600000043,None,,,,,,,,,,,,,,,,,,,,,,,,,,,,,00050,001,2026-01-25_12h06.10.875,MST_test,2024.2.0,59.947761520621505,2026-01-25 12h06.25.410447 +0530,
,,,,,,,,,,,,,,,,,,,,,,,,,,,,,,,,,,,,,,,,,,,,,,,,,,,,62.241977200000065,62.258219199999985,62.258219199999985,66.65902370000003,space,4.387086400000044,None,,,,,,,,,,,,,,,,,,,,,,00050,001,2026-01-25_12h06.10.875,MST_test,2024.2.0,59.947761520621505,2026-01-25 12h06.25.410447 +0530,
0,0,1,o,6.721513200000004,None,1,0,0,66.67505830000005,,,,,,,,,,,,,,,,,,,,,,,,,,,,,,,,,,,,,,,,,,,,,,,,,,66.67107370000008,66.67505830000005,67.18790750000005,67.15893879999999,67.18564300000003,67.18790750000005,67.18790750000005,67.18790750000005,73.9258638,Objects\048a.jpg,mid,o,6.721513200000004,None,,,,,,,,00050,001,2026-01-25_12h06.10.875,MST_test,2024.2.0,59.947761520621505,2026-01-25 12h06.25.410447 +0530,
1,0,2,o,2.762505000000033,None,2,0,1,73.94163590000005,,,,,,,,,,,,,,,,,,,,,,,,,,,,,,,,,,,,,,,,,,,,,,,,,,73.92620499999998,73.94163590000005,74.45085219999999,74.42554919999998,74.44895330000008,74.45085219999999,74.45085219999999,74.45085219999999,77.22589040000003,Objects\039a.jpg,mid,o,2.762505000000033,None,,,,,,,,00050,001,2026-01-25_12h06.10.875,MST_test,2024.2.0,59.947761520621505,2026-01-25 12h06.25.410447 +0530,
2,0,3,o,3.736350200000061,None,3,0,2,77.24174249999999,,,,,,,,,,,,,,,,,,,,,,,,,,,,,,,,,,,,,,,,,,,,,,,,,,77.22632550000003,77.24174249999999,77.74902440000005,77.7255973,77.74646480000001,77.74902440000005,77.74902440000005,77.74902440000005,81.49246520000008,Objects\020a.jpg,post,o,3.736350200000061,None,,,,,,,,00050,001,2026-01-25_12h06.10.875,MST_test,2024.2.0,59.947761520621505,2026-01-25 12h06.25.410447 +0530,
3,0,4,s,4.949972100000082,None,4,0,3,81.50867019999998,,,,,,,,,,,,,,,,,,,,,,,,,,,,,,,,,,,,,,,,,,,,,,,,,,81.49282430000005,81.50867019999998,82.06338890000006,81.99209930000006,82.06074660000002,82.06338890000006,82.06338890000006,82.06338890000006,87.02580360000002,Scenes\076b.jpg,mid,s,4.949972100000082,None,,,,,,,,00050,001,2026-01-25_12h06.10.875,MST_test,2024.2.0,59.947761520621505,2026-01-25 12h06.25.410447 +0530,
4,0,5,o,2.9022054000000708,None,5,0,4,87.04181960000005,,,,,,,,,,,,,,,,,,,,,,,,,,,,,,,,,,,,,,,,,,,,,,,,,,87.02615830000002,87.04181960000005,87.59095380000008,87.52553980000005,87.58765920000008,87.59095380000008,87.59095380000008,87.59095380000008,90.50925260000008,Scenes\019b.jpg,post,o,2.9022054000000708,None,,,,,,,,00050,001,2026-01-25_12h06.10.875,MST_test,2024.2.0,59.947761520621505,2026-01-25 12h06.25.410447 +0530,
5,0,6,n,5.5823891,None,6,0,5,90.52510819999998,,,,,,,,,,,,,,,,,,,,,,,,,,,,,,,,,,,,,,,,,,,,,,,,,,90.50962530000004,90.52510819999998,91.05490640000005,91.00875130000009,91.05255850000003,91.05490640000005,91.05490640000005,91.05490640000005,96.64249140000004,Objects\089b.jpg,mid,n,5.5823891,None,,,,,,,,00050,001,2026-01-25_12h06.10.875,MST_test,2024.2.0,59.947761520621505,2026-01-25 12h06.25.410447 +0530,
6,0,7,s,5.5747014999999465,None,7,0,6,96.6582707,,,,,,,,,,,,,,,,,,,,,,,,,,,,,,,,,,,,,,,,,,,,,,,,,,96.64285140000004,96.6582707,97.18271630000004,97.14221229999998,97.18009419999998,97.18271630000004,97.18271630000004,97.18271630000004,102.75898519999998,Objects\122b.jpg,pre,s,5.5747014999999465,None,,,,,,,,00050,001,2026-01-25_12h06.10.875,MST_test,2024.2.0,59.947761520621505,2026-01-25 12h06.25.410447 +0530,
7,0,8,o,1.5894988000000012,None,8,0,7,102.77514930000007,,,,,,,,,,,,,,,,,,,,,,,,,,,,,,,,,,,,,,,,,,,,,,,,,,102.75933320000001,102.77514930000007,103.2796654,103.25870889999999,103.27760120000005,103.2796654,103.2796654,103.2796654,104.87593460000005,Objects\157a.jpg,pre,o,1.5894988000000012,None,,,,,,,,00050,001,2026-01-25_12h06.10.875,MST_test,2024.2.0,59.947761520621505,2026-01-25 12h06.25.410447 +0530,
8,0,9,o,3.6784862000000658,None,9,0,8,104.89188360000003,,,,,,,,,,,,,,,,,,,,,,,,,,,,,,,,,,,,,,,,,,,,,,,,,,104.87629030000005,104.89188360000003,105.41459050000003,105.37562250000008,105.41155780000008,105.41459050000003,105.41459050000003,105.41459050000003,109.10908800000004,Objects\037b.jpg,post,o,3.6784862000000658,None,,,,,,,,00050,001,2026-01-25_12h06.10.875,MST_test,2024.2.0,59.947761520621505,2026-01-25 12h06.25.410447 +0530,
9,0,10,s,3.721949699999982,None,10,0,9,109.12513339999998,,,,,,,,,,,,,,,,,,,,,,,,,,,,,,,,,,,,,,,,,,,,,,,,,,109.10944820000009,109.12513339999998,109.62743269999999,109.60884959999999,109.62510930000008,109.62743269999999,109.62743269999999,109.62743269999999,113.35911140000007,Scenes\185a.jpg,pre,s,3.721949699999982,None,,,,,,,,00050,001,2026-01-25_12h06.10.875,MST_test,2024.2.0,59.947761520621505,2026-01-25 12h06.25.410447 +0530,
10,0,11,o,5.61677880000002,None,11,0,10,113.3752164,,,,,,,,,,,,,,,,,,,,,,,,,,,,,,,,,,,,,,,,,,,,,,,,,,113.35947570000008,113.3752164,113.90049150000004,113.85879120000004,113.89787510000008,113.90049150000004,113.90049150000004,113.90049150000004,119.52597179999998,Scenes\013b.jpg,post,o,5.61677880000002,None,,,,,,,,00050,001,2026-01-25_12h06.10.875,MST_test,2024.2.0,59.947761520621505,2026-01-25 12h06.25.410447 +0530,
11,0,12,s,3.068498800000043,None,12,0,11,119.54187180000008,,,,,,,,,,,,,,,,,,,,,,,,,,,,,,,,,,,,,,,,,,,,,,,,,,119.52632520000009,119.54187180000008,120.05676030000006,120.02568100000008,120.05423259999998,120.05676030000006,120.05676030000006,120.05676030000006,123.1261819,Scenes\161a.jpg,pre,s,3.068498800000043,None,,,,,,,,00050,001,2026-01-25_12h06.10.875,MST_test,2024.2.0,59.947761520621505,2026-01-25 12h06.25.410447 +0530,
12,0,13,o,1.7081468000000086,None,13,0,12,123.14179490000004,,,,,,,,,,,,,,,,,,,,,,,,,,,,,,,,,,,,,,,,,,,,,,,,,,123.12658840000006,123.14179490000004,123.64915130000009,123.62565260000008,123.64672500000006,123.64915130000009,123.64915130000009,123.64915130000009,125.35900609999999,Objects\123a.jpg,post,o,1.7081468000000086,None,,,,,,,,00050,001,2026-01-25_12h06.10.875,MST_test,2024.2.0,59.947761520621505,2026-01-25 12h06.25.410447 +0530,
13,0,14,s,3.8764330999999856,None,14,0,13,125.37496970000007,,,,,,,,,,,,,,,,,,,,,,,,,,,,,,,,,,,,,,,,,,,,,,,,,,125.35931070000004,125.37496970000007,125.88091600000007,125.85892750000005,125.87855009999998,125.88091600000007,125.88091600000007,125.88091600000007,129.7589686,Objects\098a.jpg,post,s,3.8764330999999856,None,,,,,,,,00050,001,2026-01-25_12h06.10.875,MST_test,2024.2.0,59.947761520621505,2026-01-25 12h06.25.410447 +0530,
14,0,15,n,2.7911514999999554,None,15,0,14,129.77525230000003,,,,,,,,,,,,,,,,,,,,,,,,,,,,,,,,,,,,,,,,,,,,,,,,,,129.75931420000006,129.77525230000003,130.27823650000005,130.2587781000001,130.2760601,130.27823650000005,130.27823650000005,130.27823650000005,133.07581170000003,Foils\033a.jpg,none,n,2.7911514999999554,None,,,,,,,,00050,001,2026-01-25_12h06.10.875,MST_test,2024.2.0,59.947761520621505,2026-01-25 12h06.25.410447 +0530,
15,0,16,s,4.218175500000029,None,16,0,15,133.09180830000003,,,,,,,,,,,,,,,,,,,,,,,,,,,,,,,,,,,,,,,,,,,,,,,,,,133.0761642,133.09180830000003,133.60372130000007,133.5757337,133.60121230000004,133.60372130000007,133.60372130000007,133.60372130000007,137.82591650000006,Scenes\065a.jpg,mid,s,4.218175500000029,None,,,,,,,,00050,001,2026-01-25_12h06.10.875,MST_test,2024.2.0,59.947761520621505,2026-01-25 12h06.25.410447 +0530,
16,0,17,s,7.10871469999995,None,17,0,16,137.8418868,,,,,,,,,,,,,,,,,,,,,,,,,,,,,,,,,,,,,,,,,,,,,,,,,,137.82628650000004,137.8418868,138.40071799999998,138.3255891,138.39780510000003,138.40071799999998,138.40071799999998,138.40071799999998,145.52587870000002,Scenes\125b.jpg,post,s,7.10871469999995,None,,,,,,,,00050,001,2026-01-25_12h06.10.875,MST_test,2024.2.0,59.947761520621505,2026-01-25 12h06.25.410447 +0530,
17,0,18,s,8.86298880000004,None,18,0,17,145.5419425,,,,,,,,,,,,,,,,,,,,,,,,,,,,,,,,,,,,,,,,,,,,,,,,,,145.52627510000002,145.5419425,146.27027420000002,146.0257177000001,146.26717840000003,146.27027420000002,146.27027420000002,146.27027420000002,155.14252340000007,Scenes\117b.jpg,mid,s,8.86298880000004,None,,,,,,,,00050,001,2026-01-25_12h06.10.875,MST_test,2024.2.0,59.947761520621505,2026-01-25 12h06.25.410447 +0530,
18,0,19,s,4.716323100000068,None,19,0,18,155.1584775,,,,,,,,,,,,,,,,,,,,,,,,,,,,,,,,,,,,,,,,,,,,,,,,,,155.14293600000008,155.1584775,155.68080200000009,155.64228020000007,155.678182,155.68080200000009,155.68080200000009,155.68080200000009,160.4089798,Scenes\112b.jpg,pre,s,4.716323100000068,None,,,,,,,,00050,001,2026-01-25_12h06.10.875,MST_test,2024.2.0,59.947761520621505,2026-01-25 12h06.25.410447 +0530,
19,0,20,o,1.6393616000000293,None,20,0,19,160.42516820000003,,,,,,,,,,,,,,,,,,,,,,,,,,,,,,,,,,,,,,,,,,,,,,,,,,160.40913640000008,160.42516820000003,160.93385039999998,160.90840820000005,160.9317549,160.93385039999998,160.93385039999998,160.93385039999998,162.57562700000005,Scenes\054a.jpg,post,o,1.6393616000000293,None,,,,,,,,00050,001,2026-01-25_12h06.10.875,MST_test,2024.2.0,59.947761520621505,2026-01-25 12h06.25.410447 +0530,
20,0,21,n,2.426593300000036,None,21,0,20,162.59164570000007,,,,,,,,,,,,,,,,,,,,,,,,,,,,,,,,,,,,,,,,,,,,,,,,,,162.57573390000005,162.59164570000007,163.09911950000003,163.07569690000003,163.0965708,163.09911950000003,163.09911950000003,163.09911950000003,165.5423551,Objects\111a.jpg,post,n,2.426593300000036,None,,,,,,,,00050,001,2026-01-25_12h06.10.875,MST_test,2024.2.0,59.947761520621505,2026-01-25 12h06.25.410447 +0530,
21,0,22,s,3.9218722000000525,None,22,0,21,165.5584096,,,,,,,,,,,,,,,,,,,,,,,,,,,,,,,,,,,,,,,,,,,,,,,,,,165.542682,165.5584096,166.07529770000008,166.04216670000005,166.07266030000005,166.07529770000008,166.07529770000008,166.07529770000008,170.00920310000004,Scenes\016b.jpg,mid,s,3.9218722000000525,None,,,,,,,,00050,001,2026-01-25_12h06.10.875,MST_test,2024.2.0,59.947761520621505,2026-01-25 12h06.25.410447 +0530,
22,0,23,n,2.011361999999963,None,23,0,22,170.02495240000007,,,,,,,,,,,,,,,,,,,,,,,,,,,,,,,,,,,,,,,,,,,,,,,,,,170.0094524,170.02495240000007,170.52980860000002,170.5084117,170.52769130000001,170.52980860000002,170.52980860000002,170.52980860000002,172.54237210000008,Foils\105a.jpg,none,n,2.011361999999963,None,,,,,,,,00050,001,2026-01-25_12h06.10.875,MST_test,2024.2.0,59.947761520621505,2026-01-25 12h06.25.410447 +0530,
23,0,24,n,2.0904597999999623,None,24,0,23,172.55902000000003,,,,,,,,,,,,,,,,,,,,,,,,,,,,,,,,,,,,,,,,,,,,,,,,,,172.54250660000002,172.55902000000003,173.07502910000005,173.04199920000008,173.07275040000002,173.07502910000005,173.07502910000005,173.07502910000005,175.17581270000005,Foils\073a.jpg,none,n,2.0904597999999623,None,,,,,,,,00050,001,2026-01-25_12h06.10.875,MST_test,2024.2.0,59.947761520621505,2026-01-25 12h06.25.410447 +0530,
24,0,25,n,3.0228556999999228,None,25,0,24,175.19167690000006,,,,,,,,,,,,,,,,,,,,,,,,,,,,,,,,,,,,,,,,,,,,,,,,,,175.17617870000004,175.19167690000006,175.71026630000006,175.67529130000003,175.70753520000005,175.71026630000006,175.71026630000006,175.71026630000006,178.742209,Scenes\036b.jpg,mid,n,3.0228556999999228,None,,,,,,,,00050,001,2026-01-25_12h06.10.875,MST_test,2024.2.0,59.947761520621505,2026-01-25 12h06.25.410447 +0530,
25,0,26,o,1.3210765000000038,None,26,0,25,178.75843800000007,,,,,,,,,,,,,,,,,,,,,,,,,,,,,,,,,,,,,,,,,,,,,,,,,,178.74255370000003,178.75843800000007,179.2680798,179.24191040000005,179.2658311,179.2680798,179.2680798,179.2680798,180.59232180000004,Foils\066a.jpg,none,o,1.3210765000000038,None,,,,,,,,00050,001,2026-01-25_12h06.10.875,MST_test,2024.2.0,59.947761520621505,2026-01-25 12h06.25.410447 +0530,
26,0,27,o,1.9046999999999343,None,27,0,26,180.6093078,,,,,,,,,,,,,,,,,,,,,,,,,,,,,,,,,,,,,,,,,,,,,,,,,,180.59268580000003,180.6093078,181.10846320000007,181.09197840000002,181.1060486,181.10846320000007,181.10846320000007,181.10846320000007,183.02564310000002,Objects\112a.jpg,mid,o,1.9046999999999343,None,,,,,,,,00050,001,2026-01-25_12h06.10.875,MST_test,2024.2.0,59.947761520621505,2026-01-25 12h06.25.410447 +0530,
27,0,28,s,2.7443353000001025,None,28,0,27,183.04172660000006,,,,,,,,,,,,,,,,,,,,,,,,,,,,,,,,,,,,,,,,,,,,,,,,,,183.02595029999998,183.04172660000006,183.55690820000007,183.52516630000002,183.55470520000006,183.55690820000007,183.55690820000007,183.55690820000007,186.30915660000005,Objects\069b.jpg,post,s,2.7443353000001025,None,,,,,,,,00050,001,2026-01-25_12h06.10.875,MST_test,2024.2.0,59.947761520621505,2026-01-25 12h06.25.410447 +0530,
28,0,29,o,1.5235692999999628,None,29,0,28,186.3250955000001,,,,,,,,,,,,,,,,,,,,,,,,,,,,,,,,,,,,,,,,,,,,,,,,,,186.3095078,186.3250955000001,186.8495656,186.80895450000003,186.84683730000006,186.8495656,186.8495656,186.8495656,188.37676440000007,Scenes\037b.jpg,pre,o,1.5235692999999628,None,,,,,,,,00050,001,2026-01-25_12h06.10.875,MST_test,2024.2.0,59.947761520621505,2026-01-25 12h06.25.410447 +0530,
29,0,30,n,3.1367530999999644,None,30,0,29,188.39163600000006,,,,,,,,,,,,,,,,,,,,,,,,,,,,,,,,,,,,,,,,,,,,,,,,,,188.37712740000006,188.39163600000006,188.89245160000007,188.87554999999998,188.88790930000005,188.89245160000007,188.89245160000007,188.89245160000007,192.042373,Foils\scenes20.jpg,none,n,3.1367530999999644,None,,,,,,,,00050,001,2026-01-25_12h06.10.875,MST_test,2024.2.0,59.947761520621505,2026-01-25 12h06.25.410447 +0530,
30,0,31,o,1.659599900000103,None,31,0,30,192.05844360000003,,,,,,,,,,,,,,,,,,,,,,,,,,,,,,,,,,,,,,,,,,,,,,,,,,192.0427049,192.05844360000003,192.56950230000007,192.54215220000003,192.5672502,192.56950230000007,192.56950230000007,192.56950230000007,194.2421425,Scenes\181a.jpg,post,o,1.659599900000103,None,,,,,,,,00050,001,2026-01-25_12h06.10.875,MST_test,2024.2.0,59.947761520621505,2026-01-25 12h06.25.410447 +0530,
31,0,32,n,2.029320299999995,None,32,0,31,194.25853690000008,,,,,,,,,,,,,,,,,,,,,,,,,,,,,,,,,,,,,,,,,,,,,,,,,,194.24230520000003,194.25853690000008,194.76783139999998,194.7416075,194.7653001,194.76783139999998,194.76783139999998,194.76783139999998,196.8091422,Foils\020b.jpg,none,n,2.029320299999995,None,,,,,,,,00050,001,2026-01-25_12h06.10.875,MST_test,2024.2.0,59.947761520621505,2026-01-25 12h06.25.410447 +0530,
32,0,33,o,3.29307110000002,None,33,0,32,196.82529180000006,,,,,,,,,,,,,,,,,,,,,,,,,,,,,,,,,,,,,,,,,,,,,,,,,,196.80925539999998,196.82529180000006,197.328083,197.30888950000008,197.32551669999998,197.328083,197.328083,197.328083,200.62589960000003,Scenes\097a.jpg,mid,o,3.29307110000002,None,,,,,,,,00050,001,2026-01-25_12h06.10.875,MST_test,2024.2.0,59.947761520621505,2026-01-25 12h06.25.410447 +0530,
33,0,34,o,1.515421100000026,None,34,0,33,200.64167559999999,,,,,,,,,,,,,,,,,,,,,,,,,,,,,,,,,,,,,,,,,,,,,,,,,,200.62621000000001,200.64167559999999,201.1538233,201.12534349999999,201.15131760000008,201.1538233,201.1538233,201.1538233,202.67589310000005,Scenes\165a.jpg,post,o,1.515421100000026,None,,,,,,,,00050,001,2026-01-25_12h06.10.875,MST_test,2024.2.0,59.947761520621505,2026-01-25 12h06.25.410447 +0530,
34,0,35,o,3.316776300000015,None,35,0,34,202.6916777,,,,,,,,,,,,,,,,,,,,,,,,,,,,,,,,,,,,,,,,,,,,,,,,,,202.6760256,202.6916777,203.1924672,203.1754473000001,203.1892623,203.1924672,203.1924672,203.1924672,206.5258093,Objects\156a.jpg,pre,o,3.316776300000015,None,,,,,,,,00050,001,2026-01-25_12h06.10.875,MST_test,2024.2.0,59.947761520621505,2026-01-25 12h06.25.410447 +0530,
35,0,36,n,3.705267700000036,None,36,0,35,206.5416759000001,,,,,,,,,,,,,,,,,,,,,,,,,,,,,,,,,,,,,,,,,,,,,,,,,,206.5261746,206.5416759000001,207.06009830000005,207.02534620000006,207.05671670000004,207.06009830000005,207.06009830000005,207.06009830000005,210.77583370000002,Foils\scenes7.jpg,none,n,3.705267700000036,None,,,,,,,,00050,001,2026-01-25_12h06.10.875,MST_test,2024.2.0,59.947761520621505,2026-01-25 12h06.25.410447 +0530,
36,0,37,o,10.197416099999941,None,37,0,36,210.79182990000004,,,,,,,,,,,,,,,,,,,,,,,,,,,,,,,,,,,,,,,,,,,,,,,,,,210.77594580000004,210.79182990000004,211.3118356,211.2755528,211.30939150000006,211.3118356,211.3118356,211.3118356,221.52604800000006,Objects\183b.jpg,pre,o,10.197416099999941,None,,,,,,,,00050,001,2026-01-25_12h06.10.875,MST_test,2024.2.0,59.947761520621505,2026-01-25 12h06.25.410447 +0530,
37,0,38,n,5.472295600000052,None,38,0,37,221.5417519,,,,,,,,,,,,,,,,,,,,,,,,,,,,,,,,,,,,,,,,,,,,,,,,,,221.5262371,221.5417519,222.09292440000002,222.02541660000009,222.08949919999998,222.09292440000002,222.09292440000002,222.09292440000002,227.57613730000003,Foils\scenes15.jpg,none,n,5.472295600000052,None,,,,,,,,00050,001,2026-01-25_12h06.10.875,MST_test,2024.2.0,59.947761520621505,2026-01-25 12h06.25.410447 +0530,
38,0,39,n,4.052460999999994,None,39,0,38,227.59196770000005,,,,,,,,,,,,,,,,,,,,,,,,,,,,,,,,,,,,,,,,,,,,,,,,,,227.57637510000006,227.59196770000005,228.10504809999998,228.07525420000002,228.1031517,228.10504809999998,228.10504809999998,228.10504809999998,232.15914680000003,Foils\042a.jpg,none,n,4.052460999999994,None,,,,,,,,00050,001,2026-01-25_12h06.10.875,MST_test,2024.2.0,59.947761520621505,2026-01-25 12h06.25.410447 +0530,
39,0,40,o,1.4259478000000172,None,40,0,39,232.17504910000002,,,,,,,,,,,,,,,,,,,,,,,,,,,,,,,,,,,,,,,,,,,,,,,,,,232.15944520000005,232.17504910000002,232.6995994,232.65875260000007,232.69694290000007,232.6995994,232.6995994,232.6995994,234.14259400000003,Scenes\119b.jpg,mid,o,1.4259478000000172,None,,,,,,,,00050,001,2026-01-25_12h06.10.875,MST_test,2024.2.0,59.947761520621505,2026-01-25 12h06.25.410447 +0530,
40,0,41,s,1.5135228999999981,None,41,0,40,234.15875040000003,,,,,,,,,,,,,,,,,,,,,,,,,,,,,,,,,,,,,,,,,,,,,,,,,,234.1429362,234.15875040000003,234.6674352,234.64189510000006,234.6647266,234.6674352,234.6674352,234.6674352,236.19237080000005,Objects\170b.jpg,mid,s,1.5135228999999981,None,,,,,,,,00050,001,2026-01-25_12h06.10.875,MST_test,2024.2.0,59.947761520621505,2026-01-25 12h06.25.410447 +0530,
41,0,42,n,1.565963399999987,None,42,0,41,236.2085085,,,,,,,,,,,,,,,,,,,,,,,,,,,,,,,,,,,,,,,,,,,,,,,,,,236.1925990000001,236.2085085,236.71117530000004,236.6922161,236.70888120000006,236.71117530000004,236.71117530000004,236.71117530000004,238.29256180000004,Foils\026a.jpg,none,n,1.565963399999987,None,,,,,,,,00050,001,2026-01-25_12h06.10.875,MST_test,2024.2.0,59.947761520621505,2026-01-25 12h06.25.410447 +0530,
42,0,43,o,4.019005700000093,None,43,0,42,238.30857830000002,,,,,,,,,,,,,,,,,,,,,,,,,,,,,,,,,,,,,,,,,,,,,,,,,,238.29290060000005,238.30857830000002,238.84214710000003,238.79236120000007,238.83964260000005,238.84214710000003,238.84214710000003,238.84214710000003,242.87628400000006,Scenes\086a.jpg,pre,o,4.019005700000093,None,,,,,,,,00050,001,2026-01-25_12h06.10.875,MST_test,2024.2.0,59.947761520621505,2026-01-25 12h06.25.410447 +0530,
43,0,44,o,1.3798497999999881,None,44,0,43,242.89218970000002,,,,,,,,,,,,,,,,,,,,,,,,,,,,,,,,,,,,,,,,,,,,,,,,,,242.87665490000006,242.89218970000002,243.41000770000005,243.37597950000008,243.40731930000004,243.41000770000005,243.41000770000005,243.41000770000005,244.79262060000008,Scenes\078a.jpg,pre,o,1.3798497999999881,None,,,,,,,,00050,001,2026-01-25_12h06.10.875,MST_test,2024.2.0,59.947761520621505,2026-01-25 12h06.25.410447 +0530,
44,0,45,o,2.7043081000000484,None,45,0,44,244.80862639999998,,,,,,,,,,,,,,,,,,,,,,,,,,,,,,,,,,,,,,,,,,,,,,,,,,244.79297080000003,244.80862639999998,245.32496390000006,245.29251900000008,245.32200699999999,245.32496390000006,245.32496390000006,245.32496390000006,248.04274199999998,Scenes\129a.jpg,pre,o,2.7043081000000484,None,,,,,,,,00050,001,2026-01-25_12h06.10.875,MST_test,2024.2.0,59.947761520621505,2026-01-25 12h06.25.410447 +0530,
45,0,46,n,2.4393499000000247,None,46,0,45,248.05896180000002,,,,,,,,,,,,,,,,,,,,,,,,,,,,,,,,,,,,,,,,,,,,,,,,,,248.04317690000005,248.05896180000002,248.56578430000002,248.54229340000006,248.56306760000007,248.56578430000002,248.56578430000002,248.56578430000002,251.00934400000006,Foils\098a.jpg,none,n,2.4393499000000247,None,,,,,,,,00050,001,2026-01-25_12h06.10.875,MST_test,2024.2.0,59.947761520621505,2026-01-25 12h06.25.410447 +0530,
46,0,47,n,1.3396298000000115,None,47,0,46,251.02520980000008,,,,,,,,,,,,,,,,,,,,,,,,,,,,,,,,,,,,,,,,,,,,,,,,,,251.00970070000005,251.02520980000008,251.54603970000005,251.50931079999998,251.5435251,251.54603970000005,251.54603970000005,251.54603970000005,252.89283139999998,Foils\121a.jpg,none,n,1.3396298000000115,None,,,,,,,,00050,001,2026-01-25_12h06.10.875,MST_test,2024.2.0,59.947761520621505,2026-01-25 12h06.25.410447 +0530,
47,0,48,o,1.5063331999999718,None,48,0,47,252.9089308,,,,,,,,,,,,,,,,,,,,,,,,,,,,,,,,,,,,,,,,,,,,,,,,,,252.893188,252.9089308,253.44350500000007,253.3924981,253.44001860000003,253.44350500000007,253.44350500000007,253.44350500000007,254.95950530000005,Scenes\023b.jpg,pre,o,1.5063331999999718,None,,,,,,,,00050,001,2026-01-25_12h06.10.875,MST_test,2024.2.0,59.947761520621505,2026-01-25 12h06.25.410447 +0530,
48,0,49,s,2.9462630000000445,None,49,0,48,254.9755867,,,,,,,,,,,,,,,,,,,,,,,,,,,,,,,,,,,,,,,,,,,,,,,,,,254.95985400000006,254.9755867,255.5789932,255.45925740000007,255.57613860000004,255.5789932,255.5789932,255.5789932,258.52617540000006,Scenes\047b.jpg,mid,s,2.9462630000000445,None,,,,,,,,00050,001,2026-01-25_12h06.10.875,MST_test,2024.2.0,59.947761520621505,2026-01-25 12h06.25.410447 +0530,
49,0,50,s,2.3299799999999777,None,50,0,49,258.5418873,,,,,,,,,,,,,,,,,,,,,,,,,,,,,,,,,,,,,,,,,,,,,,,,,,258.52653050000004,258.5418873,259.0592745,259.0257044,259.0568789,259.0592745,259.0592745,259.0592745,261.3925355,Objects\191b.jpg,post,s,2.3299799999999777,None,,,,,,,,00050,001,2026-01-25_12h06.10.875,MST_test,2024.2.0,59.947761520621505,2026-01-25 12h06.25.410447 +0530,
50,0,51,n,1.269812600000023,None,51,0,50,261.40854580000007,,,,,,,,,,,,,,,,,,,,,,,,,,,,,,,,,,,,,,,,,,,,,,,,,,261.39277330000004,261.40854580000007,261.9195962,261.8925065000001,261.9172298000001,261.9195962,261.9195962,261.9195962,263.19286120000004,Foils\058a.jpg,none,n,1.269812600000023,None,,,,,,,,00050,001,2026-01-25_12h06.10.875,MST_test,2024.2.0,59.947761520621505,2026-01-25 12h06.25.410447 +0530,
51,0,52,o,1.1855223000000024,None,52,0,51,263.2089265000001,,,,,,,,,,,,,,,,,,,,,,,,,,,,,,,,,,,,,,,,,,,,,,,,,,263.1932137,263.2089265000001,263.7483347,263.6925774,263.7458468,263.7483347,263.7483347,263.7483347,264.94384,Scenes\062b.jpg,pre,o,1.1855223000000024,None,,,,,,,,00050,001,2026-01-25_12h06.10.875,MST_test,2024.2.0,59.947761520621505,2026-01-25 12h06.25.410447 +0530,
52,0,53,o,3.3688567000000376,None,53,0,52,264.95839450000005,,,,,,,,,,,,,,,,,,,,,,,,,,,,,,,,,,,,,,,,,,,,,,,,,,264.94419360000006,264.95839450000005,265.46981660000006,265.4426744,265.46692960000007,265.46981660000006,265.46981660000006,265.46981660000006,268.84291740000003,Objects\184a.jpg,mid,o,3.3688567000000376,None,,,,,,,,00050,001,2026-01-25_12h06.10.875,MST_test,2024.2.0,59.947761520621505,2026-01-25 12h06.25.410447 +0530,
53,0,54,s,2.2402673000000277,None,54,0,53,268.8587246000001,,,,,,,,,,,,,,,,,,,,,,,,,,,,,,,,,,,,,,,,,,,,,,,,,,268.8432672,268.8587246000001,269.4058374,269.3426984,269.4033878,269.4058374,269.4058374,269.4058374,271.66035050000005,Scenes\150b.jpg,mid,s,2.2402673000000277,None,,,,,,,,00050,001,2026-01-25_12h06.10.875,MST_test,2024.2.0,59.947761520621505,2026-01-25 12h06.25.410447 +0530,
54,0,55,n,2.914702600000055,None,55,0,54,271.67554370000005,,,,,,,,,,,,,,,,,,,,,,,,,,,,,,,,,,,,,,,,,,,,,,,,,,271.6607091000001,271.67554370000005,272.1784639,272.1594726000001,272.1762305000001,272.1784639,272.1784639,272.1784639,275.1096107000001,Foils\scenes29.jpg,none,n,2.914702600000055,None,,,,,,,,00050,001,2026-01-25_12h06.10.875,MST_test,2024.2.0,59.947761520621505,2026-01-25 12h06.25.410447 +0530,
55,0,56,o,1.3142119999999977,None,56,0,55,275.12565240000004,,,,,,,,,,,,,,,,,,,,,,,,,,,,,,,,,,,,,,,,,,,,,,,,,,275.1099892000001,275.12565240000004,275.6350221,275.6090166,275.63286270000003,275.6350221,275.6350221,275.6350221,276.9596838,Objects\095a.jpg,mid,o,1.3142119999999977,None,,,,,,,,00050,001,2026-01-25_12h06.10.875,MST_test,2024.2.0,59.947761520621505,2026-01-25 12h06.25.410447 +0530,
56,0,57,o,1.1413420999999744,None,57,0,56,276.97530270000004,,,,,,,,,,,,,,,,,,,,,,,,,,,,,,,,,,,,,,,,,,,,,,,,,,276.9600444,276.97530270000004,277.4798734000001,277.4592769000001,277.4778751,277.4798734000001,277.4798734000001,277.4798734000001,278.6258872000001,Objects\067a.jpg,pre,o,1.1413420999999744,None,,,,,,,,00050,001,2026-01-25_12h06.10.875,MST_test,2024.2.0,59.947761520621505,2026-01-25 12h06.25.410447 +0530,
57,0,58,o,1.1112013000000616,None,58,0,57,278.6421166,,,,,,,,,,,,,,,,,,,,,,,,,,,,,,,,,,,,,,,,,,,,,,,,,,278.62623770000005,278.6421166,279.1901336000001,279.1259344,279.18768980000004,279.1901336000001,279.1901336000001,279.1901336000001,280.30946670000003,Objects\043b.jpg,pre,o,1.1112013000000616,None,,,,,,,,00050,001,2026-01-25_12h06.10.875,MST_test,2024.2.0,59.947761520621505,2026-01-25 12h06.25.410447 +0530,
58,0,59,s,1.8451019000000315,None,59,0,58,280.32545760000005,,,,,,,,,,,,,,,,,,,,,,,,,,,,,,,,,,,,,,,,,,,,,,,,,,280.30984490000003,280.32545760000005,280.83212230000004,280.80935310000007,280.82975380000005,280.83212230000004,280.83212230000004,280.83212230000004,282.6931158,Foils\018a.jpg,none,s,1.8451019000000315,None,,,,,,,,00050,001,2026-01-25_12h06.10.875,MST_test,2024.2.0,59.947761520621505,2026-01-25 12h06.25.410447 +0530,
59,0,60,o,1.298933199999965,None,60,0,59,282.7087147000001,,,,,,,,,,,,,,,,,,,,,,,,,,,,,,,,,,,,,,,,,,,,,,,,,,282.69348360000004,282.7087147000001,283.2275306,283.1926168,283.2247936,283.2275306,283.2275306,283.2275306,284.54302570000004,Objects\085b.jpg,post,o,1.298933199999965,None,,,,,,,,00050,001,2026-01-25_12h06.10.875,MST_test,2024.2.0,59.947761520621505,2026-01-25 12h06.25.410447 +0530,
60,0,61,s,2.1343936000000667,None,61,0,60,284.5588014,,,,,,,,,,,,,,,,,,,,,,,,,,,,,,,,,,,,,,,,,,,,,,,,,,284.5433733,284.5588014,285.1030601,285.0424057,285.1003693,285.1030601,285.1030601,285.1030601,287.24266620000003,Objects\046b.jpg,mid,s,2.1343936000000667,None,,,,,,,,00050,001,2026-01-25_12h06.10.875,MST_test,2024.2.0,59.947761520621505,2026-01-25 12h06.25.410447 +0530,
61,0,62,n,1.3688702999999123,None,62,0,61,287.2588031,,,,,,,,,,,,,,,,,,,,,,,,,,,,,,,,,,,,,,,,,,,,,,,,,,287.2430138000001,287.2588031,287.7969633,287.74268400000005,287.7950145,287.7969633,287.7969633,287.7969633,289.17621270000006,Foils\017a.jpg,none,n,1.3688702999999123,None,,,,,,,,00050,001,2026-01-25_12h06.10.875,MST_test,2024.2.0,59.947761520621505,2026-01-25 12h06.25.410447 +0530,
62,0,63,o,1.3253510999999207,None,63,0,62,289.1922886,,,,,,,,,,,,,,,,,,,,,,,,,,,,,,,,,,,,,,,,,,,,,,,,,,289.1765736,289.1922886,289.7119071000001,289.67576080000003,289.70942390000005,289.7119071000001,289.7119071000001,289.7119071000001,291.04366820000007,Scenes\122a.jpg,pre,o,1.3253510999999207,None,,,,,,,,00050,001,2026-01-25_12h06.10.875,MST_test,2024.2.0,59.947761520621505,2026-01-25 12h06.25.410447 +0530,
63,0,64,s,2.8583869999999933,None,64,0,63,291.0589615,,,,,,,,,,,,,,,,,,,,,,,,,,,,,,,,,,,,,,,,,,,,,,,,,,291.0440232000001,291.0589615,291.6189997,291.5425196,291.61649480000005,291.6189997,291.6189997,291.6189997,294.49291760000006,Scenes\186b.jpg,pre,s,2.8583869999999933,None,,,,,,,,00050,001,2026-01-25_12h06.10.875,MST_test,2024.2.0,59.947761520621505,2026-01-25 12h06.25.410447 +0530,
64,0,65,s,1.2821682999999666,None,65,0,64,294.50888900000007,,,,,,,,,,,,,,,,,,,,,,,,,,,,,,,,,,,,,,,,,,,,,,,,,,294.49331770000003,294.50888900000007,295.0430916,294.9924744,295.04007580000007,295.0430916,295.0430916,295.0430916,296.3266483,Objects\160b.jpg,pre,s,1.2821682999999666,None,,,,,,,,00050,001,2026-01-25_12h06.10.875,MST_test,2024.2.0,59.947761520621505,2026-01-25 12h06.25.410447 +0530,
65,0,66,s,1.2062640000000329,None,66,0,65,296.34230690000004,,,,,,,,,,,,,,,,,,,,,,,,,,,,,,,,,,,,,,,,,,,,,,,,,,296.3270021000001,296.34230690000004,296.84712390000004,296.8258757,296.84463630000005,296.84712390000004,296.84712390000004,296.84712390000004,298.05943490000004,Objects\073a.jpg,pre,s,1.2062640000000329,None,,,,,,,,00050,001,2026-01-25_12h06.10.875,MST_test,2024.2.0,59.947761520621505,2026-01-25 12h06.25.410447 +0530,
66,0,67,o,1.3110193999999638,None,67,0,66,298.0752039,,,,,,,,,,,,,,,,,,,,,,,,,,,,,,,,,,,,,,,,,,,,,,,,,,298.0598047000001,298.0752039,298.59082750000005,298.5591875,298.58844380000005,298.59082750000005,298.59082750000005,298.59082750000005,299.9096267,Scenes\050a.jpg,mid,o,1.3110193999999638,None,,,,,,,,00050,001,2026-01-25_12h06.10.875,MST_test,2024.2.0,59.947761520621505,2026-01-25 12h06.25.410447 +0530,
67,0,68,o,1.4026913999999806,None,68,0,67,299.9255855,,,,,,,,,,,,,,,,,,,,,,,,,,,,,,,,,,,,,,,,,,,,,,,,,,299.9099777,299.9255855,300.4351240000001,300.4094033,300.43175080000003,300.4351240000001,300.4351240000001,300.4351240000001,301.8429589,Objects\100a.jpg,post,o,1.4026913999999806,None,,,,,,,,00050,001,2026-01-25_12h06.10.875,MST_test,2024.2.0,59.947761520621505,2026-01-25 12h06.25.410447 +0530,
68,0,69,o,1.0813346999999567,None,69,0,68,301.85886700000003,,,,,,,,,,,,,,,,,,,,,,,,,,,,,,,,,,,,,,,,,,,,,,,,,,301.84333730000003,301.85886700000003,302.3725227,302.34236410000005,302.3700294,302.3725227,302.3725227,302.3725227,303.45955590000005,Scenes\175a.jpg,mid,o,1.0813346999999567,None,,,,,,,,00050,001,2026-01-25_12h06.10.875,MST_test,2024.2.0,59.947761520621505,2026-01-25 12h06.25.410447 +0530,
69,0,70,o,1.0979807000001074,None,70,0,69,303.47559980000005,,,,,,,,,,,,,,,,,,,,,,,,,,,,,,,,,,,,,,,,,,,,,,,,,,303.4599059000001,303.47559980000005,304.0111623,303.9590383000001,304.0084696,304.0111623,304.0111623,304.0111623,305.1259418000001,Scenes\066b.jpg,mid,o,1.0979807000001074,None,,,,,,,,00050,001,2026-01-25_12h06.10.875,MST_test,2024.2.0,59.947761520621505,2026-01-25 12h06.25.410447 +0530,
70,0,71,s,30.287112500000035,None,71,0,70,305.14178820000006,,,,,,,,,,,,,,,,,,,,,,,,,,,,,,,,,,,,,,,,,,,,,,,,,,305.1262395,305.14178820000006,305.6545039,305.62607030000004,305.6514594,305.6545039,305.6545039,305.6545039,335.94303790000004,Objects\058a.jpg,pre,s,30.287112500000035,None,,,,,,,,00050,001,2026-01-25_12h06.10.875,MST_test,2024.2.0,59.947761520621505,2026-01-25 12h06.25.410447 +0530,
71,0,72,s,1.04434219999996,None,72,0,71,335.9590674,,,,,,,,,,,,,,,,,,,,,,,,,,,,,,,,,,,,,,,,,,,,,,,,,,335.9434152,335.9590674,336.480865,336.4426999,336.47837260000006,336.480865,336.480865,336.480865,337.5265097,Scenes\179b.jpg,post,s,1.04434219999996,None,,,,,,,,00050,001,2026-01-25_12h06.10.875,MST_test,2024.2.0,59.947761520621505,2026-01-25 12h06.25.410447 +0530,
72,0,73,s,1.0996619999999666,None,73,0,72,337.5419634,,,,,,,,,,,,,,,,,,,,,,,,,,,,,,,,,,,,,,,,,,,,,,,,,,337.52687490000005,337.5419634,338.0497563,338.02607610000007,338.0472883,338.0497563,338.0497563,338.0497563,339.1595126000001,Objects\189a.jpg,pre,s,1.0996619999999666,None,,,,,,,,00050,001,2026-01-25_12h06.10.875,MST_test,2024.2.0,59.947761520621505,2026-01-25 12h06.25.410447 +0530,
73,0,74,s,1.7241815999999517,None,74,0,73,339.17568960000006,,,,,,,,,,,,,,,,,,,,,,,,,,,,,,,,,,,,,,,,,,,,,,,,,,339.159859,339.17568960000006,339.7130899,339.65941250000003,339.71071140000004,339.7130899,339.7130899,339.7130899,341.4426926,Objects\124b.jpg,pre,s,1.7241815999999517,None,,,,,,,,00050,001,2026-01-25_12h06.10.875,MST_test,2024.2.0,59.947761520621505,2026-01-25 12h06.25.410447 +0530,
74,0,75,s,3.366165500000079,None,75,0,74,341.4589684,,,,,,,,,,,,,,,,,,,,,,,,,,,,,,,,,,,,,,,,,,,,,,,,,,341.4428012000001,341.4589684,341.96766560000003,341.94246480000004,341.9654677,341.96766560000003,341.96766560000003,341.96766560000003,345.3430645000001,Objects\129a.jpg,pre,s,3.366165500000079,None,,,,,,,,00050,001,2026-01-25_12h06.10.875,MST_test,2024.2.0,59.947761520621505,2026-01-25 12h06.25.410447 +0530,
75,0,76,s,2.4207093999999643,None,76,0,75,345.35889840000004,,,,,,,,,,,,,,,,,,,,,,,,,,,,,,,,,,,,,,,,,,,,,,,,,,345.3434671,345.35889840000004,345.8724724,345.84274790000006,345.86969150000004,345.8724724,345.8724724,345.8724724,348.30963410000004,Scenes\116a.jpg,pre,s,2.4207093999999643,None,,,,,,,,00050,001,2026-01-25_12h06.10.875,MST_test,2024.2.0,59.947761520621505,2026-01-25 12h06.25.410447 +0530,
76,0,77,s,2.0741460000000416,None,77,0,76,348.3255851,,,,,,,,,,,,,,,,,,,,,,,,,,,,,,,,,,,,,,,,,,,,,,,,,,348.3100025,348.3255851,348.85964320000005,348.80961030000003,348.8571107,348.85964320000005,348.85964320000005,348.85964320000005,350.94300640000006,Scenes\080b.jpg,post,s,2.0741460000000416,None,,,,,,,,00050,001,2026-01-25_12h06.10.875,MST_test,2024.2.0,59.947761520621505,2026-01-25 12h06.25.410447 +0530,
77,0,78,n,1.4754003000000466,None,78,0,77,350.95884950000004,,,,,,,,,,,,,,,,,,,,,,,,,,,,,,,,,,,,,,,,,,,,,,,,,,350.9433815,350.95884950000004,351.4660183000001,351.4427604,351.46379980000006,351.4660183000001,351.4660183000001,351.4660183000001,352.9429372000001,Foils\scenes30.jpg,none,n,1.4754003000000466,None,,,,,,,,00050,001,2026-01-25_12h06.10.875,MST_test,2024.2.0,59.947761520621505,2026-01-25 12h06.25.410447 +0530,
78,0,79,o,2.859317600000054,None,79,0,78,352.95903940000005,,,,,,,,,,,,,,,,,,,,,,,,,,,,,,,,,,,,,,,,,,,,,,,,,,352.94329390000007,352.95903940000005,353.47413960000006,353.44278600000007,353.4717112000001,353.47413960000006,353.47413960000006,353.47413960000006,356.3427806000001,Scenes\124a.jpg,post,o,2.859317600000054,None,,,,,,,,00050,001,2026-01-25_12h06.10.875,MST_test,2024.2.0,59.947761520621505,2026-01-25 12h06.25.410447 +0530,
79,0,80,o,4.707045999999991,None,80,0,79,356.3591755,,,,,,,,,,,,,,,,,,,,,,,,,,,,,,,,,,,,,,,,,,,,,,,,,,356.3431313,356.3591755,356.8663948000001,356.8425317,356.8641577000001,356.8663948000001,356.8663948000001,356.8663948000001,361.5760597000001,Objects\148a.jpg,mid,o,4.707045999999991,None,,,,,,,,00050,001,2026-01-25_12h06.10.875,MST_test,2024.2.0,59.947761520621505,2026-01-25 12h06.25.410447 +0530,
80,0,81,n,1.7217795999999908,None,81,0,80,361.59238730000004,,,,,,,,,,,,,,,,,,,,,,,,,,,,,,,,,,,,,,,,,,,,,,,,,,361.57640530000003,361.59238730000004,362.1000474,362.07562540000004,362.0975301000001,362.1000474,362.1000474,362.1000474,363.82628450000004,Foils\009a.jpg,none,n,1.7217795999999908,None,,,,,,,,00050,001,2026-01-25_12h06.10.875,MST_test,2024.2.0,59.947761520621505,2026-01-25 12h06.25.410447 +0530,
81,0,82,o,4.6317851999999675,None,82,0,81,363.84237730000007,,,,,,,,,,,,,,,,,,,,,,,,,,,,,,,,,,,,,,,,,,,,,,,,,,363.8266274,363.84237730000007,364.3580820000001,364.3256831,364.35562690000006,364.3580820000001,364.3580820000001,364.3580820000001,368.993158,Scenes\005a.jpg,mid,o,4.6317851999999675,None,,,,,,,,00050,001,2026-01-25_12h06.10.875,MST_test,2024.2.0,59.947761520621505,2026-01-25 12h06.25.410447 +0530,
82,0,83,o,13.025471799999991,None,83,0,82,369.0090536,,,,,,,,,,,,,,,,,,,,,,,,,,,,,,,,,,,,,,,,,,,,,,,,,,368.9934995,369.0090536,369.5239528000001,369.4924731,369.52160290000006,369.5239528000001,369.5239528000001,369.5239528000001,382.559751,Scenes\008a.jpg,mid,o,13.025471799999991,None,,,,,,,,00050,001,2026-01-25_12h06.10.875,MST_test,2024.2.0,59.947761520621505,2026-01-25 12h06.25.410447 +0530,
83,0,84,o,12.66967360000001,None,84,0,83,382.57566800000006,,,,,,,,,,,,,,,,,,,,,,,,,,,,,,,,,,,,,,,,,,,,,,,,,,382.5601103,382.57566800000006,383.08777910000003,383.0591355,383.0853227,383.08777910000003,383.08777910000003,383.08777910000003,395.7594619,Scenes\155a.jpg,post,o,12.66967360000001,None,,,,,,,,00050,001,2026-01-25_12h06.10.875,MST_test,2024.2.0,59.947761520621505,2026-01-25 12h06.25.410447 +0530,
84,0,85,s,2.6239984999999706,None,85,0,84,395.7753296000001,,,,,,,,,,,,,,,,,,,,,,,,,,,,,,,,,,,,,,,,,,,,,,,,,,395.7599180000001,395.7753296000001,396.2853739000001,396.25941320000004,396.28247410000006,396.2853739000001,396.2853739000001,396.2853739000001,398.9103086,Foils\081a.jpg,none,s,2.6239984999999706,None,,,,,,,,00050,001,2026-01-25_12h06.10.875,MST_test,2024.2.0,59.947761520621505,2026-01-25 12h06.25.410447 +0530,
85,0,86,o,1.433027700000025,None,86,0,85,398.9257325,,,,,,,,,,,,,,,,,,,,,,,,,,,,,,,,,,,,,,,,,,,,,,,,,,398.9106611000001,398.9257325,399.4367903,399.40949720000003,399.4343272,399.4367903,399.4367903,399.4367903,400.87634760000003,Objects\050a.jpg,post,o,1.433027700000025,None,,,,,,,,00050,001,2026-01-25_12h06.10.875,MST_test,2024.2.0,59.947761520621505,2026-01-25 12h06.25.410447 +0530,
86,0,87,s,1.9427929999999378,None,87,0,86,400.89260550000006,,,,,,,,,,,,,,,,,,,,,,,,,,,,,,,,,,,,,,,,,,,,,,,,,,400.8766971,400.89260550000006,401.3986118,401.3761313,401.3960152000001,401.3986118,401.3986118,401.3986118,403.3427163,Foils\050a.jpg,none,s,1.9427929999999378,None,,,,,,,,00050,001,2026-01-25_12h06.10.875,MST_test,2024.2.0,59.947761520621505,2026-01-25 12h06.25.410447 +0530,
87,0,88,o,1.4894921999999724,None,88,0,87,403.3586935000001,,,,,,,,,,,,,,,,,,,,,,,,,,,,,,,,,,,,,,,,,,,,,,,,,,403.3431939000001,403.3586935000001,,403.84342030000005,403.8658448,403.8683892,403.8683892,403.8683892,405.35943510000004,Objects\056a.jpg,mid,o,1.4894921999999724,None,,,,,,,,00050,001,2026-01-25_12h06.10.875,MST_test,2024.2.0,59.947761520621505,2026-01-25 12h06.25.410447 +0530,
88,0,89,o,1.0110770000000002,None,89,0,88,405.37537640000005,,,,,,,,,,,,,,,,,,,,,,,,,,,,,,,,,,,,,,,,,,,,,,,,,,405.35978050000006,405.37537640000005,405.8901559000001,405.85954060000006,405.88785870000004,405.8901559000001,405.8901559000001,405.8901559000001,406.9100261,Scenes\153a.jpg,mid,o,1.0110770000000002,None,,,,,,,,00050,001,2026-01-25_12h06.10.875,MST_test,2024.2.0,59.947761520621505,2026-01-25 12h06.25.410447 +0530,
89,0,90,n,1.4663367999999082,None,90,0,89,406.92569390000006,,,,,,,,,,,,,,,,,,,,,,,,,,,,,,,,,,,,,,,,,,,,,,,,,,406.91037000000006,406.92569390000006,407.43549640000003,407.4094924,407.43291610000006,407.43549640000003,407.43549640000003,407.43549640000003,408.9097878,Foils\049a.jpg,none,n,1.4663367999999082,None,,,,,,,,00050,001,2026-01-25_12h06.10.875,MST_test,2024.2.0,59.947761520621505,2026-01-25 12h06.25.410447 +0530,
90,0,91,o,1.3643244999999524,None,91,0,90,408.9253512,,,,,,,,,,,,,,,,,,,,,,,,,,,,,,,,,,,,,,,,,,,,,,,,,,408.91014770000004,408.9253512,409.4333690000001,409.4093464,409.43109990000005,409.4333690000001,409.4333690000001,409.4333690000001,410.8094254,Objects\113a.jpg,pre,o,1.3643244999999524,None,,,,,,,,00050,001,2026-01-25_12h06.10.875,MST_test,2024.2.0,59.947761520621505,2026-01-25 12h06.25.410447 +0530,
91,0,92,n,1.2288764999999557,None,92,0,91,410.8255236,,,,,,,,,,,,,,,,,,,,,,,,,,,,,,,,,,,,,,,,,,,,,,,,,,410.8097692,410.8255236,411.3449876000001,411.30922340000006,411.3421981,411.3449876000001,411.3449876000001,411.3449876000001,412.5759694000001,Foils\scenes28.jpg,none,n,1.2288764999999557,None,,,,,,,,00050,001,2026-01-25_12h06.10.875,MST_test,2024.2.0,59.947761520621505,2026-01-25 12h06.25.410447 +0530,
92,0,93,o,1.2649364000000105,None,93,0,92,412.59266020000007,,,,,,,,,,,,,,,,,,,,,,,,,,,,,,,,,,,,,,,,,,,,,,,,,,412.5763154,412.59266020000007,413.1084661,413.0760938000001,413.105328,413.1084661,413.1084661,413.1084661,414.3759838000001,Scenes\167a.jpg,pre,o,1.2649364000000105,None,,,,,,,,00050,001,2026-01-25_12h06.10.875,MST_test,2024.2.0,59.947761520621505,2026-01-25 12h06.25.410447 +0530,
93,0,94,s,2.078073599999925,None,94,0,93,414.39272960000005,,,,,,,,,,,,,,,,,,,,,,,,,,,,,,,,,,,,,,,,,,,,,,,,,,414.3763272,414.39272960000005,414.911783,414.87625890000004,414.909351,414.911783,414.911783,414.911783,416.9930995000001,Foils\scenes27.jpg,none,s,2.078073599999925,None,,,,,,,,00050,001,2026-01-25_12h06.10.875,MST_test,2024.2.0,59.947761520621505,2026-01-25 12h06.25.410447 +0530,
94,0,95,o,2.7459204999998974,None,95,0,94,417.009103,,,,,,,,,,,,,,,,,,,,,,,,,,,,,,,,,,,,,,,,,,,,,,,,,,416.99344830000007,417.009103,417.51528800000006,417.49284840000007,417.51281400000005,417.51528800000006,417.51528800000006,417.51528800000006,420.27607820000003,Objects\057a.jpg,mid,o,2.7459204999998974,None,,,,,,,,00050,001,2026-01-25_12h06.10.875,MST_test,2024.2.0,59.947761520621505,2026-01-25 12h06.25.410447 +0530,
95,0,96,o,1.2359624999999141,None,96,0,95,420.29205450000006,,,,,,,,,,,,,,,,,,,,,,,,,,,,,,,,,,,,,,,,,,,,,,,,,,420.27640840000004,420.29205450000006,420.80153200000007,420.77566090000005,420.799034,420.80153200000007,420.80153200000007,420.80153200000007,422.04290460000004,Scenes\069a.jpg,post,o,1.2359624999999141,None,,,,,,,,00050,001,2026-01-25_12h06.10.875,MST_test,2024.2.0,59.947761520621505,2026-01-25 12h06.25.410447 +0530,
96,0,97,s,1.329004599999962,None,97,0,96,422.0589398000001,,,,,,,,,,,,,,,,,,,,,,,,,,,,,,,,,,,,,,,,,,,,,,,,,,422.04324800000006,422.0589398000001,422.58818040000006,422.5428426000001,422.5857437000001,422.58818040000006,422.58818040000006,422.58818040000006,423.9260239,Objects\094b.jpg,post,s,1.329004599999962,None,,,,,,,,00050,001,2026-01-25_12h06.10.875,MST_test,2024.2.0,59.947761520621505,2026-01-25 12h06.25.410447 +0530,
97,0,98,o,1.5248445999999376,None,98,0,97,423.94211870000004,,,,,,,,,,,,,,,,,,,,,,,,,,,,,,,,,,,,,,,,,,,,,,,,,,423.9263866,423.94211870000004,424.448355,424.42599100000007,424.44606110000007,424.448355,424.448355,424.448355,425.97597700000006,Objects\181a.jpg,mid,o,1.5248445999999376,None,,,,,,,,00050,001,2026-01-25_12h06.10.875,MST_test,2024.2.0,59.947761520621505,2026-01-25 12h06.25.410447 +0530,
98,0,99,s,1.277697699999976,None,99,0,98,425.9920278000001,,,,,,,,,,,,,,,,,,,,,,,,,,,,,,,,,,,,,,,,,,,,,,,,,,425.9763207000001,425.9920278000001,426.52743810000004,426.4754736,426.5254689000001,426.52743810000004,426.52743810000004,426.52743810000004,427.8094817,Objects\081b.jpg,post,s,1.277697699999976,None,,,,,,,,00050,001,2026-01-25_12h06.10.875,MST_test,2024.2.0,59.947761520621505,2026-01-25 12h06.25.410447 +0530,
99,0,100,o,4.212354499999947,None,100,0,99,427.825519,,,,,,,,,,,,,,,,,,,,,,,,,,,,,,,,,,,,,,,,,,,,,,,,,,427.8098307,427.825519,428.34549860000004,428.3095264,428.34298980000005,428.34549860000004,428.34549860000004,428.34549860000004,432.55948420000004,Objects\014b.jpg,pre,o,4.212354499999947,None,,,,,,,,00050,001,2026-01-25_12h06.10.875,MST_test,2024.2.0,59.947761520621505,2026-01-25 12h06.25.410447 +0530,
100,0,101,s,1.196653000000083,None,101,0,100,432.57567330000006,,,,,,,,,,,,,,,,,,,,,,,,,,,,,,,,,,,,,,,,,,,,,,,,,,432.5598328,432.57567330000006,433.12081810000006,433.0595617,433.11831970000003,433.12081810000006,433.12081810000006,433.12081810000006,434.3262919,Scenes\108b.jpg,mid,s,1.196653000000083,None,,,,,,,,00050,001,2026-01-25_12h06.10.875,MST_test,2024.2.0,59.947761520621505,2026-01-25 12h06.25.410447 +0530,
101,0,102,o,2.554533300000003,None,102,0,101,434.3424427,,,,,,,,,,,,,,,,,,,,,,,,,,,,,,,,,,,,,,,,,,,,,,,,,,434.3266688,434.3424427,434.8592783,434.8264778,434.8564261,434.8592783,434.8592783,434.8592783,437.4262758,Scenes\182a.jpg,post,o,2.554533300000003,None,,,,,,,,00050,001,2026-01-25_12h06.10.875,MST_test,2024.2.0,59.947761520621505,2026-01-25 12h06.25.410447 +0530,
102,0,103,o,1.0315987000000177,None,103,0,102,437.4421823,,,,,,,,,,,,,,,,,,,,,,,,,,,,,,,,,,,,,,,,,,,,,,,,,,437.4266411,437.4421823,437.95022600000004,437.9259941,437.9478053,437.95022600000004,437.95022600000004,437.95022600000004,438.9931093,Objects\144a.jpg,mid,o,1.0315987000000177,None,,,,,,,,00050,001,2026-01-25_12h06.10.875,MST_test,2024.2.0,59.947761520621505,2026-01-25 12h06.25.410447 +0530,
103,0,104,s,1.134509200000025,None,104,0,103,439.0090938000001,,,,,,,,,,,,,,,,,,,,,,,,,,,,,,,,,,,,,,,,,,,,,,,,,,438.99345400000004,439.0090938000001,439.51895060000004,439.49287490000006,439.5170148000001,439.51895060000004,439.51895060000004,439.51895060000004,440.6594954000001,Objects\018b.jpg,pre,s,1.134509200000025,None,,,,,,,,00050,001,2026-01-25_12h06.10.875,MST_test,2024.2.0,59.947761520621505,2026-01-25 12h06.25.410447 +0530,
104,0,105,s,1.378760199999988,None,105,0,104,440.6762387,,,,,,,,,,,,,,,,,,,,,,,,,,,,,,,,,,,,,,,,,,,,,,,,,,440.6598457,440.6762387,441.2027163,441.1594292,441.2002543,441.2027163,441.2027163,441.2027163,442.59302420000006,Scenes\169b.jpg,post,s,1.378760199999988,None,,,,,,,,00050,001,2026-01-25_12h06.10.875,MST_test,2024.2.0,59.947761520621505,2026-01-25 12h06.25.410447 +0530,
105,0,106,o,2.966951399999971,None,106,0,105,442.60889410000004,,,,,,,,,,,,,,,,,,,,,,,,,,,,,,,,,,,,,,,,,,,,,,,,,,442.59336830000007,442.60889410000004,443.1188703,443.0926800000001,443.1163991000001,443.1188703,443.1188703,443.1188703,446.0931057,Objects\075a.jpg,pre,o,2.966951399999971,None,,,,,,,,00050,001,2026-01-25_12h06.10.875,MST_test,2024.2.0,59.947761520621505,2026-01-25 12h06.25.410447 +0530,
106,0,107,s,2.6729334000000335,None,107,0,106,446.1088490000001,,,,,,,,,,,,,,,,,,,,,,,,,,,,,,,,,,,,,,,,,,,,,,,,,,446.0934675000001,446.1088490000001,446.6289071,446.59254110000006,446.6264016,446.6289071,446.6289071,446.6289071,449.30971850000003,Objects\077b.jpg,post,s,2.6729334000000335,None,,,,,,,,00050,001,2026-01-25_12h06.10.875,MST_test,2024.2.0,59.947761520621505,2026-01-25 12h06.25.410447 +0530,
107,0,108,s,1.264013900000009,None,108,0,107,449.32592680000005,,,,,,,,,,,,,,,,,,,,,,,,,,,,,,,,,,,,,,,,,,,,,,,,,,449.31011090000004,449.32592680000005,449.88516030000005,449.8090671,449.8821647,449.88516030000005,449.88516030000005,449.88516030000005,451.1598222,Objects\162b.jpg,mid,s,1.264013900000009,None,,,,,,,,00050,001,2026-01-25_12h06.10.875,MST_test,2024.2.0,59.947761520621505,2026-01-25 12h06.25.410447 +0530,
108,0,109,s,0.8374096999999665,None,109,0,108,451.1755173,,,,,,,,,,,,,,,,,,,,,,,,,,,,,,,,,,,,,,,,,,,,,,,,,,451.1601997,451.1755173,451.6799698,451.65987010000003,451.6776479,451.6799698,451.6799698,451.6799698,452.5260922,Objects\022a.jpg,post,s,0.8374096999999665,None,,,,,,,,00050,001,2026-01-25_12h06.10.875,MST_test,2024.2.0,59.947761520621505,2026-01-25 12h06.25.410447 +0530,
109,0,110,o,1.3997125000000779,None,110,0,109,452.5422073000001,,,,,,,,,,,,,,,,,,,,,,,,,,,,,,,,,,,,,,,,,,,,,,,,,,452.52643680000006,452.5422073000001,453.0615127,453.0260058,453.0589939,453.0615127,453.0615127,453.0615127,454.4772280000001,Scenes\010a.jpg,post,o,1.3997125000000779,None,,,,,,,,00050,001,2026-01-25_12h06.10.875,MST_test,2024.2.0,59.947761520621505,2026-01-25 12h06.25.410447 +0530,
110,0,111,o,1.9683423999999832,None,111,0,110,454.4924113000001,,,,,,,,,,,,,,,,,,,,,,,,,,,,,,,,,,,,,,,,,,,,,,,,,,454.4775721000001,454.4924113000001,455.0048151000001,454.97623280000005,455.00229950000005,455.0048151000001,455.0048151000001,455.0048151000001,456.97595090000004,Scenes\139a.jpg,pre,o,1.9683423999999832,None,,,,,,,,00050,001,2026-01-25_12h06.10.875,MST_test,2024.2.0,59.947761520621505,2026-01-25 12h06.25.410447 +0530,
111,0,112,n,1.4926209999999855,None,112,0,111,456.9923140000001,,,,,,,,,,,,,,,,,,,,,,,,,,,,,,,,,,,,,,,,,,,,,,,,,,456.9761472,456.9923140000001,457.5445318000001,457.4762174,457.5419945,457.5445318000001,457.5445318000001,457.5445318000001,459.0428763,Scenes\145b.jpg,pre,n,1.4926209999999855,None,,,,,,,,00050,001,2026-01-25_12h06.10.875,MST_test,2024.2.0,59.947761520621505,2026-01-25 12h06.25.410447 +0530,
112,0,113,o,1.722242700000038,None,113,0,112,459.05901560000007,,,,,,,,,,,,,,,,,,,,,,,,,,,,,,,,,,,,,,,,,,,,,,,,,,459.0432264,459.05901560000007,459.59563550000007,459.54278050000005,459.5934566000001,459.59563550000007,459.59563550000007,459.59563550000007,461.327217,Scenes\070b.jpg,mid,o,1.722242700000038,None,,,,,,,,00050,001,2026-01-25_12h06.10.875,MST_test,2024.2.0,59.947761520621505,2026-01-25 12h06.25.410447 +0530,
113,0,114,s,0.985561900000107,None,114,0,113,461.3424274,,,,,,,,,,,,,,,,,,,,,,,,,,,,,,,,,,,,,,,,,,,,,,,,,,461.3275606000001,461.3424274,461.8918155,461.8260852000001,461.8889762,461.8918155,461.8918155,461.8918155,462.89356,Objects\062b.jpg,post,s,0.985561900000107,None,,,,,,,,00050,001,2026-01-25_12h06.10.875,MST_test,2024.2.0,59.947761520621505,2026-01-25 12h06.25.410447 +0530,
114,0,115,s,1.5489498999999114,None,115,0,114,462.90916000000004,,,,,,,,,,,,,,,,,,,,,,,,,,,,,,,,,,,,,,,,,,,,,,,,,,462.8939038000001,462.90916000000004,463.4168953000001,463.3925932000001,463.41441010000005,463.4168953000001,463.4168953000001,463.4168953000001,464.9764133,Objects\163a.jpg,post,s,1.5489498999999114,None,,,,,,,,00050,001,2026-01-25_12h06.10.875,MST_test,2024.2.0,59.947761520621505,2026-01-25 12h06.25.410447 +0530,
115,0,116,s,2.446788100000049,None,116,0,115,464.9924925,,,,,,,,,,,,,,,,,,,,,,,,,,,,,,,,,,,,,,,,,,,,,,,,,,464.97675590000006,464.9924925,465.52727070000003,465.4761522,465.52486780000004,465.52727070000003,465.52727070000003,465.52727070000003,467.9761261,Objects\008b.jpg,post,s,2.446788100000049,None,,,,,,,,00050,001,2026-01-25_12h06.10.875,MST_test,2024.2.0,59.947761520621505,2026-01-25 12h06.25.410447 +0530,
116,0,117,s,1.043661400000019,None,117,0,116,467.992349,,,,,,,,,,,,,,,,,,,,,,,,,,,,,,,,,,,,,,,,,,,,,,,,,,467.9764696000001,467.992349,468.50619470000004,468.4761076,468.5040821,468.50619470000004,468.50619470000004,468.50619470000004,469.5598271,Scenes\053b.jpg,pre,s,1.043661400000019,None,,,,,,,,00050,001,2026-01-25_12h06.10.875,MST_test,2024.2.0,59.947761520621505,2026-01-25 12h06.25.410447 +0530,
117,0,118,s,0.7506783000000041,None,118,0,117,469.5758429,,,,,,,,,,,,,,,,,,,,,,,,,,,,,,,,,,,,,,,,,,,,,,,,,,469.5601836000001,469.5758429,470.0946633,470.0595759,470.09201110000004,470.0946633,470.0946633,470.0946633,470.8597787,Objects\032b.jpg,mid,s,0.7506783000000041,None,,,,,,,,00050,001,2026-01-25_12h06.10.875,MST_test,2024.2.0,59.947761520621505,2026-01-25 12h06.25.410447 +0530,
118,0,119,s,25.055063399999995,None,119,0,118,470.87583530000006,,,,,,,,,,,,,,,,,,,,,,,,,,,,,,,,,,,,,,,,,,,,,,,,,,470.86012990000006,470.87583530000006,471.39028200000007,471.35930070000006,471.3882831000001,471.39028200000007,471.39028200000007,471.39028200000007,496.4597259000001,Objects\172b.jpg,post,s,25.055063399999995,None,,,,,,,,00050,001,2026-01-25_12h06.10.875,MST_test,2024.2.0,59.947761520621505,2026-01-25 12h06.25.410447 +0530,
119,0,120,n,1.3040321000000858,None,120,0,119,496.4758578000001,,,,,,,,,,,,,,,,,,,,,,,,,,,,,,,,,,,,,,,,,,,,,,,,,,496.4601271,496.4758578000001,496.98180990000003,496.95961280000006,496.9794441,496.98180990000003,496.98180990000003,496.98180990000003,498.29302540000003,Foils\106a.jpg,none,n,1.3040321000000858,None,,,,,,,,00050,001,2026-01-25_12h06.10.875,MST_test,2024.2.0,59.947761520621505,2026-01-25 12h06.25.410447 +0530,
120,0,121,s,1.1784873999999945,None,121,0,120,498.3092022000001,,,,,,,,,,,,,,,,,,,,,,,,,,,,,,,,,,,,,,,,,,,,,,,,,,498.29336820000003,498.3092022000001,498.8353554,498.79287280000005,498.833214,498.8353554,498.8353554,498.8353554,500.02645800000005,Objects\066b.jpg,pre,s,1.1784873999999945,None,,,,,,,,00050,001,2026-01-25_12h06.10.875,MST_test,2024.2.0,59.947761520621505,2026-01-25 12h06.25.410447 +0530,
121,0,122,n,3.6783527999999706,None,122,0,121,500.04230100000007,,,,,,,,,,,,,,,,,,,,,,,,,,,,,,,,,,,,,,,,,,,,,,,,,,500.0268244,500.04230100000007,500.5519833000001,500.5265448,500.54931410000006,500.5519833000001,500.5519833000001,500.5519833000001,504.24303770000006,Foils\093b.jpg,none,n,3.6783527999999706,None,,,,,,,,00050,001,2026-01-25_12h06.10.875,MST_test,2024.2.0,59.947761520621505,2026-01-25 12h06.25.410447 +0530,
122,0,123,o,2.663525199999981,None,123,0,122,504.2589163,,,,,,,,,,,,,,,,,,,,,,,,,,,,,,,,,,,,,,,,,,,,,,,,,,504.24337890000004,504.2589163,504.79767060000006,504.74286900000004,504.79519730000004,504.79767060000006,504.79767060000006,504.79767060000006,507.4765377,Objects\185b.jpg,mid,o,2.663525199999981,None,,,,,,,,00050,001,2026-01-25_12h06.10.875,MST_test,2024.2.0,59.947761520621505,2026-01-25 12h06.25.410447 +0530,
123,0,124,s,2.433695299999954,None,124,0,123,507.4932873,,,,,,,,,,,,,,,,,,,,,,,,,,,,,,,,,,,,,,,,,,,,,,,,,,507.47690020000005,507.4932873,508.01153680000004,507.9762919000001,508.0090060000001,508.01153680000004,508.01153680000004,508.01153680000004,510.45981970000014,Objects\010b.jpg,pre,s,2.433695299999954,None,,,,,,,,00050,001,2026-01-25_12h06.10.875,MST_test,2024.2.0,59.947761520621505,2026-01-25 12h06.25.410447 +0530,
124,0,125,s,1.0397579000000405,None,125,0,124,510.4758806000001,,,,,,,,,,,,,,,,,,,,,,,,,,,,,,,,,,,,,,,,,,,,,,,,,,510.4601679000001,510.4758806000001,510.9981117000001,510.95950359999995,510.99573580000003,510.9981117000001,510.9981117000001,510.9981117000001,512.0432016000001,Scenes\051b.jpg,mid,s,1.0397579000000405,None,,,,,,,,00050,001,2026-01-25_12h06.10.875,MST_test,2024.2.0,59.947761520621505,2026-01-25 12h06.25.410447 +0530,
125,0,126,o,1.504451999999901,None,126,0,125,512.0591568000001,,,,,,,,,,,,,,,,,,,,,,,,,,,,,,,,,,,,,,,,,,,,,,,,,,512.0435808999999,512.0591568000001,512.5653767,512.5427113,512.5618246,512.5653767,512.5653767,512.5653767,514.076506,Objects\119a.jpg,mid,o,1.504451999999901,None,,,,,,,,00050,001,2026-01-25_12h06.10.875,MST_test,2024.2.0,59.947761520621505,2026-01-25 12h06.25.410447 +0530,
126,0,127,o,1.1466522999999142,None,127,0,126,514.0925452,,,,,,,,,,,,,,,,,,,,,,,,,,,,,,,,,,,,,,,,,,,,,,,,,,514.0768561000001,514.0925452,514.6591859000001,514.5762732,514.6567421999999,514.6591859000001,514.6591859000001,514.6591859000001,515.8098067,Scenes\031b.jpg,post,o,1.1466522999999142,None,,,,,,,,00050,001,2026-01-25_12h06.10.875,MST_test,2024.2.0,59.947761520621505,2026-01-25 12h06.25.410447 +0530,
127,0,128,o,2.3130538000000342,None,128,0,127,515.8256097,,,,,,,,,,,,,,,,,,,,,,,,,,,,,,,,,,,,,,,,,,,,,,,,,,515.8101952000001,515.8256097,516.3402282999999,516.3091335,516.3379553000001,516.3402282999999,516.3402282999999,516.3402282999999,518.6595532,Foils\scenes1.jpg,none,o,2.3130538000000342,None,,,,,,,,00050,001,2026-01-25_12h06.10.875,MST_test,2024.2.0,59.947761520621505,2026-01-25 12h06.25.410447 +0530,
128,0,129,o,2.772790299999997,None,129,0,128,518.6757039,,,,,,,,,,,,,,,,,,,,,,,,,,,,,,,,,,,,,,,,,,,,,,,,,,518.6599079000001,518.6757039,519.2017387,519.1593848000001,519.1985461,519.2017387,519.2017387,519.2017387,521.9762234000001,Objects\121b.jpg,pre,o,2.772790299999997,None,,,,,,,,00050,001,2026-01-25_12h06.10.875,MST_test,2024.2.0,59.947761520621505,2026-01-25 12h06.25.410447 +0530,
129,0,130,s,1.59800139999993,None,130,0,129,521.9922964000001,,,,,,,,,,,,,,,,,,,,,,,,,,,,,,,,,,,,,,,,,,,,,,,,,,521.9765974000001,521.9922964000001,522.5352356,522.4763081,522.5327642000001,522.5352356,522.5352356,522.5352356,524.1430770000001,Scenes\083b.jpg,pre,s,1.59800139999993,None,,,,,,,,00050,001,2026-01-25_12h06.10.875,MST_test,2024.2.0,59.947761520621505,2026-01-25 12h06.25.410447 +0530,
130,0,131,o,1.6461223999999675,None,131,0,130,524.1591167,,,,,,,,,,,,,,,,,,,,,,,,,,,,,,,,,,,,,,,,,,,,,,,,,,524.1434270999999,524.1591167,524.6713596000001,524.642851,524.6688664,524.6713596000001,524.6713596000001,524.6713596000001,526.3261811000001,Scenes\136a.jpg,post,o,1.6461223999999675,None,,,,,,,,00050,001,2026-01-25_12h06.10.875,MST_test,2024.2.0,59.947761520621505,2026-01-25 12h06.25.410447 +0530,
131,0,132,n,1.4571356999999807,None,132,0,131,526.3432713999999,,,,,,,,,,,,,,,,,,,,,,,,,,,,,,,,,,,,,,,,,,,,,,,,,,526.3265379000001,526.3432713999999,,526.8423716000001,526.8983790999999,526.9007938999999,526.9007938999999,526.9007938999999,528.3595465,Foils\113a.jpg,none,n,1.4571356999999807,None,,,,,,,,00050,001,2026-01-25_12h06.10.875,MST_test,2024.2.0,59.947761520621505,2026-01-25 12h06.25.410447 +0530,
132,0,133,o,2.716290200000003,None,133,0,132,528.3758076,,,,,,,,,,,,,,,,,,,,,,,,,,,,,,,,,,,,,,,,,,,,,,,,,,528.3598919,528.3758076,528.8890561,528.8595357,528.8865364,528.8890561,528.8890561,528.8890561,531.6097245,Scenes\121a.jpg,post,o,2.716290200000003,None,,,,,,,,00050,001,2026-01-25_12h06.10.875,MST_test,2024.2.0,59.947761520621505,2026-01-25 12h06.25.410447 +0530,
133,0,134,o,24.815020400000094,None,134,0,133,531.6264658000001,,,,,,,,,,,,,,,,,,,,,,,,,,,,,,,,,,,,,,,,,,,,,,,,,,531.6101047999999,531.6264658000001,532.1746973,532.1093548,532.1719539,532.1746973,532.1746973,532.1746973,556.9930618,Scenes\104b.jpg,mid,o,24.815020400000094,None,,,,,,,,00050,001,2026-01-25_12h06.10.875,MST_test,2024.2.0,59.947761520621505,2026-01-25 12h06.25.410447 +0530,
134,0,135,o,2.839561999999887,None,135,0,134,557.0089124,,,,,,,,,,,,,,,,,,,,,,,,,,,,,,,,,,,,,,,,,,,,,,,,,,556.9934711,557.0089124,557.6536422,557.4926027,557.6509174000001,557.6536422,557.6536422,557.6536422,560.5099253,Scenes\004b.jpg,pre,o,2.839561999999887,None,,,,,,,,00050,001,2026-01-25_12h06.10.875,MST_test,2024.2.0,59.947761520621505,2026-01-25 12h06.25.410447 +0530,
135,0,136,o,1.09460480000007,None,136,0,135,560.5260933999999,,,,,,,,,,,,,,,,,,,,,,,,,,,,,,,,,,,,,,,,,,,,,,,,,,560.5102709000001,560.5260933999999,561.0386618000001,561.0096666000001,561.0360406000001,561.0386618000001,561.0386618000001,561.0386618000001,562.1430471,Scenes\100a.jpg,pre,o,1.09460480000007,None,,,,,,,,00050,001,2026-01-25_12h06.10.875,MST_test,2024.2.0,59.947761520621505,2026-01-25 12h06.25.410447 +0530,
136,0,137,o,1.1313026000000264,None,137,0,136,562.1588402000001,,,,,,,,,,,,,,,,,,,,,,,,,,,,,,,,,,,,,,,,,,,,,,,,,,562.1433953,562.1588402000001,562.6819482,562.6426227000001,562.6780175,562.6819482,562.6819482,562.6819482,563.8263681,Objects\130b.jpg,post,o,1.1313026000000264,None,,,,,,,,00050,001,2026-01-25_12h06.10.875,MST_test,2024.2.0,59.947761520621505,2026-01-25 12h06.25.410447 +0530,
137,0,138,s,0.7198761999998169,None,138,0,137,563.8425327000001,,,,,,,,,,,,,,,,,,,,,,,,,,,,,,,,,,,,,,,,,,,,,,,,,,563.8267122999999,563.8425327000001,564.3980252,564.326287,564.3954957,564.3980252,564.3980252,564.3980252,565.1263061999999,Scenes\183b.jpg,pre,s,0.7198761999998169,None,,,,,,,,00050,001,2026-01-25_12h06.10.875,MST_test,2024.2.0,59.947761520621505,2026-01-25 12h06.25.410447 +0530,
138,0,139,s,1.4349492999999711,None,139,0,138,565.1426382999999,,,,,,,,,,,,,,,,,,,,,,,,,,,,,,,,,,,,,,,,,,,,,,,,,,565.1266491,565.1426382999999,565.6667816,565.6263072,565.6640268,565.6667816,565.6667816,565.6667816,567.1102604000001,Objects\143b.jpg,mid,s,1.4349492999999711,None,,,,,,,,00050,001,2026-01-25_12h06.10.875,MST_test,2024.2.0,59.947761520621505,2026-01-25 12h06.25.410447 +0530,
139,0,140,o,1.367468400000007,None,140,0,139,567.1259011000001,,,,,,,,,,,,,,,,,,,,,,,,,,,,,,,,,,,,,,,,,,,,,,,,,,567.1106026000001,567.1259011000001,567.6384125000001,567.609638,567.6360378,567.6384125000001,567.6384125000001,567.6384125000001,569.0099254,Scenes\160a.jpg,post,o,1.367468400000007,None,,,,,,,,00050,001,2026-01-25_12h06.10.875,MST_test,2024.2.0,59.947761520621505,2026-01-25 12h06.25.410447 +0530,
140,0,141,n,5.72170959999994,None,141,0,140,569.0262142,,,,,,,,,,,,,,,,,,,,,,,,,,,,,,,,,,,,,,,,,,,,,,,,,,569.0102683000001,569.0262142,569.6441782,569.5096738000001,569.6417232,569.6441782,569.6441782,569.6441782,575.3765526999999,Scenes\173b.jpg,post,n,5.72170959999994,None,,,,,,,,00050,001,2026-01-25_12h06.10.875,MST_test,2024.2.0,59.947761520621505,2026-01-25 12h06.25.410447 +0530,
141,0,142,n,1.243428200000153,None,142,0,141,575.3921252000001,,,,,,,,,,,,,,,,,,,,,,,,,,,,,,,,,,,,,,,,,,,,,,,,,,575.3769076,575.3921252000001,575.8983969,575.8762780000001,575.8953324,575.8983969,575.8983969,575.8983969,577.143379,Foils\scenes4.jpg,none,n,1.243428200000153,None,,,,,,,,00050,001,2026-01-25_12h06.10.875,MST_test,2024.2.0,59.947761520621505,2026-01-25 12h06.25.410447 +0530,
142,0,143,s,1.2646122999999534,None,143,0,142,577.1595481,,,,,,,,,,,,,,,,,,,,,,,,,,,,,,,,,,,,,,,,,,,,,,,,,,577.1437412000001,577.1595481,577.6768488000001,577.6426548000001,577.6744004999999,577.6768488000001,577.6768488000001,577.6768488000001,578.9429465,Objects\107b.jpg,post,s,1.2646122999999534,None,,,,,,,,00050,001,2026-01-25_12h06.10.875,MST_test,2024.2.0,59.947761520621505,2026-01-25 12h06.25.410447 +0530,
143,0,144,n,1.3307007000000795,None,144,0,143,578.9590746,,,,,,,,,,,,,,,,,,,,,,,,,,,,,,,,,,,,,,,,,,,,,,,,,,578.9433045,578.9590746,579.4666859,579.4430209999999,579.4638707,579.4666859,579.4666859,579.4666859,580.8099860000001,Foils\scenes14.jpg,none,n,1.3307007000000795,None,,,,,,,,00050,001,2026-01-25_12h06.10.875,MST_test,2024.2.0,59.947761520621505,2026-01-25 12h06.25.410447 +0530,
144,0,145,s,1.379567500000121,None,145,0,144,580.8258829,,,,,,,,,,,,,,,,,,,,,,,,,,,,,,,,,,,,,,,,,,,,,,,,,,580.8103462,580.8258829,581.3382641,581.3096833999999,581.3350087,581.3382641,581.3382641,581.3382641,582.7264978,Scenes\166a.jpg,post,s,1.379567500000121,None,,,,,,,,00050,001,2026-01-25_12h06.10.875,MST_test,2024.2.0,59.947761520621505,2026-01-25 12h06.25.410447 +0530,
145,0,146,n,2.2404751999999917,None,146,0,145,582.742629,,,,,,,,,,,,,,,,,,,,,,,,,,,,,,,,,,,,,,,,,,,,,,,,,,582.7268416000001,582.742629,583.2453975,583.2260574000001,583.2423924000001,583.2453975,583.2453975,583.2453975,585.4935554,Foils\scenes5.jpg,none,n,2.2404751999999917,None,,,,,,,,00050,001,2026-01-25_12h06.10.875,MST_test,2024.2.0,59.947761520621505,2026-01-25 12h06.25.410447 +0530,
146,0,147,o,4.366422099999909,None,147,0,146,585.509302,,,,,,,,,,,,,,,,,,,,,,,,,,,,,,,,,,,,,,,,,,,,,,,,,,585.4939241000001,585.509302,586.0153730000001,585.9930370000001,586.0130054,586.0153730000001,586.0153730000001,586.0153730000001,590.3932794000001,Objects\036a.jpg,mid,o,4.366422099999909,None,,,,,,,,00050,001,2026-01-25_12h06.10.875,MST_test,2024.2.0,59.947761520621505,2026-01-25 12h06.25.410447 +0530,
147,0,148,o,5.4251919999999245,None,148,0,147,590.4092902000001,,,,,,,,,,,,,,,,,,,,,,,,,,,,,,,,,,,,,,,,,,,,,,,,,,590.3936268000001,590.4092902000001,,590.893625,590.9379193999999,590.9403126999999,590.9403126999999,590.9403126999999,596.3773595000001,Scenes\027a.jpg,mid,o,5.4251919999999245,None,,,,,,,,00050,001,2026-01-25_12h06.10.875,MST_test,2024.2.0,59.947761520621505,2026-01-25 12h06.25.410447 +0530,
148,0,149,o,1.0210677000000032,None,149,0,148,596.3924059,,,,,,,,,,,,,,,,,,,,,,,,,,,,,,,,,,,,,,,,,,,,,,,,,,596.3777425,596.3924059,596.8967858,596.8762403,596.8943404,596.8967858,596.8967858,596.8967858,597.9265399,Objects\038a.jpg,pre,o,1.0210677000000032,None,,,,,,,,00050,001,2026-01-25_12h06.10.875,MST_test,2024.2.0,59.947761520621505,2026-01-25 12h06.25.410447 +0530,
149,0,150,o,0.8649535000001833,None,150,0,149,597.942512,,,,,,,,,,,,,,,,,,,,,,,,,,,,,,,,,,,,,,,,,,,,,,,,,,597.9268891,597.942512,598.468663,598.4263216,598.4657002,598.468663,598.468663,598.468663,599.3428389,Objects\125b.jpg,mid,o,0.8649535000001833,None,,,,,,,,00050,001,2026-01-25_12h06.10.875,MST_test,2024.2.0,59.947761520621505,2026-01-25 12h06.25.410447 +0530,
,,,,,,,,,,,,,,,,,,,,,,,,,,,,,,,,,,,,,,,,,,,,,,,,,,,,,,,,,,,,,,,,,,,,,,,,,599.3430516,599.3593281,599.3593281,601.8263032000001,space,2.4538977999998224,None,00050,001,2026-01-25_12h06.10.875,MST_test,2024.2.0,59.947761520621505,2026-01-25 12h06.25.410447 +0530,
