Sl_no,image_path,thisN,thisTrialN,thisRepN,key_resp_5.keys,key_resp_7.keys,key_resp_7.rt,key_resp_7.duration,key_resp_5.rt,key_resp_5.duration,key_resp_9.keys,key_resp_9.rt,key_resp_9.duration,key_resp_8.keys,key_resp_8.rt,key_resp_8.duration,practice.thisRepN,practice.thisTrialN,practice.thisN,practice.thisIndex,trials.thisRepN,trials.thisTrialN,trials.thisN,trials.thisIndex,thisRow.t,notes,welcome_page.started,text.started,key_resp.started,welcome_page.stopped,key_resp.keys,key_resp.rt,key_resp.duration,instructions.started,ins.started,key_resp_2.started,instructions.stopped,key_resp_2.keys,key_resp_2.rt,key_resp_2.duration,instructions_2.started,text_10.started,key_resp_10.started,instructions_2.stopped,key_resp_10.keys,key_resp_10.rt,key_resp_10.duration,objects_only_instruction.started,text_3.started,key_resp_3.started,objects_only_instruction.stopped,key_resp_3.keys,key_resp_3.rt,key_resp_3.duration,ISI.started,text_4.started,text_4.stopped,ISI.stopped,practice_block.started,image.started,text_5.started,key_resp_5.started,practice_block.stopped,practice.key_resp_5.keys,indoor_outdoor.started,text_7.started,key_resp_7.started,indoor_outdoor.stopped,practice.key_resp_7.keys,practice.key_resp_7.rt,practice.key_resp_7.duration,image.stopped,text_5.stopped,key_resp_5.stopped,practice.key_resp_5.rt,practice.key_resp_5.duration,practice_to_main.started,text_2.started,key_resp_4.started,practice_to_main.stopped,key_resp_4.keys,key_resp_4.rt,key_resp_4.duration,objects.started,image_2.started,text_9.started,key_resp_9.started,objects.stopped,trials.key_resp_9.keys,trials.key_resp_9.rt,trials.key_resp_9.duration,encoding_task.started,encoding_task.stopped,trials.key_resp_8.keys,image_2.stopped,text_9.stopped,key_resp_9.stopped,text_8.started,key_resp_8.started,trials.key_resp_8.rt,trials.key_resp_8.duration,end_experiment.started,text_6.started,key_resp_6.started,end_experiment.stopped,key_resp_6.keys,key_resp_6.rt,key_resp_6.duration,list_of_stimuli,encoding_task_accuracy,participant,session,date,expName,psychopyVersion,frameRate,expStart,
,,,,,,,,,,,,,,,,,,,,,,,,,,,0.007115300002624281,0.023701700003584847,0.023701700003584847,15.141561800002819,space,15.113579800003208,None,,,,,,,,,,,,,,,,,,,,,,,,,,,,,,,,,,,,,,,,,,,,,,,,,,,,,,,,,,,,,,,,,,,,,,,,,,,,,,00019,001,2025-11-09_15h07.19.518,MST_task,2024.2.2,59.997216130673706,2025-11-09 15h18.33.208244 +0530,
,,,,,,,,,,,,,,,,,,,,,,,,,,,,,,,,,,15.141588300000876,15.156686700007413,15.156686700007413,32.63996670000779,space,17.466843899994274,None,,,,,,,,,,,,,,,,,,,,,,,,,,,,,,,,,,,,,,,,,,,,,,,,,,,,,,,,,,,,,,,,,,,,,,,00019,001,2025-11-09_15h07.19.518,MST_task,2024.2.2,59.997216130673706,2025-11-09 15h18.33.208244 +0530,
,,,,,,,,,,,,,,,,,,,,,,,,,,,,,,,,,,,,,,,,,32.63999030001287,32.656338600005256,32.656338600005256,55.10623889999988,space,22.44640129999607,None,,,,,,,,,,,,,,,,,,,,,,,,,,,,,,,,,,,,,,,,,,,,,,,,,,,,,,,,,,,,,,,,00019,001,2025-11-09_15h07.19.518,MST_task,2024.2.2,59.997216130673706,2025-11-09 15h18.33.208244 +0530,
,,,,,,,,,,,,,,,,,,,,,,,,,,,,,,,,,,,,,,,,,,,,,,,,55.10626800000318,55.12252730000182,55.12252730000182,76.57248000000254,space,21.435462900000857,None,,,,,,,,,,,,,,,,,,,,,,,,,,,,,,,,,,,,,,,,,,,,,,,,,,,,,,,,,00019,001,2025-11-09_15h07.19.518,MST_task,2024.2.2,59.997216130673706,2025-11-09 15h18.33.208244 +0530,
2,practice_images/031a.jpg,0,0,0,None,f,1.3104987999977311,None,,,,,,,,,0,0,0,1,,,,,76.58869080001023,,,,,,,,,,,,,,,,,,,,,,,,,,,,,,76.57783180000843,76.58869080001023,77.10534480000206,77.07227640000929,77.08721320000768,77.10534480000206,77.10534480000206,77.10534480000206,80.08866690000286,None,80.08982000000833,80.10528460000933,80.10528460000933,81.42229760000191,f,1.3104987999977311,None,,,,,,,,,,,,,,,,,,,,,,,,,,,,,,,,,,,,,,,,00019,001,2025-11-09_15h07.19.518,MST_task,2024.2.2,59.997216130673706,2025-11-09 15h18.33.208244 +0530,
4,practice_images/002b.jpg,1,1,0,None,f,4.624827499996172,None,,,,,,,,,0,1,1,3,,,,,81.43862020000233,,,,,,,,,,,,,,,,,,,,,,,,,,,,,,81.422375500013,81.43862020000233,81.93856830000004,81.92206940001051,81.92917800000578,81.93856830000004,81.93856830000004,81.93856830000004,84.92208790000586,None,84.92211830000451,84.93852690000494,84.93852690000494,89.57210400000622,f,4.624827499996172,None,84.93852690000494,84.93852690000494,84.93852690000494,,,,,,,,,,,,,,,,,,,,,,,,,,,,,,,,,,,,,00019,001,2025-11-09_15h07.19.518,MST_task,2024.2.2,59.997216130673706,2025-11-09 15h18.33.208244 +0530,
10,practice_images/182a.jpg,2,2,0,None,f,0.9354090999986511,None,,,,,,,,,0,2,2,9,,,,,89.58843780000461,,,,,,,,,,,,,,,,,,,,,,,,,,,,,,89.57218210000428,89.58843780000461,90.08845600001223,90.07197480001196,90.07893440000771,90.08845600001223,90.08845600001223,90.08845600001223,93.0719223000051,None,93.07195610000053,93.08835299999919,93.08835299999919,94.03868560001138,f,0.9354090999986511,None,93.08835299999919,93.08835299999919,93.08835299999919,,,,,,,,,,,,,,,,,,,,,,,,,,,,,,,,,,,,,00019,001,2025-11-09_15h07.19.518,MST_task,2024.2.2,59.997216130673706,2025-11-09 15h18.33.208244 +0530,
1,practice_images/013a.jpg,3,3,0,j,None,,,2.1924480000016047,0.14194090000819415,,,,,,,0,3,3,0,,,,,94.05500620001112,,,,,,,,,,,,,,,,,,,,,,,,,,,,,,94.03875910000352,94.05500620001112,94.5549580000079,94.5384567000001,94.54531929999939,94.5549580000079,94.5549580000079,94.5549580000079,97.53839770000195,j,97.5384395000001,,,97.53844930000196,None,,,97.5549205999996,97.5549205999996,97.5549205999996,2.1924480000016047,0.14194090000819415,,,,,,,,,,,,,,,,,,,,,,,,,,,,,,,,,,,00019,001,2025-11-09_15h07.19.518,MST_task,2024.2.2,59.997216130673706,2025-11-09 15h18.33.208244 +0530,
3,practice_images/037a.jpg,4,4,0,None,j,18.468930399991223,None,,,,,,,,,0,4,4,2,,,,,97.5549205999996,,,,,,,,,,,,,,,,,,,,,,,,,,,,,,97.53850500000408,97.5549205999996,98.05490390000341,98.03847850000602,98.04504910000833,98.05490390000341,98.05490390000341,98.05490390000341,101.03835030000482,None,101.03837790001126,101.05484090000391,101.05484090000391,119.5381774000125,j,18.468930399991223,None,101.05484090000391,101.05484090000391,101.05484090000391,,,,,,,,,,,,,,,,,,,,,,,,,,,,,,,,,,,,,00019,001,2025-11-09_15h07.19.518,MST_task,2024.2.2,59.997216130673706,2025-11-09 15h18.33.208244 +0530,
9,practice_images/180a.jpg,5,5,0,None,f,2.2813102999934927,None,,,,,,,,,0,5,5,8,,,,,119.55453820001276,,,,,,,,,,,,,,,,,,,,,,,,,,,,,,119.53826400000253,119.55453820001276,120.05452020000666,120.03803340000741,120.04736290000437,120.05452020000666,120.05452020000666,120.05452020000666,123.03804540001147,None,123.03965590000735,123.05445860000327,123.05445860000327,125.33801500000118,f,2.2813102999934927,None,123.05445860000327,123.05445860000327,123.05445860000327,,,,,,,,,,,,,,,,,,,,,,,,,,,,,,,,,,,,,00019,001,2025-11-09_15h07.19.518,MST_task,2024.2.2,59.997216130673706,2025-11-09 15h18.33.208244 +0530,
8,practice_images/178a.jpg,6,6,0,None,f,2.421259499998996,None,,,,,,,,,0,6,6,7,,,,,125.3543609000044,,,,,,,,,,,,,,,,,,,,,,,,,,,,,,125.3380848000088,125.3543609000044,125.8543983999989,125.83788089999871,125.8446324000106,125.8543983999989,125.8543983999989,125.8543983999989,128.83777880000707,None,128.83781130000716,128.85437600000296,128.85437600000296,131.28801060000842,f,2.421259499998996,None,128.85437600000296,128.85437600000296,128.85437600000296,,,,,,,,,,,,,,,,,,,,,,,,,,,,,,,,,,,,,00019,001,2025-11-09_15h07.19.518,MST_task,2024.2.2,59.997216130673706,2025-11-09 15h18.33.208244 +0530,
7,practice_images/166a.jpg,7,7,0,None,f,2.5731613999960246,None,,,,,,,,,0,7,7,6,,,,,131.3042800000112,,,,,,,,,,,,,,,,,,,,,,,,,,,,,,131.2880853000097,131.3042800000112,131.80424930001027,131.78779090000899,131.79465300000447,131.80424930001027,131.80424930001027,131.80424930001027,134.78768800001126,None,134.7877184000099,134.80420940001204,134.80420940001204,137.38776900000812,f,2.5731613999960246,None,134.80420940001204,134.80420940001204,134.80420940001204,,,,,,,,,,,,,,,,,,,,,,,,,,,,,,,,,,,,,00019,001,2025-11-09_15h07.19.518,MST_task,2024.2.2,59.997216130673706,2025-11-09 15h18.33.208244 +0530,
6,practice_images/158a.jpg,8,8,0,None,j,0.27189950000320096,None,,,,,,,,,0,8,8,5,,,,,137.40414560001227,,,,,,,,,,,,,,,,,,,,,,,,,,,,,,137.38785240000288,137.40414560001227,137.9041164000082,137.88764840000658,137.89588770001137,137.9041164000082,137.9041164000082,137.9041164000082,140.88756200000353,None,140.88759500000742,140.90418969999882,140.90418969999882,141.187659800009,j,0.27189950000320096,None,140.90418969999882,140.90418969999882,140.90418969999882,,,,,,,,,,,,,,,,,,,,,,,,,,,,,,,,,,,,,00019,001,2025-11-09_15h07.19.518,MST_task,2024.2.2,59.997216130673706,2025-11-09 15h18.33.208244 +0530,
5,practice_images/139a.jpg,9,9,0,None,f,0.6035924999887357,None,,,,,,,,,0,9,9,4,,,,,141.20411859999876,,,,,,,,,,,,,,,,,,,,,,,,,,,,,,141.18772360000003,141.20411859999876,141.70403930000612,141.68753500000457,141.69563430000562,141.70403930000612,141.70403930000612,141.70403930000612,144.68751470001007,None,144.68754860000627,144.70399400001043,144.70399400001043,145.32093090000853,f,0.6035924999887357,None,144.70399400001043,144.70399400001043,144.70399400001043,,,,,,,,,,,,,,,,,,,,,,,,,,,,,,,,,,,,,00019,001,2025-11-09_15h07.19.518,MST_task,2024.2.2,59.997216130673706,2025-11-09 15h18.33.208244 +0530,
,,,,,,,,,,,,,,,,,,,,,,,,,,,,,,,,,,,,,,,,,,,,,,,,,,,,,,,,,,,,,,,,,,,,,,,,,,,,,145.3209874000022,145.33718940000108,145.33718940000108,214.50281360000372,space,69.16428779999842,None,,,,,,,,,,,,,,,,,,,,,,,,,,,,00019,001,2025-11-09_15h07.19.518,MST_task,2024.2.2,59.997216130673706,2025-11-09 15h18.33.208244 +0530,
,Objects\010a.jpg,0,0,0,,,,,,,f,2.8985322000080487,None,None,,,,,,,0,0,0,0,214.5190159000049,,,,,,,,,,,,,,,,,,,,,,,,,,,,,,214.50338540000666,214.5190159000049,215.03604170000472,215.0025362000015,,,,,,,,,,,,,,,,,,,,,,,,,,215.01897920000192,215.03604170000472,215.03604170000472,215.03604170000472,218.0191424000077,f,2.8985322000080487,None,218.02128240000457,218.0212950000132,None,,,,,,,,,,,,,,,,,00019,001,2025-11-09_15h07.19.518,MST_task,2024.2.2,59.997216130673706,2025-11-09 15h18.33.208244 +0530,
,Objects\125a.jpg,1,0,1,,,,,,,None,,,j,0.5636809999996331,None,,,,,1,0,1,0,218.03562190000957,,,,,,,,,,,,,,,,,,,,,,,,,,,,,,218.02135230001295,218.03562190000957,218.53559480000695,218.51918090000981,,,,,,,,,,,,,,,,,,,,,,,,,,218.5269515000109,218.53559480000695,218.53559480000695,218.53559480000695,221.51916580001125,None,,,221.5191954000038,222.10254820001137,j,221.5355586000078,221.5355586000078,221.5355586000078,221.5355586000078,221.5355586000078,0.5636809999996331,None,,,,,,,,,,00019,001,2025-11-09_15h07.19.518,MST_task,2024.2.2,59.997216130673706,2025-11-09 15h18.33.208244 +0530,
,Objects\088a.jpg,2,0,2,,,,,,,None,,,f,3.920522300002631,None,,,,,2,0,2,0,222.11888600001112,,,,,,,,,,,,,,,,,,,,,,,,,,,,,,222.10264599999937,222.11888600001112,222.61887790000765,222.60234710000805,,,,,,,,,,,,,,,,,,,,,,,,,,222.61035250000714,222.61887790000765,222.61887790000765,222.61887790000765,225.60234640000272,None,,,225.60237849999976,229.55233710000175,f,225.61880410001322,225.61880410001322,225.61880410001322,225.61880410001322,225.61880410001322,3.920522300002631,None,,,,,,,,,,00019,001,2025-11-09_15h07.19.518,MST_task,2024.2.2,59.997216130673706,2025-11-09 15h18.33.208244 +0530,
,Objects\021a.jpg,3,0,3,,,,,,,None,,,f,0.5272880000120495,None,,,,,3,0,3,0,229.56871770000726,,,,,,,,,,,,,,,,,,,,,,,,,,,,,,229.55244640000456,229.56871770000726,230.06868020001275,230.05230660000234,,,,,,,,,,,,,,,,,,,,,,,,,,230.05992250000418,230.06868020001275,230.06868020001275,230.06868020001275,233.05238790001022,None,,,233.05242340000405,233.6024402000039,f,233.06865270000708,233.06865270000708,233.06865270000708,233.06865270000708,233.06865270000708,0.5272880000120495,None,,,,,,,,,,00019,001,2025-11-09_15h07.19.518,MST_task,2024.2.2,59.997216130673706,2025-11-09 15h18.33.208244 +0530,
,Objects\026a.jpg,4,0,4,,,,,,,None,,,f,2.8553694000001997,None,,,,,4,0,4,0,233.61860580000211,,,,,,,,,,,,,,,,,,,,,,,,,,,,,,233.60251650000282,233.61860580000211,234.11861280001176,234.1022241000028,,,,,,,,,,,,,,,,,,,,,,,,,,234.10988820000784,234.11861280001176,234.11861280001176,234.11861280001176,237.1022066000005,None,,,237.10223780000524,239.98553150000225,f,237.1186483000056,237.1186483000056,237.1186483000056,237.1186483000056,237.1186483000056,2.8553694000001997,None,,,,,,,,,,00019,001,2025-11-09_15h07.19.518,MST_task,2024.2.2,59.997216130673706,2025-11-09 15h18.33.208244 +0530,
,Objects\179a.jpg,5,0,5,,,,,,,None,,,f,0.7020762000029208,None,,,,,5,0,5,0,240.00187480000022,,,,,,,,,,,,,,,,,,,,,,,,,,,,,,239.98565529999905,240.00187480000022,240.50190430000657,240.48539860000892,,,,,,,,,,,,,,,,,,,,,,,,,,240.49339260000852,240.50190430000657,240.50190430000657,240.50190430000657,243.48542100000486,None,,,243.48545900000317,244.21874580001167,f,243.50181390000216,243.50181390000216,243.50181390000216,243.50181390000216,243.50181390000216,0.7020762000029208,None,,,,,,,,,,00019,001,2025-11-09_15h07.19.518,MST_task,2024.2.2,59.997216130673706,2025-11-09 15h18.33.208244 +0530,
,Objects\032a.jpg,6,0,6,,,,,,,None,,,j,1.1200508999900194,None,,,,,6,0,6,0,244.2351353000122,,,,,,,,,,,,,,,,,,,,,,,,,,,,,,244.2188490000117,244.2351353000122,244.73512240000127,244.71868130000075,,,,,,,,,,,,,,,,,,,,,,,,,,244.72641470000963,244.73512240000127,244.73512240000127,244.73512240000127,247.71866350001073,None,,,247.7186944000132,248.8687143999996,j,247.73508410000068,247.73508410000068,247.73508410000068,247.73508410000068,247.73508410000068,1.1200508999900194,None,,,,,,,,,,00019,001,2025-11-09_15h07.19.518,MST_task,2024.2.2,59.997216130673706,2025-11-09 15h18.33.208244 +0530,
,Scenes\060a.jpg,7,0,7,,,,,,,None,,,j,1.0005972999933874,None,,,,,7,0,7,0,248.88508120000188,,,,,,,,,,,,,,,,,,,,,,,,,,,,,,248.8688406000001,248.88508120000188,249.41862029999902,249.3685286000109,,,,,,,,,,,,,,,,,,,,,,,,,,249.40542290000303,249.41862029999902,249.41862029999902,249.41862029999902,252.38498719999916,None,,,252.38617870000598,253.41862240000046,j,,,,252.40163250001206,252.40163250001206,1.0005972999933874,None,,,,,,,,,,00019,001,2025-11-09_15h07.19.518,MST_task,2024.2.2,59.997216130673706,2025-11-09 15h18.33.208244 +0530,
,Scenes\038a.jpg,8,0,8,,,,,,,None,,,j,0.732442299995455,None,,,,,8,0,8,0,253.43495840000105,,,,,,,,,,,,,,,,,,,,,,,,,,,,,,253.4187343000085,253.43495840000105,253.95185460000357,253.91839760000585,,,,,,,,,,,,,,,,,,,,,,,,,,253.93783230001281,253.95185460000357,253.95185460000357,253.95185460000357,256.9349018000066,None,,,256.93493300001137,257.68518620000395,j,,,,256.9515845999995,256.9515845999995,0.732442299995455,None,,,,,,,,,,00019,001,2025-11-09_15h07.19.518,MST_task,2024.2.2,59.997216130673706,2025-11-09 15h18.33.208244 +0530,
,Scenes\188a.jpg,9,0,9,,,,,,,None,,,j,0.8191781999921659,None,,,,,9,0,9,0,257.70147670000733,,,,,,,,,,,,,,,,,,,,,,,,,,,,,,257.68529580000904,257.70147670000733,258.2185969000129,258.18499059999886,,,,,,,,,,,,,,,,,,,,,,,,,,258.2008127000008,258.2185969000129,258.2185969000129,258.2185969000129,261.201478700008,None,,,261.2015121000004,262.051698100011,j,,,,261.21811630000593,261.21811630000593,0.8191781999921659,None,,,,,,,,,,00019,001,2025-11-09_15h07.19.518,MST_task,2024.2.2,59.997216130673706,2025-11-09 15h18.33.208244 +0530,
,Scenes\055a.jpg,10,0,10,,,,,,,None,,,j,0.4799807000090368,None,,,,,10,0,10,0,262.0681026000093,,,,,,,,,,,,,,,,,,,,,,,,,,,,,,262.05177280001226,262.0681026000093,262.5850385000085,262.5515968000109,,,,,,,,,,,,,,,,,,,,,,,,,,262.56850430001214,262.5850385000085,262.5850385000085,262.5850385000085,265.56798320000235,None,,,265.5680171000131,266.0683022000012,j,,,,265.58460800000466,265.58460800000466,0.4799807000090368,None,,,,,,,,,,00019,001,2025-11-09_15h07.19.518,MST_task,2024.2.2,59.997216130673706,2025-11-09 15h18.33.208244 +0530,
,Scenes\164a.jpg,11,0,11,,,,,,,None,,,j,0.9120125999907032,None,,,,,11,0,11,0,266.0846178000065,,,,,,,,,,,,,,,,,,,,,,,,,,,,,,266.0683790000039,266.0846178000065,266.6012497000047,266.5682698000019,,,,,,,,,,,,,,,,,,,,,,,,,,266.5852989000123,266.6012497000047,266.6012497000047,266.6012497000047,269.5845502000011,None,,,269.58458860000246,270.51809860000503,j,,,,269.6011784000002,269.6011784000002,0.9120125999907032,None,,,,,,,,,,00019,001,2025-11-09_15h07.19.518,MST_task,2024.2.2,59.997216130673706,2025-11-09 15h18.33.208244 +0530,
,Scenes\128a.jpg,12,0,12,,,,,,,None,,,j,0.6866616999905091,None,,,,,12,0,12,0,270.53449140000157,,,,,,,,,,,,,,,,,,,,,,,,,,,,,,270.5181774000084,270.53449140000157,271.05112070000905,271.01810540001316,,,,,,,,,,,,,,,,,,,,,,,,,,271.0378754000121,271.05112070000905,271.05112070000905,271.05112070000905,274.03450990001147,None,,,274.03454410000995,274.7514807000116,j,,,,274.05105910000566,274.05105910000566,0.6866616999905091,None,,,,,,,,,,00019,001,2025-11-09_15h07.19.518,MST_task,2024.2.2,59.997216130673706,2025-11-09 15h18.33.208244 +0530,
,Scenes\069a.jpg,13,0,13,,,,,,,None,,,j,0.5707639000029303,None,,,,,13,0,13,0,274.76774470000237,,,,,,,,,,,,,,,,,,,,,,,,,,,,,,274.75159320000967,274.76774470000237,275.28436540000257,275.2513181000104,,,,,,,,,,,,,,,,,,,,,,,,,,275.2683270000125,275.28436540000257,275.28436540000257,275.28436540000257,278.26769050001167,None,,,278.2677270000131,278.8679283000092,j,,,,278.2843295000057,278.2843295000057,0.5707639000029303,None,,,,,,,,,,00019,001,2025-11-09_15h07.19.518,MST_task,2024.2.2,59.997216130673706,2025-11-09 15h18.33.208244 +0530,
,Objects\022a.jpg,14,0,14,,,,,,,None,,,f,0.9707683000015095,None,,,,,14,0,14,0,278.88431120000314,,,,,,,,,,,,,,,,,,,,,,,,,,,,,,278.86803480000526,278.88431120000314,279.40120079999906,279.36777670000447,,,,,,,,,,,,,,,,,,,,,,,,,,279.3875306000118,279.40120079999906,279.40120079999906,279.40120079999906,282.38429010000254,None,,,282.38585800000874,283.3845352000062,f,,,,282.40089550000266,282.40089550000266,0.9707683000015095,None,,,,,,,,,,00019,001,2025-11-09_15h07.19.518,MST_task,2024.2.2,59.997216130673706,2025-11-09 15h18.33.208244 +0530,
,Objects\126a.jpg,15,0,15,,,,,,,None,,,j,2.9001556000002893,None,,,,,15,0,15,0,283.4008799000003,,,,,,,,,,,,,,,,,,,,,,,,,,,,,,283.3846087000129,283.4008799000003,283.91751150001073,283.88458450000326,,,,,,,,,,,,,,,,,,,,,,,,,,283.90113610000117,283.91751150001073,283.91751150001073,283.91751150001073,286.9008360000007,None,,,286.90088780000224,289.8344281000027,j,,,,286.917468700005,286.917468700005,2.9001556000002893,None,,,,,,,,,,00019,001,2025-11-09_15h07.19.518,MST_task,2024.2.2,59.997216130673706,2025-11-09 15h18.33.208244 +0530,
,Objects\094a.jpg,16,0,16,,,,,,,None,,,f,0.9344127000076696,None,,,,,16,0,16,0,289.85074200000963,,,,,,,,,,,,,,,,,,,,,,,,,,,,,,289.8345057000115,289.85074200000963,290.3674011000112,290.33425060000445,,,,,,,,,,,,,,,,,,,,,,,,,,290.3497414000012,290.3674011000112,290.3674011000112,290.3674011000112,293.35072539999965,None,,,293.3507602000027,294.31764900000417,f,,,,293.36733470000036,293.36733470000036,0.9344127000076696,None,,,,,,,,,,00019,001,2025-11-09_15h07.19.518,MST_task,2024.2.2,59.997216130673706,2025-11-09 15h18.33.208244 +0530,
,Objects\044a.jpg,17,0,17,,,,,,,None,,,f,0.5580066999973496,None,,,,,17,0,17,0,294.33398229999875,,,,,,,,,,,,,,,,,,,,,,,,,,,,,,294.31775560000096,294.33398229999875,294.8506335000129,294.8174499000015,,,,,,,,,,,,,,,,,,,,,,,,,,294.83290829999896,294.8506335000129,294.8506335000129,294.8506335000129,297.8339846000017,None,,,297.83401630001026,298.41749490000075,f,,,,297.8505759000109,297.8505759000109,0.5580066999973496,None,,,,,,,,,,00019,001,2025-11-09_15h07.19.518,MST_task,2024.2.2,59.997216130673706,2025-11-09 15h18.33.208244 +0530,
,Objects\186a.jpg,18,0,18,,,,,,,f,2.129068800000823,0.16144490000442602,None,,,,,,,18,0,18,0,298.433898400006,,,,,,,,,,,,,,,,,,,,,,,,,,,,,,298.4175641000038,298.433898400006,298.95053870000993,298.91736630001105,,,,,,,,,,,,,,,,,,,,,,,,,,298.9329349000036,298.95053870000993,298.95053870000993,298.95053870000993,301.9339391000103,f,2.129068800000823,0.16144490000442602,301.9339777000132,301.9339881000051,None,,,,,,,,,,,,,,,,,00019,001,2025-11-09_15h07.19.518,MST_task,2024.2.2,59.997216130673706,2025-11-09 15h18.33.208244 +0530,
,Objects\167a.jpg,19,0,19,,,,,,,f,2.1056852000037907,0.14091069999267347,None,,,,,,,19,0,19,0,301.9504775000096,,,,,,,,,,,,,,,,,,,,,,,,,,,,,,301.9340493000054,301.9504775000096,302.46711979999964,302.43403860001126,,,,,,,,,,,,,,,,,,,,,,,,,,302.44966720000957,302.46711979999964,302.46711979999964,302.46711979999964,305.45054489999893,f,2.1056852000037907,0.14091069999267347,305.4505862000078,305.45059630001197,None,,,,,,,,,,,,,,,,,00019,001,2025-11-09_15h07.19.518,MST_task,2024.2.2,59.997216130673706,2025-11-09 15h18.33.208244 +0530,
,Objects\028a.jpg,20,0,20,,,,,,,None,,,f,1.1904128000023775,None,,,,,20,0,20,0,305.4670604999992,,,,,,,,,,,,,,,,,,,,,,,,,,,,,,305.4506606000068,305.4670604999992,305.9837288000126,305.950702800008,,,,,,,,,,,,,,,,,,,,,,,,,,305.96664290000626,305.9837288000126,305.9837288000126,305.9837288000126,308.96719990001293,None,,,308.96724950001226,310.1840494000062,f,,,,308.98366270000406,308.98366270000406,1.1904128000023775,None,,,,,,,,,,00019,001,2025-11-09_15h07.19.518,MST_task,2024.2.2,59.997216130673706,2025-11-09 15h18.33.208244 +0530,
,Scenes\146a.jpg,21,0,21,,,,,,,None,,,j,0.5103023999981815,None,,,,,21,0,21,0,310.2003315000038,,,,,,,,,,,,,,,,,,,,,,,,,,,,,,310.18415850000747,310.2003315000038,310.71692500000063,310.6837705000071,,,,,,,,,,,,,,,,,,,,,,,,,,310.70359870001266,310.71692500000063,310.71692500000063,310.71692500000063,313.70028110001294,None,,,313.70141200000944,314.23383360001026,j,,,,313.7168859000085,313.7168859000085,0.5103023999981815,None,,,,,,,,,,00019,001,2025-11-09_15h07.19.518,MST_task,2024.2.2,59.997216130673706,2025-11-09 15h18.33.208244 +0530,
,Scenes\180a.jpg,22,0,22,,,,,,,j,1.932770100000198,0.16167699999641627,None,,,,,,,22,0,22,0,314.25021370001195,,,,,,,,,,,,,,,,,,,,,,,,,,,,,,314.23392779999995,314.25021370001195,314.76683870000124,314.73379670000577,,,,,,,,,,,,,,,,,,,,,,,,,,314.7496569000068,314.76683870000124,314.76683870000124,314.76683870000124,317.7501980000088,j,1.932770100000198,0.16167699999641627,317.7502349999995,317.75024510000367,None,,,,,,,,,,,,,,,,,00019,001,2025-11-09_15h07.19.518,MST_task,2024.2.2,59.997216130673706,2025-11-09 15h18.33.208244 +0530,
,Scenes\059a.jpg,23,0,23,,,,,,,j,1.5664766999980202,0.10803399998985697,None,,,,,,,23,0,23,0,317.7668010000052,,,,,,,,,,,,,,,,,,,,,,,,,,,,,,317.7503018999996,317.7668010000052,,318.25030120000883,,,,,,,,,,,,,,,,,,,,,,,,,,318.2699066000059,318.28342770000745,318.28342770000745,318.28342770000745,321.26687170000514,j,1.5664766999980202,0.10803399998985697,321.2669156000047,321.26692520000506,None,,,,,,,,,,,,,,,,,00019,001,2025-11-09_15h07.19.518,MST_task,2024.2.2,59.997216130673706,2025-11-09 15h18.33.208244 +0530,
,Scenes\031a.jpg,24,0,24,,,,,,,f,2.7474388999980874,0.15319240000098944,None,,,,,,,24,0,24,0,321.28338890000305,,,,,,,,,,,,,,,,,,,,,,,,,,,,,,321.2670269000082,321.28338890000305,321.8003742000001,321.76699129999906,,,,,,,,,,,,,,,,,,,,,,,,,,321.786588700008,321.8003742000001,321.8003742000001,321.8003742000001,324.78340520001075,f,2.7474388999980874,0.15319240000098944,324.7834411000076,324.7834509000095,None,,,,,,,,,,,,,,,,,00019,001,2025-11-09_15h07.19.518,MST_task,2024.2.2,59.997216130673706,2025-11-09 15h18.33.208244 +0530,
,Scenes\032a.jpg,25,0,25,,,,,,,j,1.8704989999969257,0.1282850999996299,None,,,,,,,25,0,25,0,324.799992500004,,,,,,,,,,,,,,,,,,,,,,,,,,,,,,324.7835596000077,324.799992500004,325.31691250001313,325.2836094000086,,,,,,,,,,,,,,,,,,,,,,,,,,325.30616459999874,325.31691250001313,325.31691250001313,325.31691250001313,328.3000058000034,j,1.8704989999969257,0.1282850999996299,328.3000446000078,328.3000544000097,None,,,,,,,,,,,,,,,,,00019,001,2025-11-09_15h07.19.518,MST_task,2024.2.2,59.997216130673706,2025-11-09 15h18.33.208244 +0530,
,Scenes\058a.jpg,26,0,26,,,,,,,f,2.710090799999307,0.14378479999140836,None,,,,,,,26,0,26,0,328.31658340001013,,,,,,,,,,,,,,,,,,,,,,,,,,,,,,328.3001115000079,328.31658340001013,328.83331760000146,328.80005320000055,,,,,,,,,,,,,,,,,,,,,,,,,,328.8174486000062,328.83331760000146,328.83331760000146,328.83331760000146,331.81651710000006,f,2.710090799999307,0.14378479999140836,331.8165530000115,331.8165626000118,None,,,,,,,,,,,,,,,,,00019,001,2025-11-09_15h07.19.518,MST_task,2024.2.2,59.997216130673706,2025-11-09 15h18.33.208244 +0530,
,Scenes\119a.jpg,27,0,27,,,,,,,j,1.9060753999947337,0.1379579000058584,None,,,,,,,27,0,27,0,331.8332298000023,,,,,,,,,,,,,,,,,,,,,,,,,,,,,,331.8166644000012,331.8332298000023,332.3497878000053,332.3166455000028,,,,,,,,,,,,,,,,,,,,,,,,,,332.3356073000032,332.3497878000053,332.3497878000053,332.3497878000053,335.3331109999999,j,1.9060753999947337,0.1379579000058584,335.33314580000297,335.33315560000483,None,,,,,,,,,,,,,,,,,00019,001,2025-11-09_15h07.19.518,MST_task,2024.2.2,59.997216130673706,2025-11-09 15h18.33.208244 +0530,
,Objects\065a.jpg,28,0,28,,,,,,,None,,,j,1.5687427999946522,None,,,,,28,0,28,0,335.3497226000036,,,,,,,,,,,,,,,,,,,,,,,,,,,,,,335.3332415000041,335.3497226000036,335.866680600011,335.8332442000101,,,,,,,,,,,,,,,,,,,,,,,,,,335.8529009000049,335.866680600011,335.866680600011,335.866680600011,338.8498511000071,None,,,338.8514623000083,340.45002610000665,j,,,,338.86631090000446,338.86631090000446,1.5687427999946522,None,,,,,,,,,,00019,001,2025-11-09_15h07.19.518,MST_task,2024.2.2,59.997216130673706,2025-11-09 15h18.33.208244 +0530,
,Objects\161a.jpg,29,0,29,,,,,,,f,1.6708641000004718,0.14579199999570847,None,,,,,,,29,0,29,0,340.4662873000052,,,,,,,,,,,,,,,,,,,,,,,,,,,,,,340.4501550999994,340.4662873000052,340.98295900000085,340.9499092000042,,,,,,,,,,,,,,,,,,,,,,,,,,340.9674931000045,340.98295900000085,340.98295900000085,340.98295900000085,343.9662614000117,f,1.6708641000004718,0.14579199999570847,343.96630970000115,343.96631960000377,None,,,,,,,,,,,,,,,,,00019,001,2025-11-09_15h07.19.518,MST_task,2024.2.2,59.997216130673706,2025-11-09 15h18.33.208244 +0530,
,Objects\048a.jpg,30,0,30,,,,,,,None,,,j,0.05411979999917094,None,,,,,30,0,30,0,343.9828981000028,,,,,,,,,,,,,,,,,,,,,,,,,,,,,,343.9663842000009,343.9828981000028,,344.46635790000437,,,,,,,,,,,,,,,,,,,,,,,,,,344.4821335000015,344.49952580001263,344.49952580001263,344.49952580001263,347.4829988999991,None,,,347.48303440000745,347.56657070000074,j,,,,347.499487100009,347.499487100009,0.05411979999917094,None,,,,,,,,,,00019,001,2025-11-09_15h07.19.518,MST_task,2024.2.2,59.997216130673706,2025-11-09 15h18.33.208244 +0530,
,Objects\184a.jpg,31,0,31,,,,,,,None,,,j,0.6408756999881007,None,,,,,31,0,31,0,347.5828490999993,,,,,,,,,,,,,,,,,,,,,,,,,,,,,,347.5666401000053,347.5828490999993,348.09945490000246,348.066370200002,,,,,,,,,,,,,,,,,,,,,,,,,,348.08187870000256,348.09945490000246,348.09945490000246,348.09945490000246,351.08277069999895,None,,,351.0828107999987,351.74976810000953,j,,,,351.0994136000081,351.0994136000081,0.6408756999881007,None,,,,,,,,,,00019,001,2025-11-09_15h07.19.518,MST_task,2024.2.2,59.997216130673706,2025-11-09 15h18.33.208244 +0530,
,Objects\096a.jpg,32,0,32,,,,,,,f,1.8968808999925386,0.15776840000762604,None,,,,,,,32,0,32,0,351.7660564000107,,,,,,,,,,,,,,,,,,,,,,,,,,,,,,351.74989020000794,351.7660564000107,352.2826969000016,352.2495517000061,,,,,,,,,,,,,,,,,,,,,,,,,,352.2656442000007,352.2826969000016,352.2826969000016,352.2826969000016,355.2660414999991,f,1.8968808999925386,0.15776840000762604,355.2660775000113,355.26608770000166,None,,,,,,,,,,,,,,,,,00019,001,2025-11-09_15h07.19.518,MST_task,2024.2.2,59.997216130673706,2025-11-09 15h18.33.208244 +0530,
,Objects\173a.jpg,33,0,33,,,,,,,f,2.032209299999522,0.13445620000129566,None,,,,,,,33,0,33,0,355.28273590000754,,,,,,,,,,,,,,,,,,,,,,,,,,,,,,355.26614540000446,355.28273590000754,355.7992816000042,355.76612970000133,,,,,,,,,,,,,,,,,,,,,,,,,,355.78276030000416,355.7992816000042,355.7992816000042,355.7992816000042,358.78263460000744,f,2.032209299999522,0.13445620000129566,358.7826847000106,358.7826946000132,None,,,,,,,,,,,,,,,,,00019,001,2025-11-09_15h07.19.518,MST_task,2024.2.2,59.997216130673706,2025-11-09 15h18.33.208244 +0530,
,Objects\083a.jpg,34,0,34,,,,,,,f,0.8787700999964727,0.12434399999619927,None,,,,,,,34,0,34,0,358.79927030000545,,,,,,,,,,,,,,,,,,,,,,,,,,,,,,358.7827818000078,358.79927030000545,359.31590070000675,359.28279520000797,,,,,,,,,,,,,,,,,,,,,,,,,,359.29917370001203,359.31590070000675,359.31590070000675,359.31590070000675,362.2992047000007,f,0.8787700999964727,0.12434399999619927,362.29925780001213,362.2992712000123,None,,,,,,,,,,,,,,,,,00019,001,2025-11-09_15h07.19.518,MST_task,2024.2.2,59.997216130673706,2025-11-09 15h18.33.208244 +0530,
,Scenes\062a.jpg,35,0,35,,,,,,,j,1.0202790000039386,0.16565059999993537,None,,,,,,,35,0,35,0,362.3158320000075,,,,,,,,,,,,,,,,,,,,,,,,,,,,,,362.2993434000091,362.3158320000075,362.8491265000048,362.79927440000756,,,,,,,,,,,,,,,,,,,,,,,,,,362.83409020000545,362.8491265000048,362.8491265000048,362.8491265000048,365.81579890000285,j,1.0202790000039386,0.16565059999993537,365.8170218000014,365.81703299999936,None,,,,,,,,,,,,,,,,,00019,001,2025-11-09_15h07.19.518,MST_task,2024.2.2,59.997216130673706,2025-11-09 15h18.33.208244 +0530,
,Scenes\075a.jpg,36,0,36,,,,,,,j,2.240500999992946,0.1263436000008369,None,,,,,,,36,0,36,0,365.8324270000012,,,,,,,,,,,,,,,,,,,,,,,,,,,,,,365.81712250001146,365.8324270000012,366.3490485000075,366.31591840001056,,,,,,,,,,,,,,,,,,,,,,,,,,366.3302637000015,366.3490485000075,366.3490485000075,366.3490485000075,369.33252890000585,j,2.240500999992946,0.1263436000008369,369.33259499999986,369.3326044000132,None,,,,,,,,,,,,,,,,,00019,001,2025-11-09_15h07.19.518,MST_task,2024.2.2,59.997216130673706,2025-11-09 15h18.33.208244 +0530,
,Scenes\022a.jpg,37,0,37,,,,,,,j,1.2116027000010945,0.11563329999626148,None,,,,,,,37,0,37,0,369.3490102000069,,,,,,,,,,,,,,,,,,,,,,,,,,,,,,369.33269270000164,369.3490102000069,369.8658118000021,369.83248890000687,,,,,,,,,,,,,,,,,,,,,,,,,,369.8449787999998,369.8658118000021,369.8658118000021,369.8658118000021,372.84900840000773,j,1.2116027000010945,0.11563329999626148,372.8490587000124,372.84906830001273,None,,,,,,,,,,,,,,,,,00019,001,2025-11-09_15h07.19.518,MST_task,2024.2.2,59.997216130673706,2025-11-09 15h18.33.208244 +0530,
,Scenes\181a.jpg,38,0,38,,,,,,,f,1.9334342000074685,0.1858077999931993,None,,,,,,,38,0,38,0,372.86560330000066,,,,,,,,,,,,,,,,,,,,,,,,,,,,,,372.8491606000025,372.86560330000066,373.38223280000966,373.34910800000944,,,,,,,,,,,,,,,,,,,,,,,,,,373.3675573000073,373.38223280000966,373.38223280000966,373.38223280000966,376.36558300000615,f,1.9334342000074685,0.1858077999931993,376.3656178000092,376.36562740000954,None,,,,,,,,,,,,,,,,,00019,001,2025-11-09_15h07.19.518,MST_task,2024.2.2,59.997216130673706,2025-11-09 15h18.33.208244 +0530,
,Scenes\131a.jpg,39,0,39,,,,,,,j,1.0587039999954868,0.150397300007171,None,,,,,,,39,0,39,0,376.3821922000061,,,,,,,,,,,,,,,,,,,,,,,,,,,,,,376.3656832000124,376.3821922000061,376.89885030000005,376.8657358000055,,,,,,,,,,,,,,,,,,,,,,,,,,376.8826470000058,376.89885030000005,376.89885030000005,376.89885030000005,379.8822543999995,j,1.0587039999954868,0.150397300007171,379.8822954000061,379.88230620000104,None,,,,,,,,,,,,,,,,,00019,001,2025-11-09_15h07.19.518,MST_task,2024.2.2,59.997216130673706,2025-11-09 15h18.33.208244 +0530,
,Scenes\171a.jpg,40,0,40,,,,,,,f,1.2161139999952866,0.13729690000764094,None,,,,,,,40,0,40,0,379.8987863000075,,,,,,,,,,,,,,,,,,,,,,,,,,,,,,379.88237020000815,379.8987863000075,380.41563240000687,380.382271200011,,,,,,,,,,,,,,,,,,,,,,,,,,380.4040750000131,380.41563240000687,380.41563240000687,380.41563240000687,383.39873570000054,f,1.2161139999952866,0.13729690000764094,383.3987712000089,383.3987858000037,None,,,,,,,,,,,,,,,,,00019,001,2025-11-09_15h07.19.518,MST_task,2024.2.2,59.997216130673706,2025-11-09 15h18.33.208244 +0530,
,Scenes\179a.jpg,41,0,41,,,,,,,j,1.6527036000043154,0.143183099993621,None,,,,,,,41,0,41,0,383.4153784000082,,,,,,,,,,,,,,,,,,,,,,,,,,,,,,383.39887630000885,383.4153784000082,383.93243850000727,383.89889760001097,,,,,,,,,,,,,,,,,,,,,,,,,,383.91393770001014,383.93243850000727,383.93243850000727,383.93243850000727,386.9153293999989,j,1.6527036000043154,0.143183099993621,386.91537290000997,386.9153831000003,None,,,,,,,,,,,,,,,,,00019,001,2025-11-09_15h07.19.518,MST_task,2024.2.2,59.997216130673706,2025-11-09 15h18.33.208244 +0530,
,Objects\183a.jpg,42,0,42,,,,,,,None,,,j,1.0268341000046348,None,,,,,42,0,42,0,386.9319383000111,,,,,,,,,,,,,,,,,,,,,,,,,,,,,,386.9154433000076,386.9319383000111,,387.4154770000023,,,,,,,,,,,,,,,,,,,,,,,,,,387.43391770000744,387.44883340000524,387.44883340000524,387.44883340000524,390.4319705000089,None,,,390.4335362999991,391.4821649000078,j,,,,390.44857560000673,390.44857560000673,1.0268341000046348,None,,,,,,,,,,00019,001,2025-11-09_15h07.19.518,MST_task,2024.2.2,59.997216130673706,2025-11-09 15h18.33.208244 +0530,
,Objects\086a.jpg,43,0,43,,,,,,,None,,,j,1.4428200999973342,None,,,,,43,0,43,0,391.4985478000017,,,,,,,,,,,,,,,,,,,,,,,,,,,,,,391.4822697000054,391.4985478000017,392.0151996000059,391.9820989,,,,,,,,,,,,,,,,,,,,,,,,,,391.99795200000517,392.0151996000059,392.0151996000059,392.0151996000059,394.9986261000013,None,,,394.99866380001185,396.46554760000436,j,,,,395.01512890000595,395.01512890000595,1.4428200999973342,None,,,,,,,,,,00019,001,2025-11-09_15h07.19.518,MST_task,2024.2.2,59.997216130673706,2025-11-09 15h18.33.208244 +0530,
,Objects\140a.jpg,44,0,44,,,,,,,f,1.7893324000033317,0.15811209999083076,None,,,,,,,44,0,44,0,396.48269200000504,,,,,,,,,,,,,,,,,,,,,,,,,,,,,,396.46566470000835,396.48269200000504,396.99838780000573,396.9652514000045,,,,,,,,,,,,,,,,,,,,,,,,,,396.9837641000049,396.99838780000573,396.99838780000573,396.99838780000573,399.9817413000128,f,1.7893324000033317,0.15811209999083076,399.98179450001044,399.9818055000069,None,,,,,,,,,,,,,,,,,00019,001,2025-11-09_15h07.19.518,MST_task,2024.2.2,59.997216130673706,2025-11-09 15h18.33.208244 +0530,
,Objects\047a.jpg,45,0,45,,,,,,,f,1.2082450999878347,0.15804710000520572,None,,,,,,,45,0,45,0,399.9983578000101,,,,,,,,,,,,,,,,,,,,,,,,,,,,,,399.98187320001307,399.9983578000101,400.5150221000076,400.4817975000042,,,,,,,,,,,,,,,,,,,,,,,,,,400.4988338000112,400.5150221000076,400.5150221000076,400.5150221000076,403.4983263000031,f,1.2082450999878347,0.15804710000520572,403.4983601000131,403.49836960001267,None,,,,,,,,,,,,,,,,,00019,001,2025-11-09_15h07.19.518,MST_task,2024.2.2,59.997216130673706,2025-11-09 15h18.33.208244 +0530,
,Objects\029a.jpg,46,0,46,,,,,,,f,1.501435099999071,0.14863110000442248,None,,,,,,,46,0,46,0,403.51494110000203,,,,,,,,,,,,,,,,,,,,,,,,,,,,,,403.4984525000036,403.51494110000203,404.0316954000009,403.9984140000015,,,,,,,,,,,,,,,,,,,,,,,,,,404.01393250000547,404.0316954000009,404.0316954000009,404.0316954000009,407.01495180001075,f,1.501435099999071,0.14863110000442248,407.01498690000153,407.01499680000416,None,,,,,,,,,,,,,,,,,00019,001,2025-11-09_15h07.19.518,MST_task,2024.2.2,59.997216130673706,2025-11-09 15h18.33.208244 +0530,
,Objects\117a.jpg,47,0,47,,,,,,,f,2.7975579999911133,0.1575048000086099,None,,,,,,,47,0,47,0,407.0315330000012,,,,,,,,,,,,,,,,,,,,,,,,,,,,,,407.0150829000049,407.0315330000012,407.5482066000113,407.5151212000055,,,,,,,,,,,,,,,,,,,,,,,,,,407.5312042000005,407.5482066000113,407.5482066000113,407.5482066000113,410.53146950001246,f,2.7975579999911133,0.1575048000086099,410.53152120001323,410.5315343000111,None,,,,,,,,,,,,,,,,,00019,001,2025-11-09_15h07.19.518,MST_task,2024.2.2,59.997216130673706,2025-11-09 15h18.33.208244 +0530,
,Objects\187a.jpg,48,0,48,,,,,,,f,1.1127391999907559,0.15047700000286568,None,,,,,,,48,0,48,0,410.54812089999905,,,,,,,,,,,,,,,,,,,,,,,,,,,,,,410.53159230000165,410.54812089999905,411.0647744000016,411.03160080000816,,,,,,,,,,,,,,,,,,,,,,,,,,411.04735180000716,411.0647744000016,411.0647744000016,411.0647744000016,414.0481642000086,f,1.1127391999907559,0.15047700000286568,414.04819990000397,414.0482101000089,None,,,,,,,,,,,,,,,,,00019,001,2025-11-09_15h07.19.518,MST_task,2024.2.2,59.997216130673706,2025-11-09 15h18.33.208244 +0530,
,Scenes\113a.jpg,49,0,49,,,,,,,j,0.8864151000016136,0.15908509999280795,None,,,,,,,49,0,49,0,414.06470990000525,,,,,,,,,,,,,,,,,,,,,,,,,,,,,,414.0482980000088,414.06470990000525,414.5813676000107,414.54829280001286,,,,,,,,,,,,,,,,,,,,,,,,,,414.56715860000986,414.5813676000107,414.5813676000107,414.5813676000107,417.5646948000067,j,0.8864151000016136,0.15908509999280795,417.56579280000005,417.5658040000126,None,,,,,,,,,,,,,,,,,00019,001,2025-11-09_15h07.19.518,MST_task,2024.2.2,59.997216130673706,2025-11-09 15h18.33.208244 +0530,
,Scenes\011a.jpg,50,0,50,,,,,,,j,1.1211746999906609,0.14647380000678822,None,,,,,,,50,0,50,0,417.5813005000091,,,,,,,,,,,,,,,,,,,,,,,,,,,,,,417.5658911000064,417.5813005000091,418.09811700000137,418.06491690000985,,,,,,,,,,,,,,,,,,,,,,,,,,418.0875076000084,418.09811700000137,418.09811700000137,418.09811700000137,421.08129840000765,j,1.1211746999906609,0.14647380000678822,421.0813339000015,421.0813436000026,None,,,,,,,,,,,,,,,,,00019,001,2025-11-09_15h07.19.518,MST_task,2024.2.2,59.997216130673706,2025-11-09 15h18.33.208244 +0530,
,Scenes\015a.jpg,51,0,51,,,,,,,j,1.4668282000056934,0.16826360000413842,None,,,,,,,51,0,51,0,421.0978879000031,,,,,,,,,,,,,,,,,,,,,,,,,,,,,,421.0814604000043,421.0978879000031,421.6149066000071,421.5814761000074,,,,,,,,,,,,,,,,,,,,,,,,,,421.6045296000084,421.6149066000071,421.6149066000071,421.6149066000071,424.59793580000405,j,1.4668282000056934,0.16826360000413842,424.59797320001235,424.5979832000012,None,,,,,,,,,,,,,,,,,00019,001,2025-11-09_15h07.19.518,MST_task,2024.2.2,59.997216130673706,2025-11-09 15h18.33.208244 +0530,
,Scenes\155a.jpg,52,0,52,,,,,,,j,1.5979737999878125,0.1271172000124352,None,,,,,,,52,0,52,0,424.61448020000535,,,,,,,,,,,,,,,,,,,,,,,,,,,,,,424.59807130000263,424.61448020000535,425.1312697000103,425.098032400012,,,,,,,,,,,,,,,,,,,,,,,,,,425.1151589000074,425.1312697000103,425.1312697000103,425.1312697000103,428.1144611000054,j,1.5979737999878125,0.1271172000124352,428.1145125000039,428.1145232000126,None,,,,,,,,,,,,,,,,,00019,001,2025-11-09_15h07.19.518,MST_task,2024.2.2,59.997216130673706,2025-11-09 15h18.33.208244 +0530,
,Scenes\105a.jpg,53,0,53,,,,,,,j,1.5838268999941647,0.12781050000921823,None,,,,,,,53,0,53,0,428.13111910001317,,,,,,,,,,,,,,,,,,,,,,,,,,,,,,428.11462250001205,428.13111910001317,428.64769960001286,428.6146454000118,,,,,,,,,,,,,,,,,,,,,,,,,,428.63464220000606,428.64769960001286,428.64769960001286,428.64769960001286,431.6310206000053,j,1.5838268999941647,0.12781050000921823,431.6310589000059,431.6310732000129,None,,,,,,,,,,,,,,,,,00019,001,2025-11-09_15h07.19.518,MST_task,2024.2.2,59.997216130673706,2025-11-09 15h18.33.208244 +0530,
,Scenes\106a.jpg,54,0,54,,,,,,,j,1.1354665999970166,0.13737710000714287,None,,,,,,,54,0,54,0,431.64766520001285,,,,,,,,,,,,,,,,,,,,,,,,,,,,,,431.63116170000285,431.64766520001285,432.1643757000129,432.1310852000024,,,,,,,,,,,,,,,,,,,,,,,,,,432.14955650000775,432.1643757000129,432.1643757000129,432.1643757000129,435.1477517000021,j,1.1354665999970166,0.13737710000714287,435.14778660000593,435.1477976000024,None,,,,,,,,,,,,,,,,,00019,001,2025-11-09_15h07.19.518,MST_task,2024.2.2,59.997216130673706,2025-11-09 15h18.33.208244 +0530,
,Scenes\137a.jpg,55,0,55,,,,,,,j,1.9147812000010163,0.13150509999832138,None,,,,,,,55,0,55,0,435.1642487000063,,,,,,,,,,,,,,,,,,,,,,,,,,,,,,435.14787810000416,435.1642487000063,435.68124869999883,435.6478447000118,,,,,,,,,,,,,,,,,,,,,,,,,,435.66304490000766,435.68124869999883,435.68124869999883,435.68124869999883,438.66420520000975,j,1.9147812000010163,0.13150509999832138,438.66424320000806,438.6642531000107,None,,,,,,,,,,,,,,,,,00019,001,2025-11-09_15h07.19.518,MST_task,2024.2.2,59.997216130673706,2025-11-09 15h18.33.208244 +0530,
,Objects\033a.jpg,56,0,56,,,,,,,f,2.0761785000067903,0.1861538999946788,None,,,,,,,56,0,56,0,438.68084510001063,,,,,,,,,,,,,,,,,,,,,,,,,,,,,,438.664340000003,438.68084510001063,439.19770080001035,439.16433530001086,,,,,,,,,,,,,,,,,,,,,,,,,,439.181656700006,439.19770080001035,439.19770080001035,439.19770080001035,442.18090800000937,f,2.0761785000067903,0.1861538999946788,442.18246999999974,442.18248240000685,None,,,,,,,,,,,,,,,,,00019,001,2025-11-09_15h07.19.518,MST_task,2024.2.2,59.997216130673706,2025-11-09 15h18.33.208244 +0530,
,Objects\093a.jpg,57,0,57,,,,,,,f,2.393589300001622,0.17401339999923948,None,,,,,,,57,0,57,0,442.19747910001024,,,,,,,,,,,,,,,,,,,,,,,,,,,,,,442.18254120000347,442.19747910001024,442.7141135000129,442.68109540001024,,,,,,,,,,,,,,,,,,,,,,,,,,442.69707170000765,442.7141135000129,442.7141135000129,442.7141135000129,445.6974107999995,f,2.393589300001622,0.17401339999923948,445.69744800000626,445.69746890000533,None,,,,,,,,,,,,,,,,,00019,001,2025-11-09_15h07.19.518,MST_task,2024.2.2,59.997216130673706,2025-11-09 15h18.33.208244 +0530,
,Objects\024a.jpg,58,0,58,,,,,,,f,1.1904865999968024,0.18031350000819657,None,,,,,,,58,0,58,0,445.7140451000014,,,,,,,,,,,,,,,,,,,,,,,,,,,,,,445.6975278000027,445.7140451000014,446.2306498000107,446.1975007000001,,,,,,,,,,,,,,,,,,,,,,,,,,446.2130310000066,446.2306498000107,446.2306498000107,446.2306498000107,449.21399410000595,f,1.1904865999968024,0.18031350000819657,449.21403210000426,449.2140464000113,None,,,,,,,,,,,,,,,,,00019,001,2025-11-09_15h07.19.518,MST_task,2024.2.2,59.997216130673706,2025-11-09 15h18.33.208244 +0530,
,Objects\148a.jpg,59,0,59,,,,,,,f,1.7561272000020836,0.15807999999378808,None,,,,,,,59,0,59,0,449.2305827000091,,,,,,,,,,,,,,,,,,,,,,,,,,,,,,449.21413340000436,449.2305827000091,449.7472473000089,449.7141804999992,,,,,,,,,,,,,,,,,,,,,,,,,,449.7306463000132,449.7472473000089,449.7472473000089,449.7472473000089,452.7141171000112,f,1.7561272000020836,0.15807999999378808,452.714152200002,452.7141619000031,None,,,,,,,,,,,,,,,,,00019,001,2025-11-09_15h07.19.518,MST_task,2024.2.2,59.997216130673706,2025-11-09 15h18.33.208244 +0530,
,Objects\115a.jpg,60,0,60,,,,,,,f,1.0080457000003662,0.14606899999489542,None,,,,,,,60,0,60,0,452.7305606000009,,,,,,,,,,,,,,,,,,,,,,,,,,,,,,452.71422160000657,452.7305606000009,453.24719720000576,453.2141719000065,,,,,,,,,,,,,,,,,,,,,,,,,,453.22994770000514,453.24719720000576,453.24719720000576,453.24719720000576,456.2305391000118,f,1.0080457000003662,0.14606899999489542,456.23057320000953,456.2305832000129,None,,,,,,,,,,,,,,,,,00019,001,2025-11-09_15h07.19.518,MST_task,2024.2.2,59.997216130673706,2025-11-09 15h18.33.208244 +0530,
,Objects\172a.jpg,61,0,61,,,,,,,j,1.6041093999956502,0.11813139999867417,None,,,,,,,61,0,61,0,456.2470968000125,,,,,,,,,,,,,,,,,,,,,,,,,,,,,,456.2306690000114,456.2470968000125,456.7637560000003,456.7306110000063,,,,,,,,,,,,,,,,,,,,,,,,,,456.74694960001216,456.7637560000003,456.7637560000003,456.7637560000003,459.7470844000054,j,1.6041093999956502,0.11813139999867417,459.74712360001286,459.7471330000117,None,,,,,,,,,,,,,,,,,00019,001,2025-11-09_15h07.19.518,MST_task,2024.2.2,59.997216130673706,2025-11-09 15h18.33.208244 +0530,
,Objects\005a.jpg,62,0,62,,,,,,,f,1.7368504999903962,0.16667220000817906,None,,,,,,,62,0,62,0,459.76371520000976,,,,,,,,,,,,,,,,,,,,,,,,,,,,,,459.7472167000087,459.76371520000976,,460.24719920000643,,,,,,,,,,,,,,,,,,,,,,,,,,460.2653122000047,460.28034150000894,460.28034150000894,460.28034150000894,463.26370910000696,f,1.7368504999903962,0.16667220000817906,463.2637434000062,463.2637520999997,None,,,,,,,,,,,,,,,,,00019,001,2025-11-09_15h07.19.518,MST_task,2024.2.2,59.997216130673706,2025-11-09 15h18.33.208244 +0530,
,Scenes\045a.jpg,63,0,63,,,,,,,j,1.0522965000127442,0.14025609999953303,None,,,,,,,63,0,63,0,463.2803117000003,,,,,,,,,,,,,,,,,,,,,,,,,,,,,,463.2638430000079,463.2803117000003,463.7971935000096,463.7638563000073,,,,,,,,,,,,,,,,,,,,,,,,,,463.78809650000767,463.7971935000096,463.7971935000096,463.7971935000096,466.78028620000987,j,1.0522965000127442,0.14025609999953303,466.7815062000009,466.7815174999996,None,,,,,,,,,,,,,,,,,00019,001,2025-11-09_15h07.19.518,MST_task,2024.2.2,59.997216130673706,2025-11-09 15h18.33.208244 +0530,
,Scenes\177a.jpg,64,0,64,,,,,,,j,0.8175236999959452,0.14988610000000335,None,,,,,,,64,0,64,0,466.79689789999975,,,,,,,,,,,,,,,,,,,,,,,,,,,,,,466.78157310000097,466.79689789999975,467.313765400002,467.2804371000093,,,,,,,,,,,,,,,,,,,,,,,,,,467.296983799999,467.313765400002,467.313765400002,467.313765400002,470.2969831000082,j,0.8175236999959452,0.14988610000000335,470.2970461000077,470.29705660000036,None,,,,,,,,,,,,,,,,,00019,001,2025-11-09_15h07.19.518,MST_task,2024.2.2,59.997216130673706,2025-11-09 15h18.33.208244 +0530,
,Scenes\156a.jpg,65,0,65,,,,,,,j,0.7915158000105293,0.17218409999622963,None,,,,,,,65,0,65,0,470.31349690000934,,,,,,,,,,,,,,,,,,,,,,,,,,,,,,470.29712240000663,470.31349690000934,470.8301322000043,470.7970789000101,,,,,,,,,,,,,,,,,,,,,,,,,,470.81340590000036,470.8301322000043,470.8301322000043,470.8301322000043,473.8134407000034,j,0.7915158000105293,0.17218409999622963,473.8134882000013,473.8134982000047,None,,,,,,,,,,,,,,,,,00019,001,2025-11-09_15h07.19.518,MST_task,2024.2.2,59.997216130673706,2025-11-09 15h18.33.208244 +0530,
,Scenes\172a.jpg,66,0,66,,,,,,,j,1.1444540999946184,0.11058890000276733,None,,,,,,,66,0,66,0,473.8300778000121,,,,,,,,,,,,,,,,,,,,,,,,,,,,,,473.8135888000106,473.8300778000121,474.3467082999996,474.3136505000002,,,,,,,,,,,,,,,,,,,,,,,,,,474.32933890000277,474.3467082999996,474.3467082999996,474.3467082999996,477.3300528000109,j,1.1444540999946184,0.11058890000276733,477.3300883000047,477.3300986000104,None,,,,,,,,,,,,,,,,,00019,001,2025-11-09_15h07.19.518,MST_task,2024.2.2,59.997216130673706,2025-11-09 15h18.33.208244 +0530,
,Scenes\051a.jpg,67,0,67,,,,,,,j,0.8184017000021413,0.149506100002327,None,,,,,,,67,0,67,0,477.3466674000083,,,,,,,,,,,,,,,,,,,,,,,,,,,,,,477.33016040000075,477.3466674000083,477.86366700001236,477.8302540000004,,,,,,,,,,,,,,,,,,,,,,,,,,477.8452806000132,477.86366700001236,477.86366700001236,477.86366700001236,480.846652200009,j,0.8184017000021413,0.149506100002327,480.8466871000128,480.8467013000045,None,,,,,,,,,,,,,,,,,00019,001,2025-11-09_15h07.19.518,MST_task,2024.2.2,59.997216130673706,2025-11-09 15h18.33.208244 +0530,
,Scenes\182a.jpg,68,0,68,,,,,,,j,1.2677389000018593,0.13641120000102092,None,,,,,,,68,0,68,0,480.8632682000025,,,,,,,,,,,,,,,,,,,,,,,,,,,,,,480.84679600001255,480.8632682000025,481.3798909000034,481.3467368999991,,,,,,,,,,,,,,,,,,,,,,,,,,481.36312590001035,481.3798909000034,481.3798909000034,481.3798909000034,484.36337040000944,j,1.2677389000018593,0.13641120000102092,484.36341060000996,484.3634204000118,None,,,,,,,,,,,,,,,,,00019,001,2025-11-09_15h07.19.518,MST_task,2024.2.2,59.997216130673706,2025-11-09 15h18.33.208244 +0530,
,Scenes\029a.jpg,69,0,69,,,,,,,j,1.1249530000059167,0.13850420000380836,None,,,,,,,69,0,69,0,484.3798569000064,,,,,,,,,,,,,,,,,,,,,,,,,,,,,,484.3635013000021,484.3798569000064,484.89653520000866,484.86350170000514,,,,,,,,,,,,,,,,,,,,,,,,,,484.88307920000807,484.89653520000866,484.89653520000866,484.89653520000866,487.8798487000022,j,1.1249530000059167,0.13850420000380836,487.8798833000037,487.8799013000098,None,,,,,,,,,,,,,,,,,00019,001,2025-11-09_15h07.19.518,MST_task,2024.2.2,59.997216130673706,2025-11-09 15h18.33.208244 +0530,
,Objects\003a.jpg,70,0,70,,,,,,,j,1.03419930000382,0.14986689999932423,None,,,,,,,70,0,70,0,487.8964280000073,,,,,,,,,,,,,,,,,,,,,,,,,,,,,,487.8799883000029,487.8964280000073,488.41333720000694,488.37991709999915,,,,,,,,,,,,,,,,,,,,,,,,,,488.39810060001037,488.41333720000694,488.41333720000694,488.41333720000694,491.39640070000314,j,1.03419930000382,0.14986689999932423,491.3978950000019,491.3979068000044,None,,,,,,,,,,,,,,,,,00019,001,2025-11-09_15h07.19.518,MST_task,2024.2.2,59.997216130673706,2025-11-09 15h18.33.208244 +0530,
,Objects\058a.jpg,71,0,71,,,,,,,f,1.3959609999874374,0.16651049999927636,None,,,,,,,71,0,71,0,491.4129995000112,,,,,,,,,,,,,,,,,,,,,,,,,,,,,,491.3979604000051,491.4129995000112,491.92969640000956,491.89651220000815,,,,,,,,,,,,,,,,,,,,,,,,,,491.9127135000017,491.92969640000956,491.92969640000956,491.92969640000956,494.9130906000064,f,1.3959609999874374,0.16651049999927636,494.91313070000615,494.91314090001106,None,,,,,,,,,,,,,,,,,00019,001,2025-11-09_15h07.19.518,MST_task,2024.2.2,59.997216130673706,2025-11-09 15h18.33.208244 +0530,
,Objects\169a.jpg,72,0,72,,,,,,,f,2.121898900004453,0.20703320000029635,None,,,,,,,72,0,72,0,494.92962680000346,,,,,,,,,,,,,,,,,,,,,,,,,,,,,,494.91320610001276,494.92962680000346,495.4462449999992,495.41318200000387,,,,,,,,,,,,,,,,,,,,,,,,,,495.42899510001007,495.4462449999992,495.4462449999992,495.4462449999992,498.42966420001176,f,2.121898900004453,0.20703320000029635,498.42970459999924,498.42971530000796,None,,,,,,,,,,,,,,,,,00019,001,2025-11-09_15h07.19.518,MST_task,2024.2.2,59.997216130673706,2025-11-09 15h18.33.208244 +0530,
,Objects\066a.jpg,73,0,73,,,,,,,j,2.211204099992756,0.16660300000512507,None,,,,,,,73,0,73,0,498.4469761000073,,,,,,,,,,,,,,,,,,,,,,,,,,,,,,498.42978190000576,498.4469761000073,498.9628448000003,498.9297127000027,,,,,,,,,,,,,,,,,,,,,,,,,,498.9454709000129,498.9628448000003,498.9628448000003,498.9628448000003,501.94619930000044,j,2.211204099992756,0.16660300000512507,501.9462581000116,501.94627080000646,None,,,,,,,,,,,,,,,,,00019,001,2025-11-09_15h07.19.518,MST_task,2024.2.2,59.997216130673706,2025-11-09 15h18.33.208244 +0530,
,Objects\078a.jpg,74,0,74,,,,,,,f,0.8657065000006696,0.15402539999922737,None,,,,,,,74,0,74,0,501.9628253000119,,,,,,,,,,,,,,,,,,,,,,,,,,,,,,501.94632850000926,501.9628253000119,502.4794372000033,502.44628699999885,,,,,,,,,,,,,,,,,,,,,,,,,,502.46240030000627,502.4794372000033,502.4794372000033,502.4794372000033,505.4627659000107,f,0.8657065000006696,0.15402539999922737,505.46281160000945,505.46282050000445,None,,,,,,,,,,,,,,,,,00019,001,2025-11-09_15h07.19.518,MST_task,2024.2.2,59.997216130673706,2025-11-09 15h18.33.208244 +0530,
,Objects\103a.jpg,75,0,75,,,,,,,j,1.5454954000015277,0.08791659999405965,None,,,,,,,75,0,75,0,505.47939570000744,,,,,,,,,,,,,,,,,,,,,,,,,,,,,,505.4628784000088,505.47939570000744,505.99605490000977,505.9629614000005,,,,,,,,,,,,,,,,,,,,,,,,,,505.9785411000048,505.99605490000977,505.99605490000977,505.99605490000977,508.9793444000097,j,1.5454954000015277,0.08791659999405965,508.97937870000897,508.9793888999993,None,,,,,,,,,,,,,,,,,00019,001,2025-11-09_15h07.19.518,MST_task,2024.2.2,59.997216130673706,2025-11-09 15h18.33.208244 +0530,
,Objects\149a.jpg,76,0,76,,,,,,,j,2.439331800007494,0.13244149999809451,None,,,,,,,76,0,76,0,508.9959801000077,,,,,,,,,,,,,,,,,,,,,,,,,,,,,,508.9794791000022,508.9959801000077,509.5126359999995,509.47954910001135,,,,,,,,,,,,,,,,,,,,,,,,,,509.4951182000077,509.5126359999995,509.5126359999995,509.5126359999995,512.4959117000108,j,2.439331800007494,0.13244149999809451,512.4959435000055,512.4959533000074,None,,,,,,,,,,,,,,,,,00019,001,2025-11-09_15h07.19.518,MST_task,2024.2.2,59.997216130673706,2025-11-09 15h18.33.208244 +0530,
,Scenes\067a.jpg,77,0,77,,,,,,,f,1.9388755999971181,0.18528959999093786,None,,,,,,,77,0,77,0,512.5125712000008,,,,,,,,,,,,,,,,,,,,,,,,,,,,,,512.4960404000012,512.5125712000008,513.0292161000107,512.9961280999996,,,,,,,,,,,,,,,,,,,,,,,,,,513.0140061000129,513.0292161000107,513.0292161000107,513.0292161000107,516.0125275000028,f,1.9388755999971181,0.18528959999093786,516.0136970000021,516.0137082000001,None,,,,,,,,,,,,,,,,,00019,001,2025-11-09_15h07.19.518,MST_task,2024.2.2,59.997216130673706,2025-11-09 15h18.33.208244 +0530,
,Scenes\014a.jpg,78,0,78,,,,,,,f,1.3868203000020003,0.13504069999908097,None,,,,,,,78,0,78,0,516.029164800013,,,,,,,,,,,,,,,,,,,,,,,,,,,,,,516.0137948000047,516.029164800013,516.5461681000015,516.5126605000114,,,,,,,,,,,,,,,,,,,,,,,,,,516.5302546000021,516.5461681000015,516.5461681000015,516.5461681000015,519.5291278000077,f,1.3868203000020003,0.13504069999908097,519.5291612000001,519.5291705999989,None,,,,,,,,,,,,,,,,,00019,001,2025-11-09_15h07.19.518,MST_task,2024.2.2,59.997216130673706,2025-11-09 15h18.33.208244 +0530,
,Scenes\019a.jpg,79,0,79,,,,,,,f,1.0787054000102216,0.1703875999955926,None,,,,,,,79,0,79,0,519.5457257000089,,,,,,,,,,,,,,,,,,,,,,,,,,,,,,519.5292289000063,519.5457257000089,520.0624175000121,520.0292975000048,,,,,,,,,,,,,,,,,,,,,,,,,,520.0469580000063,520.0624175000121,520.0624175000121,520.0624175000121,523.0457372000092,f,1.0787054000102216,0.1703875999955926,523.0457713000069,523.0457809000072,None,,,,,,,,,,,,,,,,,00019,001,2025-11-09_15h07.19.518,MST_task,2024.2.2,59.997216130673706,2025-11-09 15h18.33.208244 +0530,
,Scenes\070a.jpg,80,0,80,,,,,,,j,1.9464164000091841,0.10662540000339504,None,,,,,,,80,0,80,0,523.0623603000131,,,,,,,,,,,,,,,,,,,,,,,,,,,,,,523.0458383000077,523.0623603000131,523.5790315000049,523.5458581999992,,,,,,,,,,,,,,,,,,,,,,,,,,523.5662136000028,523.5790315000049,523.5790315000049,523.5790315000049,526.5622691000026,j,1.9464164000091841,0.10662540000339504,526.562313900009,526.5623238000117,None,,,,,,,,,,,,,,,,,00019,001,2025-11-09_15h07.19.518,MST_task,2024.2.2,59.997216130673706,2025-11-09 15h18.33.208244 +0530,
,Scenes\101a.jpg,81,0,81,,,,,,,j,1.3412865999998758,0.11291729999356903,None,,,,,,,81,0,81,0,526.5789416000043,,,,,,,,,,,,,,,,,,,,,,,,,,,,,,526.5624150000076,526.5789416000043,527.0955642000044,527.0625041000021,,,,,,,,,,,,,,,,,,,,,,,,,,527.0807579000102,527.0955642000044,527.0955642000044,527.0955642000044,530.078894700011,j,1.3412865999998758,0.11291729999356903,530.0789273000119,530.0789614000096,None,,,,,,,,,,,,,,,,,00019,001,2025-11-09_15h07.19.518,MST_task,2024.2.2,59.997216130673706,2025-11-09 15h18.33.208244 +0530,
,Scenes\079a.jpg,82,0,82,,,,,,,j,1.1426332999981241,0.12482379999710247,None,,,,,,,82,0,82,0,530.0955477000098,,,,,,,,,,,,,,,,,,,,,,,,,,,,,,530.0790196000016,530.0955477000098,530.6124286000122,530.5791197000071,,,,,,,,,,,,,,,,,,,,,,,,,,530.5940842999989,530.6124286000122,530.6124286000122,530.6124286000122,533.5957205000013,j,1.1426332999981241,0.12482379999710247,533.5957554000051,533.595765200007,None,,,,,,,,,,,,,,,,,00019,001,2025-11-09_15h07.19.518,MST_task,2024.2.2,59.997216130673706,2025-11-09 15h18.33.208244 +0530,
,Scenes\096a.jpg,83,0,83,,,,,,,j,0.6901523999986239,0.1540843999973731,None,,,,,,,83,0,83,0,533.6121886000037,,,,,,,,,,,,,,,,,,,,,,,,,,,,,,533.5958514000085,533.6121886000037,534.1289919000119,534.0956581000064,,,,,,,,,,,,,,,,,,,,,,,,,,534.1145376000059,534.1289919000119,534.1289919000119,534.1289919000119,537.112094000011,j,0.6901523999986239,0.1540843999973731,537.1121310000017,537.1121412000066,None,,,,,,,,,,,,,,,,,00019,001,2025-11-09_15h07.19.518,MST_task,2024.2.2,59.997216130673706,2025-11-09 15h18.33.208244 +0530,
,Objects\006a.jpg,84,0,84,,,,,,,f,2.6944384000089485,0.18987859999469947,None,,,,,,,84,0,84,0,537.1287082000053,,,,,,,,,,,,,,,,,,,,,,,,,,,,,,537.1122336000117,537.1287082000053,537.6453678000107,537.6122024000069,,,,,,,,,,,,,,,,,,,,,,,,,,537.6292474000074,537.6453678000107,537.6453678000107,537.6453678000107,540.6287012000103,f,2.6944384000089485,0.18987859999469947,540.6302354000072,540.6302463000029,None,,,,,,,,,,,,,,,,,00019,001,2025-11-09_15h07.19.518,MST_task,2024.2.2,59.997216130673706,2025-11-09 15h18.33.208244 +0530,
,Objects\144a.jpg,85,0,85,,,,,,,None,,,j,1.816198999993503,None,,,,,85,0,85,0,540.6452723000111,,,,,,,,,,,,,,,,,,,,,,,,,,,,,,540.6303011999989,540.6452723000111,541.1620156999998,541.128807000001,,,,,,,,,,,,,,,,,,,,,,,,,,541.1456208000018,541.1620156999998,541.1620156999998,541.1620156999998,544.1452568000095,None,,,544.1452938000002,545.9787890000007,j,,,,544.1618889000092,544.1618889000092,1.816198999993503,None,,,,,,,,,,00019,001,2025-11-09_15h07.19.518,MST_task,2024.2.2,59.997216130673706,2025-11-09 15h18.33.208244 +0530,
,Objects\062a.jpg,86,0,86,,,,,,,f,1.3137851000064984,0.18834110000170767,None,,,,,,,86,0,86,0,545.995184600004,,,,,,,,,,,,,,,,,,,,,,,,,,,,,,545.9789091999992,545.995184600004,546.5118112000055,546.4786241000111,,,,,,,,,,,,,,,,,,,,,,,,,,546.495023800002,546.5118112000055,546.5118112000055,546.5118112000055,549.4951311000041,f,1.3137851000064984,0.18834110000170767,549.4951691000024,549.4951795000088,None,,,,,,,,,,,,,,,,,00019,001,2025-11-09_15h07.19.518,MST_task,2024.2.2,59.997216130673706,2025-11-09 15h18.33.208244 +0530,
,Objects\136a.jpg,87,0,87,,,,,,,f,1.1334368000098038,0.15343939999002032,None,,,,,,,87,0,87,0,549.5117751000071,,,,,,,,,,,,,,,,,,,,,,,,,,,,,,549.4952443000075,549.5117751000071,550.0284003000124,549.9953092000069,,,,,,,,,,,,,,,,,,,,,,,,,,550.0112051000033,550.0284003000124,550.0284003000124,550.0284003000124,553.0117219000094,f,1.1334368000098038,0.15343939999002032,553.0117556000041,553.0117649000022,None,,,,,,,,,,,,,,,,,00019,001,2025-11-09_15h07.19.518,MST_task,2024.2.2,59.997216130673706,2025-11-09 15h18.33.208244 +0530,
,Objects\091a.jpg,88,0,88,,,,,,,j,1.3541450000047917,0.10283109999727458,None,,,,,,,88,0,88,0,553.0283591000043,,,,,,,,,,,,,,,,,,,,,,,,,,,,,,553.0118531000044,553.0283591000043,553.5450741000095,553.5118988000031,,,,,,,,,,,,,,,,,,,,,,,,,,553.5276183000096,553.5450741000095,553.5450741000095,553.5450741000095,556.5283483000094,j,1.3541450000047917,0.10283109999727458,556.5283829000109,556.5283930000005,None,,,,,,,,,,,,,,,,,00019,001,2025-11-09_15h07.19.518,MST_task,2024.2.2,59.997216130673706,2025-11-09 15h18.33.208244 +0530,
,Objects\101a.jpg,89,0,89,,,,,,,f,1.1515628000051947,0.17849409999325871,None,,,,,,,89,0,89,0,556.5449585000024,,,,,,,,,,,,,,,,,,,,,,,,,,,,,,556.5284797000058,556.5449585000024,557.0615990000078,557.0285273000045,,,,,,,,,,,,,,,,,,,,,,,,,,557.0444062000024,557.0615990000078,557.0615990000078,557.0615990000078,560.0449536000087,f,1.1515628000051947,0.17849409999325871,560.0449934000062,560.0450033000088,None,,,,,,,,,,,,,,,,,00019,001,2025-11-09_15h07.19.518,MST_task,2024.2.2,59.997216130673706,2025-11-09 15h18.33.208244 +0530,
,Objects\104a.jpg,90,0,90,,,,,,,f,1.4454207999951905,0.14637250000669155,None,,,,,,,90,0,90,0,560.0622896999994,,,,,,,,,,,,,,,,,,,,,,,,,,,,,,560.0450611000124,560.0622896999994,560.5781850000058,560.5450529000082,,,,,,,,,,,,,,,,,,,,,,,,,,560.5603618000023,560.5781850000058,560.5781850000058,560.5781850000058,563.5615705000091,f,1.4454207999951905,0.14637250000669155,563.5616066000075,563.5616166000109,None,,,,,,,,,,,,,,,,,00019,001,2025-11-09_15h07.19.518,MST_task,2024.2.2,59.997216130673706,2025-11-09 15h18.33.208244 +0530,
,Scenes\085a.jpg,91,0,91,,,,,,,j,2.0425419000093825,0.12744219999876805,None,,,,,,,91,0,91,0,563.5782318999991,,,,,,,,,,,,,,,,,,,,,,,,,,,,,,563.5617046000116,563.5782318999991,564.0949811000028,564.0617435000022,,,,,,,,,,,,,,,,,,,,,,,,,,564.0814880000107,564.0949811000028,564.0949811000028,564.0949811000028,567.0781634000014,j,2.0425419000093825,0.12744219999876805,567.0793502000015,567.0793618000025,None,,,,,,,,,,,,,,,,,00019,001,2025-11-09_15h07.19.518,MST_task,2024.2.2,59.997216130673706,2025-11-09 15h18.33.208244 +0530,
,Scenes\116a.jpg,92,0,92,,,,,,,j,0.9083175000123447,0.10607049999816809,None,,,,,,,92,0,92,0,567.094788900009,,,,,,,,,,,,,,,,,,,,,,,,,,,,,,567.0794469000102,567.094788900009,567.6114691000112,567.5783230000088,,,,,,,,,,,,,,,,,,,,,,,,,,567.5935544000095,567.6114691000112,567.6114691000112,567.6114691000112,570.5947662000108,j,0.9083175000123447,0.10607049999816809,570.5948022000084,570.5948116000072,None,,,,,,,,,,,,,,,,,00019,001,2025-11-09_15h07.19.518,MST_task,2024.2.2,59.997216130673706,2025-11-09 15h18.33.208244 +0530,
,Scenes\173a.jpg,93,0,93,,,,,,,j,0.6338536999974167,0.1666170999960741,None,,,,,,,93,0,93,0,570.611399100002,,,,,,,,,,,,,,,,,,,,,,,,,,,,,,570.5948993000056,570.611399100002,571.1280598000012,571.0948593000066,,,,,,,,,,,,,,,,,,,,,,,,,,571.1102936000098,571.1280598000012,571.1280598000012,571.1280598000012,574.1114009000012,j,0.6338536999974167,0.1666170999960741,574.1114387000125,574.1114484999998,None,,,,,,,,,,,,,,,,,00019,001,2025-11-09_15h07.19.518,MST_task,2024.2.2,59.997216130673706,2025-11-09 15h18.33.208244 +0530,
,Scenes\189a.jpg,94,0,94,,,,,,,j,0.6905552999960491,0.1359288999956334,None,,,,,,,94,0,94,0,574.1279746000073,,,,,,,,,,,,,,,,,,,,,,,,,,,,,,574.1115260000079,574.1279746000073,574.644643800013,574.611485100002,,,,,,,,,,,,,,,,,,,,,,,,,,574.630115500011,574.644643800013,574.644643800013,574.644643800013,577.627954800002,j,0.6905552999960491,0.1359288999956334,577.6279866000114,577.6279956000071,None,,,,,,,,,,,,,,,,,00019,001,2025-11-09_15h07.19.518,MST_task,2024.2.2,59.997216130673706,2025-11-09 15h18.33.208244 +0530,
,Scenes\010a.jpg,95,0,95,,,,,,,j,1.2665472999942722,0.12571189999289345,None,,,,,,,95,0,95,0,577.6445569000061,,,,,,,,,,,,,,,,,,,,,,,,,,,,,,577.6280505000032,577.6445569000061,578.1612886000075,578.1280150000093,,,,,,,,,,,,,,,,,,,,,,,,,,578.1418658000039,578.1612886000075,578.1612886000075,578.1612886000075,581.1445150000072,j,1.2665472999942722,0.12571189999289345,581.1445480000111,581.14455740001,None,,,,,,,,,,,,,,,,,00019,001,2025-11-09_15h07.19.518,MST_task,2024.2.2,59.997216130673706,2025-11-09 15h18.33.208244 +0530,
,Scenes\052a.jpg,96,0,96,,,,,,,j,1.5720759999967413,0.11926880000100937,None,,,,,,,96,0,96,0,581.161176900001,,,,,,,,,,,,,,,,,,,,,,,,,,,,,,581.1446485000051,581.161176900001,581.6778323000035,581.6446141000051,,,,,,,,,,,,,,,,,,,,,,,,,,581.6561261000024,581.6778323000035,581.6778323000035,581.6778323000035,584.6611574999988,j,1.5720759999967413,0.11926880000100937,584.661193500011,584.6612033999991,None,,,,,,,,,,,,,,,,,00019,001,2025-11-09_15h07.19.518,MST_task,2024.2.2,59.997216130673706,2025-11-09 15h18.33.208244 +0530,
,Scenes\074a.jpg,97,0,97,,,,,,,j,0.7090993000019807,0.08400489999621641,None,,,,,,,97,0,97,0,584.6777677000064,,,,,,,,,,,,,,,,,,,,,,,,,,,,,,584.6612659000093,584.6777677000064,585.1944255999988,585.1612695000076,,,,,,,,,,,,,,,,,,,,,,,,,,585.1748416000046,585.1944255999988,585.1944255999988,585.1944255999988,588.1777071000106,j,0.7090993000019807,0.08400489999621641,588.1777414000098,588.177751700001,None,,,,,,,,,,,,,,,,,00019,001,2025-11-09_15h07.19.518,MST_task,2024.2.2,59.997216130673706,2025-11-09 15h18.33.208244 +0530,
,Objects\084a.jpg,98,0,98,,,,,,,f,0.9567404999979772,0.19238120000227354,None,,,,,,,98,0,98,0,588.1943750000064,,,,,,,,,,,,,,,,,,,,,,,,,,,,,,588.177838100004,588.1943750000064,588.7109982000111,588.677825900013,,,,,,,,,,,,,,,,,,,,,,,,,,588.6964000000007,588.7109982000111,588.7109982000111,588.7109982000111,591.6943629000016,f,0.9567404999979772,0.19238120000227354,591.6958716000081,591.6958830000076,None,,,,,,,,,,,,,,,,,00019,001,2025-11-09_15h07.19.518,MST_task,2024.2.2,59.997216130673706,2025-11-09 15h18.33.208244 +0530,
,Objects\102a.jpg,99,0,99,,,,,,,f,0.8001366999960737,0.1746941000019433,None,,,,,,,99,0,99,0,591.7109216000099,,,,,,,,,,,,,,,,,,,,,,,,,,,,,,591.6959642000002,591.7109216000099,592.2275752000132,592.1944638999994,,,,,,,,,,,,,,,,,,,,,,,,,,592.2102146000107,592.2275752000132,592.2275752000132,592.2275752000132,595.2109099000081,f,0.8001366999960737,0.1746941000019433,595.2109443000081,595.2109538000077,None,,,,,,,,,,,,,,,,,00019,001,2025-11-09_15h07.19.518,MST_task,2024.2.2,59.997216130673706,2025-11-09 15h18.33.208244 +0530,
,Objects\188a.jpg,100,0,100,,,,,,,f,0.7153416000073776,0.15771939999831375,None,,,,,,,100,0,100,0,595.227535900005,,,,,,,,,,,,,,,,,,,,,,,,,,,,,,595.2110092000075,595.227535900005,595.7441972000088,595.711037400004,,,,,,,,,,,,,,,,,,,,,,,,,,595.7266578999988,595.7441972000088,595.7441972000088,595.7441972000088,598.7109808000096,f,0.7153416000073776,0.15771939999831375,598.7110154000111,598.7110250000114,None,,,,,,,,,,,,,,,,,00019,001,2025-11-09_15h07.19.518,MST_task,2024.2.2,59.997216130673706,2025-11-09 15h18.33.208244 +0530,
,Objects\123a.jpg,101,0,101,,,,,,,f,0.8711077000043588,0.23045190000266302,None,,,,,,,101,0,101,0,598.7274719000125,,,,,,,,,,,,,,,,,,,,,,,,,,,,,,598.7111269000015,598.7274719000125,599.2441224000067,599.21093690001,,,,,,,,,,,,,,,,,,,,,,,,,,599.2263773000013,599.2441224000067,599.2441224000067,599.2441224000067,602.2274251000053,f,0.8711077000043588,0.23045190000266302,602.2274564000109,602.227466100012,None,,,,,,,,,,,,,,,,,00019,001,2025-11-09_15h07.19.518,MST_task,2024.2.2,59.997216130673706,2025-11-09 15h18.33.208244 +0530,
,Objects\130a.jpg,102,0,102,,,,,,,f,1.524651100000483,0.15545659999770578,None,,,,,,,102,0,102,0,602.2440529000014,,,,,,,,,,,,,,,,,,,,,,,,,,,,,,602.2275473000045,602.2440529000014,602.7607084000047,602.7275450000016,,,,,,,,,,,,,,,,,,,,,,,,,,602.7429981000023,602.7607084000047,602.7607084000047,602.7607084000047,605.7440188000037,f,1.524651100000483,0.15545659999770578,605.744054499999,605.7440642000001,None,,,,,,,,,,,,,,,,,00019,001,2025-11-09_15h07.19.518,MST_task,2024.2.2,59.997216130673706,2025-11-09 15h18.33.208244 +0530,
,Objects\146a.jpg,103,0,103,,,,,,,f,0.908498699995107,0.1778663000004599,None,,,,,,,103,0,103,0,605.7607575000002,,,,,,,,,,,,,,,,,,,,,,,,,,,,,,605.7441221000045,605.7607575000002,606.2772763000103,606.2441677000024,,,,,,,,,,,,,,,,,,,,,,,,,,606.2596072000015,606.2772763000103,606.2772763000103,606.2772763000103,609.2605919000052,f,0.908498699995107,0.1778663000004599,609.2606247000076,609.2606344000087,None,,,,,,,,,,,,,,,,,00019,001,2025-11-09_15h07.19.518,MST_task,2024.2.2,59.997216130673706,2025-11-09 15h18.33.208244 +0530,
,Objects\112a.jpg,104,0,104,,,,,,,f,0.6050333000021055,0.14701649999187794,None,,,,,,,104,0,104,0,609.2772267000109,,,,,,,,,,,,,,,,,,,,,,,,,,,,,,609.2606906000001,609.2772267000109,609.7938683000102,609.7607973000122,,,,,,,,,,,,,,,,,,,,,,,,,,609.7764863000048,609.7938683000102,609.7938683000102,609.7938683000102,612.7772054000088,f,0.6050333000021055,0.14701649999187794,612.7772395000065,612.7772492000076,None,,,,,,,,,,,,,,,,,00019,001,2025-11-09_15h07.19.518,MST_task,2024.2.2,59.997216130673706,2025-11-09 15h18.33.208244 +0530,
,Scenes\127a.jpg,105,0,105,,,,,,,j,0.8815297999972245,0.12302480000653304,None,,,,,,,105,0,105,0,612.7938331000041,,,,,,,,,,,,,,,,,,,,,,,,,,,,,,612.7773083000066,612.7938331000041,613.3107844000042,613.2772777000064,,,,,,,,,,,,,,,,,,,,,,,,,,613.2952370999992,613.3107844000042,613.3107844000042,613.3107844000042,616.2940207000065,j,0.8815297999972245,0.12302480000653304,616.295257100006,616.2952686000062,None,,,,,,,,,,,,,,,,,00019,001,2025-11-09_15h07.19.518,MST_task,2024.2.2,59.997216130673706,2025-11-09 15h18.33.208244 +0530,
,Scenes\086a.jpg,106,0,106,,,,,,,j,0.5917944999964675,0.1065664000052493,None,,,,,,,106,0,106,0,616.3103894000087,,,,,,,,,,,,,,,,,,,,,,,,,,,,,,616.295354700007,616.3103894000087,616.8273642000131,616.7938529000094,,,,,,,,,,,,,,,,,,,,,,,,,,616.813064300004,616.8273642000131,616.8273642000131,616.8273642000131,619.8103842000128,j,0.5917944999964675,0.1065664000052493,619.8104175000044,619.8104271000047,None,,,,,,,,,,,,,,,,,00019,001,2025-11-09_15h07.19.518,MST_task,2024.2.2,59.997216130673706,2025-11-09 15h18.33.208244 +0530,
,Scenes\072a.jpg,107,0,107,,,,,,,j,0.543845499996678,0.12597829999867827,None,,,,,,,107,0,107,0,619.8270038000046,,,,,,,,,,,,,,,,,,,,,,,,,,,,,,619.810484200003,619.8270038000046,620.3436539000104,620.3105475000048,,,,,,,,,,,,,,,,,,,,,,,,,,620.3301320000028,620.3436539000104,620.3436539000104,620.3436539000104,623.3269402000005,j,0.543845499996678,0.12597829999867827,623.3269743000128,623.3269835000101,None,,,,,,,,,,,,,,,,,00019,001,2025-11-09_15h07.19.518,MST_task,2024.2.2,59.997216130673706,2025-11-09 15h18.33.208244 +0530,
,Scenes\170a.jpg,108,0,108,,,,,,,j,0.550888900004793,0.11033630000019912,None,,,,,,,108,0,108,0,623.3435964000091,,,,,,,,,,,,,,,,,,,,,,,,,,,,,,623.3270729000069,623.3435964000091,623.8602201000031,623.8270521000086,,,,,,,,,,,,,,,,,,,,,,,,,,623.8461290000123,623.8602201000031,623.8602201000031,623.8602201000031,626.8434967000067,j,0.550888900004793,0.11033630000019912,626.8435448000091,626.843555200001,None,,,,,,,,,,,,,,,,,00019,001,2025-11-09_15h07.19.518,MST_task,2024.2.2,59.997216130673706,2025-11-09 15h18.33.208244 +0530,
,Scenes\009a.jpg,109,0,109,,,,,,,f,0.9404735999996774,0.1377900000079535,None,,,,,,,109,0,109,0,626.8600917000003,,,,,,,,,,,,,,,,,,,,,,,,,,,,,,626.8436254000117,626.8600917000003,627.3769805000047,627.3437335000053,,,,,,,,,,,,,,,,,,,,,,,,,,627.366692200012,627.3769805000047,627.3769805000047,627.3769805000047,630.360041500011,f,0.9404735999996774,0.1377900000079535,630.3600761000125,630.3600855000113,None,,,,,,,,,,,,,,,,,00019,001,2025-11-09_15h07.19.518,MST_task,2024.2.2,59.997216130673706,2025-11-09 15h18.33.208244 +0530,
,Scenes\061a.jpg,110,0,110,,,,,,,j,0.8651036000082968,0.1063611999998102,None,,,,,,,110,0,110,0,630.3766958000051,,,,,,,,,,,,,,,,,,,,,,,,,,,,,,630.3601442000072,630.3766958000051,630.8936119999998,630.8601844000077,,,,,,,,,,,,,,,,,,,,,,,,,,630.8778296000091,630.8936119999998,630.8936119999998,630.8936119999998,633.8766882000054,j,0.8651036000082968,0.1063611999998102,633.8767267000076,633.8767369000125,None,,,,,,,,,,,,,,,,,00019,001,2025-11-09_15h07.19.518,MST_task,2024.2.2,59.997216130673706,2025-11-09 15h18.33.208244 +0530,
,Scenes\157a.jpg,111,0,111,,,,,,,j,0.9468808000092395,0.16605609998805448,None,,,,,,,111,0,111,0,633.8932792000123,,,,,,,,,,,,,,,,,,,,,,,,,,,,,,633.8768366000004,633.8932792000123,634.4101875000051,634.3767535000079,,,,,,,,,,,,,,,,,,,,,,,,,,634.3928843000031,634.4101875000051,634.4101875000051,634.4101875000051,637.3932791000116,j,0.9468808000092395,0.16605609998805448,637.3933161000023,637.3933257000026,None,,,,,,,,,,,,,,,,,00019,001,2025-11-09_15h07.19.518,MST_task,2024.2.2,59.997216130673706,2025-11-09 15h18.33.208244 +0530,
,Objects\057a.jpg,112,0,112,,,,,,,f,1.3384238999860827,0.17630200000712648,None,,,,,,,112,0,112,0,637.4098669000086,,,,,,,,,,,,,,,,,,,,,,,,,,,,,,637.3934164000093,637.4098669000086,637.9265374000097,637.8933320000069,,,,,,,,,,,,,,,,,,,,,,,,,,637.9107308000093,637.9265374000097,637.9265374000097,637.9265374000097,640.9098175000108,f,1.3384238999860827,0.17630200000712648,640.9113216000114,640.9113325000071,None,,,,,,,,,,,,,,,,,00019,001,2025-11-09_15h07.19.518,MST_task,2024.2.2,59.997216130673706,2025-11-09 15h18.33.208244 +0530,
,Objects\132a.jpg,113,0,113,,,,,,,f,2.084321700007422,0.10237480000068899,None,,,,,,,113,0,113,0,640.926458300004,,,,,,,,,,,,,,,,,,,,,,,,,,,,,,640.9113895000046,640.926458300004,641.4431735000107,641.4099389000039,,,,,,,,,,,,,,,,,,,,,,,,,,641.4262524000078,641.4431735000107,641.4431735000107,641.4431735000107,644.4265616000048,f,2.084321700007422,0.10237480000068899,644.4266012000007,644.4266112000041,None,,,,,,,,,,,,,,,,,00019,001,2025-11-09_15h07.19.518,MST_task,2024.2.2,59.997216130673706,2025-11-09 15h18.33.208244 +0530,
,Objects\069a.jpg,114,0,114,,,,,,,j,0.6638080999982776,0.14256290000048466,None,,,,,,,114,0,114,0,644.4430241000082,,,,,,,,,,,,,,,,,,,,,,,,,,,,,,644.4267065000022,644.4430241000082,644.9596728000033,644.9266096000065,,,,,,,,,,,,,,,,,,,,,,,,,,644.9428614000062,644.9596728000033,644.9596728000033,644.9596728000033,647.9431668000034,j,0.6638080999982776,0.14256290000048466,647.9432192000095,647.9432292999991,None,,,,,,,,,,,,,,,,,00019,001,2025-11-09_15h07.19.518,MST_task,2024.2.2,59.997216130673706,2025-11-09 15h18.33.208244 +0530,
,Objects\168a.jpg,115,0,115,,,,,,,f,0.905435500011663,0.169709599998896,None,,,,,,,115,0,115,0,647.9596088000108,,,,,,,,,,,,,,,,,,,,,,,,,,,,,,647.9433178000036,647.9596088000108,648.4763929000037,648.4431480000057,,,,,,,,,,,,,,,,,,,,,,,,,,648.4615109000006,648.4763929000037,648.4763929000037,648.4763929000037,651.4596006000065,f,0.905435500011663,0.169709599998896,651.4596347000042,651.4596442000038,None,,,,,,,,,,,,,,,,,00019,001,2025-11-09_15h07.19.518,MST_task,2024.2.2,59.997216130673706,2025-11-09 15h18.33.208244 +0530,
,Objects\178a.jpg,116,0,116,,,,,,,f,0.9067469000001438,0.15067269999417476,None,,,,,,,116,0,116,0,651.476236100003,,,,,,,,,,,,,,,,,,,,,,,,,,,,,,651.459734300006,651.476236100003,651.9929303000099,651.9597994000069,,,,,,,,,,,,,,,,,,,,,,,,,,651.9781783000071,651.9929303000099,651.9929303000099,651.9929303000099,654.9763005999994,f,0.9067469000001438,0.15067269999417476,654.9763355000032,654.976345300005,None,,,,,,,,,,,,,,,,,00019,001,2025-11-09_15h07.19.518,MST_task,2024.2.2,59.997216130673706,2025-11-09 15h18.33.208244 +0530,
,Objects\002a.jpg,117,0,117,,,,,,,f,1.030588199995691,0.18174050000379793,None,,,,,,,117,0,117,0,654.9928236000123,,,,,,,,,,,,,,,,,,,,,,,,,,,,,,654.9764028000063,654.9928236000123,655.5094811000017,655.4763052000053,,,,,,,,,,,,,,,,,,,,,,,,,,655.4924587999994,655.5094811000017,655.5094811000017,655.5094811000017,658.4929179000028,f,1.030588199995691,0.18174050000379793,658.4929559000011,658.4929659000045,None,,,,,,,,,,,,,,,,,00019,001,2025-11-09_15h07.19.518,MST_task,2024.2.2,59.997216130673706,2025-11-09 15h18.33.208244 +0530,
,Objects\085a.jpg,118,0,118,,,,,,,None,,,j,1.395734599995194,None,,,,,118,0,118,0,658.5094176999992,,,,,,,,,,,,,,,,,,,,,,,,,,,,,,658.4930615000048,658.5094176999992,659.0260485000035,658.9931534000061,,,,,,,,,,,,,,,,,,,,,,,,,,659.0093274000101,659.0260485000035,659.0260485000035,659.0260485000035,662.0094056000089,None,,,662.0094379000075,663.426240700006,j,,,,662.0260263000091,662.0260263000091,1.395734599995194,None,,,,,,,,,,00019,001,2025-11-09_15h07.19.518,MST_task,2024.2.2,59.997216130673706,2025-11-09 15h18.33.208244 +0530,
,Scenes\087a.jpg,119,0,119,,,,,,,None,,,j,0.6438865999953123,None,,,,,119,0,119,0,663.4426203000039,,,,,,,,,,,,,,,,,,,,,,,,,,,,,,663.4263442000083,663.4426203000039,663.9594342000055,663.9262249000021,,,,,,,,,,,,,,,,,,,,,,,,,,663.9431416000007,663.9594342000055,663.9594342000055,663.9594342000055,666.9426888000016,None,,,666.9439064000035,667.6095694000105,j,,,,666.9592009000044,666.9592009000044,0.6438865999953123,None,,,,,,,,,,00019,001,2025-11-09_15h07.19.518,MST_task,2024.2.2,59.997216130673706,2025-11-09 15h18.33.208244 +0530,
,Scenes\043a.jpg,120,0,120,,,,,,,j,1.2324379999918165,0.11053970000648405,None,,,,,,,120,0,120,0,667.6258833000029,,,,,,,,,,,,,,,,,,,,,,,,,,,,,,667.6096536000114,667.6258833000029,668.142803300012,668.1094963000069,,,,,,,,,,,,,,,,,,,,,,,,,,668.1291928999999,668.142803300012,668.142803300012,668.142803300012,671.1258518000104,j,1.2324379999918165,0.11053970000648405,671.1258902000118,671.1259004000021,None,,,,,,,,,,,,,,,,,00019,001,2025-11-09_15h07.19.518,MST_task,2024.2.2,59.997216130673706,2025-11-09 15h18.33.208244 +0530,
,Scenes\065a.jpg,121,0,121,,,,,,,j,2.0666314999980386,0.09774589999869931,None,,,,,,,121,0,121,0,671.1424891000061,,,,,,,,,,,,,,,,,,,,,,,,,,,,,,671.1259883000021,671.1424891000061,671.659138300005,671.6259713000036,,,,,,,,,,,,,,,,,,,,,,,,,,671.6424870000046,671.659138300005,671.659138300005,671.659138300005,674.6424210000114,j,2.0666314999980386,0.09774589999869931,674.6424636000011,674.6424734000029,None,,,,,,,,,,,,,,,,,00019,001,2025-11-09_15h07.19.518,MST_task,2024.2.2,59.997216130673706,2025-11-09 15h18.33.208244 +0530,
,Scenes\001a.jpg,122,0,122,,,,,,,f,1.5059150000015507,0.16758569999365136,None,,,,,,,122,0,122,0,674.659086700005,,,,,,,,,,,,,,,,,,,,,,,,,,,,,,674.642560799999,674.659086700005,,675.1425316000095,,,,,,,,,,,,,,,,,,,,,,,,,,675.1657800000103,675.17596220001,675.17596220001,675.17596220001,678.1590089000092,f,1.5059150000015507,0.16758569999365136,678.1590424000024,678.1590508000081,None,,,,,,,,,,,,,,,,,00019,001,2025-11-09_15h07.19.518,MST_task,2024.2.2,59.997216130673706,2025-11-09 15h18.33.208244 +0530,
,Scenes\112a.jpg,123,0,123,,,,,,,j,0.6710596000048099,0.10606580000603572,None,,,,,,,123,0,123,0,678.175648000004,,,,,,,,,,,,,,,,,,,,,,,,,,,,,,678.1591381000035,678.175648000004,678.6922845000081,678.6591863000067,,,,,,,,,,,,,,,,,,,,,,,,,,678.676265800008,678.6922845000081,678.6922845000081,678.6922845000081,681.6756018000015,j,0.6710596000048099,0.10606580000603572,681.6756354000099,681.6756462000048,None,,,,,,,,,,,,,,,,,00019,001,2025-11-09_15h07.19.518,MST_task,2024.2.2,59.997216130673706,2025-11-09 15h18.33.208244 +0530,
,Scenes\046a.jpg,124,0,124,,,,,,,f,1.3068792999983998,0.12939030000416096,None,,,,,,,124,0,124,0,681.6922063000093,,,,,,,,,,,,,,,,,,,,,,,,,,,,,,681.6757027999993,681.6922063000093,,682.1757485999988,,,,,,,,,,,,,,,,,,,,,,,,,,682.2004422000027,682.2091003000096,682.2091003000096,682.2091003000096,685.1923209000088,f,1.3068792999983998,0.12939030000416096,685.1923553000088,685.1923637,None,,,,,,,,,,,,,,,,,00019,001,2025-11-09_15h07.19.518,MST_task,2024.2.2,59.997216130673706,2025-11-09 15h18.33.208244 +0530,
,Scenes\024a.jpg,125,0,125,,,,,,,j,1.288283500005491,0.1499411999975564,None,,,,,,,125,0,125,0,685.2088998000108,,,,,,,,,,,,,,,,,,,,,,,,,,,,,,685.1924706999998,685.2088998000108,685.7258266999997,685.6923901000118,,,,,,,,,,,,,,,,,,,,,,,,,,685.7096477000014,685.7258266999997,685.7258266999997,685.7258266999997,688.708898900004,j,1.288283500005491,0.1499411999975564,688.70893600001,688.7089459000126,None,,,,,,,,,,,,,,,,,00019,001,2025-11-09_15h07.19.518,MST_task,2024.2.2,59.997216130673706,2025-11-09 15h18.33.208244 +0530,
,Objects\079a.jpg,126,0,126,,,,,,,None,,,f,0.8615901000011945,None,,,,,126,0,126,0,688.7254869000026,,,,,,,,,,,,,,,,,,,,,,,,,,,,,,688.7090349000064,688.7254869000026,689.2424952000001,689.2089900999999,,,,,,,,,,,,,,,,,,,,,,,,,,689.2273524000047,689.2424952000001,689.2424952000001,689.2424952000001,692.2254610000091,None,,,692.2271447000094,693.1092697999993,f,,,,692.242109800005,692.242109800005,0.8615901000011945,None,,,,,,,,,,00019,001,2025-11-09_15h07.19.518,MST_task,2024.2.2,59.997216130673706,2025-11-09 15h18.33.208244 +0530,
,Objects\043a.jpg,127,0,127,,,,,,,None,,,f,0.29551520000677556,None,,,,,127,0,127,0,693.125392300004,,,,,,,,,,,,,,,,,,,,,,,,,,,,,,693.1093809000013,693.125392300004,693.6420536000078,693.6088956000021,,,,,,,,,,,,,,,,,,,,,,,,,,693.6253503000044,693.6420536000078,693.6420536000078,693.6420536000078,696.625380700003,None,,,696.625411800007,696.9424161000061,f,,,,696.642007100003,696.642007100003,0.29551520000677556,None,,,,,,,,,,00019,001,2025-11-09_15h07.19.518,MST_task,2024.2.2,59.997216130673706,2025-11-09 15h18.33.208244 +0530,
,Objects\137a.jpg,128,0,128,,,,,,,None,,,f,0.5159258000057889,None,,,,,128,0,128,0,696.9586714000034,,,,,,,,,,,,,,,,,,,,,,,,,,,,,,696.9424877000129,696.9586714000034,697.4752978000033,697.4421418999991,,,,,,,,,,,,,,,,,,,,,,,,,,697.4579757000029,697.4752978000033,697.4752978000033,697.4752978000033,700.4586000000127,None,,,700.4586315000051,700.9922958000097,f,,,,700.4752547000098,700.4752547000098,0.5159258000057889,None,,,,,,,,,,00019,001,2025-11-09_15h07.19.518,MST_task,2024.2.2,59.997216130673706,2025-11-09 15h18.33.208244 +0530,
,Objects\105a.jpg,129,0,129,,,,,,,None,,,f,0.8420661999989534,None,,,,,129,0,129,0,701.0085842000117,,,,,,,,,,,,,,,,,,,,,,,,,,,,,,700.9923712000018,701.0085842000117,701.5252100000071,701.492109800005,,,,,,,,,,,,,,,,,,,,,,,,,,701.5075507000001,701.5252100000071,701.5252100000071,701.5252100000071,704.5085326000117,None,,,704.5085652000125,705.3756644000096,f,,,,704.5251702000096,704.5251702000096,0.8420661999989534,None,,,,,,,,,,00019,001,2025-11-09_15h07.19.518,MST_task,2024.2.2,59.997216130673706,2025-11-09 15h18.33.208244 +0530,
,Objects\001a.jpg,130,0,130,,,,,,,f,1.7333194999955595,0.1702800000057323,None,,,,,,,130,0,130,0,705.3918511000084,,,,,,,,,,,,,,,,,,,,,,,,,,,,,,705.3757374000124,705.3918511000084,705.908477200006,705.8753475000121,,,,,,,,,,,,,,,,,,,,,,,,,,705.8909795000072,705.908477200006,705.908477200006,705.908477200006,708.8917764000071,f,1.7333194999955595,0.1702800000057323,708.8918113000109,708.8918214000005,None,,,,,,,,,,,,,,,,,00019,001,2025-11-09_15h07.19.518,MST_task,2024.2.2,59.997216130673706,2025-11-09 15h18.33.208244 +0530,
,Objects\019a.jpg,131,0,131,,,,,,,None,,,f,0.3809457999886945,None,,,,,131,0,131,0,708.9084103000059,,,,,,,,,,,,,,,,,,,,,,,,,,,,,,708.8918784000125,708.9084103000059,709.4250665,709.3919150000002,,,,,,,,,,,,,,,,,,,,,,,,,,709.4093910000083,709.4250665,709.4250665,709.4250665,712.4084013000102,None,,,712.4084366000025,712.8086983000103,f,,,,712.4250000000029,712.4250000000029,0.3809457999886945,None,,,,,,,,,,00019,001,2025-11-09_15h07.19.518,MST_task,2024.2.2,59.997216130673706,2025-11-09 15h18.33.208244 +0530,
,Objects\120a.jpg,132,0,132,,,,,,,f,1.5363241000013659,0.15377299999818206,None,,,,,,,132,0,132,0,712.8249922000105,,,,,,,,,,,,,,,,,,,,,,,,,,,,,,712.8087794000021,712.8249922000105,713.3416533999989,713.308492000011,,,,,,,,,,,,,,,,,,,,,,,,,,713.3258029999997,713.3416533999989,713.3416533999989,713.3416533999989,716.3249330000108,f,1.5363241000013659,0.15377299999818206,716.3249848000123,716.3249942000111,None,,,,,,,,,,,,,,,,,00019,001,2025-11-09_15h07.19.518,MST_task,2024.2.2,59.997216130673706,2025-11-09 15h18.33.208244 +0530,
,Scenes\165a.jpg,133,0,133,,,,,,,j,1.719639200004167,0.16606389998923987,None,,,,,,,133,0,133,0,716.3415818000067,,,,,,,,,,,,,,,,,,,,,,,,,,,,,,716.325052500004,716.3415818000067,716.8582184000115,716.8250688000116,,,,,,,,,,,,,,,,,,,,,,,,,,716.8447511000122,716.8582184000115,716.8582184000115,716.8582184000115,719.8415094000084,j,1.719639200004167,0.16606389998923987,719.8426695000089,719.8426810000092,None,,,,,,,,,,,,,,,,,00019,001,2025-11-09_15h07.19.518,MST_task,2024.2.2,59.997216130673706,2025-11-09 15h18.33.208244 +0530,
,Scenes\084a.jpg,134,0,134,,,,,,,j,1.8741307000018423,0.12633989998721518,None,,,,,,,134,0,134,0,719.8581672,,,,,,,,,,,,,,,,,,,,,,,,,,,,,,719.8427375000028,719.8581672,720.3748578000086,720.3416419000132,,,,,,,,,,,,,,,,,,,,,,,,,,720.3612626000104,720.3748578000086,720.3748578000086,720.3748578000086,723.3582854000124,j,1.8741307000018423,0.12633989998721518,723.3583236000122,723.3583335000003,None,,,,,,,,,,,,,,,,,00019,001,2025-11-09_15h07.19.518,MST_task,2024.2.2,59.997216130673706,2025-11-09 15h18.33.208244 +0530,
,Scenes\066a.jpg,135,0,135,,,,,,,j,1.9521507000026759,0.13143130000389647,None,,,,,,,135,0,135,0,723.3747499000019,,,,,,,,,,,,,,,,,,,,,,,,,,,,,,723.3584248000116,723.3747499000019,723.8916207000002,723.8582166000124,,,,,,,,,,,,,,,,,,,,,,,,,,723.8758469000022,723.8916207000002,723.8916207000002,723.8916207000002,726.8747161000065,j,1.9521507000026759,0.13143130000389647,726.8747504000057,726.8747606000106,None,,,,,,,,,,,,,,,,,00019,001,2025-11-09_15h07.19.518,MST_task,2024.2.2,59.997216130673706,2025-11-09 15h18.33.208244 +0530,
,Scenes\100a.jpg,136,0,136,,,,,,,None,,,f,1.3253697999898577,None,,,,,136,0,136,0,726.8913593000034,,,,,,,,,,,,,,,,,,,,,,,,,,,,,,726.874850600012,726.8913593000034,727.4082546999998,727.3747761000122,,,,,,,,,,,,,,,,,,,,,,,,,,727.3926534000057,727.4082546999998,727.4082546999998,727.4082546999998,730.3912852000067,None,,,730.3913152000023,731.7415445000079,f,,,,730.407944800012,730.407944800012,1.3253697999898577,None,,,,,,,,,,00019,001,2025-11-09_15h07.19.518,MST_task,2024.2.2,59.997216130673706,2025-11-09 15h18.33.208244 +0530,
,Scenes\192a.jpg,137,0,137,,,,,,,j,1.7865752000070643,0.11112199998751748,None,,,,,,,137,0,137,0,731.7579177000007,,,,,,,,,,,,,,,,,,,,,,,,,,,,,,731.7416611000081,731.7579177000007,732.2748809000041,732.2413590000069,,,,,,,,,,,,,,,,,,,,,,,,,,732.2565624999988,732.2748809000041,732.2748809000041,732.2748809000041,735.2579888000037,j,1.7865752000070643,0.11112199998751748,735.2580231000029,735.258033200007,None,,,,,,,,,,,,,,,,,00019,001,2025-11-09_15h07.19.518,MST_task,2024.2.2,59.997216130673706,2025-11-09 15h18.33.208244 +0530,
,Scenes\004a.jpg,138,0,138,,,,,,,j,0.738549999994575,0.18321370000194293,None,,,,,,,138,0,138,0,735.2745464000036,,,,,,,,,,,,,,,,,,,,,,,,,,,,,,735.2580921000044,735.2745464000036,735.7911339000129,735.757978300011,,,,,,,,,,,,,,,,,,,,,,,,,,735.7767004000052,735.7911339000129,735.7911339000129,735.7911339000129,738.7744697000016,j,0.738549999994575,0.18321370000194293,738.77450520001,738.7745146000088,None,,,,,,,,,,,,,,,,,00019,001,2025-11-09_15h07.19.518,MST_task,2024.2.2,59.997216130673706,2025-11-09 15h18.33.208244 +0530,
,Scenes\144a.jpg,139,0,139,,,,,,,j,1.4877727999992203,0.13890049999463372,None,,,,,,,139,0,139,0,738.7910613999993,,,,,,,,,,,,,,,,,,,,,,,,,,,,,,738.774600100005,738.7910613999993,739.307733300011,739.2746175000066,,,,,,,,,,,,,,,,,,,,,,,,,,739.2909637000121,739.307733300011,739.307733300011,739.307733300011,742.291207000002,j,1.4877727999992203,0.13890049999463372,742.2912481000094,742.2912592000066,None,,,,,,,,,,,,,,,,,00019,001,2025-11-09_15h07.19.518,MST_task,2024.2.2,59.997216130673706,2025-11-09 15h18.33.208244 +0530,
,Objects\177a.jpg,140,0,140,,,,,,,f,1.5048684000066714,0.1803553999925498,None,,,,,,,140,0,140,0,742.3076612000004,,,,,,,,,,,,,,,,,,,,,,,,,,,,,,742.2913520000002,742.3076612000004,742.8245354000101,742.7911358999991,,,,,,,,,,,,,,,,,,,,,,,,,,742.808895500013,742.8245354000101,742.8245354000101,742.8245354000101,745.8075482000131,f,1.5048684000066714,0.1803553999925498,745.8091622000065,745.8091740000091,None,,,,,,,,,,,,,,,,,00019,001,2025-11-09_15h07.19.518,MST_task,2024.2.2,59.997216130673706,2025-11-09 15h18.33.208244 +0530,
,Objects\090a.jpg,141,0,141,,,,,,,f,2.4963053000101354,0.17836829999578185,None,,,,,,,141,0,141,0,745.8241697000049,,,,,,,,,,,,,,,,,,,,,,,,,,,,,,745.8092574000038,745.8241697000049,746.3408141000109,746.3077315000119,,,,,,,,,,,,,,,,,,,,,,,,,,746.3246256999992,746.3408141000109,746.3408141000109,746.3408141000109,749.3241490000073,f,2.4963053000101354,0.17836829999578185,749.3241842999996,749.3241939,None,,,,,,,,,,,,,,,,,00019,001,2025-11-09_15h07.19.518,MST_task,2024.2.2,59.997216130673706,2025-11-09 15h18.33.208244 +0530,
,Objects\111a.jpg,142,0,142,,,,,,,None,,,f,2.589961300007417,None,,,,,142,0,142,0,749.3407818000123,,,,,,,,,,,,,,,,,,,,,,,,,,,,,,749.324251900005,749.3407818000123,749.8574031000026,749.8243294000131,,,,,,,,,,,,,,,,,,,,,,,,,,749.8395731000055,749.8574031000026,749.8574031000026,749.8574031000026,752.8407357000106,None,,,752.8407661000092,755.4576030000026,f,,,,752.8573707000032,752.8573707000032,2.589961300007417,None,,,,,,,,,,00019,001,2025-11-09_15h07.19.518,MST_task,2024.2.2,59.997216130673706,2025-11-09 15h18.33.208244 +0530,
,Objects\075a.jpg,143,0,143,,,,,,,f,1.9222965000080876,0.11512180000136141,None,,,,,,,143,0,143,0,755.4739816000074,,,,,,,,,,,,,,,,,,,,,,,,,,,,,,755.4577084000048,755.4739816000074,755.9906289000064,755.9575425000075,,,,,,,,,,,,,,,,,,,,,,,,,,755.9730953000108,755.9906289000064,755.9906289000064,755.9906289000064,758.9740675000066,f,1.9222965000080876,0.11512180000136141,758.9741261000017,758.9741365000082,None,,,,,,,,,,,,,,,,,00019,001,2025-11-09_15h07.19.518,MST_task,2024.2.2,59.997216130673706,2025-11-09 15h18.33.208244 +0530,
,Objects\020a.jpg,144,0,144,,,,,,,f,1.007891600005678,0.10823969999910332,None,,,,,,,144,0,144,0,758.9905629000132,,,,,,,,,,,,,,,,,,,,,,,,,,,,,,758.9742253000004,758.9905629000132,759.5072250000085,759.4740351000073,,,,,,,,,,,,,,,,,,,,,,,,,,759.4897394,759.5072250000085,759.5072250000085,759.5072250000085,762.490500800006,f,1.007891600005678,0.10823969999910332,762.4905336000083,762.4905429000064,None,,,,,,,,,,,,,,,,,00019,001,2025-11-09_15h07.19.518,MST_task,2024.2.2,59.997216130673706,2025-11-09 15h18.33.208244 +0530,
,Objects\191a.jpg,145,0,145,,,,,,,f,1.0197629999893252,0.15407830000913236,None,,,,,,,145,0,145,0,762.5071535000025,,,,,,,,,,,,,,,,,,,,,,,,,,,,,,762.4906559000083,762.5071535000025,763.023832100007,762.9906542000099,,,,,,,,,,,,,,,,,,,,,,,,,,763.0059680000122,763.023832100007,763.023832100007,763.023832100007,766.0071366000047,f,1.0197629999893252,0.15407830000913236,766.0071716000093,766.0071816999989,None,,,,,,,,,,,,,,,,,00019,001,2025-11-09_15h07.19.518,MST_task,2024.2.2,59.997216130673706,2025-11-09 15h18.33.208244 +0530,
,Objects\039a.jpg,146,0,146,,,,,,,j,2.0146400000085123,0.13546769999084063,None,,,,,,,146,0,146,0,766.0237476000038,,,,,,,,,,,,,,,,,,,,,,,,,,,,,,766.0072753000131,766.0237476000038,766.5403744000068,766.5072137000097,,,,,,,,,,,,,,,,,,,,,,,,,,766.5230234000046,766.5403744000068,766.5403744000068,766.5403744000068,769.5237058000057,j,2.0146400000085123,0.13546769999084063,769.5237537000066,769.5237638000108,None,,,,,,,,,,,,,,,,,00019,001,2025-11-09_15h07.19.518,MST_task,2024.2.2,59.997216130673706,2025-11-09 15h18.33.208244 +0530,
,Scenes\125a.jpg,147,0,147,,,,,,,j,1.0804691000084858,0.14169229999242816,None,,,,,,,147,0,147,0,769.5403164000018,,,,,,,,,,,,,,,,,,,,,,,,,,,,,,769.5238543000014,769.5403164000018,770.0569744000095,770.023881000001,,,,,,,,,,,,,,,,,,,,,,,,,,770.0453685000102,770.0569744000095,770.0569744000095,770.0569744000095,773.0403030000016,j,1.0804691000084858,0.14169229999242816,773.0414774000092,773.0414935000008,None,,,,,,,,,,,,,,,,,00019,001,2025-11-09_15h07.19.518,MST_task,2024.2.2,59.997216130673706,2025-11-09 15h18.33.208244 +0530,
,Scenes\184a.jpg,148,0,148,,,,,,,j,0.9300861000083387,0.13167769998835865,None,,,,,,,148,0,148,0,773.0568957000069,,,,,,,,,,,,,,,,,,,,,,,,,,,,,,773.0415824000083,773.0568957000069,773.5735636000027,773.5404032000079,,,,,,,,,,,,,,,,,,,,,,,,,,773.5582349000033,773.5735636000027,773.5735636000027,773.5735636000027,776.5568677000119,j,0.9300861000083387,0.13167769998835865,776.5569187000074,776.55692860001,None,,,,,,,,,,,,,,,,,00019,001,2025-11-09_15h07.19.518,MST_task,2024.2.2,59.997216130673706,2025-11-09 15h18.33.208244 +0530,
,Scenes\122a.jpg,149,0,149,,,,,,,f,2.945722399992519,None,None,,,,,,,149,0,149,0,776.5735145000071,,,,,,,,,,,,,,,,,,,,,,,,,,,,,,776.5569896000088,776.5735145000071,777.090167900009,777.0569877000089,,,,,,,,,,,,,,,,,,,,,,,,,,777.0762376000057,777.090167900009,777.090167900009,777.090167900009,780.0734646000055,f,2.945722399992519,None,780.0735258000059,780.0735363000131,None,,,,,,,,,,,,,,,,,00019,001,2025-11-09_15h07.19.518,MST_task,2024.2.2,59.997216130673706,2025-11-09 15h18.33.208244 +0530,
,Scenes\023a.jpg,150,0,150,,,,,,,f,1.6088268000021344,0.16308120000758208,None,,,,,,,150,0,150,0,780.0901485000068,,,,,,,,,,,,,,,,,,,,,,,,,,,,,,780.0736241000122,780.0901485000068,780.607033200009,780.5735916000122,,,,,,,,,,,,,,,,,,,,,,,,,,780.5961976000108,780.607033200009,780.607033200009,780.607033200009,783.5901440000016,f,1.6088268000021344,0.16308120000758208,783.5901769000047,783.590186100002,None,,,,,,,,,,,,,,,,,00019,001,2025-11-09_15h07.19.518,MST_task,2024.2.2,59.997216130673706,2025-11-09 15h18.33.208244 +0530,
,Scenes\104a.jpg,151,0,151,,,,,,,j,1.3418950000050245,0.12999869999475777,None,,,,,,,151,0,151,0,783.6067578000075,,,,,,,,,,,,,,,,,,,,,,,,,,,,,,783.5902691000083,783.6067578000075,784.123362000013,784.0903528000053,,,,,,,,,,,,,,,,,,,,,,,,,,784.1088085000083,784.123362000013,784.123362000013,784.123362000013,787.1067459000042,j,1.3418950000050245,0.12999869999475777,787.1067804000049,787.1067902000068,None,,,,,,,,,,,,,,,,,00019,001,2025-11-09_15h07.19.518,MST_task,2024.2.2,59.997216130673706,2025-11-09 15h18.33.208244 +0530,
,Scenes\111a.jpg,152,0,152,,,,,,,j,0.7019490000093356,0.1375417999952333,None,,,,,,,152,0,152,0,787.1232892000116,,,,,,,,,,,,,,,,,,,,,,,,,,,,,,787.1068488000019,787.1232892000116,787.639923499999,787.60676960001,,,,,,,,,,,,,,,,,,,,,,,,,,787.6223708000034,787.639923499999,787.639923499999,787.639923499999,790.6232722000132,j,0.7019490000093356,0.1375417999952333,790.6233068000001,790.6233161000127,None,,,,,,,,,,,,,,,,,00019,001,2025-11-09_15h07.19.518,MST_task,2024.2.2,59.997216130673706,2025-11-09 15h18.33.208244 +0530,
,Scenes\040a.jpg,153,0,153,,,,,,,f,1.3750693000038154,0.18148880000808276,None,,,,,,,153,0,153,0,790.6398852999992,,,,,,,,,,,,,,,,,,,,,,,,,,,,,,790.6233721000026,790.6398852999992,,791.1233524000127,,,,,,,,,,,,,,,,,,,,,,,,,,791.141566700011,791.1565792000038,791.1565792000038,791.1565792000038,794.1398507000122,f,1.3750693000038154,0.18148880000808276,794.1398837000015,794.1398919000058,None,,,,,,,,,,,,,,,,,00019,001,2025-11-09_15h07.19.518,MST_task,2024.2.2,59.997216130673706,2025-11-09 15h18.33.208244 +0530,
,Objects\027a.jpg,154,0,154,,,,,,,f,1.4304843000136316,0.15348470000026282,None,,,,,,,154,0,154,0,794.1565624000068,,,,,,,,,,,,,,,,,,,,,,,,,,,,,,794.1399808999995,794.1565624000068,794.6733504000003,794.6399716000014,,,,,,,,,,,,,,,,,,,,,,,,,,794.6574983000028,794.6733504000003,794.6733504000003,794.6733504000003,797.6565148000082,f,1.4304843000136316,0.15348470000026282,797.658122000008,797.6581363000005,None,,,,,,,,,,,,,,,,,00019,001,2025-11-09_15h07.19.518,MST_task,2024.2.2,59.997216130673706,2025-11-09 15h18.33.208244 +0530,
,Objects\034a.jpg,155,0,155,,,,,,,f,0.7697679999982938,0.16166990000056103,None,,,,,,,155,0,155,0,797.6730629000085,,,,,,,,,,,,,,,,,,,,,,,,,,,,,,797.6582674000092,797.6730629000085,798.1897115000029,798.1565872000065,,,,,,,,,,,,,,,,,,,,,,,,,,798.1729923000094,798.1897115000029,798.1897115000029,798.1897115000029,801.1731360000122,f,0.7697679999982938,0.16166990000056103,801.1731727000006,801.173182700004,None,,,,,,,,,,,,,,,,,00019,001,2025-11-09_15h07.19.518,MST_task,2024.2.2,59.997216130673706,2025-11-09 15h18.33.208244 +0530,
,Objects\054a.jpg,156,0,156,,,,,,,j,2.940902600006666,None,None,,,,,,,156,0,156,0,801.189631900008,,,,,,,,,,,,,,,,,,,,,,,,,,,,,,801.173272,801.189631900008,801.7063463000086,801.6732527000131,,,,,,,,,,,,,,,,,,,,,,,,,,801.6897851000103,801.7063463000086,801.7063463000086,801.7063463000086,804.6896226000099,j,2.940902600006666,None,804.6896557,804.6896653000003,None,,,,,,,,,,,,,,,,,00019,001,2025-11-09_15h07.19.518,MST_task,2024.2.2,59.997216130673706,2025-11-09 15h18.33.208244 +0530,
,Objects\053a.jpg,157,0,157,,,,,,,f,0.9483674999937648,0.1593386000022292,None,,,,,,,157,0,157,0,804.7062162000075,,,,,,,,,,,,,,,,,,,,,,,,,,,,,,804.6897532000003,804.7062162000075,805.222966900008,805.1898798000038,,,,,,,,,,,,,,,,,,,,,,,,,,805.2061519999988,805.222966900008,805.222966900008,805.222966900008,808.206362900004,f,0.9483674999937648,0.1593386000022292,808.2063970000017,808.2064065000013,None,,,,,,,,,,,,,,,,,00019,001,2025-11-09_15h07.19.518,MST_task,2024.2.2,59.997216130673706,2025-11-09 15h18.33.208244 +0530,
,Objects\190a.jpg,158,0,158,,,,,,,f,0.6996830999996746,0.1306637999950908,None,,,,,,,158,0,158,0,808.2229660000012,,,,,,,,,,,,,,,,,,,,,,,,,,,,,,808.2064938000112,808.2229660000012,808.7395549000066,808.706410800005,,,,,,,,,,,,,,,,,,,,,,,,,,808.7217237000004,808.7395549000066,808.7395549000066,808.7395549000066,811.7228639000095,f,0.6996830999996746,0.1306637999950908,811.7228962000081,811.7229063000123,None,,,,,,,,,,,,,,,,,00019,001,2025-11-09_15h07.19.518,MST_task,2024.2.2,59.997216130673706,2025-11-09 15h18.33.208244 +0530,
,Objects\037a.jpg,159,0,159,,,,,,,f,0.7717172999982722,0.1619224000023678,None,,,,,,,159,0,159,0,811.7395252999995,,,,,,,,,,,,,,,,,,,,,,,,,,,,,,811.7229628000059,811.7395252999995,812.2561562000046,812.2229415000038,,,,,,,,,,,,,,,,,,,,,,,,,,812.2390391000081,812.2561562000046,812.2561562000046,812.2561562000046,815.2394420000055,f,0.7717172999982722,0.1619224000023678,815.2394745000056,815.2394840000052,None,,,,,,,,,,,,,,,,,00019,001,2025-11-09_15h07.19.518,MST_task,2024.2.2,59.997216130673706,2025-11-09 15h18.33.208244 +0530,
,Objects\133a.jpg,160,0,160,,,,,,,f,1.626785899992683,0.1142019000108121,None,,,,,,,160,0,160,0,815.2561101000028,,,,,,,,,,,,,,,,,,,,,,,,,,,,,,815.2395742000081,815.2561101000028,815.7727573000011,815.739638900006,,,,,,,,,,,,,,,,,,,,,,,,,,815.7556492000003,815.7727573000011,815.7727573000011,815.7727573000011,818.756103000007,f,1.626785899992683,0.1142019000108121,818.7561395000084,818.756149400011,None,,,,,,,,,,,,,,,,,00019,001,2025-11-09_15h07.19.518,MST_task,2024.2.2,59.997216130673706,2025-11-09 15h18.33.208244 +0530,
,Scenes\054a.jpg,161,0,161,,,,,,,j,0.650659100007033,0.10591959999874234,None,,,,,,,161,0,161,0,818.772699100009,,,,,,,,,,,,,,,,,,,,,,,,,,,,,,818.7562068000116,818.772699100009,819.289334400004,819.2562108000129,,,,,,,,,,,,,,,,,,,,,,,,,,819.2770191000018,819.289334400004,819.289334400004,819.289334400004,822.2726493000082,j,0.650659100007033,0.10591959999874234,822.2738950000057,822.273907499999,None,,,,,,,,,,,,,,,,,00019,001,2025-11-09_15h07.19.518,MST_task,2024.2.2,59.997216130673706,2025-11-09 15h18.33.208244 +0530,
,Scenes\166a.jpg,162,0,162,,,,,,,j,1.619490400000359,0.162370899997768,None,,,,,,,162,0,162,0,822.2892586000089,,,,,,,,,,,,,,,,,,,,,,,,,,,,,,822.2739921000029,822.2892586000089,822.8058778000122,822.7727596000041,,,,,,,,,,,,,,,,,,,,,,,,,,822.7865249000024,822.8058778000122,822.8058778000122,822.8058778000122,825.7893670000049,j,1.619490400000359,0.162370899997768,825.7894011000026,825.7894107000029,None,,,,,,,,,,,,,,,,,00019,001,2025-11-09_15h07.19.518,MST_task,2024.2.2,59.997216130673706,2025-11-09 15h18.33.208244 +0530,
,Scenes\159a.jpg,163,0,163,,,,,,,j,1.4150604999886127,0.14427299999806564,None,,,,,,,163,0,163,0,825.805976100004,,,,,,,,,,,,,,,,,,,,,,,,,,,,,,825.7894711000117,825.805976100004,826.3225190000085,826.2894481000112,,,,,,,,,,,,,,,,,,,,,,,,,,826.3091609000112,826.3225190000085,826.3225190000085,826.3225190000085,829.3058317000105,j,1.4150604999886127,0.14427299999806564,829.3058645000128,829.3058738000109,None,,,,,,,,,,,,,,,,,00019,001,2025-11-09_15h07.19.518,MST_task,2024.2.2,59.997216130673706,2025-11-09 15h18.33.208244 +0530,
,Scenes\050a.jpg,164,0,164,,,,,,,j,0.6562898999982281,0.1740743999980623,None,,,,,,,164,0,164,0,829.3224700999999,,,,,,,,,,,,,,,,,,,,,,,,,,,,,,829.3059838000045,829.3224700999999,829.8390949000022,829.8060461000132,,,,,,,,,,,,,,,,,,,,,,,,,,829.8210976000119,829.8390949000022,829.8390949000022,829.8390949000022,832.8224316000124,j,0.6562898999982281,0.1740743999980623,832.8224646000017,832.822474200002,None,,,,,,,,,,,,,,,,,00019,001,2025-11-09_15h07.19.518,MST_task,2024.2.2,59.997216130673706,2025-11-09 15h18.33.208244 +0530,
,Scenes\136a.jpg,165,0,165,,,,,,,j,1.0616505999932997,0.16020990000106394,None,,,,,,,165,0,165,0,832.8390504999988,,,,,,,,,,,,,,,,,,,,,,,,,,,,,,832.8226146000088,832.8390504999988,833.3557513000123,833.3225530000054,,,,,,,,,,,,,,,,,,,,,,,,,,833.339930800008,833.3557513000123,833.3557513000123,833.3557513000123,836.3390343000065,j,1.0616505999932997,0.16020990000106394,836.3390763000061,836.3390856000042,None,,,,,,,,,,,,,,,,,00019,001,2025-11-09_15h07.19.518,MST_task,2024.2.2,59.997216130673706,2025-11-09 15h18.33.208244 +0530,
,Scenes\185a.jpg,166,0,166,,,,,,,j,1.3529011000064202,0.15426080000179354,None,,,,,,,166,0,166,0,836.3556412000034,,,,,,,,,,,,,,,,,,,,,,,,,,,,,,836.3391766999994,836.3556412000034,836.8724724000058,836.839118200005,,,,,,,,,,,,,,,,,,,,,,,,,,836.8544230000116,836.8724724000058,836.8724724000058,836.8724724000058,839.855581300013,j,1.3529011000064202,0.15426080000179354,839.8556143000023,839.8556236000004,None,,,,,,,,,,,,,,,,,00019,001,2025-11-09_15h07.19.518,MST_task,2024.2.2,59.997216130673706,2025-11-09 15h18.33.208244 +0530,
,Scenes\012a.jpg,167,0,167,,,,,,,j,1.1386687000049278,0.20609539998986293,None,,,,,,,167,0,167,0,839.8722387000016,,,,,,,,,,,,,,,,,,,,,,,,,,,,,,839.8556807000132,839.8722387000016,840.3888716000074,840.3556473000062,,,,,,,,,,,,,,,,,,,,,,,,,,840.3756783999997,840.3888716000074,840.3888716000074,840.3888716000074,843.3722042000009,j,1.1386687000049278,0.20609539998986293,843.372242100013,843.3722511000087,None,,,,,,,,,,,,,,,,,00019,001,2025-11-09_15h07.19.518,MST_task,2024.2.2,59.997216130673706,2025-11-09 15h18.33.208244 +0530,
,Objects\041a.jpg,168,0,168,,,,,,,f,0.8492513000092003,0.14890449999074917,None,,,,,,,168,0,168,0,843.3888341000129,,,,,,,,,,,,,,,,,,,,,,,,,,,,,,843.3723373000103,843.3888341000129,843.9056982000038,843.8722141000035,,,,,,,,,,,,,,,,,,,,,,,,,,843.8891467000067,843.9056982000038,843.9056982000038,843.9056982000038,846.8887654999999,f,0.8492513000092003,0.14890449999074917,846.8901843000058,846.890195800006,None,,,,,,,,,,,,,,,,,00019,001,2025-11-09_15h07.19.518,MST_task,2024.2.2,59.997216130673706,2025-11-09 15h18.33.208244 +0530,
