Sl_no,image_path,thisN,thisTrialN,thisRepN,key_resp_5.keys,key_resp_5.rt,key_resp_5.duration,key_resp_7.keys,key_resp_9.keys,key_resp_9.rt,key_resp_9.duration,key_resp_8.keys,key_resp_8.rt,key_resp_8.duration,practice.thisRepN,practice.thisTrialN,practice.thisN,practice.thisIndex,trials.thisRepN,trials.thisTrialN,trials.thisN,trials.thisIndex,thisRow.t,notes,welcome_page.started,text.started,key_resp.started,welcome_page.stopped,key_resp.keys,key_resp.rt,key_resp.duration,instructions.started,ins.started,key_resp_2.started,instructions.stopped,key_resp_2.keys,key_resp_2.rt,key_resp_2.duration,instructions_2.started,text_10.started,key_resp_10.started,instructions_2.stopped,key_resp_10.keys,key_resp_10.rt,key_resp_10.duration,objects_only_instruction.started,text_3.started,key_resp_3.started,objects_only_instruction.stopped,key_resp_3.keys,key_resp_3.rt,key_resp_3.duration,ISI.started,text_4.started,text_4.stopped,ISI.stopped,practice_block.started,image.started,text_5.started,key_resp_5.started,practice_block.stopped,practice.key_resp_5.keys,practice.key_resp_5.rt,practice.key_resp_5.duration,indoor_outdoor.started,indoor_outdoor.stopped,practice.key_resp_7.keys,image.stopped,text_5.stopped,key_resp_5.stopped,practice_to_main.started,text_2.started,key_resp_4.started,practice_to_main.stopped,key_resp_4.keys,key_resp_4.rt,key_resp_4.duration,objects.started,image_2.started,text_9.started,key_resp_9.started,objects.stopped,trials.key_resp_9.keys,trials.key_resp_9.rt,trials.key_resp_9.duration,encoding_task.started,encoding_task.stopped,trials.key_resp_8.keys,text_8.started,key_resp_8.started,trials.key_resp_8.rt,trials.key_resp_8.duration,image_2.stopped,text_9.stopped,key_resp_9.stopped,end_experiment.started,text_6.started,key_resp_6.started,end_experiment.stopped,key_resp_6.keys,key_resp_6.rt,key_resp_6.duration,list_of_stimuli,encoding_task_accuracy,participant,session,date,expName,psychopyVersion,frameRate,expStart,
,,,,,,,,,,,,,,,,,,,,,,,,,0.013088700001389952,0.02970129999812343,0.02970129999812343,23.33078849999947,space,23.294297800002823,None,,,,,,,,,,,,,,,,,,,,,,,,,,,,,,,,,,,,,,,,,,,,,,,,,,,,,,,,,,,,,,,,,,,,,,,,,,00016,001,2025-11-08_17h23.18.303,MST_task,2024.2.2,60.00502842212357,2025-11-08 17h23.24.948456 +0530,
,,,,,,,,,,,,,,,,,,,,,,,,,,,,,,,,23.330819700000575,23.3458126000005,23.3458126000005,41.59571750000032,space,18.23448180000196,None,,,,,,,,,,,,,,,,,,,,,,,,,,,,,,,,,,,,,,,,,,,,,,,,,,,,,,,,,,,,,,,,,,,00016,001,2025-11-08_17h23.18.303,MST_task,2024.2.2,60.00502842212357,2025-11-08 17h23.24.948456 +0530,
,,,,,,,,,,,,,,,,,,,,,,,,,,,,,,,,,,,,,,,41.59574570000041,41.61206609999863,41.61206609999863,50.79563970000163,space,9.176199499997892,None,,,,,,,,,,,,,,,,,,,,,,,,,,,,,,,,,,,,,,,,,,,,,,,,,,,,,,,,,,,,00016,001,2025-11-08_17h23.18.303,MST_task,2024.2.2,60.00502842212357,2025-11-08 17h23.24.948456 +0530,
,,,,,,,,,,,,,,,,,,,,,,,,,,,,,,,,,,,,,,,,,,,,,,50.7956692000007,50.811868400000094,50.811868400000094,66.92876350000006,space,16.110101199999917,None,,,,,,,,,,,,,,,,,,,,,,,,,,,,,,,,,,,,,,,,,,,,,,,,,,,,,00016,001,2025-11-08_17h23.18.303,MST_task,2024.2.2,60.00502842212357,2025-11-08 17h23.24.948456 +0530,
1,practice_images/013a.jpg,0,0,0,j,1.2698361999973713,0.11016200000085519,None,,,,,,,0,0,0,0,,,,,66.94500569999946,,,,,,,,,,,,,,,,,,,,,,,,,,,,,,66.9323536999982,66.94500569999946,67.46153309999863,67.4283460000006,67.44308119999914,67.46153309999863,67.46153309999863,67.46153309999863,70.4449483999997,j,1.2698361999973713,0.11016200000085519,70.44621809999808,70.4462300999985,None,,,,,,,,,,,,,,,,,,,,,,,,,,,,,,,,,,,,,,00016,001,2025-11-08_17h23.18.303,MST_task,2024.2.2,60.00502842212357,2025-11-08 17h23.24.948456 +0530,
3,practice_images/037a.jpg,1,1,0,f,1.140498699998716,0.09597600000051898,None,,,,,,,0,1,1,2,,,,,70.46142529999997,,,,,,,,,,,,,,,,,,,,,,,,,,,,,,70.44628870000088,70.46142529999997,70.96142269999837,70.9449339999992,70.95190400000138,70.96142269999837,70.96142269999837,70.96142269999837,73.94498540000131,f,1.140498699998716,0.09597600000051898,73.94501980000132,73.9450308000014,None,73.96137399999861,73.96137399999861,73.96137399999861,,,,,,,,,,,,,,,,,,,,,,,,,,,,,,,,,,,00016,001,2025-11-08_17h23.18.303,MST_task,2024.2.2,60.00502842212357,2025-11-08 17h23.24.948456 +0530,
8,practice_images/178a.jpg,2,2,0,f,1.0723034000002372,0.09587919999830774,None,,,,,,,0,2,2,7,,,,,73.96137399999861,,,,,,,,,,,,,,,,,,,,,,,,,,,,,,73.94508760000099,73.96137399999861,74.46134529999836,74.44496549999894,74.45194619999893,74.46134529999836,74.46134529999836,74.46134529999836,77.44489279999834,f,1.0723034000002372,0.09587919999830774,77.44492919999902,77.44493890000012,None,77.4612707999986,77.4612707999986,77.4612707999986,,,,,,,,,,,,,,,,,,,,,,,,,,,,,,,,,,,00016,001,2025-11-08_17h23.18.303,MST_task,2024.2.2,60.00502842212357,2025-11-08 17h23.24.948456 +0530,
2,practice_images/031a.jpg,3,3,0,f,1.224301700000069,0.10625470000013593,None,,,,,,,0,3,3,1,,,,,77.4612707999986,,,,,,,,,,,,,,,,,,,,,,,,,,,,,,77.44499670000005,77.4612707999986,77.96126509999885,77.94481390000146,77.95178120000128,77.96126509999885,77.96126509999885,77.96126509999885,80.94484190000003,f,1.224301700000069,0.10625470000013593,80.94489049999902,80.94490020000012,None,80.96123710000029,80.96123710000029,80.96123710000029,,,,,,,,,,,,,,,,,,,,,,,,,,,,,,,,,,,00016,001,2025-11-08_17h23.18.303,MST_task,2024.2.2,60.00502842212357,2025-11-08 17h23.24.948456 +0530,
10,practice_images/182a.jpg,4,4,0,f,0.850661399999808,0.09773980000318261,None,,,,,,,0,4,4,9,,,,,80.96123710000029,,,,,,,,,,,,,,,,,,,,,,,,,,,,,,80.94496380000055,80.96123710000029,81.46121019999919,81.44473490000019,81.45150999999896,81.46121019999919,81.46121019999919,81.46121019999919,84.4447121000012,f,0.850661399999808,0.09773980000318261,84.44474439999976,84.44475339999917,None,84.46117270000104,84.46117270000104,84.46117270000104,,,,,,,,,,,,,,,,,,,,,,,,,,,,,,,,,,,00016,001,2025-11-08_17h23.18.303,MST_task,2024.2.2,60.00502842212357,2025-11-08 17h23.24.948456 +0530,
5,practice_images/139a.jpg,5,5,0,j,0.907197399999859,0.1172184000024572,None,,,,,,,0,5,5,4,,,,,84.46117270000104,,,,,,,,,,,,,,,,,,,,,,,,,,,,,,84.44480810000096,84.46117270000104,84.96111290000044,84.94474320000154,84.95388509999975,84.96111290000044,84.96111290000044,84.96111290000044,87.94537950000085,j,0.907197399999859,0.1172184000024572,87.94695040000079,87.94696209999893,None,,,,,,,,,,,,,,,,,,,,,,,,,,,,,,,,,,,,,,00016,001,2025-11-08_17h23.18.303,MST_task,2024.2.2,60.00502842212357,2025-11-08 17h23.24.948456 +0530,
6,practice_images/158a.jpg,6,6,0,j,1.1229442000003473,0.13619380000091041,None,,,,,,,0,6,6,5,,,,,87.96105879999959,,,,,,,,,,,,,,,,,,,,,,,,,,,,,,87.94701759999953,87.96105879999959,88.46103289999883,88.44458590000067,88.45147849999921,88.46103289999883,88.46103289999883,88.46103289999883,91.44449339999846,j,1.1229442000003473,0.13619380000091041,91.44452369999999,91.44453299999805,None,91.4609922999989,91.4609922999989,91.4609922999989,,,,,,,,,,,,,,,,,,,,,,,,,,,,,,,,,,,00016,001,2025-11-08_17h23.18.303,MST_task,2024.2.2,60.00502842212357,2025-11-08 17h23.24.948456 +0530,
4,practice_images/002b.jpg,7,7,0,j,1.2152005999996618,0.09600290000162204,None,,,,,,,0,7,7,3,,,,,91.4609922999989,,,,,,,,,,,,,,,,,,,,,,,,,,,,,,91.44458880000093,91.4609922999989,91.96095530000093,91.94454849999966,91.95175290000043,91.96095530000093,91.96095530000093,91.96095530000093,94.94441680000091,j,1.2152005999996618,0.09600290000162204,94.9444454000004,94.94445439999981,None,94.96092539999881,94.96092539999881,94.96092539999881,,,,,,,,,,,,,,,,,,,,,,,,,,,,,,,,,,,00016,001,2025-11-08_17h23.18.303,MST_task,2024.2.2,60.00502842212357,2025-11-08 17h23.24.948456 +0530,
7,practice_images/166a.jpg,8,8,0,f,1.4601927999974578,0.09269760000097449,None,,,,,,,0,8,8,6,,,,,94.96092539999881,,,,,,,,,,,,,,,,,,,,,,,,,,,,,,94.94453330000033,94.96092539999881,95.46087819999957,95.44447949999812,95.4513595999997,95.46087819999957,95.46087819999957,95.46087819999957,98.44449840000016,f,1.4601927999974578,0.09269760000097449,98.444531000001,98.44454300000143,None,98.46085500000117,98.46085500000117,98.46085500000117,,,,,,,,,,,,,,,,,,,,,,,,,,,,,,,,,,,00016,001,2025-11-08_17h23.18.303,MST_task,2024.2.2,60.00502842212357,2025-11-08 17h23.24.948456 +0530,
9,practice_images/180a.jpg,9,9,0,j,0.82430789999853,0.1132843999985198,None,,,,,,,0,9,9,8,,,,,98.46085500000117,,,,,,,,,,,,,,,,,,,,,,,,,,,,,,98.44460030000118,98.46085500000117,98.96080340000117,98.94441609999922,98.95158509999965,98.96080340000117,98.96080340000117,98.96080340000117,101.94441350000125,j,0.82430789999853,0.1132843999985198,101.94444830000066,101.94445849999829,None,101.96073270000124,101.96073270000124,101.96073270000124,,,,,,,,,,,,,,,,,,,,,,,,,,,,,,,,,,,00016,001,2025-11-08_17h23.18.303,MST_task,2024.2.2,60.00502842212357,2025-11-08 17h23.24.948456 +0530,
,,,,,,,,,,,,,,,,,,,,,,,,,,,,,,,,,,,,,,,,,,,,,,,,,,,,,,,,,,,,,,,,,,,,,,,101.9445014999983,101.96073270000124,101.96073270000124,114.5273918999992,space,12.563650100000814,None,,,,,,,,,,,,,,,,,,,,,,,,,,,,00016,001,2025-11-08_17h23.18.303,MST_task,2024.2.2,60.00502842212357,2025-11-08 17h23.24.948456 +0530,
,Scenes\192a.jpg,0,0,0,,,,,j,2.2990687000019534,0.11831529999835766,None,,,,,,,0,0,0,0,114.54383039999811,,,,,,,,,,,,,,,,,,,,,,,,,,,,,,114.52794580000045,114.54383039999811,115.0606747999991,115.02740609999819,,,,,,,,,,,,,,,,,,,,,,115.04820720000134,115.0606747999991,115.0606747999991,115.0606747999991,118.04377150000073,j,2.2990687000019534,0.11831529999835766,118.04504960000122,118.04506100000071,None,,,,,,,,,,,,,,,,,00016,001,2025-11-08_17h23.18.303,MST_task,2024.2.2,60.00502842212357,2025-11-08 17h23.24.948456 +0530,
,Scenes\157a.jpg,1,0,1,,,,,j,0.9910864000012225,0.12585300000137067,None,,,,,,,1,0,1,0,118.06038510000144,,,,,,,,,,,,,,,,,,,,,,,,,,,,,,118.04511869999988,118.06038510000144,118.57734429999982,118.54398949999813,,,,,,,,,,,,,,,,,,,,,,118.56047549999857,118.57734429999982,118.57734429999982,118.57734429999982,121.56034780000118,j,0.9910864000012225,0.12585300000137067,121.5604018999984,121.5604115999995,None,,,,,,,,,,,,,,,,,00016,001,2025-11-08_17h23.18.303,MST_task,2024.2.2,60.00502842212357,2025-11-08 17h23.24.948456 +0530,
,Scenes\024a.jpg,2,0,2,,,,,j,0.9337447999969299,0.1437705000025744,None,,,,,,,2,0,2,0,121.57706550000148,,,,,,,,,,,,,,,,,,,,,,,,,,,,,,121.56049559999883,121.57706550000148,122.09380659999806,122.06044309999925,,,,,,,,,,,,,,,,,,,,,,122.07867270000133,122.09380659999806,122.09380659999806,122.09380659999806,125.07698299999902,j,0.9337447999969299,0.1437705000025744,125.07702939999945,125.07704300000114,None,,,,,,,,,,,,,,,,,00016,001,2025-11-08_17h23.18.303,MST_task,2024.2.2,60.00502842212357,2025-11-08 17h23.24.948456 +0530,
,Scenes\028a.jpg,3,0,3,,,,,j,0.8285859999996319,0.11615199999869219,None,,,,,,,3,0,3,0,125.09356050000133,,,,,,,,,,,,,,,,,,,,,,,,,,,,,,125.07712850000098,125.09356050000133,125.62694919999922,125.5771018000014,,,,,,,,,,,,,,,,,,,,,,125.61119219999819,125.62694919999922,125.62694919999922,125.62694919999922,128.59364020000066,j,0.8285859999996319,0.11615199999869219,128.59368349999932,128.59369370000059,None,,,,,,,,,,,,,,,,,00016,001,2025-11-08_17h23.18.303,MST_task,2024.2.2,60.00502842212357,2025-11-08 17h23.24.948456 +0530,
,Scenes\075a.jpg,4,0,4,,,,,j,0.8612804999975197,0.15000789999976405,None,,,,,,,4,0,4,0,128.61021160000018,,,,,,,,,,,,,,,,,,,,,,,,,,,,,,128.5937817999984,128.61021160000018,129.12677500000063,129.09377049999966,,,,,,,,,,,,,,,,,,,,,,129.1200084000011,129.12677500000063,129.12677500000063,129.12677500000063,132.11016989999916,j,0.8612804999975197,0.15000789999976405,132.1102045000007,132.11021439999968,None,,,,,,,,,,,,,,,,,00016,001,2025-11-08_17h23.18.303,MST_task,2024.2.2,60.00502842212357,2025-11-08 17h23.24.948456 +0530,
,Scenes\014a.jpg,5,0,5,,,,,f,0.7879716000024928,0.13429679999899236,None,,,,,,,5,0,5,0,132.12678869999945,,,,,,,,,,,,,,,,,,,,,,,,,,,,,,132.11030010000104,132.12678869999945,132.64360849999866,132.61037080000096,,,,,,,,,,,,,,,,,,,,,,132.63709989999916,132.64360849999866,132.64360849999866,132.64360849999866,135.62673659999928,f,0.7879716000024928,0.13429679999899236,135.62677149999945,135.62678159999996,None,,,,,,,,,,,,,,,,,00016,001,2025-11-08_17h23.18.303,MST_task,2024.2.2,60.00502842212357,2025-11-08 17h23.24.948456 +0530,
,Scenes\092a.jpg,6,0,6,,,,,f,0.6574241000016627,0.134471699999267,None,,,,,,,6,0,6,0,135.6433666999983,,,,,,,,,,,,,,,,,,,,,,,,,,,,,,135.6268428000003,135.6433666999983,136.160018999999,136.12687300000107,,,,,,,,,,,,,,,,,,,,,,136.14474029999838,136.160018999999,136.160018999999,136.160018999999,139.14334589999999,f,0.6574241000016627,0.134471699999267,139.1433838999983,139.14339409999957,None,,,,,,,,,,,,,,,,,00016,001,2025-11-08_17h23.18.303,MST_task,2024.2.2,60.00502842212357,2025-11-08 17h23.24.948456 +0530,
,Objects\150a.jpg,7,0,7,,,,,j,1.9633437000011327,0.11185370000021067,None,,,,,,,7,0,7,0,139.1597987999994,,,,,,,,,,,,,,,,,,,,,,,,,,,,,,139.14345120000144,139.1597987999994,,139.64342340000076,,,,,,,,,,,,,,,,,,,,,,139.66221949999817,139.6767473,139.6767473,139.6767473,142.66004629999952,j,1.9633437000011327,0.11185370000021067,142.66224050000164,142.66225269999995,None,,,,,,,,,,,,,,,,,00016,001,2025-11-08_17h23.18.303,MST_task,2024.2.2,60.00502842212357,2025-11-08 17h23.24.948456 +0530,
,Objects\075a.jpg,8,0,8,,,,,f,0.9812865000021702,0.12687389999700827,None,,,,,,,8,0,8,0,142.67651100000148,,,,,,,,,,,,,,,,,,,,,,,,,,,,,,142.6623139000003,142.67651100000148,143.19320399999924,143.16009109999868,,,,,,,,,,,,,,,,,,,,,,143.18499130000055,143.19320399999924,143.19320399999924,143.19320399999924,146.17653829999836,f,0.9812865000021702,0.12687389999700827,146.1765759000009,146.17658630000005,None,,,,,,,,,,,,,,,,,00016,001,2025-11-08_17h23.18.303,MST_task,2024.2.2,60.00502842212357,2025-11-08 17h23.24.948456 +0530,
,Objects\148a.jpg,9,0,9,,,,,f,1.3124779999998282,0.10312669999984792,None,,,,,,,9,0,9,0,146.19313300000067,,,,,,,,,,,,,,,,,,,,,,,,,,,,,,146.17668570000023,146.19313300000067,146.70976090000113,146.67657169999802,,,,,,,,,,,,,,,,,,,,,,146.6929482000014,146.70976090000113,146.70976090000113,146.70976090000113,149.6930742000004,f,1.3124779999998282,0.10312669999984792,149.69312340000033,149.69313319999856,None,,,,,,,,,,,,,,,,,00016,001,2025-11-08_17h23.18.303,MST_task,2024.2.2,60.00502842212357,2025-11-08 17h23.24.948456 +0530,
,Objects\158a.jpg,10,0,10,,,,,f,0.9393983999980264,0.0980122000000847,None,,,,,,,10,0,10,0,149.7097262999996,,,,,,,,,,,,,,,,,,,,,,,,,,,,,,149.69319420000102,149.7097262999996,,150.19319180000093,,,,,,,,,,,,,,,,,,,,,,150.2088201000006,150.22638169999846,150.22638169999846,150.22638169999846,153.19317310000042,f,0.9393983999980264,0.0980122000000847,153.19320929999958,153.1932181000011,None,,,,,,,,,,,,,,,,,00016,001,2025-11-08_17h23.18.303,MST_task,2024.2.2,60.00502842212357,2025-11-08 17h23.24.948456 +0530,
,Objects\166a.jpg,11,0,11,,,,,f,0.8498539999964123,0.1105468000023393,None,,,,,,,11,0,11,0,153.2096606999985,,,,,,,,,,,,,,,,,,,,,,,,,,,,,,153.19330830000035,153.2096606999985,153.7264464,153.69325089999984,,,,,,,,,,,,,,,,,,,,,,153.71002299999964,153.7264464,153.7264464,153.7264464,156.70967050000036,f,0.8498539999964123,0.1105468000023393,156.70970379999926,156.70971419999842,None,,,,,,,,,,,,,,,,,00016,001,2025-11-08_17h23.18.303,MST_task,2024.2.2,60.00502842212357,2025-11-08 17h23.24.948456 +0530,
,Objects\134a.jpg,12,0,12,,,,,j,1.0383961999978055,0.12702730000091833,None,,,,,,,12,0,12,0,156.72631529999853,,,,,,,,,,,,,,,,,,,,,,,,,,,,,,156.70979779999834,156.72631529999853,,157.2097646000002,,,,,,,,,,,,,,,,,,,,,,157.22500809999838,157.24296870000035,157.24296870000035,157.24296870000035,160.22630099999878,j,1.0383961999978055,0.12702730000091833,160.22633570000107,160.22634459999972,None,,,,,,,,,,,,,,,,,00016,001,2025-11-08_17h23.18.303,MST_task,2024.2.2,60.00502842212357,2025-11-08 17h23.24.948456 +0530,
,Objects\089a.jpg,13,0,13,,,,,j,1.0481422999982897,0.13414860000193585,None,,,,,,,13,0,13,0,160.2429701000001,,,,,,,,,,,,,,,,,,,,,,,,,,,,,,160.226455,160.2429701000001,160.75954840000122,160.7264529999993,,,,,,,,,,,,,,,,,,,,,,160.74213560000135,160.75954840000122,160.75954840000122,160.75954840000122,163.74283939999805,j,1.0481422999982897,0.13414860000193585,163.74287579999873,163.742886,None,,,,,,,,,,,,,,,,,00016,001,2025-11-08_17h23.18.303,MST_task,2024.2.2,60.00502842212357,2025-11-08 17h23.24.948456 +0530,
,Scenes\174a.jpg,14,0,14,,,,,j,1.4622836000016832,0.1185814999989816,None,,,,,,,14,0,14,0,163.7595321000008,,,,,,,,,,,,,,,,,,,,,,,,,,,,,,163.7429704999995,163.7595321000008,164.27615409999999,164.24301149999883,,,,,,,,,,,,,,,,,,,,,,164.26310540000122,164.27615409999999,164.27615409999999,164.27615409999999,167.25942840000062,j,1.4622836000016832,0.1185814999989816,167.26053740000134,167.26054799999838,None,,,,,,,,,,,,,,,,,00016,001,2025-11-08_17h23.18.303,MST_task,2024.2.2,60.00502842212357,2025-11-08 17h23.24.948456 +0530,
,Scenes\165a.jpg,15,0,15,,,,,f,1.6499513999988267,0.1383574999999837,None,,,,,,,15,0,15,0,167.2760902000009,,,,,,,,,,,,,,,,,,,,,,,,,,,,,,167.2606037000005,167.2760902000009,167.79279150000002,167.75954529999944,,,,,,,,,,,,,,,,,,,,,,167.77311499999996,167.79279150000002,167.79279150000002,167.79279150000002,170.77603929999896,f,1.6499513999988267,0.1383574999999837,170.77607409999837,170.77608419999888,None,,,,,,,,,,,,,,,,,00016,001,2025-11-08_17h23.18.303,MST_task,2024.2.2,60.00502842212357,2025-11-08 17h23.24.948456 +0530,
,Scenes\110a.jpg,16,0,16,,,,,j,0.9820200999965891,0.13830290000259993,None,,,,,,,16,0,16,0,170.79270650000035,,,,,,,,,,,,,,,,,,,,,,,,,,,,,,170.77614249999897,170.79270650000035,171.30949260000125,171.2761692999993,,,,,,,,,,,,,,,,,,,,,,171.29347779999807,171.30949260000125,171.30949260000125,171.30949260000125,174.2926230999983,j,0.9820200999965891,0.13830290000259993,174.29265840000153,174.29266799999823,None,,,,,,,,,,,,,,,,,00016,001,2025-11-08_17h23.18.303,MST_task,2024.2.2,60.00502842212357,2025-11-08 17h23.24.948456 +0530,
,Scenes\017a.jpg,17,0,17,,,,,f,0.9978329999976268,0.13831579999896348,None,,,,,,,17,0,17,0,174.30946720000065,,,,,,,,,,,,,,,,,,,,,,,,,,,,,,174.2927521999991,174.30946720000065,174.8262235000002,174.79273990000002,,,,,,,,,,,,,,,,,,,,,,174.81322139999975,174.8262235000002,174.8262235000002,174.8262235000002,177.80922099999952,f,0.9978329999976268,0.13831579999896348,177.80925389999902,177.80926370000088,None,,,,,,,,,,,,,,,,,00016,001,2025-11-08_17h23.18.303,MST_task,2024.2.2,60.00502842212357,2025-11-08 17h23.24.948456 +0530,
,Scenes\191a.jpg,18,0,18,,,,,j,1.686161900001025,0.1260812000000442,None,,,,,,,18,0,18,0,177.82583019999947,,,,,,,,,,,,,,,,,,,,,,,,,,,,,,177.8093454000009,177.82583019999947,178.3594277000011,178.30934920000072,,,,,,,,,,,,,,,,,,,,,,178.34115979999842,178.3594277000011,178.3594277000011,178.3594277000011,181.32584779999888,j,1.686161900001025,0.1260812000000442,181.3258824000004,181.32589279999956,None,,,,,,,,,,,,,,,,,00016,001,2025-11-08_17h23.18.303,MST_task,2024.2.2,60.00502842212357,2025-11-08 17h23.24.948456 +0530,
,Scenes\080a.jpg,19,0,19,,,,,j,1.0083058000018355,0.1298386999987997,None,,,,,,,19,0,19,0,181.34242109999832,,,,,,,,,,,,,,,,,,,,,,,,,,,,,,181.32595120000042,181.34242109999832,181.85936070000025,181.8261003000007,,,,,,,,,,,,,,,,,,,,,,181.8442458999998,181.85936070000025,181.85936070000025,181.85936070000025,184.84239929999967,j,1.0083058000018355,0.1298386999987997,184.84243219999917,184.84244190000027,None,,,,,,,,,,,,,,,,,00016,001,2025-11-08_17h23.18.303,MST_task,2024.2.2,60.00502842212357,2025-11-08 17h23.24.948456 +0530,
,Scenes\012a.jpg,20,0,20,,,,,j,1.0215271999986726,0.1240155000014056,None,,,,,,,20,0,20,0,184.85903569999937,,,,,,,,,,,,,,,,,,,,,,,,,,,,,,184.84252579999884,184.85903569999937,185.39228119999825,185.3424793000013,,,,,,,,,,,,,,,,,,,,,,185.3796427999987,185.39228119999825,185.39228119999825,185.39228119999825,188.3425591999985,j,1.0215271999986726,0.1240155000014056,188.34262269999817,188.34263329999885,None,,,,,,,,,,,,,,,,,00016,001,2025-11-08_17h23.18.303,MST_task,2024.2.2,60.00502842212357,2025-11-08 17h23.24.948456 +0530,
,Objects\123a.jpg,21,0,21,,,,,f,1.1541720000022906,0.12751009999919916,None,,,,,,,21,0,21,0,188.3588845000013,,,,,,,,,,,,,,,,,,,,,,,,,,,,,,188.34272259999852,188.3588845000013,188.87589640000078,188.84233740000127,,,,,,,,,,,,,,,,,,,,,,188.8601340999994,188.87589640000078,188.87589640000078,188.87589640000078,191.85894019999978,f,1.1541720000022906,0.12751009999919916,191.86042520000046,191.8604372000009,None,,,,,,,,,,,,,,,,,00016,001,2025-11-08_17h23.18.303,MST_task,2024.2.2,60.00502842212357,2025-11-08 17h23.24.948456 +0530,
,Objects\120a.jpg,22,0,22,,,,,f,1.0213665000010224,0.11807910000061383,None,,,,,,,22,0,22,0,191.87557759999981,,,,,,,,,,,,,,,,,,,,,,,,,,,,,,191.8604966999992,191.87557759999981,192.3922007000001,192.35907329999827,,,,,,,,,,,,,,,,,,,,,,192.37472699999853,192.3922007000001,192.3922007000001,192.3922007000001,195.37555390000125,f,1.0213665000010224,0.11807910000061383,195.37558880000142,195.375598300001,None,,,,,,,,,,,,,,,,,00016,001,2025-11-08_17h23.18.303,MST_task,2024.2.2,60.00502842212357,2025-11-08 17h23.24.948456 +0530,
,Objects\066a.jpg,23,0,23,,,,,f,1.7408924999981537,0.10443690000101924,None,,,,,,,23,0,23,0,195.39219089999824,,,,,,,,,,,,,,,,,,,,,,,,,,,,,,195.3756547999983,195.39219089999824,195.90882430000056,195.87563679999948,,,,,,,,,,,,,,,,,,,,,,195.89532179999878,195.90882430000056,195.90882430000056,195.90882430000056,198.89212459999908,f,1.7408924999981537,0.10443690000101924,198.8921596,198.89217009999993,None,,,,,,,,,,,,,,,,,00016,001,2025-11-08_17h23.18.303,MST_task,2024.2.2,60.00502842212357,2025-11-08 17h23.24.948456 +0530,
,Objects\186a.jpg,24,0,24,,,,,f,1.5766784999977972,0.12759310000183177,None,,,,,,,24,0,24,0,198.90875669999878,,,,,,,,,,,,,,,,,,,,,,,,,,,,,,198.89222710000104,198.90875669999878,,199.39220690000002,,,,,,,,,,,,,,,,,,,,,,199.40744640000048,199.4253443000016,199.4253443000016,199.4253443000016,202.40870820000055,f,1.5766784999977972,0.12759310000183177,202.40874410000106,202.4087526000003,None,,,,,,,,,,,,,,,,,00016,001,2025-11-08_17h23.18.303,MST_task,2024.2.2,60.00502842212357,2025-11-08 17h23.24.948456 +0530,
,Objects\053a.jpg,25,0,25,,,,,f,0.8168097999987367,0.1338818000003812,None,,,,,,,25,0,25,0,202.42533700000058,,,,,,,,,,,,,,,,,,,,,,,,,,,,,,202.40880670000115,202.42533700000058,202.941795499999,202.90889909999896,,,,,,,,,,,,,,,,,,,,,,202.93800660000124,202.941795499999,202.941795499999,202.941795499999,205.92524599999888,f,0.8168097999987367,0.1338818000003812,205.925284500001,205.92529439999998,None,,,,,,,,,,,,,,,,,00016,001,2025-11-08_17h23.18.303,MST_task,2024.2.2,60.00502842212357,2025-11-08 17h23.24.948456 +0530,
,Objects\027a.jpg,26,0,26,,,,,None,,,j,0.12324159999843687,None,,,,,26,0,26,0,205.94190479999816,,,,,,,,,,,,,,,,,,,,,,,,,,,,,,205.92538810000042,205.94190479999816,206.45859969999947,206.42555720000018,,,,,,,,,,,,,,,,,,,,,,206.44103059999907,206.45859969999947,206.45859969999947,206.45859969999947,209.44183909999992,None,,,209.44187039999815,209.59208890000082,j,209.45853640000132,209.45853640000132,0.12324159999843687,None,,,,,,,,,,,,,00016,001,2025-11-08_17h23.18.303,MST_task,2024.2.2,60.00502842212357,2025-11-08 17h23.24.948456 +0530,
,Objects\043a.jpg,27,0,27,,,,,f,2.1884112999978242,0.11210980000032578,None,,,,,,,27,0,27,0,209.60848909999913,,,,,,,,,,,,,,,,,,,,,,,,,,,,,,209.5921589999998,209.60848909999913,210.12518229999841,210.091958099998,,,,,,,,,,,,,,,,,,,,,,210.10704130000158,210.12518229999841,210.12518229999841,210.12518229999841,213.10849289999896,f,2.1884112999978242,0.11210980000032578,213.1085310999988,213.10854130000007,None,,,,,,,,,,,,,,,,,00016,001,2025-11-08_17h23.18.303,MST_task,2024.2.2,60.00502842212357,2025-11-08 17h23.24.948456 +0530,
,Scenes\088a.jpg,28,0,28,,,,,j,1.577937900001416,0.10016439999890281,None,,,,,,,28,0,28,0,213.12511440000162,,,,,,,,,,,,,,,,,,,,,,,,,,,,,,213.10860550000143,213.12511440000162,213.64193259999956,213.60852689999956,,,,,,,,,,,,,,,,,,,,,,213.6322129,213.64193259999956,213.64193259999956,213.64193259999956,216.62491690000024,j,1.577937900001416,0.10016439999890281,216.6260110000003,216.62602269999843,None,,,,,,,,,,,,,,,,,00016,001,2025-11-08_17h23.18.303,MST_task,2024.2.2,60.00502842212357,2025-11-08 17h23.24.948456 +0530,
,Scenes\176a.jpg,29,0,29,,,,,j,0.9155680000003485,0.11388450000231387,None,,,,,,,29,0,29,0,216.64155670000036,,,,,,,,,,,,,,,,,,,,,,,,,,,,,,216.62611019999895,216.64155670000036,217.1584862999989,217.1251212999996,,,,,,,,,,,,,,,,,,,,,,217.14451439999903,217.1584862999989,217.1584862999989,217.1584862999989,220.14167029999953,j,0.9155680000003485,0.11388450000231387,220.1417067000002,220.14171690000148,None,,,,,,,,,,,,,,,,,00016,001,2025-11-08_17h23.18.303,MST_task,2024.2.2,60.00502842212357,2025-11-08 17h23.24.948456 +0530,
,Scenes\141a.jpg,30,0,30,,,,,j,1.1191313000017544,0.1324213999978383,None,,,,,,,30,0,30,0,220.15816669999913,,,,,,,,,,,,,,,,,,,,,,,,,,,,,,220.14178449999963,220.15816669999913,220.67483659999925,220.64177339999878,,,,,,,,,,,,,,,,,,,,,,220.65749159999905,220.67483659999925,220.67483659999925,220.67483659999925,223.6581316999982,j,1.1191313000017544,0.1324213999978383,223.6581698000009,223.65817949999837,None,,,,,,,,,,,,,,,,,00016,001,2025-11-08_17h23.18.303,MST_task,2024.2.2,60.00502842212357,2025-11-08 17h23.24.948456 +0530,
,Scenes\020a.jpg,31,0,31,,,,,f,1.271734000001743,0.12075729999924079,None,,,,,,,31,0,31,0,223.67476349999924,,,,,,,,,,,,,,,,,,,,,,,,,,,,,,223.6582641999994,223.67476349999924,224.19169970000075,224.15832629999932,,,,,,,,,,,,,,,,,,,,,,224.1801334999982,224.19169970000075,224.19169970000075,224.19169970000075,227.17482689999815,f,1.271734000001743,0.12075729999924079,227.17486289999943,227.1748731000007,None,,,,,,,,,,,,,,,,,00016,001,2025-11-08_17h23.18.303,MST_task,2024.2.2,60.00502842212357,2025-11-08 17h23.24.948456 +0530,
,Scenes\023a.jpg,32,0,32,,,,,f,1.4230514999981096,0.11846300000252086,None,,,,,,,32,0,32,0,227.19134739999936,,,,,,,,,,,,,,,,,,,,,,,,,,,,,,227.17496889999893,227.19134739999936,227.7086328000005,227.67489059999934,,,,,,,,,,,,,,,,,,,,,,227.69765929999994,227.7086328000005,227.7086328000005,227.7086328000005,230.6913526999997,f,1.4230514999981096,0.11846300000252086,230.69140999999945,230.69142099999954,None,,,,,,,,,,,,,,,,,00016,001,2025-11-08_17h23.18.303,MST_task,2024.2.2,60.00502842212357,2025-11-08 17h23.24.948456 +0530,
,Scenes\016a.jpg,33,0,33,,,,,j,0.9093396999996912,0.10366970000177389,None,,,,,,,33,0,33,0,230.7079206999988,,,,,,,,,,,,,,,,,,,,,,,,,,,,,,230.6915411000009,230.7079206999988,231.22485940000115,231.19146550000005,,,,,,,,,,,,,,,,,,,,,,231.2079604999999,231.22485940000115,231.22485940000115,231.22485940000115,234.20789510000031,j,0.9093396999996912,0.10366970000177389,234.20792979999896,234.2079393999993,None,,,,,,,,,,,,,,,,,00016,001,2025-11-08_17h23.18.303,MST_task,2024.2.2,60.00502842212357,2025-11-08 17h23.24.948456 +0530,
,Scenes\086a.jpg,34,0,34,,,,,j,0.8844018000017968,0.11824440000054892,None,,,,,,,34,0,34,0,234.22449480000068,,,,,,,,,,,,,,,,,,,,,,,,,,,,,,234.20803800000067,234.22449480000068,234.74119449999853,234.7080547000005,,,,,,,,,,,,,,,,,,,,,,234.72783100000015,234.74119449999853,234.74119449999853,234.74119449999853,237.7244740999995,j,0.8844018000017968,0.11824440000054892,237.7245116999984,237.72452219999832,None,,,,,,,,,,,,,,,,,00016,001,2025-11-08_17h23.18.303,MST_task,2024.2.2,60.00502842212357,2025-11-08 17h23.24.948456 +0530,
,Objects\103a.jpg,35,0,35,,,,,j,1.7912099999994098,0.11439999999856809,None,,,,,,,35,0,35,0,237.74115009999878,,,,,,,,,,,,,,,,,,,,,,,,,,,,,,237.724580099999,237.74115009999878,238.25821219999852,238.22457999999824,,,,,,,,,,,,,,,,,,,,,,238.24217969999881,238.25821219999852,238.25821219999852,238.25821219999852,241.2411733000008,j,1.7912099999994098,0.11439999999856809,241.24269360000108,241.24270539999998,None,,,,,,,,,,,,,,,,,00016,001,2025-11-08_17h23.18.303,MST_task,2024.2.2,60.00502842212357,2025-11-08 17h23.24.948456 +0530,
,Objects\147a.jpg,36,0,36,,,,,j,1.625165500001458,0.1283079999993788,None,,,,,,,36,0,36,0,241.25770919999923,,,,,,,,,,,,,,,,,,,,,,,,,,,,,,241.2427945999989,241.25770919999923,241.7743303999996,241.74127579999913,,,,,,,,,,,,,,,,,,,,,,241.76002209999933,241.7743303999996,241.7743303999996,241.7743303999996,244.7577710000005,j,1.625165500001458,0.1283079999993788,244.75780400000076,244.7578140000005,None,,,,,,,,,,,,,,,,,00016,001,2025-11-08_17h23.18.303,MST_task,2024.2.2,60.00502842212357,2025-11-08 17h23.24.948456 +0530,
,Objects\086a.jpg,37,0,37,,,,,j,1.886642599998595,0.14806290000342415,None,,,,,,,37,0,37,0,244.77442579999843,,,,,,,,,,,,,,,,,,,,,,,,,,,,,,244.75787169999967,244.77442579999843,245.29107039999872,245.25791649999883,,,,,,,,,,,,,,,,,,,,,,245.2744988000013,245.29107039999872,245.29107039999872,245.29107039999872,248.27439420000155,j,1.886642599998595,0.14806290000342415,248.27443140000105,248.27444150000156,None,,,,,,,,,,,,,,,,,00016,001,2025-11-08_17h23.18.303,MST_task,2024.2.2,60.00502842212357,2025-11-08 17h23.24.948456 +0530,
,Objects\072a.jpg,38,0,38,,,,,f,0.9704227999973227,0.149483400000463,None,,,,,,,38,0,38,0,248.29107179999846,,,,,,,,,,,,,,,,,,,,,,,,,,,,,,248.27453099999912,248.29107179999846,248.80767840000044,248.77448379999987,,,,,,,,,,,,,,,,,,,,,,248.78977049999958,248.80767840000044,248.80767840000044,248.80767840000044,251.79099099999803,f,0.9704227999973227,0.149483400000463,251.79103150000083,251.7910422999994,None,,,,,,,,,,,,,,,,,00016,001,2025-11-08_17h23.18.303,MST_task,2024.2.2,60.00502842212357,2025-11-08 17h23.24.948456 +0530,
,Objects\031a.jpg,39,0,39,,,,,j,0.9458098000031896,0.12687969999751658,None,,,,,,,39,0,39,0,251.80761110000094,,,,,,,,,,,,,,,,,,,,,,,,,,,,,,251.79110130000117,251.80761110000094,252.32424669999818,252.2910832000016,,,,,,,,,,,,,,,,,,,,,,252.30651819999912,252.32424669999818,252.32424669999818,252.32424669999818,255.30748790000143,j,0.9458098000031896,0.12687969999751658,255.30752539999958,255.3075358999995,None,,,,,,,,,,,,,,,,,00016,001,2025-11-08_17h23.18.303,MST_task,2024.2.2,60.00502842212357,2025-11-08 17h23.24.948456 +0530,
,Objects\005a.jpg,40,0,40,,,,,f,1.107621699997253,0.1100259000013466,None,,,,,,,40,0,40,0,255.32418959999995,,,,,,,,,,,,,,,,,,,,,,,,,,,,,,255.30762139999933,255.32418959999995,255.84084369999982,255.80767510000078,,,,,,,,,,,,,,,,,,,,,,255.82346730000063,255.84084369999982,255.84084369999982,255.84084369999982,258.82408289999876,f,1.107621699997253,0.1100259000013466,258.8241152999981,258.8241256000001,None,,,,,,,,,,,,,,,,,00016,001,2025-11-08_17h23.18.303,MST_task,2024.2.2,60.00502842212357,2025-11-08 17h23.24.948456 +0530,
,Objects\184a.jpg,41,0,41,,,,,j,1.0825891999993473,0.11797759999899426,None,,,,,,,41,0,41,0,258.84077030000117,,,,,,,,,,,,,,,,,,,,,,,,,,,,,,258.82421220000106,258.84077030000117,259.35737660000086,259.3243255000016,,,,,,,,,,,,,,,,,,,,,,259.35102650000044,259.35737660000086,259.35737660000086,259.35737660000086,262.340705300001,j,1.0825891999993473,0.11797759999899426,262.3407397999981,262.3407496,None,,,,,,,,,,,,,,,,,00016,001,2025-11-08_17h23.18.303,MST_task,2024.2.2,60.00502842212357,2025-11-08 17h23.24.948456 +0530,
,Scenes\113a.jpg,42,0,42,,,,,j,1.0210583000007318,0.14601150000089547,None,,,,,,,42,0,42,0,262.3573084999989,,,,,,,,,,,,,,,,,,,,,,,,,,,,,,262.3408401000015,262.3573084999989,262.8907493000006,262.84080099999846,,,,,,,,,,,,,,,,,,,,,,262.8706846999994,262.8907493000006,262.8907493000006,262.8907493000006,265.8573365000011,j,1.0210583000007318,0.14601150000089547,265.8586632000006,265.85867430000144,None,,,,,,,,,,,,,,,,,00016,001,2025-11-08_17h23.18.303,MST_task,2024.2.2,60.00502842212357,2025-11-08 17h23.24.948456 +0530,
,Scenes\077a.jpg,43,0,43,,,,,j,1.7615847999986727,0.13129449999905773,None,,,,,,,43,0,43,0,265.873896699999,,,,,,,,,,,,,,,,,,,,,,,,,,,,,,265.85877840000103,265.873896699999,266.390544599999,266.35747249999986,,,,,,,,,,,,,,,,,,,,,,266.37457559999893,266.390544599999,266.390544599999,266.390544599999,269.37385970000105,j,1.7615847999986727,0.13129449999905773,269.3738931000007,269.3739027999982,None,,,,,,,,,,,,,,,,,00016,001,2025-11-08_17h23.18.303,MST_task,2024.2.2,60.00502842212357,2025-11-08 17h23.24.948456 +0530,
,Scenes\155a.jpg,44,0,44,,,,,j,1.9628579999989597,0.12154809999992722,None,,,,,,,44,0,44,0,269.39055799999915,,,,,,,,,,,,,,,,,,,,,,,,,,,,,,269.37395919999835,269.39055799999915,269.9071416000006,269.8739796000009,,,,,,,,,,,,,,,,,,,,,,269.8919849999984,269.9071416000006,269.9071416000006,269.9071416000006,272.89049259999956,j,1.9628579999989597,0.12154809999992722,272.89052470000024,272.89053499999864,None,,,,,,,,,,,,,,,,,00016,001,2025-11-08_17h23.18.303,MST_task,2024.2.2,60.00502842212357,2025-11-08 17h23.24.948456 +0530,
,Scenes\071a.jpg,45,0,45,,,,,j,1.260281800001394,0.10584799999924144,None,,,,,,,45,0,45,0,272.9070520999994,,,,,,,,,,,,,,,,,,,,,,,,,,,,,,272.8906422,272.9070520999994,273.4239874999985,273.3905964000005,,,,,,,,,,,,,,,,,,,,,,273.40832410000075,273.4239874999985,273.4239874999985,273.4239874999985,276.4070986000006,j,1.260281800001394,0.10584799999924144,276.4071331999985,276.407143299999,None,,,,,,,,,,,,,,,,,00016,001,2025-11-08_17h23.18.303,MST_task,2024.2.2,60.00502842212357,2025-11-08 17h23.24.948456 +0530,
,Scenes\069a.jpg,46,0,46,,,,,j,0.9492122999981802,0.12400500000148895,None,,,,,,,46,0,46,0,276.4237272999999,,,,,,,,,,,,,,,,,,,,,,,,,,,,,,276.4072000999986,276.4237272999999,276.9403791000004,276.9071494999989,,,,,,,,,,,,,,,,,,,,,,276.92189959999814,276.9403791000004,276.9403791000004,276.9403791000004,279.9236931999985,j,0.9492122999981802,0.12400500000148895,279.92372780000005,279.92373729999963,None,,,,,,,,,,,,,,,,,00016,001,2025-11-08_17h23.18.303,MST_task,2024.2.2,60.00502842212357,2025-11-08 17h23.24.948456 +0530,
,Scenes\179a.jpg,47,0,47,,,,,j,0.8500679999997374,0.12886019999859855,None,,,,,,,47,0,47,0,279.9403179000001,,,,,,,,,,,,,,,,,,,,,,,,,,,,,,279.92381899999964,279.9403179000001,280.45691499999884,280.4237358999999,,,,,,,,,,,,,,,,,,,,,,280.43888940000033,280.45691499999884,280.45691499999884,280.45691499999884,283.44020869999804,j,0.8500679999997374,0.12886019999859855,283.4402430000009,283.44025239999974,None,,,,,,,,,,,,,,,,,00016,001,2025-11-08_17h23.18.303,MST_task,2024.2.2,60.00502842212357,2025-11-08 17h23.24.948456 +0530,
,Scenes\054a.jpg,48,0,48,,,,,j,0.8164399999986927,0.13764900000023772,None,,,,,,,48,0,48,0,283.45691029999944,,,,,,,,,,,,,,,,,,,,,,,,,,,,,,283.4403338999982,283.45691029999944,283.9901850999995,283.9403517999999,,,,,,,,,,,,,,,,,,,,,,283.96711009999854,283.9901850999995,283.9901850999995,283.9901850999995,286.9567973000012,j,0.8164399999986927,0.13764900000023772,286.95683129999816,286.9568404999991,None,,,,,,,,,,,,,,,,,00016,001,2025-11-08_17h23.18.303,MST_task,2024.2.2,60.00502842212357,2025-11-08 17h23.24.948456 +0530,
,Objects\017a.jpg,49,0,49,,,,,f,1.9368751000001794,0.1351372999997693,None,,,,,,,49,0,49,0,286.9734858999982,,,,,,,,,,,,,,,,,,,,,,,,,,,,,,286.95694789999834,286.9734858999982,287.5070452,287.4569741000014,,,,,,,,,,,,,,,,,,,,,,287.4879269999983,287.5070452,287.5070452,287.5070452,290.4734079000009,f,1.9368751000001794,0.1351372999997693,290.4749125999988,290.4749233000002,None,,,,,,,,,,,,,,,,,00016,001,2025-11-08_17h23.18.303,MST_task,2024.2.2,60.00502842212357,2025-11-08 17h23.24.948456 +0530,
,Objects\004a.jpg,50,0,50,,,,,j,2.331420899998193,0.1464218000000983,None,,,,,,,50,0,50,0,290.49009099999967,,,,,,,,,,,,,,,,,,,,,,,,,,,,,,290.4749774000011,290.49009099999967,291.0066775000014,290.97356610000134,,,,,,,,,,,,,,,,,,,,,,290.9994622000013,291.0066775000014,291.0066775000014,291.0066775000014,293.98998239999855,j,2.331420899998193,0.1464218000000983,293.9900162999984,293.9900259999995,None,,,,,,,,,,,,,,,,,00016,001,2025-11-08_17h23.18.303,MST_task,2024.2.2,60.00502842212357,2025-11-08 17h23.24.948456 +0530,
,Objects\163a.jpg,51,0,51,,,,,j,1.332284799998888,0.12069139999948675,None,,,,,,,51,0,51,0,294.00660739999876,,,,,,,,,,,,,,,,,,,,,,,,,,,,,,293.99008239999966,294.00660739999876,294.52325890000066,294.49014890000035,,,,,,,,,,,,,,,,,,,,,,294.5184384999993,294.52325890000066,294.52325890000066,294.52325890000066,297.50666700000147,j,1.332284799998888,0.12069139999948675,297.50670510000054,297.5067151000003,None,,,,,,,,,,,,,,,,,00016,001,2025-11-08_17h23.18.303,MST_task,2024.2.2,60.00502842212357,2025-11-08 17h23.24.948456 +0530,
,Objects\114a.jpg,52,0,52,,,,,f,1.0538040999999794,0.12427430000025197,None,,,,,,,52,0,52,0,297.5231954999981,,,,,,,,,,,,,,,,,,,,,,,,,,,,,,297.5067697000013,297.5231954999981,298.03985470000043,298.00671489999877,,,,,,,,,,,,,,,,,,,,,,298.0222818000002,298.03985470000043,298.03985470000043,298.03985470000043,301.0231634999982,f,1.0538040999999794,0.12427430000025197,301.02319780000107,301.0232078000008,None,,,,,,,,,,,,,,,,,00016,001,2025-11-08_17h23.18.303,MST_task,2024.2.2,60.00502842212357,2025-11-08 17h23.24.948456 +0530,
,Objects\037a.jpg,53,0,53,,,,,f,1.09513220000008,0.13024050000240095,None,,,,,,,53,0,53,0,301.0398392999996,,,,,,,,,,,,,,,,,,,,,,,,,,,,,,301.02329029999964,301.0398392999996,301.5564649000007,301.5234586000006,,,,,,,,,,,,,,,,,,,,,,301.5513979999996,301.5564649000007,301.5564649000007,301.5564649000007,304.53967829999965,f,1.09513220000008,0.13024050000240095,304.53971359999923,304.53972440000143,None,,,,,,,,,,,,,,,,,00016,001,2025-11-08_17h23.18.303,MST_task,2024.2.2,60.00502842212357,2025-11-08 17h23.24.948456 +0530,
,Objects\146a.jpg,54,0,54,,,,,j,1.3331515000027139,0.15925289999722736,None,,,,,,,54,0,54,0,304.55631580000045,,,,,,,,,,,,,,,,,,,,,,,,,,,,,,304.5398128000015,304.55631580000045,305.0729676999981,305.0397938999995,,,,,,,,,,,,,,,,,,,,,,305.0581988999984,305.0729676999981,305.0729676999981,305.0729676999981,308.0563594999985,j,1.3331515000027139,0.15925289999722736,308.0563957999984,308.05640589999894,None,,,,,,,,,,,,,,,,,00016,001,2025-11-08_17h23.18.303,MST_task,2024.2.2,60.00502842212357,2025-11-08 17h23.24.948456 +0530,
,Objects\064a.jpg,55,0,55,,,,,f,1.0843720000011672,0.15154699999766308,None,,,,,,,55,0,55,0,308.0729767999983,,,,,,,,,,,,,,,,,,,,,,,,,,,,,,308.05646409999827,308.0729767999983,308.5896439999997,308.55638610000096,,,,,,,,,,,,,,,,,,,,,,308.5733145999984,308.5896439999997,308.5896439999997,308.5896439999997,311.572883599998,f,1.0843720000011672,0.15154699999766308,311.57292120000056,311.5729312000003,None,,,,,,,,,,,,,,,,,00016,001,2025-11-08_17h23.18.303,MST_task,2024.2.2,60.00502842212357,2025-11-08 17h23.24.948456 +0530,
,Scenes\182a.jpg,56,0,56,,,,,j,1.4475967999969725,0.14214950000314275,None,,,,,,,56,0,56,0,311.5894984000006,,,,,,,,,,,,,,,,,,,,,,,,,,,,,,311.5730549,311.5894984000006,312.10615889999826,312.07305239999914,,,,,,,,,,,,,,,,,,,,,,312.09097779999865,312.10615889999826,312.10615889999826,312.10615889999826,315.089519000001,j,1.4475967999969725,0.14214950000314275,315.090666600001,315.0906776000011,None,,,,,,,,,,,,,,,,,00016,001,2025-11-08_17h23.18.303,MST_task,2024.2.2,60.00502842212357,2025-11-08 17h23.24.948456 +0530,
,Scenes\008a.jpg,57,0,57,,,,,f,1.1141872000007425,0.13775449999957345,None,,,,,,,57,0,57,0,315.10607159999927,,,,,,,,,,,,,,,,,,,,,,,,,,,,,,315.0907367,315.10607159999927,315.6396433000009,315.58965739999985,,,,,,,,,,,,,,,,,,,,,,315.61724049999975,315.6396433000009,315.6396433000009,315.6396433000009,318.6060848999987,f,1.1141872000007425,0.13775449999957345,318.60612440000114,318.60613659999945,None,,,,,,,,,,,,,,,,,00016,001,2025-11-08_17h23.18.303,MST_task,2024.2.2,60.00502842212357,2025-11-08 17h23.24.948456 +0530,
,Scenes\037a.jpg,58,0,58,,,,,j,1.1747202999977162,0.1156702000007499,None,,,,,,,58,0,58,0,318.6226781000005,,,,,,,,,,,,,,,,,,,,,,,,,,,,,,318.60619999999835,318.6226781000005,319.13957369999844,319.1062525000016,,,,,,,,,,,,,,,,,,,,,,319.1256493000001,319.13957369999844,319.13957369999844,319.13957369999844,322.12271709999914,j,1.1747202999977162,0.1156702000007499,322.1227524999995,322.1227622000006,None,,,,,,,,,,,,,,,,,00016,001,2025-11-08_17h23.18.303,MST_task,2024.2.2,60.00502842212357,2025-11-08 17h23.24.948456 +0530,
,Scenes\074a.jpg,59,0,59,,,,,j,1.621400600000925,0.1266310999999405,None,,,,,,,59,0,59,0,322.13928379999925,,,,,,,,,,,,,,,,,,,,,,,,,,,,,,322.12281639999856,322.13928379999925,322.65609570000015,322.62273840000125,,,,,,,,,,,,,,,,,,,,,,322.6403973999986,322.65609570000015,322.65609570000015,322.65609570000015,325.6392331999996,j,1.621400600000925,0.1266310999999405,325.6392678000011,325.6392777000001,None,,,,,,,,,,,,,,,,,00016,001,2025-11-08_17h23.18.303,MST_task,2024.2.2,60.00502842212357,2025-11-08 17h23.24.948456 +0530,
,Scenes\163a.jpg,60,0,60,,,,,j,1.2112756999995327,0.11454249999951571,None,,,,,,,60,0,60,0,325.6558131999991,,,,,,,,,,,,,,,,,,,,,,,,,,,,,,325.63936159999867,325.6558131999991,326.1724744999992,326.1393167999995,,,,,,,,,,,,,,,,,,,,,,326.154696900001,326.1724744999992,326.1724744999992,326.1724744999992,329.1558416000007,j,1.2112756999995327,0.11454249999951571,329.15587669999877,329.1558862999991,None,,,,,,,,,,,,,,,,,00016,001,2025-11-08_17h23.18.303,MST_task,2024.2.2,60.00502842212357,2025-11-08 17h23.24.948456 +0530,
,Scenes\059a.jpg,61,0,61,,,,,j,0.8231779999987339,0.14198670000041602,None,,,,,,,61,0,61,0,329.1724003999989,,,,,,,,,,,,,,,,,,,,,,,,,,,,,,329.1559727999993,329.1724003999989,329.68909939999867,329.6560414000014,,,,,,,,,,,,,,,,,,,,,,329.6760663999994,329.68909939999867,329.68909939999867,329.68909939999867,332.67240709999896,j,0.8231779999987339,0.14198670000041602,332.6724730999995,332.67248389999804,None,,,,,,,,,,,,,,,,,00016,001,2025-11-08_17h23.18.303,MST_task,2024.2.2,60.00502842212357,2025-11-08 17h23.24.948456 +0530,
,Scenes\093a.jpg,62,0,62,,,,,f,0.9328253000021505,0.10760839999784366,None,,,,,,,62,0,62,0,332.6890367999986,,,,,,,,,,,,,,,,,,,,,,,,,,,,,,332.67257659999814,332.6890367999986,333.2056487000009,333.17249900000024,,,,,,,,,,,,,,,,,,,,,,333.19108979999874,333.2056487000009,333.2056487000009,333.2056487000009,336.1889755000011,f,0.9328253000021505,0.10760839999784366,336.18902869999874,336.1890389,None,,,,,,,,,,,,,,,,,00016,001,2025-11-08_17h23.18.303,MST_task,2024.2.2,60.00502842212357,2025-11-08 17h23.24.948456 +0530,
,Objects\099a.jpg,63,0,63,,,,,f,1.583395699999528,0.13468959999954677,None,,,,,,,63,0,63,0,336.2056155999999,,,,,,,,,,,,,,,,,,,,,,,,,,,,,,336.1891297000002,336.2056155999999,336.7222425,336.68910459999825,,,,,,,,,,,,,,,,,,,,,,336.70667649999814,336.7222425,336.7222425,336.7222425,339.7055833000013,f,1.583395699999528,0.13468959999954677,339.70725630000015,339.70726790000117,None,,,,,,,,,,,,,,,,,00016,001,2025-11-08_17h23.18.303,MST_task,2024.2.2,60.00502842212357,2025-11-08 17h23.24.948456 +0530,
,Objects\145a.jpg,64,0,64,,,,,f,0.8128357999994478,0.14031120000072406,None,,,,,,,64,0,64,0,339.72217380000075,,,,,,,,,,,,,,,,,,,,,,,,,,,,,,339.70732549999957,339.72217380000075,340.23883080000087,340.20575520000057,,,,,,,,,,,,,,,,,,,,,,340.2216780999988,340.23883080000087,340.23883080000087,340.23883080000087,343.22229890000017,f,0.8128357999994478,0.14031120000072406,343.2223371,343.22234749999916,None,,,,,,,,,,,,,,,,,00016,001,2025-11-08_17h23.18.303,MST_task,2024.2.2,60.00502842212357,2025-11-08 17h23.24.948456 +0530,
,Objects\162a.jpg,65,0,65,,,,,f,1.1763132000014593,0.14649439999993774,None,,,,,,,65,0,65,0,343.2388003999986,,,,,,,,,,,,,,,,,,,,,,,,,,,,,,343.2224348999989,343.2388003999986,343.75545449999845,343.72236509999857,,,,,,,,,,,,,,,,,,,,,,343.7382144000003,343.75545449999845,343.75545449999845,343.75545449999845,346.73887319999994,f,1.1763132000014593,0.14649439999993774,346.738911299999,346.73892120000164,None,,,,,,,,,,,,,,,,,00016,001,2025-11-08_17h23.18.303,MST_task,2024.2.2,60.00502842212357,2025-11-08 17h23.24.948456 +0530,
,Objects\129a.jpg,66,0,66,,,,,f,1.1603317000008246,0.1230875000001106,None,,,,,,,66,0,66,0,346.7553791999999,,,,,,,,,,,,,,,,,,,,,,,,,,,,,,346.73900309999954,346.7553791999999,347.27205010000034,347.23914969999896,,,,,,,,,,,,,,,,,,,,,,347.2550354999985,347.27205010000034,347.27205010000034,347.27205010000034,350.25534640000114,f,1.1603317000008246,0.1230875000001106,350.2554057999987,350.2554296999988,None,,,,,,,,,,,,,,,,,00016,001,2025-11-08_17h23.18.303,MST_task,2024.2.2,60.00502842212357,2025-11-08 17h23.24.948456 +0530,
,Objects\127a.jpg,67,0,67,,,,,f,1.586866799996642,0.1379391000009491,None,,,,,,,67,0,67,0,350.2720131999995,,,,,,,,,,,,,,,,,,,,,,,,,,,,,,350.2555380999984,350.2720131999995,350.7886056999996,350.7554687000011,,,,,,,,,,,,,,,,,,,,,,350.77687929999956,350.7886056999996,350.7886056999996,350.7886056999996,353.7719367999998,f,1.586866799996642,0.1379391000009491,353.77197049999813,353.77198040000076,None,,,,,,,,,,,,,,,,,00016,001,2025-11-08_17h23.18.303,MST_task,2024.2.2,60.00502842212357,2025-11-08 17h23.24.948456 +0530,
,Objects\051a.jpg,68,0,68,,,,,j,2.020801400001801,0.15193899999940186,None,,,,,,,68,0,68,0,353.78853470000104,,,,,,,,,,,,,,,,,,,,,,,,,,,,,,353.7720398999991,353.78853470000104,,354.27204549999806,,,,,,,,,,,,,,,,,,,,,,354.2874508999994,354.3051876999998,354.3051876999998,354.3051876999998,357.2885581999981,j,2.020801400001801,0.15193899999940186,357.2885946999995,357.2886029000001,None,,,,,,,,,,,,,,,,,00016,001,2025-11-08_17h23.18.303,MST_task,2024.2.2,60.00502842212357,2025-11-08 17h23.24.948456 +0530,
,Objects\116a.jpg,69,0,69,,,,,f,1.10329289999936,0.13411700000142446,None,,,,,,,69,0,69,0,357.3051153000015,,,,,,,,,,,,,,,,,,,,,,,,,,,,,,357.28867420000097,357.3051153000015,357.83845049999945,357.7886906999993,,,,,,,,,,,,,,,,,,,,,,357.8191869000002,357.83845049999945,357.83845049999945,357.83845049999945,360.8052419000014,f,1.10329289999936,0.13411700000142446,360.80527710000024,360.8052871,None,,,,,,,,,,,,,,,,,00016,001,2025-11-08_17h23.18.303,MST_task,2024.2.2,60.00502842212357,2025-11-08 17h23.24.948456 +0530,
,Scenes\178a.jpg,70,0,70,,,,,j,1.251351099999738,0.1446868999992148,None,,,,,,,70,0,70,0,360.8217058000009,,,,,,,,,,,,,,,,,,,,,,,,,,,,,,360.8053809999983,360.8217058000009,361.33838789999936,361.305298700001,,,,,,,,,,,,,,,,,,,,,,361.3225773999984,361.33838789999936,361.33838789999936,361.33838789999936,364.3217396,j,1.251351099999738,0.1446868999992148,364.32289039999887,364.3229016000005,None,,,,,,,,,,,,,,,,,00016,001,2025-11-08_17h23.18.303,MST_task,2024.2.2,60.00502842212357,2025-11-08 17h23.24.948456 +0530,
,Scenes\132a.jpg,71,0,71,,,,,j,1.5499699000029068,0.12770069999896805,None,,,,,,,71,0,71,0,364.33829839999817,,,,,,,,,,,,,,,,,,,,,,,,,,,,,,364.32296000000133,364.33829839999817,364.8716808999998,364.8217919999988,,,,,,,,,,,,,,,,,,,,,,364.8500991000001,364.8716808999998,364.8716808999998,364.8716808999998,367.8382520000014,j,1.5499699000029068,0.12770069999896805,367.83829630000037,367.83830579999994,None,,,,,,,,,,,,,,,,,00016,001,2025-11-08_17h23.18.303,MST_task,2024.2.2,60.00502842212357,2025-11-08 17h23.24.948456 +0530,
,Scenes\021a.jpg,72,0,72,,,,,f,1.4682366000015463,0.16962649999913992,None,,,,,,,72,0,72,0,367.85491790000015,,,,,,,,,,,,,,,,,,,,,,,,,,,,,,367.8383657000013,367.85491790000015,,368.3383498000003,,,,,,,,,,,,,,,,,,,,,,368.35763120000047,368.37153989999933,368.37153989999933,368.37153989999933,371.35491209999964,f,1.4682366000015463,0.16962649999913992,371.3549466000004,371.3549553999983,None,,,,,,,,,,,,,,,,,00016,001,2025-11-08_17h23.18.303,MST_task,2024.2.2,60.00502842212357,2025-11-08 17h23.24.948456 +0530,
,Scenes\084a.jpg,73,0,73,,,,,j,1.5420449000012013,0.15189249999821186,None,,,,,,,73,0,73,0,371.371676499999,,,,,,,,,,,,,,,,,,,,,,,,,,,,,,371.3550179999984,371.371676499999,371.8881271999999,371.8551434000001,,,,,,,,,,,,,,,,,,,,,,371.87627879999854,371.8881271999999,371.8881271999999,371.8881271999999,374.8715746000016,j,1.5420449000012013,0.15189249999821186,374.8716099999983,374.8716199999981,None,,,,,,,,,,,,,,,,,00016,001,2025-11-08_17h23.18.303,MST_task,2024.2.2,60.00502842212357,2025-11-08 17h23.24.948456 +0530,
,Scenes\101a.jpg,74,0,74,,,,,j,1.9843572999998287,0.1418297000018356,None,,,,,,,74,0,74,0,374.888120399999,,,,,,,,,,,,,,,,,,,,,,,,,,,,,,374.87171020000096,374.888120399999,375.42142180000155,375.37160779999977,,,,,,,,,,,,,,,,,,,,,,375.40355940000154,375.42142180000155,375.42142180000155,375.42142180000155,378.38817669999844,j,1.9843572999998287,0.1418297000018356,378.3882105999983,378.38822040000014,None,,,,,,,,,,,,,,,,,00016,001,2025-11-08_17h23.18.303,MST_task,2024.2.2,60.00502842212357,2025-11-08 17h23.24.948456 +0530,
,Scenes\187a.jpg,75,0,75,,,,,j,1.0127804999974614,0.13826110000081826,None,,,,,,,75,0,75,0,378.4046946999988,,,,,,,,,,,,,,,,,,,,,,,,,,,,,,378.3882787000002,378.4046946999988,378.9213124000016,378.8882044999991,,,,,,,,,,,,,,,,,,,,,,378.9052890999992,378.9213124000016,378.9213124000016,378.9213124000016,381.9046233000008,j,1.0127804999974614,0.13826110000081826,381.90465920000133,381.9046692999982,None,,,,,,,,,,,,,,,,,00016,001,2025-11-08_17h23.18.303,MST_task,2024.2.2,60.00502842212357,2025-11-08 17h23.24.948456 +0530,
,Scenes\010a.jpg,76,0,76,,,,,f,1.8118557000016153,0.12249760000122478,None,,,,,,,76,0,76,0,381.92130800000086,,,,,,,,,,,,,,,,,,,,,,,,,,,,,,381.904729599999,381.92130800000086,,382.4047724000011,,,,,,,,,,,,,,,,,,,,,,382.4239818999995,382.43790530000115,382.43790530000115,382.43790530000115,385.4212045999993,f,1.8118557000016153,0.12249760000122478,385.4212378000011,385.4212460999988,None,,,,,,,,,,,,,,,,,00016,001,2025-11-08_17h23.18.303,MST_task,2024.2.2,60.00502842212357,2025-11-08 17h23.24.948456 +0530,
,Objects\144a.jpg,77,0,77,,,,,j,1.6651326000028348,0.1500629999973171,None,,,,,,,77,0,77,0,385.43785840000055,,,,,,,,,,,,,,,,,,,,,,,,,,,,,,385.42133430000104,385.43785840000055,385.9544894999999,385.9213954000006,,,,,,,,,,,,,,,,,,,,,,385.94813689999864,385.9544894999999,385.9544894999999,385.9544894999999,388.9379308999996,j,1.6651326000028348,0.1500629999973171,388.9394308999981,388.93944270000065,None,,,,,,,,,,,,,,,,,00016,001,2025-11-08_17h23.18.303,MST_task,2024.2.2,60.00502842212357,2025-11-08 17h23.24.948456 +0530,
,Objects\079a.jpg,78,0,78,,,,,j,2.0246901999998954,0.14578489999985322,None,,,,,,,78,0,78,0,388.95446040000024,,,,,,,,,,,,,,,,,,,,,,,,,,,,,,388.9395364999982,388.95446040000024,389.47107759999926,389.43805430000066,,,,,,,,,,,,,,,,,,,,,,389.4660360000016,389.47107759999926,389.47107759999926,389.47107759999926,392.4544376999984,j,2.0246901999998954,0.14578489999985322,392.45447330000025,392.4544833,None,,,,,,,,,,,,,,,,,00016,001,2025-11-08_17h23.18.303,MST_task,2024.2.2,60.00502842212357,2025-11-08 17h23.24.948456 +0530,
,Objects\181a.jpg,79,0,79,,,,,j,1.6618978999977116,0.16309929999988526,None,,,,,,,79,0,79,0,392.4710172999985,,,,,,,,,,,,,,,,,,,,,,,,,,,,,,392.4545701999996,392.4710172999985,392.9876726000002,392.95454379999865,,,,,,,,,,,,,,,,,,,,,,392.9714271999983,392.9876726000002,392.9876726000002,392.9876726000002,395.97101589999875,j,1.6618978999977116,0.16309929999988526,395.97105649999867,395.9710669999986,None,,,,,,,,,,,,,,,,,00016,001,2025-11-08_17h23.18.303,MST_task,2024.2.2,60.00502842212357,2025-11-08 17h23.24.948456 +0530,
,Objects\016a.jpg,80,0,80,,,,,f,1.0212686000013491,0.13996829999814508,None,,,,,,,80,0,80,0,395.9876363000003,,,,,,,,,,,,,,,,,,,,,,,,,,,,,,395.9711267999992,395.9876363000003,396.5042589000004,396.4711380000008,,,,,,,,,,,,,,,,,,,,,,396.48674590000155,396.5042589000004,396.5042589000004,396.5042589000004,399.4876000000004,f,1.0212686000013491,0.13996829999814508,399.4876339000002,399.4876436000013,None,,,,,,,,,,,,,,,,,00016,001,2025-11-08_17h23.18.303,MST_task,2024.2.2,60.00502842212357,2025-11-08 17h23.24.948456 +0530,
,Objects\180a.jpg,81,0,81,,,,,None,,,f,0.0513174000006984,None,,,,,81,0,81,0,399.5042751000001,,,,,,,,,,,,,,,,,,,,,,,,,,,,,,399.4877403999999,399.5042751000001,400.0208796000006,399.9878433999984,,,,,,,,,,,,,,,,,,,,,,400.0040106000015,400.0208796000006,400.0208796000006,400.0208796000006,403.0041670999999,None,,,403.0042265000011,403.0877615999998,f,403.02081539999926,403.02081539999926,0.0513174000006984,None,,,,,,,,,,,,,00016,001,2025-11-08_17h23.18.303,MST_task,2024.2.2,60.00502842212357,2025-11-08 17h23.24.948456 +0530,
,Objects\152a.jpg,82,0,82,,,,,f,2.417731300000014,0.13382750000164378,None,,,,,,,82,0,82,0,403.1041461999994,,,,,,,,,,,,,,,,,,,,,,,,,,,,,,403.08782620000056,403.1041461999994,403.6207694000004,403.5877135999981,,,,,,,,,,,,,,,,,,,,,,403.6047341000012,403.6207694000004,403.6207694000004,403.6207694000004,406.60412749999887,f,2.417731300000014,0.13382750000164378,406.60417529999904,406.6041891999994,None,,,,,,,,,,,,,,,,,00016,001,2025-11-08_17h23.18.303,MST_task,2024.2.2,60.00502842212357,2025-11-08 17h23.24.948456 +0530,
,Objects\128a.jpg,83,0,83,,,,,None,,,f,1.1910296999994898,None,,,,,83,0,83,0,406.62074329999814,,,,,,,,,,,,,,,,,,,,,,,,,,,,,,406.6042809999999,406.62074329999814,407.1373964000013,407.1042392999989,,,,,,,,,,,,,,,,,,,,,,407.11986940000133,407.1373964000013,407.1373964000013,407.1373964000013,410.1207590999984,None,,,410.12079820000145,411.33758149999994,f,410.1373468999991,410.1373468999991,1.1910296999994898,None,,,,,,,,,,,,,00016,001,2025-11-08_17h23.18.303,MST_task,2024.2.2,60.00502842212357,2025-11-08 17h23.24.948456 +0530,
,Scenes\117a.jpg,84,0,84,,,,,j,1.3367151000020385,0.19787579999683658,None,,,,,,,84,0,84,0,411.35396480000054,,,,,,,,,,,,,,,,,,,,,,,,,,,,,,411.33766900000046,411.35396480000054,411.87091359999977,411.83745089999866,,,,,,,,,,,,,,,,,,,,,,411.8554747999988,411.87091359999977,411.87091359999977,411.87091359999977,414.853925899999,j,1.3367151000020385,0.19787579999683658,414.8551593000011,414.8551707000006,None,,,,,,,,,,,,,,,,,00016,001,2025-11-08_17h23.18.303,MST_task,2024.2.2,60.00502842212357,2025-11-08 17h23.24.948456 +0530,
,Scenes\185a.jpg,85,0,85,,,,,j,1.0908034999993106,0.14398129999972298,None,,,,,,,85,0,85,0,414.87052290000065,,,,,,,,,,,,,,,,,,,,,,,,,,,,,,414.8552574999994,414.87052290000065,415.38721219999934,415.35403399999996,,,,,,,,,,,,,,,,,,,,,,415.3695187000012,415.38721219999934,415.38721219999934,415.38721219999934,418.3705226999991,j,1.0908034999993106,0.14398129999972298,418.3705563000003,418.3705660000014,None,,,,,,,,,,,,,,,,,00016,001,2025-11-08_17h23.18.303,MST_task,2024.2.2,60.00502842212357,2025-11-08 17h23.24.948456 +0530,
,Scenes\161a.jpg,86,0,86,,,,,j,0.8553008999988378,0.15378989999953774,None,,,,,,,86,0,86,0,418.38716919999933,,,,,,,,,,,,,,,,,,,,,,,,,,,,,,418.3706229999989,418.38716919999933,418.92070310000054,418.8706439000016,,,,,,,,,,,,,,,,,,,,,,418.9014712999997,418.92070310000054,418.92070310000054,418.92070310000054,421.88712699999815,j,0.8553008999988378,0.15378989999953774,421.88716139999815,421.8871717000002,None,,,,,,,,,,,,,,,,,00016,001,2025-11-08_17h23.18.303,MST_task,2024.2.2,60.00502842212357,2025-11-08 17h23.24.948456 +0530,
,Scenes\097a.jpg,87,0,87,,,,,f,1.9932700999997905,0.12043959999937215,None,,,,,,,87,0,87,0,421.90369680000003,,,,,,,,,,,,,,,,,,,,,,,,,,,,,,421.8872851999986,421.90369680000003,422.4206085000005,422.3872049999991,,,,,,,,,,,,,,,,,,,,,,422.40305760000047,422.4206085000005,422.4206085000005,422.4206085000005,425.40381310000157,f,1.9932700999997905,0.12043959999937215,425.40384809999887,425.40385830000014,None,,,,,,,,,,,,,,,,,00016,001,2025-11-08_17h23.18.303,MST_task,2024.2.2,60.00502842212357,2025-11-08 17h23.24.948456 +0530,
,Scenes\070a.jpg,88,0,88,,,,,f,1.5612163999976474,0.1462074000010034,None,,,,,,,88,0,88,0,425.42028740000023,,,,,,,,,,,,,,,,,,,,,,,,,,,,,,425.4039460999993,425.42028740000023,425.9369764000003,425.9038306000002,,,,,,,,,,,,,,,,,,,,,,425.9226955000013,425.9369764000003,425.9369764000003,425.9369764000003,428.9202676999994,f,1.5612163999976474,0.1462074000010034,428.9203210000014,428.92033100000117,None,,,,,,,,,,,,,,,,,00016,001,2025-11-08_17h23.18.303,MST_task,2024.2.2,60.00502842212357,2025-11-08 17h23.24.948456 +0530,
,Scenes\190a.jpg,89,0,89,,,,,j,0.7294537999987369,0.12774940000235802,None,,,,,,,89,0,89,0,428.93691000000035,,,,,,,,,,,,,,,,,,,,,,,,,,,,,,428.9204218999985,428.93691000000035,429.47021010000026,429.42034929999863,,,,,,,,,,,,,,,,,,,,,,429.4566502000016,429.47021010000026,429.47021010000026,429.47021010000026,432.4369709999992,j,0.7294537999987369,0.12774940000235802,432.4370123000008,432.4370267000013,None,,,,,,,,,,,,,,,,,00016,001,2025-11-08_17h23.18.303,MST_task,2024.2.2,60.00502842212357,2025-11-08 17h23.24.948456 +0530,
,Scenes\180a.jpg,90,0,90,,,,,j,0.8159778000008373,0.14548389999981737,None,,,,,,,90,0,90,0,432.45350029999827,,,,,,,,,,,,,,,,,,,,,,,,,,,,,,432.4370889999991,432.45350029999827,432.9701419000012,432.93706699999893,,,,,,,,,,,,,,,,,,,,,,432.9553909999995,432.9701419000012,432.9701419000012,432.9701419000012,435.9534610999981,j,0.8159778000008373,0.14548389999981737,435.9534954999981,435.9535055999986,None,,,,,,,,,,,,,,,,,00016,001,2025-11-08_17h23.18.303,MST_task,2024.2.2,60.00502842212357,2025-11-08 17h23.24.948456 +0530,
,Objects\022a.jpg,91,0,91,,,,,f,2.0247339000015927,0.15869029999885242,None,,,,,,,91,0,91,0,435.97008619999906,,,,,,,,,,,,,,,,,,,,,,,,,,,,,,435.9535633000014,435.97008619999906,436.48693060000005,436.4535606999998,,,,,,,,,,,,,,,,,,,,,,436.4710094000002,436.48693060000005,436.48693060000005,436.48693060000005,439.47018709999975,f,2.0247339000015927,0.15869029999885242,439.4717281000012,439.4717396999986,None,,,,,,,,,,,,,,,,,00016,001,2025-11-08_17h23.18.303,MST_task,2024.2.2,60.00502842212357,2025-11-08 17h23.24.948456 +0530,
,Objects\078a.jpg,92,0,92,,,,,j,1.7926717000009376,0.13346799999999348,None,,,,,,,92,0,92,0,439.48665750000146,,,,,,,,,,,,,,,,,,,,,,,,,,,,,,439.47179830000096,439.48665750000146,440.0033231000016,439.970274700001,,,,,,,,,,,,,,,,,,,,,,439.99400389999937,440.0033231000016,440.0033231000016,440.0033231000016,442.9866269999984,j,1.7926717000009376,0.13346799999999348,442.98666109999976,442.98667080000087,None,,,,,,,,,,,,,,,,,00016,001,2025-11-08_17h23.18.303,MST_task,2024.2.2,60.00502842212357,2025-11-08 17h23.24.948456 +0530,
,Objects\030a.jpg,93,0,93,,,,,f,0.9969069999970088,0.15712850000272738,None,,,,,,,93,0,93,0,443.00326230000064,,,,,,,,,,,,,,,,,,,,,,,,,,,,,,442.9867293999996,443.00326230000064,443.51994399999967,443.4867556999998,,,,,,,,,,,,,,,,,,,,,,443.5022209999988,443.51994399999967,443.51994399999967,443.51994399999967,446.5033067000004,f,0.9969069999970088,0.15712850000272738,446.5033430000003,446.5033536999981,None,,,,,,,,,,,,,,,,,00016,001,2025-11-08_17h23.18.303,MST_task,2024.2.2,60.00502842212357,2025-11-08 17h23.24.948456 +0530,
,Objects\018a.jpg,94,0,94,,,,,j,1.9091583999979775,0.14188000000285683,None,,,,,,,94,0,94,0,446.519857700001,,,,,,,,,,,,,,,,,,,,,,,,,,,,,,446.50344530000075,446.519857700001,447.0365203000001,447.0034387000014,,,,,,,,,,,,,,,,,,,,,,447.01895330000116,447.0365203000001,447.0365203000001,447.0365203000001,450.0198219999984,j,1.9091583999979775,0.14188000000285683,450.0198555999996,450.01986580000084,None,,,,,,,,,,,,,,,,,00016,001,2025-11-08_17h23.18.303,MST_task,2024.2.2,60.00502842212357,2025-11-08 17h23.24.948456 +0530,
,Objects\119a.jpg,95,0,95,,,,,f,1.0343749999992724,0.15862189999825205,None,,,,,,,95,0,95,0,450.0364405,,,,,,,,,,,,,,,,,,,,,,,,,,,,,,450.0199231000006,450.0364405,450.55309829999896,450.51994829999967,,,,,,,,,,,,,,,,,,,,,,450.5355286999984,450.55309829999896,450.55309829999896,450.55309829999896,453.53643210000155,f,1.0343749999992724,0.15862189999825205,453.53646730000037,453.5364766999992,None,,,,,,,,,,,,,,,,,00016,001,2025-11-08_17h23.18.303,MST_task,2024.2.2,60.00502842212357,2025-11-08 17h23.24.948456 +0530,
,Objects\095a.jpg,96,0,96,,,,,f,0.8968415999988792,0.15116580000176327,None,,,,,,,96,0,96,0,453.553011699998,,,,,,,,,,,,,,,,,,,,,,,,,,,,,,453.536567799998,453.553011699998,454.06965910000145,454.03651549999995,,,,,,,,,,,,,,,,,,,,,,454.0533632000006,454.06965910000145,454.06965910000145,454.06965910000145,457.05301189999955,f,0.8968415999988792,0.15116580000176327,457.05304439999964,457.05305450000014,None,,,,,,,,,,,,,,,,,00016,001,2025-11-08_17h23.18.303,MST_task,2024.2.2,60.00502842212357,2025-11-08 17h23.24.948456 +0530,
,Objects\183a.jpg,97,0,97,,,,,j,0.9192333999999391,0.14051130000007106,None,,,,,,,97,0,97,0,457.0695908000016,,,,,,,,,,,,,,,,,,,,,,,,,,,,,,457.053138700001,457.0695908000016,457.5862496000009,457.55318310000075,,,,,,,,,,,,,,,,,,,,,,457.5699218000009,457.5862496000009,457.5862496000009,457.5862496000009,460.5695607999987,j,0.9192333999999391,0.14051130000007106,460.56959749999805,460.5696072999999,None,,,,,,,,,,,,,,,,,00016,001,2025-11-08_17h23.18.303,MST_task,2024.2.2,60.00502842212357,2025-11-08 17h23.24.948456 +0530,
,Scenes\022a.jpg,98,0,98,,,,,j,1.0047565999993822,0.12784309999915422,None,,,,,,,98,0,98,0,460.58622019999893,,,,,,,,,,,,,,,,,,,,,,,,,,,,,,460.5696954999985,460.58622019999893,461.1031169000016,461.0696312,,,,,,,,,,,,,,,,,,,,,,461.0903588000001,461.1031169000016,461.1031169000016,461.1031169000016,464.08613139999943,j,1.0047565999993822,0.12784309999915422,464.08731550000084,464.087327199999,None,,,,,,,,,,,,,,,,,00016,001,2025-11-08_17h23.18.303,MST_task,2024.2.2,60.00502842212357,2025-11-08 17h23.24.948456 +0530,
,Scenes\105a.jpg,99,0,99,,,,,j,0.7355338000015763,0.12383139999656123,None,,,,,,,99,0,99,0,464.1027695999983,,,,,,,,,,,,,,,,,,,,,,,,,,,,,,464.08741960000043,464.1027695999983,464.63640139999916,464.5863790000003,,,,,,,,,,,,,,,,,,,,,,464.61709429999974,464.63640139999916,464.63640139999916,464.63640139999916,467.6027701999992,j,0.7355338000015763,0.12383139999656123,467.6028041999998,467.6028139000009,None,,,,,,,,,,,,,,,,,00016,001,2025-11-08_17h23.18.303,MST_task,2024.2.2,60.00502842212357,2025-11-08 17h23.24.948456 +0530,
,Scenes\001a.jpg,100,0,100,,,,,f,1.169381699997757,0.1303719000025012,None,,,,,,,100,0,100,0,467.6193858000006,,,,,,,,,,,,,,,,,,,,,,,,,,,,,,467.6029004999982,467.6193858000006,468.1362579000015,468.10294019999856,,,,,,,,,,,,,,,,,,,,,,468.12603579999995,468.1362579000015,468.1362579000015,468.1362579000015,471.1194230000001,f,1.169381699997757,0.1303719000025012,471.1194867999984,471.11949670000104,None,,,,,,,,,,,,,,,,,00016,001,2025-11-08_17h23.18.303,MST_task,2024.2.2,60.00502842212357,2025-11-08 17h23.24.948456 +0530,
,Scenes\058a.jpg,101,0,101,,,,,f,1.9622635999985505,0.12864600000102655,None,,,,,,,101,0,101,0,471.13598170000114,,,,,,,,,,,,,,,,,,,,,,,,,,,,,,471.1195813000013,471.13598170000114,471.65265499999805,471.61959019999995,,,,,,,,,,,,,,,,,,,,,,471.63716959999874,471.65265499999805,471.65265499999805,471.65265499999805,474.63591090000045,f,1.9622635999985505,0.12864600000102655,474.6359620000003,474.63597220000156,None,,,,,,,,,,,,,,,,,00016,001,2025-11-08_17h23.18.303,MST_task,2024.2.2,60.00502842212357,2025-11-08 17h23.24.948456 +0530,
,Scenes\035a.jpg,102,0,102,,,,,j,1.3323989999989863,0.1818173999999999,None,,,,,,,102,0,102,0,474.6525425,,,,,,,,,,,,,,,,,,,,,,,,,,,,,,474.6360781000003,474.6525425,475.16922709999926,475.1360496999987,,,,,,,,,,,,,,,,,,,,,,475.1494692000015,475.16922709999926,475.16922709999926,475.16922709999926,478.15249920000133,j,1.3323989999989863,0.1818173999999999,478.1525339,478.1525438999997,None,,,,,,,,,,,,,,,,,00016,001,2025-11-08_17h23.18.303,MST_task,2024.2.2,60.00502842212357,2025-11-08 17h23.24.948456 +0530,
,Scenes\029a.jpg,103,0,103,,,,,j,1.2482752000032633,0.14621569999872008,None,,,,,,,103,0,103,0,478.16916349999883,,,,,,,,,,,,,,,,,,,,,,,,,,,,,,478.1526030999994,478.16916349999883,478.6858275000013,478.65262079999957,,,,,,,,,,,,,,,,,,,,,,478.66668819999904,478.6858275000013,478.6858275000013,478.6858275000013,481.66908390000026,j,1.2482752000032633,0.14621569999872008,481.66912070000035,481.66913040000145,None,,,,,,,,,,,,,,,,,00016,001,2025-11-08_17h23.18.303,MST_task,2024.2.2,60.00502842212357,2025-11-08 17h23.24.948456 +0530,
,Scenes\087a.jpg,104,0,104,,,,,j,0.8556029999999737,0.15608930000234977,None,,,,,,,104,0,104,0,481.6857515999982,,,,,,,,,,,,,,,,,,,,,,,,,,,,,,481.66923659999884,481.6857515999982,482.2027186999985,482.1692074999992,,,,,,,,,,,,,,,,,,,,,,482.18464329999915,482.2027186999985,482.2027186999985,482.2027186999985,485.1856893000004,j,0.8556029999999737,0.15608930000234977,485.1857353000014,485.18574539999827,None,,,,,,,,,,,,,,,,,00016,001,2025-11-08_17h23.18.303,MST_task,2024.2.2,60.00502842212357,2025-11-08 17h23.24.948456 +0530,
,Objects\084a.jpg,105,0,105,,,,,j,2.2626443000008294,0.14600520000021788,None,,,,,,,105,0,105,0,485.2023104,,,,,,,,,,,,,,,,,,,,,,,,,,,,,,485.18580440000005,485.2023104,485.7191743000003,485.68587860000116,,,,,,,,,,,,,,,,,,,,,,485.7133662999986,485.7191743000003,485.7191743000003,485.7191743000003,488.70242700000017,j,2.2626443000008294,0.14600520000021788,488.7040688999987,488.7040804999997,None,,,,,,,,,,,,,,,,,00016,001,2025-11-08_17h23.18.303,MST_task,2024.2.2,60.00502842212357,2025-11-08 17h23.24.948456 +0530,
,Objects\007a.jpg,106,0,106,,,,,j,1.797961199998099,0.13994340000135708,None,,,,,,,106,0,106,0,488.71889219999866,,,,,,,,,,,,,,,,,,,,,,,,,,,,,,488.70418000000063,488.71889219999866,489.2355604000004,489.20246659999975,,,,,,,,,,,,,,,,,,,,,,489.218996399999,489.2355604000004,489.2355604000004,489.2355604000004,492.2188752000002,j,1.797961199998099,0.13994340000135708,492.2189065999992,492.21891609999875,None,,,,,,,,,,,,,,,,,00016,001,2025-11-08_17h23.18.303,MST_task,2024.2.2,60.00502842212357,2025-11-08 17h23.24.948456 +0530,
,Objects\081a.jpg,107,0,107,,,,,j,1.2153904999977385,0.18129849999968428,None,,,,,,,107,0,107,0,492.2355236000003,,,,,,,,,,,,,,,,,,,,,,,,,,,,,,492.21897239999817,492.2355236000003,492.7517583000008,492.7190233000001,,,,,,,,,,,,,,,,,,,,,,492.74881520000054,492.7517583000008,492.7517583000008,492.7517583000008,495.73545150000064,j,1.2153904999977385,0.18129849999968428,495.7354981999997,495.73550859999887,None,,,,,,,,,,,,,,,,,00016,001,2025-11-08_17h23.18.303,MST_task,2024.2.2,60.00502842212357,2025-11-08 17h23.24.948456 +0530,
,Objects\071a.jpg,108,0,108,,,,,j,1.5530588000001444,0.14328759999989416,None,,,,,,,108,0,108,0,495.75210810000135,,,,,,,,,,,,,,,,,,,,,,,,,,,,,,495.73556729999837,495.75210810000135,496.26878139999826,496.2356729999992,,,,,,,,,,,,,,,,,,,,,,496.26142179999806,496.26878139999826,496.26878139999826,496.26878139999826,499.25206949999847,j,1.5530588000001444,0.14328759999989416,499.2521151000001,499.2521248999983,None,,,,,,,,,,,,,,,,,00016,001,2025-11-08_17h23.18.303,MST_task,2024.2.2,60.00502842212357,2025-11-08 17h23.24.948456 +0530,
,Objects\082a.jpg,109,0,109,,,,,j,1.5619422999989183,0.14764680000007502,None,,,,,,,109,0,109,0,499.2686958000013,,,,,,,,,,,,,,,,,,,,,,,,,,,,,,499.2522104999989,499.2686958000013,499.8020155000013,499.7522538000012,,,,,,,,,,,,,,,,,,,,,,499.78496639999867,499.8020155000013,499.8020155000013,499.8020155000013,502.768661099999,j,1.5619422999989183,0.14764680000007502,502.76869409999927,502.76870469999994,None,,,,,,,,,,,,,,,,,00016,001,2025-11-08_17h23.18.303,MST_task,2024.2.2,60.00502842212357,2025-11-08 17h23.24.948456 +0530,
,Objects\083a.jpg,110,0,110,,,,,f,1.7338357999979053,0.15873780000038096,None,,,,,,,110,0,110,0,502.78528860000006,,,,,,,,,,,,,,,,,,,,,,,,,,,,,,502.76879149999877,502.78528860000006,,503.2687757999993,,,,,,,,,,,,,,,,,,,,,,503.28434170000037,503.30194480000137,503.30194480000137,503.30194480000137,506.28528839999854,f,1.7338357999979053,0.15873780000038096,506.28535660000125,506.28536610000083,None,,,,,,,,,,,,,,,,,00016,001,2025-11-08_17h23.18.303,MST_task,2024.2.2,60.00502842212357,2025-11-08 17h23.24.948456 +0530,
,Objects\125a.jpg,111,0,111,,,,,j,1.4424032999995688,0.1437340000011318,None,,,,,,,111,0,111,0,506.3018731999982,,,,,,,,,,,,,,,,,,,,,,,,,,,,,,506.2854358000004,506.3018731999982,506.8351914999985,506.7854417999988,,,,,,,,,,,,,,,,,,,,,,506.81750770000144,506.8351914999985,506.8351914999985,506.8351914999985,509.80196069999874,j,1.4424032999995688,0.1437340000011318,509.80199770000036,509.8020079000016,None,,,,,,,,,,,,,,,,,00016,001,2025-11-08_17h23.18.303,MST_task,2024.2.2,60.00502842212357,2025-11-08 17h23.24.948456 +0530,
,Scenes\156a.jpg,112,0,112,,,,,j,1.8028543000000354,0.15197279999847524,None,,,,,,,112,0,112,0,509.81849149999834,,,,,,,,,,,,,,,,,,,,,,,,,,,,,,509.8021007999996,509.81849149999834,510.33535610000035,510.30198480000035,,,,,,,,,,,,,,,,,,,,,,510.3199386000015,510.33535610000035,510.33535610000035,510.33535610000035,513.318449800001,j,1.8028543000000354,0.15197279999847524,513.3195895999997,513.3196027000013,None,,,,,,,,,,,,,,,,,00016,001,2025-11-08_17h23.18.303,MST_task,2024.2.2,60.00502842212357,2025-11-08 17h23.24.948456 +0530,
,Scenes\140a.jpg,113,0,113,,,,,j,1.2342748999981268,0.15782400000171037,None,,,,,,,113,0,113,0,513.3350533000012,,,,,,,,,,,,,,,,,,,,,,,,,,,,,,513.3196868999985,513.3350533000012,513.8518790999988,513.8185328,,,,,,,,,,,,,,,,,,,,,,513.8343553999985,513.8518790999988,513.8518790999988,513.8518790999988,516.8350156000015,j,1.2342748999981268,0.15782400000171037,516.8350501999994,516.8350601999991,None,,,,,,,,,,,,,,,,,00016,001,2025-11-08_17h23.18.303,MST_task,2024.2.2,60.00502842212357,2025-11-08 17h23.24.948456 +0530,
,Scenes\055a.jpg,114,0,114,,,,,j,1.6933974000021408,0.11367989999780548,None,,,,,,,114,0,114,0,516.8516022000003,,,,,,,,,,,,,,,,,,,,,,,,,,,,,,516.8351514999995,516.8516022000003,,517.3351212999987,,,,,,,,,,,,,,,,,,,,,,517.3633613999991,517.3849268999984,517.3849268999984,517.3849268999984,520.3516578999988,j,1.6933974000021408,0.11367989999780548,520.3517046999987,520.3517136999981,None,,,,,,,,,,,,,,,,,00016,001,2025-11-08_17h23.18.303,MST_task,2024.2.2,60.00502842212357,2025-11-08 17h23.24.948456 +0530,
,Scenes\166a.jpg,115,0,115,,,,,j,1.0728131999967445,0.13634270000329707,None,,,,,,,115,0,115,0,520.3681961000002,,,,,,,,,,,,,,,,,,,,,,,,,,,,,,520.3517753000015,520.3681961000002,520.8848943000012,520.8517809000004,,,,,,,,,,,,,,,,,,,,,,520.8669139000012,520.8848943000012,520.8848943000012,520.8848943000012,523.8681646000005,j,1.0728131999967445,0.13634270000329707,523.8682044999987,523.8682148000007,None,,,,,,,,,,,,,,,,,00016,001,2025-11-08_17h23.18.303,MST_task,2024.2.2,60.00502842212357,2025-11-08 17h23.24.948456 +0530,
,Scenes\050a.jpg,116,0,116,,,,,j,0.7039495000026363,0.1260017999993579,None,,,,,,,116,0,116,0,523.8848241999985,,,,,,,,,,,,,,,,,,,,,,,,,,,,,,523.8682732000016,523.8848241999985,524.4015222000016,524.3682657999998,,,,,,,,,,,,,,,,,,,,,,524.3836077999986,524.4015222000016,524.4015222000016,524.4015222000016,527.3847768999985,j,0.7039495000026363,0.1260017999993579,527.3848116000008,527.3848214999998,None,,,,,,,,,,,,,,,,,00016,001,2025-11-08_17h23.18.303,MST_task,2024.2.2,60.00502842212357,2025-11-08 17h23.24.948456 +0530,
,Scenes\147a.jpg,117,0,117,,,,,j,1.0316564000022481,0.10422409999955562,None,,,,,,,117,0,117,0,527.4014076999993,,,,,,,,,,,,,,,,,,,,,,,,,,,,,,527.384908699998,527.4014076999993,527.9180274999999,527.8849620000001,,,,,,,,,,,,,,,,,,,,,,527.8998570000003,527.9180274999999,527.9180274999999,527.9180274999999,530.901413399999,j,1.0316564000022481,0.10422409999955562,530.9014491000016,530.9014657000007,None,,,,,,,,,,,,,,,,,00016,001,2025-11-08_17h23.18.303,MST_task,2024.2.2,60.00502842212357,2025-11-08 17h23.24.948456 +0530,
,Scenes\125a.jpg,118,0,118,,,,,j,0.835921199999575,0.14556269999957294,None,,,,,,,118,0,118,0,530.918001099999,,,,,,,,,,,,,,,,,,,,,,,,,,,,,,530.9015591999996,530.918001099999,,531.4015607000001,,,,,,,,,,,,,,,,,,,,,,531.4275105000015,531.4346293999988,531.4346293999988,531.4346293999988,534.4180430999986,j,0.835921199999575,0.14556269999957294,534.4180818999994,534.4180902000007,None,,,,,,,,,,,,,,,,,00016,001,2025-11-08_17h23.18.303,MST_task,2024.2.2,60.00502842212357,2025-11-08 17h23.24.948456 +0530,
,Objects\118a.jpg,119,0,119,,,,,f,1.0362492999993265,0.1540077999998175,None,,,,,,,119,0,119,0,534.4346039999982,,,,,,,,,,,,,,,,,,,,,,,,,,,,,,534.4181783999993,534.4346039999982,534.9514438000006,534.9181177999999,,,,,,,,,,,,,,,,,,,,,,534.9359208999995,534.9514438000006,534.9514438000006,534.9514438000006,537.9345819000009,f,1.0362492999993265,0.1540077999998175,537.9360243999981,537.9360357000005,None,,,,,,,,,,,,,,,,,00016,001,2025-11-08_17h23.18.303,MST_task,2024.2.2,60.00502842212357,2025-11-08 17h23.24.948456 +0530,
,Objects\165a.jpg,120,0,120,,,,,f,1.0276776999999129,0.15051790000143228,None,,,,,,,120,0,120,0,537.9511504000002,,,,,,,,,,,,,,,,,,,,,,,,,,,,,,537.9360898999985,537.9511504000002,538.467833499999,538.4347646999995,,,,,,,,,,,,,,,,,,,,,,538.4504360999999,538.467833499999,538.467833499999,538.467833499999,541.4511569999995,f,1.0276776999999129,0.15051790000143228,541.451208800001,541.4512208000015,None,,,,,,,,,,,,,,,,,00016,001,2025-11-08_17h23.18.303,MST_task,2024.2.2,60.00502842212357,2025-11-08 17h23.24.948456 +0530,
,Objects\023a.jpg,121,0,121,,,,,f,1.479294500000833,0.12243400000079419,None,,,,,,,121,0,121,0,541.4677612000014,,,,,,,,,,,,,,,,,,,,,,,,,,,,,,541.4513135000016,541.4677612000014,541.9844263000014,541.9514364999995,,,,,,,,,,,,,,,,,,,,,,541.9675656,541.9844263000014,541.9844263000014,541.9844263000014,544.9677106999989,f,1.479294500000833,0.12243400000079419,544.9677606000005,544.9677712000012,None,,,,,,,,,,,,,,,,,00016,001,2025-11-08_17h23.18.303,MST_task,2024.2.2,60.00502842212357,2025-11-08 17h23.24.948456 +0530,
,Objects\173a.jpg,122,0,122,,,,,f,1.6414288999985729,0.11730340000212891,None,,,,,,,122,0,122,0,544.9843789000006,,,,,,,,,,,,,,,,,,,,,,,,,,,,,,544.9678347000008,544.9843789000006,545.5009811999989,545.4678387999993,,,,,,,,,,,,,,,,,,,,,,545.4837454000008,545.5009811999989,545.5009811999989,545.5009811999989,548.4843099999998,f,1.6414288999985729,0.11730340000212891,548.4843473000001,548.4843578,None,,,,,,,,,,,,,,,,,00016,001,2025-11-08_17h23.18.303,MST_task,2024.2.2,60.00502842212357,2025-11-08 17h23.24.948456 +0530,
,Objects\167a.jpg,123,0,123,,,,,f,2.124397299998236,0.18264770000314456,None,,,,,,,123,0,123,0,548.5009109999992,,,,,,,,,,,,,,,,,,,,,,,,,,,,,,548.4844489999996,548.5009109999992,549.0175960000015,548.9844350999992,,,,,,,,,,,,,,,,,,,,,,549.0010451999988,549.0175960000015,549.0175960000015,549.0175960000015,552.0009284000007,f,2.124397299998236,0.18264770000314456,552.0009629999986,552.0009726999997,None,,,,,,,,,,,,,,,,,00016,001,2025-11-08_17h23.18.303,MST_task,2024.2.2,60.00502842212357,2025-11-08 17h23.24.948456 +0530,
,Objects\076a.jpg,124,0,124,,,,,f,1.3561631000011403,0.11431420000008075,None,,,,,,,124,0,124,0,552.0175081999987,,,,,,,,,,,,,,,,,,,,,,,,,,,,,,552.0010307000011,552.0175081999987,552.533773799998,552.5011183999995,,,,,,,,,,,,,,,,,,,,,,552.5305599999992,552.533773799998,552.533773799998,552.533773799998,555.5174875000012,f,1.3561631000011403,0.11431420000008075,555.5175345999996,555.5175453000011,None,,,,,,,,,,,,,,,,,00016,001,2025-11-08_17h23.18.303,MST_task,2024.2.2,60.00502842212357,2025-11-08 17h23.24.948456 +0530,
,Objects\172a.jpg,125,0,125,,,,,j,1.166638899998361,0.14673580000089714,None,,,,,,,125,0,125,0,555.5341327999995,,,,,,,,,,,,,,,,,,,,,,,,,,,,,,555.5176404999984,555.5341327999995,556.0674177000001,556.0176915999982,,,,,,,,,,,,,,,,,,,,,,556.048421200001,556.0674177000001,556.0674177000001,556.0674177000001,559.0340715999992,j,1.166638899998361,0.14673580000089714,559.0341049999988,559.0341148000007,None,,,,,,,,,,,,,,,,,00016,001,2025-11-08_17h23.18.303,MST_task,2024.2.2,60.00502842212357,2025-11-08 17h23.24.948456 +0530,
,Scenes\047a.jpg,126,0,126,,,,,j,1.2819165000000794,0.14660559999902034,None,,,,,,,126,0,126,0,559.0507141999988,,,,,,,,,,,,,,,,,,,,,,,,,,,,,,559.0342028999985,559.0507141999988,559.5676218000008,559.5342178999999,,,,,,,,,,,,,,,,,,,,,,559.5548309000005,559.5676218000008,559.5676218000008,559.5676218000008,562.5673690000003,j,1.2819165000000794,0.14660559999902034,562.5686177999996,562.5686292999999,None,,,,,,,,,,,,,,,,,00016,001,2025-11-08_17h23.18.303,MST_task,2024.2.2,60.00502842212357,2025-11-08 17h23.24.948456 +0530,
,Scenes\158a.jpg,127,0,127,,,,,j,2.553443500000867,0.1422764000017196,None,,,,,,,127,0,127,0,562.5839649000009,,,,,,,,,,,,,,,,,,,,,,,,,,,,,,562.568712100001,562.5839649000009,563.1006221999996,563.0675477000004,,,,,,,,,,,,,,,,,,,,,,563.086585099998,563.1006221999996,563.1006221999996,563.1006221999996,566.0839340999992,j,2.553443500000867,0.1422764000017196,566.0839678999982,566.0839773000007,None,,,,,,,,,,,,,,,,,00016,001,2025-11-08_17h23.18.303,MST_task,2024.2.2,60.00502842212357,2025-11-08 17h23.24.948456 +0530,
,Scenes\111a.jpg,128,0,128,,,,,j,1.7705081000021892,0.15867829999842797,None,,,,,,,128,0,128,0,566.1005473000005,,,,,,,,,,,,,,,,,,,,,,,,,,,,,,566.0840315999994,566.1005473000005,566.6172154999986,566.5840381000016,,,,,,,,,,,,,,,,,,,,,,566.6003482999986,566.6172154999986,566.6172154999986,566.6172154999986,569.6005125999982,j,1.7705081000021892,0.15867829999842797,569.6005465999988,569.6005568,None,,,,,,,,,,,,,,,,,00016,001,2025-11-08_17h23.18.303,MST_task,2024.2.2,60.00502842212357,2025-11-08 17h23.24.948456 +0530,
,Scenes\045a.jpg,129,0,129,,,,,j,1.7282817000013893,0.14617379999981495,None,,,,,,,129,0,129,0,569.6171485000013,,,,,,,,,,,,,,,,,,,,,,,,,,,,,,569.6006156000003,569.6171485000013,570.1340504,570.1006300000008,,,,,,,,,,,,,,,,,,,,,,570.1228516999981,570.1340504,570.1340504,570.1340504,573.1170968000006,j,1.7282817000013893,0.14617379999981495,573.1171289999984,573.1171388000002,None,,,,,,,,,,,,,,,,,00016,001,2025-11-08_17h23.18.303,MST_task,2024.2.2,60.00502842212357,2025-11-08 17h23.24.948456 +0530,
,Scenes\107a.jpg,130,0,130,,,,,j,1.8573882000018784,0.13239099999918835,None,,,,,,,130,0,130,0,573.1337373999995,,,,,,,,,,,,,,,,,,,,,,,,,,,,,,573.1171929999982,573.1337373999995,,573.6171749999994,,,,,,,,,,,,,,,,,,,,,,573.6342436000014,573.6503955000007,573.6503955000007,573.6503955000007,576.6336898000009,j,1.8573882000018784,0.13239099999918835,576.633722300001,576.6337306999994,None,,,,,,,,,,,,,,,,,00016,001,2025-11-08_17h23.18.303,MST_task,2024.2.2,60.00502842212357,2025-11-08 17h23.24.948456 +0530,
,Scenes\073a.jpg,131,0,131,,,,,j,0.9766588999991654,0.14664799999809475,None,,,,,,,131,0,131,0,576.6502981000012,,,,,,,,,,,,,,,,,,,,,,,,,,,,,,576.6337873000011,576.6502981000012,577.1669801999997,577.1337848000003,,,,,,,,,,,,,,,,,,,,,,577.1497240999997,577.1669801999997,577.1669801999997,577.1669801999997,580.1502856000006,j,0.9766588999991654,0.14664799999809475,580.1503322999997,580.1503421000016,None,,,,,,,,,,,,,,,,,00016,001,2025-11-08_17h23.18.303,MST_task,2024.2.2,60.00502842212357,2025-11-08 17h23.24.948456 +0530,
,Scenes\150a.jpg,132,0,132,,,,,j,0.9168181999993976,0.12536410000029719,None,,,,,,,132,0,132,0,580.1668815999983,,,,,,,,,,,,,,,,,,,,,,,,,,,,,,580.1504338999985,580.1668815999983,580.6835405999991,580.6505178000007,,,,,,,,,,,,,,,,,,,,,,580.6684940000014,580.6835405999991,580.6835405999991,580.6835405999991,583.6668332000008,j,0.9168181999993976,0.12536410000029719,583.6668714000007,583.6668816999991,None,,,,,,,,,,,,,,,,,00016,001,2025-11-08_17h23.18.303,MST_task,2024.2.2,60.00502842212357,2025-11-08 17h23.24.948456 +0530,
,Objects\140a.jpg,133,0,133,,,,,j,2.376549000000523,0.11752880000130972,None,,,,,,,133,0,133,0,583.6835151999985,,,,,,,,,,,,,,,,,,,,,,,,,,,,,,583.6669694999982,583.6835151999985,,584.1669461999991,,,,,,,,,,,,,,,,,,,,,,584.1965965999989,584.2171189000001,584.2171189000001,584.2171189000001,587.1834610000005,j,2.376549000000523,0.11752880000130972,587.1849039000008,587.1849146999994,None,,,,,,,,,,,,,,,,,00016,001,2025-11-08_17h23.18.303,MST_task,2024.2.2,60.00502842212357,2025-11-08 17h23.24.948456 +0530,
,Objects\019a.jpg,134,0,134,,,,,j,1.7146228999990853,0.1802406000024348,None,,,,,,,134,0,134,0,587.2000709999993,,,,,,,,,,,,,,,,,,,,,,,,,,,,,,587.1849737000011,587.2000709999993,587.7167177999982,587.6836861999982,,,,,,,,,,,,,,,,,,,,,,587.6997417999992,587.7167177999982,587.7167177999982,587.7167177999982,590.7000240999987,j,1.7146228999990853,0.1802406000024348,590.7000724999998,590.7000827999982,None,,,,,,,,,,,,,,,,,00016,001,2025-11-08_17h23.18.303,MST_task,2024.2.2,60.00502842212357,2025-11-08 17h23.24.948456 +0530,
,Objects\108a.jpg,135,0,135,,,,,j,1.0045825000015611,0.17361199999868404,None,,,,,,,135,0,135,0,590.716674700001,,,,,,,,,,,,,,,,,,,,,,,,,,,,,,590.7001401000016,590.716674700001,591.233344799999,591.2001664999989,,,,,,,,,,,,,,,,,,,,,,591.2162061999989,591.233344799999,591.233344799999,591.233344799999,594.2166365000012,j,1.0045825000015611,0.17361199999868404,594.2166700999987,594.2166791999989,None,,,,,,,,,,,,,,,,,00016,001,2025-11-08_17h23.18.303,MST_task,2024.2.2,60.00502842212357,2025-11-08 17h23.24.948456 +0530,
,Objects\149a.jpg,136,0,136,,,,,j,1.061602000001585,0.1409630999987712,None,,,,,,,136,0,136,0,594.2332672999983,,,,,,,,,,,,,,,,,,,,,,,,,,,,,,594.2167659000006,594.2332672999983,594.7499038999995,594.7167966999987,,,,,,,,,,,,,,,,,,,,,,594.7328334999984,594.7499038999995,594.7499038999995,594.7499038999995,597.7333284000015,j,1.061602000001585,0.1409630999987712,597.733367599998,597.7333784000002,None,,,,,,,,,,,,,,,,,00016,001,2025-11-08_17h23.18.303,MST_task,2024.2.2,60.00502842212357,2025-11-08 17h23.24.948456 +0530,
,Objects\067a.jpg,137,0,137,,,,,j,2.3136242000000493,0.11446720000094501,None,,,,,,,137,0,137,0,597.749865400001,,,,,,,,,,,,,,,,,,,,,,,,,,,,,,597.7334781999998,597.749865400001,598.2665188999999,598.233439399999,,,,,,,,,,,,,,,,,,,,,,598.249014699999,598.2665188999999,598.2665188999999,598.2665188999999,601.2499399000008,j,2.3136242000000493,0.11446720000094501,601.2499777999983,601.2499874999994,None,,,,,,,,,,,,,,,,,00016,001,2025-11-08_17h23.18.303,MST_task,2024.2.2,60.00502842212357,2025-11-08 17h23.24.948456 +0530,
,Objects\002a.jpg,138,0,138,,,,,f,1.651061299999128,0.13190970000141533,None,,,,,,,138,0,138,0,601.2665849000005,,,,,,,,,,,,,,,,,,,,,,,,,,,,,,601.2500494999986,601.2665849000005,601.7831092000015,601.7499365000003,,,,,,,,,,,,,,,,,,,,,,601.7658520000005,601.7831092000015,601.7831092000015,601.7831092000015,604.7664609999993,f,1.651061299999128,0.13190970000141533,604.7664938999987,604.7665037000006,None,,,,,,,,,,,,,,,,,00016,001,2025-11-08_17h23.18.303,MST_task,2024.2.2,60.00502842212357,2025-11-08 17h23.24.948456 +0530,
,Objects\029a.jpg,139,0,139,,,,,f,0.9789966999996977,0.11768620000293595,None,,,,,,,139,0,139,0,604.7830467999993,,,,,,,,,,,,,,,,,,,,,,,,,,,,,,604.7665855000014,604.7830467999993,605.2996676000002,605.2666749999989,,,,,,,,,,,,,,,,,,,,,,605.2834285999998,605.2996676000002,605.2996676000002,605.2996676000002,608.2830219999996,f,0.9789966999996977,0.11768620000293595,608.2830624999988,608.2830727,None,,,,,,,,,,,,,,,,,00016,001,2025-11-08_17h23.18.303,MST_task,2024.2.2,60.00502842212357,2025-11-08 17h23.24.948456 +0530,
,Scenes\083a.jpg,140,0,140,,,,,j,0.8938682000007248,0.1618391000010888,None,,,,,,,140,0,140,0,608.2996005999994,,,,,,,,,,,,,,,,,,,,,,,,,,,,,,608.2831643999998,608.2996005999994,608.8163217000001,608.7831197000014,,,,,,,,,,,,,,,,,,,,,,608.8014915999993,608.8163217000001,608.8163217000001,608.8163217000001,611.7996128000013,j,0.8938682000007248,0.1618391000010888,611.8007857999983,611.8007964999997,None,,,,,,,,,,,,,,,,,00016,001,2025-11-08_17h23.18.303,MST_task,2024.2.2,60.00502842212357,2025-11-08 17h23.24.948456 +0530,
,Scenes\121a.jpg,141,0,141,,,,,j,0.9031291999999667,0.15046890000303392,None,,,,,,,141,0,141,0,611.8161838000015,,,,,,,,,,,,,,,,,,,,,,,,,,,,,,611.8008889999983,611.8161838000015,612.3328384999986,612.299738499998,,,,,,,,,,,,,,,,,,,,,,612.3118964999994,612.3328384999986,612.3328384999986,612.3328384999986,615.3161637999983,j,0.9031291999999667,0.15046890000303392,615.3162050999999,615.3162161,None,,,,,,,,,,,,,,,,,00016,001,2025-11-08_17h23.18.303,MST_task,2024.2.2,60.00502842212357,2025-11-08 17h23.24.948456 +0530,
,Scenes\143a.jpg,142,0,142,,,,,j,0.7707336999992549,0.12202940000133822,None,,,,,,,142,0,142,0,615.3328141999991,,,,,,,,,,,,,,,,,,,,,,,,,,,,,,615.3163204999983,615.3328141999991,615.8494477999993,615.8162454999983,,,,,,,,,,,,,,,,,,,,,,615.8316548000003,615.8494477999993,615.8494477999993,615.8494477999993,618.8327538000012,j,0.7707336999992549,0.12202940000133822,618.8327882000012,618.8327983999989,None,,,,,,,,,,,,,,,,,00016,001,2025-11-08_17h23.18.303,MST_task,2024.2.2,60.00502842212357,2025-11-08 17h23.24.948456 +0530,
,Scenes\152a.jpg,143,0,143,,,,,j,0.8302918000008503,0.1301986999969813,None,,,,,,,143,0,143,0,618.8494019999998,,,,,,,,,,,,,,,,,,,,,,,,,,,,,,618.8328853999992,618.8494019999998,619.3660304000005,619.3329193999998,,,,,,,,,,,,,,,,,,,,,,619.356068000001,619.3660304000005,619.3660304000005,619.3660304000005,622.3493464999992,j,0.8302918000008503,0.1301986999969813,622.3493803999991,622.3493904999996,None,,,,,,,,,,,,,,,,,00016,001,2025-11-08_17h23.18.303,MST_task,2024.2.2,60.00502842212357,2025-11-08 17h23.24.948456 +0530,
,Scenes\124a.jpg,144,0,144,,,,,f,0.8617713999992702,0.12122330000056536,None,,,,,,,144,0,144,0,622.3660435999991,,,,,,,,,,,,,,,,,,,,,,,,,,,,,,622.349481199999,622.3660435999991,622.8826698000012,622.8494820000014,,,,,,,,,,,,,,,,,,,,,,622.8655050000016,622.8826698000012,622.8826698000012,622.8826698000012,625.865974100001,f,0.8617713999992702,0.12122330000056536,625.8660091999991,625.866019000001,None,,,,,,,,,,,,,,,,,00016,001,2025-11-08_17h23.18.303,MST_task,2024.2.2,60.00502842212357,2025-11-08 17h23.24.948456 +0530,
,Scenes\184a.jpg,145,0,145,,,,,j,0.8269525000032445,0.12372859999959473,None,,,,,,,145,0,145,0,625.8825827000001,,,,,,,,,,,,,,,,,,,,,,,,,,,,,,625.8661089000016,625.8825827000001,626.3992297000004,626.3660768000009,,,,,,,,,,,,,,,,,,,,,,626.3827746999996,626.3992297000004,626.3992297000004,626.3992297000004,629.3825317999981,j,0.8269525000032445,0.12372859999959473,629.3825655,629.3825752000012,None,,,,,,,,,,,,,,,,,00016,001,2025-11-08_17h23.18.303,MST_task,2024.2.2,60.00502842212357,2025-11-08 17h23.24.948456 +0530,
,Scenes\032a.jpg,146,0,146,,,,,j,0.8977096999988134,0.119198200001847,None,,,,,,,146,0,146,0,629.3991668999988,,,,,,,,,,,,,,,,,,,,,,,,,,,,,,629.3826339000007,629.3991668999988,629.9161167999991,629.8826606000002,,,,,,,,,,,,,,,,,,,,,,629.9055657999997,629.9161167999991,629.9161167999991,629.9161167999991,632.8991233999986,j,0.8977096999988134,0.119198200001847,632.8991600000008,632.8991702999992,None,,,,,,,,,,,,,,,,,00016,001,2025-11-08_17h23.18.303,MST_task,2024.2.2,60.00502842212357,2025-11-08 17h23.24.948456 +0530,
,Objects\143a.jpg,147,0,147,,,,,j,2.5011139000016556,0.12579799999730312,None,,,,,,,147,0,147,0,632.9157559000014,,,,,,,,,,,,,,,,,,,,,,,,,,,,,,632.8992255999983,632.9157559000014,633.4327604999999,633.3992327000014,,,,,,,,,,,,,,,,,,,,,,633.4167374999997,633.4327604999999,633.4327604999999,633.4327604999999,636.4156999000006,j,2.5011139000016556,0.12579799999730312,636.4173446999994,636.4173561999996,None,,,,,,,,,,,,,,,,,00016,001,2025-11-08_17h23.18.303,MST_task,2024.2.2,60.00502842212357,2025-11-08 17h23.24.948456 +0530,
,Objects\176a.jpg,148,0,148,,,,,j,1.6910458000020299,0.167287899999792,None,,,,,,,148,0,148,0,636.432348899998,,,,,,,,,,,,,,,,,,,,,,,,,,,,,,636.4174108000007,636.432348899998,636.9489702999999,636.915892099998,,,,,,,,,,,,,,,,,,,,,,636.9319087000003,636.9489702999999,636.9489702999999,636.9489702999999,639.9323498999984,j,1.6910458000020299,0.167287899999792,639.9323857999989,639.932394899999,None,,,,,,,,,,,,,,,,,00016,001,2025-11-08_17h23.18.303,MST_task,2024.2.2,60.00502842212357,2025-11-08 17h23.24.948456 +0530,
,Objects\157a.jpg,149,0,149,,,,,f,0.7242422000017541,0.15005010000095353,None,,,,,,,149,0,149,0,639.9489858999987,,,,,,,,,,,,,,,,,,,,,,,,,,,,,,639.9324844000002,639.9489858999987,640.4655564999994,640.4325442000008,,,,,,,,,,,,,,,,,,,,,,640.4490057000003,640.4655564999994,640.4655564999994,640.4655564999994,643.4489280000016,f,0.7242422000017541,0.15005010000095353,643.4489625999995,643.4489724999985,None,,,,,,,,,,,,,,,,,00016,001,2025-11-08_17h23.18.303,MST_task,2024.2.2,60.00502842212357,2025-11-08 17h23.24.948456 +0530,
,Objects\021a.jpg,150,0,150,,,,,None,,,f,2.4213693000019703,None,,,,,150,0,150,0,643.4654969000003,,,,,,,,,,,,,,,,,,,,,,,,,,,,,,643.4490891999994,643.4654969000003,643.9821520000005,643.9490538999999,,,,,,,,,,,,,,,,,,,,,,643.9655879999991,643.9821520000005,643.9821520000005,643.9821520000005,646.9656223999991,None,,,646.9656548999992,649.4157898000012,f,646.9821419,646.9821419,2.4213693000019703,None,,,,,,,,,,,,,00016,001,2025-11-08_17h23.18.303,MST_task,2024.2.2,60.00502842212357,2025-11-08 17h23.24.948456 +0530,
,Objects\093a.jpg,151,0,151,,,,,f,2.897450200001913,None,None,,,,,,,151,0,151,0,649.4320585999994,,,,,,,,,,,,,,,,,,,,,,,,,,,,,,649.415873599999,649.4320585999994,649.9487784999983,649.9155677999988,,,,,,,,,,,,,,,,,,,,,,649.9312671000007,649.9487784999983,649.9487784999983,649.9487784999983,652.9320312999989,f,2.897450200001913,None,652.9320671999994,652.9320780000016,None,,,,,,,,,,,,,,,,,00016,001,2025-11-08_17h23.18.303,MST_task,2024.2.2,60.00502842212357,2025-11-08 17h23.24.948456 +0530,
,Objects\187a.jpg,152,0,152,,,,,f,1.0762404000015522,0.16625260000000708,None,,,,,,,152,0,152,0,652.9486419999994,,,,,,,,,,,,,,,,,,,,,,,,,,,,,,652.9321342000003,652.9486419999994,653.4653059000011,653.4321383999995,,,,,,,,,,,,,,,,,,,,,,653.449284899998,653.4653059000011,653.4653059000011,653.4653059000011,656.4487053999983,f,1.0762404000015522,0.16625260000000708,656.4487455999988,656.4487566999996,None,,,,,,,,,,,,,,,,,00016,001,2025-11-08_17h23.18.303,MST_task,2024.2.2,60.00502842212357,2025-11-08 17h23.24.948456 +0530,
,Objects\034a.jpg,153,0,153,,,,,f,0.9263968999985082,0.12164359999951557,None,,,,,,,153,0,153,0,656.4652354999998,,,,,,,,,,,,,,,,,,,,,,,,,,,,,,656.4488595000003,656.4652354999998,656.9818625000007,656.9487114000003,,,,,,,,,,,,,,,,,,,,,,656.9652672000011,656.9818625000007,656.9818625000007,656.9818625000007,659.9652123000014,f,0.9263968999985082,0.12164359999951557,659.9652489,659.9652592999992,None,,,,,,,,,,,,,,,,,00016,001,2025-11-08_17h23.18.303,MST_task,2024.2.2,60.00502842212357,2025-11-08 17h23.24.948456 +0530,
,Scenes\137a.jpg,154,0,154,,,,,j,0.9714655000025232,0.17585820000022068,None,,,,,,,154,0,154,0,659.9817894000007,,,,,,,,,,,,,,,,,,,,,,,,,,,,,,659.9653502000001,659.9817894000007,660.498741200001,660.4653326000007,,,,,,,,,,,,,,,,,,,,,,660.4829036999981,660.498741200001,660.498741200001,660.498741200001,663.4817995000012,j,0.9714655000025232,0.17585820000022068,663.4829470000004,663.4829578999997,None,,,,,,,,,,,,,,,,,00016,001,2025-11-08_17h23.18.303,MST_task,2024.2.2,60.00502842212357,2025-11-08 17h23.24.948456 +0530,
,Scenes\038a.jpg,155,0,155,,,,,j,0.9888952999972389,0.14985190000152215,None,,,,,,,155,0,155,0,663.4984211999981,,,,,,,,,,,,,,,,,,,,,,,,,,,,,,663.4830416000004,663.4984211999981,664.0154633999991,663.9820206000004,,,,,,,,,,,,,,,,,,,,,,664.0012139999999,664.0154633999991,664.0154633999991,664.0154633999991,666.9983584000001,j,0.9888952999972389,0.14985190000152215,666.9983928000001,666.9984027999999,None,,,,,,,,,,,,,,,,,00016,001,2025-11-08_17h23.18.303,MST_task,2024.2.2,60.00502842212357,2025-11-08 17h23.24.948456 +0530,
,Scenes\181a.jpg,156,0,156,,,,,f,1.7808580999990227,0.1218780000017432,None,,,,,,,156,0,156,0,667.0150068000003,,,,,,,,,,,,,,,,,,,,,,,,,,,,,,666.998496199998,667.0150068000003,667.5486467999981,667.498446900001,,,,,,,,,,,,,,,,,,,,,,667.5298551999986,667.5486467999981,667.5486467999981,667.5486467999981,670.5149458999986,f,1.7808580999990227,0.1218780000017432,670.514989700001,670.5150002000009,None,,,,,,,,,,,,,,,,,00016,001,2025-11-08_17h23.18.303,MST_task,2024.2.2,60.00502842212357,2025-11-08 17h23.24.948456 +0530,
,Scenes\127a.jpg,157,0,157,,,,,j,1.2317130000010366,0.12827609999658307,None,,,,,,,157,0,157,0,670.5315943999994,,,,,,,,,,,,,,,,,,,,,,,,,,,,,,670.5150577999993,670.5315943999994,671.0485322999994,671.0152383999994,,,,,,,,,,,,,,,,,,,,,,671.0329870999994,671.0485322999994,671.0485322999994,671.0485322999994,674.0315580999995,j,1.2317130000010366,0.12827609999658307,674.0315918999986,674.0316012000003,None,,,,,,,,,,,,,,,,,00016,001,2025-11-08_17h23.18.303,MST_task,2024.2.2,60.00502842212357,2025-11-08 17h23.24.948456 +0530,
,Scenes\089a.jpg,158,0,158,,,,,j,1.7108017999998992,0.1407560999978159,None,,,,,,,158,0,158,0,674.0481792999999,,,,,,,,,,,,,,,,,,,,,,,,,,,,,,674.0317090999997,674.0481792999999,674.5648137999997,674.5316802999987,,,,,,,,,,,,,,,,,,,,,,674.5524861999984,674.5648137999997,674.5648137999997,674.5648137999997,677.5481550000004,j,1.7108017999998992,0.1407560999978159,677.548216799998,677.5482273999987,None,,,,,,,,,,,,,,,,,00016,001,2025-11-08_17h23.18.303,MST_task,2024.2.2,60.00502842212357,2025-11-08 17h23.24.948456 +0530,
,Scenes\173a.jpg,159,0,159,,,,,j,1.0924720000002708,0.14187279999896418,None,,,,,,,159,0,159,0,677.5647710000012,,,,,,,,,,,,,,,,,,,,,,,,,,,,,,677.5482895999994,677.5647710000012,678.0814653999987,678.0482601000003,,,,,,,,,,,,,,,,,,,,,,678.0668071,678.0814653999987,678.0814653999987,678.0814653999987,681.0647213000011,j,1.0924720000002708,0.14187279999896418,681.0647543000014,681.0647638999981,None,,,,,,,,,,,,,,,,,00016,001,2025-11-08_17h23.18.303,MST_task,2024.2.2,60.00502842212357,2025-11-08 17h23.24.948456 +0530,
,Scenes\123a.jpg,160,0,160,,,,,j,1.0855786000029184,0.1245147999979963,None,,,,,,,160,0,160,0,681.0813764999984,,,,,,,,,,,,,,,,,,,,,,,,,,,,,,681.0648217999988,681.0813764999984,681.5979866999987,681.5648637999984,,,,,,,,,,,,,,,,,,,,,,681.5811933000005,681.5979866999987,681.5979866999987,681.5979866999987,684.5813445999993,j,1.0855786000029184,0.1245147999979963,684.5813780999997,684.5813880999995,None,,,,,,,,,,,,,,,,,00016,001,2025-11-08_17h23.18.303,MST_task,2024.2.2,60.00502842212357,2025-11-08 17h23.24.948456 +0530,
,Objects\038a.jpg,161,0,161,,,,,f,2.061368999999104,0.13032229999953415,None,,,,,,,161,0,161,0,684.5979464000011,,,,,,,,,,,,,,,,,,,,,,,,,,,,,,684.5814944000012,684.5979464000011,685.1149332999994,685.0816120999989,,,,,,,,,,,,,,,,,,,,,,685.0992637999989,685.1149332999994,685.1149332999994,685.1149332999994,688.0979329000002,f,2.061368999999104,0.13032229999953415,688.0993777000003,688.0993888999983,None,,,,,,,,,,,,,,,,,00016,001,2025-11-08_17h23.18.303,MST_task,2024.2.2,60.00502842212357,2025-11-08 17h23.24.948456 +0530,
,Objects\139a.jpg,162,0,162,,,,,f,1.3425007999976515,0.14189510000142036,None,,,,,,,162,0,162,0,688.1145393000006,,,,,,,,,,,,,,,,,,,,,,,,,,,,,,688.0994705999983,688.1145393000006,688.6311695000004,688.5981294000012,,,,,,,,,,,,,,,,,,,,,,688.6135632000005,688.6311695000004,688.6311695000004,688.6311695000004,691.6145479000006,f,1.3425007999976515,0.14189510000142036,691.6145814999982,691.6145913,None,,,,,,,,,,,,,,,,,00016,001,2025-11-08_17h23.18.303,MST_task,2024.2.2,60.00502842212357,2025-11-08 17h23.24.948456 +0530,
,Objects\179a.jpg,163,0,163,,,,,f,1.8844083000003593,0.1499575999987428,None,,,,,,,163,0,163,0,691.6311272999992,,,,,,,,,,,,,,,,,,,,,,,,,,,,,,691.6146534,691.6311272999992,692.1477689999992,692.1146283999988,,,,,,,,,,,,,,,,,,,,,,692.1310464999988,692.1477689999992,692.1477689999992,692.1477689999992,695.1310898000011,f,1.8844083000003593,0.1499575999987428,695.1311425999993,695.1311529000013,None,,,,,,,,,,,,,,,,,00016,001,2025-11-08_17h23.18.303,MST_task,2024.2.2,60.00502842212357,2025-11-08 17h23.24.948456 +0530,
,Objects\033a.jpg,164,0,164,,,,,f,1.6375938999990467,0.14169790000232751,None,,,,,,,164,0,164,0,695.1476962000015,,,,,,,,,,,,,,,,,,,,,,,,,,,,,,695.1312450000005,695.1476962000015,695.6643457999999,695.631268699999,,,,,,,,,,,,,,,,,,,,,,695.6476421000007,695.6643457999999,695.6643457999999,695.6643457999999,698.6476423999993,f,1.6375938999990467,0.14169790000232751,698.6476761000013,698.6476862999989,None,,,,,,,,,,,,,,,,,00016,001,2025-11-08_17h23.18.303,MST_task,2024.2.2,60.00502842212357,2025-11-08 17h23.24.948456 +0530,
,Objects\009a.jpg,165,0,165,,,,,j,2.718084899999667,0.12040210000122897,None,,,,,,,165,0,165,0,698.6643101000009,,,,,,,,,,,,,,,,,,,,,,,,,,,,,,698.6477462000003,698.6643101000009,699.1809321000001,699.1478184000007,,,,,,,,,,,,,,,,,,,,,,699.1644181999982,699.1809321000001,699.1809321000001,699.1809321000001,702.1642251999983,j,2.718084899999667,0.12040210000122897,702.1642670000001,702.1642766000004,None,,,,,,,,,,,,,,,,,00016,001,2025-11-08_17h23.18.303,MST_task,2024.2.2,60.00502842212357,2025-11-08 17h23.24.948456 +0530,
,Objects\077a.jpg,166,0,166,,,,,j,2.0647456999977294,0.10007659999973839,None,,,,,,,166,0,166,0,702.1808964000011,,,,,,,,,,,,,,,,,,,,,,,,,,,,,,702.1643339000002,702.1808964000011,702.6975433000007,702.6644314000005,,,,,,,,,,,,,,,,,,,,,,702.6803652999988,702.6975433000007,702.6975433000007,702.6975433000007,705.6808218000006,j,2.0647456999977294,0.10007659999973839,705.6808579999997,705.6808679999995,None,,,,,,,,,,,,,,,,,00016,001,2025-11-08_17h23.18.303,MST_task,2024.2.2,60.00502842212357,2025-11-08 17h23.24.948456 +0530,
,Objects\100a.jpg,167,0,167,,,,,f,1.0374233000002278,0.15120240000032936,None,,,,,,,167,0,167,0,705.6974917000007,,,,,,,,,,,,,,,,,,,,,,,,,,,,,,705.6809571000013,705.6974917000007,706.2141172999982,706.1810140000016,,,,,,,,,,,,,,,,,,,,,,706.1965983000009,706.2141172999982,706.2141172999982,706.2141172999982,709.1974783000005,f,1.0374233000002278,0.15120240000032936,709.1975172999992,709.1975273999997,None,,,,,,,,,,,,,,,,,00016,001,2025-11-08_17h23.18.303,MST_task,2024.2.2,60.00502842212357,2025-11-08 17h23.24.948456 +0530,
,Scenes\153a.jpg,168,0,168,,,,,j,1.4444108999996388,0.13159559999985504,None,,,,,,,168,0,168,0,709.2140838000014,,,,,,,,,,,,,,,,,,,,,,,,,,,,,,709.197585599999,709.2140838000014,709.7311775999988,709.697630300001,,,,,,,,,,,,,,,,,,,,,,709.7143170999989,709.7311775999988,709.7311775999988,709.7311775999988,712.7140452999993,j,1.4444108999996388,0.13159559999985504,712.7153302000006,712.7153418999987,None,,,,,,,,,,,,,,,,,00016,001,2025-11-08_17h23.18.303,MST_task,2024.2.2,60.00502842212357,2025-11-08 17h23.24.948456 +0530,
,Scenes\169a.jpg,169,0,169,,,,,j,0.8711461999992025,0.10115390000282787,None,,,,,,,169,0,169,0,712.7306639999988,,,,,,,,,,,,,,,,,,,,,,,,,,,,,,712.7154300000002,712.7306639999988,713.2473234999998,713.2141946999982,,,,,,,,,,,,,,,,,,,,,,713.2257323000013,713.2473234999998,713.2473234999998,713.2473234999998,716.2307528999991,j,0.8711461999992025,0.10115390000282787,716.2307946000001,716.2308045999998,None,,,,,,,,,,,,,,,,,00016,001,2025-11-08_17h23.18.303,MST_task,2024.2.2,60.00502842212357,2025-11-08 17h23.24.948456 +0530,
,Scenes\068a.jpg,170,0,170,,,,,j,0.9048901999994996,0.1410780000005616,None,,,,,,,170,0,170,0,716.2472496999981,,,,,,,,,,,,,,,,,,,,,,,,,,,,,,716.2308727999989,716.2472496999981,716.7639123000008,716.7307873999998,,,,,,,,,,,,,,,,,,,,,,716.7490698000001,716.7639123000008,716.7639123000008,716.7639123000008,719.7472221999997,j,0.9048901999994996,0.1410780000005616,719.747258899999,719.7472688999987,None,,,,,,,,,,,,,,,,,00016,001,2025-11-08_17h23.18.303,MST_task,2024.2.2,60.00502842212357,2025-11-08 17h23.24.948456 +0530,
,Scenes\082a.jpg,171,0,171,,,,,f,1.8878556000017852,0.12089609999748063,None,,,,,,,171,0,171,0,719.7638493000013,,,,,,,,,,,,,,,,,,,,,,,,,,,,,,719.7473745999996,719.7638493000013,720.2971335000002,720.2473185999988,,,,,,,,,,,,,,,,,,,,,,720.2781409999989,720.2971335000002,720.2971335000002,720.2971335000002,723.2638058000011,f,1.8878556000017852,0.12089609999748063,723.2638394999994,723.2638488999983,None,,,,,,,,,,,,,,,,,00016,001,2025-11-08_17h23.18.303,MST_task,2024.2.2,60.00502842212357,2025-11-08 17h23.24.948456 +0530,
,Scenes\168a.jpg,172,0,172,,,,,j,1.0422257999998692,0.1440852999985509,None,,,,,,,172,0,172,0,723.2804055999986,,,,,,,,,,,,,,,,,,,,,,,,,,,,,,723.2639334000014,723.2804055999986,,723.7639006999998,,,,,,,,,,,,,,,,,,,,,,723.779147199999,723.7972928999989,723.7972928999989,723.7972928999989,726.7805050999996,j,1.0422257999998692,0.1440852999985509,726.7805416999981,726.7805499999995,None,,,,,,,,,,,,,,,,,00016,001,2025-11-08_17h23.18.303,MST_task,2024.2.2,60.00502842212357,2025-11-08 17h23.24.948456 +0530,
