thisN,thisTrialN,thisRepN,key_resp_3.keys,key_resp_3.rt,key_resp_3.duration,trials.thisRepN,trials.thisTrialN,trials.thisN,trials.thisIndex,thisRow.t,notes,intro_page.started,text.started,key_resp.started,intro_page.stopped,key_resp.keys,key_resp.rt,key_resp.duration,instructions.started,text_2.started,key_resp_2.started,instructions.stopped,key_resp_2.keys,key_resp_2.rt,key_resp_2.duration,demo1.started,image_1.started,image_2.started,text_7.started,key_resp_6.started,text_9.started,demo1.stopped,key_resp_6.keys,key_resp_6.rt,key_resp_6.duration,demo2.started,image_5.started,image_6.started,text_11.started,text_12.started,key_resp_8.started,demo2.stopped,key_resp_8.keys,key_resp_8.rt,key_resp_8.duration,demo_conclusion.started,text_13.started,key_resp_9.started,demo_conclusion.stopped,key_resp_9.keys,key_resp_9.rt,key_resp_9.duration,start_test.started,text_6.started,key_resp_5.started,start_test.stopped,key_resp_5.keys,key_resp_5.rt,key_resp_5.duration,ISI.started,text_4.started,text_4.stopped,ISI.stopped,routine_1.started,image.started,text_3.started,key_resp_3.started,routine_1.stopped,image_path,position_of_stimuli,trials.key_resp_3.keys,trials.key_resp_3.rt,trials.key_resp_3.duration,End_page.started,text_5.started,key_resp_4.started,participant,session,date,expName,psychopyVersion,frameRate,expStart,
,,,,,,,,,,,,0.015831199998501688,0.03218209999977262,0.03218209999977262,2.5339222000002337,space,2.4928894999975455,None,,,,,,,,,,,,,,,,,,,,,,,,,,,,,,,,,,,,,,,,,,,,,,,,,,,,,,,,,,,00016,001,2025-11-08_17h48.07.404,MST_test,2024.2.2,59.99347271066572,2025-11-08 17h48.13.798178 +0530,
,,,,,,,,,,,,,,,,,,,2.5339487999990524,2.5488064999990456,2.5488064999990456,13.399020599998039,space,10.839808599997923,None,,,,,,,,,,,,,,,,,,,,,,,,,,,,,,,,,,,,,,,,,,,,,,,,,,,,00016,001,2025-11-08_17h48.07.404,MST_test,2024.2.2,59.99347271066572,2025-11-08 17h48.13.798178 +0530,
,,,,,,,,,,,,,,,,,,,,,,,,,,13.39904480000041,13.415284599999723,13.415284599999723,13.415284599999723,13.415284599999723,13.415284599999723,17.232182499999908,space,3.807463799999823,None,,,,,,,,,,,,,,,,,,,,,,,,,,,,,,,,,,,,,,,,,,00016,001,2025-11-08_17h48.07.404,MST_test,2024.2.2,59.99347271066572,2025-11-08 17h48.13.798178 +0530,
,,,,,,,,,,,,,,,,,,,,,,,,,,,,,,,,,,,,17.232209699999657,17.248410199998034,17.248410199998034,17.248410199998034,17.248410199998034,17.248410199998034,19.032137800000783,space,1.7819286999983888,None,,,,,,,,,,,,,,,,,,,,,,,,,,,,,,,,00016,001,2025-11-08_17h48.07.404,MST_test,2024.2.2,59.99347271066572,2025-11-08 17h48.13.798178 +0530,
,,,,,,,,,,,,,,,,,,,,,,,,,,,,,,,,,,,,,,,,,,,,,,19.032164000000193,19.04838319999908,19.04838319999908,31.281878199999483,space,12.220227900001191,None,,,,,,,,,,,,,,,,,,,,,,,,,00016,001,2025-11-08_17h48.07.404,MST_test,2024.2.2,59.99347271066572,2025-11-08 17h48.13.798178 +0530,
,,,,,,,,,,,,,,,,,,,,,,,,,,,,,,,,,,,,,,,,,,,,,,,,,,,,,31.28190679999898,31.298083900001075,31.298083900001075,45.914680699999735,space,14.600791199998639,None,,,,,,,,,,,,,,,,,,00016,001,2025-11-08_17h48.07.404,MST_test,2024.2.2,59.99347271066572,2025-11-08 17h48.13.798178 +0530,
0,0,0,s,2.0363547000015387,None,0,0,0,0,45.931162900000345,,,,,,,,,,,,,,,,,,,,,,,,,,,,,,,,,,,,,,,,,,,,,,,,,,45.91763549999814,45.931162900000345,46.46462429999883,46.41459440000108,46.4474369999989,46.46462429999883,46.46462429999883,46.46462429999883,48.51465900000039,Scenes\044b.jpg,pre,s,2.0363547000015387,None,,,,00016,001,2025-11-08_17h48.07.404,MST_test,2024.2.2,59.99347271066572,2025-11-08 17h48.13.798178 +0530,
1,0,1,o,1.9817892000028223,None,1,0,1,0,48.53104259999964,,,,,,,,,,,,,,,,,,,,,,,,,,,,,,,,,,,,,,,,,,,,,,,,,,48.51473609999812,48.53104259999964,49.03116130000126,49.01461819999895,49.02449400000114,49.03116130000126,49.03116130000126,49.03116130000126,51.01467720000073,Objects\150a.jpg,post,o,1.9817892000028223,None,,,,00016,001,2025-11-08_17h48.07.404,MST_test,2024.2.2,59.99347271066572,2025-11-08 17h48.13.798178 +0530,
2,0,2,s,1.6482247999992978,None,2,0,2,0,51.030972000000475,,,,,,,,,,,,,,,,,,,,,,,,,,,,,,,,,,,,,,,,,,,,,,,,,,51.01476619999812,51.030972000000475,51.530960699998104,51.51448579999851,51.52456449999954,51.530960699998104,51.530960699998104,51.530960699998104,53.181262699999934,Objects\104a.jpg,mid,s,1.6482247999992978,None,,,,00016,001,2025-11-08_17h48.07.404,MST_test,2024.2.2,59.99347271066572,2025-11-08 17h48.13.798178 +0530,
3,0,3,s,2.1379892000004475,None,3,0,3,0,53.197619399998075,,,,,,,,,,,,,,,,,,,,,,,,,,,,,,,,,,,,,,,,,,,,,,,,,,53.18134120000104,53.197619399998075,53.714307199999894,53.68110080000042,53.69709789999979,53.714307199999894,53.714307199999894,53.714307199999894,55.86460570000054,Objects\099b.jpg,post,s,2.1379892000004475,None,,,,00016,001,2025-11-08_17h48.07.404,MST_test,2024.2.2,59.99347271066572,2025-11-08 17h48.13.798178 +0530,
4,0,4,n,2.0856806999981927,None,4,0,4,0,55.88090269999884,,,,,,,,,,,,,,,,,,,,,,,,,,,,,,,,,,,,,,,,,,,,,,,,,,55.86469020000004,55.88090269999884,56.38104939999903,56.364506699999765,56.37661060000028,56.38104939999903,56.38104939999903,56.38104939999903,58.48112929999843,Foils\scenes13.jpg,none,n,2.0856806999981927,None,,,,00016,001,2025-11-08_17h48.07.404,MST_test,2024.2.2,59.99347271066572,2025-11-08 17h48.13.798178 +0530,
5,0,5,o,1.8148499000017182,None,5,0,5,0,58.49750109999877,,,,,,,,,,,,,,,,,,,,,,,,,,,,,,,,,,,,,,,,,,,,,,,,,,58.4812228999981,58.49750109999877,58.99754549999852,58.98102690000087,58.99163839999892,58.99754549999852,58.99754549999852,58.99754549999852,60.81451449999804,Scenes\166a.jpg,mid,o,1.8148499000017182,None,,,,00016,001,2025-11-08_17h48.07.404,MST_test,2024.2.2,59.99347271066572,2025-11-08 17h48.13.798178 +0530,
6,0,6,o,2.6202072000014596,None,6,0,6,0,60.830790299998625,,,,,,,,,,,,,,,,,,,,,,,,,,,,,,,,,,,,,,,,,,,,,,,,,,60.81460069999957,60.830790299998625,61.33074149999811,61.3143553000009,61.3254511999985,61.33074149999811,61.33074149999811,61.33074149999811,63.96447579999949,Objects\142a.jpg,mid,o,2.6202072000014596,None,,,,00016,001,2025-11-08_17h48.07.404,MST_test,2024.2.2,59.99347271066572,2025-11-08 17h48.13.798178 +0530,
7,0,7,s,2.3504565000002913,None,7,0,7,0,63.980733899999905,,,,,,,,,,,,,,,,,,,,,,,,,,,,,,,,,,,,,,,,,,,,,,,,,,63.964551400000346,63.980733899999905,64.49738290000096,64.4643419999993,64.48494990000108,64.49738290000096,64.49738290000096,64.49738290000096,66.86430990000008,Scenes\182b.jpg,post,s,2.3504565000002913,None,,,,00016,001,2025-11-08_17h48.07.404,MST_test,2024.2.2,59.99347271066572,2025-11-08 17h48.13.798178 +0530,
8,0,8,o,1.689771400000609,None,8,0,8,0,66.88065899999856,,,,,,,,,,,,,,,,,,,,,,,,,,,,,,,,,,,,,,,,,,,,,,,,,,66.86439800000153,66.88065899999856,67.38066419999814,67.3642585000016,67.37494919999881,67.38066419999814,67.38066419999814,67.38066419999814,69.08089739999923,Objects\034a.jpg,pre,o,1.689771400000609,None,,,,00016,001,2025-11-08_17h48.07.404,MST_test,2024.2.2,59.99347271066572,2025-11-08 17h48.13.798178 +0530,
9,0,9,n,1.8015829000032682,None,9,0,9,0,69.0972804999983,,,,,,,,,,,,,,,,,,,,,,,,,,,,,,,,,,,,,,,,,,,,,,,,,,69.0809889000011,69.0972804999983,69.59700840000005,69.58071740000014,69.59335369999826,69.59700840000005,69.59700840000005,69.59700840000005,71.41423519999807,Foils\scenes20.jpg,none,n,1.8015829000032682,None,,,,00016,001,2025-11-08_17h48.07.404,MST_test,2024.2.2,59.99347271066572,2025-11-08 17h48.13.798178 +0530,
10,0,10,n,1.6936921999986225,None,10,0,10,0,71.43055539999841,,,,,,,,,,,,,,,,,,,,,,,,,,,,,,,,,,,,,,,,,,,,,,,,,,71.41431870000088,71.43055539999841,71.93069990000004,71.91405170000144,71.92323929999839,71.93069990000004,71.93069990000004,71.93069990000004,73.63081629999942,Scenes\192a.jpg,post,n,1.6936921999986225,None,,,,00016,001,2025-11-08_17h48.07.404,MST_test,2024.2.2,59.99347271066572,2025-11-08 17h48.13.798178 +0530,
11,0,11,o,1.6033102000001236,None,11,0,11,0,73.64717649999875,,,,,,,,,,,,,,,,,,,,,,,,,,,,,,,,,,,,,,,,,,,,,,,,,,73.63089989999935,73.64717649999875,74.14713080000001,74.13065170000118,74.14042999999947,74.14713080000001,74.14713080000001,74.14713080000001,75.76409250000142,Objects\125a.jpg,pre,o,1.6033102000001236,None,,,,00016,001,2025-11-08_17h48.07.404,MST_test,2024.2.2,59.99347271066572,2025-11-08 17h48.13.798178 +0530,
12,0,12,n,1.3545360999996774,None,12,0,12,0,75.78046940000058,,,,,,,,,,,,,,,,,,,,,,,,,,,,,,,,,,,,,,,,,,,,,,,,,,75.76417990000118,75.78046940000058,76.29673399999956,76.26400899999862,76.29370610000115,76.29673399999956,76.29673399999956,76.29673399999956,77.66402160000143,Foils\002a.jpg,none,n,1.3545360999996774,None,,,,00016,001,2025-11-08_17h48.07.404,MST_test,2024.2.2,59.99347271066572,2025-11-08 17h48.13.798178 +0530,
13,0,13,s,3.8961982000000717,None,13,0,13,0,77.68042680000144,,,,,,,,,,,,,,,,,,,,,,,,,,,,,,,,,,,,,,,,,,,,,,,,,,77.66410669999823,77.68042680000144,78.21403880000071,78.16397000000143,78.19272439999986,78.21403880000071,78.21403880000071,78.21403880000071,82.11395830000038,Scenes\082b.jpg,mid,s,3.8961982000000717,None,,,,00016,001,2025-11-08_17h48.07.404,MST_test,2024.2.2,59.99347271066572,2025-11-08 17h48.13.798178 +0530,
14,0,14,o,1.518477099998563,None,14,0,14,0,82.13035099999979,,,,,,,,,,,,,,,,,,,,,,,,,,,,,,,,,,,,,,,,,,,,,,,,,,82.11403879999853,82.13035099999979,82.63028119999944,82.61388829999851,82.62368229999993,82.63028119999944,82.63028119999944,82.63028119999944,84.16389960000015,Objects\129a.jpg,mid,o,1.518477099998563,None,,,,00016,001,2025-11-08_17h48.07.404,MST_test,2024.2.2,59.99347271066572,2025-11-08 17h48.13.798178 +0530,
15,0,15,o,3.9166484999987006,None,15,0,15,0,84.1802432000004,,,,,,,,,,,,,,,,,,,,,,,,,,,,,,,,,,,,,,,,,,,,,,,,,,84.1639757999983,84.1802432000004,84.69692370000121,84.66379750000124,84.67671820000032,84.69692370000121,84.69692370000121,84.69692370000121,88.61396640000021,Scenes\113a.jpg,post,o,3.9166484999987006,None,,,,00016,001,2025-11-08_17h48.07.404,MST_test,2024.2.2,59.99347271066572,2025-11-08 17h48.13.798178 +0530,
16,0,16,s,2.596024499998748,None,16,0,16,0,88.63017820000096,,,,,,,,,,,,,,,,,,,,,,,,,,,,,,,,,,,,,,,,,,,,,,,,,,88.61405770000056,88.63017820000096,89.13013320000027,89.11370549999992,89.12349890000041,89.13013320000027,89.13013320000027,89.13013320000027,91.73053609999988,Objects\153a.jpg,mid,s,2.596024499998748,None,,,,00016,001,2025-11-08_17h48.07.404,MST_test,2024.2.2,59.99347271066572,2025-11-08 17h48.13.798178 +0530,
17,0,17,n,1.6406079000007594,None,17,0,17,0,91.74680900000021,,,,,,,,,,,,,,,,,,,,,,,,,,,,,,,,,,,,,,,,,,,,,,,,,,91.7306213999982,91.74680900000021,92.2636053999995,92.23028400000112,92.25478949999888,92.2636053999995,92.2636053999995,92.2636053999995,93.91377590000047,Foils\scenes11.jpg,none,n,1.6406079000007594,None,,,,00016,001,2025-11-08_17h48.07.404,MST_test,2024.2.2,59.99347271066572,2025-11-08 17h48.13.798178 +0530,
18,0,18,o,1.4333656000017072,None,18,0,18,0,93.93005350000021,,,,,,,,,,,,,,,,,,,,,,,,,,,,,,,,,,,,,,,,,,,,,,,,,,93.91385789999913,93.93005350000021,94.43005220000123,94.41362269999809,94.42378929999904,94.43005220000123,94.43005220000123,94.43005220000123,95.86382189999858,Objects\144a.jpg,post,o,1.4333656000017072,None,,,,00016,001,2025-11-08_17h48.07.404,MST_test,2024.2.2,59.99347271066572,2025-11-08 17h48.13.798178 +0530,
19,0,19,s,2.6217187000002014,None,19,0,19,0,95.88002789999882,,,,,,,,,,,,,,,,,,,,,,,,,,,,,,,,,,,,,,,,,,,,,,,,,,95.86390350000147,95.88002789999882,96.3966795999986,96.36351840000134,96.38682279999921,96.3966795999986,96.3966795999986,96.3966795999986,99.03025880000132,Foils\057a.jpg,none,s,2.6217187000002014,None,,,,00016,001,2025-11-08_17h48.07.404,MST_test,2024.2.2,59.99347271066572,2025-11-08 17h48.13.798178 +0530,
20,0,20,o,2.19961880000119,None,20,0,20,0,99.04661470000065,,,,,,,,,,,,,,,,,,,,,,,,,,,,,,,,,,,,,,,,,,,,,,,,,,99.03035480000108,99.04661470000065,99.54685790000076,99.53016629999911,99.53963509999812,99.54685790000076,99.54685790000076,99.54685790000076,101.74703130000125,Scenes\139a.jpg,mid,o,2.19961880000119,None,,,,00016,001,2025-11-08_17h48.07.404,MST_test,2024.2.2,59.99347271066572,2025-11-08 17h48.13.798178 +0530,
21,0,21,o,3.217573900001298,None,21,0,21,0,101.7632272999981,,,,,,,,,,,,,,,,,,,,,,,,,,,,,,,,,,,,,,,,,,,,,,,,,,101.7471183000016,101.7632272999981,102.29671310000049,102.24683780000123,102.2753847999993,102.29671310000049,102.29671310000049,102.29671310000049,105.53008100000079,Scenes\040b.jpg,pre,o,3.217573900001298,None,,,,00016,001,2025-11-08_17h48.07.404,MST_test,2024.2.2,59.99347271066572,2025-11-08 17h48.13.798178 +0530,
22,0,22,o,2.4743892999977106,None,22,0,22,0,105.54652089999945,,,,,,,,,,,,,,,,,,,,,,,,,,,,,,,,,,,,,,,,,,,,,,,,,,105.5301612000003,105.54652089999945,106.04669160000049,106.02994970000145,106.0402197000003,106.04669160000049,106.04669160000049,106.04669160000049,108.53011770000012,Objects\103a.jpg,post,o,2.4743892999977106,None,,,,00016,001,2025-11-08_17h48.07.404,MST_test,2024.2.2,59.99347271066572,2025-11-08 17h48.13.798178 +0530,
23,0,23,o,2.5130165000009583,None,23,0,23,0,108.54637920000096,,,,,,,,,,,,,,,,,,,,,,,,,,,,,,,,,,,,,,,,,,,,,,,,,,108.5301991999986,108.54637920000096,109.06330149999849,109.02990209999916,109.04600370000117,109.06330149999849,109.06330149999849,109.06330149999849,111.57997270000124,Scenes\020a.jpg,mid,o,2.5130165000009583,None,,,,00016,001,2025-11-08_17h48.07.404,MST_test,2024.2.2,59.99347271066572,2025-11-08 17h48.13.798178 +0530,
24,0,24,o,3.345352600001206,None,24,0,24,0,111.59634809999989,,,,,,,,,,,,,,,,,,,,,,,,,,,,,,,,,,,,,,,,,,,,,,,,,,111.58005960000082,111.59634809999989,112.11333739999827,112.07982479999919,112.09285649999947,112.11333739999827,112.11333739999827,112.11333739999827,115.46336599999995,Scenes\027a.jpg,mid,o,3.345352600001206,None,,,,00016,001,2025-11-08_17h48.07.404,MST_test,2024.2.2,59.99347271066572,2025-11-08 17h48.13.798178 +0530,
25,0,25,s,1.9196217999997316,None,25,0,25,0,115.47959320000155,,,,,,,,,,,,,,,,,,,,,,,,,,,,,,,,,,,,,,,,,,,,,,,,,,115.46346149999954,115.47959320000155,116.01306919999843,115.96318690000044,115.99108770000021,116.01306919999843,116.01306919999843,116.01306919999843,117.94651819999854,Scenes\031b.jpg,mid,s,1.9196217999997316,None,,,,00016,001,2025-11-08_17h48.07.404,MST_test,2024.2.2,59.99347271066572,2025-11-08 17h48.13.798178 +0530,
26,0,26,n,2.04875919999904,None,26,0,26,0,117.96287039999879,,,,,,,,,,,,,,,,,,,,,,,,,,,,,,,,,,,,,,,,,,,,,,,,,,117.94660250000015,117.96287039999879,118.47952209999858,118.44644540000081,118.45822720000069,118.47952209999858,118.47952209999858,118.47952209999858,120.52978129999974,Scenes\177a.jpg,post,n,2.04875919999904,None,,,,00016,001,2025-11-08_17h48.07.404,MST_test,2024.2.2,59.99347271066572,2025-11-08 17h48.13.798178 +0530,
27,0,27,n,2.086725299999671,None,27,0,27,0,120.54614500000025,,,,,,,,,,,,,,,,,,,,,,,,,,,,,,,,,,,,,,,,,,,,,,,,,,120.52985880000051,120.54614500000025,121.04630220000035,121.02961439999854,121.04014470000038,121.04630220000035,121.04630220000035,121.04630220000035,123.14633419999882,Objects\183a.jpg,pre,n,2.086725299999671,None,,,,00016,001,2025-11-08_17h48.07.404,MST_test,2024.2.2,59.99347271066572,2025-11-08 17h48.13.798178 +0530,
28,0,28,o,3.8417182000011962,None,28,0,28,0,123.16275640000094,,,,,,,,,,,,,,,,,,,,,,,,,,,,,,,,,,,,,,,,,,,,,,,,,,123.146407799999,123.16275640000094,123.6627554000006,123.64634149999983,123.65601909999896,123.6627554000006,123.6627554000006,123.6627554000006,127.51302249999935,Objects\115a.jpg,pre,o,3.8417182000011962,None,,,,00016,001,2025-11-08_17h48.07.404,MST_test,2024.2.2,59.99347271066572,2025-11-08 17h48.13.798178 +0530,
29,0,29,s,3.155105800000456,None,29,0,29,0,127.5293500000007,,,,,,,,,,,,,,,,,,,,,,,,,,,,,,,,,,,,,,,,,,,,,,,,,,127.51310379999995,127.5293500000007,128.04594499999803,128.0128024000005,128.03879919999963,128.04594499999803,128.04594499999803,128.04594499999803,131.21313069999815,Objects\017b.jpg,post,s,3.155105800000456,None,,,,00016,001,2025-11-08_17h48.07.404,MST_test,2024.2.2,59.99347271066572,2025-11-08 17h48.13.798178 +0530,
30,0,30,o,1.5092624999997497,None,30,0,30,0,131.22929939999813,,,,,,,,,,,,,,,,,,,,,,,,,,,,,,,,,,,,,,,,,,,,,,,,,,131.21321259999968,131.22929939999813,131.74586909999925,131.71270210000148,131.7258140999984,131.74586909999925,131.74586909999925,131.74586909999925,133.26285500000085,Scenes\084a.jpg,mid,o,1.5092624999997497,None,,,,00016,001,2025-11-08_17h48.07.404,MST_test,2024.2.2,59.99347271066572,2025-11-08 17h48.13.798178 +0530,
31,0,31,s,4.320589599999948,None,31,0,31,0,133.27919910000128,,,,,,,,,,,,,,,,,,,,,,,,,,,,,,,,,,,,,,,,,,,,,,,,,,133.26293779999833,133.27919910000128,133.7960137000009,133.76278549999915,133.7797200999994,133.7960137000009,133.7960137000009,133.7960137000009,138.1294334000013,Scenes\123b.jpg,pre,s,4.320589599999948,None,,,,00016,001,2025-11-08_17h48.07.404,MST_test,2024.2.2,59.99347271066572,2025-11-08 17h48.13.798178 +0530,
32,0,32,o,1.4029785000020638,None,32,0,32,0,138.1457636999985,,,,,,,,,,,,,,,,,,,,,,,,,,,,,,,,,,,,,,,,,,,,,,,,,,138.12951600000088,138.1457636999985,138.64589530000012,138.62933229999908,138.64049259999956,138.64589530000012,138.64589530000012,138.64589530000012,140.06264459999875,Objects\117a.jpg,pre,o,1.4029785000020638,None,,,,00016,001,2025-11-08_17h48.07.404,MST_test,2024.2.2,59.99347271066572,2025-11-08 17h48.13.798178 +0530,
33,0,33,s,3.3798381999986304,None,33,0,33,0,140.07904829999825,,,,,,,,,,,,,,,,,,,,,,,,,,,,,,,,,,,,,,,,,,,,,,,,,,140.06272510000053,140.07904829999825,140.61261250000098,140.5624859999989,140.59818839999934,140.61261250000098,140.61261250000098,140.61261250000098,143.99596029999884,Scenes\045b.jpg,mid,s,3.3798381999986304,None,,,,00016,001,2025-11-08_17h48.07.404,MST_test,2024.2.2,59.99347271066572,2025-11-08 17h48.13.798178 +0530,
34,0,34,o,1.361437499999738,None,34,0,34,0,144.01229880000028,,,,,,,,,,,,,,,,,,,,,,,,,,,,,,,,,,,,,,,,,,,,,,,,,,143.9960433999986,144.01229880000028,144.52919359999942,144.49577190000127,144.5077573999988,144.52919359999942,144.52919359999942,144.52919359999942,145.8958414000008,Scenes\093a.jpg,pre,o,1.361437499999738,None,,,,00016,001,2025-11-08_17h48.07.404,MST_test,2024.2.2,59.99347271066572,2025-11-08 17h48.13.798178 +0530,
35,0,35,s,2.8851238999995985,None,35,0,35,0,145.91224389999843,,,,,,,,,,,,,,,,,,,,,,,,,,,,,,,,,,,,,,,,,,,,,,,,,,145.8959251999986,145.91224389999843,146.44579030000023,146.3957358000007,146.42740409999897,146.44579030000023,146.44579030000023,146.44579030000023,149.3458027000015,Scenes\067b.jpg,mid,s,2.8851238999995985,None,,,,00016,001,2025-11-08_17h48.07.404,MST_test,2024.2.2,59.99347271066572,2025-11-08 17h48.13.798178 +0530,
36,0,36,s,4.8214924999992945,None,36,0,36,0,149.36217879999822,,,,,,,,,,,,,,,,,,,,,,,,,,,,,,,,,,,,,,,,,,,,,,,,,,149.3458952000001,149.36217879999822,149.87905590000082,149.84568560000116,149.86175730000105,149.87905590000082,149.87905590000082,149.87905590000082,154.7124361999995,Objects\028b.jpg,pre,s,4.8214924999992945,None,,,,00016,001,2025-11-08_17h48.07.404,MST_test,2024.2.2,59.99347271066572,2025-11-08 17h48.13.798178 +0530,
37,0,37,o,1.592557100000704,None,37,0,37,0,154.72872759999882,,,,,,,,,,,,,,,,,,,,,,,,,,,,,,,,,,,,,,,,,,,,,,,,,,154.71252119999917,154.72872759999882,155.26234269999986,155.2122632999999,155.24370070000077,155.26234269999986,155.26234269999986,155.26234269999986,156.86233730000095,Scenes\126b.jpg,mid,o,1.592557100000704,None,,,,00016,001,2025-11-08_17h48.07.404,MST_test,2024.2.2,59.99347271066572,2025-11-08 17h48.13.798178 +0530,
38,0,38,s,1.5765590999981214,None,38,0,38,0,156.87868239999807,,,,,,,,,,,,,,,,,,,,,,,,,,,,,,,,,,,,,,,,,,,,,,,,,,156.86242050000146,156.87868239999807,157.37863410000136,157.36215489999813,157.37352530000135,157.37863410000136,157.37863410000136,157.37863410000136,158.9622445999994,Objects\043a.jpg,pre,s,1.5765590999981214,None,,,,00016,001,2025-11-08_17h48.07.404,MST_test,2024.2.2,59.99347271066572,2025-11-08 17h48.13.798178 +0530,
39,0,39,n,1.8418498999999429,None,39,0,39,0,158.97862959999838,,,,,,,,,,,,,,,,,,,,,,,,,,,,,,,,,,,,,,,,,,,,,,,,,,158.96233120000034,158.97862959999838,159.47884550000163,159.46214880000116,159.47429769999871,159.47884550000163,159.47884550000163,159.47884550000163,161.3288379000005,Foils\scenes12.jpg,none,n,1.8418498999999429,None,,,,00016,001,2025-11-08_17h48.07.404,MST_test,2024.2.2,59.99347271066572,2025-11-08 17h48.13.798178 +0530,
40,0,40,s,4.307340800001839,None,40,0,40,0,161.34527399999934,,,,,,,,,,,,,,,,,,,,,,,,,,,,,,,,,,,,,,,,,,,,,,,,,,161.32892029999857,161.34527399999934,161.86188720000064,161.8287191999989,161.84842729999946,161.86188720000064,161.86188720000064,161.86188720000064,166.17885970000134,Foils\scenes29.jpg,none,s,4.307340800001839,None,,,,00016,001,2025-11-08_17h48.07.404,MST_test,2024.2.2,59.99347271066572,2025-11-08 17h48.13.798178 +0530,
41,0,41,o,1.5545736999993096,None,41,0,41,0,166.195143500001,,,,,,,,,,,,,,,,,,,,,,,,,,,,,,,,,,,,,,,,,,,,,,,,,,166.17893959999856,166.195143500001,166.72864610000033,166.67866979999962,166.70949219999966,166.72864610000033,166.72864610000033,166.72864610000033,168.29558669999824,Scenes\010b.jpg,pre,o,1.5545736999993096,None,,,,00016,001,2025-11-08_17h48.07.404,MST_test,2024.2.2,59.99347271066572,2025-11-08 17h48.13.798178 +0530,
42,0,42,n,1.8123444999982894,None,42,0,42,0,168.31173729999864,,,,,,,,,,,,,,,,,,,,,,,,,,,,,,,,,,,,,,,,,,,,,,,,,,168.29568830000062,168.31173729999864,168.86197790000006,168.7952809999988,168.8410847999985,168.86197790000006,168.86197790000006,168.86197790000006,170.6786882000015,Foils\scenes23.jpg,none,n,1.8123444999982894,None,,,,00016,001,2025-11-08_17h48.07.404,MST_test,2024.2.2,59.99347271066572,2025-11-08 17h48.13.798178 +0530,
43,0,43,o,1.1904159000005166,None,43,0,43,0,170.69501390000005,,,,,,,,,,,,,,,,,,,,,,,,,,,,,,,,,,,,,,,,,,,,,,,,,,170.67877790000057,170.69501390000005,171.2286611999989,171.17852370000037,171.2204572999981,171.2286611999989,171.2286611999989,171.2286611999989,172.42860970000038,Scenes\046b.jpg,pre,o,1.1904159000005166,None,,,,00016,001,2025-11-08_17h48.07.404,MST_test,2024.2.2,59.99347271066572,2025-11-08 17h48.13.798178 +0530,
44,0,44,o,3.3786422000011953,None,44,0,44,0,172.44496870000148,,,,,,,,,,,,,,,,,,,,,,,,,,,,,,,,,,,,,,,,,,,,,,,,,,172.42869599999904,172.44496870000148,172.9453184999984,172.92849550000028,172.93828230000145,172.9453184999984,172.9453184999984,172.9453184999984,176.32861950000006,Objects\064a.jpg,pre,o,3.3786422000011953,None,,,,00016,001,2025-11-08_17h48.07.404,MST_test,2024.2.2,59.99347271066572,2025-11-08 17h48.13.798178 +0530,
45,0,45,o,2.2583415000008245,None,45,0,45,0,176.34492429999955,,,,,,,,,,,,,,,,,,,,,,,,,,,,,,,,,,,,,,,,,,,,,,,,,,176.32869519999804,176.34492429999955,176.8786156999995,176.82849859999988,176.86233720000018,176.8786156999995,176.8786156999995,176.8786156999995,179.1451124999985,Scenes\104b.jpg,post,o,2.2583415000008245,None,,,,00016,001,2025-11-08_17h48.07.404,MST_test,2024.2.2,59.99347271066572,2025-11-08 17h48.13.798178 +0530,
46,0,46,n,1.4768552000023192,None,46,0,46,0,179.1615230999996,,,,,,,,,,,,,,,,,,,,,,,,,,,,,,,,,,,,,,,,,,,,,,,,,,179.14519870000004,179.1615230999996,179.678173100001,179.64509840000028,179.66096040000048,179.678173100001,179.678173100001,179.678173100001,181.16181750000032,Foils\093b.jpg,none,n,1.4768552000023192,None,,,,00016,001,2025-11-08_17h48.07.404,MST_test,2024.2.2,59.99347271066572,2025-11-08 17h48.13.798178 +0530,
47,0,47,o,4.901259300000675,None,47,0,47,0,181.1781486,,,,,,,,,,,,,,,,,,,,,,,,,,,,,,,,,,,,,,,,,,,,,,,,,,181.16191030000118,181.1781486,181.71169759999975,181.66167610000048,181.69885860000068,181.71169759999975,181.71169759999975,181.71169759999975,186.62841330000083,Scenes\071b.jpg,mid,o,4.901259300000675,None,,,,00016,001,2025-11-08_17h48.07.404,MST_test,2024.2.2,59.99347271066572,2025-11-08 17h48.13.798178 +0530,
48,0,48,s,3.419103100000939,None,48,0,48,0,186.64466040000116,,,,,,,,,,,,,,,,,,,,,,,,,,,,,,,,,,,,,,,,,,,,,,,,,,186.6284943999999,186.64466040000116,187.1613455000006,187.1281753000003,187.14460250000047,187.1613455000006,187.1613455000006,187.1613455000006,190.5949585999988,Objects\072b.jpg,mid,s,3.419103100000939,None,,,,00016,001,2025-11-08_17h48.07.404,MST_test,2024.2.2,59.99347271066572,2025-11-08 17h48.13.798178 +0530,
49,0,49,n,1.201673399998981,None,49,0,49,0,190.61126909999803,,,,,,,,,,,,,,,,,,,,,,,,,,,,,,,,,,,,,,,,,,,,,,,,,,190.59504129999914,190.61126909999803,191.14459609999903,191.0948763999986,191.1329807000002,191.14459609999903,191.14459609999903,191.14459609999903,192.36160879999807,Foils\scenes27.jpg,none,n,1.201673399998981,None,,,,00016,001,2025-11-08_17h48.07.404,MST_test,2024.2.2,59.99347271066572,2025-11-08 17h48.13.798178 +0530,
50,0,50,n,1.5527634999998554,None,50,0,50,0,192.37789949999933,,,,,,,,,,,,,,,,,,,,,,,,,,,,,,,,,,,,,,,,,,,,,,,,,,192.36169119999977,192.37789949999933,192.89453869999852,192.86142269999982,192.87825499999963,192.89453869999852,192.89453869999852,192.89453869999852,194.46170379999967,Foils\121a.jpg,none,n,1.5527634999998554,None,,,,00016,001,2025-11-08_17h48.07.404,MST_test,2024.2.2,59.99347271066572,2025-11-08 17h48.13.798178 +0530,
51,0,51,n,1.5823364999996556,None,51,0,51,0,194.4778855000004,,,,,,,,,,,,,,,,,,,,,,,,,,,,,,,,,,,,,,,,,,,,,,,,,,194.46178679999866,194.4778855000004,194.99448480000137,194.9614732000009,194.98639809999804,194.99448480000137,194.99448480000137,194.99448480000137,196.57828840000002,Foils\058a.jpg,none,n,1.5823364999996556,None,,,,00016,001,2025-11-08_17h48.07.404,MST_test,2024.2.2,59.99347271066572,2025-11-08 17h48.13.798178 +0530,
52,0,52,s,1.3499742999993032,None,52,0,52,0,196.59446939999907,,,,,,,,,,,,,,,,,,,,,,,,,,,,,,,,,,,,,,,,,,,,,,,,,,196.5783752999996,196.59446939999907,197.0944625000011,197.0779986000016,197.0880872000016,197.0944625000011,197.0944625000011,197.0944625000011,198.4448756999991,Objects\118a.jpg,post,s,1.3499742999993032,None,,,,00016,001,2025-11-08_17h48.07.404,MST_test,2024.2.2,59.99347271066572,2025-11-08 17h48.13.798178 +0530,
53,0,53,s,2.220930199997383,None,53,0,53,0,198.46106750000035,,,,,,,,,,,,,,,,,,,,,,,,,,,,,,,,,,,,,,,,,,,,,,,,,,198.4449612999997,198.46106750000035,198.97774560000107,198.94467029999942,198.9729550000011,198.97774560000107,198.97774560000107,198.97774560000107,201.21133869999903,Objects\184b.jpg,pre,s,2.220930199997383,None,,,,00016,001,2025-11-08_17h48.07.404,MST_test,2024.2.2,59.99347271066572,2025-11-08 17h48.13.798178 +0530,
54,0,54,o,2.8092036999987613,None,54,0,54,0,201.22770769999988,,,,,,,,,,,,,,,,,,,,,,,,,,,,,,,,,,,,,,,,,,,,,,,,,,201.21141640000133,201.22770769999988,201.76129589999982,201.7112902000008,201.75139249999847,201.76129589999982,201.76129589999982,201.76129589999982,204.57800729999872,Scenes\103b.jpg,pre,o,2.8092036999987613,None,,,,00016,001,2025-11-08_17h48.07.404,MST_test,2024.2.2,59.99347271066572,2025-11-08 17h48.13.798178 +0530,
55,0,55,s,2.274738399999478,None,55,0,55,0,204.59433309999804,,,,,,,,,,,,,,,,,,,,,,,,,,,,,,,,,,,,,,,,,,,,,,,,,,204.57809669999915,204.59433309999804,205.12762440000006,205.07782999999836,205.10835049999878,205.12762440000006,205.12762440000006,205.12762440000006,207.41134809999858,Objects\063b.jpg,post,s,2.274738399999478,None,,,,00016,001,2025-11-08_17h48.07.404,MST_test,2024.2.2,59.99347271066572,2025-11-08 17h48.13.798178 +0530,
56,0,56,o,1.3458042999991449,None,56,0,56,0,207.42759300000034,,,,,,,,,,,,,,,,,,,,,,,,,,,,,,,,,,,,,,,,,,,,,,,,,,207.41144160000113,207.42759300000034,207.94435760000124,207.91112440000143,207.92867439999827,207.94435760000124,207.94435760000124,207.94435760000124,209.29456729999947,Scenes\152a.jpg,mid,o,1.3458042999991449,None,,,,00016,001,2025-11-08_17h48.07.404,MST_test,2024.2.2,59.99347271066572,2025-11-08 17h48.13.798178 +0530,
57,0,57,s,1.6262295000015001,None,57,0,57,0,209.31085650000023,,,,,,,,,,,,,,,,,,,,,,,,,,,,,,,,,,,,,,,,,,,,,,,,,,209.2946465999994,209.31085650000023,209.84422030000133,209.7943441999996,209.82530549999865,209.84422030000133,209.84422030000133,209.84422030000133,211.4778280999999,Objects\173b.jpg,mid,s,1.6262295000015001,None,,,,00016,001,2025-11-08_17h48.07.404,MST_test,2024.2.2,59.99347271066572,2025-11-08 17h48.13.798178 +0530,
58,0,58,o,1.6766118000014103,None,58,0,58,0,211.4941417000009,,,,,,,,,,,,,,,,,,,,,,,,,,,,,,,,,,,,,,,,,,,,,,,,,,211.47790969999915,211.4941417000009,211.99410089999947,211.97767810000005,211.98737510000137,211.99410089999947,211.99410089999947,211.99410089999947,213.67769589999807,Objects\029a.jpg,pre,o,1.6766118000014103,None,,,,00016,001,2025-11-08_17h48.07.404,MST_test,2024.2.2,59.99347271066572,2025-11-08 17h48.13.798178 +0530,
59,0,59,s,2.464123500001733,None,59,0,59,0,213.69410000000062,,,,,,,,,,,,,,,,,,,,,,,,,,,,,,,,,,,,,,,,,,,,,,,,,,213.67777859999842,213.69410000000062,214.21075049999854,214.17742089999956,214.2019465000012,214.21075049999854,214.21075049999854,214.21075049999854,216.67776709999816,Objects\065b.jpg,mid,s,2.464123500001733,None,,,,00016,001,2025-11-08_17h48.07.404,MST_test,2024.2.2,59.99347271066572,2025-11-08 17h48.13.798178 +0530,
60,0,60,n,2.309985100000631,None,60,0,60,0,216.6939988999984,,,,,,,,,,,,,,,,,,,,,,,,,,,,,,,,,,,,,,,,,,,,,,,,,,216.67785450000156,216.6939988999984,217.21068250000098,217.17748410000058,217.20112249999875,217.21068250000098,217.21068250000098,217.21068250000098,219.527605700001,Foils\086a.jpg,none,n,2.309985100000631,None,,,,00016,001,2025-11-08_17h48.07.404,MST_test,2024.2.2,59.99347271066572,2025-11-08 17h48.13.798178 +0530,
61,0,61,n,2.1309322000015527,None,61,0,61,0,219.54397199999948,,,,,,,,,,,,,,,,,,,,,,,,,,,,,,,,,,,,,,,,,,,,,,,,,,219.5276784000016,219.54397199999948,220.06059820000155,220.02753360000133,220.04730660000132,220.06059820000155,220.06059820000155,220.06059820000155,222.1941943999991,Scenes\083a.jpg,post,n,2.1309322000015527,None,,,,00016,001,2025-11-08_17h48.07.404,MST_test,2024.2.2,59.99347271066572,2025-11-08 17h48.13.798178 +0530,
62,0,62,o,1.415144099999452,None,62,0,62,0,222.21058149999953,,,,,,,,,,,,,,,,,,,,,,,,,,,,,,,,,,,,,,,,,,,,,,,,,,222.19426960000055,222.21058149999953,222.72720530000151,222.69407579999825,222.71232489999966,222.72720530000151,222.72720530000151,222.72720530000151,224.14427349999823,Scenes\162a.jpg,post,o,1.415144099999452,None,,,,00016,001,2025-11-08_17h48.07.404,MST_test,2024.2.2,59.99347271066572,2025-11-08 17h48.13.798178 +0530,
63,0,63,s,1.53327260000151,None,63,0,63,0,224.16053380000085,,,,,,,,,,,,,,,,,,,,,,,,,,,,,,,,,,,,,,,,,,,,,,,,,,224.14435830000002,224.16053380000085,224.67715959999987,224.64400939999905,224.6703634000005,224.67715959999987,224.67715959999987,224.67715959999987,226.21093439999822,Objects\110b.jpg,pre,s,1.53327260000151,None,,,,00016,001,2025-11-08_17h48.07.404,MST_test,2024.2.2,59.99347271066572,2025-11-08 17h48.13.798178 +0530,
64,0,64,s,2.6881891999983054,None,64,0,64,0,226.2271589000011,,,,,,,,,,,,,,,,,,,,,,,,,,,,,,,,,,,,,,,,,,,,,,,,,,226.2110219999995,226.2271589000011,226.76045109999905,226.7106376999982,226.75113630000124,226.76045109999905,226.76045109999905,226.76045109999905,229.46080100000108,Scenes\086b.jpg,pre,s,2.6881891999983054,None,,,,00016,001,2025-11-08_17h48.07.404,MST_test,2024.2.2,59.99347271066572,2025-11-08 17h48.13.798178 +0530,
65,0,65,s,1.9433671999977378,None,65,0,65,0,229.47708349999812,,,,,,,,,,,,,,,,,,,,,,,,,,,,,,,,,,,,,,,,,,,,,,,,,,229.46088840000084,229.47708349999812,229.9937342000012,229.96058410000114,229.976201999998,229.9937342000012,229.9937342000012,229.9937342000012,231.94396110000162,Objects\132b.jpg,pre,s,1.9433671999977378,None,,,,00016,001,2025-11-08_17h48.07.404,MST_test,2024.2.2,59.99347271066572,2025-11-08 17h48.13.798178 +0530,
66,0,66,o,2.734374799998477,None,66,0,66,0,231.96036169999934,,,,,,,,,,,,,,,,,,,,,,,,,,,,,,,,,,,,,,,,,,,,,,,,,,231.94405019999977,231.96036169999934,232.46031679999942,232.4438424,232.4538868999989,232.46031679999942,232.46031679999942,232.46031679999942,235.21053929999835,Objects\126a.jpg,post,o,2.734374799998477,None,,,,00016,001,2025-11-08_17h48.07.404,MST_test,2024.2.2,59.99347271066572,2025-11-08 17h48.13.798178 +0530,
67,0,67,o,1.6713012000000163,None,67,0,67,0,235.22695639999802,,,,,,,,,,,,,,,,,,,,,,,,,,,,,,,,,,,,,,,,,,,,,,,,,,235.21062639999946,235.22695639999802,235.7435927000006,235.71045270000104,235.73004909999872,235.7435927000006,235.7435927000006,235.7435927000006,237.4272639999981,Scenes\092a.jpg,pre,o,1.6713012000000163,None,,,,00016,001,2025-11-08_17h48.07.404,MST_test,2024.2.2,59.99347271066572,2025-11-08 17h48.13.798178 +0530,
68,0,68,o,2.5769064000014623,None,68,0,68,0,237.44357219999802,,,,,,,,,,,,,,,,,,,,,,,,,,,,,,,,,,,,,,,,,,,,,,,,,,237.427345600001,237.44357219999802,237.9602073999995,237.92704830000002,237.94265359999918,237.9602073999995,237.9602073999995,237.9602073999995,240.5439312999988,Objects\100b.jpg,pre,o,2.5769064000014623,None,,,,00016,001,2025-11-08_17h48.07.404,MST_test,2024.2.2,59.99347271066572,2025-11-08 17h48.13.798178 +0530,
69,0,69,o,1.0311455999981263,None,69,0,69,0,240.56017839999913,,,,,,,,,,,,,,,,,,,,,,,,,,,,,,,,,,,,,,,,,,,,,,,,,,240.54401829999915,240.56017839999913,241.09351700000116,241.04368229999818,241.05378220000057,241.09351700000116,241.09351700000116,241.09351700000116,242.12711359999957,Objects\137a.jpg,mid,o,1.0311455999981263,None,,,,00016,001,2025-11-08_17h48.07.404,MST_test,2024.2.2,59.99347271066572,2025-11-08 17h48.13.798178 +0530,
70,0,70,n,1.4177034999993339,None,70,0,70,0,242.14346830000068,,,,,,,,,,,,,,,,,,,,,,,,,,,,,,,,,,,,,,,,,,,,,,,,,,242.12719659999857,242.14346830000068,242.67705379999825,242.6269304999987,242.67174380000142,242.67705379999825,242.67705379999825,242.67705379999825,244.11039399999936,Scenes\015b.jpg,post,n,1.4177034999993339,None,,,,00016,001,2025-11-08_17h48.07.404,MST_test,2024.2.2,59.99347271066572,2025-11-08 17h48.13.798178 +0530,
71,0,71,o,1.667343000000983,None,71,0,71,0,244.12673089999953,,,,,,,,,,,,,,,,,,,,,,,,,,,,,,,,,,,,,,,,,,,,,,,,,,244.11047419999886,244.12673089999953,244.64376300000004,244.61033749999842,244.6286309999996,244.64376300000004,244.64376300000004,244.64376300000004,246.3269861000008,Scenes\188a.jpg,post,o,1.667343000000983,None,,,,00016,001,2025-11-08_17h48.07.404,MST_test,2024.2.2,59.99347271066572,2025-11-08 17h48.13.798178 +0530,
72,0,72,o,6.904916099996626,None,72,0,72,0,246.3433651000014,,,,,,,,,,,,,,,,,,,,,,,,,,,,,,,,,,,,,,,,,,,,,,,,,,246.3270650000013,246.3433651000014,246.86034089999885,246.82690549999825,246.84710519999862,246.86034089999885,246.86034089999885,246.86034089999885,253.77692599999864,Scenes\180a.jpg,pre,o,6.904916099996626,None,,,,00016,001,2025-11-08_17h48.07.404,MST_test,2024.2.2,59.99347271066572,2025-11-08 17h48.13.798178 +0530,
73,0,73,o,1.1547176999993098,None,73,0,73,0,253.79322329999923,,,,,,,,,,,,,,,,,,,,,,,,,,,,,,,,,,,,,,,,,,,,,,,,,,253.77701309999975,253.79322329999923,254.29367579999962,254.27671470000132,254.28729689999818,254.29367579999962,254.29367579999962,254.29367579999962,255.4602691,Objects\158a.jpg,mid,o,1.1547176999993098,None,,,,00016,001,2025-11-08_17h48.07.404,MST_test,2024.2.2,59.99347271066572,2025-11-08 17h48.13.798178 +0530,
74,0,74,n,3.8739728999971703,None,74,0,74,0,255.47650760000033,,,,,,,,,,,,,,,,,,,,,,,,,,,,,,,,,,,,,,,,,,,,,,,,,,255.46035240000128,255.47650760000033,255.99314249999952,255.9600019999998,255.9813963000015,255.99314249999952,255.99314249999952,255.99314249999952,259.8934749,Scenes\054a.jpg,pre,n,3.8739728999971703,None,,,,00016,001,2025-11-08_17h48.07.404,MST_test,2024.2.2,59.99347271066572,2025-11-08 17h48.13.798178 +0530,
75,0,75,s,1.5183595999988029,None,75,0,75,0,259.9097550000006,,,,,,,,,,,,,,,,,,,,,,,,,,,,,,,,,,,,,,,,,,,,,,,,,,259.8935609,259.9097550000006,260.4263964999991,260.39321610000115,260.4196376,260.4263964999991,260.4263964999991,260.4263964999991,261.9599664000016,Objects\084b.jpg,post,s,1.5183595999988029,None,,,,00016,001,2025-11-08_17h48.07.404,MST_test,2024.2.2,59.99347271066572,2025-11-08 17h48.13.798178 +0530,
76,0,76,o,1.1722248000005493,None,76,0,76,0,261.9763629000008,,,,,,,,,,,,,,,,,,,,,,,,,,,,,,,,,,,,,,,,,,,,,,,,,,261.9600578999998,261.9763629000008,262.47634819999803,262.4598832999982,262.46996189999845,262.47634819999803,262.47634819999803,262.47634819999803,263.6598926000006,Objects\033a.jpg,mid,o,1.1722248000005493,None,,,,00016,001,2025-11-08_17h48.07.404,MST_test,2024.2.2,59.99347271066572,2025-11-08 17h48.13.798178 +0530,
77,0,77,o,2.6821804999999586,None,77,0,77,0,263.6763342000013,,,,,,,,,,,,,,,,,,,,,,,,,,,,,,,,,,,,,,,,,,,,,,,,,,263.65996989999985,263.6763342000013,264.17631529999926,264.15979679999873,264.1696265999999,264.17631529999926,264.17631529999926,264.17631529999926,266.8599948999981,Objects\116a.jpg,pre,o,2.6821804999999586,None,,,,00016,001,2025-11-08_17h48.07.404,MST_test,2024.2.2,59.99347271066572,2025-11-08 17h48.13.798178 +0530,
78,0,78,o,1.2786265999966417,None,78,0,78,0,266.87626140000066,,,,,,,,,,,,,,,,,,,,,,,,,,,,,,,,,,,,,,,,,,,,,,,,,,266.86008239999865,266.87626140000066,267.3762424000015,267.3597058000014,267.36905190000107,267.3762424000015,267.3762424000015,267.3762424000015,268.65980259999924,Objects\140a.jpg,post,o,1.2786265999966417,None,,,,00016,001,2025-11-08_17h48.07.404,MST_test,2024.2.2,59.99347271066572,2025-11-08 17h48.13.798178 +0530,
79,0,79,n,1.9551669000029506,None,79,0,79,0,268.67624799999976,,,,,,,,,,,,,,,,,,,,,,,,,,,,,,,,,,,,,,,,,,,,,,,,,,268.6598821000007,268.67624799999976,269.20978789999936,269.15965289999804,269.2036612000011,269.20978789999936,269.20978789999936,269.20978789999936,271.17643419999877,Foils\scenes28.jpg,none,n,1.9551669000029506,None,,,,00016,001,2025-11-08_17h48.07.404,MST_test,2024.2.2,59.99347271066572,2025-11-08 17h48.13.798178 +0530,
80,0,80,n,2.7445096999981615,None,80,0,80,0,271.1928403999991,,,,,,,,,,,,,,,,,,,,,,,,,,,,,,,,,,,,,,,,,,,,,,,,,,271.1765188999998,271.1928403999991,271.7264126000009,271.6763017000012,271.71277230000123,271.7264126000009,271.7264126000009,271.7264126000009,274.4764032999992,Scenes\153b.jpg,post,n,2.7445096999981615,None,,,,00016,001,2025-11-08_17h48.07.404,MST_test,2024.2.2,59.99347271066572,2025-11-08 17h48.13.798178 +0530,
81,0,81,s,1.9974242999996932,None,81,0,81,0,274.49276159999863,,,,,,,,,,,,,,,,,,,,,,,,,,,,,,,,,,,,,,,,,,,,,,,,,,274.47649159999855,274.49276159999863,274.9930968000008,274.97636000000057,274.98631100000057,274.9930968000008,274.9930968000008,274.9930968000008,276.99303099999815,Objects\105a.jpg,pre,s,1.9974242999996932,None,,,,00016,001,2025-11-08_17h48.07.404,MST_test,2024.2.2,59.99347271066572,2025-11-08 17h48.13.798178 +0530,
82,0,82,o,1.9623336999975436,None,82,0,82,0,277.009399999999,,,,,,,,,,,,,,,,,,,,,,,,,,,,,,,,,,,,,,,,,,,,,,,,,,276.9931082000003,277.009399999999,277.52602789999946,277.4928624999993,277.5087089000008,277.52602789999946,277.52602789999946,277.52602789999946,279.4930509000005,Foils\066a.jpg,none,o,1.9623336999975436,None,,,,00016,001,2025-11-08_17h48.07.404,MST_test,2024.2.2,59.99347271066572,2025-11-08 17h48.13.798178 +0530,
83,0,83,s,7.099362499997369,None,83,0,83,0,279.5093213,,,,,,,,,,,,,,,,,,,,,,,,,,,,,,,,,,,,,,,,,,,,,,,,,,279.4931417000007,279.5093213,280.0259369000014,279.99281300000075,280.0139119000014,280.0259369000014,280.0259369000014,280.0259369000014,287.1261756999993,Scenes\174a.jpg,post,s,7.099362499997369,None,,,,00016,001,2025-11-08_17h48.07.404,MST_test,2024.2.2,59.99347271066572,2025-11-08 17h48.13.798178 +0530,
84,0,84,o,1.066553999997268,None,84,0,84,0,287.1424831000004,,,,,,,,,,,,,,,,,,,,,,,,,,,,,,,,,,,,,,,,,,,,,,,,,,287.1262530999993,287.1424831000004,287.64244020000115,287.6260273000007,287.63576509999984,287.64244020000115,287.64244020000115,287.64244020000115,288.70947239999805,Objects\121a.jpg,pre,o,1.066553999997268,None,,,,00016,001,2025-11-08_17h48.07.404,MST_test,2024.2.2,59.99347271066572,2025-11-08 17h48.13.798178 +0530,
85,0,85,s,1.7880984000003082,None,85,0,85,0,288.72577789999923,,,,,,,,,,,,,,,,,,,,,,,,,,,,,,,,,,,,,,,,,,,,,,,,,,288.7095526000012,288.72577789999923,289.24241990000155,289.2093445999999,289.2251615999994,289.24241990000155,289.24241990000155,289.24241990000155,291.04268949999823,Objects\089b.jpg,pre,s,1.7880984000003082,None,,,,00016,001,2025-11-08_17h48.07.404,MST_test,2024.2.2,59.99347271066572,2025-11-08 17h48.13.798178 +0530,
86,0,86,o,3.1292059000006702,None,86,0,86,0,291.0590325000012,,,,,,,,,,,,,,,,,,,,,,,,,,,,,,,,,,,,,,,,,,,,,,,,,,291.0427703999994,291.0590325000012,291.57574739999836,291.5427617999994,291.5701173999987,291.57574739999836,291.57574739999836,291.57574739999836,294.70935570000074,Objects\143b.jpg,post,o,3.1292059000006702,None,,,,00016,001,2025-11-08_17h48.07.404,MST_test,2024.2.2,59.99347271066572,2025-11-08 17h48.13.798178 +0530,
87,0,87,n,1.2380608999992546,None,87,0,87,0,294.7256462000005,,,,,,,,,,,,,,,,,,,,,,,,,,,,,,,,,,,,,,,,,,,,,,,,,,294.70943759999864,294.7256462000005,295.2425832000008,295.2090630999992,295.2314288000016,295.2425832000008,295.2425832000008,295.2425832000008,296.49264910000056,Foils\scenes14.jpg,none,n,1.2380608999992546,None,,,,00016,001,2025-11-08_17h48.07.404,MST_test,2024.2.2,59.99347271066572,2025-11-08 17h48.13.798178 +0530,
88,0,88,o,3.0737626000009186,None,88,0,88,0,296.5089068999987,,,,,,,,,,,,,,,,,,,,,,,,,,,,,,,,,,,,,,,,,,,,,,,,,,296.4927272999994,296.5089068999987,297.02581799999825,296.99239699999816,297.01091950000045,297.02581799999825,297.02581799999825,297.02581799999825,300.10925430000134,Scenes\061b.jpg,pre,o,3.0737626000009186,None,,,,00016,001,2025-11-08_17h48.07.404,MST_test,2024.2.2,59.99347271066572,2025-11-08 17h48.13.798178 +0530,
89,0,89,n,2.7864373000011255,None,89,0,89,0,300.12551280000116,,,,,,,,,,,,,,,,,,,,,,,,,,,,,,,,,,,,,,,,,,,,,,,,,,300.109337599999,300.12551280000116,300.6588164999994,300.6090656999986,300.63874550000037,300.6588164999994,300.6588164999994,300.6588164999994,303.45915709999827,Foils\049a.jpg,none,n,2.7864373000011255,None,,,,00016,001,2025-11-08_17h48.07.404,MST_test,2024.2.2,59.99347271066572,2025-11-08 17h48.13.798178 +0530,
90,0,90,n,1.4984621000003244,None,90,0,90,0,303.47545289999834,,,,,,,,,,,,,,,,,,,,,,,,,,,,,,,,,,,,,,,,,,,,,,,,,,303.45923259999836,303.47545289999834,303.9921144,303.9589756999994,303.97492409999904,303.9921144,303.9921144,303.9921144,305.49248530000114,Foils\098a.jpg,none,n,1.4984621000003244,None,,,,00016,001,2025-11-08_17h48.07.404,MST_test,2024.2.2,59.99347271066572,2025-11-08 17h48.13.798178 +0530,
91,0,91,o,2.497596400000475,None,91,0,91,0,305.50875280000037,,,,,,,,,,,,,,,,,,,,,,,,,,,,,,,,,,,,,,,,,,,,,,,,,,305.4925685999988,305.50875280000037,306.00899619999836,305.992280800001,306.00291819999984,306.00899619999836,306.00899619999836,306.00899619999836,308.5090741999993,Scenes\097a.jpg,mid,o,2.497596400000475,None,,,,00016,001,2025-11-08_17h48.07.404,MST_test,2024.2.2,59.99347271066572,2025-11-08 17h48.13.798178 +0530,
92,0,92,s,4.34652460000143,None,92,0,92,0,308.5253140999994,,,,,,,,,,,,,,,,,,,,,,,,,,,,,,,,,,,,,,,,,,,,,,,,,,308.50915800000075,308.5253140999994,309.0419683,309.0088891999985,309.02575810000053,309.0419683,309.0419683,309.0419683,313.39231030000155,Foils\105a.jpg,none,s,4.34652460000143,None,,,,00016,001,2025-11-08_17h48.07.404,MST_test,2024.2.2,59.99347271066572,2025-11-08 17h48.13.798178 +0530,
93,0,93,n,1.7828785999990941,None,93,0,93,0,313.40856279999934,,,,,,,,,,,,,,,,,,,,,,,,,,,,,,,,,,,,,,,,,,,,,,,,,,313.3924057000004,313.40856279999934,313.94189859999824,313.8921088999996,313.92212759999893,313.94189859999824,313.94189859999824,313.94189859999824,315.7255956000008,Foils\018a.jpg,none,n,1.7828785999990941,None,,,,00016,001,2025-11-08_17h48.07.404,MST_test,2024.2.2,59.99347271066572,2025-11-08 17h48.13.798178 +0530,
94,0,94,s,2.694286900001316,None,94,0,94,0,315.7418179000015,,,,,,,,,,,,,,,,,,,,,,,,,,,,,,,,,,,,,,,,,,,,,,,,,,315.72568129999854,315.7418179000015,316.2585012999989,316.2254432000009,316.24996029999966,316.2585012999989,316.2585012999989,316.2585012999989,318.95875370000067,Objects\071b.jpg,mid,s,2.694286900001316,None,,,,00016,001,2025-11-08_17h48.07.404,MST_test,2024.2.2,59.99347271066572,2025-11-08 17h48.13.798178 +0530,
95,0,95,o,1.3822136999988288,None,95,0,95,0,318.9751174999983,,,,,,,,,,,,,,,,,,,,,,,,,,,,,,,,,,,,,,,,,,,,,,,,,,318.9588379000015,318.9751174999983,319.4751017999988,319.4586229000015,319.468267799999,319.4751017999988,319.4751017999988,319.4751017999988,320.8588810000001,Objects\020a.jpg,pre,o,1.3822136999988288,None,,,,00016,001,2025-11-08_17h48.07.404,MST_test,2024.2.2,59.99347271066572,2025-11-08 17h48.13.798178 +0530,
96,0,96,n,4.378613699998823,None,96,0,96,0,320.8750961000005,,,,,,,,,,,,,,,,,,,,,,,,,,,,,,,,,,,,,,,,,,,,,,,,,,320.8589633999982,320.8750961000005,321.3917737999982,321.3586654999999,321.3831762000009,321.3917737999982,321.3917737999982,321.3917737999982,325.7752991999987,Foils\scenes16.jpg,none,n,4.378613699998823,None,,,,00016,001,2025-11-08_17h48.07.404,MST_test,2024.2.2,59.99347271066572,2025-11-08 17h48.13.798178 +0530,
97,0,97,s,1.622833499997796,None,97,0,97,0,325.79163770000014,,,,,,,,,,,,,,,,,,,,,,,,,,,,,,,,,,,,,,,,,,,,,,,,,,325.7753752999997,325.79163770000014,326.30828779999865,326.27521830000114,326.29185549999966,326.30828779999865,326.30828779999865,326.30828779999865,327.94186160000027,Objects\018b.jpg,mid,s,1.622833499997796,None,,,,00016,001,2025-11-08_17h48.07.404,MST_test,2024.2.2,59.99347271066572,2025-11-08 17h48.13.798178 +0530,
98,0,98,n,4.680963599999814,None,98,0,98,0,327.95821739999883,,,,,,,,,,,,,,,,,,,,,,,,,,,,,,,,,,,,,,,,,,,,,,,,,,327.94193879999875,327.95821739999883,328.45820710000044,328.4417601999994,328.4534452000007,328.45820710000044,328.45820710000044,328.45820710000044,333.14181689999896,Foils\scenes6.jpg,none,n,4.680963599999814,None,,,,00016,001,2025-11-08_17h48.07.404,MST_test,2024.2.2,59.99347271066572,2025-11-08 17h48.13.798178 +0530,
99,0,99,n,3.071218700002646,None,99,0,99,0,333.158129200001,,,,,,,,,,,,,,,,,,,,,,,,,,,,,,,,,,,,,,,,,,,,,,,,,,333.14189799999804,333.158129200001,333.9419659999985,333.64173709999886,333.91117600000143,333.9419659999985,333.9419659999985,333.9419659999985,337.02500430000146,Foils\scenes26.jpg,none,n,3.071218700002646,None,,,,00016,001,2025-11-08_17h48.07.404,MST_test,2024.2.2,59.99347271066572,2025-11-08 17h48.13.798178 +0530,
100,0,100,s,3.650150499997835,None,100,0,100,0,337.0414036000002,,,,,,,,,,,,,,,,,,,,,,,,,,,,,,,,,,,,,,,,,,,,,,,,,,337.02508220000163,337.0414036000002,337.5749899000002,337.5248790000005,337.56354949999877,337.5749899000002,337.5749899000002,337.5749899000002,341.2416376000001,Scenes\178b.jpg,post,s,3.650150499997835,None,,,,00016,001,2025-11-08_17h48.07.404,MST_test,2024.2.2,59.99347271066572,2025-11-08 17h48.13.798178 +0530,
101,0,101,n,6.014448900001298,None,101,0,101,0,341.25795509999807,,,,,,,,,,,,,,,,,,,,,,,,,,,,,,,,,,,,,,,,,,,,,,,,,,341.2417261999981,341.25795509999807,341.774615899998,341.741438699999,341.76251050000064,341.774615899998,341.774615899998,341.774615899998,347.7915233999993,Scenes\125a.jpg,pre,n,6.014448900001298,None,,,,00016,001,2025-11-08_17h48.07.404,MST_test,2024.2.2,59.99347271066572,2025-11-08 17h48.13.798178 +0530,
102,0,102,o,3.903683299999102,None,102,0,102,0,347.8078089999981,,,,,,,,,,,,,,,,,,,,,,,,,,,,,,,,,,,,,,,,,,,,,,,,,,347.7916006000014,347.8078089999981,348.32476250000036,348.2913445999984,348.3197156999995,348.32476250000036,348.32476250000036,348.32476250000036,352.241474800001,Scenes\087b.jpg,pre,o,3.903683299999102,None,,,,00016,001,2025-11-08_17h48.07.404,MST_test,2024.2.2,59.99347271066572,2025-11-08 17h48.13.798178 +0530,
103,0,103,s,3.9152905000009923,None,103,0,103,0,352.25770980000016,,,,,,,,,,,,,,,,,,,,,,,,,,,,,,,,,,,,,,,,,,,,,,,,,,352.2415679000005,352.25770980000016,352.7579712000006,352.74132069999905,352.7517611000003,352.7579712000006,352.7579712000006,352.7579712000006,356.67467340000076,Objects\149a.jpg,mid,s,3.9152905000009923,None,,,,00016,001,2025-11-08_17h48.07.404,MST_test,2024.2.2,59.99347271066572,2025-11-08 17h48.13.798178 +0530,
104,0,104,s,3.1173644000009517,None,104,0,104,0,356.6909717999988,,,,,,,,,,,,,,,,,,,,,,,,,,,,,,,,,,,,,,,,,,,,,,,,,,356.6747518999982,356.6909717999988,357.207566699999,357.1745357,357.1995972000004,357.207566699999,357.207566699999,357.207566699999,360.3411481000003,Objects\058b.jpg,mid,s,3.1173644000009517,None,,,,00016,001,2025-11-08_17h48.07.404,MST_test,2024.2.2,59.99347271066572,2025-11-08 17h48.13.798178 +0530,
105,0,105,n,4.561653299999307,None,105,0,105,0,360.35753900000054,,,,,,,,,,,,,,,,,,,,,,,,,,,,,,,,,,,,,,,,,,,,,,,,,,360.34123629999885,360.35753900000054,360.8910971000005,360.8411911000003,360.8729248999989,360.8910971000005,360.8910971000005,360.8910971000005,365.457714199998,Foils\scenes30.jpg,none,n,4.561653299999307,None,,,,00016,001,2025-11-08_17h48.07.404,MST_test,2024.2.2,59.99347271066572,2025-11-08 17h48.13.798178 +0530,
106,0,106,o,2.0161106000014115,None,106,0,106,0,365.474084999998,,,,,,,,,,,,,,,,,,,,,,,,,,,,,,,,,,,,,,,,,,,,,,,,,,365.4577927999999,365.474084999998,365.9911170000014,365.9576909999996,365.9784336999983,365.9911170000014,365.9911170000014,365.9911170000014,368.0079141999995,Scenes\058a.jpg,mid,o,2.0161106000014115,None,,,,00016,001,2025-11-08_17h48.07.404,MST_test,2024.2.2,59.99347271066572,2025-11-08 17h48.13.798178 +0530,
107,0,107,o,3.8326313000034133,None,107,0,107,0,368.02400990000024,,,,,,,,,,,,,,,,,,,,,,,,,,,,,,,,,,,,,,,,,,,,,,,,,,368.0080052000012,368.02400990000024,368.5406708999981,368.5075112000013,368.5341507999983,368.5406708999981,368.5406708999981,368.5406708999981,372.37422180000067,Objects\128b.jpg,pre,o,3.8326313000034133,None,,,,00016,001,2025-11-08_17h48.07.404,MST_test,2024.2.2,59.99347271066572,2025-11-08 17h48.13.798178 +0530,
108,0,108,s,3.1408036000029824,None,108,0,108,0,372.39059859999907,,,,,,,,,,,,,,,,,,,,,,,,,,,,,,,,,,,,,,,,,,,,,,,,,,372.3742987000005,372.39059859999907,372.92395399999805,372.87409320000006,372.9086086999996,372.92395399999805,372.92395399999805,372.92395399999805,376.0742265000008,Scenes\150b.jpg,pre,s,3.1408036000029824,None,,,,00016,001,2025-11-08_17h48.07.404,MST_test,2024.2.2,59.99347271066572,2025-11-08 17h48.13.798178 +0530,
109,0,109,o,2.1932882000000973,None,109,0,109,0,376.0905204999981,,,,,,,,,,,,,,,,,,,,,,,,,,,,,,,,,,,,,,,,,,,,,,,,,,376.07431630000065,376.0905204999981,376.60735230000137,376.57404619999943,376.60074280000117,376.60735230000137,376.60735230000137,376.60735230000137,378.80741599999965,Scenes\088a.jpg,post,o,2.1932882000000973,None,,,,00016,001,2025-11-08_17h48.07.404,MST_test,2024.2.2,59.99347271066572,2025-11-08 17h48.13.798178 +0530,
110,0,110,o,1.3644580000000133,None,110,0,110,0,378.82382940000025,,,,,,,,,,,,,,,,,,,,,,,,,,,,,,,,,,,,,,,,,,,,,,,,,,378.8074951999988,378.82382940000025,379.323909499999,379.30738779999956,379.3185260999999,379.323909499999,379.323909499999,379.323909499999,380.69078380000064,Objects\021a.jpg,mid,o,1.3644580000000133,None,,,,00016,001,2025-11-08_17h48.07.404,MST_test,2024.2.2,59.99347271066572,2025-11-08 17h48.13.798178 +0530,
111,0,111,o,2.3768392999991192,None,111,0,111,0,380.70709239999996,,,,,,,,,,,,,,,,,,,,,,,,,,,,,,,,,,,,,,,,,,,,,,,,,,380.6908614999993,380.70709239999996,381.22376200000144,381.190561899999,381.22018390000085,381.22376200000144,381.22376200000144,381.22376200000144,383.60740729999816,Objects\123b.jpg,post,o,2.3768392999991192,None,,,,00016,001,2025-11-08_17h48.07.404,MST_test,2024.2.2,59.99347271066572,2025-11-08 17h48.13.798178 +0530,
112,0,112,s,1.230006100002356,None,112,0,112,0,383.6236964999989,,,,,,,,,,,,,,,,,,,,,,,,,,,,,,,,,,,,,,,,,,,,,,,,,,383.60748930000045,383.6236964999989,384.1403332000009,384.1072791000006,384.1293646000013,384.1403332000009,384.1403332000009,384.1403332000009,385.3740942000004,Objects\186b.jpg,mid,s,1.230006100002356,None,,,,00016,001,2025-11-08_17h48.07.404,MST_test,2024.2.2,59.99347271066572,2025-11-08 17h48.13.798178 +0530,
113,0,113,s,3.271393999999418,None,113,0,113,0,385.39031819999946,,,,,,,,,,,,,,,,,,,,,,,,,,,,,,,,,,,,,,,,,,,,,,,,,,385.3741822999982,385.39031819999946,385.9238565000014,385.8739103000007,385.90948800000115,385.9238565000014,385.9238565000014,385.9238565000014,389.20732080000016,Scenes\079b.jpg,pre,s,3.271393999999418,None,,,,00016,001,2025-11-08_17h48.07.404,MST_test,2024.2.2,59.99347271066572,2025-11-08 17h48.13.798178 +0530,
114,0,114,o,6.962378799998987,None,114,0,114,0,389.22356840000066,,,,,,,,,,,,,,,,,,,,,,,,,,,,,,,,,,,,,,,,,,,,,,,,,,389.20740619999924,389.22356840000066,389.7405006000008,389.7071383000002,389.73023749999993,389.7405006000008,389.7405006000008,389.7405006000008,396.70700320000105,Scenes\012a.jpg,pre,o,6.962378799998987,None,,,,00016,001,2025-11-08_17h48.07.404,MST_test,2024.2.2,59.99347271066572,2025-11-08 17h48.13.798178 +0530,
115,0,115,n,4.988152800000535,None,115,0,115,0,396.7234017999981,,,,,,,,,,,,,,,,,,,,,,,,,,,,,,,,,,,,,,,,,,,,,,,,,,396.707086800001,396.7234017999981,397.24027919999935,397.2068689000007,397.22294319999855,397.24027919999935,397.24027919999935,397.24027919999935,402.24021920000087,Foils\042a.jpg,none,n,4.988152800000535,None,,,,00016,001,2025-11-08_17h48.07.404,MST_test,2024.2.2,59.99347271066572,2025-11-08 17h48.13.798178 +0530,
116,0,116,o,1.824387900000147,None,116,0,116,0,402.25661860000037,,,,,,,,,,,,,,,,,,,,,,,,,,,,,,,,,,,,,,,,,,,,,,,,,,402.24029679999876,402.25661860000037,402.78991010000027,402.7401067999999,402.77410529999906,402.78991010000027,402.78991010000027,402.78991010000027,404.6235248000012,Scenes\074b.jpg,mid,o,1.824387900000147,None,,,,00016,001,2025-11-08_17h48.07.404,MST_test,2024.2.2,59.99347271066572,2025-11-08 17h48.13.798178 +0530,
117,0,117,s,2.5677404000016395,None,117,0,117,0,404.63989089999814,,,,,,,,,,,,,,,,,,,,,,,,,,,,,,,,,,,,,,,,,,,,,,,,,,404.6235998000011,404.63989089999814,405.1565303999996,405.1233906999987,405.1526131999999,405.1565303999996,405.1565303999996,405.1565303999996,407.74019340000086,Objects\042b.jpg,mid,s,2.5677404000016395,None,,,,00016,001,2025-11-08_17h48.07.404,MST_test,2024.2.2,59.99347271066572,2025-11-08 17h48.13.798178 +0530,
118,0,118,s,2.913521499998751,None,118,0,118,0,407.75649899999917,,,,,,,,,,,,,,,,,,,,,,,,,,,,,,,,,,,,,,,,,,,,,,,,,,407.740278199999,407.75649899999917,408.2731277999992,408.2399707000004,408.2638165999997,408.2731277999992,408.2731277999992,408.2731277999992,411.1902392000011,Objects\124b.jpg,post,s,2.913521499998751,None,,,,00016,001,2025-11-08_17h48.07.404,MST_test,2024.2.2,59.99347271066572,2025-11-08 17h48.13.798178 +0530,
119,0,119,o,1.1592725999980757,None,119,0,119,0,411.2064328000015,,,,,,,,,,,,,,,,,,,,,,,,,,,,,,,,,,,,,,,,,,,,,,,,,,411.19031950000135,411.2064328000015,411.72323980000147,411.6899530999981,411.7065861999981,411.72323980000147,411.72323980000147,411.72323980000147,412.8901092999986,Scenes\117a.jpg,post,o,1.1592725999980757,None,,,,00016,001,2025-11-08_17h48.07.404,MST_test,2024.2.2,59.99347271066572,2025-11-08 17h48.13.798178 +0530,
120,0,120,s,3.8716982000005373,None,120,0,120,0,412.90637539999807,,,,,,,,,,,,,,,,,,,,,,,,,,,,,,,,,,,,,,,,,,,,,,,,,,412.89019310000003,412.90637539999807,413.42303940000056,413.3900042999994,413.41345680000086,413.42303940000056,413.42303940000056,413.42303940000056,417.30657620000056,Scenes\018b.jpg,mid,s,3.8716982000005373,None,,,,00016,001,2025-11-08_17h48.07.404,MST_test,2024.2.2,59.99347271066572,2025-11-08 17h48.13.798178 +0530,
121,0,121,n,2.570273700002872,None,121,0,121,0,417.3229840999993,,,,,,,,,,,,,,,,,,,,,,,,,,,,,,,,,,,,,,,,,,,,,,,,,,417.30665990000125,417.3229840999993,417.82294120000006,417.8064506999981,417.81597669999974,417.82294120000006,417.82294120000006,417.82294120000006,420.40646149999884,Objects\175a.jpg,post,n,2.570273700002872,None,,,,00016,001,2025-11-08_17h48.07.404,MST_test,2024.2.2,59.99347271066572,2025-11-08 17h48.13.798178 +0530,
122,0,122,s,3.6214669999972102,None,122,0,122,0,420.422889999998,,,,,,,,,,,,,,,,,,,,,,,,,,,,,,,,,,,,,,,,,,,,,,,,,,420.4065378999985,420.422889999998,420.93952419999914,420.90632750000077,420.92196590000094,420.93952419999914,420.93952419999914,420.93952419999914,424.57302060000075,Objects\050b.jpg,post,s,3.6214669999972102,None,,,,00016,001,2025-11-08_17h48.07.404,MST_test,2024.2.2,59.99347271066572,2025-11-08 17h48.13.798178 +0530,
123,0,123,o,6.299827399998321,None,123,0,123,0,424.5894933999989,,,,,,,,,,,,,,,,,,,,,,,,,,,,,,,,,,,,,,,,,,,,,,,,,,424.5731076000011,424.5894933999989,425.12306140000146,425.0729191999999,425.1027308999983,425.12306140000146,425.12306140000146,425.12306140000146,431.4232579999989,Scenes\011b.jpg,pre,o,6.299827399998321,None,,,,00016,001,2025-11-08_17h48.07.404,MST_test,2024.2.2,59.99347271066572,2025-11-08 17h48.13.798178 +0530,
124,0,124,n,3.16315300000133,None,124,0,124,0,431.4393091999991,,,,,,,,,,,,,,,,,,,,,,,,,,,,,,,,,,,,,,,,,,,,,,,,,,431.42334480000136,431.4393091999991,431.9392611000003,431.9228980000007,431.93283959999826,431.9392611000003,431.9392611000003,431.9392611000003,435.1062778000014,Objects\022a.jpg,post,n,3.16315300000133,None,,,,00016,001,2025-11-08_17h48.07.404,MST_test,2024.2.2,59.99347271066572,2025-11-08 17h48.13.798178 +0530,
125,0,125,o,1.8455992000017432,None,125,0,125,0,435.12254530000064,,,,,,,,,,,,,,,,,,,,,,,,,,,,,,,,,,,,,,,,,,,,,,,,,,435.10636259999956,435.12254530000064,435.62289579999924,435.60616110000046,435.6184910999982,435.62289579999924,435.62289579999924,435.62289579999924,437.47288409999965,Scenes\022a.jpg,post,o,1.8455992000017432,None,,,,00016,001,2025-11-08_17h48.07.404,MST_test,2024.2.2,59.99347271066572,2025-11-08 17h48.13.798178 +0530,
126,0,126,n,5.1474273999992874,None,126,0,126,0,437.48924160000024,,,,,,,,,,,,,,,,,,,,,,,,,,,,,,,,,,,,,,,,,,,,,,,,,,437.47297329999856,437.48924160000024,438.00582629999917,437.9727353999988,437.9883277000008,438.00582629999917,438.00582629999917,438.00582629999917,443.15603239999837,Foils\026a.jpg,none,n,5.1474273999992874,None,,,,00016,001,2025-11-08_17h48.07.404,MST_test,2024.2.2,59.99347271066572,2025-11-08 17h48.13.798178 +0530,
127,0,127,n,4.230915800002549,None,127,0,127,0,443.1723818999999,,,,,,,,,,,,,,,,,,,,,,,,,,,,,,,,,,,,,,,,,,,,,,,,,,443.1561081,443.1723818999999,443.7058954999993,443.6559401000013,443.70055140000113,443.7058954999993,443.7058954999993,443.7058954999993,447.93926400000055,Scenes\145b.jpg,post,n,4.230915800002549,None,,,,00016,001,2025-11-08_17h48.07.404,MST_test,2024.2.2,59.99347271066572,2025-11-08 17h48.13.798178 +0530,
128,0,128,n,3.7765323000021453,None,128,0,128,0,447.95557270000063,,,,,,,,,,,,,,,,,,,,,,,,,,,,,,,,,,,,,,,,,,,,,,,,,,447.9393493999996,447.95557270000063,448.55578890000106,448.4391226000007,448.5445780000009,448.55578890000106,448.55578890000106,448.55578890000106,452.3391924999996,Foils\scenes15.jpg,none,n,3.7765323000021453,None,,,,00016,001,2025-11-08_17h48.07.404,MST_test,2024.2.2,59.99347271066572,2025-11-08 17h48.13.798178 +0530,
129,0,129,s,2.393302600001334,None,129,0,129,0,452.3554766999987,,,,,,,,,,,,,,,,,,,,,,,,,,,,,,,,,,,,,,,,,,,,,,,,,,452.3392821999987,452.3554766999987,452.88904379999803,452.8391119000007,452.87659989999884,452.88904379999803,452.88904379999803,452.88904379999803,455.28908890000093,Scenes\142b.jpg,mid,s,2.393302600001334,None,,,,00016,001,2025-11-08_17h48.07.404,MST_test,2024.2.2,59.99347271066572,2025-11-08 17h48.13.798178 +0530,
130,0,130,o,1.4548228999992716,None,130,0,130,0,455.30547020000085,,,,,,,,,,,,,,,,,,,,,,,,,,,,,,,,,,,,,,,,,,,,,,,,,,455.28916319999917,455.30547020000085,455.8057157000003,455.7892748000013,455.7998403999991,455.8057157000003,455.8057157000003,455.8057157000003,457.2724479999997,Objects\016a.jpg,mid,o,1.4548228999992716,None,,,,00016,001,2025-11-08_17h48.07.404,MST_test,2024.2.2,59.99347271066572,2025-11-08 17h48.13.798178 +0530,
131,0,131,n,2.6492456999985734,None,131,0,131,0,457.2887389999996,,,,,,,,,,,,,,,,,,,,,,,,,,,,,,,,,,,,,,,,,,,,,,,,,,457.27254090000133,457.2887389999996,457.8053609999988,457.7722723000006,457.7891028999984,457.8053609999988,457.8053609999988,457.8053609999988,460.45570880000014,Foils\113a.jpg,none,n,2.6492456999985734,None,,,,00016,001,2025-11-08_17h48.07.404,MST_test,2024.2.2,59.99347271066572,2025-11-08 17h48.13.798178 +0530,
132,0,132,s,3.1100234999976237,None,132,0,132,0,460.4720147000007,,,,,,,,,,,,,,,,,,,,,,,,,,,,,,,,,,,,,,,,,,,,,,,,,,460.45580079999854,460.4720147000007,460.98862160000135,460.95549200000096,460.9719105000004,460.98862160000135,460.98862160000135,460.98862160000135,464.1057541000009,Objects\038b.jpg,post,s,3.1100234999976237,None,,,,00016,001,2025-11-08_17h48.07.404,MST_test,2024.2.2,59.99347271066572,2025-11-08 17h48.13.798178 +0530,
133,0,133,n,2.6839222999988124,None,133,0,133,0,464.1219348000013,,,,,,,,,,,,,,,,,,,,,,,,,,,,,,,,,,,,,,,,,,,,,,,,,,464.1058473000012,464.1219348000013,464.6555221999988,464.6055911000003,464.6434205000005,464.6555221999988,464.6555221999988,464.6555221999988,467.35559360000116,Scenes\127b.jpg,mid,n,2.6839222999988124,None,,,,00016,001,2025-11-08_17h48.07.404,MST_test,2024.2.2,59.99347271066572,2025-11-08 17h48.13.798178 +0530,
134,0,134,n,1.7184974999981932,None,134,0,134,0,467.37200980000125,,,,,,,,,,,,,,,,,,,,,,,,,,,,,,,,,,,,,,,,,,,,,,,,,,467.3556752000004,467.37200980000125,467.8721321999983,467.8554661999988,467.867250700001,467.8721321999983,467.8721321999983,467.8721321999983,469.6056604000005,Foils\scenes5.jpg,none,n,1.7184974999981932,None,,,,00016,001,2025-11-08_17h48.07.404,MST_test,2024.2.2,59.99347271066572,2025-11-08 17h48.13.798178 +0530,
135,0,135,s,2.695938100001513,None,135,0,135,0,469.62192140000116,,,,,,,,,,,,,,,,,,,,,,,,,,,,,,,,,,,,,,,,,,,,,,,,,,469.6057394999989,469.62192140000116,470.13876009999876,470.10546199999953,470.13161480000053,470.13876009999876,470.13876009999876,470.13876009999876,472.8387898000001,Objects\059b.jpg,post,s,2.695938100001513,None,,,,00016,001,2025-11-08_17h48.07.404,MST_test,2024.2.2,59.99347271066572,2025-11-08 17h48.13.798178 +0530,
136,0,136,n,2.4718477000023995,None,136,0,136,0,472.8551471999999,,,,,,,,,,,,,,,,,,,,,,,,,,,,,,,,,,,,,,,,,,,,,,,,,,472.8388737999994,472.8551471999999,473.38868490000095,473.3386422000003,473.3713667000011,473.38868490000095,473.38868490000095,473.38868490000095,475.87212400000135,Scenes\032b.jpg,pre,n,2.4718477000023995,None,,,,00016,001,2025-11-08_17h48.07.404,MST_test,2024.2.2,59.99347271066572,2025-11-08 17h48.13.798178 +0530,
137,0,137,s,1.4376819999997679,None,137,0,137,0,475.8883849999984,,,,,,,,,,,,,,,,,,,,,,,,,,,,,,,,,,,,,,,,,,,,,,,,,,475.8722005999989,475.8883849999984,476.4050973000012,476.3719423000002,476.3921236999995,476.4050973000012,476.4050973000012,476.4050973000012,477.85549710000123,Objects\010b.jpg,post,s,1.4376819999997679,None,,,,00016,001,2025-11-08_17h48.07.404,MST_test,2024.2.2,59.99347271066572,2025-11-08 17h48.13.798178 +0530,
138,0,138,o,5.915752699998848,None,138,0,138,0,477.87170310000147,,,,,,,,,,,,,,,,,,,,,,,,,,,,,,,,,,,,,,,,,,,,,,,,,,477.85557340000014,477.87170310000147,478.3886754999985,478.35538710000037,478.3731240999987,478.3886754999985,478.3886754999985,478.3886754999985,484.3051653000002,Scenes\116a.jpg,pre,o,5.915752699998848,None,,,,00016,001,2025-11-08_17h48.07.404,MST_test,2024.2.2,59.99347271066572,2025-11-08 17h48.13.798178 +0530,
139,0,139,s,4.119117800000822,None,139,0,139,0,484.32158179999897,,,,,,,,,,,,,,,,,,,,,,,,,,,,,,,,,,,,,,,,,,,,,,,,,,484.30524739999964,484.32158179999897,484.83821069999976,484.80499430000054,484.8282231000012,484.83821069999976,484.83821069999976,484.83821069999976,488.9718604000009,Scenes\137b.jpg,post,s,4.119117800000822,None,,,,00016,001,2025-11-08_17h48.07.404,MST_test,2024.2.2,59.99347271066572,2025-11-08 17h48.13.798178 +0530,
140,0,140,n,3.6198976000014227,None,140,0,140,0,488.98816109999825,,,,,,,,,,,,,,,,,,,,,,,,,,,,,,,,,,,,,,,,,,,,,,,,,,488.9719449000004,488.98816109999825,489.5048142000014,489.4718016000006,489.4918145999982,489.5048142000014,489.5048142000014,489.5048142000014,493.13832439999896,Scenes\156a.jpg,post,n,3.6198976000014227,None,,,,00016,001,2025-11-08_17h48.07.404,MST_test,2024.2.2,59.99347271066572,2025-11-08 17h48.13.798178 +0530,
141,0,141,s,1.2914686000003712,None,141,0,141,0,493.15473159999965,,,,,,,,,,,,,,,,,,,,,,,,,,,,,,,,,,,,,,,,,,,,,,,,,,493.1384059999982,493.15473159999965,493.67132889999993,493.6383038999993,493.6638701000011,493.67132889999993,493.67132889999993,493.67132889999993,494.9716182999982,Objects\114b.jpg,mid,s,1.2914686000003712,None,,,,00016,001,2025-11-08_17h48.07.404,MST_test,2024.2.2,59.99347271066572,2025-11-08 17h48.13.798178 +0530,
142,0,142,n,3.1775054999998247,None,142,0,142,0,494.98799289999806,,,,,,,,,,,,,,,,,,,,,,,,,,,,,,,,,,,,,,,,,,,,,,,,,,494.971693200001,494.98799289999806,495.504810800001,495.47148469999956,495.5004345999987,495.504810800001,495.504810800001,495.504810800001,498.6882493999983,Foils\scenes7.jpg,none,n,3.1775054999998247,None,,,,00016,001,2025-11-08_17h48.07.404,MST_test,2024.2.2,59.99347271066572,2025-11-08 17h48.13.798178 +0530,
143,0,143,s,1.6361477999998897,None,143,0,143,0,498.70449259999805,,,,,,,,,,,,,,,,,,,,,,,,,,,,,,,,,,,,,,,,,,,,,,,,,,498.6883283999996,498.70449259999805,499.221353500001,499.18797149999955,499.2123285999987,499.221353500001,499.221353500001,499.221353500001,500.8713991000004,Scenes\017a.jpg,mid,s,1.6361477999998897,None,,,,00016,001,2025-11-08_17h48.07.404,MST_test,2024.2.2,59.99347271066572,2025-11-08 17h48.13.798178 +0530,
144,0,144,n,5.79750839999906,None,144,0,144,0,500.887778100001,,,,,,,,,,,,,,,,,,,,,,,,,,,,,,,,,,,,,,,,,,,,,,,,,,500.8714851000004,500.887778100001,501.4213749999981,501.371278300001,501.4093180999989,501.4213749999981,501.4213749999981,501.4213749999981,507.2212404999991,Scenes\047b.jpg,post,n,5.79750839999906,None,,,,00016,001,2025-11-08_17h48.07.404,MST_test,2024.2.2,59.99347271066572,2025-11-08 17h48.13.798178 +0530,
145,0,145,o,4.551093800000672,None,145,0,145,0,507.23760570000013,,,,,,,,,,,,,,,,,,,,,,,,,,,,,,,,,,,,,,,,,,,,,,,,,,507.22131979999904,507.23760570000013,507.73795990000144,507.7211357999986,507.73271620000014,507.73795990000144,507.73795990000144,507.73795990000144,512.3044580999995,Objects\090a.jpg,mid,o,4.551093800000672,None,,,,00016,001,2025-11-08_17h48.07.404,MST_test,2024.2.2,59.99347271066572,2025-11-08 17h48.13.798178 +0530,
146,0,146,s,5.2075823999985005,None,146,0,146,0,512.3208580999999,,,,,,,,,,,,,,,,,,,,,,,,,,,,,,,,,,,,,,,,,,,,,,,,,,512.3045335999996,512.3208580999999,512.8541522999985,512.8044321000016,512.8461643999981,512.8541522999985,512.8541522999985,512.8541522999985,518.0712009999988,Scenes\028b.jpg,mid,s,5.2075823999985005,None,,,,00016,001,2025-11-08_17h48.07.404,MST_test,2024.2.2,59.99347271066572,2025-11-08 17h48.13.798178 +0530,
147,0,147,s,1.6384168999975373,None,147,0,147,0,518.0873963000013,,,,,,,,,,,,,,,,,,,,,,,,,,,,,,,,,,,,,,,,,,,,,,,,,,518.0712983999983,518.0873963000013,518.6040142999991,518.5709992000011,518.5950929999999,518.6040142999991,518.6040142999991,518.6040142999991,520.254299799999,Objects\154b.jpg,post,s,1.6384168999975373,None,,,,00016,001,2025-11-08_17h48.07.404,MST_test,2024.2.2,59.99347271066572,2025-11-08 17h48.13.798178 +0530,
148,0,148,o,1.659658099997614,None,148,0,148,0,520.2706484000009,,,,,,,,,,,,,,,,,,,,,,,,,,,,,,,,,,,,,,,,,,,,,,,,,,520.2543871999987,520.2706484000009,520.7873387,520.7541386000012,520.7760907999982,520.7873387,520.7873387,520.7873387,522.4542537000016,Scenes\004a.jpg,post,o,1.659658099997614,None,,,,00016,001,2025-11-08_17h48.07.404,MST_test,2024.2.2,59.99347271066572,2025-11-08 17h48.13.798178 +0530,
149,0,149,o,3.5741196000017226,None,149,0,149,0,522.470596799998,,,,,,,,,,,,,,,,,,,,,,,,,,,,,,,,,,,,,,,,,,,,,,,,,,522.4543435999985,522.470596799998,522.970594800001,522.9541070999985,522.9639884999997,522.970594800001,522.970594800001,522.970594800001,526.5542811999985,Objects\172a.jpg,pre,o,3.5741196000017226,None,,,,00016,001,2025-11-08_17h48.07.404,MST_test,2024.2.2,59.99347271066572,2025-11-08 17h48.13.798178 +0530,
,,,,,,,,,,,,,,,,,,,,,,,,,,,,,,,,,,,,,,,,,,,,,,,,,,,,,,,,,,,,,,,,,,,,,,,,,,526.5543384999983,526.5705417999998,526.5705417999998,,,,,,,,
