Sl_no,image_path,thisN,thisTrialN,thisRepN,key_resp_5.keys,key_resp_5.rt,key_resp_5.duration,key_resp_7.keys,key_resp_7.rt,key_resp_7.duration,key_resp_9.keys,key_resp_8.keys,key_resp_8.rt,key_resp_8.duration,key_resp_9.rt,key_resp_9.duration,practice.thisRepN,practice.thisTrialN,practice.thisN,practice.thisIndex,trials.thisRepN,trials.thisTrialN,trials.thisN,trials.thisIndex,thisRow.t,notes,welcome_page.started,text.started,key_resp.started,welcome_page.stopped,key_resp.keys,key_resp.rt,key_resp.duration,instructions.started,ins.started,key_resp_2.started,instructions.stopped,key_resp_2.keys,key_resp_2.rt,key_resp_2.duration,instructions_2.started,text_10.started,key_resp_10.started,instructions_2.stopped,key_resp_10.keys,key_resp_10.rt,key_resp_10.duration,objects_only_instruction.started,text_3.started,key_resp_3.started,objects_only_instruction.stopped,key_resp_3.keys,key_resp_3.rt,key_resp_3.duration,ISI.started,text_4.started,text_4.stopped,ISI.stopped,practice_block.started,image.started,text_5.started,key_resp_5.started,image.stopped,text_5.stopped,key_resp_5.stopped,practice_block.stopped,practice.key_resp_5.keys,practice.key_resp_5.rt,practice.key_resp_5.duration,indoor_outdoor.started,indoor_outdoor.stopped,practice.key_resp_7.keys,text_7.started,key_resp_7.started,practice.key_resp_7.rt,practice.key_resp_7.duration,practice_to_main.started,text_2.started,key_resp_4.started,practice_to_main.stopped,key_resp_4.keys,key_resp_4.rt,key_resp_4.duration,objects.started,image_2.started,text_9.started,key_resp_9.started,objects.stopped,trials.key_resp_9.keys,encoding_task.started,text_8.started,key_resp_8.started,encoding_task.stopped,trials.key_resp_8.keys,trials.key_resp_8.rt,trials.key_resp_8.duration,image_2.stopped,text_9.stopped,key_resp_9.stopped,trials.key_resp_9.rt,trials.key_resp_9.duration,end_experiment.started,text_6.started,key_resp_6.started,end_experiment.stopped,key_resp_6.keys,key_resp_6.rt,key_resp_6.duration,list_of_stimuli,encoding_task_accuracy,participant,session,date,expName,psychopyVersion,frameRate,expStart
,,,,,,,,,,,,,,,,,,,,,,,,,,,0.0153689,0.0320254,0.0320254,43.1663707,space,43.1310407,None,,,,,,,,,,,,,,,,,,,,,,,,,,,,,,,,,,,,,,,,,,,,,,,,,,,,,,,,,,,,,,,,,,,,,,,,,,,,,,17,1,2025-11-08_19h45.48.093,MST_task,2024.2.2,60.01241057,2025-11-08 19h45.57.222602 +0530
,,,,,,,,,,,,,,,,,,,,,,,,,,,,,,,,,,43.166405,43.1810259,43.1810259,126.1131019,space,82.9235606,None,,,,,,,,,,,,,,,,,,,,,,,,,,,,,,,,,,,,,,,,,,,,,,,,,,,,,,,,,,,,,,,,,,,,,,,17,1,2025-11-08_19h45.48.093,MST_task,2024.2.2,60.01241057,2025-11-08 19h45.57.222602 +0530
,,,,,,,,,,,,,,,,,,,,,,,,,,,,,,,,,,,,,,,,,126.1131397,126.1292783,126.1292783,138.2460375,space,12.1098199,None,,,,,,,,,,,,,,,,,,,,,,,,,,,,,,,,,,,,,,,,,,,,,,,,,,,,,,,,,,,,,,,,17,1,2025-11-08_19h45.48.093,MST_task,2024.2.2,60.01241057,2025-11-08 19h45.57.222602 +0530
,,,,,,,,,,,,,,,,,,,,,,,,,,,,,,,,,,,,,,,,,,,,,,,,138.2460662,138.2622885,138.2622885,153.312371,space,15.0403099,None,,,,,,,,,,,,,,,,,,,,,,,,,,,,,,,,,,,,,,,,,,,,,,,,,,,,,,,,,17,1,2025-11-08_19h45.48.093,MST_task,2024.2.2,60.01241057,2025-11-08 19h45.57.222602 +0530
5,practice_images/139a.jpg,0,0,0,j,2.3884803,0.1543321,None,,,,,,,,,0,0,0,4,,,,,153.3287769,,,,,,,,,,,,,,,,,,,,,,,,,,,,,,153.3176221,153.3287769,153.8287077,153.8121819,153.8191156,153.8287077,153.8287077,153.8287077,156.8287102,156.8287102,156.8287102,156.8123389,j,2.3884803,0.1543321,156.8134905,156.8135037,None,,,,,,,,,,,,,,,,,,,,,,,,,,,,,,,,,,,,,,,17,1,2025-11-08_19h45.48.093,MST_task,2024.2.2,60.01241057,2025-11-08 19h45.57.222602 +0530
6,practice_images/158a.jpg,1,1,0,j,1.3789049,0.174321,None,,,,,,,,,0,1,1,5,,,,,156.8287102,,,,,,,,,,,,,,,,,,,,,,,,,,,,,,156.8135581,156.8287102,157.3286907,157.3123554,157.3137718,157.3286907,157.3286907,157.3286907,160.328628,160.328628,160.328628,160.3121524,j,1.3789049,0.174321,160.312185,160.3121942,None,,,,,,,,,,,,,,,,,,,,,,,,,,,,,,,,,,,,,,,17,1,2025-11-08_19h45.48.093,MST_task,2024.2.2,60.01241057,2025-11-08 19h45.57.222602 +0530
9,practice_images/180a.jpg,2,2,0,None,,,f,0.8484501,None,,,,,,,0,2,2,8,,,,,160.328628,,,,,,,,,,,,,,,,,,,,,,,,,,,,,,160.312247,160.328628,160.8285702,160.8120901,160.8134906,160.8285702,160.8285702,160.8285702,163.8285137,163.8285137,163.8285137,163.8119568,None,,,163.8119832,164.6787681,f,163.8285137,163.8285137,0.8484501,None,,,,,,,,,,,,,,,,,,,,,,,,,,,,,,,,,,,17,1,2025-11-08_19h45.48.093,MST_task,2024.2.2,60.01241057,2025-11-08 19h45.57.222602 +0530
1,practice_images/013a.jpg,3,3,0,j,0.7602465,0.1737004,None,,,,,,,,,0,3,3,0,,,,,164.6951876,,,,,,,,,,,,,,,,,,,,,,,,,,,,,,164.6788377,164.6951876,165.1951296,165.1787523,165.1801091,165.1951296,165.1951296,165.1951296,168.195085,168.195085,168.195085,168.1785672,j,0.7602465,0.1737004,168.1785978,168.1786068,None,,,,,,,,,,,,,,,,,,,,,,,,,,,,,,,,,,,,,,,17,1,2025-11-08_19h45.48.093,MST_task,2024.2.2,60.01241057,2025-11-08 19h45.57.222602 +0530
4,practice_images/002b.jpg,4,4,0,None,,,f,1.5895458,None,,,,,,,0,4,4,3,,,,,168.195085,,,,,,,,,,,,,,,,,,,,,,,,,,,,,,168.1786592,168.195085,168.695079,168.6785619,168.6799763,168.695079,168.695079,168.695079,,,,171.6787389,None,,,171.678767,173.295231,f,171.6950146,171.6950146,1.5895458,None,,,,,,,,,,,,,,,,,,,,,,,,,,,,,,,,,,,17,1,2025-11-08_19h45.48.093,MST_task,2024.2.2,60.01241057,2025-11-08 19h45.57.222602 +0530
8,practice_images/178a.jpg,5,5,0,None,,,f,0.079412,None,,,,,,,0,5,5,7,,,,,173.3116611,,,,,,,,,,,,,,,,,,,,,,,,,,,,,,173.2953044,173.3116611,173.8116106,173.7951289,173.7990236,173.8116106,173.8116106,173.8116106,176.8115862,176.8115862,176.8115862,176.7950249,None,,,176.7965375,176.8952175,f,176.8115862,176.8115862,0.079412,None,,,,,,,,,,,,,,,,,,,,,,,,,,,,,,,,,,,17,1,2025-11-08_19h45.48.093,MST_task,2024.2.2,60.01241057,2025-11-08 19h45.57.222602 +0530
2,practice_images/031a.jpg,6,6,0,None,,,f,0.8669625,None,,,,,,,0,6,6,1,,,,,176.9115663,,,,,,,,,,,,,,,,,,,,,,,,,,,,,,176.8952773,176.9115663,177.4115296,177.3950258,177.3962441,177.4115296,177.4115296,177.4115296,180.4115236,180.4115236,180.4115236,180.3950846,None,,,180.3951114,181.2951021,f,180.4115236,180.4115236,0.8669625,None,,,,,,,,,,,,,,,,,,,,,,,,,,,,,,,,,,,17,1,2025-11-08_19h45.48.093,MST_task,2024.2.2,60.01241057,2025-11-08 19h45.57.222602 +0530
10,practice_images/182a.jpg,7,7,0,f,1.3914843,0.1663269,None,,,,,,,,,0,7,7,9,,,,,181.3113857,,,,,,,,,,,,,,,,,,,,,,,,,,,,,,181.2951704,181.3113857,181.8113724,181.794917,181.7962271,181.8113724,181.8113724,181.8113724,184.8113085,184.8113085,184.8113085,184.7948249,f,1.3914843,0.1663269,184.7948555,184.7948649,None,,,,,,,,,,,,,,,,,,,,,,,,,,,,,,,,,,,,,,,17,1,2025-11-08_19h45.48.093,MST_task,2024.2.2,60.01241057,2025-11-08 19h45.57.222602 +0530
7,practice_images/166a.jpg,8,8,0,None,,,j,0.8135336,None,,,,,,,0,8,8,6,,,,,184.8113085,,,,,,,,,,,,,,,,,,,,,,,,,,,,,,184.7949199,184.8113085,185.3112782,185.2948933,185.2961702,185.3112782,185.3112782,185.3112782,188.3112244,188.3112244,188.3112244,188.2948051,None,,,188.2948381,189.1281669,j,188.3112244,188.3112244,0.8135336,None,,,,,,,,,,,,,,,,,,,,,,,,,,,,,,,,,,,17,1,2025-11-08_19h45.48.093,MST_task,2024.2.2,60.01241057,2025-11-08 19h45.57.222602 +0530
3,practice_images/037a.jpg,9,9,0,None,,,j,0.4025867,None,,,,,,,0,9,9,2,,,,,189.1445118,,,,,,,,,,,,,,,,,,,,,,,,,,,,,,189.128237,189.1445118,189.6443857,189.6281873,189.629473,189.6443857,189.6443857,189.6443857,192.6444341,192.6444341,192.6444341,192.6279758,None,,,192.6280062,193.0614138,j,192.6444341,192.6444341,0.4025867,None,,,,,,,,,,,,,,,,,,,,,,,,,,,,,,,,,,,17,1,2025-11-08_19h45.48.093,MST_task,2024.2.2,60.01241057,2025-11-08 19h45.57.222602 +0530
,,,,,,,,,,,,,,,,,,,,,,,,,,,,,,,,,,,,,,,,,,,,,,,,,,,,,,,,,,,,,,,,,,,,,,,,,,,,,193.0614719,193.0777653,193.0777653,207.3277584,space,14.2351425,None,,,,,,,,,,,,,,,,,,,,,,,,,,,,17,1,2025-11-08_19h45.48.093,MST_task,2024.2.2,60.01241057,2025-11-08 19h45.57.222602 +0530
,Objects\057a.jpg,0,0,0,,,,,,,None,f,3.5265813,None,,,,,,,0,0,0,0,207.3441568,,,,,,,,,,,,,,,,,,,,,,,,,,,,,,207.3283306,207.3441568,207.8611286,207.8276415,,,,,,,,,,,,,,,,,,,,,,,,,,207.842441,207.8611286,207.8611286,207.8611286,210.8441295,None,210.846256,210.8607442,210.8607442,214.3944509,f,3.5265813,None,,,,,,,,,,,,,,,17,1,2025-11-08_19h45.48.093,MST_task,2024.2.2,60.01241057,2025-11-08 19h45.57.222602 +0530
,Objects\081a.jpg,1,0,1,,,,,,,None,f,0.5919881,None,,,,,,,1,0,1,0,214.4106628,,,,,,,,,,,,,,,,,,,,,,,,,,,,,,214.3945357,214.4106628,214.9106282,214.8942561,,,,,,,,,,,,,,,,,,,,,,,,,,214.8963897,214.9106282,214.9106282,214.9106282,217.8941334,None,217.8941653,217.9105845,217.9105845,218.5109168,f,0.5919881,None,217.9105845,217.9105845,217.9105845,,,,,,,,,,,,17,1,2025-11-08_19h45.48.093,MST_task,2024.2.2,60.01241057,2025-11-08 19h45.57.222602 +0530
,Objects\045a.jpg,2,0,2,,,,,,,j,None,,,1.6310543,0.1729207,,,,,2,0,2,0,218.5272386,,,,,,,,,,,,,,,,,,,,,,,,,,,,,,218.5109928,218.5272386,219.0268095,219.0107904,,,,,,,,,,,,,,,,,,,,,,,,,,219.0200887,219.0268095,219.0268095,219.0268095,222.0107707,j,222.010811,,,222.0108228,None,,,222.0271575,222.0271575,222.0271575,1.6310543,0.1729207,,,,,,,,,,17,1,2025-11-08_19h45.48.093,MST_task,2024.2.2,60.01241057,2025-11-08 19h45.57.222602 +0530
,Objects\149a.jpg,3,0,3,,,,,,,j,None,,,1.7681932,0.1266596,,,,,3,0,3,0,222.0271575,,,,,,,,,,,,,,,,,,,,,,,,,,,,,,222.0109112,222.0271575,222.5271156,222.510726,,,,,,,,,,,,,,,,,,,,,,,,,,222.5129765,222.5271156,222.5271156,222.5271156,225.5106726,j,225.5107097,,,225.5107199,None,,,225.5270811,225.5270811,225.5270811,1.7681932,0.1266596,,,,,,,,,,17,1,2025-11-08_19h45.48.093,MST_task,2024.2.2,60.01241057,2025-11-08 19h45.57.222602 +0530
,Objects\175a.jpg,4,0,4,,,,,,,f,None,,,1.2582013,0.1773298,,,,,4,0,4,0,225.5270811,,,,,,,,,,,,,,,,,,,,,,,,,,,,,,225.5108105,225.5270811,226.027041,226.0105577,,,,,,,,,,,,,,,,,,,,,,,,,,226.0127781,226.027041,226.027041,226.027041,229.0105829,f,229.0106239,,,229.0106339,None,,,229.0270043,229.0270043,229.0270043,1.2582013,0.1773298,,,,,,,,,,17,1,2025-11-08_19h45.48.093,MST_task,2024.2.2,60.01241057,2025-11-08 19h45.57.222602 +0530
,Objects\025a.jpg,5,0,5,,,,,,,j,None,,,1.0787528,0.1697916,,,,,5,0,5,0,229.0270043,,,,,,,,,,,,,,,,,,,,,,,,,,,,,,229.0106918,229.0270043,229.527009,229.510485,,,,,,,,,,,,,,,,,,,,,,,,,,229.5126111,229.527009,229.527009,229.527009,232.5106452,j,232.5106783,,,232.5106927,None,,,232.5269291,232.5269291,232.5269291,1.0787528,0.1697916,,,,,,,,,,17,1,2025-11-08_19h45.48.093,MST_task,2024.2.2,60.01241057,2025-11-08 19h45.57.222602 +0530
,Objects\054a.jpg,6,0,6,,,,,,,None,j,3.0478693,None,,,,,,,6,0,6,0,232.5269291,,,,,,,,,,,,,,,,,,,,,,,,,,,,,,232.5107824,232.5269291,233.026889,233.0104264,,,,,,,,,,,,,,,,,,,,,,,,,,233.0194165,233.026889,233.026889,233.026889,236.0104563,None,236.0104864,236.0268266,236.0268266,239.0771276,j,3.0478693,None,236.0268266,236.0268266,236.0268266,,,,,,,,,,,,17,1,2025-11-08_19h45.48.093,MST_task,2024.2.2,60.01241057,2025-11-08 19h45.57.222602 +0530
,Scenes\165a.jpg,7,0,7,,,,,,,j,None,,,2.3509937,0.1656612,,,,,7,0,7,0,239.0934547,,,,,,,,,,,,,,,,,,,,,,,,,,,,,,239.0772299,239.0934547,239.6103103,239.5770961,,,,,,,,,,,,,,,,,,,,,,,,,,239.5914438,239.6103103,239.6103103,239.6103103,242.5935964,j,242.5948422,,,242.5948547,None,,,,,,2.3509937,0.1656612,,,,,,,,,,17,1,2025-11-08_19h45.48.093,MST_task,2024.2.2,60.01241057,2025-11-08 19h45.57.222602 +0530
,Scenes\072a.jpg,8,0,8,,,,,,,None,j,0.4102795,None,,,,,,,8,0,8,0,242.6101303,,,,,,,,,,,,,,,,,,,,,,,,,,,,,,242.5949118,242.6101303,243.1267699,243.0936687,,,,,,,,,,,,,,,,,,,,,,,,,,243.1136305,243.1267699,243.1267699,243.1267699,246.1100903,None,246.1101268,246.1267012,246.1267012,246.543795,j,0.4102795,None,,,,,,,,,,,,,,,17,1,2025-11-08_19h45.48.093,MST_task,2024.2.2,60.01241057,2025-11-08 19h45.57.222602 +0530
,Scenes\016a.jpg,9,0,9,,,,,,,j,None,,,0.9866781,0.122323,,,,,9,0,9,0,246.5600198,,,,,,,,,,,,,,,,,,,,,,,,,,,,,,246.5438981,246.5600198,247.0601868,247.0434896,,,,,,,,,,,,,,,,,,,,,,,,,,247.0539513,247.0601868,247.0601868,247.0601868,250.0435255,j,250.0435603,,,250.0435713,None,,,250.0600028,250.0600028,250.0600028,0.9866781,0.122323,,,,,,,,,,17,1,2025-11-08_19h45.48.093,MST_task,2024.2.2,60.01241057,2025-11-08 19h45.57.222602 +0530
,Scenes\014a.jpg,10,0,10,,,,,,,j,None,,,1.5049734,0.1530481,,,,,10,0,10,0,250.0600028,,,,,,,,,,,,,,,,,,,,,,,,,,,,,,250.0436524,250.0600028,250.5766117,250.5434366,,,,,,,,,,,,,,,,,,,,,,,,,,250.5551059,250.5766117,250.5766117,250.5766117,253.5598949,j,253.5599302,,,253.5599401,None,,,,,,1.5049734,0.1530481,,,,,,,,,,17,1,2025-11-08_19h45.48.093,MST_task,2024.2.2,60.01241057,2025-11-08 19h45.57.222602 +0530
,Scenes\022a.jpg,11,0,11,,,,,,,j,None,,,2.7684852,0.1696833,,,,,11,0,11,0,253.5765544,,,,,,,,,,,,,,,,,,,,,,,,,,,,,,253.5600003,253.5765544,254.0767371,254.0601131,,,,,,,,,,,,,,,,,,,,,,,,,,254.0671243,254.0767371,254.0767371,254.0767371,257.0600672,j,257.0601049,,,257.0601437,None,,,,,,2.7684852,0.1696833,,,,,,,,,,17,1,2025-11-08_19h45.48.093,MST_task,2024.2.2,60.01241057,2025-11-08 19h45.57.222602 +0530
,Scenes\160a.jpg,12,0,12,,,,,,,j,None,,,1.6750922,0.156594,,,,,12,0,12,0,257.0765007,,,,,,,,,,,,,,,,,,,,,,,,,,,,,,257.0602315,257.0765007,257.5931759,257.560146,,,,,,,,,,,,,,,,,,,,,,,,,,257.5705763,257.5931759,257.5931759,257.5931759,260.5764136,j,260.57645,,,260.57646,None,,,,,,1.6750922,0.156594,,,,,,,,,,17,1,2025-11-08_19h45.48.093,MST_task,2024.2.2,60.01241057,2025-11-08 19h45.57.222602 +0530
,Scenes\033a.jpg,13,0,13,,,,,,,j,None,,,1.1969866,0.1703515,,,,,13,0,13,0,260.5930702,,,,,,,,,,,,,,,,,,,,,,,,,,,,,,260.576546,260.5930702,261.1100562,261.0765452,,,,,,,,,,,,,,,,,,,,,,,,,,261.0915803,261.1100562,261.1100562,261.1100562,264.0930347,j,264.0930698,,,264.0930793,None,,,,,,1.1969866,0.1703515,,,,,,,,,,17,1,2025-11-08_19h45.48.093,MST_task,2024.2.2,60.01241057,2025-11-08 19h45.57.222602 +0530
,Objects\190a.jpg,14,0,14,,,,,,,f,None,,,1.188213,0.1827202,,,,,14,0,14,0,264.109667,,,,,,,,,,,,,,,,,,,,,,,,,,,,,,264.0931366,264.109667,264.6265892,264.5931431,,,,,,,,,,,,,,,,,,,,,,,,,,264.6106717,264.6265892,264.6265892,264.6265892,267.6097395,f,267.6113179,,,267.6113297,None,,,,,,1.188213,0.1827202,,,,,,,,,,17,1,2025-11-08_19h45.48.093,MST_task,2024.2.2,60.01241057,2025-11-08 19h45.57.222602 +0530
,Objects\134a.jpg,15,0,15,,,,,,,j,None,,,2.3552237,0.1494211,,,,,15,0,15,0,267.6262474,,,,,,,,,,,,,,,,,,,,,,,,,,,,,,267.611387,267.6262474,268.1262125,268.1097667,,,,,,,,,,,,,,,,,,,,,,,,,,268.1198128,268.1262125,268.1262125,268.1262125,271.1098459,j,271.109881,,,271.1098959,None,,,271.1261796,271.1261796,271.1261796,2.3552237,0.1494211,,,,,,,,,,17,1,2025-11-08_19h45.48.093,MST_task,2024.2.2,60.01241057,2025-11-08 19h45.57.222602 +0530
,Objects\079a.jpg,16,0,16,,,,,,,j,None,,,2.6973297,0.1779102,,,,,16,0,16,0,271.1261796,,,,,,,,,,,,,,,,,,,,,,,,,,,,,,271.1099835,271.1261796,271.6261405,271.6096343,,,,,,,,,,,,,,,,,,,,,,,,,,271.6195267,271.6261405,271.6261405,271.6261405,274.6096588,j,274.6096927,,,274.6097027,None,,,274.6261016,274.6261016,274.6261016,2.6973297,0.1779102,,,,,,,,,,17,1,2025-11-08_19h45.48.093,MST_task,2024.2.2,60.01241057,2025-11-08 19h45.57.222602 +0530
,Objects\104a.jpg,17,0,17,,,,,,,f,None,,,0.9591194,0.1854734,,,,,17,0,17,0,274.6261016,,,,,,,,,,,,,,,,,,,,,,,,,,,,,,274.6097826,274.6261016,275.1261249,275.1095573,,,,,,,,,,,,,,,,,,,,,,,,,,275.1193553,275.1261249,275.1261249,275.1261249,278.1095728,f,278.1096099,,,278.1096196,None,,,278.1260248,278.1260248,278.1260248,0.9591194,0.1854734,,,,,,,,,,17,1,2025-11-08_19h45.48.093,MST_task,2024.2.2,60.01241057,2025-11-08 19h45.57.222602 +0530
,Objects\004a.jpg,18,0,18,,,,,,,None,j,0.8475128,None,,,,,,,18,0,18,0,278.1260248,,,,,,,,,,,,,,,,,,,,,,,,,,,,,,278.1097083,278.1260248,278.6260207,278.6094988,,,,,,,,,,,,,,,,,,,,,,,,,,278.6190752,278.6260207,278.6260207,278.6260207,281.6095337,None,281.6095648,281.6259654,281.6259654,282.4762384,j,0.8475128,None,281.6259654,281.6259654,281.6259654,,,,,,,,,,,,17,1,2025-11-08_19h45.48.093,MST_task,2024.2.2,60.01241057,2025-11-08 19h45.57.222602 +0530
,Objects\060a.jpg,19,0,19,,,,,,,None,f,0.8507359,None,,,,,,,19,0,19,0,282.4925742,,,,,,,,,,,,,,,,,,,,,,,,,,,,,,282.4763112,282.4925742,282.9925746,282.9761227,,,,,,,,,,,,,,,,,,,,,,,,,,282.9857571,282.9925746,282.9925746,282.9925746,285.9761121,None,285.9761423,285.9924935,285.9924935,286.8594687,f,0.8507359,None,285.9924935,285.9924935,285.9924935,,,,,,,,,,,,17,1,2025-11-08_19h45.48.093,MST_task,2024.2.2,60.01241057,2025-11-08 19h45.57.222602 +0530
,Objects\184a.jpg,20,0,20,,,,,,,j,None,,,1.6052984,0.1624172,,,,,20,0,20,0,286.8758604,,,,,,,,,,,,,,,,,,,,,,,,,,,,,,286.8595465,286.8758604,287.3757972,287.3593178,,,,,,,,,,,,,,,,,,,,,,,,,,287.3693663,287.3757972,287.3757972,287.3757972,290.3593817,j,290.3594201,,,290.3594311,None,,,290.3757945,290.3757945,290.3757945,1.6052984,0.1624172,,,,,,,,,,17,1,2025-11-08_19h45.48.093,MST_task,2024.2.2,60.01241057,2025-11-08 19h45.57.222602 +0530
,Scenes\028a.jpg,21,0,21,,,,,,,j,None,,,1.0647076,0.1623993,,,,,21,0,21,0,290.3757945,,,,,,,,,,,,,,,,,,,,,,,,,,,,,,290.3595205,290.3757945,290.8924499,290.8593364,,,,,,,,,,,,,,,,,,,,,,,,,,290.8724619,290.8924499,290.8924499,290.8924499,293.8756643,j,293.8768821,,,293.8768935,None,,,,,,1.0647076,0.1623993,,,,,,,,,,17,1,2025-11-08_19h45.48.093,MST_task,2024.2.2,60.01241057,2025-11-08 19h45.57.222602 +0530
,Scenes\080a.jpg,22,0,22,,,,,,,None,j,0.0242904,None,,,,,,,22,0,22,0,293.8922894,,,,,,,,,,,,,,,,,,,,,,,,,,,,,,293.8769855,293.8922894,294.4089786,294.3758259,,,,,,,,,,,,,,,,,,,,,,,,,,294.3864558,294.4089786,294.4089786,294.4089786,297.3922828,None,297.3923147,297.4089109,297.4089109,297.4425989,j,0.0242904,None,,,,,,,,,,,,,,,17,1,2025-11-08_19h45.48.093,MST_task,2024.2.2,60.01241057,2025-11-08 19h45.57.222602 +0530
,Scenes\121a.jpg,23,0,23,,,,,,,None,j,0.5893269,None,,,,,,,23,0,23,0,297.4588942,,,,,,,,,,,,,,,,,,,,,,,,,,,,,,297.4427005,297.4588942,297.9756284,297.942453,,,,,,,,,,,,,,,,,,,,,,,,,,297.9543871,297.9756284,297.9756284,297.9756284,300.9588708,None,300.9589017,300.9755681,300.9755681,301.5758146,j,0.5893269,None,,,,,,,,,,,,,,,17,1,2025-11-08_19h45.48.093,MST_task,2024.2.2,60.01241057,2025-11-08 19h45.57.222602 +0530
,Scenes\029a.jpg,24,0,24,,,,,,,j,None,,,0.9637462,0.1504519,,,,,24,0,24,0,301.5920903,,,,,,,,,,,,,,,,,,,,,,,,,,,,,,301.5759256,301.5920903,302.0920543,302.0755894,,,,,,,,,,,,,,,,,,,,,,,,,,302.0837944,302.0920543,302.0920543,302.0920543,305.0757339,j,305.0757708,,,305.0757821,None,,,305.0920038,305.0920038,305.0920038,0.9637462,0.1504519,,,,,,,,,,17,1,2025-11-08_19h45.48.093,MST_task,2024.2.2,60.01241057,2025-11-08 19h45.57.222602 +0530
,Scenes\155a.jpg,25,0,25,,,,,,,j,None,,,1.3078023,0.1901293,,,,,25,0,25,0,305.0920038,,,,,,,,,,,,,,,,,,,,,,,,,,,,,,305.0758719,305.0920038,305.6086763,305.5755353,,,,,,,,,,,,,,,,,,,,,,,,,,305.5885248,305.6086763,305.6086763,305.6086763,308.591976,j,308.5920254,,,308.5920357,None,,,,,,1.3078023,0.1901293,,,,,,,,,,17,1,2025-11-08_19h45.48.093,MST_task,2024.2.2,60.01241057,2025-11-08 19h45.57.222602 +0530
,Scenes\178a.jpg,26,0,26,,,,,,,j,None,,,2.2113342,0.1871084,,,,,26,0,26,0,308.6086027,,,,,,,,,,,,,,,,,,,,,,,,,,,,,,308.5921237,308.6086027,309.1252324,309.0921315,,,,,,,,,,,,,,,,,,,,,,,,,,309.1043366,309.1252324,309.1252324,309.1252324,312.1085961,j,312.1086311,,,312.1086407,None,,,,,,2.2113342,0.1871084,,,,,,,,,,17,1,2025-11-08_19h45.48.093,MST_task,2024.2.2,60.01241057,2025-11-08 19h45.57.222602 +0530
,Scenes\032a.jpg,27,0,27,,,,,,,j,None,,,1.3846283,0.1419026,,,,,27,0,27,0,312.1251949,,,,,,,,,,,,,,,,,,,,,,,,,,,,,,312.1086965,312.1251949,312.6421813,312.6087605,,,,,,,,,,,,,,,,,,,,,,,,,,312.6251093,312.6421813,312.6421813,312.6421813,315.6251487,j,315.6251827,,,315.6251927,None,,,,,,1.3846283,0.1419026,,,,,,,,,,17,1,2025-11-08_19h45.48.093,MST_task,2024.2.2,60.01241057,2025-11-08 19h45.57.222602 +0530
,Objects\100a.jpg,28,0,28,,,,,,,f,None,,,1.7163962,0.1833316,,,,,28,0,28,0,315.641752,,,,,,,,,,,,,,,,,,,,,,,,,,,,,,315.62525,315.641752,316.1587117,316.1253746,,,,,,,,,,,,,,,,,,,,,,,,,,316.1393911,316.1587117,316.1587117,316.1587117,319.1417975,f,319.1433828,,,319.1433945,None,,,,,,1.7163962,0.1833316,,,,,,,,,,17,1,2025-11-08_19h45.48.093,MST_task,2024.2.2,60.01241057,2025-11-08 19h45.57.222602 +0530
,Objects\029a.jpg,29,0,29,,,,,,,f,None,,,1.6289376,0.1575656,,,,,29,0,29,0,319.158341,,,,,,,,,,,,,,,,,,,,,,,,,,,,,,319.1434532,319.158341,319.6583305,319.6418923,,,,,,,,,,,,,,,,,,,,,,,,,,319.6518475,319.6583305,319.6583305,319.6583305,322.6418957,f,322.6419292,,,322.6419388,None,,,322.6582706,322.6582706,322.6582706,1.6289376,0.1575656,,,,,,,,,,17,1,2025-11-08_19h45.48.093,MST_task,2024.2.2,60.01241057,2025-11-08 19h45.57.222602 +0530
,Objects\171a.jpg,30,0,30,,,,,,,j,None,,,1.8716512,0.1507225,,,,,30,0,30,0,322.6582706,,,,,,,,,,,,,,,,,,,,,,,,,,,,,,322.6420234,322.6582706,323.1749601,323.1418466,,,,,,,,,,,,,,,,,,,,,,,,,,323.1599431,323.1749601,323.1749601,323.1749601,326.1582547,j,326.1582973,,,326.1583083,None,,,,,,1.8716512,0.1507225,,,,,,,,,,17,1,2025-11-08_19h45.48.093,MST_task,2024.2.2,60.01241057,2025-11-08 19h45.57.222602 +0530
,Objects\049a.jpg,31,0,31,,,,,,,None,f,0.8994082,None,,,,,,,31,0,31,0,326.1749505,,,,,,,,,,,,,,,,,,,,,,,,,,,,,,326.1583956,326.1749505,326.6915177,326.658372,,,,,,,,,,,,,,,,,,,,,,,,,,326.6756413,326.6915177,326.6915177,326.6915177,329.6748789,None,329.6749179,329.6914846,329.6914846,330.5918712,f,0.8994082,None,,,,,,,,,,,,,,,17,1,2025-11-08_19h45.48.093,MST_task,2024.2.2,60.01241057,2025-11-08 19h45.57.222602 +0530
,Objects\101a.jpg,32,0,32,,,,,,,j,None,,,1.6406933,0.158244,,,,,32,0,32,0,330.6081198,,,,,,,,,,,,,,,,,,,,,,,,,,,,,,330.5919583,330.6081198,331.1081145,331.0916676,,,,,,,,,,,,,,,,,,,,,,,,,,331.10127,331.1081145,331.1081145,331.1081145,334.091722,j,334.0917591,,,334.0917703,None,,,334.1080449,334.1080449,334.1080449,1.6406933,0.158244,,,,,,,,,,17,1,2025-11-08_19h45.48.093,MST_task,2024.2.2,60.01241057,2025-11-08 19h45.57.222602 +0530
,Objects\098a.jpg,33,0,33,,,,,,,f,None,,,1.9322467,0.1944966,,,,,33,0,33,0,334.1080449,,,,,,,,,,,,,,,,,,,,,,,,,,,,,,334.0918263,334.1080449,334.6246813,334.5916629,,,,,,,,,,,,,,,,,,,,,,,,,,334.607409,334.6246813,334.6246813,334.6246813,337.608127,f,337.6081666,,,337.608179,None,,,,,,1.9322467,0.1944966,,,,,,,,,,17,1,2025-11-08_19h45.48.093,MST_task,2024.2.2,60.01241057,2025-11-08 19h45.57.222602 +0530
,Objects\122a.jpg,34,0,34,,,,,,,None,f,0.6610453,None,,,,,,,34,0,34,0,337.6246573,,,,,,,,,,,,,,,,,,,,,,,,,,,,,,337.6082717,337.6246573,338.1412684,338.1081553,,,,,,,,,,,,,,,,,,,,,,,,,,338.123919,338.1412684,338.1412684,338.1412684,341.1246498,None,341.1246834,341.1412363,341.1412363,341.808186,f,0.6610453,None,,,,,,,,,,,,,,,17,1,2025-11-08_19h45.48.093,MST_task,2024.2.2,60.01241057,2025-11-08 19h45.57.222602 +0530
,Scenes\170a.jpg,35,0,35,,,,,,,j,None,,,1.4451619,0.1185903,,,,,35,0,35,0,341.8245796,,,,,,,,,,,,,,,,,,,,,,,,,,,,,,341.808266,341.8245796,342.3414509,342.3080501,,,,,,,,,,,,,,,,,,,,,,,,,,342.32234,342.3414509,342.3414509,342.3414509,345.32455,j,345.325698,,,345.3257095,None,,,,,,1.4451619,0.1185903,,,,,,,,,,17,1,2025-11-08_19h45.48.093,MST_task,2024.2.2,60.01241057,2025-11-08 19h45.57.222602 +0530
,Scenes\185a.jpg,36,0,36,,,,,,,None,j,0.4434683,None,,,,,,,36,0,36,0,345.3411237,,,,,,,,,,,,,,,,,,,,,,,,,,,,,,345.3257668,345.3411237,345.858195,345.8247201,,,,,,,,,,,,,,,,,,,,,,,,,,345.8362476,345.858195,345.858195,345.858195,348.8411044,None,348.8411388,348.857745,348.857745,349.3081084,j,0.4434683,None,,,,,,,,,,,,,,,17,1,2025-11-08_19h45.48.093,MST_task,2024.2.2,60.01241057,2025-11-08 19h45.57.222602 +0530
,Scenes\023a.jpg,37,0,37,,,,,,,f,None,,,2.2502364,0.196963,,,,,37,0,37,0,349.3243845,,,,,,,,,,,,,,,,,,,,,,,,,,,,,,349.3081873,349.3243845,349.8413499,349.807897,,,,,,,,,,,,,,,,,,,,,,,,,,349.824666,349.8413499,349.8413499,349.8413499,352.8243514,f,352.8243901,,,352.8244035,None,,,,,,2.2502364,0.196963,,,,,,,,,,17,1,2025-11-08_19h45.48.093,MST_task,2024.2.2,60.01241057,2025-11-08 19h45.57.222602 +0530
,Scenes\167a.jpg,38,0,38,,,,,,,f,None,,,2.2435665,0.1688056,,,,,38,0,38,0,352.8409778,,,,,,,,,,,,,,,,,,,,,,,,,,,,,,352.8244925,352.8409778,353.3745887,353.3245286,,,,,,,,,,,,,,,,,,,,,,,,,,353.354348,353.3745887,353.3745887,353.3745887,356.3410355,f,356.3410751,,,356.3410858,None,,,,,,2.2435665,0.1688056,,,,,,,,,,17,1,2025-11-08_19h45.48.093,MST_task,2024.2.2,60.01241057,2025-11-08 19h45.57.222602 +0530
,Scenes\190a.jpg,39,0,39,,,,,,,j,None,,,0.9915943,0.1573232,,,,,39,0,39,0,356.3575692,,,,,,,,,,,,,,,,,,,,,,,,,,,,,,356.3411732,356.3575692,356.8744611,356.841127,,,,,,,,,,,,,,,,,,,,,,,,,,356.8553452,356.8744611,356.8744611,356.8744611,359.8575327,j,359.8575692,,,359.8575792,None,,,,,,0.9915943,0.1573232,,,,,,,,,,17,1,2025-11-08_19h45.48.093,MST_task,2024.2.2,60.01241057,2025-11-08 19h45.57.222602 +0530
,Scenes\027a.jpg,40,0,40,,,,,,,None,f,0.4522622,None,,,,,,,40,0,40,0,359.8741572,,,,,,,,,,,,,,,,,,,,,,,,,,,,,,359.8576371,359.8741572,360.3911167,360.3577006,,,,,,,,,,,,,,,,,,,,,,,,,,360.3702735,360.3911167,360.3911167,360.3911167,363.3741565,None,363.3741968,363.3907156,363.3907156,363.8577124,f,0.4522622,None,,,,,,,,,,,,,,,17,1,2025-11-08_19h45.48.093,MST_task,2024.2.2,60.01241057,2025-11-08 19h45.57.222602 +0530
,Scenes\017a.jpg,41,0,41,,,,,,,None,f,2.4706952,None,,,,,,,41,0,41,0,363.8741396,,,,,,,,,,,,,,,,,,,,,,,,,,,,,,363.8577807,363.8741396,364.3910667,364.3576641,,,,,,,,,,,,,,,,,,,,,,,,,,364.3725876,364.3910667,364.3910667,364.3910667,367.3740209,None,367.3740535,367.3906632,367.3906632,369.8743611,f,2.4706952,None,,,,,,,,,,,,,,,17,1,2025-11-08_19h45.48.093,MST_task,2024.2.2,60.01241057,2025-11-08 19h45.57.222602 +0530
,Objects\043a.jpg,42,0,42,,,,,,,None,j,0.982011,None,,,,,,,42,0,42,0,369.8906025,,,,,,,,,,,,,,,,,,,,,,,,,,,,,,369.8744723,369.8906025,370.3908286,370.3742027,,,,,,,,,,,,,,,,,,,,,,,,,,370.3859763,370.3908286,370.3908286,370.3908286,373.3740994,None,373.3756676,373.3904988,373.3904988,374.3743144,j,0.982011,None,373.3904988,373.3904988,373.3904988,,,,,,,,,,,,17,1,2025-11-08_19h45.48.093,MST_task,2024.2.2,60.01241057,2025-11-08 19h45.57.222602 +0530
,Objects\131a.jpg,43,0,43,,,,,,,None,j,0.4936218,None,,,,,,,43,0,43,0,374.3905738,,,,,,,,,,,,,,,,,,,,,,,,,,,,,,374.374393,374.3905738,374.8904989,374.8740149,,,,,,,,,,,,,,,,,,,,,,,,,,374.884347,374.8904989,374.8904989,374.8904989,377.8739932,None,377.8740239,377.8904326,377.8904326,378.3907077,j,0.4936218,None,377.8904326,377.8904326,377.8904326,,,,,,,,,,,,17,1,2025-11-08_19h45.48.093,MST_task,2024.2.2,60.01241057,2025-11-08 19h45.57.222602 +0530
,Objects\006a.jpg,44,0,44,,,,,,,None,j,1.268426,None,,,,,,,44,0,44,0,378.4070891,,,,,,,,,,,,,,,,,,,,,,,,,,,,,,378.3907745,378.4070891,378.9070462,378.8906601,,,,,,,,,,,,,,,,,,,,,,,,,,378.9005774,378.9070462,378.9070462,378.9070462,381.890586,None,381.8906197,381.9070098,381.9070098,383.1905741,j,1.268426,None,381.9070098,381.9070098,381.9070098,,,,,,,,,,,,17,1,2025-11-08_19h45.48.093,MST_task,2024.2.2,60.01241057,2025-11-08 19h45.57.222602 +0530
,Objects\112a.jpg,45,0,45,,,,,,,None,j,2.6625994,None,,,,,,,45,0,45,0,383.206953,,,,,,,,,,,,,,,,,,,,,,,,,,,,,,383.1906441,383.206953,383.7069499,383.6905335,,,,,,,,,,,,,,,,,,,,,,,,,,383.7006343,383.7069499,383.7069499,383.7069499,386.6905564,None,386.6905914,386.7069069,386.7069069,389.3738838,j,2.6625994,None,386.7069069,386.7069069,386.7069069,,,,,,,,,,,,17,1,2025-11-08_19h45.48.093,MST_task,2024.2.2,60.01241057,2025-11-08 19h45.57.222602 +0530
,Objects\157a.jpg,46,0,46,,,,,,,f,None,,,1.2229902,0.1735065,,,,,46,0,46,0,389.3901863,,,,,,,,,,,,,,,,,,,,,,,,,,,,,,389.3739621,389.3901863,389.8901946,389.873786,,,,,,,,,,,,,,,,,,,,,,,,,,389.8833258,389.8901946,389.8901946,389.8901946,392.8736965,f,392.8737303,,,392.8737422,None,,,392.8901075,392.8901075,392.8901075,1.2229902,0.1735065,,,,,,,,,,17,1,2025-11-08_19h45.48.093,MST_task,2024.2.2,60.01241057,2025-11-08 19h45.57.222602 +0530
,Objects\126a.jpg,47,0,47,,,,,,,None,j,0.146457,None,,,,,,,47,0,47,0,392.8901075,,,,,,,,,,,,,,,,,,,,,,,,,,,,,,392.8738434,392.8901075,393.3900606,393.3736597,,,,,,,,,,,,,,,,,,,,,,,,,,393.3841699,393.3900606,393.3900606,393.3900606,396.3736221,None,396.3736545,396.3900326,396.3900326,396.5404513,j,0.146457,None,396.3900326,396.3900326,396.3900326,,,,,,,,,,,,17,1,2025-11-08_19h45.48.093,MST_task,2024.2.2,60.01241057,2025-11-08 19h45.57.222602 +0530
,Objects\020a.jpg,48,0,48,,,,,,,None,j,2.8348675,None,,,,,,,48,0,48,0,396.5566907,,,,,,,,,,,,,,,,,,,,,,,,,,,,,,396.540519,396.5566907,397.0566535,397.0403183,,,,,,,,,,,,,,,,,,,,,,,,,,397.0506491,397.0566535,397.0566535,397.0566535,400.0402244,None,400.0402583,400.0566217,400.0566217,402.9067849,j,2.8348675,None,400.0566217,400.0566217,400.0566217,,,,,,,,,,,,17,1,2025-11-08_19h45.48.093,MST_task,2024.2.2,60.01241057,2025-11-08 19h45.57.222602 +0530
,Scenes\069a.jpg,49,0,49,,,,,,,f,None,,,2.1028298,0.1455956,,,,,49,0,49,0,402.9232154,,,,,,,,,,,,,,,,,,,,,,,,,,,,,,402.9068921,402.9232154,403.4401843,403.4066666,,,,,,,,,,,,,,,,,,,,,,,,,,403.4176276,403.4401843,403.4401843,403.4401843,406.4231855,f,406.4243578,,,406.4243702,None,,,,,,2.1028298,0.1455956,,,,,,,,,,17,1,2025-11-08_19h45.48.093,MST_task,2024.2.2,60.01241057,2025-11-08 19h45.57.222602 +0530
,Scenes\060a.jpg,50,0,50,,,,,,,None,j,1.0844044,None,,,,,,,50,0,50,0,406.4398415,,,,,,,,,,,,,,,,,,,,,,,,,,,,,,406.4244549,406.4398415,406.9733572,406.9233005,,,,,,,,,,,,,,,,,,,,,,,,,,406.9616074,406.9733572,406.9733572,406.9733572,409.9397867,None,409.9398203,409.9564282,409.9564282,411.0566883,j,1.0844044,None,,,,,,,,,,,,,,,17,1,2025-11-08_19h45.48.093,MST_task,2024.2.2,60.01241057,2025-11-08 19h45.57.222602 +0530
,Scenes\156a.jpg,51,0,51,,,,,,,None,j,1.4353561,None,,,,,,,51,0,51,0,411.0730828,,,,,,,,,,,,,,,,,,,,,,,,,,,,,,411.0567935,411.0730828,411.5896727,411.5566102,,,,,,,,,,,,,,,,,,,,,,,,,,411.5691271,411.5896727,411.5896727,411.5896727,414.5729947,None,414.5730313,414.5896347,414.5896347,416.0399917,j,1.4353561,None,,,,,,,,,,,,,,,17,1,2025-11-08_19h45.48.093,MST_task,2024.2.2,60.01241057,2025-11-08 19h45.57.222602 +0530
,Scenes\186a.jpg,52,0,52,,,,,,,None,j,0.1144296,None,,,,,,,52,0,52,0,416.0563036,,,,,,,,,,,,,,,,,,,,,,,,,,,,,,416.0401207,416.0563036,416.5732131,416.5397507,,,,,,,,,,,,,,,,,,,,,,,,,,416.5566754,416.5732131,416.5732131,416.5732131,419.5562235,None,419.5562695,419.5728527,419.5728527,419.6900088,j,0.1144296,None,,,,,,,,,,,,,,,17,1,2025-11-08_19h45.48.093,MST_task,2024.2.2,60.01241057,2025-11-08 19h45.57.222602 +0530
,Scenes\092a.jpg,53,0,53,,,,,,,j,None,,,2.8261085,None,,,,,53,0,53,0,419.7062335,,,,,,,,,,,,,,,,,,,,,,,,,,,,,,419.690075,419.7062335,420.2228156,420.1897495,,,,,,,,,,,,,,,,,,,,,,,,,,420.2013549,420.2228156,420.2228156,420.2228156,423.2061498,j,423.2061878,,,423.2061984,None,,,,,,2.8261085,None,,,,,,,,,,17,1,2025-11-08_19h45.48.093,MST_task,2024.2.2,60.01241057,2025-11-08 19h45.57.222602 +0530
,Scenes\008a.jpg,54,0,54,,,,,,,f,None,,,1.1312202,0.1982873,,,,,54,0,54,0,423.2227611,,,,,,,,,,,,,,,,,,,,,,,,,,,,,,423.206253,423.2227611,423.7397223,423.7063067,,,,,,,,,,,,,,,,,,,,,,,,,,423.7181646,423.7397223,423.7397223,423.7397223,426.7227317,f,426.7227684,,,426.7227785,None,,,,,,1.1312202,0.1982873,,,,,,,,,,17,1,2025-11-08_19h45.48.093,MST_task,2024.2.2,60.01241057,2025-11-08 19h45.57.222602 +0530
,Scenes\141a.jpg,55,0,55,,,,,,,j,None,,,0.8809392,0.1076124,,,,,55,0,55,0,426.7393737,,,,,,,,,,,,,,,,,,,,,,,,,,,,,,426.7228375,426.7393737,427.2559997,427.2228348,,,,,,,,,,,,,,,,,,,,,,,,,,427.2347197,427.2559997,427.2559997,427.2559997,430.2393639,j,430.2394067,,,430.2394206,None,,,,,,0.8809392,0.1076124,,,,,,,,,,17,1,2025-11-08_19h45.48.093,MST_task,2024.2.2,60.01241057,2025-11-08 19h45.57.222602 +0530
,Objects\052a.jpg,56,0,56,,,,,,,f,None,,,1.4962205,0.1691565,,,,,56,0,56,0,430.255965,,,,,,,,,,,,,,,,,,,,,,,,,,,,,,430.2395136,430.255965,430.7732031,430.7395508,,,,,,,,,,,,,,,,,,,,,,,,,,430.7657539,430.7732031,430.7732031,430.7732031,433.7559725,f,433.757602,,,433.7576174,None,,,,,,1.4962205,0.1691565,,,,,,,,,,17,1,2025-11-08_19h45.48.093,MST_task,2024.2.2,60.01241057,2025-11-08 19h45.57.222602 +0530
,Objects\164a.jpg,57,0,57,,,,,,,f,None,,,0.8803508,0.1537905,,,,,57,0,57,0,433.772637,,,,,,,,,,,,,,,,,,,,,,,,,,,,,,433.7576795,433.772637,434.2892733,434.2562304,,,,,,,,,,,,,,,,,,,,,,,,,,434.2790787,434.2892733,434.2892733,434.2892733,437.2725272,f,437.2725655,,,437.2725754,None,,,,,,0.8803508,0.1537905,,,,,,,,,,17,1,2025-11-08_19h45.48.093,MST_task,2024.2.2,60.01241057,2025-11-08 19h45.57.222602 +0530
,Objects\115a.jpg,58,0,58,,,,,,,f,None,,,0.876839,0.1131973,,,,,58,0,58,0,437.2891336,,,,,,,,,,,,,,,,,,,,,,,,,,,,,,437.2726647,437.2891336,437.7890965,437.7726629,,,,,,,,,,,,,,,,,,,,,,,,,,437.7826313,437.7890965,437.7890965,437.7890965,440.7726119,f,440.7726481,,,440.7726576,None,,,440.7890698,440.7890698,440.7890698,0.876839,0.1131973,,,,,,,,,,17,1,2025-11-08_19h45.48.093,MST_task,2024.2.2,60.01241057,2025-11-08 19h45.57.222602 +0530
,Objects\066a.jpg,59,0,59,,,,,,,f,None,,,1.6054506,0.1506579,,,,,59,0,59,0,440.7890698,,,,,,,,,,,,,,,,,,,,,,,,,,,,,,440.7727445,440.7890698,441.2890795,441.2725933,,,,,,,,,,,,,,,,,,,,,,,,,,441.2824033,441.2890795,441.2890795,441.2890795,444.2726639,f,444.2726997,,,444.2727112,None,,,444.2889894,444.2889894,444.2889894,1.6054506,0.1506579,,,,,,,,,,17,1,2025-11-08_19h45.48.093,MST_task,2024.2.2,60.01241057,2025-11-08 19h45.57.222602 +0530
,Objects\124a.jpg,60,0,60,,,,,,,j,None,,,1.6459789,0.2064017,,,,,60,0,60,0,444.2889894,,,,,,,,,,,,,,,,,,,,,,,,,,,,,,444.2727676,444.2889894,444.7890009,444.7724894,,,,,,,,,,,,,,,,,,,,,,,,,,444.7821964,444.7890009,444.7890009,444.7890009,447.7724707,j,447.7725037,,,447.7725138,None,,,447.7889116,447.7889116,447.7889116,1.6459789,0.2064017,,,,,,,,,,17,1,2025-11-08_19h45.48.093,MST_task,2024.2.2,60.01241057,2025-11-08 19h45.57.222602 +0530
,Objects\142a.jpg,61,0,61,,,,,,,f,None,,,2.3620902,0.1424351,,,,,61,0,61,0,447.7889116,,,,,,,,,,,,,,,,,,,,,,,,,,,,,,447.7725945,447.7889116,448.2889118,448.2724284,,,,,,,,,,,,,,,,,,,,,,,,,,448.2825747,448.2889118,448.2889118,448.2889118,451.2723897,f,451.2724312,,,451.2724411,None,,,451.2888568,451.2888568,451.2888568,2.3620902,0.1424351,,,,,,,,,,17,1,2025-11-08_19h45.48.093,MST_task,2024.2.2,60.01241057,2025-11-08 19h45.57.222602 +0530
,Objects\042a.jpg,62,0,62,,,,,,,j,None,,,1.1026507,0.1897394,,,,,62,0,62,0,451.2888568,,,,,,,,,,,,,,,,,,,,,,,,,,,,,,451.27253,451.2888568,451.7888356,451.7723752,,,,,,,,,,,,,,,,,,,,,,,,,,451.7823805,451.7888356,451.7888356,451.7888356,454.7723795,j,454.7724136,,,454.7724241,None,,,454.7887714,454.7887714,454.7887714,1.1026507,0.1897394,,,,,,,,,,17,1,2025-11-08_19h45.48.093,MST_task,2024.2.2,60.01241057,2025-11-08 19h45.57.222602 +0530
,Scenes\150a.jpg,63,0,63,,,,,,,j,None,,,2.2958996,0.1498551,,,,,63,0,63,0,454.7887714,,,,,,,,,,,,,,,,,,,,,,,,,,,,,,454.7724814,454.7887714,455.3054059,455.2723015,,,,,,,,,,,,,,,,,,,,,,,,,,455.2845379,455.3054059,455.3054059,455.3054059,458.2887743,j,458.289946,,,458.2899565,None,,,,,,2.2958996,0.1498551,,,,,,,,,,17,1,2025-11-08_19h45.48.093,MST_task,2024.2.2,60.01241057,2025-11-08 19h45.57.222602 +0530
,Scenes\126a.jpg,64,0,64,,,,,,,j,None,,,1.7580329,0.150408,,,,,64,0,64,0,458.3053177,,,,,,,,,,,,,,,,,,,,,,,,,,,,,,458.2900406,458.3053177,458.8220114,458.7888239,,,,,,,,,,,,,,,,,,,,,,,,,,458.800931,458.8220114,458.8220114,458.8220114,461.8053107,j,461.805348,,,461.8053581,None,,,,,,1.7580329,0.150408,,,,,,,,,,17,1,2025-11-08_19h45.48.093,MST_task,2024.2.2,60.01241057,2025-11-08 19h45.57.222602 +0530
,Scenes\018a.jpg,65,0,65,,,,,,,f,None,,,1.738795,0.211709,,,,,65,0,65,0,461.8219483,,,,,,,,,,,,,,,,,,,,,,,,,,,,,,461.8054708,461.8219483,,462.3054228,,,,,,,,,,,,,,,,,,,,,,,,,,462.3173688,462.3385879,462.3385879,462.3385879,465.321908,f,465.3219484,,,465.3219589,None,,,,,,1.738795,0.211709,,,,,,,,,,17,1,2025-11-08_19h45.48.093,MST_task,2024.2.2,60.01241057,2025-11-08 19h45.57.222602 +0530
,Scenes\009a.jpg,66,0,66,,,,,,,None,f,1.9419788,None,,,,,,,66,0,66,0,465.33853,,,,,,,,,,,,,,,,,,,,,,,,,,,,,,465.3220215,465.33853,,465.8220298,,,,,,,,,,,,,,,,,,,,,,,,,,465.8390523,465.8554555,465.8554555,465.8554555,468.8384769,None,468.8385085,468.8551216,468.8551216,470.8054518,f,1.9419788,None,,,,,,,,,,,,,,,17,1,2025-11-08_19h45.48.093,MST_task,2024.2.2,60.01241057,2025-11-08 19h45.57.222602 +0530
,Scenes\104a.jpg,67,0,67,,,,,,,None,f,3.1561779,None,,,,,,,67,0,67,0,470.8217512,,,,,,,,,,,,,,,,,,,,,,,,,,,,,,470.8055266,470.8217512,471.3384059,471.3052163,,,,,,,,,,,,,,,,,,,,,,,,,,471.3176975,471.3384059,471.3384059,471.3384059,474.3217064,None,474.3217365,474.3383369,474.3383369,477.5052381,f,3.1561779,None,,,,,,,,,,,,,,,17,1,2025-11-08_19h45.48.093,MST_task,2024.2.2,60.01241057,2025-11-08 19h45.57.222602 +0530
,Scenes\181a.jpg,68,0,68,,,,,,,f,None,,,2.477258,0.2097287,,,,,68,0,68,0,477.5216004,,,,,,,,,,,,,,,,,,,,,,,,,,,,,,477.5053236,477.5216004,478.0382304,478.005071,,,,,,,,,,,,,,,,,,,,,,,,,,478.0185313,478.0382304,478.0382304,478.0382304,481.0215764,f,481.0216119,,,481.0216219,None,,,,,,2.477258,0.2097287,,,,,,,,,,17,1,2025-11-08_19h45.48.093,MST_task,2024.2.2,60.01241057,2025-11-08 19h45.57.222602 +0530
,Scenes\025a.jpg,69,0,69,,,,,,,None,j,2.2957791,None,,,,,,,69,0,69,0,481.0381941,,,,,,,,,,,,,,,,,,,,,,,,,,,,,,481.0216789,481.0381941,481.554837,481.5216731,,,,,,,,,,,,,,,,,,,,,,,,,,481.5469872,481.554837,481.554837,481.554837,484.5381221,None,484.5381529,484.5547882,484.5547882,486.8550826,j,2.2957791,None,,,,,,,,,,,,,,,17,1,2025-11-08_19h45.48.093,MST_task,2024.2.2,60.01241057,2025-11-08 19h45.57.222602 +0530
,Objects\179a.jpg,70,0,70,,,,,,,None,j,4.7458279,None,,,,,,,70,0,70,0,486.8714055,,,,,,,,,,,,,,,,,,,,,,,,,,,,,,486.8551628,486.8714055,487.3715225,487.3549491,,,,,,,,,,,,,,,,,,,,,,,,,,487.3670741,487.3715225,487.3715225,487.3715225,490.3549841,None,490.3565467,490.3713389,490.3713389,495.1216097,j,4.7458279,None,490.3713389,490.3713389,490.3713389,,,,,,,,,,,,17,1,2025-11-08_19h45.48.093,MST_task,2024.2.2,60.01241057,2025-11-08 19h45.57.222602 +0530
,Objects\125a.jpg,71,0,71,,,,,,,None,j,0.6428213,None,,,,,,,71,0,71,0,495.13801,,,,,,,,,,,,,,,,,,,,,,,,,,,,,,495.1217313,495.13801,495.6379359,495.621423,,,,,,,,,,,,,,,,,,,,,,,,,,495.6313934,495.6379359,495.6379359,495.6379359,498.6215045,None,498.6215329,498.6378724,498.6378724,499.2881715,j,0.6428213,None,498.6378724,498.6378724,498.6378724,,,,,,,,,,,,17,1,2025-11-08_19h45.48.093,MST_task,2024.2.2,60.01241057,2025-11-08 19h45.57.222602 +0530
,Objects\085a.jpg,72,0,72,,,,,,,None,j,0.7897851,None,,,,,,,72,0,72,0,499.304577,,,,,,,,,,,,,,,,,,,,,,,,,,,,,,499.2882721,499.304577,499.8212303,499.7880416,,,,,,,,,,,,,,,,,,,,,,,,,,499.8051755,499.8212303,499.8212303,499.8212303,502.8045113,None,502.8045409,502.8211733,502.8211733,503.6215251,j,0.7897851,None,,,,,,,,,,,,,,,17,1,2025-11-08_19h45.48.093,MST_task,2024.2.2,60.01241057,2025-11-08 19h45.57.222602 +0530
,Objects\014a.jpg,73,0,73,,,,,,,None,f,0.2923514,None,,,,,,,73,0,73,0,503.6377667,,,,,,,,,,,,,,,,,,,,,,,,,,,,,,503.6216307,503.6377667,504.1544444,504.1213299,,,,,,,,,,,,,,,,,,,,,,,,,,504.1444129,504.1544444,504.1544444,504.1544444,507.1377523,None,507.1377889,507.1543527,507.1543527,507.4546673,f,0.2923514,None,,,,,,,,,,,,,,,17,1,2025-11-08_19h45.48.093,MST_task,2024.2.2,60.01241057,2025-11-08 19h45.57.222602 +0530
,Objects\116a.jpg,74,0,74,,,,,,,None,f,2.594369,None,,,,,,,74,0,74,0,507.4710705,,,,,,,,,,,,,,,,,,,,,,,,,,,,,,507.4547694,507.4710705,507.9709494,507.9545579,,,,,,,,,,,,,,,,,,,,,,,,,,507.9645465,507.9709494,507.9709494,507.9709494,510.9545334,None,510.9545632,510.9709946,510.9709946,513.5711004,f,2.594369,None,510.9709946,510.9709946,510.9709946,,,,,,,,,,,,17,1,2025-11-08_19h45.48.093,MST_task,2024.2.2,60.01241057,2025-11-08 19h45.57.222602 +0530
,Objects\145a.jpg,75,0,75,,,,,,,f,None,,,1.7379824,0.1620133,,,,,75,0,75,0,513.5874861,,,,,,,,,,,,,,,,,,,,,,,,,,,,,,513.5712151,513.5874861,514.0874805,514.0711149,,,,,,,,,,,,,,,,,,,,,,,,,,514.0813396,514.0874805,514.0874805,514.0874805,517.0710624,f,517.0710977,,,517.0711079,None,,,517.087403,517.087403,517.087403,1.7379824,0.1620133,,,,,,,,,,17,1,2025-11-08_19h45.48.093,MST_task,2024.2.2,60.01241057,2025-11-08 19h45.57.222602 +0530
,Objects\070a.jpg,76,0,76,,,,,,,f,None,,,1.1807114,0.1462435,,,,,76,0,76,0,517.087403,,,,,,,,,,,,,,,,,,,,,,,,,,,,,,517.0711916,517.087403,517.6040677,517.5709823,,,,,,,,,,,,,,,,,,,,,,,,,,517.5882005,517.6040677,517.6040677,517.6040677,520.5873511,f,520.5873962,,,520.5874061,None,,,,,,1.1807114,0.1462435,,,,,,,,,,17,1,2025-11-08_19h45.48.093,MST_task,2024.2.2,60.01241057,2025-11-08 19h45.57.222602 +0530
,Scenes\179a.jpg,77,0,77,,,,,,,j,None,,,0.7278768,0.1465383,,,,,77,0,77,0,520.6040001,,,,,,,,,,,,,,,,,,,,,,,,,,,,,,520.587492,520.6040001,521.1208547,521.0876137,,,,,,,,,,,,,,,,,,,,,,,,,,521.1005529,521.1208547,521.1208547,521.1208547,524.1039811,j,524.1051928,,,524.105204,None,,,,,,0.7278768,0.1465383,,,,,,,,,,17,1,2025-11-08_19h45.48.093,MST_task,2024.2.2,60.01241057,2025-11-08 19h45.57.222602 +0530
,Scenes\078a.jpg,78,0,78,,,,,,,j,None,,,1.4459525,0.1457871,,,,,78,0,78,0,524.1205726,,,,,,,,,,,,,,,,,,,,,,,,,,,,,,524.1052601,524.1205726,524.6376235,524.6040803,,,,,,,,,,,,,,,,,,,,,,,,,,524.6172622,524.6376235,524.6376235,524.6376235,527.6205924,j,527.6206292,,,527.620639,None,,,,,,1.4459525,0.1457871,,,,,,,,,,17,1,2025-11-08_19h45.48.093,MST_task,2024.2.2,60.01241057,2025-11-08 19h45.57.222602 +0530
,Scenes\191a.jpg,79,0,79,,,,,,,j,None,,,1.4706182,0.1087644,,,,,79,0,79,0,527.6371808,,,,,,,,,,,,,,,,,,,,,,,,,,,,,,527.6207502,527.6371808,528.1540021,528.1207652,,,,,,,,,,,,,,,,,,,,,,,,,,528.1314843,528.1540021,528.1540021,528.1540021,531.1371525,j,531.1371903,,,531.1372002,None,,,,,,1.4706182,0.1087644,,,,,,,,,,17,1,2025-11-08_19h45.48.093,MST_task,2024.2.2,60.01241057,2025-11-08 19h45.57.222602 +0530
,Scenes\128a.jpg,80,0,80,,,,,,,j,None,,,0.8791852,0.1535896,,,,,80,0,80,0,531.1537608,,,,,,,,,,,,,,,,,,,,,,,,,,,,,,531.1372601,531.1537608,531.6704435,531.6373181,,,,,,,,,,,,,,,,,,,,,,,,,,531.6574798,531.6704435,531.6704435,531.6704435,534.6537883,j,534.6538231,,,534.6538328,None,,,,,,0.8791852,0.1535896,,,,,,,,,,17,1,2025-11-08_19h45.48.093,MST_task,2024.2.2,60.01241057,2025-11-08 19h45.57.222602 +0530
,Scenes\177a.jpg,81,0,81,,,,,,,j,None,,,0.6838913,0.1403036,,,,,81,0,81,0,534.6703525,,,,,,,,,,,,,,,,,,,,,,,,,,,,,,534.6539244,534.6703525,535.1869787,535.1538433,,,,,,,,,,,,,,,,,,,,,,,,,,535.1658008,535.1869787,535.1869787,535.1869787,538.170426,j,538.1704643,,,538.1704747,None,,,,,,0.6838913,0.1403036,,,,,,,,,,17,1,2025-11-08_19h45.48.093,MST_task,2024.2.2,60.01241057,2025-11-08 19h45.57.222602 +0530
,Scenes\012a.jpg,82,0,82,,,,,,,j,None,,,1.0950237,0.1602356,,,,,82,0,82,0,538.1869811,,,,,,,,,,,,,,,,,,,,,,,,,,,,,,538.1705353,538.1869811,538.703575,538.6704179,,,,,,,,,,,,,,,,,,,,,,,,,,538.6842802,538.703575,538.703575,538.703575,541.6870924,j,541.6871289,,,541.687139,None,,,,,,1.0950237,0.1602356,,,,,,,,,,17,1,2025-11-08_19h45.48.093,MST_task,2024.2.2,60.01241057,2025-11-08 19h45.57.222602 +0530
,Scenes\031a.jpg,83,0,83,,,,,,,f,None,,,1.3546698,0.1617237,,,,,83,0,83,0,541.7035242,,,,,,,,,,,,,,,,,,,,,,,,,,,,,,541.6872272,541.7035242,542.2201615,542.1871009,,,,,,,,,,,,,,,,,,,,,,,,,,542.2008322,542.2201615,542.2201615,542.2201615,545.2035107,f,545.2035468,,,545.2035569,None,,,,,,1.3546698,0.1617237,,,,,,,,,,17,1,2025-11-08_19h45.48.093,MST_task,2024.2.2,60.01241057,2025-11-08 19h45.57.222602 +0530
,Objects\013a.jpg,84,0,84,,,,,,,j,None,,,1.4144769,0.1826031,,,,,84,0,84,0,545.2201297,,,,,,,,,,,,,,,,,,,,,,,,,,,,,,545.2036802,545.2201297,545.7201421,545.703684,,,,,,,,,,,,,,,,,,,,,,,,,,545.7152112,545.7201421,545.7201421,545.7201421,548.7036415,j,548.7051421,,,548.7051535,None,,,548.7200284,548.7200284,548.7200284,1.4144769,0.1826031,,,,,,,,,,17,1,2025-11-08_19h45.48.093,MST_task,2024.2.2,60.01241057,2025-11-08 19h45.57.222602 +0530
,Objects\096a.jpg,85,0,85,,,,,,,f,None,,,2.672761,0.1537729,,,,,85,0,85,0,548.7200284,,,,,,,,,,,,,,,,,,,,,,,,,,,,,,548.7052082,548.7200284,549.2366794,549.2034896,,,,,,,,,,,,,,,,,,,,,,,,,,549.2218421,549.2366794,549.2366794,549.2366794,552.220006,f,552.220045,,,552.2200564,None,,,,,,2.672761,0.1537729,,,,,,,,,,17,1,2025-11-08_19h45.48.093,MST_task,2024.2.2,60.01241057,2025-11-08 19h45.57.222602 +0530
,Objects\023a.jpg,86,0,86,,,,,,,f,None,,,0.9380465,0.1426329,,,,,86,0,86,0,552.236639,,,,,,,,,,,,,,,,,,,,,,,,,,,,,,552.2201192,552.236639,552.7365974,552.7202051,,,,,,,,,,,,,,,,,,,,,,,,,,552.7304266,552.7365974,552.7365974,552.7365974,555.7201183,f,555.7201515,,,555.720161,None,,,555.7365598,555.7365598,555.7365598,0.9380465,0.1426329,,,,,,,,,,17,1,2025-11-08_19h45.48.093,MST_task,2024.2.2,60.01241057,2025-11-08 19h45.57.222602 +0530
,Objects\041a.jpg,87,0,87,,,,,,,j,None,,,0.9269867,0.1453473,,,,,87,0,87,0,555.7365598,,,,,,,,,,,,,,,,,,,,,,,,,,,,,,555.7202162,555.7365598,556.2365215,556.219999,,,,,,,,,,,,,,,,,,,,,,,,,,556.2300705,556.2365215,556.2365215,556.2365215,559.2200594,j,559.220091,,,559.2201002,None,,,559.236456,559.236456,559.236456,0.9269867,0.1453473,,,,,,,,,,17,1,2025-11-08_19h45.48.093,MST_task,2024.2.2,60.01241057,2025-11-08 19h45.57.222602 +0530
,Objects\089a.jpg,88,0,88,,,,,,,None,j,0.1227849,None,,,,,,,88,0,88,0,559.236456,,,,,,,,,,,,,,,,,,,,,,,,,,,,,,559.2201789,559.236456,559.7364431,559.7199633,,,,,,,,,,,,,,,,,,,,,,,,,,559.7296239,559.7364431,559.7364431,559.7364431,562.7200129,None,562.7200436,562.7363807,562.7363807,562.8702658,j,0.1227849,None,562.7363807,562.7363807,562.7363807,,,,,,,,,,,,17,1,2025-11-08_19h45.48.093,MST_task,2024.2.2,60.01241057,2025-11-08 19h45.57.222602 +0530
,Objects\113a.jpg,89,0,89,,,,,,,f,None,,,1.1123838,0.1408377,,,,,89,0,89,0,562.8864176,,,,,,,,,,,,,,,,,,,,,,,,,,,,,,562.8703712,562.8864176,563.3864172,563.3700864,,,,,,,,,,,,,,,,,,,,,,,,,,563.3803449,563.3864172,563.3864172,563.3864172,566.3699012,f,566.3699328,,,566.3699425,None,,,566.3863344,566.3863344,566.3863344,1.1123838,0.1408377,,,,,,,,,,17,1,2025-11-08_19h45.48.093,MST_task,2024.2.2,60.01241057,2025-11-08 19h45.57.222602 +0530
,Objects\169a.jpg,90,0,90,,,,,,,j,None,,,1.2965891,0.1464715,,,,,90,0,90,0,566.3863344,,,,,,,,,,,,,,,,,,,,,,,,,,,,,,566.369996,566.3863344,566.8863468,566.8698624,,,,,,,,,,,,,,,,,,,,,,,,,,566.8793666,566.8863468,566.8863468,566.8863468,569.869862,j,569.8698974,,,569.8699078,None,,,569.8862619,569.8862619,569.8862619,1.2965891,0.1464715,,,,,,,,,,17,1,2025-11-08_19h45.48.093,MST_task,2024.2.2,60.01241057,2025-11-08 19h45.57.222602 +0530
,Scenes\076a.jpg,91,0,91,,,,,,,j,None,,,2.5071974,0.2126249,,,,,91,0,91,0,569.8862619,,,,,,,,,,,,,,,,,,,,,,,,,,,,,,569.8699652,569.8862619,570.4031104,570.369715,,,,,,,,,,,,,,,,,,,,,,,,,,570.3947569,570.4031104,570.4031104,570.4031104,573.3862951,j,573.3874409,,,573.3874524,None,,,,,,2.5071974,0.2126249,,,,,,,,,,17,1,2025-11-08_19h45.48.093,MST_task,2024.2.2,60.01241057,2025-11-08 19h45.57.222602 +0530
,Scenes\171a.jpg,92,0,92,,,,,,,None,f,1.5791033,None,,,,,,,92,0,92,0,573.4028344,,,,,,,,,,,,,,,,,,,,,,,,,,,,,,573.3875383,573.4028344,573.9196832,573.8864316,,,,,,,,,,,,,,,,,,,,,,,,,,573.9094609,573.9196832,573.9196832,573.9196832,576.9028068,None,576.9028393,576.9194388,576.9194388,578.5030532,f,1.5791033,None,,,,,,,,,,,,,,,17,1,2025-11-08_19h45.48.093,MST_task,2024.2.2,60.01241057,2025-11-08 19h45.57.222602 +0530
,Scenes\143a.jpg,93,0,93,,,,,,,None,j,0.91668,None,,,,,,,93,0,93,0,578.5193747,,,,,,,,,,,,,,,,,,,,,,,,,,,,,,578.5031603,578.5193747,579.0362481,579.0028876,,,,,,,,,,,,,,,,,,,,,,,,,,579.0167019,579.0362481,579.0362481,579.0362481,582.0193999,None,582.0194309,582.0360214,582.0360214,582.9531872,j,0.91668,None,,,,,,,,,,,,,,,17,1,2025-11-08_19h45.48.093,MST_task,2024.2.2,60.01241057,2025-11-08 19h45.57.222602 +0530
,Scenes\083a.jpg,94,0,94,,,,,,,None,j,0.5260236,None,,,,,,,94,0,94,0,582.9692853,,,,,,,,,,,,,,,,,,,,,,,,,,,,,,582.9532968,582.9692853,583.4692687,583.4528029,,,,,,,,,,,,,,,,,,,,,,,,,,583.4585924,583.4692687,583.4692687,583.4692687,586.4528143,None,586.4528443,586.4691938,586.4691938,587.003031,j,0.5260236,None,586.4691938,586.4691938,586.4691938,,,,,,,,,,,,17,1,2025-11-08_19h45.48.093,MST_task,2024.2.2,60.01241057,2025-11-08 19h45.57.222602 +0530
,Scenes\034a.jpg,95,0,95,,,,,,,f,None,,,1.5118522,0.1570228,,,,,95,0,95,0,587.0192284,,,,,,,,,,,,,,,,,,,,,,,,,,,,,,587.0031357,587.0192284,587.5361402,587.5027101,,,,,,,,,,,,,,,,,,,,,,,,,,587.5232415,587.5361402,587.5361402,587.5361402,590.5192241,f,590.5192592,,,590.5192704,None,,,,,,1.5118522,0.1570228,,,,,,,,,,17,1,2025-11-08_19h45.48.093,MST_task,2024.2.2,60.01241057,2025-11-08 19h45.57.222602 +0530
,Scenes\055a.jpg,96,0,96,,,,,,,j,None,,,2.6066162,0.1539634,,,,,96,0,96,0,590.5358396,,,,,,,,,,,,,,,,,,,,,,,,,,,,,,590.5193568,590.5358396,591.0524451,591.0192901,,,,,,,,,,,,,,,,,,,,,,,,,,591.0322446,591.0524451,591.0524451,591.0524451,594.0357988,j,594.0358336,,,594.0358438,None,,,,,,2.6066162,0.1539634,,,,,,,,,,17,1,2025-11-08_19h45.48.093,MST_task,2024.2.2,60.01241057,2025-11-08 19h45.57.222602 +0530
,Scenes\110a.jpg,97,0,97,,,,,,,j,None,,,1.7819856,0.1738762,,,,,97,0,97,0,594.05247,,,,,,,,,,,,,,,,,,,,,,,,,,,,,,594.0359245,594.05247,594.5692763,594.5359496,,,,,,,,,,,,,,,,,,,,,,,,,,594.5482575,594.5692763,594.5692763,594.5692763,597.5523825,j,597.5524184,,,597.5524278,None,,,,,,1.7819856,0.1738762,,,,,,,,,,17,1,2025-11-08_19h45.48.093,MST_task,2024.2.2,60.01241057,2025-11-08 19h45.57.222602 +0530
,Objects\168a.jpg,98,0,98,,,,,,,f,None,,,1.8952027,0.2556314,,,,,98,0,98,0,597.5689923,,,,,,,,,,,,,,,,,,,,,,,,,,,,,,597.552517,597.5689923,598.0858475,598.0525296,,,,,,,,,,,,,,,,,,,,,,,,,,598.0794028,598.0858475,598.0858475,598.0858475,601.0689669,f,601.0705041,,,601.0705156,None,,,,,,1.8952027,0.2556314,,,,,,,,,,17,1,2025-11-08_19h45.48.093,MST_task,2024.2.2,60.01241057,2025-11-08 19h45.57.222602 +0530
,Objects\077a.jpg,99,0,99,,,,,,,j,None,,,2.2874503,0.1601929,,,,,99,0,99,0,601.0855737,,,,,,,,,,,,,,,,,,,,,,,,,,,,,,601.0706027,601.0855737,601.5855374,601.5690654,,,,,,,,,,,,,,,,,,,,,,,,,,601.5803301,601.5855374,601.5855374,601.5855374,604.569079,j,604.5691144,,,604.569124,None,,,604.5855023,604.5855023,604.5855023,2.2874503,0.1601929,,,,,,,,,,17,1,2025-11-08_19h45.48.093,MST_task,2024.2.2,60.01241057,2025-11-08 19h45.57.222602 +0530
,Objects\127a.jpg,100,0,100,,,,,,,f,None,,,1.1697773,0.1623548,,,,,100,0,100,0,604.5855023,,,,,,,,,,,,,,,,,,,,,,,,,,,,,,604.5692071,604.5855023,605.0854567,605.0689754,,,,,,,,,,,,,,,,,,,,,,,,,,605.0794907,605.0854567,605.0854567,605.0854567,608.0690647,f,608.069096,,,608.069106,None,,,608.0854245,608.0854245,608.0854245,1.1697773,0.1623548,,,,,,,,,,17,1,2025-11-08_19h45.48.093,MST_task,2024.2.2,60.01241057,2025-11-08 19h45.57.222602 +0530
,Objects\010a.jpg,101,0,101,,,,,,,f,None,,,1.2258779,0.1181385,,,,,101,0,101,0,608.0854245,,,,,,,,,,,,,,,,,,,,,,,,,,,,,,608.06916,608.0854245,608.5853848,608.5689327,,,,,,,,,,,,,,,,,,,,,,,,,,608.5788105,608.5853848,608.5853848,608.5853848,611.5689445,f,611.5689795,,,611.5689894,None,,,611.585352,611.585352,611.585352,1.2258779,0.1181385,,,,,,,,,,17,1,2025-11-08_19h45.48.093,MST_task,2024.2.2,60.01241057,2025-11-08 19h45.57.222602 +0530
,Objects\095a.jpg,102,0,102,,,,,,,f,None,,,0.637649,0.1377472,,,,,102,0,102,0,611.585352,,,,,,,,,,,,,,,,,,,,,,,,,,,,,,611.5690452,611.585352,612.0853097,612.0688214,,,,,,,,,,,,,,,,,,,,,,,,,,612.0789869,612.0853097,612.0853097,612.0853097,615.0688423,f,615.0688799,,,615.0688909,None,,,615.0852761,615.0852761,615.0852761,0.637649,0.1377472,,,,,,,,,,17,1,2025-11-08_19h45.48.093,MST_task,2024.2.2,60.01241057,2025-11-08 19h45.57.222602 +0530
,Objects\082a.jpg,103,0,103,,,,,,,j,None,,,0.8358634,0.1582693,,,,,103,0,103,0,615.0852761,,,,,,,,,,,,,,,,,,,,,,,,,,,,,,615.0689753,615.0852761,615.5852394,615.5687955,,,,,,,,,,,,,,,,,,,,,,,,,,615.578941,615.5852394,615.5852394,615.5852394,618.5688336,j,618.5688687,,,618.568879,None,,,618.5852037,618.5852037,618.5852037,0.8358634,0.1582693,,,,,,,,,,17,1,2025-11-08_19h45.48.093,MST_task,2024.2.2,60.01241057,2025-11-08 19h45.57.222602 +0530
,Objects\106a.jpg,104,0,104,,,,,,,f,None,,,0.9608939,0.1457603,,,,,104,0,104,0,618.5852037,,,,,,,,,,,,,,,,,,,,,,,,,,,,,,618.5689642,618.5852037,619.1018285,619.0686774,,,,,,,,,,,,,,,,,,,,,,,,,,619.0973456,619.1018285,619.1018285,619.1018285,622.0851489,f,622.0851934,,,622.0852041,None,,,,,,0.9608939,0.1457603,,,,,,,,,,17,1,2025-11-08_19h45.48.093,MST_task,2024.2.2,60.01241057,2025-11-08 19h45.57.222602 +0530
,Scenes\097a.jpg,105,0,105,,,,,,,f,None,,,2.5130413,0.1704073,,,,,105,0,105,0,622.1017577,,,,,,,,,,,,,,,,,,,,,,,,,,,,,,622.0853175,622.1017577,622.6019738,622.5853749,,,,,,,,,,,,,,,,,,,,,,,,,,622.595272,622.6019738,622.6019738,622.6019738,625.5852733,f,625.5864463,,,625.5864579,None,,,625.6016933,625.6016933,625.6016933,2.5130413,0.1704073,,,,,,,,,,17,1,2025-11-08_19h45.48.093,MST_task,2024.2.2,60.01241057,2025-11-08 19h45.57.222602 +0530
,Scenes\152a.jpg,106,0,106,,,,,,,j,None,,,0.8941227,0.1504608,,,,,106,0,106,0,625.6016933,,,,,,,,,,,,,,,,,,,,,,,,,,,,,,625.5865402,625.6016933,626.1185486,626.0852427,,,,,,,,,,,,,,,,,,,,,,,,,,626.0965851,626.1185486,626.1185486,626.1185486,629.1016708,j,629.1017118,,,629.1017214,None,,,,,,0.8941227,0.1504608,,,,,,,,,,17,1,2025-11-08_19h45.48.093,MST_task,2024.2.2,60.01241057,2025-11-08 19h45.57.222602 +0530
,Scenes\075a.jpg,107,0,107,,,,,,,j,None,,,1.5269537,0.1379895,,,,,107,0,107,0,629.1183055,,,,,,,,,,,,,,,,,,,,,,,,,,,,,,629.1018061,629.1183055,629.6181432,629.6018503,,,,,,,,,,,,,,,,,,,,,,,,,,629.6118664,629.6181432,629.6181432,629.6181432,632.6017711,j,632.6018029,,,632.6018127,None,,,632.6182257,632.6182257,632.6182257,1.5269537,0.1379895,,,,,,,,,,17,1,2025-11-08_19h45.48.093,MST_task,2024.2.2,60.01241057,2025-11-08 19h45.57.222602 +0530
,Scenes\122a.jpg,108,0,108,,,,,,,f,None,,,2.7460848,0.2100042,,,,,108,0,108,0,632.6182257,,,,,,,,,,,,,,,,,,,,,,,,,,,,,,632.6018988,632.6182257,633.1348852,633.1017257,,,,,,,,,,,,,,,,,,,,,,,,,,633.1157587,633.1348852,633.1348852,633.1348852,636.1181809,f,636.1182425,,,636.1182532,None,,,,,,2.7460848,0.2100042,,,,,,,,,,17,1,2025-11-08_19h45.48.093,MST_task,2024.2.2,60.01241057,2025-11-08 19h45.57.222602 +0530
,Scenes\175a.jpg,109,0,109,,,,,,,j,None,,,0.8659662,0.111728,,,,,109,0,109,0,636.1348199,,,,,,,,,,,,,,,,,,,,,,,,,,,,,,636.1183484,636.1348199,636.6349884,636.6182753,,,,,,,,,,,,,,,,,,,,,,,,,,636.6281821,636.6349884,636.6349884,636.6349884,639.6183151,j,639.6183479,,,639.6183579,None,,,639.6347411,639.6347411,639.6347411,0.8659662,0.111728,,,,,,,,,,17,1,2025-11-08_19h45.48.093,MST_task,2024.2.2,60.01241057,2025-11-08 19h45.57.222602 +0530
,Scenes\068a.jpg,110,0,110,,,,,,,j,None,,,0.6435356,0.1378873,,,,,110,0,110,0,639.6347411,,,,,,,,,,,,,,,,,,,,,,,,,,,,,,639.618416,639.6347411,640.1514009,640.1182335,,,,,,,,,,,,,,,,,,,,,,,,,,640.1318376,640.1514009,640.1514009,640.1514009,643.1346942,j,643.1347335,,,643.1347441,None,,,,,,0.6435356,0.1378873,,,,,,,,,,17,1,2025-11-08_19h45.48.093,MST_task,2024.2.2,60.01241057,2025-11-08 19h45.57.222602 +0530
,Scenes\180a.jpg,111,0,111,,,,,,,None,j,0.4914453,None,,,,,,,111,0,111,0,643.1513362,,,,,,,,,,,,,,,,,,,,,,,,,,,,,,643.1348417,643.1513362,643.6509135,643.6348137,,,,,,,,,,,,,,,,,,,,,,,,,,643.6452875,643.6509135,643.6509135,643.6509135,646.6347941,None,646.6348256,646.6512528,646.6512528,647.1515512,j,0.4914453,None,646.6512528,646.6512528,646.6512528,,,,,,,,,,,,17,1,2025-11-08_19h45.48.093,MST_task,2024.2.2,60.01241057,2025-11-08 19h45.57.222602 +0530
,Objects\061a.jpg,112,0,112,,,,,,,f,None,,,1.488343,0.1569029,,,,,112,0,112,0,647.1679398,,,,,,,,,,,,,,,,,,,,,,,,,,,,,,647.1516265,647.1679398,647.6849157,647.6514116,,,,,,,,,,,,,,,,,,,,,,,,,,647.6706645,647.6849157,647.6849157,647.6849157,650.6679273,f,650.6695107,,,650.669522,None,,,,,,1.488343,0.1569029,,,,,,,,,,17,1,2025-11-08_19h45.48.093,MST_task,2024.2.2,60.01241057,2025-11-08 19h45.57.222602 +0530
,Objects\170a.jpg,113,0,113,,,,,,,f,None,,,1.339695,0.1658476,,,,,113,0,113,0,650.6844762,,,,,,,,,,,,,,,,,,,,,,,,,,,,,,650.6696086,650.6844762,651.2012012,651.1680631,,,,,,,,,,,,,,,,,,,,,,,,,,651.1845332,651.2012012,651.2012012,651.2012012,654.1844635,f,654.1845021,,,654.1845122,None,,,,,,1.339695,0.1658476,,,,,,,,,,17,1,2025-11-08_19h45.48.093,MST_task,2024.2.2,60.01241057,2025-11-08 19h45.57.222602 +0530
,Objects\129a.jpg,114,0,114,,,,,,,f,None,,,1.9137157,0.1662864,,,,,114,0,114,0,654.2010816,,,,,,,,,,,,,,,,,,,,,,,,,,,,,,654.1845702,654.2010816,654.7010447,654.6846277,,,,,,,,,,,,,,,,,,,,,,,,,,654.6962385,654.7010447,654.7010447,654.7010447,657.6845772,f,657.6846116,,,657.6846217,None,,,657.7010185,657.7010185,657.7010185,1.9137157,0.1662864,,,,,,,,,,17,1,2025-11-08_19h45.48.093,MST_task,2024.2.2,60.01241057,2025-11-08 19h45.57.222602 +0530
,Objects\135a.jpg,115,0,115,,,,,,,f,None,,,0.7761519,0.147417,,,,,115,0,115,0,657.7010185,,,,,,,,,,,,,,,,,,,,,,,,,,,,,,657.6847065,657.7010185,658.2009732,658.1844951,,,,,,,,,,,,,,,,,,,,,,,,,,658.1945864,658.2009732,658.2009732,658.2009732,661.1846257,f,661.1846636,,,661.184675,None,,,661.200918,661.200918,661.200918,0.7761519,0.147417,,,,,,,,,,17,1,2025-11-08_19h45.48.093,MST_task,2024.2.2,60.01241057,2025-11-08 19h45.57.222602 +0530
,Objects\159a.jpg,116,0,116,,,,,,,f,None,,,1.9841713,0.1199659,,,,,116,0,116,0,661.200918,,,,,,,,,,,,,,,,,,,,,,,,,,,,,,661.1847694,661.200918,661.7008994,661.6843792,,,,,,,,,,,,,,,,,,,,,,,,,,661.6941458,661.7008994,661.7008994,661.7008994,664.6844484,f,664.6844813,,,664.6844959,None,,,664.7008353,664.7008353,664.7008353,1.9841713,0.1199659,,,,,,,,,,17,1,2025-11-08_19h45.48.093,MST_task,2024.2.2,60.01241057,2025-11-08 19h45.57.222602 +0530
,Objects\147a.jpg,117,0,117,,,,,,,None,f,1.931059,None,,,,,,,117,0,117,0,664.7008353,,,,,,,,,,,,,,,,,,,,,,,,,,,,,,664.6845783,664.7008353,665.2008198,665.184399,,,,,,,,,,,,,,,,,,,,,,,,,,665.1943676,665.2008198,665.2008198,665.2008198,668.1843922,None,668.1844257,668.2007549,668.2007549,670.1343742,f,1.931059,None,668.2007549,668.2007549,668.2007549,,,,,,,,,,,,17,1,2025-11-08_19h45.48.093,MST_task,2024.2.2,60.01241057,2025-11-08 19h45.57.222602 +0530
,Objects\173a.jpg,118,0,118,,,,,,,f,None,,,1.1167173,0.1196651,,,,,118,0,118,0,670.1507521,,,,,,,,,,,,,,,,,,,,,,,,,,,,,,670.1344532,670.1507521,670.6507625,670.634227,,,,,,,,,,,,,,,,,,,,,,,,,,670.6444777,670.6507625,670.6507625,670.6507625,673.6343548,f,673.6343874,,,673.6343976,None,,,673.6506787,673.6506787,673.6506787,1.1167173,0.1196651,,,,,,,,,,17,1,2025-11-08_19h45.48.093,MST_task,2024.2.2,60.01241057,2025-11-08 19h45.57.222602 +0530
,Scenes\144a.jpg,119,0,119,,,,,,,j,None,,,2.6575749,0.1497227,,,,,119,0,119,0,673.6506787,,,,,,,,,,,,,,,,,,,,,,,,,,,,,,673.6344845,673.6506787,674.1673388,674.1341531,,,,,,,,,,,,,,,,,,,,,,,,,,674.1518318,674.1673388,674.1673388,674.1673388,677.1506874,j,677.1518362,,,677.1518496,None,,,,,,2.6575749,0.1497227,,,,,,,,,,17,1,2025-11-08_19h45.48.093,MST_task,2024.2.2,60.01241057,2025-11-08 19h45.57.222602 +0530
,Scenes\123a.jpg,120,0,120,,,,,,,j,None,,,0.7815483,0.13316,,,,,120,0,120,0,677.1672286,,,,,,,,,,,,,,,,,,,,,,,,,,,,,,677.1519417,677.1672286,677.6840965,677.6507468,,,,,,,,,,,,,,,,,,,,,,,,,,677.663122,677.6840965,677.6840965,677.6840965,680.6672098,j,680.667271,,,680.6672814,None,,,,,,0.7815483,0.13316,,,,,,,,,,17,1,2025-11-08_19h45.48.093,MST_task,2024.2.2,60.01241057,2025-11-08 19h45.57.222602 +0530
,Scenes\184a.jpg,121,0,121,,,,,,,j,None,,,2.3828152,0.1745693,,,,,121,0,121,0,680.6838212,,,,,,,,,,,,,,,,,,,,,,,,,,,,,,680.6673715,680.6838212,681.2005242,681.1674579,,,,,,,,,,,,,,,,,,,,,,,,,,681.178404,681.2005242,681.2005242,681.2005242,684.1838478,j,684.1838839,,,684.1838942,None,,,,,,2.3828152,0.1745693,,,,,,,,,,17,1,2025-11-08_19h45.48.093,MST_task,2024.2.2,60.01241057,2025-11-08 19h45.57.222602 +0530
,Scenes\026a.jpg,122,0,122,,,,,,,j,None,,,0.8239331,0.1652858,,,,,122,0,122,0,684.2004484,,,,,,,,,,,,,,,,,,,,,,,,,,,,,,684.1839524,684.2004484,684.7173183,684.6838922,,,,,,,,,,,,,,,,,,,,,,,,,,684.7086634,684.7173183,684.7173183,684.7173183,687.7003844,j,687.7004186,,,687.7004287,None,,,,,,0.8239331,0.1652858,,,,,,,,,,17,1,2025-11-08_19h45.48.093,MST_task,2024.2.2,60.01241057,2025-11-08 19h45.57.222602 +0530
,Scenes\087a.jpg,123,0,123,,,,,,,j,None,,,0.8237496,0.1404952,,,,,123,0,123,0,687.7170299,,,,,,,,,,,,,,,,,,,,,,,,,,,,,,687.7004847,687.7170299,688.2171118,688.2005311,,,,,,,,,,,,,,,,,,,,,,,,,,688.2104226,688.2171118,688.2171118,688.2171118,691.2005371,j,691.2005772,,,691.2005881,None,,,691.2169614,691.2169614,691.2169614,0.8237496,0.1404952,,,,,,,,,,17,1,2025-11-08_19h45.48.093,MST_task,2024.2.2,60.01241057,2025-11-08 19h45.57.222602 +0530
,Scenes\053a.jpg,124,0,124,,,,,,,j,None,,,0.8918576,0.1297277,,,,,124,0,124,0,691.2169614,,,,,,,,,,,,,,,,,,,,,,,,,,,,,,691.2006469,691.2169614,691.7171519,691.7004323,,,,,,,,,,,,,,,,,,,,,,,,,,691.7081648,691.7171519,691.7171519,691.7171519,694.7004875,j,694.7005261,,,694.7005376,None,,,694.7169087,694.7169087,694.7169087,0.8918576,0.1297277,,,,,,,,,,17,1,2025-11-08_19h45.48.093,MST_task,2024.2.2,60.01241057,2025-11-08 19h45.57.222602 +0530
,Scenes\020a.jpg,125,0,125,,,,,,,f,None,,,1.4027838,0.2248453,,,,,125,0,125,0,694.7169087,,,,,,,,,,,,,,,,,,,,,,,,,,,,,,694.7006298,694.7169087,695.2338924,695.2004049,,,,,,,,,,,,,,,,,,,,,,,,,,695.2163569,695.2338924,695.2338924,695.2338924,698.2168252,f,698.2168868,,,698.2168973,None,,,,,,1.4027838,0.2248453,,,,,,,,,,17,1,2025-11-08_19h45.48.093,MST_task,2024.2.2,60.01241057,2025-11-08 19h45.57.222602 +0530
,Objects\166a.jpg,126,0,126,,,,,,,f,None,,,1.2463452,0.1484292,,,,,126,0,126,0,698.2334728,,,,,,,,,,,,,,,,,,,,,,,,,,,,,,698.2169875,698.2334728,698.7503665,698.7170383,,,,,,,,,,,,,,,,,,,,,,,,,,698.729848,698.7503665,698.7503665,698.7503665,701.7334627,f,701.7350556,,,701.7350671,None,,,,,,1.2463452,0.1484292,,,,,,,,,,17,1,2025-11-08_19h45.48.093,MST_task,2024.2.2,60.01241057,2025-11-08 19h45.57.222602 +0530
,Objects\047a.jpg,127,0,127,,,,,,,f,None,,,0.6838119,0.1720279,,,,,127,0,127,0,701.7500639,,,,,,,,,,,,,,,,,,,,,,,,,,,,,,701.7351555,701.7500639,702.2667234,702.2335761,,,,,,,,,,,,,,,,,,,,,,,,,,702.2508775,702.2667234,702.2667234,702.2667234,705.2500681,f,705.2501083,,,705.2501192,None,,,,,,0.6838119,0.1720279,,,,,,,,,,17,1,2025-11-08_19h45.48.093,MST_task,2024.2.2,60.01241057,2025-11-08 19h45.57.222602 +0530
,Objects\189a.jpg,128,0,128,,,,,,,j,None,,,1.6493065,0.1547823,,,,,128,0,128,0,705.2666545,,,,,,,,,,,,,,,,,,,,,,,,,,,,,,705.2502153,705.2666545,705.7832754,705.7501353,,,,,,,,,,,,,,,,,,,,,,,,,,705.7671306,705.7832754,705.7832754,705.7832754,708.7666013,j,708.7666419,,,708.766657,None,,,,,,1.6493065,0.1547823,,,,,,,,,,17,1,2025-11-08_19h45.48.093,MST_task,2024.2.2,60.01241057,2025-11-08 19h45.57.222602 +0530
,Objects\188a.jpg,129,0,129,,,,,,,f,None,,,0.9298431,0.1858338,,,,,129,0,129,0,708.7832711,,,,,,,,,,,,,,,,,,,,,,,,,,,,,,708.7667451,708.7832711,709.2832147,709.2668098,,,,,,,,,,,,,,,,,,,,,,,,,,709.2769558,709.2832147,709.2832147,709.2832147,712.266736,f,712.2667731,,,712.2667855,None,,,712.2831625,712.2831625,712.2831625,0.9298431,0.1858338,,,,,,,,,,17,1,2025-11-08_19h45.48.093,MST_task,2024.2.2,60.01241057,2025-11-08 19h45.57.222602 +0530
,Objects\053a.jpg,130,0,130,,,,,,,f,None,,,1.3339415,0.1657594,,,,,130,0,130,0,712.2831625,,,,,,,,,,,,,,,,,,,,,,,,,,,,,,712.2668765,712.2831625,712.7831566,712.7666084,,,,,,,,,,,,,,,,,,,,,,,,,,712.7769962,712.7831566,712.7831566,712.7831566,715.7667466,f,715.7667831,,,715.766794,None,,,715.7830518,715.7830518,715.7830518,1.3339415,0.1657594,,,,,,,,,,17,1,2025-11-08_19h45.48.093,MST_task,2024.2.2,60.01241057,2025-11-08 19h45.57.222602 +0530
,Objects\003a.jpg,131,0,131,,,,,,,j,None,,,1.1172899,0.1669545,,,,,131,0,131,0,715.7830518,,,,,,,,,,,,,,,,,,,,,,,,,,,,,,715.7668836,715.7830518,716.2998283,716.2665636,,,,,,,,,,,,,,,,,,,,,,,,,,716.2833891,716.2998283,716.2998283,716.2998283,719.2830697,j,719.2831064,,,719.2831167,None,,,,,,1.1172899,0.1669545,,,,,,,,,,17,1,2025-11-08_19h45.48.093,MST_task,2024.2.2,60.01241057,2025-11-08 19h45.57.222602 +0530
,Objects\031a.jpg,132,0,132,,,,,,,j,None,,,0.8552442,0.1297601,,,,,132,0,132,0,719.2996777,,,,,,,,,,,,,,,,,,,,,,,,,,,,,,719.2831742,719.2996777,719.7996367,719.7832139,,,,,,,,,,,,,,,,,,,,,,,,,,719.7931643,719.7996367,719.7996367,719.7996367,722.7831401,j,722.7831743,,,722.7831838,None,,,722.7996447,722.7996447,722.7996447,0.8552442,0.1297601,,,,,,,,,,17,1,2025-11-08_19h45.48.093,MST_task,2024.2.2,60.01241057,2025-11-08 19h45.57.222602 +0530
,Scenes\040a.jpg,133,0,133,,,,,,,None,f,None,None,,,,,,,133,0,133,0,722.7996447,,,,,,,,,,,,,,,,,,,,,,,,,,,,,,722.7832687,722.7996447,723.3164587,723.2831715,,,,,,,,,,,,,,,,,,,,,,,,,,723.2969718,723.3164587,723.3164587,723.3164587,726.2996553,None,726.3008327,726.3161745,726.3161745,726.5166036,f,None,None,,,,,,,,,,,,,,,17,1,2025-11-08_19h45.48.093,MST_task,2024.2.2,60.01241057,2025-11-08 19h45.57.222602 +0530
,Scenes\001a.jpg,134,0,134,,,,,,,f,None,,,1.6814756,0.1900596,,,,,134,0,134,0,726.5328591,,,,,,,,,,,,,,,,,,,,,,,,,,,,,,726.5167158,726.5328591,727.0498681,727.0165821,,,,,,,,,,,,,,,,,,,,,,,,,,727.0336657,727.0498681,727.0498681,727.0498681,730.0328379,f,730.0328725,,,730.0328831,None,,,,,,1.6814756,0.1900596,,,,,,,,,,17,1,2025-11-08_19h45.48.093,MST_task,2024.2.2,60.01241057,2025-11-08 19h45.57.222602 +0530
,Scenes\058a.jpg,135,0,135,,,,,,,None,f,4.4286072,None,,,,,,,135,0,135,0,730.0494427,,,,,,,,,,,,,,,,,,,,,,,,,,,,,,730.0329688,730.0494427,730.566071,730.5329478,,,,,,,,,,,,,,,,,,,,,,,,,,730.5458642,730.566071,730.566071,730.566071,733.5493928,None,733.5494396,733.5660625,733.5660625,737.9995812,f,4.4286072,None,,,,,,,,,,,,,,,17,1,2025-11-08_19h45.48.093,MST_task,2024.2.2,60.01241057,2025-11-08 19h45.57.222602 +0530
,Scenes\157a.jpg,136,0,136,,,,,,,j,None,,,1.3469021,0.145797,,,,,136,0,136,0,738.0159044,,,,,,,,,,,,,,,,,,,,,,,,,,,,,,737.999702,738.0159044,738.5162693,738.4995233,,,,,,,,,,,,,,,,,,,,,,,,,,738.509502,738.5162693,738.5162693,738.5162693,741.4994434,j,741.4994751,,,741.4994848,None,,,741.5158257,741.5158257,741.5158257,1.3469021,0.145797,,,,,,,,,,17,1,2025-11-08_19h45.48.093,MST_task,2024.2.2,60.01241057,2025-11-08 19h45.57.222602 +0530
,Scenes\174a.jpg,137,0,137,,,,,,,j,None,,,2.8386157,None,,,,,137,0,137,0,741.5158257,,,,,,,,,,,,,,,,,,,,,,,,,,,,,,741.4995671,741.5158257,742.0324831,741.999365,,,,,,,,,,,,,,,,,,,,,,,,,,742.0120332,742.0324831,742.0324831,742.0324831,745.0158532,j,745.0158876,,,745.0158974,None,,,,,,2.8386157,None,,,,,,,,,,17,1,2025-11-08_19h45.48.093,MST_task,2024.2.2,60.01241057,2025-11-08 19h45.57.222602 +0530
,Scenes\142a.jpg,138,0,138,,,,,,,j,None,,,1.0409544,0.1374082,,,,,138,0,138,0,745.0324218,,,,,,,,,,,,,,,,,,,,,,,,,,,,,,745.0159533,745.0324218,745.5324282,745.5160253,,,,,,,,,,,,,,,,,,,,,,,,,,745.5227459,745.5324282,745.5324282,745.5324282,748.5160247,j,748.5160601,,,748.5160696,None,,,748.5323764,748.5323764,748.5323764,1.0409544,0.1374082,,,,,,,,,,17,1,2025-11-08_19h45.48.093,MST_task,2024.2.2,60.01241057,2025-11-08 19h45.57.222602 +0530
,Scenes\088a.jpg,139,0,139,,,,,,,j,None,,,0.8254865,0.149632,,,,,139,0,139,0,748.5323764,,,,,,,,,,,,,,,,,,,,,,,,,,,,,,748.5161664,748.5323764,749.0491647,749.0159971,,,,,,,,,,,,,,,,,,,,,,,,,,749.0324491,749.0491647,749.0491647,749.0491647,752.0323293,j,752.0323682,,,752.0323779,None,,,,,,0.8254865,0.149632,,,,,,,,,,17,1,2025-11-08_19h45.48.093,MST_task,2024.2.2,60.01241057,2025-11-08 19h45.57.222602 +0530
,Objects\105a.jpg,140,0,140,,,,,,,f,None,,,1.4775189,0.1778483,,,,,140,0,140,0,752.048993,,,,,,,,,,,,,,,,,,,,,,,,,,,,,,752.0324652,752.048993,752.5492478,752.5325154,,,,,,,,,,,,,,,,,,,,,,,,,,752.5441426,752.5492478,752.5492478,752.5492478,755.5326989,f,755.5342636,,,755.5342764,None,,,755.5488558,755.5488558,755.5488558,1.4775189,0.1778483,,,,,,,,,,17,1,2025-11-08_19h45.48.093,MST_task,2024.2.2,60.01241057,2025-11-08 19h45.57.222602 +0530
,Objects\181a.jpg,141,0,141,,,,,,,j,None,,,2.8143037,0.1315581,,,,,141,0,141,0,755.5488558,,,,,,,,,,,,,,,,,,,,,,,,,,,,,,755.5343342,755.5488558,756.0488484,756.0323832,,,,,,,,,,,,,,,,,,,,,,,,,,756.0420352,756.0488484,756.0488484,756.0488484,759.0323779,j,759.0324117,,,759.032422,None,,,759.0487793,759.0487793,759.0487793,2.8143037,0.1315581,,,,,,,,,,17,1,2025-11-08_19h45.48.093,MST_task,2024.2.2,60.01241057,2025-11-08 19h45.57.222602 +0530
,Objects\073a.jpg,142,0,142,,,,,,,f,None,,,1.3171487,0.1686892,,,,,142,0,142,0,759.0487793,,,,,,,,,,,,,,,,,,,,,,,,,,,,,,759.0324737,759.0487793,759.5487982,759.5323427,,,,,,,,,,,,,,,,,,,,,,,,,,759.5426652,759.5487982,759.5487982,759.5487982,762.5323082,f,762.5323408,,,762.5323502,None,,,762.5487071,762.5487071,762.5487071,1.3171487,0.1686892,,,,,,,,,,17,1,2025-11-08_19h45.48.093,MST_task,2024.2.2,60.01241057,2025-11-08 19h45.57.222602 +0530
,Objects\018a.jpg,143,0,143,,,,,,,j,None,,,1.2825291,0.1978157,,,,,143,0,143,0,762.5487071,,,,,,,,,,,,,,,,,,,,,,,,,,,,,,762.5324328,762.5487071,763.0486935,763.0322339,,,,,,,,,,,,,,,,,,,,,,,,,,763.0438368,763.0486935,763.0486935,763.0486935,766.0322311,j,766.0322685,,,766.032278,None,,,766.0486289,766.0486289,766.0486289,1.2825291,0.1978157,,,,,,,,,,17,1,2025-11-08_19h45.48.093,MST_task,2024.2.2,60.01241057,2025-11-08 19h45.57.222602 +0530
,Objects\008a.jpg,144,0,144,,,,,,,None,f,0.5742788,None,,,,,,,144,0,144,0,766.0486289,,,,,,,,,,,,,,,,,,,,,,,,,,,,,,766.0323329,766.0486289,766.5486192,766.5321385,,,,,,,,,,,,,,,,,,,,,,,,,,766.5432333,766.5486192,766.5486192,766.5486192,769.5321792,None,769.5322123,769.5485793,769.5485793,770.1321644,f,0.5742788,None,769.5485793,769.5485793,769.5485793,,,,,,,,,,,,17,1,2025-11-08_19h45.48.093,MST_task,2024.2.2,60.01241057,2025-11-08 19h45.57.222602 +0530
,Objects\185a.jpg,145,0,145,,,,,,,f,None,,,1.151544,0.1987427,,,,,145,0,145,0,770.1485769,,,,,,,,,,,,,,,,,,,,,,,,,,,,,,770.1322655,770.1485769,770.6651962,770.6320964,,,,,,,,,,,,,,,,,,,,,,,,,,770.6577802,770.6651962,770.6651962,770.6651962,773.6485505,f,773.6485858,,,773.648596,None,,,,,,1.151544,0.1987427,,,,,,,,,,17,1,2025-11-08_19h45.48.093,MST_task,2024.2.2,60.01241057,2025-11-08 19h45.57.222602 +0530
,Objects\091a.jpg,146,0,146,,,,,,,j,None,,,0.9208948,0.1540723,,,,,146,0,146,0,773.6651295,,,,,,,,,,,,,,,,,,,,,,,,,,,,,,773.6486845,773.6651295,774.181792,774.1486273,,,,,,,,,,,,,,,,,,,,,,,,,,774.1661029,774.181792,774.181792,774.181792,777.1651562,j,777.1652184,,,777.1652286,None,,,,,,0.9208948,0.1540723,,,,,,,,,,17,1,2025-11-08_19h45.48.093,MST_task,2024.2.2,60.01241057,2025-11-08 19h45.57.222602 +0530
,Scenes\071a.jpg,147,0,147,,,,,,,None,j,0.5688379,None,,,,,,,147,0,147,0,777.1817266,,,,,,,,,,,,,,,,,,,,,,,,,,,,,,777.1653218,777.1817266,777.6987195,777.6651988,,,,,,,,,,,,,,,,,,,,,,,,,,777.6796644,777.6987195,777.6987195,777.6987195,780.6817049,None,780.6829275,780.6983075,780.6983075,781.2820517,j,0.5688379,None,,,,,,,,,,,,,,,17,1,2025-11-08_19h45.48.093,MST_task,2024.2.2,60.01241057,2025-11-08 19h45.57.222602 +0530
,Scenes\158a.jpg,148,0,148,,,,,,,None,f,0.8222071,None,,,,,,,148,0,148,0,781.298326,,,,,,,,,,,,,,,,,,,,,,,,,,,,,,781.2821277,781.298326,781.8153929,781.7818451,,,,,,,,,,,,,,,,,,,,,,,,,,781.7954182,781.8153929,781.8153929,781.8153929,784.7983983,None,784.7984402,784.8149193,784.8149193,785.6486081,f,0.8222071,None,,,,,,,,,,,,,,,17,1,2025-11-08_19h45.48.093,MST_task,2024.2.2,60.01241057,2025-11-08 19h45.57.222602 +0530
,Scenes\138a.jpg,149,0,149,,,,,,,j,None,,,1.2636678,0.1534826,,,,,149,0,149,0,785.6648917,,,,,,,,,,,,,,,,,,,,,,,,,,,,,,785.6486812,785.6648917,786.1815291,786.1483716,,,,,,,,,,,,,,,,,,,,,,,,,,786.1657577,786.1815291,786.1815291,786.1815291,789.1648579,j,789.1648936,,,789.1649043,None,,,,,,1.2636678,0.1534826,,,,,,,,,,17,1,2025-11-08_19h45.48.093,MST_task,2024.2.2,60.01241057,2025-11-08 19h45.57.222602 +0530
,Scenes\168a.jpg,150,0,150,,,,,,,j,None,,,0.9233529,0.1386148,,,,,150,0,150,0,789.1814882,,,,,,,,,,,,,,,,,,,,,,,,,,,,,,789.164992,789.1814882,789.681453,789.664969,,,,,,,,,,,,,,,,,,,,,,,,,,789.6741566,789.681453,789.681453,789.681453,792.6650815,j,792.6651175,,,792.6651283,None,,,792.6814816,792.6814816,792.6814816,0.9233529,0.1386148,,,,,,,,,,17,1,2025-11-08_19h45.48.093,MST_task,2024.2.2,60.01241057,2025-11-08 19h45.57.222602 +0530
,Scenes\162a.jpg,151,0,151,,,,,,,j,None,,,2.407159,0.1626025,,,,,151,0,151,0,792.6814816,,,,,,,,,,,,,,,,,,,,,,,,,,,,,,792.6651831,792.6814816,793.1813704,793.1648984,,,,,,,,,,,,,,,,,,,,,,,,,,793.1747359,793.1813704,793.1813704,793.1813704,796.164899,j,796.1649323,,,796.164944,None,,,796.1813437,796.1813437,796.1813437,2.407159,0.1626025,,,,,,,,,,17,1,2025-11-08_19h45.48.093,MST_task,2024.2.2,60.01241057,2025-11-08 19h45.57.222602 +0530
,Scenes\077a.jpg,152,0,152,,,,,,,f,None,,,1.9510641,0.1779832,,,,,152,0,152,0,796.1813437,,,,,,,,,,,,,,,,,,,,,,,,,,,,,,796.1650257,796.1813437,796.6979598,796.6648156,,,,,,,,,,,,,,,,,,,,,,,,,,796.6771062,796.6979598,796.6979598,796.6979598,799.6812872,f,799.6813266,,,799.6813364,None,,,,,,1.9510641,0.1779832,,,,,,,,,,17,1,2025-11-08_19h45.48.093,MST_task,2024.2.2,60.01241057,2025-11-08 19h45.57.222602 +0530
,Scenes\101a.jpg,153,0,153,,,,,,,None,j,0.3968289,None,,,,,,,153,0,153,0,799.6982046,,,,,,,,,,,,,,,,,,,,,,,,,,,,,,799.6813914,799.6982046,800.214594,800.1814335,,,,,,,,,,,,,,,,,,,,,,,,,,800.1921989,800.214594,800.214594,800.214594,803.1979085,None,803.1979405,803.2145528,803.2145528,803.614881,j,0.3968289,None,,,,,,,,,,,,,,,17,1,2025-11-08_19h45.48.093,MST_task,2024.2.2,60.01241057,2025-11-08 19h45.57.222602 +0530
,Objects\076a.jpg,154,0,154,,,,,,,f,None,,,0.9938422,0.1902478,,,,,154,0,154,0,803.6311738,,,,,,,,,,,,,,,,,,,,,,,,,,,,,,803.6149642,803.6311738,804.1314593,804.1147836,,,,,,,,,,,,,,,,,,,,,,,,,,804.1264192,804.1314593,804.1314593,804.1314593,807.114822,f,807.1164674,,,807.1164791,None,,,807.131103,807.131103,807.131103,0.9938422,0.1902478,,,,,,,,,,17,1,2025-11-08_19h45.48.093,MST_task,2024.2.2,60.01241057,2025-11-08 19h45.57.222602 +0530
,Objects\192a.jpg,155,0,155,,,,,,,f,None,,,1.6565422,0.1773508,,,,,155,0,155,0,807.131103,,,,,,,,,,,,,,,,,,,,,,,,,,,,,,807.1165656,807.131103,807.6477293,807.6145641,,,,,,,,,,,,,,,,,,,,,,,,,,807.631177,807.6477293,807.6477293,807.6477293,810.6310474,f,810.6310804,,,810.6310899,None,,,,,,1.6565422,0.1773508,,,,,,,,,,17,1,2025-11-08_19h45.48.093,MST_task,2024.2.2,60.01241057,2025-11-08 19h45.57.222602 +0530
,Objects\114a.jpg,156,0,156,,,,,,,f,None,,,1.3755961,0.1497865,,,,,156,0,156,0,810.6477072,,,,,,,,,,,,,,,,,,,,,,,,,,,,,,810.6311445,810.6477072,811.1476642,811.1312206,,,,,,,,,,,,,,,,,,,,,,,,,,811.1411042,811.1476642,811.1476642,811.1476642,814.1312024,f,814.1312374,,,814.1312485,None,,,814.1476128,814.1476128,814.1476128,1.3755961,0.1497865,,,,,,,,,,17,1,2025-11-08_19h45.48.093,MST_task,2024.2.2,60.01241057,2025-11-08 19h45.57.222602 +0530
,Objects\021a.jpg,157,0,157,,,,,,,None,j,1.9000246,None,,,,,,,157,0,157,0,814.1476128,,,,,,,,,,,,,,,,,,,,,,,,,,,,,,814.1313063,814.1476128,814.6476444,814.6311572,,,,,,,,,,,,,,,,,,,,,,,,,,814.6410337,814.6476444,814.6476444,814.6476444,817.6311129,None,817.6311444,817.6475069,817.6475069,819.5478931,j,1.9000246,None,817.6475069,817.6475069,817.6475069,,,,,,,,,,,,17,1,2025-11-08_19h45.48.093,MST_task,2024.2.2,60.01241057,2025-11-08 19h45.57.222602 +0530
,Objects\182a.jpg,158,0,158,,,,,,,f,None,,,1.269841,0.2023303,,,,,158,0,158,0,819.5641285,,,,,,,,,,,,,,,,,,,,,,,,,,,,,,819.5479738,819.5641285,820.0807939,820.0477803,,,,,,,,,,,,,,,,,,,,,,,,,,820.0646777,820.0807939,820.0807939,820.0807939,823.064185,f,823.0642385,,,823.0642494,None,,,,,,1.269841,0.2023303,,,,,,,,,,17,1,2025-11-08_19h45.48.093,MST_task,2024.2.2,60.01241057,2025-11-08 19h45.57.222602 +0530
,Objects\044a.jpg,159,0,159,,,,,,,f,None,,,0.9414176,0.1587596,,,,,159,0,159,0,823.0807521,,,,,,,,,,,,,,,,,,,,,,,,,,,,,,823.0643085,823.0807521,823.5973829,823.5642257,,,,,,,,,,,,,,,,,,,,,,,,,,823.5799781,823.5973829,823.5973829,823.5973829,826.5807791,f,826.5808182,,,826.5808282,None,,,,,,0.9414176,0.1587596,,,,,,,,,,17,1,2025-11-08_19h45.48.093,MST_task,2024.2.2,60.01241057,2025-11-08 19h45.57.222602 +0530
,Objects\064a.jpg,160,0,160,,,,,,,f,None,,,0.9032417,0.1663701,,,,,160,0,160,0,826.5974318,,,,,,,,,,,,,,,,,,,,,,,,,,,,,,826.5809186,826.5974318,827.0973587,827.0808855,,,,,,,,,,,,,,,,,,,,,,,,,,827.09065,827.0973587,827.0973587,827.0973587,830.0808762,f,830.0809119,,,830.0809257,None,,,830.0972814,830.0972814,830.0972814,0.9032417,0.1663701,,,,,,,,,,17,1,2025-11-08_19h45.48.093,MST_task,2024.2.2,60.01241057,2025-11-08 19h45.57.222602 +0530
,Scenes\063a.jpg,161,0,161,,,,,,,None,j,0.2371839,None,,,,,,,161,0,161,0,830.0972814,,,,,,,,,,,,,,,,,,,,,,,,,,,,,,830.0810135,830.0972814,830.6305946,830.5807793,,,,,,,,,,,,,,,,,,,,,,,,,,830.6107797,830.6305946,830.6305946,830.6305946,833.5972414,None,833.5983506,833.613878,833.613878,833.8642547,j,0.2371839,None,,,,,,,,,,,,,,,17,1,2025-11-08_19h45.48.093,MST_task,2024.2.2,60.01241057,2025-11-08 19h45.57.222602 +0530
,Scenes\015a.jpg,162,0,162,,,,,,,j,None,,,0.9889836,0.1271101,,,,,162,0,162,0,833.8805199,,,,,,,,,,,,,,,,,,,,,,,,,,,,,,833.8643537,833.8805199,834.3974559,834.3640438,,,,,,,,,,,,,,,,,,,,,,,,,,834.3810556,834.3974559,834.3974559,834.3974559,837.3804661,j,837.3805005,,,837.3805114,None,,,,,,0.9889836,0.1271101,,,,,,,,,,17,1,2025-11-08_19h45.48.093,MST_task,2024.2.2,60.01241057,2025-11-08 19h45.57.222602 +0530
,Scenes\096a.jpg,163,0,163,,,,,,,j,None,,,0.9261349,0.1384662,,,,,163,0,163,0,837.3971118,,,,,,,,,,,,,,,,,,,,,,,,,,,,,,837.3805959,837.3971118,837.9139246,837.8806197,,,,,,,,,,,,,,,,,,,,,,,,,,837.8941372,837.9139246,837.9139246,837.9139246,840.8970866,j,840.8971293,,,840.8971391,None,,,,,,0.9261349,0.1384662,,,,,,,,,,17,1,2025-11-08_19h45.48.093,MST_task,2024.2.2,60.01241057,2025-11-08 19h45.57.222602 +0530
,Scenes\103a.jpg,164,0,164,,,,,,,j,None,,,2.1786826,0.2058799,,,,,164,0,164,0,840.9137291,,,,,,,,,,,,,,,,,,,,,,,,,,,,,,840.8972271,840.9137291,841.4306623,841.3972943,,,,,,,,,,,,,,,,,,,,,,,,,,841.4105066,841.4306623,841.4306623,841.4306623,844.4136523,j,844.4137176,,,844.4137281,None,,,,,,2.1786826,0.2058799,,,,,,,,,,17,1,2025-11-08_19h45.48.093,MST_task,2024.2.2,60.01241057,2025-11-08 19h45.57.222602 +0530
,Scenes\145a.jpg,165,0,165,,,,,,,None,j,1.3961561,None,,,,,,,165,0,165,0,844.430286,,,,,,,,,,,,,,,,,,,,,,,,,,,,,,844.4138232,844.430286,844.9302539,844.9137697,,,,,,,,,,,,,,,,,,,,,,,,,,844.9211216,844.9302539,844.9302539,844.9302539,847.9137692,None,847.9137987,847.9302102,847.9302102,849.3305962,j,1.3961561,None,847.9302102,847.9302102,847.9302102,,,,,,,,,,,,17,1,2025-11-08_19h45.48.093,MST_task,2024.2.2,60.01241057,2025-11-08 19h45.57.222602 +0530
,Scenes\131a.jpg,166,0,166,,,,,,,j,None,,,1.8677437,0.1636367,,,,,166,0,166,0,849.3468531,,,,,,,,,,,,,,,,,,,,,,,,,,,,,,849.3306975,849.3468531,849.863767,849.8304557,,,,,,,,,,,,,,,,,,,,,,,,,,849.849675,849.863767,849.863767,849.863767,852.8467999,j,852.8468395,,,852.84685,None,,,,,,1.8677437,0.1636367,,,,,,,,,,17,1,2025-11-08_19h45.48.093,MST_task,2024.2.2,60.01241057,2025-11-08 19h45.57.222602 +0530
,Scenes\192a.jpg,167,0,167,,,,,,,j,None,,,1.8909201,0.1656092,,,,,167,0,167,0,852.86344,,,,,,,,,,,,,,,,,,,,,,,,,,,,,,852.846912,852.86344,853.3803539,853.3469276,,,,,,,,,,,,,,,,,,,,,,,,,,853.3588568,853.3803539,853.3803539,853.3803539,856.3633946,j,856.3634543,,,856.3634641,None,,,,,,1.8909201,0.1656092,,,,,,,,,,17,1,2025-11-08_19h45.48.093,MST_task,2024.2.2,60.01241057,2025-11-08 19h45.57.222602 +0530
,Objects\026a.jpg,168,0,168,,,,,,,f,None,,,1.8918877,0.1172496,,,,,168,0,168,0,856.3800333,,,,,,,,,,,,,,,,,,,,,,,,,,,,,,856.3635252,856.3800333,856.9136249,856.863506,,,,,,,,,,,,,,,,,,,,,,,,,,856.895575,856.9136249,856.9136249,856.9136249,859.8799833,f,859.8815228,,,859.881554,None,,,,,,1.8918877,0.1172496,,,,,,,,,,17,1,2025-11-08_19h45.48.093,MST_task,2024.2.2,60.01241057,2025-11-08 19h45.57.222602 +0530
,Objects\187a.jpg,169,0,169,,,,,,,f,None,,,0.9838198,0.1408443,,,,,169,0,169,0,859.8966226,,,,,,,,,,,,,,,,,,,,,,,,,,,,,,859.8816382,859.8966226,860.3966108,860.3801131,,,,,,,,,,,,,,,,,,,,,,,,,,860.3912773,860.3966108,860.3966108,860.3966108,863.3802491,f,863.3802866,,,863.3802974,None,,,863.3965776,863.3965776,863.3965776,0.9838198,0.1408443,,,,,,,,,,17,1,2025-11-08_19h45.48.093,MST_task,2024.2.2,60.01241057,2025-11-08 19h45.57.222602 +0530
,Objects\037a.jpg,170,0,170,,,,,,,f,None,,,1.6427441,0.1416194,,,,,170,0,170,0,863.3965776,,,,,,,,,,,,,,,,,,,,,,,,,,,,,,863.3803924,863.3965776,863.8965112,863.8801527,,,,,,,,,,,,,,,,,,,,,,,,,,863.8914557,863.8965112,863.8965112,863.8965112,866.880069,f,866.8801019,,,866.8801114,None,,,866.8964714,866.8964714,866.8964714,1.6427441,0.1416194,,,,,,,,,,17,1,2025-11-08_19h45.48.093,MST_task,2024.2.2,60.01241057,2025-11-08 19h45.57.222602 +0530
,Objects\046a.jpg,171,0,171,,,,,,,f,None,,,2.4005357,0.1535799,,,,,171,0,171,0,866.8964714,,,,,,,,,,,,,,,,,,,,,,,,,,,,,,866.8801955,866.8964714,867.3964267,867.3799431,,,,,,,,,,,,,,,,,,,,,,,,,,867.3895067,867.3964267,867.3964267,867.3964267,870.3800076,f,870.3800408,,,870.3800508,None,,,870.3963948,870.3963948,870.3963948,2.4005357,0.1535799,,,,,,,,,,17,1,2025-11-08_19h45.48.093,MST_task,2024.2.2,60.01241057,2025-11-08 19h45.57.222602 +0530
,Objects\165a.jpg,172,0,172,,,,,,,f,None,,,1.608598,0.1945611,,,,,172,0,172,0,870.3963948,,,,,,,,,,,,,,,,,,,,,,,,,,,,,,870.3801069,870.3963948,870.8963512,870.8800357,,,,,,,,,,,,,,,,,,,,,,,,,,870.8895375,870.8963512,870.8963512,870.8963512,873.8800065,f,873.8800394,,,873.8800492,None,,,873.8963133,873.8963133,873.8963133,1.608598,0.1945611,,,,,,,,,,17,1,2025-11-08_19h45.48.093,MST_task,2024.2.2,60.01241057,2025-11-08 19h45.57.222602 +0530
,Objects\015a.jpg,173,0,173,,,,,,,f,None,,,1.1740259,0.1458684,,,,,173,0,173,0,873.8963133,,,,,,,,,,,,,,,,,,,,,,,,,,,,,,873.8801326,873.8963133,874.4129655,874.3798322,,,,,,,,,,,,,,,,,,,,,,,,,,874.4045618,874.4129655,874.4129655,874.4129655,877.3962877,f,877.3963226,,,877.3963322,None,,,,,,1.1740259,0.1458684,,,,,,,,,,17,1,2025-11-08_19h45.48.093,MST_task,2024.2.2,60.01241057,2025-11-08 19h45.57.222602 +0530
,Objects\038a.jpg,174,0,174,,,,,,,f,None,,,0.5158195,0.1539684,,,,,174,0,174,0,877.4129139,,,,,,,,,,,,,,,,,,,,,,,,,,,,,,877.3964172,877.4129139,877.9128706,877.8963882,,,,,,,,,,,,,,,,,,,,,,,,,,877.9058222,877.9128706,877.9128706,877.9128706,880.8964168,f,880.8964535,,,880.8964668,None,,,880.9128376,880.9128376,880.9128376,0.5158195,0.1539684,,,,,,,,,,17,1,2025-11-08_19h45.48.093,MST_task,2024.2.2,60.01241057,2025-11-08 19h45.57.222602 +0530
,Scenes\140a.jpg,175,0,175,,,,,,,j,None,,,1.4951126,0.1663621,,,,,175,0,175,0,880.9128376,,,,,,,,,,,,,,,,,,,,,,,,,,,,,,880.8965537,880.9128376,881.4297119,881.3964379,,,,,,,,,,,,,,,,,,,,,,,,,,881.4093448,881.4297119,881.4297119,881.4297119,884.4127856,j,884.4139274,,,884.4139386,None,,,,,,1.4951126,0.1663621,,,,,,,,,,17,1,2025-11-08_19h45.48.093,MST_task,2024.2.2,60.01241057,2025-11-08 19h45.57.222602 +0530
,Scenes\149a.jpg,176,0,176,,,,,,,f,None,,,1.3190485,0.1538137,,,,,176,0,176,0,884.4294584,,,,,,,,,,,,,,,,,,,,,,,,,,,,,,884.4140221,884.4294584,884.9462384,884.9129004,,,,,,,,,,,,,,,,,,,,,,,,,,884.9255296,884.9462384,884.9462384,884.9462384,887.929416,f,887.9294493,,,887.9294591,None,,,,,,1.3190485,0.1538137,,,,,,,,,,17,1,2025-11-08_19h45.48.093,MST_task,2024.2.2,60.01241057,2025-11-08 19h45.57.222602 +0530
,Scenes\051a.jpg,177,0,177,,,,,,,j,None,,,0.9550482,0.1551918,,,,,177,0,177,0,887.945985,,,,,,,,,,,,,,,,,,,,,,,,,,,,,,887.929519,887.945985,888.4626404,888.4295855,,,,,,,,,,,,,,,,,,,,,,,,,,888.4457631,888.4626404,888.4626404,888.4626404,891.4461253,j,891.4461616,,,891.4461719,None,,,,,,0.9550482,0.1551918,,,,,,,,,,17,1,2025-11-08_19h45.48.093,MST_task,2024.2.2,60.01241057,2025-11-08 19h45.57.222602 +0530
,Scenes\073a.jpg,178,0,178,,,,,,,j,None,,,0.6521453,0.1579818,,,,,178,0,178,0,891.4625756,,,,,,,,,,,,,,,,,,,,,,,,,,,,,,891.4462699,891.4625756,891.9792489,891.9460514,,,,,,,,,,,,,,,,,,,,,,,,,,891.9578663,891.9792489,891.9792489,891.9792489,894.9625553,j,894.9625918,,,894.9626021,None,,,,,,0.6521453,0.1579818,,,,,,,,,,17,1,2025-11-08_19h45.48.093,MST_task,2024.2.2,60.01241057,2025-11-08 19h45.57.222602 +0530
,Scenes\024a.jpg,179,0,179,,,,,,,j,None,,,1.8772376,0.1380588,,,,,179,0,179,0,894.9791949,,,,,,,,,,,,,,,,,,,,,,,,,,,,,,894.9626914,894.9791949,895.495822,895.462651,,,,,,,,,,,,,,,,,,,,,,,,,,895.4762393,895.495822,895.495822,895.495822,898.4791766,j,898.4792144,,,898.4792256,None,,,,,,1.8772376,0.1380588,,,,,,,,,,17,1,2025-11-08_19h45.48.093,MST_task,2024.2.2,60.01241057,2025-11-08 19h45.57.222602 +0530
,Scenes\021a.jpg,180,0,180,,,,,,,j,None,,,2.0903307,0.17052,,,,,180,0,180,0,898.4957869,,,,,,,,,,,,,,,,,,,,,,,,,,,,,,898.4793222,898.4957869,899.0124103,898.9793386,,,,,,,,,,,,,,,,,,,,,,,,,,898.9923059,899.0124103,899.0124103,899.0124103,901.9958481,j,901.9959095,,,901.9959193,None,,,,,,2.0903307,0.17052,,,,,,,,,,17,1,2025-11-08_19h45.48.093,MST_task,2024.2.2,60.01241057,2025-11-08 19h45.57.222602 +0530
,Scenes\153a.jpg,181,0,181,,,,,,,j,None,,,1.4902538,0.1863352,,,,,181,0,181,0,902.0123717,,,,,,,,,,,,,,,,,,,,,,,,,,,,,,901.9959823,902.0123717,902.5122999,902.4958025,,,,,,,,,,,,,,,,,,,,,,,,,,902.5054202,902.5122999,902.5122999,902.5122999,905.4958705,j,905.4959082,,,905.4959189,None,,,905.5122952,905.5122952,905.5122952,1.4902538,0.1863352,,,,,,,,,,17,1,2025-11-08_19h45.48.093,MST_task,2024.2.2,60.01241057,2025-11-08 19h45.57.222602 +0530
,Objects\186a.jpg,182,0,182,,,,,,,f,None,,,1.2044155,0.1537837,,,,,182,0,182,0,905.5122952,,,,,,,,,,,,,,,,,,,,,,,,,,,,,,905.496012,905.5122952,906.0125549,905.995841,,,,,,,,,,,,,,,,,,,,,,,,,,906.0078174,906.0125549,906.0125549,906.0125549,908.9959102,f,908.9976152,,,908.9976278,None,,,909.0121975,909.0121975,909.0121975,1.2044155,0.1537837,,,,,,,,,,17,1,2025-11-08_19h45.48.093,MST_task,2024.2.2,60.01241057,2025-11-08 19h45.57.222602 +0530
,Objects\144a.jpg,183,0,183,,,,,,,j,None,,,0.9083774,0.1488125,,,,,183,0,183,0,909.0121975,,,,,,,,,,,,,,,,,,,,,,,,,,,,,,908.997687,909.0121975,909.5122218,909.4956798,,,,,,,,,,,,,,,,,,,,,,,,,,909.5068963,909.5122218,909.5122218,909.5122218,912.4957427,j,912.4957743,,,912.4957845,None,,,912.5121452,912.5121452,912.5121452,0.9083774,0.1488125,,,,,,,,,,17,1,2025-11-08_19h45.48.093,MST_task,2024.2.2,60.01241057,2025-11-08 19h45.57.222602 +0530
,Objects\072a.jpg,184,0,184,,,,,,,f,None,,,1.3391883,0.1899833,,,,,184,0,184,0,912.5121452,,,,,,,,,,,,,,,,,,,,,,,,,,,,,,912.495865,912.5121452,913.0121418,912.9956931,,,,,,,,,,,,,,,,,,,,,,,,,,913.0059904,913.0121418,913.0121418,913.0121418,915.9956305,f,915.995664,,,915.9956741,None,,,916.012069,916.012069,916.012069,1.3391883,0.1899833,,,,,,,,,,17,1,2025-11-08_19h45.48.093,MST_task,2024.2.2,60.01241057,2025-11-08 19h45.57.222602 +0530
,Objects\161a.jpg,185,0,185,,,,,,,f,None,,,1.2604511,0.2257377,,,,,185,0,185,0,916.012069,,,,,,,,,,,,,,,,,,,,,,,,,,,,,,915.9957274,916.012069,916.5287213,916.4956437,,,,,,,,,,,,,,,,,,,,,,,,,,916.5142587,916.5287213,916.5287213,916.5287213,919.5120463,f,919.5120827,,,919.5120929,None,,,,,,1.2604511,0.2257377,,,,,,,,,,17,1,2025-11-08_19h45.48.093,MST_task,2024.2.2,60.01241057,2025-11-08 19h45.57.222602 +0530
,Objects\056a.jpg,186,0,186,,,,,,,f,None,,,1.8804477,0.1817511,,,,,186,0,186,0,919.5286643,,,,,,,,,,,,,,,,,,,,,,,,,,,,,,919.5121556,919.5286643,920.0286596,920.012296,,,,,,,,,,,,,,,,,,,,,,,,,,920.0221581,920.0286596,920.0286596,920.0286596,923.0122466,f,923.0122825,,,923.0122932,None,,,923.0285895,923.0285895,923.0285895,1.8804477,0.1817511,,,,,,,,,,17,1,2025-11-08_19h45.48.093,MST_task,2024.2.2,60.01241057,2025-11-08 19h45.57.222602 +0530
,Objects\108a.jpg,187,0,187,,,,,,,j,None,,,0.858345,0.1539728,,,,,187,0,187,0,923.0285895,,,,,,,,,,,,,,,,,,,,,,,,,,,,,,923.0123491,923.0285895,923.5285857,923.5120542,,,,,,,,,,,,,,,,,,,,,,,,,,923.5220888,923.5285857,923.5285857,923.5285857,926.5121731,j,926.5122115,,,926.5122222,None,,,926.5285079,926.5285079,926.5285079,0.858345,0.1539728,,,,,,,,,,17,1,2025-11-08_19h45.48.093,MST_task,2024.2.2,60.01241057,2025-11-08 19h45.57.222602 +0530
,Objects\088a.jpg,188,0,188,,,,,,,j,None,,,0.847415,0.1348289,,,,,188,0,188,0,926.5285079,,,,,,,,,,,,,,,,,,,,,,,,,,,,,,926.5123198,926.5285079,927.0451388,927.0119357,,,,,,,,,,,,,,,,,,,,,,,,,,927.0298329,927.0451388,927.0451388,927.0451388,930.0285644,j,930.0286025,,,930.0286126,None,,,,,,0.847415,0.1348289,,,,,,,,,,17,1,2025-11-08_19h45.48.093,MST_task,2024.2.2,60.01241057,2025-11-08 19h45.57.222602 +0530
,Scenes\082a.jpg,189,0,189,,,,,,,None,f,1.3808451,None,,,,,,,189,0,189,0,930.0451213,,,,,,,,,,,,,,,,,,,,,,,,,,,,,,930.0287034,930.0451213,930.5617569,930.5285628,,,,,,,,,,,,,,,,,,,,,,,,,,930.543087,930.5617569,930.5617569,930.5617569,933.5450568,None,933.5462594,933.5616897,933.5616897,934.9452933,f,1.3808451,None,,,,,,,,,,,,,,,17,1,2025-11-08_19h45.48.093,MST_task,2024.2.2,60.01241057,2025-11-08 19h45.57.222602 +0530
,Scenes\164a.jpg,190,0,190,,,,,,,j,None,,,1.3209932,0.1153786,,,,,190,0,190,0,934.9616644,,,,,,,,,,,,,,,,,,,,,,,,,,,,,,934.9453983,934.9616644,935.4783499,935.445324,,,,,,,,,,,,,,,,,,,,,,,,,,935.4577404,935.4783499,935.4783499,935.4783499,938.4617944,j,938.4618302,,,938.4618412,None,,,,,,1.3209932,0.1153786,,,,,,,,,,17,1,2025-11-08_19h45.48.093,MST_task,2024.2.2,60.01241057,2025-11-08 19h45.57.222602 +0530
,Scenes\042a.jpg,191,0,191,,,,,,,j,None,,,1.5282691,0.1620588,,,,,191,0,191,0,938.4782488,,,,,,,,,,,,,,,,,,,,,,,,,,,,,,938.4619003,938.4782488,938.9948784,938.9617392,,,,,,,,,,,,,,,,,,,,,,,,,,938.9785055,938.9948784,938.9948784,938.9948784,941.978197,j,941.9782306,,,941.9782403,None,,,,,,1.5282691,0.1620588,,,,,,,,,,17,1,2025-11-08_19h45.48.093,MST_task,2024.2.2,60.01241057,2025-11-08 19h45.57.222602 +0530
,Scenes\049a.jpg,192,0,192,,,,,,,j,None,,,1.2550779,0.15861,,,,,192,0,192,0,941.9948143,,,,,,,,,,,,,,,,,,,,,,,,,,,,,,941.9782988,941.9948143,942.5114919,942.4783031,,,,,,,,,,,,,,,,,,,,,,,,,,942.4897339,942.5114919,942.5114919,942.5114919,945.4948012,j,945.4948371,,,945.4948469,None,,,,,,1.2550779,0.15861,,,,,,,,,,17,1,2025-11-08_19h45.48.093,MST_task,2024.2.2,60.01241057,2025-11-08 19h45.57.222602 +0530
,Scenes\136a.jpg,193,0,193,,,,,,,f,None,,,1.468601,0.1917588,,,,,193,0,193,0,945.5114267,,,,,,,,,,,,,,,,,,,,,,,,,,,,,,945.4949325,945.5114267,946.0280914,945.9950281,,,,,,,,,,,,,,,,,,,,,,,,,,946.0072375,946.0280914,946.0280914,946.0280914,949.011382,f,949.0114166,,,949.0114287,None,,,,,,1.468601,0.1917588,,,,,,,,,,17,1,2025-11-08_19h45.48.093,MST_task,2024.2.2,60.01241057,2025-11-08 19h45.57.222602 +0530
,Scenes\054a.jpg,194,0,194,,,,,,,j,None,,,0.9293726,0.1279402,,,,,194,0,194,0,949.0280169,,,,,,,,,,,,,,,,,,,,,,,,,,,,,,949.011516,949.0280169,949.5447561,949.5116026,,,,,,,,,,,,,,,,,,,,,,,,,,949.5257937,949.5447561,949.5447561,949.5447561,952.5279796,j,952.5280285,,,952.5280383,None,,,,,,0.9293726,0.1279402,,,,,,,,,,17,1,2025-11-08_19h45.48.093,MST_task,2024.2.2,60.01241057,2025-11-08 19h45.57.222602 +0530
,Scenes\095a.jpg,195,0,195,,,,,,,None,f,1.9202326,None,,,,,,,195,0,195,0,952.5445798,,,,,,,,,,,,,,,,,,,,,,,,,,,,,,952.5281283,952.5445798,953.0614775,953.0280884,,,,,,,,,,,,,,,,,,,,,,,,,,953.0398905,953.0614775,953.0614775,953.0614775,956.0446697,None,956.0447015,956.0611935,956.0611935,957.9948159,f,1.9202326,None,,,,,,,,,,,,,,,17,1,2025-11-08_19h45.48.093,MST_task,2024.2.2,60.01241057,2025-11-08 19h45.57.222602 +0530
,Objects\178a.jpg,196,0,196,,,,,,,None,f,4.840968,None,,,,,,,196,0,196,0,958.0111628,,,,,,,,,,,,,,,,,,,,,,,,,,,,,,957.9949201,958.0111628,958.5280454,958.4946777,,,,,,,,,,,,,,,,,,,,,,,,,,958.5130381,958.5280454,958.5280454,958.5280454,961.5111026,None,961.5126569,961.5277929,961.5277929,966.3779669,f,4.840968,None,,,,,,,,,,,,,,,17,1,2025-11-08_19h45.48.093,MST_task,2024.2.2,60.01241057,2025-11-08 19h45.57.222602 +0530
,Objects\090a.jpg,197,0,197,,,,,,,j,None,,,1.1204759,0.2640191,,,,,197,0,197,0,966.3943041,,,,,,,,,,,,,,,,,,,,,,,,,,,,,,966.3780471,966.3943041,966.8942724,966.8777637,,,,,,,,,,,,,,,,,,,,,,,,,,966.8879536,966.8942724,966.8942724,966.8942724,969.8777732,j,969.877805,,,969.8778145,None,,,969.8942397,969.8942397,969.8942397,1.1204759,0.2640191,,,,,,,,,,17,1,2025-11-08_19h45.48.093,MST_task,2024.2.2,60.01241057,2025-11-08 19h45.57.222602 +0530
,Objects\067a.jpg,198,0,198,,,,,,,f,None,,,1.314603,0.1741993,,,,,198,0,198,0,969.8942397,,,,,,,,,,,,,,,,,,,,,,,,,,,,,,969.8778663,969.8942397,970.3941944,970.3777322,,,,,,,,,,,,,,,,,,,,,,,,,,970.3875938,970.3941944,970.3941944,970.3941944,973.3777525,f,973.3777842,,,973.3777934,None,,,973.3941579,973.3941579,973.3941579,1.314603,0.1741993,,,,,,,,,,17,1,2025-11-08_19h45.48.093,MST_task,2024.2.2,60.01241057,2025-11-08 19h45.57.222602 +0530
,Objects\028a.jpg,199,0,199,,,,,,,j,None,,,1.2786495,0.1385311,,,,,199,0,199,0,973.3941579,,,,,,,,,,,,,,,,,,,,,,,,,,,,,,973.3778472,973.3941579,973.8941107,973.8776087,,,,,,,,,,,,,,,,,,,,,,,,,,973.8874356,973.8941107,973.8941107,973.8941107,976.8776728,j,976.8777052,,,976.8777149,None,,,976.8940478,976.8940478,976.8940478,1.2786495,0.1385311,,,,,,,,,,17,1,2025-11-08_19h45.48.093,MST_task,2024.2.2,60.01241057,2025-11-08 19h45.57.222602 +0530
,Objects\019a.jpg,200,0,200,,,,,,,None,j,0.9270937,None,,,,,,,200,0,200,0,976.8940478,,,,,,,,,,,,,,,,,,,,,,,,,,,,,,976.8777977,976.8940478,977.3940398,977.3775969,,,,,,,,,,,,,,,,,,,,,,,,,,977.3876207,977.3940398,977.3940398,977.3940398,980.3776194,None,980.3776497,980.3939703,980.3939703,981.3276861,j,0.9270937,None,980.3939703,980.3939703,980.3939703,,,,,,,,,,,,17,1,2025-11-08_19h45.48.093,MST_task,2024.2.2,60.01241057,2025-11-08 19h45.57.222602 +0530
,Objects\092a.jpg,201,0,201,,,,,,,f,None,,,1.150114,0.1747213,,,,,201,0,201,0,981.343987,,,,,,,,,,,,,,,,,,,,,,,,,,,,,,981.3277664,981.343987,981.8606206,981.8274754,,,,,,,,,,,,,,,,,,,,,,,,,,981.8450219,981.8606206,981.8606206,981.8606206,984.8439699,f,984.8440052,,,984.8440154,None,,,,,,1.150114,0.1747213,,,,,,,,,,17,1,2025-11-08_19h45.48.093,MST_task,2024.2.2,60.01241057,2025-11-08 19h45.57.222602 +0530
,Objects\176a.jpg,202,0,202,,,,,,,j,None,,,0.7344355,0.1801338,,,,,202,0,202,0,984.8605767,,,,,,,,,,,,,,,,,,,,,,,,,,,,,,984.8441139,984.8605767,985.3605335,985.3440891,,,,,,,,,,,,,,,,,,,,,,,,,,985.3542287,985.3605335,985.3605335,985.3605335,988.3440621,j,988.3440939,,,988.3441037,None,,,988.3605116,988.3605116,988.3605116,0.7344355,0.1801338,,,,,,,,,,17,1,2025-11-08_19h45.48.093,MST_task,2024.2.2,60.01241057,2025-11-08 19h45.57.222602 +0530
,Scenes\182a.jpg,203,0,203,,,,,,,f,None,,,2.1199372,0.1462103,,,,,203,0,203,0,988.3605116,,,,,,,,,,,,,,,,,,,,,,,,,,,,,,988.3441836,988.3605116,988.8773887,988.8439915,,,,,,,,,,,,,,,,,,,,,,,,,,988.8574566,988.8773887,988.8773887,988.8773887,991.8604812,f,991.8616139,,,991.8616296,None,,,,,,2.1199372,0.1462103,,,,,,,,,,17,1,2025-11-08_19h45.48.093,MST_task,2024.2.2,60.01241057,2025-11-08 19h45.57.222602 +0530
,Scenes\127a.jpg,204,0,204,,,,,,,j,None,,,1.5710899,0.1661894,,,,,204,0,204,0,991.8771724,,,,,,,,,,,,,,,,,,,,,,,,,,,,,,991.8616837,991.8771724,992.3939846,992.3605661,,,,,,,,,,,,,,,,,,,,,,,,,,992.3715786,992.3939846,992.3939846,992.3939846,995.3770425,j,995.3770785,,,995.3770886,None,,,,,,1.5710899,0.1661894,,,,,,,,,,17,1,2025-11-08_19h45.48.093,MST_task,2024.2.2,60.01241057,2025-11-08 19h45.57.222602 +0530
,Scenes\050a.jpg,205,0,205,,,,,,,j,None,,,0.9501592,0.1454548,,,,,205,0,205,0,995.3936774,,,,,,,,,,,,,,,,,,,,,,,,,,,,,,995.3771775,995.3936774,995.8935179,995.877174,,,,,,,,,,,,,,,,,,,,,,,,,,995.8873555,995.8935179,995.8935179,995.8935179,998.8771889,j,998.877221,,,998.8772317,None,,,998.8936026,998.8936026,998.8936026,0.9501592,0.1454548,,,,,,,,,,17,1,2025-11-08_19h45.48.093,MST_task,2024.2.2,60.01241057,2025-11-08 19h45.57.222602 +0530
,Scenes\132a.jpg,206,0,206,,,,,,,j,None,,,1.8903307,0.1561991,,,,,206,0,206,0,998.8936026,,,,,,,,,,,,,,,,,,,,,,,,,,,,,,998.8773137,998.8936026,999.4102642,999.377156,,,,,,,,,,,,,,,,,,,,,,,,,,999.3887585,999.4102642,999.4102642,999.4102642,1002.393553,j,1002.39359,,,1002.3936,None,,,,,,1.8903307,0.1561991,,,,,,,,,,17,1,2025-11-08_19h45.48.093,MST_task,2024.2.2,60.01241057,2025-11-08 19h45.57.222602 +0530
,Scenes\046a.jpg,207,0,207,,,,,,,j,None,,,0.9002294,0.127238,,,,,207,0,207,0,1002.410194,,,,,,,,,,,,,,,,,,,,,,,,,,,,,,1002.393658,1002.410194,1002.927121,1002.893686,,,,,,,,,,,,,,,,,,,,,,,,,,1002.91162,1002.927121,1002.927121,1002.927121,1005.91015,j,1005.91019,,,1005.910201,None,,,,,,0.9002294,0.127238,,,,,,,,,,17,1,2025-11-08_19h45.48.093,MST_task,2024.2.2,60.01241057,2025-11-08 19h45.57.222602 +0530
,Scenes\183a.jpg,208,0,208,,,,,,,f,None,,,1.1717404,0.1220302,,,,,208,0,208,0,1005.926787,,,,,,,,,,,,,,,,,,,,,,,,,,,,,,1005.9103,1005.926787,1006.443465,1006.410293,,,,,,,,,,,,,,,,,,,,,,,,,,1006.429813,1006.443465,1006.443465,1006.443465,1009.426817,f,1009.426853,,,1009.426863,None,,,,,,1.1717404,0.1220302,,,,,,,,,,17,1,2025-11-08_19h45.48.093,MST_task,2024.2.2,60.01241057,2025-11-08 19h45.57.222602 +0530
,Scenes\004a.jpg,209,0,209,,,,,,,None,j,0.490861,None,,,,,,,209,0,209,0,1009.443373,,,,,,,,,,,,,,,,,,,,,,,,,,,,,,1009.426957,1009.443373,1009.96,1009.926902,,,,,,,,,,,,,,,,,,,,,,,,,,1009.939897,1009.96,1009.96,1009.96,1012.943323,None,1012.943355,1012.959967,1012.959967,1013.460314,j,0.490861,None,,,,,,,,,,,,,,,17,1,2025-11-08_19h45.48.093,MST_task,2024.2.2,60.01241057,2025-11-08 19h45.57.222602 +0530
,Objects\036a.jpg,210,0,210,,,,,,,f,None,,,2.7062519,0.1740728,,,,,210,0,210,0,1013.476651,,,,,,,,,,,,,,,,,,,,,,,,,,,,,,1013.460425,1013.476651,1013.976638,1013.960168,,,,,,,,,,,,,,,,,,,,,,,,,,1013.972159,1013.976638,1013.976638,1013.976638,1016.96012,f,1016.961785,,,1016.961798,None,,,1016.976541,1016.976541,1016.976541,2.7062519,0.1740728,,,,,,,,,,17,1,2025-11-08_19h45.48.093,MST_task,2024.2.2,60.01241057,2025-11-08 19h45.57.222602 +0530
,Objects\123a.jpg,211,0,211,,,,,,,None,j,1.4671002,None,,,,,,,211,0,211,0,1016.976541,,,,,,,,,,,,,,,,,,,,,,,,,,,,,,1016.96187,1016.976541,1017.476552,1017.460062,,,,,,,,,,,,,,,,,,,,,,,,,,1017.470195,1017.476552,1017.476552,1017.476552,1020.460095,None,1020.460129,1020.476469,1020.476469,1021.959949,j,1.4671002,None,1020.476469,1020.476469,1020.476469,,,,,,,,,,,,17,1,2025-11-08_19h45.48.093,MST_task,2024.2.2,60.01241057,2025-11-08 19h45.57.222602 +0530
,Objects\128a.jpg,212,0,212,,,,,,,f,None,,,0.7648113,0.2180324,,,,,212,0,212,0,1021.976532,,,,,,,,,,,,,,,,,,,,,,,,,,,,,,1021.960024,1021.976532,1022.476422,1022.459901,,,,,,,,,,,,,,,,,,,,,,,,,,1022.469973,1022.476422,1022.476422,1022.476422,1025.460053,f,1025.46009,,,1025.4601,None,,,1025.476332,1025.476332,1025.476332,0.7648113,0.2180324,,,,,,,,,,17,1,2025-11-08_19h45.48.093,MST_task,2024.2.2,60.01241057,2025-11-08 19h45.57.222602 +0530
,Objects\083a.jpg,213,0,213,,,,,,,f,None,,,0.6202222,0.1958043,,,,,213,0,213,0,1025.476332,,,,,,,,,,,,,,,,,,,,,,,,,,,,,,1025.46016,1025.476332,1025.976327,1025.959845,,,,,,,,,,,,,,,,,,,,,,,,,,1025.969714,1025.976327,1025.976327,1025.976327,1028.959878,f,1028.959915,,,1028.959925,None,,,1028.976259,1028.976259,1028.976259,0.6202222,0.1958043,,,,,,,,,,17,1,2025-11-08_19h45.48.093,MST_task,2024.2.2,60.01241057,2025-11-08 19h45.57.222602 +0530
,Objects\158a.jpg,214,0,214,,,,,,,f,None,,,1.4025298,0.1667504,,,,,214,0,214,0,1028.976259,,,,,,,,,,,,,,,,,,,,,,,,,,,,,,1028.959982,1028.976259,1029.476248,1029.459819,,,,,,,,,,,,,,,,,,,,,,,,,,1029.469858,1029.476248,1029.476248,1029.476248,1032.459944,f,1032.459976,,,1032.459986,None,,,1032.476175,1032.476175,1032.476175,1.4025298,0.1667504,,,,,,,,,,17,1,2025-11-08_19h45.48.093,MST_task,2024.2.2,60.01241057,2025-11-08 19h45.57.222602 +0530
,Objects\016a.jpg,215,0,215,,,,,,,f,None,,,0.646968,0.2082316,,,,,215,0,215,0,1032.476175,,,,,,,,,,,,,,,,,,,,,,,,,,,,,,1032.460066,1032.476175,1032.976175,1032.959867,,,,,,,,,,,,,,,,,,,,,,,,,,1032.970086,1032.976175,1032.976175,1032.976175,1035.959834,f,1035.959867,,,1035.959876,None,,,1035.976107,1035.976107,1035.976107,0.646968,0.2082316,,,,,,,,,,17,1,2025-11-08_19h45.48.093,MST_task,2024.2.2,60.01241057,2025-11-08 19h45.57.222602 +0530
