thisN,thisTrialN,thisRepN,key_resp_3.keys,key_resp_3.rt,key_resp_3.duration,trials.thisRepN,trials.thisTrialN,trials.thisN,trials.thisIndex,thisRow.t,notes,intro_page.started,text.started,key_resp.started,intro_page.stopped,key_resp.keys,key_resp.rt,key_resp.duration,instructions.started,text_2.started,key_resp_2.started,instructions.stopped,key_resp_2.keys,key_resp_2.rt,key_resp_2.duration,demo1.started,image_1.started,image_2.started,text_7.started,key_resp_6.started,text_9.started,demo1.stopped,key_resp_6.keys,key_resp_6.rt,key_resp_6.duration,demo2.started,image_5.started,image_6.started,text_11.started,text_12.started,key_resp_8.started,demo2.stopped,key_resp_8.keys,key_resp_8.rt,key_resp_8.duration,demo_conclusion.started,text_13.started,key_resp_9.started,demo_conclusion.stopped,key_resp_9.keys,key_resp_9.rt,key_resp_9.duration,start_test.started,text_6.started,key_resp_5.started,start_test.stopped,key_resp_5.keys,key_resp_5.rt,key_resp_5.duration,ISI.started,text_4.started,text_4.stopped,ISI.stopped,routine_1.started,image.started,text_3.started,key_resp_3.started,routine_1.stopped,image_path,position_of_stimuli,trials.key_resp_3.keys,trials.key_resp_3.rt,trials.key_resp_3.duration,End_page.started,text_5.started,key_resp_4.started,End_page.stopped,key_resp_4.keys,key_resp_4.rt,key_resp_4.duration,participant,session,date,expName,psychopyVersion,frameRate,expStart,
,,,,,,,,,,,,0.006961699997191317,0.023341599997365847,0.023341599997365847,2.325189800001681,space,2.29793719999725,None,,,,,,,,,,,,,,,,,,,,,,,,,,,,,,,,,,,,,,,,,,,,,,,,,,,,,,,,,,,,,,,00018,001,2025-11-09_11h24.21.434,MST_test,2024.2.2,59.988866067228045,2025-11-09 11h24.26.925355 +0530,
,,,,,,,,,,,,,,,,,,,2.3252184000011766,2.3399711000092793,2.3399711000092793,9.373670700006187,space,7.017650300011155,None,,,,,,,,,,,,,,,,,,,,,,,,,,,,,,,,,,,,,,,,,,,,,,,,,,,,,,,,00018,001,2025-11-09_11h24.21.434,MST_test,2024.2.2,59.988866067228045,2025-11-09 11h24.26.925355 +0530,
,,,,,,,,,,,,,,,,,,,,,,,,,,9.373696299997391,9.389761700003874,9.389761700003874,9.389761700003874,9.389761700003874,9.389761700003874,13.34008619999804,space,3.9408874999935506,None,,,,,,,,,,,,,,,,,,,,,,,,,,,,,,,,,,,,,,,,,,,,,,00018,001,2025-11-09_11h24.21.434,MST_test,2024.2.2,59.988866067228045,2025-11-09 11h24.26.925355 +0530,
,,,,,,,,,,,,,,,,,,,,,,,,,,,,,,,,,,,,13.340113199999905,13.356441700001596,13.356441700001596,13.356441700001596,13.356441700001596,13.356441700001596,15.223497400002088,space,1.8642753000021912,None,,,,,,,,,,,,,,,,,,,,,,,,,,,,,,,,,,,,00018,001,2025-11-09_11h24.21.434,MST_test,2024.2.2,59.988866067228045,2025-11-09 11h24.26.925355 +0530,
,,,,,,,,,,,,,,,,,,,,,,,,,,,,,,,,,,,,,,,,,,,,,,15.223524500004714,15.239759800009779,15.239759800009779,48.50596740000765,space,33.254799000002095,None,,,,,,,,,,,,,,,,,,,,,,,,,,,,,00018,001,2025-11-09_11h24.21.434,MST_test,2024.2.2,59.988866067228045,2025-11-09 11h24.26.925355 +0530,
,,,,,,,,,,,,,,,,,,,,,,,,,,,,,,,,,,,,,,,,,,,,,,,,,,,,,48.50599730000249,48.52226630000223,48.52226630000223,57.738993200007826,space,9.21227540000109,None,,,,,,,,,,,,,,,,,,,,,,00018,001,2025-11-09_11h24.21.434,MST_test,2024.2.2,59.988866067228045,2025-11-09 11h24.26.925355 +0530,
0,0,0,o,1.5788311999931466,None,0,0,0,0,57.7554025999998,,,,,,,,,,,,,,,,,,,,,,,,,,,,,,,,,,,,,,,,,,,,,,,,,,57.74202890000015,57.7554025999998,58.25563470000634,58.23888109999825,58.24676829999953,58.25563470000634,58.25563470000634,58.25563470000634,59.83906840000418,Objects\115a.jpg,post,o,1.5788311999931466,None,,,,,,,,00018,001,2025-11-09_11h24.21.434,MST_test,2024.2.2,59.988866067228045,2025-11-09 11h24.26.925355 +0530,
1,0,1,o,1.1478862000076333,None,1,0,1,0,59.855353599996306,,,,,,,,,,,,,,,,,,,,,,,,,,,,,,,,,,,,,,,,,,,,,,,,,,59.839148200000636,59.855353599996306,60.355180099999416,60.33900449999783,60.34929330000887,60.355180099999416,60.355180099999416,60.355180099999416,61.50564830000803,Scenes\091a.jpg,mid,o,1.1478862000076333,None,,,,,,,,00018,001,2025-11-09_11h24.21.434,MST_test,2024.2.2,59.988866067228045,2025-11-09 11h24.26.925355 +0530,
2,0,2,s,1.6052546999999322,None,2,0,2,0,61.52198610000778,,,,,,,,,,,,,,,,,,,,,,,,,,,,,,,,,,,,,,,,,,,,,,,,,,61.50572749999992,61.52198610000778,62.02194550000422,62.00554569999804,62.016620199996396,62.02194550000422,62.02194550000422,62.02194550000422,63.638847000009264,Objects\155a.jpg,post,s,1.6052546999999322,None,,,,,,,,00018,001,2025-11-09_11h24.21.434,MST_test,2024.2.2,59.988866067228045,2025-11-09 11h24.26.925355 +0530,
3,0,3,o,1.0360930999886477,None,3,0,3,0,63.65527170000132,,,,,,,,,,,,,,,,,,,,,,,,,,,,,,,,,,,,,,,,,,,,,,,,,,63.63892599999963,63.65527170000132,64.17209560000629,64.13878239999758,64.1516258000047,64.17209560000629,64.17209560000629,64.17209560000629,65.22219319999567,Scenes\061b.jpg,pre,o,1.0360930999886477,None,,,,,,,,00018,001,2025-11-09_11h24.21.434,MST_test,2024.2.2,59.988866067228045,2025-11-09 11h24.26.925355 +0530,
4,0,4,s,1.3085930999950506,None,4,0,4,0,65.23853800000506,,,,,,,,,,,,,,,,,,,,,,,,,,,,,,,,,,,,,,,,,,,,,,,,,,65.22227280000516,65.23853800000506,65.77207900000212,65.72215100000903,65.75944500000332,65.77207900000212,65.77207900000212,65.77207900000212,67.08884530000796,Scenes\159b.jpg,mid,s,1.3085930999950506,None,,,,,,,,00018,001,2025-11-09_11h24.21.434,MST_test,2024.2.2,59.988866067228045,2025-11-09 11h24.26.925355 +0530,
5,0,5,s,1.3788427999970736,None,5,0,5,0,67.10519960000238,,,,,,,,,,,,,,,,,,,,,,,,,,,,,,,,,,,,,,,,,,,,,,,,,,67.08892380000907,67.10519960000238,67.62185799999861,67.58867450000253,67.60017980000703,67.62185799999861,67.62185799999861,67.62185799999861,69.00542990000395,Scenes\152a.jpg,post,s,1.3788427999970736,None,,,,,,,,00018,001,2025-11-09_11h24.21.434,MST_test,2024.2.2,59.988866067228045,2025-11-09 11h24.26.925355 +0530,
6,0,6,s,1.134417899986147,None,6,0,6,0,69.02185710000049,,,,,,,,,,,,,,,,,,,,,,,,,,,,,,,,,,,,,,,,,,,,,,,,,,69.00550559999829,69.02185710000049,69.538466900005,69.50529980000283,69.53169139999954,69.538466900005,69.538466900005,69.538466900005,70.68884020000405,Objects\098b.jpg,post,s,1.134417899986147,None,,,,,,,,00018,001,2025-11-09_11h24.21.434,MST_test,2024.2.2,59.988866067228045,2025-11-09 11h24.26.925355 +0530,
7,0,7,n,0.8717796999990242,None,7,0,7,0,70.70515190000879,,,,,,,,,,,,,,,,,,,,,,,,,,,,,,,,,,,,,,,,,,,,,,,,,,70.68892529999721,70.70515190000879,71.20507769999676,71.1887168999965,71.19835000000603,71.20507769999676,71.20507769999676,71.20507769999676,72.08882420000737,Foils\058a.jpg,none,n,0.8717796999990242,None,,,,,,,,00018,001,2025-11-09_11h24.21.434,MST_test,2024.2.2,59.988866067228045,2025-11-09 11h24.26.925355 +0530,
8,0,8,s,1.7394264000031399,None,8,0,8,0,72.10509670000465,,,,,,,,,,,,,,,,,,,,,,,,,,,,,,,,,,,,,,,,,,,,,,,,,,72.08891120000044,72.10509670000465,72.62190600000031,72.5885500000004,72.61574390000897,72.62190600000031,72.62190600000031,72.62190600000031,74.37209450000955,Foils\scenes4.jpg,none,s,1.7394264000031399,None,,,,,,,,00018,001,2025-11-09_11h24.21.434,MST_test,2024.2.2,59.988866067228045,2025-11-09 11h24.26.925355 +0530,
9,0,9,o,1.0148785000055796,None,9,0,9,0,74.3884015000076,,,,,,,,,,,,,,,,,,,,,,,,,,,,,,,,,,,,,,,,,,,,,,,,,,74.37217970000347,74.3884015000076,74.88838140000007,74.8718491000036,74.88103210000554,74.88838140000007,74.88838140000007,74.88838140000007,75.90543310000794,Objects\191a.jpg,pre,o,1.0148785000055796,None,,,,,,,,00018,001,2025-11-09_11h24.21.434,MST_test,2024.2.2,59.988866067228045,2025-11-09 11h24.26.925355 +0530,
10,0,10,o,0.7844226000015624,None,10,0,10,0,75.921671899996,,,,,,,,,,,,,,,,,,,,,,,,,,,,,,,,,,,,,,,,,,,,,,,,,,75.90551080000296,75.921671899996,76.43829430000915,76.4051111000008,76.42835630000627,76.43829430000915,76.43829430000915,76.43829430000915,77.23857570000109,Objects\001b.jpg,mid,o,0.7844226000015624,None,,,,,,,,00018,001,2025-11-09_11h24.21.434,MST_test,2024.2.2,59.988866067228045,2025-11-09 11h24.26.925355 +0530,
11,0,11,o,0.7172606000094675,None,11,0,11,0,77.25498159999552,,,,,,,,,,,,,,,,,,,,,,,,,,,,,,,,,,,,,,,,,,,,,,,,,,77.23865260000457,77.25498159999552,77.77181410000776,77.73845160000201,77.75013339999714,77.77181410000776,77.77181410000776,77.77181410000776,78.50522360000468,Scenes\074a.jpg,pre,o,0.7172606000094675,None,,,,,,,,00018,001,2025-11-09_11h24.21.434,MST_test,2024.2.2,59.988866067228045,2025-11-09 11h24.26.925355 +0530,
12,0,12,s,1.0374519000033615,None,12,0,12,0,78.52162050000334,,,,,,,,,,,,,,,,,,,,,,,,,,,,,,,,,,,,,,,,,,,,,,,,,,78.50531020000926,78.52162050000334,79.02157609999995,79.00512400000298,79.01552610000363,79.02157609999995,79.02157609999995,79.02157609999995,80.07182280000416,Foils\105a.jpg,none,s,1.0374519000033615,None,,,,,,,,00018,001,2025-11-09_11h24.21.434,MST_test,2024.2.2,59.988866067228045,2025-11-09 11h24.26.925355 +0530,
13,0,13,s,1.590585400001146,None,13,0,13,0,80.0882566000073,,,,,,,,,,,,,,,,,,,,,,,,,,,,,,,,,,,,,,,,,,,,,,,,,,80.07190920000721,80.0882566000073,80.58822330000112,80.57173530000728,80.58108010000433,80.58822330000112,80.58822330000112,80.58822330000112,82.1885736999975,Objects\091b.jpg,post,s,1.590585400001146,None,,,,,,,,00018,001,2025-11-09_11h24.21.434,MST_test,2024.2.2,59.988866067228045,2025-11-09 11h24.26.925355 +0530,
14,0,14,o,0.9412265999999363,None,14,0,14,0,82.20483909999894,,,,,,,,,,,,,,,,,,,,,,,,,,,,,,,,,,,,,,,,,,,,,,,,,,82.18866549999802,82.20483909999894,82.72187039999699,82.68838790000882,82.70218150000437,82.72187039999699,82.72187039999699,82.72187039999699,83.67192269999941,Scenes\060a.jpg,post,o,0.9412265999999363,None,,,,,,,,00018,001,2025-11-09_11h24.21.434,MST_test,2024.2.2,59.988866067228045,2025-11-09 11h24.26.925355 +0530,
15,0,15,n,1.6026206999958958,None,15,0,15,0,83.68816820000939,,,,,,,,,,,,,,,,,,,,,,,,,,,,,,,,,,,,,,,,,,,,,,,,,,83.67201209999621,83.68816820000939,84.18813249999948,84.17164749999938,84.18147100000351,84.18813249999948,84.18813249999948,84.18813249999948,85.80512489999819,Foils\121a.jpg,none,n,1.6026206999958958,None,,,,,,,,00018,001,2025-11-09_11h24.21.434,MST_test,2024.2.2,59.988866067228045,2025-11-09 11h24.26.925355 +0530,
16,0,16,s,1.2290657999983523,None,16,0,16,0,85.82149560000107,,,,,,,,,,,,,,,,,,,,,,,,,,,,,,,,,,,,,,,,,,,,,,,,,,85.80520980000438,85.82149560000107,86.33808240000508,86.30499309999868,86.33068880000792,86.33808240000508,86.33808240000508,86.33808240000508,87.57177399999637,Scenes\173b.jpg,post,s,1.2290657999983523,None,,,,,,,,00018,001,2025-11-09_11h24.21.434,MST_test,2024.2.2,59.988866067228045,2025-11-09 11h24.26.925355 +0530,
17,0,17,s,0.9428938000055496,None,17,0,17,0,87.58809089999704,,,,,,,,,,,,,,,,,,,,,,,,,,,,,,,,,,,,,,,,,,,,,,,,,,87.57185360000585,87.58809089999704,88.08808499999577,88.07165500000701,88.08180770000035,88.08808499999577,88.08808499999577,88.08808499999577,89.03842620000069,Foils\034a.jpg,none,s,0.9428938000055496,None,,,,,,,,00018,001,2025-11-09_11h24.21.434,MST_test,2024.2.2,59.988866067228045,2025-11-09 11h24.26.925355 +0530,
18,0,18,s,0.7321571000065887,None,18,0,18,0,89.05475569999544,,,,,,,,,,,,,,,,,,,,,,,,,,,,,,,,,,,,,,,,,,,,,,,,,,89.03850209999655,89.05475569999544,89.57096340000862,89.53817539999727,89.56754139999975,89.57096340000862,89.57096340000862,89.57096340000862,90.30502980000165,Objects\027b.jpg,pre,s,0.7321571000065887,None,,,,,,,,00018,001,2025-11-09_11h24.21.434,MST_test,2024.2.2,59.988866067228045,2025-11-09 11h24.26.925355 +0530,
19,0,19,o,0.8929842999932589,None,19,0,19,0,90.32139219999954,,,,,,,,,,,,,,,,,,,,,,,,,,,,,,,,,,,,,,,,,,,,,,,,,,90.3051126000064,90.32139219999954,90.8546886999975,90.80491130000155,90.83460909999849,90.8546886999975,90.8546886999975,90.8546886999975,91.7549391000066,Scenes\012b.jpg,pre,o,0.8929842999932589,None,,,,,,,,00018,001,2025-11-09_11h24.21.434,MST_test,2024.2.2,59.988866067228045,2025-11-09 11h24.26.925355 +0530,
20,0,20,o,0.9855330999998841,None,20,0,20,0,91.77152199999546,,,,,,,,,,,,,,,,,,,,,,,,,,,,,,,,,,,,,,,,,,,,,,,,,,91.75501190000796,91.77152199999546,92.27116540000134,92.25488880000194,92.26593490000232,92.27116540000134,92.27116540000134,92.27116540000134,93.2715673000057,Objects\167a.jpg,mid,o,0.9855330999998841,None,,,,,,,,00018,001,2025-11-09_11h24.21.434,MST_test,2024.2.2,59.988866067228045,2025-11-09 11h24.26.925355 +0530,
21,0,21,o,0.8522474999917904,None,21,0,21,0,93.28792770000291,,,,,,,,,,,,,,,,,,,,,,,,,,,,,,,,,,,,,,,,,,,,,,,,,,93.27165870000317,93.28792770000291,93.80459400000109,93.77149339999596,93.78413369999907,93.80459400000109,93.80459400000109,93.80459400000109,94.67150830000173,Scenes\176a.jpg,post,o,0.8522474999917904,None,,,,,,,,00018,001,2025-11-09_11h24.21.434,MST_test,2024.2.2,59.988866067228045,2025-11-09 11h24.26.925355 +0530,
22,0,22,o,1.4885762000048999,None,22,0,22,0,94.68790020000597,,,,,,,,,,,,,,,,,,,,,,,,,,,,,,,,,,,,,,,,,,,,,,,,,,94.67159250000259,94.68790020000597,95.18789440000546,95.17141389999597,95.17940350000572,95.18789440000546,95.18789440000546,95.18789440000546,96.68816610000795,Scenes\029b.jpg,pre,o,1.4885762000048999,None,,,,,,,,00018,001,2025-11-09_11h24.21.434,MST_test,2024.2.2,59.988866067228045,2025-11-09 11h24.26.925355 +0530,
23,0,23,o,0.9584753000090132,None,23,0,23,0,96.70458220000728,,,,,,,,,,,,,,,,,,,,,,,,,,,,,,,,,,,,,,,,,,,,,,,,,,96.6882476000028,96.70458220000728,97.23787870000524,97.18799690000014,97.21857500000624,97.23787870000524,97.23787870000524,97.23787870000524,98.2048278000002,Objects\034b.jpg,post,o,0.9584753000090132,None,,,,,,,,00018,001,2025-11-09_11h24.21.434,MST_test,2024.2.2,59.988866067228045,2025-11-09 11h24.26.925355 +0530,
24,0,24,s,1.427430199997616,None,24,0,24,0,98.22120450000511,,,,,,,,,,,,,,,,,,,,,,,,,,,,,,,,,,,,,,,,,,,,,,,,,,98.20491400000174,98.22120450000511,98.73783800000092,98.70473769999808,98.7183606000035,98.73783800000092,98.73783800000092,98.73783800000092,100.17141320000519,Scenes\010a.jpg,post,s,1.427430199997616,None,,,,,,,,00018,001,2025-11-09_11h24.21.434,MST_test,2024.2.2,59.988866067228045,2025-11-09 11h24.26.925355 +0530,
25,0,25,o,1.3110871999961091,None,25,0,25,0,100.18781760000275,,,,,,,,,,,,,,,,,,,,,,,,,,,,,,,,,,,,,,,,,,,,,,,,,,100.17149860000063,100.18781760000275,100.68781139999919,100.67133100000501,100.67905980000796,100.68781139999919,100.68781139999919,100.68781139999919,102.00472949999676,Scenes\170a.jpg,mid,o,1.3110871999961091,None,,,,,,,,00018,001,2025-11-09_11h24.21.434,MST_test,2024.2.2,59.988866067228045,2025-11-09 11h24.26.925355 +0530,
26,0,26,n,2.150880100001814,None,26,0,26,0,102.02111119999608,,,,,,,,,,,,,,,,,,,,,,,,,,,,,,,,,,,,,,,,,,,,,,,,,,102.0048189000081,102.02111119999608,102.53773670000373,102.50470580000547,102.5251627999969,102.53773670000373,102.53773670000373,102.53773670000373,104.70473460000358,Scenes\171b.jpg,mid,n,2.150880100001814,None,,,,,,,,00018,001,2025-11-09_11h24.21.434,MST_test,2024.2.2,59.988866067228045,2025-11-09 11h24.26.925355 +0530,
27,0,27,o,1.0642164000018965,None,27,0,27,0,104.7210713000095,,,,,,,,,,,,,,,,,,,,,,,,,,,,,,,,,,,,,,,,,,,,,,,,,,104.70482620000257,104.7210713000095,105.22104790000594,105.2044709000038,105.21407180000097,105.22104790000594,105.22104790000594,105.22104790000594,106.28797130000021,Objects\182a.jpg,mid,o,1.0642164000018965,None,,,,,,,,00018,001,2025-11-09_11h24.21.434,MST_test,2024.2.2,59.988866067228045,2025-11-09 11h24.26.925355 +0530,
28,0,28,s,1.3184769000072265,None,28,0,28,0,106.30431859999953,,,,,,,,,,,,,,,,,,,,,,,,,,,,,,,,,,,,,,,,,,,,,,,,,,106.28805970000394,106.30431859999953,106.80459600000177,106.78790140000638,106.79413920000661,106.80459600000177,106.80459600000177,106.80459600000177,108.13793480000459,Foils\scenes16.jpg,none,s,1.3184769000072265,None,,,,,,,,00018,001,2025-11-09_11h24.21.434,MST_test,2024.2.2,59.988866067228045,2025-11-09 11h24.26.925355 +0530,
29,0,29,o,1.3385741000092821,None,29,0,29,0,108.15446040000825,,,,,,,,,,,,,,,,,,,,,,,,,,,,,,,,,,,,,,,,,,,,,,,,,,108.13801290000265,108.15446040000825,108.67094039999938,108.63782190000347,108.65826460000244,108.67094039999938,108.67094039999938,108.67094039999938,110.0212179000082,Objects\159b.jpg,mid,o,1.3385741000092821,None,,,,,,,,00018,001,2025-11-09_11h24.21.434,MST_test,2024.2.2,59.988866067228045,2025-11-09 11h24.26.925355 +0530,
30,0,30,o,1.0791143999958877,None,30,0,30,0,110.03762230000575,,,,,,,,,,,,,,,,,,,,,,,,,,,,,,,,,,,,,,,,,,,,,,,,,,110.02129980000609,110.03762230000575,110.53732410000521,110.52107990000513,110.53147090000857,110.53732410000521,110.53732410000521,110.53732410000521,111.6212785000098,Scenes\138a.jpg,pre,o,1.0791143999958877,None,,,,,,,,00018,001,2025-11-09_11h24.21.434,MST_test,2024.2.2,59.988866067228045,2025-11-09 11h24.26.925355 +0530,
31,0,31,s,1.1571855999936815,None,31,0,31,0,111.63757439999608,,,,,,,,,,,,,,,,,,,,,,,,,,,,,,,,,,,,,,,,,,,,,,,,,,111.62135460000718,111.63757439999608,112.154240200005,112.12105610000435,112.13385729999573,112.154240200005,112.154240200005,112.154240200005,113.3211134000012,Scenes\150b.jpg,pre,s,1.1571855999936815,None,,,,,,,,00018,001,2025-11-09_11h24.21.434,MST_test,2024.2.2,59.988866067228045,2025-11-09 11h24.26.925355 +0530,
32,0,32,s,1.3497169000038411,None,32,0,32,0,113.3375412000023,,,,,,,,,,,,,,,,,,,,,,,,,,,,,,,,,,,,,,,,,,,,,,,,,,113.32118790000095,113.3375412000023,113.87086340000678,113.82102309999755,113.85143130000506,113.87086340000678,113.87086340000678,113.87086340000678,115.22121790000529,Objects\174b.jpg,pre,s,1.3497169000038411,None,,,,,,,,00018,001,2025-11-09_11h24.21.434,MST_test,2024.2.2,59.988866067228045,2025-11-09 11h24.26.925355 +0530,
33,0,33,s,1.1365098999958718,None,33,0,33,0,115.2374989999953,,,,,,,,,,,,,,,,,,,,,,,,,,,,,,,,,,,,,,,,,,,,,,,,,,115.22130410000682,115.2374989999953,115.75411730000633,115.72096890000103,115.73711820000608,115.75411730000633,115.75411730000633,115.75411730000633,116.90451259999827,Objects\142b.jpg,mid,s,1.1365098999958718,None,,,,,,,,00018,001,2025-11-09_11h24.21.434,MST_test,2024.2.2,59.988866067228045,2025-11-09 11h24.26.925355 +0530,
34,0,34,s,1.0221801000006963,None,34,0,34,0,116.92075720000139,,,,,,,,,,,,,,,,,,,,,,,,,,,,,,,,,,,,,,,,,,,,,,,,,,116.90459550000378,116.92075720000139,117.4208912000031,117.40427369999816,117.41018890000123,117.4208912000031,117.4208912000031,117.4208912000031,118.45441360000405,Foils\scenes5.jpg,none,s,1.0221801000006963,None,,,,,,,,00018,001,2025-11-09_11h24.21.434,MST_test,2024.2.2,59.988866067228045,2025-11-09 11h24.26.925355 +0530,
35,0,35,s,1.3338246999919647,None,35,0,35,0,118.47075120000227,,,,,,,,,,,,,,,,,,,,,,,,,,,,,,,,,,,,,,,,,,,,,,,,,,118.45451199999661,118.47075120000227,118.97072650000337,118.95433330000378,118.96401340000739,118.97072650000337,118.97072650000337,118.97072650000337,120.32095330000448,Foils\065a.jpg,none,s,1.3338246999919647,None,,,,,,,,00018,001,2025-11-09_11h24.21.434,MST_test,2024.2.2,59.988866067228045,2025-11-09 11h24.26.925355 +0530,
36,0,36,s,1.1131927000096766,None,36,0,36,0,120.33739450000576,,,,,,,,,,,,,,,,,,,,,,,,,,,,,,,,,,,,,,,,,,,,,,,,,,120.32102519999899,120.33739450000576,120.83737950000796,120.82090800000879,120.83060699999623,120.83737950000796,120.83737950000796,120.83737950000796,121.9543937999988,Objects\058a.jpg,post,s,1.1131927000096766,None,,,,,,,,00018,001,2025-11-09_11h24.21.434,MST_test,2024.2.2,59.988866067228045,2025-11-09 11h24.26.925355 +0530,
37,0,37,s,0.8779036000050837,None,37,0,37,0,121.9706950999971,,,,,,,,,,,,,,,,,,,,,,,,,,,,,,,,,,,,,,,,,,,,,,,,,,121.954473100006,121.9706950999971,122.47070309999981,122.4541276999953,122.46372919999703,122.47070309999981,122.47070309999981,122.47070309999981,123.35428800000227,Objects\038a.jpg,pre,s,0.8779036000050837,None,,,,,,,,00018,001,2025-11-09_11h24.21.434,MST_test,2024.2.2,59.988866067228045,2025-11-09 11h24.26.925355 +0530,
38,0,38,o,0.8897769999894081,None,38,0,38,0,123.37065409999923,,,,,,,,,,,,,,,,,,,,,,,,,,,,,,,,,,,,,,,,,,,,,,,,,,123.35437080000702,123.37065409999923,123.88756780000404,123.85416460000852,123.86639419999847,123.88756780000404,123.88756780000404,123.88756780000404,124.78769080000347,Scenes\024a.jpg,pre,o,0.8897769999894081,None,,,,,,,,00018,001,2025-11-09_11h24.21.434,MST_test,2024.2.2,59.988866067228045,2025-11-09 11h24.26.925355 +0530,
39,0,39,o,0.6988549000088824,None,39,0,39,0,124.8039601000055,,,,,,,,,,,,,,,,,,,,,,,,,,,,,,,,,,,,,,,,,,,,,,,,,,124.78776800000924,124.8039601000055,125.32060659999843,125.28747160000785,125.30118170000787,125.32060659999843,125.32060659999843,125.32060659999843,126.02101490000496,Scenes\054a.jpg,mid,o,0.6988549000088824,None,,,,,,,,00018,001,2025-11-09_11h24.21.434,MST_test,2024.2.2,59.988866067228045,2025-11-09 11h24.26.925355 +0530,
40,0,40,o,1.3323875999922166,None,40,0,40,0,126.03725039999699,,,,,,,,,,,,,,,,,,,,,,,,,,,,,,,,,,,,,,,,,,,,,,,,,,126.02109760000894,126.03725039999699,126.53683280000405,126.52079999999842,126.53046290000202,126.53683280000405,126.53683280000405,126.53683280000405,127.87087460000475,Scenes\126b.jpg,post,o,1.3323875999922166,None,,,,,,,,00018,001,2025-11-09_11h24.21.434,MST_test,2024.2.2,59.988866067228045,2025-11-09 11h24.26.925355 +0530,
41,0,41,s,1.0332525999983773,None,41,0,41,0,127.88721470000746,,,,,,,,,,,,,,,,,,,,,,,,,,,,,,,,,,,,,,,,,,,,,,,,,,127.87095939999563,127.88721470000746,128.38717760000145,128.37069399999746,128.37566020000668,128.38717760000145,128.38717760000145,128.38717760000145,129.4209996999998,Scenes\137b.jpg,pre,s,1.0332525999983773,None,,,,,,,,00018,001,2025-11-09_11h24.21.434,MST_test,2024.2.2,59.988866067228045,2025-11-09 11h24.26.925355 +0530,
42,0,42,s,0.9343873999896459,None,42,0,42,0,129.4371811000019,,,,,,,,,,,,,,,,,,,,,,,,,,,,,,,,,,,,,,,,,,,,,,,,,,129.42109150000033,129.4371811000019,129.93714209999598,129.92068750000908,129.93069419999665,129.93714209999598,129.93714209999598,129.93714209999598,130.88739859999623,Objects\168b.jpg,mid,s,0.9343873999896459,None,,,,,,,,00018,001,2025-11-09_11h24.21.434,MST_test,2024.2.2,59.988866067228045,2025-11-09 11h24.26.925355 +0530,
43,0,43,n,0.9383421999955317,None,43,0,43,0,130.90382710000267,,,,,,,,,,,,,,,,,,,,,,,,,,,,,,,,,,,,,,,,,,,,,,,,,,130.8874754999997,130.90382710000267,131.42064850000315,131.38736419999623,131.41014410000935,131.42064850000315,131.42064850000315,131.42064850000315,132.37081580000813,Foils\scenes2.jpg,none,n,0.9383421999955317,None,,,,,,,,00018,001,2025-11-09_11h24.21.434,MST_test,2024.2.2,59.988866067228045,2025-11-09 11h24.26.925355 +0530,
44,0,44,o,0.9185202999942703,None,44,0,44,0,132.38714920000348,,,,,,,,,,,,,,,,,,,,,,,,,,,,,,,,,,,,,,,,,,,,,,,,,,132.37089109999943,132.38714920000348,132.90404999999737,132.87065270000312,132.8829495999962,132.90404999999737,132.90404999999737,132.90404999999737,133.83737819999806,Scenes\187a.jpg,pre,o,0.9185202999942703,None,,,,,,,,00018,001,2025-11-09_11h24.21.434,MST_test,2024.2.2,59.988866067228045,2025-11-09 11h24.26.925355 +0530,
45,0,45,s,1.0752711000095587,None,45,0,45,0,133.85372240000288,,,,,,,,,,,,,,,,,,,,,,,,,,,,,,,,,,,,,,,,,,,,,,,,,,133.83746619999874,133.85372240000288,134.37042970000766,134.33725029999914,134.36521250000806,134.37042970000766,134.37042970000766,134.37042970000766,135.4540646000096,Objects\080b.jpg,post,s,1.0752711000095587,None,,,,,,,,00018,001,2025-11-09_11h24.21.434,MST_test,2024.2.2,59.988866067228045,2025-11-09 11h24.26.925355 +0530,
46,0,46,s,1.1331996000080835,None,46,0,46,0,135.4704125999997,,,,,,,,,,,,,,,,,,,,,,,,,,,,,,,,,,,,,,,,,,,,,,,,,,135.45414210000308,135.4704125999997,135.98701040000014,135.95385449999594,135.96695719999843,135.98701040000014,135.98701040000014,135.98701040000014,137.1207987000089,Scenes\189b.jpg,mid,s,1.1331996000080835,None,,,,,,,,00018,001,2025-11-09_11h24.21.434,MST_test,2024.2.2,59.988866067228045,2025-11-09 11h24.26.925355 +0530,
47,0,47,n,1.2197440000018105,None,47,0,47,0,137.13701530000253,,,,,,,,,,,,,,,,,,,,,,,,,,,,,,,,,,,,,,,,,,,,,,,,,,137.120888999998,137.13701530000253,137.63697550000506,137.62049080000725,137.63183900000877,137.63697550000506,137.63697550000506,137.63697550000506,138.8706630000088,Foils\090a.jpg,none,n,1.2197440000018105,None,,,,,,,,00018,001,2025-11-09_11h24.21.434,MST_test,2024.2.2,59.988866067228045,2025-11-09 11h24.26.925355 +0530,
48,0,48,s,0.9541412999969907,None,48,0,48,0,138.88695590000134,,,,,,,,,,,,,,,,,,,,,,,,,,,,,,,,,,,,,,,,,,,,,,,,,,138.8707526000071,138.88695590000134,139.38698300000397,139.3705278999987,139.38008699999773,139.38698300000397,139.38698300000397,139.38698300000397,140.3538744999969,Objects\073a.jpg,mid,s,0.9541412999969907,None,,,,,,,,00018,001,2025-11-09_11h24.21.434,MST_test,2024.2.2,59.988866067228045,2025-11-09 11h24.26.925355 +0530,
49,0,49,s,1.4454842999984976,None,49,0,49,0,140.3702900000062,,,,,,,,,,,,,,,,,,,,,,,,,,,,,,,,,,,,,,,,,,,,,,,,,,140.35396429999673,140.3702900000062,140.8702759000007,140.85362510000414,140.86353509999753,140.8702759000007,140.8702759000007,140.8702759000007,142.32072190000326,Objects\089a.jpg,post,s,1.4454842999984976,None,,,,,,,,00018,001,2025-11-09_11h24.21.434,MST_test,2024.2.2,59.988866067228045,2025-11-09 11h24.26.925355 +0530,
50,0,50,o,1.6003053000022192,None,50,0,50,0,142.3369112000073,,,,,,,,,,,,,,,,,,,,,,,,,,,,,,,,,,,,,,,,,,,,,,,,,,142.32080309999583,142.3369112000073,142.85378879999917,142.8203910000011,142.8372595999972,142.85378879999917,142.85378879999917,142.85378879999917,144.47055640000326,Scenes\032b.jpg,post,o,1.6003053000022192,None,,,,,,,,00018,001,2025-11-09_11h24.21.434,MST_test,2024.2.2,59.988866067228045,2025-11-09 11h24.26.925355 +0530,
51,0,51,o,1.4368473000067752,None,51,0,51,0,144.48689410000225,,,,,,,,,,,,,,,,,,,,,,,,,,,,,,,,,,,,,,,,,,,,,,,,,,144.47064100000716,144.48689410000225,144.9868800999975,144.9704769000091,144.9801509999961,144.9868800999975,144.9868800999975,144.9868800999975,146.43709960000706,Objects\169a.jpg,pre,o,1.4368473000067752,None,,,,,,,,00018,001,2025-11-09_11h24.21.434,MST_test,2024.2.2,59.988866067228045,2025-11-09 11h24.26.925355 +0530,
52,0,52,o,1.3551852000091458,None,52,0,52,0,146.45348389999708,,,,,,,,,,,,,,,,,,,,,,,,,,,,,,,,,,,,,,,,,,,,,,,,,,146.4371761000075,146.45348389999708,146.97011609999754,146.93697280000197,146.95321639999747,146.97011609999754,146.97011609999754,146.97011609999754,148.3371482000075,Objects\045b.jpg,post,o,1.3551852000091458,None,,,,,,,,00018,001,2025-11-09_11h24.21.434,MST_test,2024.2.2,59.988866067228045,2025-11-09 11h24.26.925355 +0530,
53,0,53,o,1.1571276000031503,None,53,0,53,0,148.3534185000026,,,,,,,,,,,,,,,,,,,,,,,,,,,,,,,,,,,,,,,,,,,,,,,,,,148.3372381000081,148.3534185000026,148.87034340000537,148.83692509999673,148.8600518000021,148.87034340000537,148.87034340000537,148.87034340000537,150.03712910000468,Scenes\023b.jpg,mid,o,1.1571276000031503,None,,,,,,,,00018,001,2025-11-09_11h24.21.434,MST_test,2024.2.2,59.988866067228045,2025-11-09 11h24.26.925355 +0530,
54,0,54,s,0.8844623999902979,None,54,0,54,0,150.05337530000543,,,,,,,,,,,,,,,,,,,,,,,,,,,,,,,,,,,,,,,,,,,,,,,,,,150.0372170000046,150.05337530000543,150.58681130000332,150.53694839999662,150.56968460000644,150.58681130000332,150.58681130000332,150.58681130000332,151.48700360000657,Objects\116b.jpg,pre,s,0.8844623999902979,None,,,,,,,,00018,001,2025-11-09_11h24.21.434,MST_test,2024.2.2,59.988866067228045,2025-11-09 11h24.26.925355 +0530,
55,0,55,s,0.9618811999971513,None,55,0,55,0,151.50337980000768,,,,,,,,,,,,,,,,,,,,,,,,,,,,,,,,,,,,,,,,,,,,,,,,,,151.48707980000472,151.50337980000768,152.00337489999947,151.98692930000834,151.9969243000087,152.00337489999947,152.00337489999947,152.00337489999947,152.97040459999698,Foils\057a.jpg,none,s,0.9618811999971513,None,,,,,,,,00018,001,2025-11-09_11h24.21.434,MST_test,2024.2.2,59.988866067228045,2025-11-09 11h24.26.925355 +0530,
56,0,56,o,0.8968122000078438,None,56,0,56,0,152.98665180000535,,,,,,,,,,,,,,,,,,,,,,,,,,,,,,,,,,,,,,,,,,,,,,,,,,152.97048469999572,152.98665180000535,153.48663790000137,153.47029080000357,153.48010420000355,153.48663790000137,153.48663790000137,153.48663790000137,154.3869587000081,Objects\006a.jpg,post,o,0.8968122000078438,None,,,,,,,,00018,001,2025-11-09_11h24.21.434,MST_test,2024.2.2,59.988866067228045,2025-11-09 11h24.26.925355 +0530,
57,0,57,o,0.8244403999997303,None,57,0,57,0,154.4033230000059,,,,,,,,,,,,,,,,,,,,,,,,,,,,,,,,,,,,,,,,,,,,,,,,,,154.3870384000038,154.4033230000059,154.9033025999961,154.88688930000353,154.89664400000765,154.9033025999961,154.9033025999961,154.9033025999961,155.7370047000004,Objects\190b.jpg,pre,o,0.8244403999997303,None,,,,,,,,00018,001,2025-11-09_11h24.21.434,MST_test,2024.2.2,59.988866067228045,2025-11-09 11h24.26.925355 +0530,
58,0,58,o,0.7784889000031399,None,58,0,58,0,155.75329160000547,,,,,,,,,,,,,,,,,,,,,,,,,,,,,,,,,,,,,,,,,,,,,,,,,,155.7370910000027,155.75329160000547,156.27020939999784,156.23683449999953,156.26350250000542,156.27020939999784,156.27020939999784,156.27020939999784,157.0535324000084,Scenes\146b.jpg,mid,o,0.7784889000031399,None,,,,,,,,00018,001,2025-11-09_11h24.21.434,MST_test,2024.2.2,59.988866067228045,2025-11-09 11h24.26.925355 +0530,
59,0,59,o,0.6764159000013024,None,59,0,59,0,157.0699278999964,,,,,,,,,,,,,,,,,,,,,,,,,,,,,,,,,,,,,,,,,,,,,,,,,,157.05361919999996,157.0699278999964,157.58654780000506,157.5534753999964,157.56613400000788,157.58654780000506,157.58654780000506,157.58654780000506,158.27022730000317,Scenes\103a.jpg,pre,o,0.6764159000013024,None,,,,,,,,00018,001,2025-11-09_11h24.21.434,MST_test,2024.2.2,59.988866067228045,2025-11-09 11h24.26.925355 +0530,
60,0,60,s,1.269759000002523,None,60,0,60,0,158.28653300000587,,,,,,,,,,,,,,,,,,,,,,,,,,,,,,,,,,,,,,,,,,,,,,,,,,158.27030420000665,158.28653300000587,158.8198834000068,158.7701814000029,158.80322149999847,158.8198834000068,158.8198834000068,158.8198834000068,160.1035513000097,Objects\147b.jpg,post,s,1.269759000002523,None,,,,,,,,00018,001,2025-11-09_11h24.21.434,MST_test,2024.2.2,59.988866067228045,2025-11-09 11h24.26.925355 +0530,
61,0,61,o,0.8687074000044959,None,61,0,61,0,160.11985840000852,,,,,,,,,,,,,,,,,,,,,,,,,,,,,,,,,,,,,,,,,,,,,,,,,,160.10364030000346,160.11985840000852,160.6366038999986,160.60340859999997,160.61552980000852,160.6366038999986,160.6366038999986,160.6366038999986,161.5201861000096,Scenes\021a.jpg,mid,o,0.8687074000044959,None,,,,,,,,00018,001,2025-11-09_11h24.21.434,MST_test,2024.2.2,59.988866067228045,2025-11-09 11h24.26.925355 +0530,
62,0,62,o,0.8379726999992272,None,62,0,62,0,161.53649399999995,,,,,,,,,,,,,,,,,,,,,,,,,,,,,,,,,,,,,,,,,,,,,,,,,,161.52026810000825,161.53649399999995,162.05311490000167,162.02002809999976,162.03387870000734,162.05311490000167,162.05311490000167,162.05311490000167,162.90336599999864,Scenes\037a.jpg,mid,o,0.8379726999992272,None,,,,,,,,00018,001,2025-11-09_11h24.21.434,MST_test,2024.2.2,59.988866067228045,2025-11-09 11h24.26.925355 +0530,
63,0,63,n,1.9190229999949224,None,63,0,63,0,162.91980279999552,,,,,,,,,,,,,,,,,,,,,,,,,,,,,,,,,,,,,,,,,,,,,,,,,,162.9034479999973,162.91980279999552,163.43604129999585,163.4032989999978,163.43269800000417,163.43604129999585,163.43604129999585,163.43604129999585,165.37003249999543,Foils\009a.jpg,none,n,1.9190229999949224,None,,,,,,,,00018,001,2025-11-09_11h24.21.434,MST_test,2024.2.2,59.988866067228045,2025-11-09 11h24.26.925355 +0530,
64,0,64,n,0.7562969999999041,None,64,0,64,0,165.38641130000178,,,,,,,,,,,,,,,,,,,,,,,,,,,,,,,,,,,,,,,,,,,,,,,,,,165.37013229999866,165.38641130000178,165.88657590000366,165.86988349999592,165.87554629999795,165.88657590000366,165.88657590000366,165.88657590000366,166.65339619999577,Foils\scenes17.jpg,none,n,0.7562969999999041,None,,,,,,,,00018,001,2025-11-09_11h24.21.434,MST_test,2024.2.2,59.988866067228045,2025-11-09 11h24.26.925355 +0530,
65,0,65,n,0.7819971999997506,None,65,0,65,0,166.66971970000304,,,,,,,,,,,,,,,,,,,,,,,,,,,,,,,,,,,,,,,,,,,,,,,,,,166.65347720000136,166.66971970000304,167.16967440000735,167.1531560000003,167.16280439999537,167.16967440000735,167.16967440000735,167.16967440000735,167.95340980000037,Foils\098a.jpg,none,n,0.7819971999997506,None,,,,,,,,00018,001,2025-11-09_11h24.21.434,MST_test,2024.2.2,59.988866067228045,2025-11-09 11h24.26.925355 +0530,
66,0,66,o,0.7768617999972776,None,66,0,66,0,167.96969220000028,,,,,,,,,,,,,,,,,,,,,,,,,,,,,,,,,,,,,,,,,,,,,,,,,,167.95349690000876,167.96969220000028,168.4696399999957,168.4531863000011,168.46331170000485,168.4696399999957,168.4696399999957,168.4696399999957,169.25324340000225,Objects\066a.jpg,post,o,0.7768617999972776,None,,,,,,,,00018,001,2025-11-09_11h24.21.434,MST_test,2024.2.2,59.988866067228045,2025-11-09 11h24.26.925355 +0530,
67,0,67,o,1.2947997000010218,None,67,0,67,0,169.26965190000192,,,,,,,,,,,,,,,,,,,,,,,,,,,,,,,,,,,,,,,,,,,,,,,,,,169.2533259000047,169.26965190000192,169.76989660000254,169.7532532000041,169.76259490000666,169.76989660000254,169.76989660000254,169.76989660000254,171.06990109999606,Scenes\192a.jpg,pre,o,1.2947997000010218,None,,,,,,,,00018,001,2025-11-09_11h24.21.434,MST_test,2024.2.2,59.988866067228045,2025-11-09 11h24.26.925355 +0530,
68,0,68,s,1.0598764000023948,None,68,0,68,0,171.08628669999598,,,,,,,,,,,,,,,,,,,,,,,,,,,,,,,,,,,,,,,,,,,,,,,,,,171.0699839000008,171.08628669999598,171.6196052000014,171.56978940000408,171.58013740000024,171.6196052000014,171.6196052000014,171.6196052000014,172.68658019999566,Foils\002a.jpg,none,s,1.0598764000023948,None,,,,,,,,00018,001,2025-11-09_11h24.21.434,MST_test,2024.2.2,59.988866067228045,2025-11-09 11h24.26.925355 +0530,
69,0,69,s,0.7055668999964837,None,69,0,69,0,172.70288870000513,,,,,,,,,,,,,,,,,,,,,,,,,,,,,,,,,,,,,,,,,,,,,,,,,,172.68666310000117,172.70288870000513,173.20289470000716,173.1864784000063,173.19772640000156,173.20289470000716,173.20289470000716,173.20289470000716,173.9198458000028,Foils\026a.jpg,none,s,0.7055668999964837,None,,,,,,,,00018,001,2025-11-09_11h24.21.434,MST_test,2024.2.2,59.988866067228045,2025-11-09 11h24.26.925355 +0530,
70,0,70,s,0.804507900000317,None,70,0,70,0,173.9362320000073,,,,,,,,,,,,,,,,,,,,,,,,,,,,,,,,,,,,,,,,,,,,,,,,,,173.919930700009,173.9362320000073,174.4530555000092,174.4197617000027,174.4403059000033,174.4530555000092,174.4530555000092,174.4530555000092,175.26980130000447,Foils\scenes28.jpg,none,s,0.804507900000317,None,,,,,,,,00018,001,2025-11-09_11h24.21.434,MST_test,2024.2.2,59.988866067228045,2025-11-09 11h24.26.925355 +0530,
71,0,71,n,1.497775299998466,None,71,0,71,0,175.28619670000626,,,,,,,,,,,,,,,,,,,,,,,,,,,,,,,,,,,,,,,,,,,,,,,,,,175.26987820000795,175.28619670000626,175.78634089999832,175.7696799999976,175.77742610000132,175.78634089999832,175.78634089999832,175.78634089999832,177.2865918000025,Foils\scenes30.jpg,none,n,1.497775299998466,None,,,,,,,,00018,001,2025-11-09_11h24.21.434,MST_test,2024.2.2,59.988866067228045,2025-11-09 11h24.26.925355 +0530,
72,0,72,s,1.7841189000027953,None,72,0,72,0,177.30281799999648,,,,,,,,,,,,,,,,,,,,,,,,,,,,,,,,,,,,,,,,,,,,,,,,,,177.28667800000403,177.30281799999648,177.80298239999684,177.78640989999985,177.79748700000346,177.80298239999684,177.80298239999684,177.80298239999684,179.60308250000526,Objects\140a.jpg,pre,s,1.7841189000027953,None,,,,,,,,00018,001,2025-11-09_11h24.21.434,MST_test,2024.2.2,59.988866067228045,2025-11-09 11h24.26.925355 +0530,
73,0,73,s,0.9847133000002941,None,73,0,73,0,179.6194256000017,,,,,,,,,,,,,,,,,,,,,,,,,,,,,,,,,,,,,,,,,,,,,,,,,,179.6031621000002,179.6194256000017,180.13638229999924,180.10293120000279,180.1272658000089,180.13638229999924,180.13638229999924,180.13638229999924,181.13639529999637,Scenes\016b.jpg,post,s,0.9847133000002941,None,,,,,,,,00018,001,2025-11-09_11h24.21.434,MST_test,2024.2.2,59.988866067228045,2025-11-09 11h24.26.925355 +0530,
74,0,74,s,0.8348465000017313,None,74,0,74,0,181.1527339000022,,,,,,,,,,,,,,,,,,,,,,,,,,,,,,,,,,,,,,,,,,,,,,,,,,181.1364845000062,181.1527339000022,181.669630400007,181.6362189000065,181.64918490000127,181.669630400007,181.669630400007,181.669630400007,182.5197002000059,Scenes\090a.jpg,pre,s,0.8348465000017313,None,,,,,,,,00018,001,2025-11-09_11h24.21.434,MST_test,2024.2.2,59.988866067228045,2025-11-09 11h24.26.925355 +0530,
75,0,75,o,0.9587440000032075,None,75,0,75,0,182.53608150000218,,,,,,,,,,,,,,,,,,,,,,,,,,,,,,,,,,,,,,,,,,,,,,,,,,182.51978450000752,182.53608150000218,183.05270030000247,183.01958790000936,183.0328545000084,183.05270030000247,183.05270030000247,183.05270030000247,184.0197113000031,Scenes\043a.jpg,mid,o,0.9587440000032075,None,,,,,,,,00018,001,2025-11-09_11h24.21.434,MST_test,2024.2.2,59.988866067228045,2025-11-09 11h24.26.925355 +0530,
76,0,76,s,1.1724317999905907,None,76,0,76,0,184.03597559999616,,,,,,,,,,,,,,,,,,,,,,,,,,,,,,,,,,,,,,,,,,,,,,,,,,184.0197923000087,184.03597559999616,184.55224820000876,184.5195376000047,184.547765299998,184.55224820000876,184.55224820000876,184.55224820000876,185.73624060000293,Objects\033b.jpg,pre,s,1.1724317999905907,None,,,,,,,,00018,001,2025-11-09_11h24.21.434,MST_test,2024.2.2,59.988866067228045,2025-11-09 11h24.26.925355 +0530,
77,0,77,s,1.227276100005838,None,77,0,77,0,185.75266640000336,,,,,,,,,,,,,,,,,,,,,,,,,,,,,,,,,,,,,,,,,,,,,,,,,,185.73632300000463,185.75266640000336,186.28596330000437,186.2362151999987,186.26697290000448,186.28596330000437,186.28596330000437,186.28596330000437,187.5196641000075,Objects\095b.jpg,pre,s,1.227276100005838,None,,,,,,,,00018,001,2025-11-09_11h24.21.434,MST_test,2024.2.2,59.988866067228045,2025-11-09 11h24.26.925355 +0530,
78,0,78,n,1.560680599999614,None,78,0,78,0,187.5358991999965,,,,,,,,,,,,,,,,,,,,,,,,,,,,,,,,,,,,,,,,,,,,,,,,,,187.51974750000227,187.5358991999965,188.13613230000192,188.0194482000079,188.10905759999878,188.13613230000192,188.13613230000192,188.13613230000192,189.70296700000472,Foils\scenes25.jpg,none,n,1.560680599999614,None,,,,,,,,00018,001,2025-11-09_11h24.21.434,MST_test,2024.2.2,59.988866067228045,2025-11-09 11h24.26.925355 +0530,
79,0,79,s,0.9253348999918671,None,79,0,79,0,189.71929480000108,,,,,,,,,,,,,,,,,,,,,,,,,,,,,,,,,,,,,,,,,,,,,,,,,,189.70306580000033,189.71929480000108,190.23585120000644,190.20271300000604,190.23042410000926,190.23585120000644,190.23585120000644,190.23585120000644,191.1695439000032,Objects\181b.jpg,mid,s,0.9253348999918671,None,,,,,,,,00018,001,2025-11-09_11h24.21.434,MST_test,2024.2.2,59.988866067228045,2025-11-09 11h24.26.925355 +0530,
80,0,80,o,0.8232997000013711,None,80,0,80,0,191.18586759999744,,,,,,,,,,,,,,,,,,,,,,,,,,,,,,,,,,,,,,,,,,,,,,,,,,191.16962690000946,191.18586759999744,191.68581450000056,191.66933479999716,191.67935430000944,191.68581450000056,191.68581450000056,191.68581450000056,192.51949190000596,Objects\092a.jpg,mid,o,0.8232997000013711,None,,,,,,,,00018,001,2025-11-09_11h24.21.434,MST_test,2024.2.2,59.988866067228045,2025-11-09 11h24.26.925355 +0530,
81,0,81,s,1.1746209999982966,None,81,0,81,0,192.5357970000041,,,,,,,,,,,,,,,,,,,,,,,,,,,,,,,,,,,,,,,,,,,,,,,,,,192.51957279999624,192.5357970000041,193.0526877000084,193.0193234000035,193.04252099999576,193.0526877000084,193.0526877000084,193.0526877000084,194.23600570000417,Foils\scenes23.jpg,none,s,1.1746209999982966,None,,,,,,,,00018,001,2025-11-09_11h24.21.434,MST_test,2024.2.2,59.988866067228045,2025-11-09 11h24.26.925355 +0530,
82,0,82,s,0.709245899997768,None,82,0,82,0,194.2524143000046,,,,,,,,,,,,,,,,,,,,,,,,,,,,,,,,,,,,,,,,,,,,,,,,,,194.23608770000283,194.2524143000046,194.7693011000083,194.7359376000095,194.74204160000954,194.7693011000083,194.7693011000083,194.7693011000083,195.4861724000075,Foils\scenes20.jpg,none,s,0.709245899997768,None,,,,,,,,00018,001,2025-11-09_11h24.21.434,MST_test,2024.2.2,59.988866067228045,2025-11-09 11h24.26.925355 +0530,
83,0,83,o,0.8935323000041535,None,83,0,83,0,195.50242699999944,,,,,,,,,,,,,,,,,,,,,,,,,,,,,,,,,,,,,,,,,,,,,,,,,,195.4862632000004,195.50242699999944,196.01925939999637,195.98591080000915,196.00570969999535,196.01925939999637,196.01925939999637,196.01925939999637,196.9194492000097,Scenes\115a.jpg,post,o,0.8935323000041535,None,,,,,,,,00018,001,2025-11-09_11h24.21.434,MST_test,2024.2.2,59.988866067228045,2025-11-09 11h24.26.925355 +0530,
84,0,84,o,0.8585870999959297,None,84,0,84,0,196.9357042000047,,,,,,,,,,,,,,,,,,,,,,,,,,,,,,,,,,,,,,,,,,,,,,,,,,196.91953139999532,196.9357042000047,197.45235510000202,197.41927729999588,197.4367373999994,197.45235510000202,197.45235510000202,197.45235510000202,198.31939420000708,Scenes\018a.jpg,pre,o,0.8585870999959297,None,,,,,,,,00018,001,2025-11-09_11h24.21.434,MST_test,2024.2.2,59.988866067228045,2025-11-09 11h24.26.925355 +0530,
85,0,85,o,0.919186200000695,None,85,0,85,0,198.3356979000091,,,,,,,,,,,,,,,,,,,,,,,,,,,,,,,,,,,,,,,,,,,,,,,,,,198.31948320000083,198.3356979000091,198.8358470999956,198.819247300009,198.83032280000043,198.8358470999956,198.8358470999956,198.8358470999956,199.76938840000366,Objects\166a.jpg,post,o,0.919186200000695,None,,,,,,,,00018,001,2025-11-09_11h24.21.434,MST_test,2024.2.2,59.988866067228045,2025-11-09 11h24.26.925355 +0530,
86,0,86,o,0.8668161000096006,None,86,0,86,0,199.78566900000442,,,,,,,,,,,,,,,,,,,,,,,,,,,,,,,,,,,,,,,,,,,,,,,,,,199.76947749999817,199.78566900000442,200.30232370000158,200.2692146000045,200.2850776999985,200.30232370000158,200.30232370000158,200.30232370000158,201.16945560000022,Objects\060b.jpg,mid,o,0.8668161000096006,None,,,,,,,,00018,001,2025-11-09_11h24.21.434,MST_test,2024.2.2,59.988866067228045,2025-11-09 11h24.26.925355 +0530,
87,0,87,o,0.7196849000029033,None,87,0,87,0,201.1856465000019,,,,,,,,,,,,,,,,,,,,,,,,,,,,,,,,,,,,,,,,,,,,,,,,,,201.16953870000725,201.1856465000019,201.7025311000034,201.6691248999996,201.68849889999547,201.7025311000034,201.7025311000034,201.7025311000034,202.43601639999542,Scenes\123a.jpg,mid,o,0.7196849000029033,None,,,,,,,,00018,001,2025-11-09_11h24.21.434,MST_test,2024.2.2,59.988866067228045,2025-11-09 11h24.26.925355 +0530,
88,0,88,s,0.9385513000015635,None,88,0,88,0,202.45223870000336,,,,,,,,,,,,,,,,,,,,,,,,,,,,,,,,,,,,,,,,,,,,,,,,,,202.43609489999653,202.45223870000336,202.95224070000404,202.9357927000092,202.9457548000064,202.95224070000404,202.95224070000404,202.95224070000404,203.90252980000514,Foils\018a.jpg,none,s,0.9385513000015635,None,,,,,,,,00018,001,2025-11-09_11h24.21.434,MST_test,2024.2.2,59.988866067228045,2025-11-09 11h24.26.925355 +0530,
89,0,89,o,0.7596775000129128,None,89,0,89,0,203.91892470000312,,,,,,,,,,,,,,,,,,,,,,,,,,,,,,,,,,,,,,,,,,,,,,,,,,203.90260240000498,203.91892470000312,204.4188720999955,204.402379200008,204.41211390000535,204.4188720999955,204.4188720999955,204.4188720999955,205.1859034000081,Objects\048a.jpg,pre,o,0.7596775000129128,None,,,,,,,,00018,001,2025-11-09_11h24.21.434,MST_test,2024.2.2,59.988866067228045,2025-11-09 11h24.26.925355 +0530,
90,0,90,s,1.0339466000004904,None,90,0,90,0,205.2022214000026,,,,,,,,,,,,,,,,,,,,,,,,,,,,,,,,,,,,,,,,,,,,,,,,,,205.18597910000244,205.2022214000026,205.7188468999957,205.68575109999801,205.70158470000024,205.7188468999957,205.7188468999957,205.7188468999957,206.76919839999755,Objects\131b.jpg,post,s,1.0339466000004904,None,,,,,,,,00018,001,2025-11-09_11h24.21.434,MST_test,2024.2.2,59.988866067228045,2025-11-09 11h24.26.925355 +0530,
91,0,91,o,0.8818635000061477,None,91,0,91,0,206.7855234000017,,,,,,,,,,,,,,,,,,,,,,,,,,,,,,,,,,,,,,,,,,,,,,,,,,206.76927630000864,206.7855234000017,207.28550650000398,207.26912450000236,207.27895400000853,207.28550650000398,207.28550650000398,207.28550650000398,208.16926209999656,Objects\124a.jpg,pre,o,0.8818635000061477,None,,,,,,,,00018,001,2025-11-09_11h24.21.434,MST_test,2024.2.2,59.988866067228045,2025-11-09 11h24.26.925355 +0530,
92,0,92,s,1.0603905000025406,None,92,0,92,0,208.18549380000331,,,,,,,,,,,,,,,,,,,,,,,,,,,,,,,,,,,,,,,,,,,,,,,,,,208.16935060000105,208.18549380000331,208.70212860000902,208.66892029999872,208.69133970000257,208.70212860000902,208.70212860000902,208.70212860000902,209.76905820000684,Scenes\147b.jpg,post,s,1.0603905000025406,None,,,,,,,,00018,001,2025-11-09_11h24.21.434,MST_test,2024.2.2,59.988866067228045,2025-11-09 11h24.26.925355 +0530,
93,0,93,o,0.8579909999971278,None,93,0,93,0,209.78544940000575,,,,,,,,,,,,,,,,,,,,,,,,,,,,,,,,,,,,,,,,,,,,,,,,,,209.76913919999788,209.78544940000575,210.28541720000794,210.2689190000092,210.2790449000022,210.28541720000794,210.28541720000794,210.28541720000794,211.152471399997,Objects\007a.jpg,pre,o,0.8579909999971278,None,,,,,,,,00018,001,2025-11-09_11h24.21.434,MST_test,2024.2.2,59.988866067228045,2025-11-09 11h24.26.925355 +0530,
94,0,94,o,0.8510723999934271,None,94,0,94,0,211.1687263000058,,,,,,,,,,,,,,,,,,,,,,,,,,,,,,,,,,,,,,,,,,,,,,,,,,211.1525493000081,211.1687263000058,211.68538490000356,211.65223449999758,211.67259950000152,211.68538490000356,211.68538490000356,211.68538490000356,212.552328699996,Objects\046b.jpg,post,o,0.8510723999934271,None,,,,,,,,00018,001,2025-11-09_11h24.21.434,MST_test,2024.2.2,59.988866067228045,2025-11-09 11h24.26.925355 +0530,
95,0,95,o,0.644359899990377,None,95,0,95,0,212.5686987000081,,,,,,,,,,,,,,,,,,,,,,,,,,,,,,,,,,,,,,,,,,,,,,,,,,212.55240260000573,212.5686987000081,213.06868640000175,213.0522334999987,213.06223060000048,213.06868640000175,213.06868640000175,213.06868640000175,213.71905420000257,Objects\161a.jpg,mid,o,0.644359899990377,None,,,,,,,,00018,001,2025-11-09_11h24.21.434,MST_test,2024.2.2,59.988866067228045,2025-11-09 11h24.26.925355 +0530,
96,0,96,o,1.0430323000036879,None,96,0,96,0,213.73534529999597,,,,,,,,,,,,,,,,,,,,,,,,,,,,,,,,,,,,,,,,,,,,,,,,,,213.71914719999768,213.73534529999597,214.25222680000297,214.21888420000323,214.2371196000022,214.25222680000297,214.25222680000297,214.25222680000297,215.3024776000093,Scenes\182b.jpg,pre,o,1.0430323000036879,None,,,,,,,,00018,001,2025-11-09_11h24.21.434,MST_test,2024.2.2,59.988866067228045,2025-11-09 11h24.26.925355 +0530,
97,0,97,o,0.6905607999942731,None,97,0,97,0,215.31866679999803,,,,,,,,,,,,,,,,,,,,,,,,,,,,,,,,,,,,,,,,,,,,,,,,,,215.30256579999696,215.31866679999803,215.81868690000556,215.80221700000402,215.81208940000215,215.81868690000556,215.81868690000556,215.81868690000556,216.51897160000226,Objects\068a.jpg,mid,o,0.6905607999942731,None,,,,,,,,00018,001,2025-11-09_11h24.21.434,MST_test,2024.2.2,59.988866067228045,2025-11-09 11h24.26.925355 +0530,
98,0,98,s,1.0627997000119649,None,98,0,98,0,216.53528229999938,,,,,,,,,,,,,,,,,,,,,,,,,,,,,,,,,,,,,,,,,,,,,,,,,,216.51905540000007,216.53528229999938,217.05193610000424,217.01896509999642,217.04270020000695,217.05193610000424,217.05193610000424,217.05193610000424,218.11893009999767,Objects\160b.jpg,mid,s,1.0627997000119649,None,,,,,,,,00018,001,2025-11-09_11h24.21.434,MST_test,2024.2.2,59.988866067228045,2025-11-09 11h24.26.925355 +0530,
99,0,99,o,0.809208500009845,None,99,0,99,0,218.13527470000554,,,,,,,,,,,,,,,,,,,,,,,,,,,,,,,,,,,,,,,,,,,,,,,,,,218.11900900000182,218.13527470000554,218.6519016999955,218.61878479999723,218.63832290000573,218.6519016999955,218.6519016999955,218.6519016999955,219.46890110000095,Scenes\184a.jpg,pre,o,0.809208500009845,None,,,,,,,,00018,001,2025-11-09_11h24.21.434,MST_test,2024.2.2,59.988866067228045,2025-11-09 11h24.26.925355 +0530,
100,0,100,s,0.8510265000077197,None,100,0,100,0,219.48525500000687,,,,,,,,,,,,,,,,,,,,,,,,,,,,,,,,,,,,,,,,,,,,,,,,,,219.46898950000468,219.48525500000687,220.00189060000412,219.96880970000348,219.98926539999957,220.00189060000412,220.00189060000412,220.00189060000412,220.868956300008,Objects\024b.jpg,post,s,0.8510265000077197,None,,,,,,,,00018,001,2025-11-09_11h24.21.434,MST_test,2024.2.2,59.988866067228045,2025-11-09 11h24.26.925355 +0530,
101,0,101,o,0.7205960999999661,None,101,0,101,0,220.88518110000587,,,,,,,,,,,,,,,,,,,,,,,,,,,,,,,,,,,,,,,,,,,,,,,,,,220.86904829999548,220.88518110000587,221.40162380000402,221.36872030000086,221.39666670000588,221.40162380000402,221.40162380000402,221.40162380000402,222.13545250000607,Scenes\026a.jpg,post,o,0.7205960999999661,None,,,,,,,,00018,001,2025-11-09_11h24.21.434,MST_test,2024.2.2,59.988866067228045,2025-11-09 11h24.26.925355 +0530,
102,0,102,n,1.462826999995741,None,102,0,102,0,222.15185700000438,,,,,,,,,,,,,,,,,,,,,,,,,,,,,,,,,,,,,,,,,,,,,,,,,,222.13553200000024,222.15185700000438,222.6518136000086,222.63538259999768,222.64508820000628,222.6518136000086,222.6518136000086,222.6518136000086,224.1188814000052,Foils\049a.jpg,none,n,1.462826999995741,None,,,,,,,,00018,001,2025-11-09_11h24.21.434,MST_test,2024.2.2,59.988866067228045,2025-11-09 11h24.26.925355 +0530,
103,0,103,s,1.240691600003629,None,103,0,103,0,224.1351139000035,,,,,,,,,,,,,,,,,,,,,,,,,,,,,,,,,,,,,,,,,,,,,,,,,,224.11895950000326,224.1351139000035,224.66874649999954,224.61869760000263,224.64791529999638,224.66874649999954,224.66874649999954,224.66874649999954,225.91890620000777,Scenes\136b.jpg,pre,s,1.240691600003629,None,,,,,,,,00018,001,2025-11-09_11h24.21.434,MST_test,2024.2.2,59.988866067228045,2025-11-09 11h24.26.925355 +0530,
104,0,104,o,1.3083029999979772,None,104,0,104,0,225.93510440000682,,,,,,,,,,,,,,,,,,,,,,,,,,,,,,,,,,,,,,,,,,,,,,,,,,225.9189897000033,225.93510440000682,226.46860960000777,226.41860060000909,226.45732110000972,226.46860960000777,226.46860960000777,226.46860960000777,227.78546240000287,Scenes\013b.jpg,mid,o,1.3083029999979772,None,,,,,,,,00018,001,2025-11-09_11h24.21.434,MST_test,2024.2.2,59.988866067228045,2025-11-09 11h24.26.925355 +0530,
105,0,105,o,0.6834076000086498,None,105,0,105,0,227.8017101000005,,,,,,,,,,,,,,,,,,,,,,,,,,,,,,,,,,,,,,,,,,,,,,,,,,227.78554379999696,227.8017101000005,228.30200029999833,228.2853829000087,228.29503809999733,228.30200029999833,228.30200029999833,228.30200029999833,228.98572660000355,Objects\100a.jpg,pre,o,0.6834076000086498,None,,,,,,,,00018,001,2025-11-09_11h24.21.434,MST_test,2024.2.2,59.988866067228045,2025-11-09 11h24.26.925355 +0530,
106,0,106,o,0.7314607000007527,None,106,0,106,0,229.0016969999997,,,,,,,,,,,,,,,,,,,,,,,,,,,,,,,,,,,,,,,,,,,,,,,,,,228.98581040000136,229.0016969999997,229.50166540000646,229.48522380000213,229.49522250000155,229.50166540000646,229.50166540000646,229.50166540000646,230.23542860000452,Objects\010b.jpg,pre,o,0.7314607000007527,None,,,,,,,,00018,001,2025-11-09_11h24.21.434,MST_test,2024.2.2,59.988866067228045,2025-11-09 11h24.26.925355 +0530,
107,0,107,o,0.7480479000078049,None,107,0,107,0,230.2516736999969,,,,,,,,,,,,,,,,,,,,,,,,,,,,,,,,,,,,,,,,,,,,,,,,,,230.23550880000403,230.2516736999969,230.76854000000458,230.73522980000416,230.7587521000096,230.76854000000458,230.76854000000458,230.76854000000458,231.51873070000147,Scenes\077b.jpg,mid,o,0.7480479000078049,None,,,,,,,,00018,001,2025-11-09_11h24.21.434,MST_test,2024.2.2,59.988866067228045,2025-11-09 11h24.26.925355 +0530,
108,0,108,o,0.9845353999990039,None,108,0,108,0,231.53498620000028,,,,,,,,,,,,,,,,,,,,,,,,,,,,,,,,,,,,,,,,,,,,,,,,,,231.51881270000013,231.53498620000028,232.03497239999706,232.01846849999856,232.02822700000252,232.03497239999706,232.03497239999706,232.03497239999706,233.03521329999785,Objects\087a.jpg,post,o,0.9845353999990039,None,,,,,,,,00018,001,2025-11-09_11h24.21.434,MST_test,2024.2.2,59.988866067228045,2025-11-09 11h24.26.925355 +0530,
109,0,109,s,1.2329112000006717,None,109,0,109,0,233.05158539999684,,,,,,,,,,,,,,,,,,,,,,,,,,,,,,,,,,,,,,,,,,,,,,,,,,233.03528930000903,233.05158539999684,233.55186720000347,233.53519900000538,233.54236639999726,233.55186720000347,233.55186720000347,233.55186720000347,234.7852658000047,Foils\scenes7.jpg,none,s,1.2329112000006717,None,,,,,,,,00018,001,2025-11-09_11h24.21.434,MST_test,2024.2.2,59.988866067228045,2025-11-09 11h24.26.925355 +0530,
110,0,110,n,0.7045119000104023,None,110,0,110,0,234.80156550000538,,,,,,,,,,,,,,,,,,,,,,,,,,,,,,,,,,,,,,,,,,,,,,,,,,234.78534180000133,234.80156550000538,235.31848109999555,235.2851221000019,235.3065348000091,235.31848109999555,235.31848109999555,235.31848109999555,236.03518410000834,Scenes\119a.jpg,pre,n,0.7045119000104023,None,,,,,,,,00018,001,2025-11-09_11h24.21.434,MST_test,2024.2.2,59.988866067228045,2025-11-09 11h24.26.925355 +0530,
111,0,111,n,0.7828310999902897,None,111,0,111,0,236.05155570000352,,,,,,,,,,,,,,,,,,,,,,,,,,,,,,,,,,,,,,,,,,,,,,,,,,236.03526520000014,236.05155570000352,236.56821379999747,236.5350896000018,236.5508731000009,236.56821379999747,236.56821379999747,236.56821379999747,237.35192749999987,Objects\085b.jpg,mid,n,0.7828310999902897,None,,,,,,,,00018,001,2025-11-09_11h24.21.434,MST_test,2024.2.2,59.988866067228045,2025-11-09 11h24.26.925355 +0530,
112,0,112,n,1.342649900005199,None,112,0,112,0,237.368192000009,,,,,,,,,,,,,,,,,,,,,,,,,,,,,,,,,,,,,,,,,,,,,,,,,,237.35200169999734,237.368192000009,237.88481960000354,237.85172220000823,237.87417280000227,237.88481960000354,237.88481960000354,237.88481960000354,239.23524120000366,Scenes\190a.jpg,mid,n,1.342649900005199,None,,,,,,,,00018,001,2025-11-09_11h24.21.434,MST_test,2024.2.2,59.988866067228045,2025-11-09 11h24.26.925355 +0530,
113,0,113,o,0.6591317999991588,None,113,0,113,0,239.25145379999594,,,,,,,,,,,,,,,,,,,,,,,,,,,,,,,,,,,,,,,,,,,,,,,,,,239.23531709999952,239.25145379999594,239.76832149999973,239.73504030000186,239.7522888000094,239.76832149999973,239.76832149999973,239.76832149999973,240.43529480000143,Scenes\117a.jpg,post,o,0.6591317999991588,None,,,,,,,,00018,001,2025-11-09_11h24.21.434,MST_test,2024.2.2,59.988866067228045,2025-11-09 11h24.26.925355 +0530,
114,0,114,o,0.8056772999989334,None,114,0,114,0,240.45142040000064,,,,,,,,,,,,,,,,,,,,,,,,,,,,,,,,,,,,,,,,,,,,,,,,,,240.43536529999983,240.45142040000064,240.96808659999806,240.9349729999958,240.96077639999567,240.96808659999806,240.96808659999806,240.96808659999806,241.78511700000672,Scenes\149b.jpg,mid,o,0.8056772999989334,None,,,,,,,,00018,001,2025-11-09_11h24.21.434,MST_test,2024.2.2,59.988866067228045,2025-11-09 11h24.26.925355 +0530,
115,0,115,o,0.6271045000030426,None,115,0,115,0,241.80143239999597,,,,,,,,,,,,,,,,,,,,,,,,,,,,,,,,,,,,,,,,,,,,,,,,,,241.78520290000597,241.80143239999597,242.30158970000048,242.28494700000738,242.29600329999812,242.30158970000048,242.30158970000048,242.30158970000048,242.9349976000085,Objects\126a.jpg,post,o,0.6271045000030426,None,,,,,,,,00018,001,2025-11-09_11h24.21.434,MST_test,2024.2.2,59.988866067228045,2025-11-09 11h24.26.925355 +0530,
116,0,116,o,0.5733100999932503,None,116,0,116,0,242.95140530000208,,,,,,,,,,,,,,,,,,,,,,,,,,,,,,,,,,,,,,,,,,,,,,,,,,242.9350800999964,242.95140530000208,243.45141000000876,243.43489920000138,243.4457068000047,243.45141000000876,243.45141000000876,243.45141000000876,244.0350810999953,Objects\071b.jpg,mid,o,0.5733100999932503,None,,,,,,,,00018,001,2025-11-09_11h24.21.434,MST_test,2024.2.2,59.988866067228045,2025-11-09 11h24.26.925355 +0530,
117,0,117,n,2.319543600009638,None,117,0,117,0,244.05139100000088,,,,,,,,,,,,,,,,,,,,,,,,,,,,,,,,,,,,,,,,,,,,,,,,,,244.03516169999784,244.05139100000088,244.6017300000094,244.5348784000089,244.5829786999966,244.6017300000094,244.6017300000094,244.6017300000094,246.93488820000493,Foils\scenes3.jpg,none,n,2.319543600009638,None,,,,,,,,00018,001,2025-11-09_11h24.21.434,MST_test,2024.2.2,59.988866067228045,2025-11-09 11h24.26.925355 +0530,
118,0,118,o,0.710874700002023,None,118,0,118,0,246.95131879999826,,,,,,,,,,,,,,,,,,,,,,,,,,,,,,,,,,,,,,,,,,,,,,,,,,246.93496569999843,246.95131879999826,247.4682160000084,247.43481230000907,247.4569596000074,247.4682160000084,247.4682160000084,247.4682160000084,248.1850157000008,Scenes\067b.jpg,post,o,0.710874700002023,None,,,,,,,,00018,001,2025-11-09_11h24.21.434,MST_test,2024.2.2,59.988866067228045,2025-11-09 11h24.26.925355 +0530,
119,0,119,s,1.4561225999932503,None,119,0,119,0,248.2013270000025,,,,,,,,,,,,,,,,,,,,,,,,,,,,,,,,,,,,,,,,,,,,,,,,,,248.1850994999986,248.2013270000025,248.70124969999597,248.6848355999973,248.69503430000623,248.70124969999597,248.70124969999597,248.70124969999597,250.1681882999983,Foils\081a.jpg,none,s,1.4561225999932503,None,,,,,,,,00018,001,2025-11-09_11h24.21.434,MST_test,2024.2.2,59.988866067228045,2025-11-09 11h24.26.925355 +0530,
120,0,120,s,0.9497249999985797,None,120,0,120,0,250.18458840000676,,,,,,,,,,,,,,,,,,,,,,,,,,,,,,,,,,,,,,,,,,,,,,,,,,250.1682684999978,250.18458840000676,250.70121450000443,250.66811719999532,250.69412480000756,250.70121450000443,250.70121450000443,250.70121450000443,251.65157519999775,Objects\019b.jpg,pre,s,0.9497249999985797,None,,,,,,,,00018,001,2025-11-09_11h24.21.434,MST_test,2024.2.2,59.988866067228045,2025-11-09 11h24.26.925355 +0530,
121,0,121,o,1.2857848999992711,None,121,0,121,0,251.66789160000917,,,,,,,,,,,,,,,,,,,,,,,,,,,,,,,,,,,,,,,,,,,,,,,,,,251.65166270000918,251.66789160000917,252.1678974999959,252.1513666999963,252.16082469999674,252.1678974999959,252.1678974999959,252.1678974999959,253.46811650000745,Objects\135b.jpg,pre,o,1.2857848999992711,None,,,,,,,,00018,001,2025-11-09_11h24.21.434,MST_test,2024.2.2,59.988866067228045,2025-11-09 11h24.26.925355 +0530,
122,0,122,o,0.983623299995088,None,122,0,122,0,253.4845140999969,,,,,,,,,,,,,,,,,,,,,,,,,,,,,,,,,,,,,,,,,,,,,,,,,,253.4681941000017,253.4845140999969,254.0013859000028,253.96808240000973,253.9878430999961,254.0013859000028,254.0013859000028,254.0013859000028,255.00141799999983,Scenes\164a.jpg,mid,o,0.983623299995088,None,,,,,,,,00018,001,2025-11-09_11h24.21.434,MST_test,2024.2.2,59.988866067228045,2025-11-09 11h24.26.925355 +0530,
123,0,123,s,2.1374510000023292,None,123,0,123,0,255.01783880000585,,,,,,,,,,,,,,,,,,,,,,,,,,,,,,,,,,,,,,,,,,,,,,,,,,255.00149789999705,255.01783880000585,255.5511101000011,255.50131310000143,255.53571419999935,255.5511101000011,255.5511101000011,255.5511101000011,257.7014826000086,Scenes\004b.jpg,post,s,2.1374510000023292,None,,,,,,,,00018,001,2025-11-09_11h24.21.434,MST_test,2024.2.2,59.988866067228045,2025-11-09 11h24.26.925355 +0530,
124,0,124,s,0.9191378999967128,None,124,0,124,0,257.7177226000058,,,,,,,,,,,,,,,,,,,,,,,,,,,,,,,,,,,,,,,,,,,,,,,,,,257.7015709999978,257.7177226000058,258.23437400000694,258.20126660000824,258.2292152000009,258.23437400000694,258.23437400000694,258.23437400000694,259.1679858999996,Objects\053b.jpg,pre,s,0.9191378999967128,None,,,,,,,,00018,001,2025-11-09_11h24.21.434,MST_test,2024.2.2,59.988866067228045,2025-11-09 11h24.26.925355 +0530,
125,0,125,o,0.872196399999666,None,125,0,125,0,259.18438970000716,,,,,,,,,,,,,,,,,,,,,,,,,,,,,,,,,,,,,,,,,,,,,,,,,,259.16806660000293,259.18438970000716,259.70122630000697,259.667887100004,259.68472800000745,259.70122630000697,259.70122630000697,259.70122630000697,260.58464889999595,Scenes\186a.jpg,post,o,0.872196399999666,None,,,,,,,,00018,001,2025-11-09_11h24.21.434,MST_test,2024.2.2,59.988866067228045,2025-11-09 11h24.26.925355 +0530,
126,0,126,o,0.6588212999922689,None,126,0,126,0,260.6010379000072,,,,,,,,,,,,,,,,,,,,,,,,,,,,,,,,,,,,,,,,,,,,,,,,,,260.5847252999956,260.6010379000072,261.11765390000073,261.08455450000474,261.1010283000069,261.11765390000073,261.11765390000073,261.11765390000073,261.7846341999975,Scenes\139a.jpg,pre,o,0.6588212999922689,None,,,,,,,,00018,001,2025-11-09_11h24.21.434,MST_test,2024.2.2,59.988866067228045,2025-11-09 11h24.26.925355 +0530,
127,0,127,o,1.150213500004611,None,127,0,127,0,261.8010054000042,,,,,,,,,,,,,,,,,,,,,,,,,,,,,,,,,,,,,,,,,,,,,,,,,,261.7847191000037,261.8010054000042,262.3009613000031,262.2845631999953,262.2941828000039,262.3009613000031,262.3009613000031,262.3009613000031,263.4680096000084,Objects\162a.jpg,mid,o,1.150213500004611,None,,,,,,,,00018,001,2025-11-09_11h24.21.434,MST_test,2024.2.2,59.988866067228045,2025-11-09 11h24.26.925355 +0530,
128,0,128,o,0.6128181999956723,None,128,0,128,0,263.48430150000786,,,,,,,,,,,,,,,,,,,,,,,,,,,,,,,,,,,,,,,,,,,,,,,,,,263.46809370000847,263.48430150000786,264.00120949999837,263.96785960000125,263.9854197000095,264.00120949999837,264.00120949999837,264.00120949999837,264.61788190000516,Scenes\006a.jpg,post,o,0.6128181999956723,None,,,,,,,,00018,001,2025-11-09_11h24.21.434,MST_test,2024.2.2,59.988866067228045,2025-11-09 11h24.26.925355 +0530,
129,0,129,o,0.6006570000026841,None,129,0,129,0,264.6342808000045,,,,,,,,,,,,,,,,,,,,,,,,,,,,,,,,,,,,,,,,,,,,,,,,,,264.6179669999983,264.6342808000045,265.13422980000905,265.11775829999533,265.1277783999976,265.13422980000905,265.13422980000905,265.13422980000905,265.7511924999999,Objects\079a.jpg,pre,o,0.6006570000026841,None,,,,,,,,00018,001,2025-11-09_11h24.21.434,MST_test,2024.2.2,59.988866067228045,2025-11-09 11h24.26.925355 +0530,
130,0,130,o,0.7740326999919489,None,130,0,130,0,265.7675855999987,,,,,,,,,,,,,,,,,,,,,,,,,,,,,,,,,,,,,,,,,,,,,,,,,,265.7512796000083,265.7675855999987,266.26755879999837,266.25112650000665,266.26076699999976,266.26755879999837,266.26755879999837,266.26755879999837,267.05113350000465,Objects\063a.jpg,post,o,0.7740326999919489,None,,,,,,,,00018,001,2025-11-09_11h24.21.434,MST_test,2024.2.2,59.988866067228045,2025-11-09 11h24.26.925355 +0530,
131,0,131,s,1.0435408999910578,None,131,0,131,0,267.06758000000264,,,,,,,,,,,,,,,,,,,,,,,,,,,,,,,,,,,,,,,,,,,,,,,,,,267.05121289999806,267.06758000000264,267.56752840000263,267.5509987999976,267.5605125000002,267.56752840000263,267.56752840000263,267.56752840000263,268.61801010000636,Objects\151a.jpg,mid,s,1.0435408999910578,None,,,,,,,,00018,001,2025-11-09_11h24.21.434,MST_test,2024.2.2,59.988866067228045,2025-11-09 11h24.26.925355 +0530,
132,0,132,s,0.9026229000010062,None,132,0,132,0,268.6341909000039,,,,,,,,,,,,,,,,,,,,,,,,,,,,,,,,,,,,,,,,,,,,,,,,,,268.61809709999943,268.6341909000039,269.1508172000031,269.1177075000014,269.1454648000072,269.1508172000031,269.1508172000031,269.1508172000031,270.06781310000224,Objects\003b.jpg,post,s,0.9026229000010062,None,,,,,,,,00018,001,2025-11-09_11h24.21.434,MST_test,2024.2.2,59.988866067228045,2025-11-09 11h24.26.925355 +0530,
133,0,133,s,0.7529876000044169,None,133,0,133,0,270.08416070000385,,,,,,,,,,,,,,,,,,,,,,,,,,,,,,,,,,,,,,,,,,,,,,,,,,270.06789279999794,270.08416070000385,270.58414230000926,270.5676420999953,270.5772899000003,270.58414230000926,270.58414230000926,270.58414230000926,271.3513135999965,Foils\113a.jpg,none,s,0.7529876000044169,None,,,,,,,,00018,001,2025-11-09_11h24.21.434,MST_test,2024.2.2,59.988866067228045,2025-11-09 11h24.26.925355 +0530,
134,0,134,s,0.8415624000044772,None,134,0,134,0,271.3674245000002,,,,,,,,,,,,,,,,,,,,,,,,,,,,,,,,,,,,,,,,,,,,,,,,,,271.35139280000294,271.3674245000002,271.8674219000095,271.85099810000975,271.8607934000029,271.8674219000095,271.8674219000095,271.8674219000095,272.71775029999844,Foils\010a.jpg,none,s,0.8415624000044772,None,,,,,,,,00018,001,2025-11-09_11h24.21.434,MST_test,2024.2.2,59.988866067228045,2025-11-09 11h24.26.925355 +0530,
135,0,135,o,0.6149508000089554,None,135,0,135,0,272.73411259999557,,,,,,,,,,,,,,,,,,,,,,,,,,,,,,,,,,,,,,,,,,,,,,,,,,272.71783819999837,272.73411259999557,273.26780919999874,273.2175614000007,273.25356690000626,273.26780919999874,273.26780919999874,273.26780919999874,273.88437300000805,Scenes\095b.jpg,mid,o,0.6149508000089554,None,,,,,,,,00018,001,2025-11-09_11h24.21.434,MST_test,2024.2.2,59.988866067228045,2025-11-09 11h24.26.925355 +0530,
136,0,136,o,0.7277600999950664,None,136,0,136,0,273.90073200000916,,,,,,,,,,,,,,,,,,,,,,,,,,,,,,,,,,,,,,,,,,,,,,,,,,273.88446020000265,273.90073200000916,274.40073819999816,274.3842990999983,274.3944385000068,274.40073819999816,274.40073819999816,274.40073819999816,275.13442329999816,Objects\139a.jpg,mid,o,0.7277600999950664,None,,,,,,,,00018,001,2025-11-09_11h24.21.434,MST_test,2024.2.2,59.988866067228045,2025-11-09 11h24.26.925355 +0530,
137,0,137,s,0.8499055999855045,None,137,0,137,0,275.1507136,,,,,,,,,,,,,,,,,,,,,,,,,,,,,,,,,,,,,,,,,,,,,,,,,,275.1345050000091,275.1507136,275.65089750000334,275.63426120000076,275.6394300999964,275.65089750000334,275.65089750000334,275.65089750000334,276.50112600000284,Foils\scenes18.jpg,none,s,0.8499055999855045,None,,,,,,,,00018,001,2025-11-09_11h24.21.434,MST_test,2024.2.2,59.988866067228045,2025-11-09 11h24.26.925355 +0530,
138,0,138,n,1.2854350999987219,None,138,0,138,0,276.51731440000003,,,,,,,,,,,,,,,,,,,,,,,,,,,,,,,,,,,,,,,,,,,,,,,,,,276.5012052000093,276.51731440000003,277.03419649999705,277.0008223000041,277.0212234000064,277.03419649999705,277.03419649999705,277.03419649999705,278.33431550000387,Scenes\058a.jpg,post,n,1.2854350999987219,None,,,,,,,,00018,001,2025-11-09_11h24.21.434,MST_test,2024.2.2,59.988866067228045,2025-11-09 11h24.26.925355 +0530,
139,0,139,o,1.1971517000056338,None,139,0,139,0,278.3506534000044,,,,,,,,,,,,,,,,,,,,,,,,,,,,,,,,,,,,,,,,,,,,,,,,,,278.33440930000506,278.3506534000044,,278.8350233999954,278.87189809999836,278.88397399999667,278.88397399999667,278.88397399999667,280.0842535999982,Scenes\050b.jpg,pre,o,1.1971517000056338,None,,,,,,,,00018,001,2025-11-09_11h24.21.434,MST_test,2024.2.2,59.988866067228045,2025-11-09 11h24.26.925355 +0530,
140,0,140,n,1.1740180000051623,None,140,0,140,0,280.10060689999955,,,,,,,,,,,,,,,,,,,,,,,,,,,,,,,,,,,,,,,,,,,,,,,,,,280.08433810000133,280.10060689999955,280.65056399999594,280.5841497000074,280.64154480000434,280.65056399999594,280.65056399999594,280.65056399999594,281.8343509999977,Scenes\156b.jpg,post,n,1.1740180000051623,None,,,,,,,,00018,001,2025-11-09_11h24.21.434,MST_test,2024.2.2,59.988866067228045,2025-11-09 11h24.26.925355 +0530,
141,0,141,n,2.0708187999989605,None,141,0,141,0,281.8506153000053,,,,,,,,,,,,,,,,,,,,,,,,,,,,,,,,,,,,,,,,,,,,,,,,,,281.83443489999627,281.8506153000053,282.38393170000927,282.33416349999607,282.3730155000085,282.38393170000927,282.38393170000927,282.38393170000927,284.48425720000523,Scenes\068b.jpg,mid,n,2.0708187999989605,None,,,,,,,,00018,001,2025-11-09_11h24.21.434,MST_test,2024.2.2,59.988866067228045,2025-11-09 11h24.26.925355 +0530,
142,0,142,o,2.618445199987036,None,142,0,142,0,284.50051100000564,,,,,,,,,,,,,,,,,,,,,,,,,,,,,,,,,,,,,,,,,,,,,,,,,,284.4843424999999,284.50051100000564,285.03416150000703,284.98395470000105,285.0158100999979,285.03416150000703,285.03416150000703,285.03416150000703,287.66743519999727,Scenes\049b.jpg,pre,o,2.618445199987036,None,,,,,,,,00018,001,2025-11-09_11h24.21.434,MST_test,2024.2.2,59.988866067228045,2025-11-09 11h24.26.925355 +0530,
143,0,143,o,0.9796919000073103,None,143,0,143,0,287.6837441000098,,,,,,,,,,,,,,,,,,,,,,,,,,,,,,,,,,,,,,,,,,,,,,,,,,287.66752260000794,287.6837441000098,288.21737250000297,288.1672952000081,288.2098755000043,288.21737250000297,288.21737250000297,288.21737250000297,289.2006507000042,Scenes\085b.jpg,post,o,0.9796919000073103,None,,,,,,,,00018,001,2025-11-09_11h24.21.434,MST_test,2024.2.2,59.988866067228045,2025-11-09 11h24.26.925355 +0530,
144,0,144,o,1.0631447000050684,None,144,0,144,0,289.21708420000505,,,,,,,,,,,,,,,,,,,,,,,,,,,,,,,,,,,,,,,,,,,,,,,,,,289.2007409000071,289.21708420000505,289.75062120000075,289.70059839999885,289.73067750000337,289.75062120000075,289.75062120000075,289.75062120000075,290.8175029999984,Objects\075b.jpg,pre,o,1.0631447000050684,None,,,,,,,,00018,001,2025-11-09_11h24.21.434,MST_test,2024.2.2,59.988866067228045,2025-11-09 11h24.26.925355 +0530,
145,0,145,s,1.0442065999959596,None,145,0,145,0,290.83371920000354,,,,,,,,,,,,,,,,,,,,,,,,,,,,,,,,,,,,,,,,,,,,,,,,,,290.8175789000088,290.83371920000354,291.35033210000256,291.31722810000065,291.3434791000036,291.35033210000256,291.35033210000256,291.35033210000256,292.4173606999975,Scenes\078b.jpg,post,s,1.0442065999959596,None,,,,,,,,00018,001,2025-11-09_11h24.21.434,MST_test,2024.2.2,59.988866067228045,2025-11-09 11h24.26.925355 +0530,
146,0,146,s,1.3329587999905925,None,146,0,146,0,292.4336814999988,,,,,,,,,,,,,,,,,,,,,,,,,,,,,,,,,,,,,,,,,,,,,,,,,,292.4174411999993,292.4336814999988,292.95035270000517,292.91718990000663,292.9324370999966,292.95035270000517,292.95035270000517,292.95035270000517,294.28406130000076,Foils\050a.jpg,none,s,1.3329587999905925,None,,,,,,,,00018,001,2025-11-09_11h24.21.434,MST_test,2024.2.2,59.988866067228045,2025-11-09 11h24.26.925355 +0530,
147,0,147,s,0.7808036000060383,None,147,0,147,0,294.3002702000085,,,,,,,,,,,,,,,,,,,,,,,,,,,,,,,,,,,,,,,,,,,,,,,,,,294.28414879999764,294.3002702000085,294.80028630000015,294.7838194000069,294.793797300008,294.80028630000015,294.80028630000015,294.80028630000015,295.58411769999657,Objects\050a.jpg,mid,s,0.7808036000060383,None,,,,,,,,00018,001,2025-11-09_11h24.21.434,MST_test,2024.2.2,59.988866067228045,2025-11-09 11h24.26.925355 +0530,
148,0,148,s,1.2096707000018796,None,148,0,148,0,295.6003192000062,,,,,,,,,,,,,,,,,,,,,,,,,,,,,,,,,,,,,,,,,,,,,,,,,,295.5842116999993,295.6003192000062,296.1169013000035,296.08375360000355,296.11037009999563,296.1169013000035,296.1169013000035,296.1169013000035,297.3338383000082,Objects\136b.jpg,mid,s,1.2096707000018796,None,,,,,,,,00018,001,2025-11-09_11h24.21.434,MST_test,2024.2.2,59.988866067228045,2025-11-09 11h24.26.925355 +0530,
149,0,149,o,0.7066003000072669,None,149,0,149,0,297.3502436999988,,,,,,,,,,,,,,,,,,,,,,,,,,,,,,,,,,,,,,,,,,,,,,,,,,297.33392129999993,297.3502436999988,297.86686209999607,297.8337836999999,297.85381020000204,297.86686209999607,297.86686209999607,297.86686209999607,298.58390530000906,Scenes\041a.jpg,mid,o,0.7066003000072669,None,,,,,,,,00018,001,2025-11-09_11h24.21.434,MST_test,2024.2.2,59.988866067228045,2025-11-09 11h24.26.925355 +0530,
,,,,,,,,,,,,,,,,,,,,,,,,,,,,,,,,,,,,,,,,,,,,,,,,,,,,,,,,,,,,,,,,,,,,,,,,,,298.58396440000797,298.6002145000093,298.6002145000093,299.6672396000067,space,1.0584844999975758,None,00018,001,2025-11-09_11h24.21.434,MST_test,2024.2.2,59.988866067228045,2025-11-09 11h24.26.925355 +0530,
