thisN,thisTrialN,thisRepN,key_resp_3.keys,key_resp_3.rt,key_resp_3.duration,trials.thisRepN,trials.thisTrialN,trials.thisN,trials.thisIndex,thisRow.t,notes,intro_page.started,text.started,key_resp.started,intro_page.stopped,key_resp.keys,key_resp.rt,key_resp.duration,instructions.started,text_2.started,key_resp_2.started,instructions.stopped,key_resp_2.keys,key_resp_2.rt,key_resp_2.duration,demo1.started,image_1.started,image_2.started,text_7.started,key_resp_6.started,text_9.started,demo1.stopped,key_resp_6.keys,key_resp_6.rt,key_resp_6.duration,demo2.started,image_5.started,image_6.started,text_11.started,text_12.started,key_resp_8.started,demo2.stopped,key_resp_8.keys,key_resp_8.rt,key_resp_8.duration,demo_conclusion.started,text_13.started,key_resp_9.started,demo_conclusion.stopped,key_resp_9.keys,key_resp_9.rt,key_resp_9.duration,start_test.started,text_6.started,key_resp_5.started,start_test.stopped,key_resp_5.keys,key_resp_5.rt,key_resp_5.duration,ISI.started,text_4.started,text_4.stopped,ISI.stopped,routine_1.started,image.started,text_3.started,key_resp_3.started,routine_1.stopped,image_path,position_of_stimuli,trials.key_resp_3.keys,trials.key_resp_3.rt,trials.key_resp_3.duration,End_page.started,text_5.started,key_resp_4.started,End_page.stopped,key_resp_4.keys,key_resp_4.rt,key_resp_4.duration,participant,session,date,expName,psychopyVersion,frameRate,expStart,
,,,,,,,,,,,,0.010915899999872636,0.027301799999804643,0.027301799999804643,2.478883400000086,space,2.4354389000000083,None,,,,,,,,,,,,,,,,,,,,,,,,,,,,,,,,,,,,,,,,,,,,,,,,,,,,,,,,,,,,,,,00015,001,2025-11-08_12h04.25.183,MST_test,2024.2.2,60.03806413265956,2025-11-08 12h04.32.371611 +0530,
,,,,,,,,,,,,,,,,,,,2.4789135000000897,2.493837699999858,2.493837699999858,14.110540000000128,space,11.610797299999831,None,,,,,,,,,,,,,,,,,,,,,,,,,,,,,,,,,,,,,,,,,,,,,,,,,,,,,,,,00015,001,2025-11-08_12h04.25.183,MST_test,2024.2.2,60.03806413265956,2025-11-08 12h04.32.371611 +0530,
,,,,,,,,,,,,,,,,,,,,,,,,,,14.110562299999856,14.126944600000115,14.126944600000115,14.126944600000115,14.126944600000115,14.126944600000115,19.227209099999982,space,5.087822999999844,None,,,,,,,,,,,,,,,,,,,,,,,,,,,,,,,,,,,,,,,,,,,,,,00015,001,2025-11-08_12h04.25.183,MST_test,2024.2.2,60.03806413265956,2025-11-08 12h04.32.371611 +0530,
,,,,,,,,,,,,,,,,,,,,,,,,,,,,,,,,,,,,19.2272296000001,19.2434674000001,19.2434674000001,19.2434674000001,19.2434674000001,19.2434674000001,22.210536500000217,space,2.9616274999998495,None,,,,,,,,,,,,,,,,,,,,,,,,,,,,,,,,,,,,00015,001,2025-11-08_12h04.25.183,MST_test,2024.2.2,60.03806413265956,2025-11-08 12h04.32.371611 +0530,
,,,,,,,,,,,,,,,,,,,,,,,,,,,,,,,,,,,,,,,,,,,,,,22.210562599999776,22.226794000000154,22.226794000000154,36.52687040000001,space,14.292156599999998,None,,,,,,,,,,,,,,,,,,,,,,,,,,,,,00015,001,2025-11-08_12h04.25.183,MST_test,2024.2.2,60.03806413265956,2025-11-08 12h04.32.371611 +0530,
,,,,,,,,,,,,,,,,,,,,,,,,,,,,,,,,,,,,,,,,,,,,,,,,,,,,,36.52689539999983,36.543096200000036,36.543096200000036,92.9756112,space,56.4179881,None,,,,,,,,,,,,,,,,,,,,,,00015,001,2025-11-08_12h04.25.183,MST_test,2024.2.2,60.03806413265956,2025-11-08 12h04.32.371611 +0530,
0,0,0,s,39.894258100000116,None,0,0,0,0,92.99188080000022,,,,,,,,,,,,,,,,,,,,,,,,,,,,,,,,,,,,,,,,,,,,,,,,,,92.97867880000013,92.99188080000022,93.5085224999998,93.47542699999985,93.50040499999977,93.5085224999998,93.5085224999998,93.5085224999998,133.40821370000003,Foils\scenes9.jpg,none,s,39.894258100000116,None,,,,,,,,00015,001,2025-11-08_12h04.25.183,MST_test,2024.2.2,60.03806413265956,2025-11-08 12h04.32.371611 +0530,
1,0,1,o,6.398373999999876,None,1,0,1,0,133.4244745000001,,,,,,,,,,,,,,,,,,,,,,,,,,,,,,,,,,,,,,,,,,,,,,,,,,133.40831789999993,133.4244745000001,133.9245274,133.90782089999993,133.91370310000002,133.9245274,133.9245274,133.9245274,140.3246220000001,Objects\019a.jpg,post,o,6.398373999999876,None,,,,,,,,00015,001,2025-11-08_12h04.25.183,MST_test,2024.2.2,60.03806413265956,2025-11-08 12h04.32.371611 +0530,
2,0,2,o,3.9272046000000955,None,2,0,2,0,140.34105920000002,,,,,,,,,,,,,,,,,,,,,,,,,,,,,,,,,,,,,,,,,,,,,,,,,,140.3247024000002,140.34105920000002,140.85749739999983,140.82439990000012,140.84142599999996,140.85749739999983,140.85749739999983,140.85749739999983,144.79114960000015,Objects\132b.jpg,pre,o,3.9272046000000955,None,,,,,,,,00015,001,2025-11-08_12h04.25.183,MST_test,2024.2.2,60.03806413265956,2025-11-08 12h04.32.371611 +0530,
3,0,3,s,4.478696299999683,None,3,0,3,0,144.80741350000017,,,,,,,,,,,,,,,,,,,,,,,,,,,,,,,,,,,,,,,,,,,,,,,,,,144.79123059999984,144.80741350000017,145.32409069999994,145.29099020000012,145.30383489999986,145.32409069999994,145.32409069999994,145.32409069999994,149.80763250000018,Foils\074a.jpg,none,s,4.478696299999683,None,,,,,,,,00015,001,2025-11-08_12h04.25.183,MST_test,2024.2.2,60.03806413265956,2025-11-08 12h04.32.371611 +0530,
4,0,4,o,2.937008599999899,None,4,0,4,0,149.82400229999985,,,,,,,,,,,,,,,,,,,,,,,,,,,,,,,,,,,,,,,,,,,,,,,,,,149.8077159999998,149.82400229999985,150.3239896,150.30745220000017,150.30949529999998,150.3239896,150.3239896,150.3239896,153.2741928999999,Objects\107a.jpg,mid,o,2.937008599999899,None,,,,,,,,00015,001,2025-11-08_12h04.25.183,MST_test,2024.2.2,60.03806413265956,2025-11-08 12h04.32.371611 +0530,
5,0,5,n,3.2114951999997174,None,5,0,5,0,153.29059020000022,,,,,,,,,,,,,,,,,,,,,,,,,,,,,,,,,,,,,,,,,,,,,,,,,,153.2742717000001,153.29059020000022,153.80721170000015,153.77418249999982,153.78692030000002,153.80721170000015,153.80721170000015,153.80721170000015,157.02427769999986,Foils\010a.jpg,none,n,3.2114951999997174,None,,,,,,,,00015,001,2025-11-08_12h04.25.183,MST_test,2024.2.2,60.03806413265956,2025-11-08 12h04.32.371611 +0530,
6,0,6,o,11.32226129999981,None,6,0,6,0,157.04051130000016,,,,,,,,,,,,,,,,,,,,,,,,,,,,,,,,,,,,,,,,,,,,,,,,,,157.0243819000002,157.04051130000016,157.5740037999999,157.52395620000016,157.5549989000001,157.5740037999999,157.5740037999999,157.5740037999999,168.90729469999997,Scenes\019b.jpg,mid,o,11.32226129999981,None,,,,,,,,00015,001,2025-11-08_12h04.25.183,MST_test,2024.2.2,60.03806413265956,2025-11-08 12h04.32.371611 +0530,
7,0,7,o,2.42294770000035,None,7,0,7,0,168.9235924999998,,,,,,,,,,,,,,,,,,,,,,,,,,,,,,,,,,,,,,,,,,,,,,,,,,168.9073830000002,168.9235924999998,169.42341339999984,169.40713760000017,169.4174793000002,169.42341339999984,169.42341339999984,169.42341339999984,171.85721160000003,Scenes\107a.jpg,post,o,2.42294770000035,None,,,,,,,,00015,001,2025-11-08_12h04.25.183,MST_test,2024.2.2,60.03806413265956,2025-11-08 12h04.32.371611 +0530,
8,0,8,o,2.0172622999998566,None,8,0,8,0,171.87352550000014,,,,,,,,,,,,,,,,,,,,,,,,,,,,,,,,,,,,,,,,,,,,,,,,,,171.8572954000001,171.87352550000014,172.37352939999982,172.35705959999996,172.36728459999995,172.37352939999982,172.37352939999982,172.37352939999982,174.40721050000002,Objects\109a.jpg,post,o,2.0172622999998566,None,,,,,,,,00015,001,2025-11-08_12h04.25.183,MST_test,2024.2.2,60.03806413265956,2025-11-08 12h04.32.371611 +0530,
9,0,9,o,2.405648100000235,None,9,0,9,0,174.42346180000004,,,,,,,,,,,,,,,,,,,,,,,,,,,,,,,,,,,,,,,,,,,,,,,,,,174.40728369999988,174.42346180000004,174.92342129999997,174.9069853000001,174.91657350000014,174.92342129999997,174.92342129999997,174.92342129999997,177.34050799999977,Objects\169a.jpg,pre,o,2.405648100000235,None,,,,,,,,00015,001,2025-11-08_12h04.25.183,MST_test,2024.2.2,60.03806413265956,2025-11-08 12h04.32.371611 +0530,
10,0,10,o,1.6755098000003272,None,10,0,10,0,177.35671129999992,,,,,,,,,,,,,,,,,,,,,,,,,,,,,,,,,,,,,,,,,,,,,,,,,,177.34058890000006,177.35671129999992,177.85668940000005,177.84031060000007,177.8501980000001,177.85668940000005,177.85668940000005,177.85668940000005,179.5404241000001,Objects\135a.jpg,mid,o,1.6755098000003272,None,,,,,,,,00015,001,2025-11-08_12h04.25.183,MST_test,2024.2.2,60.03806413265956,2025-11-08 12h04.32.371611 +0530,
11,0,11,o,1.6334277999999358,None,11,0,11,0,179.55665880000015,,,,,,,,,,,,,,,,,,,,,,,,,,,,,,,,,,,,,,,,,,,,,,,,,,179.54050430000007,179.55665880000015,180.0733298,180.0402267999998,180.0517407000002,180.0733298,180.0733298,180.0733298,181.70710280000003,Scenes\092a.jpg,pre,o,1.6334277999999358,None,,,,,,,,00015,001,2025-11-08_12h04.25.183,MST_test,2024.2.2,60.03806413265956,2025-11-08 12h04.32.371611 +0530,
12,0,12,s,6.297442000000046,None,12,0,12,0,181.72334640000008,,,,,,,,,,,,,,,,,,,,,,,,,,,,,,,,,,,,,,,,,,,,,,,,,,181.70717890000014,181.72334640000008,182.22325610000007,182.20684230000006,182.2163516999999,182.22325610000007,182.22325610000007,182.22325610000007,188.52358319999985,Objects\161a.jpg,post,s,6.297442000000046,None,,,,,,,,00015,001,2025-11-08_12h04.25.183,MST_test,2024.2.2,60.03806413265956,2025-11-08 12h04.32.371611 +0530,
13,0,13,s,8.84967400000005,None,13,0,13,0,188.53983010000002,,,,,,,,,,,,,,,,,,,,,,,,,,,,,,,,,,,,,,,,,,,,,,,,,,188.5236659000002,188.53983010000002,189.05645159999995,189.02329419999978,189.0505509999998,189.05645159999995,189.05645159999995,189.05645159999995,197.90669960000014,Foils\050a.jpg,none,s,8.84967400000005,None,,,,,,,,00015,001,2025-11-08_12h04.25.183,MST_test,2024.2.2,60.03806413265956,2025-11-08 12h04.32.371611 +0530,
14,0,14,o,2.2317376000000877,None,14,0,14,0,197.92295060000015,,,,,,,,,,,,,,,,,,,,,,,,,,,,,,,,,,,,,,,,,,,,,,,,,,197.90677379999988,197.92295060000015,198.43958269999985,198.40650920000007,198.41888100000006,198.43958269999985,198.43958269999985,198.43958269999985,200.6732935,Scenes\143a.jpg,post,o,2.2317376000000877,None,,,,,,,,00015,001,2025-11-08_12h04.25.183,MST_test,2024.2.2,60.03806413265956,2025-11-08 12h04.32.371611 +0530,
15,0,15,o,2.484892899999977,None,15,0,15,0,200.68953620000002,,,,,,,,,,,,,,,,,,,,,,,,,,,,,,,,,,,,,,,,,,,,,,,,,,200.67337300000008,200.68953620000002,201.18951920000018,201.17311960000006,201.18328539999993,201.18951920000018,201.18951920000018,201.18951920000018,203.68986219999988,Objects\113a.jpg,post,o,2.484892899999977,None,,,,,,,,00015,001,2025-11-08_12h04.25.183,MST_test,2024.2.2,60.03806413265956,2025-11-08 12h04.32.371611 +0530,
16,0,16,s,2.1730924999997114,None,16,0,16,0,203.7061617999998,,,,,,,,,,,,,,,,,,,,,,,,,,,,,,,,,,,,,,,,,,,,,,,,,,203.6899497999998,203.7061617999998,204.33966469999996,204.1896839000001,204.3185622000001,204.33966469999996,204.33966469999996,204.33966469999996,206.52300479999985,Scenes\192b.jpg,post,s,2.1730924999997114,None,,,,,,,,00015,001,2025-11-08_12h04.25.183,MST_test,2024.2.2,60.03806413265956,2025-11-08 12h04.32.371611 +0530,
17,0,17,n,3.0753239999999096,None,17,0,17,0,206.53943119999985,,,,,,,,,,,,,,,,,,,,,,,,,,,,,,,,,,,,,,,,,,,,,,,,,,206.52307870000004,206.53943119999985,207.07295310000018,207.02290700000003,207.0517504999998,207.07295310000018,207.07295310000018,207.07295310000018,210.15638630000012,Scenes\169b.jpg,pre,n,3.0753239999999096,None,,,,,,,,00015,001,2025-11-08_12h04.25.183,MST_test,2024.2.2,60.03806413265956,2025-11-08 12h04.32.371611 +0530,
18,0,18,s,1.8026826999998775,None,18,0,18,0,210.17268969999986,,,,,,,,,,,,,,,,,,,,,,,,,,,,,,,,,,,,,,,,,,,,,,,,,,210.15646419999985,210.17268969999986,210.68953469999997,210.65617190000012,210.68331309999985,210.68953469999997,210.68953469999997,210.68953469999997,212.50621629999978,Objects\055b.jpg,mid,s,1.8026826999998775,None,,,,,,,,00015,001,2025-11-08_12h04.25.183,MST_test,2024.2.2,60.03806413265956,2025-11-08 12h04.32.371611 +0530,
19,0,19,o,1.8872466000002532,None,19,0,19,0,212.5226376999999,,,,,,,,,,,,,,,,,,,,,,,,,,,,,,,,,,,,,,,,,,,,,,,,,,212.50630739999997,212.5226376999999,213.0392655999999,213.00608770000008,213.0259234,213.0392655999999,213.0392655999999,213.0392655999999,214.9396388,Objects\036b.jpg,mid,o,1.8872466000002532,None,,,,,,,,00015,001,2025-11-08_12h04.25.183,MST_test,2024.2.2,60.03806413265956,2025-11-08 12h04.32.371611 +0530,
20,0,20,o,5.6195778999999675,None,20,0,20,0,214.9559220000001,,,,,,,,,,,,,,,,,,,,,,,,,,,,,,,,,,,,,,,,,,,,,,,,,,214.93972600000006,214.9559220000001,215.4727198999999,215.43950379999978,215.4665441000002,215.4727198999999,215.4727198999999,215.4727198999999,221.10605290000012,Scenes\061b.jpg,post,o,5.6195778999999675,None,,,,,,,,00015,001,2025-11-08_12h04.25.183,MST_test,2024.2.2,60.03806413265956,2025-11-08 12h04.32.371611 +0530,
21,0,21,o,5.636353500000041,None,21,0,21,0,221.12245070000017,,,,,,,,,,,,,,,,,,,,,,,,,,,,,,,,,,,,,,,,,,,,,,,,,,221.10612630000014,221.12245070000017,221.6557729000001,221.6059221999999,221.63624290000007,221.6557729000001,221.6557729000001,221.6557729000001,227.30593409999983,Objects\018b.jpg,pre,o,5.636353500000041,None,,,,,,,,00015,001,2025-11-08_12h04.25.183,MST_test,2024.2.2,60.03806413265956,2025-11-08 12h04.32.371611 +0530,
22,0,22,o,2.779906900000242,None,22,0,22,0,227.32228459999988,,,,,,,,,,,,,,,,,,,,,,,,,,,,,,,,,,,,,,,,,,,,,,,,,,227.3060129999999,227.32228459999988,227.82248339999978,227.80580379999992,227.81591130000015,227.82248339999978,227.82248339999978,227.82248339999978,230.6059325000001,Scenes\069a.jpg,pre,o,2.779906900000242,None,,,,,,,,00015,001,2025-11-08_12h04.25.183,MST_test,2024.2.2,60.03806413265956,2025-11-08 12h04.32.371611 +0530,
23,0,23,o,0.9919403999997485,None,23,0,23,0,230.62224130000004,,,,,,,,,,,,,,,,,,,,,,,,,,,,,,,,,,,,,,,,,,,,,,,,,,230.60601619999989,230.62224130000004,231.13887139999997,231.10580720000007,231.1300884000002,231.13887139999997,231.13887139999997,231.13887139999997,232.13924159999988,Objects\100b.jpg,post,o,0.9919403999997485,None,,,,,,,,00015,001,2025-11-08_12h04.25.183,MST_test,2024.2.2,60.03806413265956,2025-11-08 12h04.32.371611 +0530,
24,0,24,s,2.97717590000002,None,24,0,24,0,232.15554680000014,,,,,,,,,,,,,,,,,,,,,,,,,,,,,,,,,,,,,,,,,,,,,,,,,,232.13931300000013,232.15554680000014,232.6891114,232.63902139999982,232.66973749999988,232.6891114,232.6891114,232.6891114,235.67241980000017,Scenes\018b.jpg,pre,s,2.97717590000002,None,,,,,,,,00015,001,2025-11-08_12h04.25.183,MST_test,2024.2.2,60.03806413265956,2025-11-08 12h04.32.371611 +0530,
25,0,25,o,1.4807780000001003,None,25,0,25,0,235.6888017000001,,,,,,,,,,,,,,,,,,,,,,,,,,,,,,,,,,,,,,,,,,,,,,,,,,235.6724948000001,235.6888017000001,236.18881139999985,236.17226960000016,236.1824784999999,236.18881139999985,236.18881139999985,236.18881139999985,237.67250299999978,Objects\150a.jpg,mid,o,1.4807780000001003,None,,,,,,,,00015,001,2025-11-08_12h04.25.183,MST_test,2024.2.2,60.03806413265956,2025-11-08 12h04.32.371611 +0530,
26,0,26,s,1.7686985999998797,None,26,0,26,0,237.6887569999999,,,,,,,,,,,,,,,,,,,,,,,,,,,,,,,,,,,,,,,,,,,,,,,,,,237.67258149999998,237.6887569999999,238.22209639999983,238.17231519999996,238.20378680000022,238.22209639999983,238.22209639999983,238.22209639999983,240.00577569999996,Objects\093b.jpg,pre,s,1.7686985999998797,None,,,,,,,,00015,001,2025-11-08_12h04.25.183,MST_test,2024.2.2,60.03806413265956,2025-11-08 12h04.32.371611 +0530,
27,0,27,s,1.5235725000002276,None,27,0,27,0,240.0220650000001,,,,,,,,,,,,,,,,,,,,,,,,,,,,,,,,,,,,,,,,,,,,,,,,,,240.0058610000001,240.0220650000001,240.53866310000012,240.50561789999983,240.5333725999999,240.53866310000012,240.53866310000012,240.53866310000012,242.0724568999999,Objects\157b.jpg,pre,s,1.5235725000002276,None,,,,,,,,00015,001,2025-11-08_12h04.25.183,MST_test,2024.2.2,60.03806413265956,2025-11-08 12h04.32.371611 +0530,
28,0,28,o,1.8892469999996138,None,28,0,28,0,242.08865860000014,,,,,,,,,,,,,,,,,,,,,,,,,,,,,,,,,,,,,,,,,,,,,,,,,,242.07254650000004,242.08865860000014,242.60559520000015,242.57217149999997,242.58496490000016,242.60559520000015,242.60559520000015,242.60559520000015,244.5055440000001,Scenes\083a.jpg,pre,o,1.8892469999996138,None,,,,,,,,00015,001,2025-11-08_12h04.25.183,MST_test,2024.2.2,60.03806413265956,2025-11-08 12h04.32.371611 +0530,
29,0,29,n,1.9770950000001903,None,29,0,29,0,244.52197190000015,,,,,,,,,,,,,,,,,,,,,,,,,,,,,,,,,,,,,,,,,,,,,,,,,,244.5056171000001,244.52197190000015,245.0555674000002,245.0055551999999,245.03504780000003,245.0555674000002,245.0555674000002,245.0555674000002,247.03877749999992,Foils\scenes4.jpg,none,n,1.9770950000001903,None,,,,,,,,00015,001,2025-11-08_12h04.25.183,MST_test,2024.2.2,60.03806413265956,2025-11-08 12h04.32.371611 +0530,
30,0,30,s,2.610597299999881,None,30,0,30,0,247.0551985000002,,,,,,,,,,,,,,,,,,,,,,,,,,,,,,,,,,,,,,,,,,,,,,,,,,247.03885390000005,247.0551985000002,247.5718453999998,247.5386883000001,247.5558649999998,247.5718453999998,247.5718453999998,247.5718453999998,250.18877190000012,Foils\scenes8.jpg,none,s,2.610597299999881,None,,,,,,,,00015,001,2025-11-08_12h04.25.183,MST_test,2024.2.2,60.03806413265956,2025-11-08 12h04.32.371611 +0530,
31,0,31,o,1.9914597000001777,None,31,0,31,0,250.20515419999992,,,,,,,,,,,,,,,,,,,,,,,,,,,,,,,,,,,,,,,,,,,,,,,,,,250.18884930000013,250.20515419999992,250.7053777000001,250.68866340000022,250.6985020000002,250.7053777000001,250.7053777000001,250.7053777000001,252.70549019999999,Objects\190a.jpg,pre,o,1.9914597000001777,None,,,,,,,,00015,001,2025-11-08_12h04.25.183,MST_test,2024.2.2,60.03806413265956,2025-11-08 12h04.32.371611 +0530,
32,0,32,o,1.5666741000000002,None,32,0,32,0,252.7217673,,,,,,,,,,,,,,,,,,,,,,,,,,,,,,,,,,,,,,,,,,,,,,,,,,252.70557719999988,252.7217673,253.22172910000018,253.20529579999993,253.21559680000018,253.22172910000018,253.22172910000018,253.22172910000018,254.7888667000002,Objects\173a.jpg,post,o,1.5666741000000002,None,,,,,,,,00015,001,2025-11-08_12h04.25.183,MST_test,2024.2.2,60.03806413265956,2025-11-08 12h04.32.371611 +0530,
33,0,33,s,1.6814859999999499,None,33,0,33,0,254.80509200000006,,,,,,,,,,,,,,,,,,,,,,,,,,,,,,,,,,,,,,,,,,,,,,,,,,254.7889464,254.80509200000006,255.30503689999978,255.2885322000002,255.29791280000018,255.30503689999978,255.30503689999978,255.30503689999978,256.98861350000016,Objects\073a.jpg,pre,s,1.6814859999999499,None,,,,,,,,00015,001,2025-11-08_12h04.25.183,MST_test,2024.2.2,60.03806413265956,2025-11-08 12h04.32.371611 +0530,
34,0,34,o,2.300464400000237,None,34,0,34,0,257.00500710000006,,,,,,,,,,,,,,,,,,,,,,,,,,,,,,,,,,,,,,,,,,,,,,,,,,256.9886972999998,257.00500710000006,257.5216598000002,257.4885460999999,257.5017455000002,257.5216598000002,257.5216598000002,257.5216598000002,259.8385678999998,Scenes\035a.jpg,post,o,2.300464400000237,None,,,,,,,,00015,001,2025-11-08_12h04.25.183,MST_test,2024.2.2,60.03806413265956,2025-11-08 12h04.32.371611 +0530,
35,0,35,n,1.6477242000000842,None,35,0,35,0,259.85495290000017,,,,,,,,,,,,,,,,,,,,,,,,,,,,,,,,,,,,,,,,,,,,,,,,,,259.83865220000007,259.85495290000017,260.4384998999999,260.33842920000006,260.4175220000002,260.4384998999999,260.4384998999999,260.4384998999999,262.0885318999999,Foils\scenes15.jpg,none,n,1.6477242000000842,None,,,,,,,,00015,001,2025-11-08_12h04.25.183,MST_test,2024.2.2,60.03806413265956,2025-11-08 12h04.32.371611 +0530,
36,0,36,n,1.2149813999999424,None,36,0,36,0,262.1048943999999,,,,,,,,,,,,,,,,,,,,,,,,,,,,,,,,,,,,,,,,,,,,,,,,,,262.0886187000001,262.1048943999999,262.6218334,262.5883752,262.61611660000017,262.6218334,262.6218334,262.6218334,263.83855570000014,Foils\113a.jpg,none,n,1.2149813999999424,None,,,,,,,,00015,001,2025-11-08_12h04.25.183,MST_test,2024.2.2,60.03806413265956,2025-11-08 12h04.32.371611 +0530,
37,0,37,n,1.5489047999999457,None,37,0,37,0,263.85485629999994,,,,,,,,,,,,,,,,,,,,,,,,,,,,,,,,,,,,,,,,,,,,,,,,,,263.83863169999995,263.85485629999994,264.3714831000002,264.3384092000001,264.3618803999998,264.3714831000002,264.3714831000002,264.3714831000002,265.92187220000005,Foils\093b.jpg,none,n,1.5489047999999457,None,,,,,,,,00015,001,2025-11-08_12h04.25.183,MST_test,2024.2.2,60.03806413265956,2025-11-08 12h04.32.371611 +0530,
38,0,38,n,1.616478299999926,None,38,0,38,0,265.9381487999999,,,,,,,,,,,,,,,,,,,,,,,,,,,,,,,,,,,,,,,,,,,,,,,,,,265.9219503999998,265.9381487999999,266.4717593999999,266.4216230000002,266.46173009999984,266.4717593999999,266.4717593999999,266.4717593999999,268.08854969999993,Foils\scenes27.jpg,none,n,1.616478299999926,None,,,,,,,,00015,001,2025-11-08_12h04.25.183,MST_test,2024.2.2,60.03806413265956,2025-11-08 12h04.32.371611 +0530,
39,0,39,n,4.030524599999808,None,39,0,39,0,268.10476629999994,,,,,,,,,,,,,,,,,,,,,,,,,,,,,,,,,,,,,,,,,,,,,,,,,,268.0886237999998,268.10476629999994,268.63840200000004,268.5882572999999,268.61967689999983,268.63840200000004,268.63840200000004,268.63840200000004,272.67173349999985,Scenes\123b.jpg,pre,n,4.030524599999808,None,,,,,,,,00015,001,2025-11-08_12h04.25.183,MST_test,2024.2.2,60.03806413265956,2025-11-08 12h04.32.371611 +0530,
40,0,40,o,1.6281945000000633,None,40,0,40,0,272.6879955999998,,,,,,,,,,,,,,,,,,,,,,,,,,,,,,,,,,,,,,,,,,,,,,,,,,272.6718136999998,272.6879955999998,273.2048807000001,273.1715892000002,273.1999937999999,273.2048807000001,273.2048807000001,273.2048807000001,274.8383838,Objects\051b.jpg,mid,o,1.6281945000000633,None,,,,,,,,00015,001,2025-11-08_12h04.25.183,MST_test,2024.2.2,60.03806413265956,2025-11-08 12h04.32.371611 +0530,
41,0,41,n,1.60383180000008,None,41,0,41,0,274.8546164999998,,,,,,,,,,,,,,,,,,,,,,,,,,,,,,,,,,,,,,,,,,,,,,,,,,274.83846029999995,274.8546164999998,275.4048606000001,275.33820289999994,275.3953368000002,275.4048606000001,275.4048606000001,275.4048606000001,277.02160700000013,Foils\scenes28.jpg,none,n,1.60383180000008,None,,,,,,,,00015,001,2025-11-08_12h04.25.183,MST_test,2024.2.2,60.03806413265956,2025-11-08 12h04.32.371611 +0530,
42,0,42,s,3.672738300000219,None,42,0,42,0,277.0379082999998,,,,,,,,,,,,,,,,,,,,,,,,,,,,,,,,,,,,,,,,,,,,,,,,,,277.0216878000001,277.0379082999998,277.5714886999999,277.52136770000016,277.5635699999998,277.5714886999999,277.5714886999999,277.5714886999999,281.2548332000001,Scenes\121b.jpg,mid,s,3.672738300000219,None,,,,,,,,00015,001,2025-11-08_12h04.25.183,MST_test,2024.2.2,60.03806413265956,2025-11-08 12h04.32.371611 +0530,
43,0,43,n,1.6902513999998519,None,43,0,43,0,281.2711402,,,,,,,,,,,,,,,,,,,,,,,,,,,,,,,,,,,,,,,,,,,,,,,,,,281.2549161000002,281.2711402,281.78801599999997,281.7547795999999,281.7779882,281.78801599999997,281.78801599999997,281.78801599999997,283.4881335,Foils\scenes13.jpg,none,n,1.6902513999998519,None,,,,,,,,00015,001,2025-11-08_12h04.25.183,MST_test,2024.2.2,60.03806413265956,2025-11-08 12h04.32.371611 +0530,
44,0,44,o,10.952073800000107,None,44,0,44,0,283.5044275999999,,,,,,,,,,,,,,,,,,,,,,,,,,,,,,,,,,,,,,,,,,,,,,,,,,283.48821309999994,283.5044275999999,284.0210511,283.9879547999999,284.00490899999977,284.0210511,284.0210511,284.0210511,294.98789579999993,Scenes\126a.jpg,pre,o,10.952073800000107,None,,,,,,,,00015,001,2025-11-08_12h04.25.183,MST_test,2024.2.2,60.03806413265956,2025-11-08 12h04.32.371611 +0530,
45,0,45,s,2.802909400000317,None,45,0,45,0,295.00418549999995,,,,,,,,,,,,,,,,,,,,,,,,,,,,,,,,,,,,,,,,,,,,,,,,,,294.9879747,295.00418549999995,295.52101189999985,295.487697,295.50696340000013,295.52101189999985,295.52101189999985,295.52101189999985,298.3376760000001,Scenes\117a.jpg,pre,s,2.802909400000317,None,,,,,,,,00015,001,2025-11-08_12h04.25.183,MST_test,2024.2.2,60.03806413265956,2025-11-08 12h04.32.371611 +0530,
46,0,46,s,2.9355247000003146,None,46,0,46,0,298.3541193000001,,,,,,,,,,,,,,,,,,,,,,,,,,,,,,,,,,,,,,,,,,,,,,,,,,298.3377607000002,298.3541193000001,298.8711019000002,298.8376825,298.8648969999999,298.8711019000002,298.8711019000002,298.8711019000002,301.8209754999998,Scenes\045a.jpg,pre,s,2.9355247000003146,None,,,,,,,,00015,001,2025-11-08_12h04.25.183,MST_test,2024.2.2,60.03806413265956,2025-11-08 12h04.32.371611 +0530,
47,0,47,o,1.2916917000002286,None,47,0,47,0,301.83737340000016,,,,,,,,,,,,,,,,,,,,,,,,,,,,,,,,,,,,,,,,,,,,,,,,,,301.8210574999998,301.83737340000016,302.37084300000015,302.3208467999998,302.3586027000001,302.37084300000015,302.37084300000015,302.37084300000015,303.6709166999999,Scenes\007b.jpg,post,o,1.2916917000002286,None,,,,,,,,00015,001,2025-11-08_12h04.25.183,MST_test,2024.2.2,60.03806413265956,2025-11-08 12h04.32.371611 +0530,
48,0,48,o,1.2109027000001333,None,48,0,48,0,303.6873220000002,,,,,,,,,,,,,,,,,,,,,,,,,,,,,,,,,,,,,,,,,,,,,,,,,,303.6709962,303.6873220000002,304.20396100000016,304.17082100000016,304.18840450000016,304.20396100000016,304.20396100000016,304.20396100000016,305.4209218000001,Scenes\067a.jpg,pre,o,1.2109027000001333,None,,,,,,,,00015,001,2025-11-08_12h04.25.183,MST_test,2024.2.2,60.03806413265956,2025-11-08 12h04.32.371611 +0530,
49,0,49,s,1.770862599999873,None,49,0,49,0,305.4372896,,,,,,,,,,,,,,,,,,,,,,,,,,,,,,,,,,,,,,,,,,,,,,,,,,305.42100489999984,305.4372896,305.9374332000002,305.9207593000001,305.93100330000016,305.9374332000002,305.9374332000002,305.9374332000002,307.7210255,Objects\038a.jpg,post,s,1.770862599999873,None,,,,,,,,00015,001,2025-11-08_12h04.25.183,MST_test,2024.2.2,60.03806413265956,2025-11-08 12h04.32.371611 +0530,
50,0,50,o,1.6483788000000459,None,50,0,50,0,307.73722739999994,,,,,,,,,,,,,,,,,,,,,,,,,,,,,,,,,,,,,,,,,,,,,,,,,,307.72109880000016,307.73722739999994,308.27052809999986,308.2209724999998,308.2505921000002,308.27052809999986,308.27052809999986,308.27052809999986,309.9209350000001,Objects\182b.jpg,post,o,1.6483788000000459,None,,,,,,,,00015,001,2025-11-08_12h04.25.183,MST_test,2024.2.2,60.03806413265956,2025-11-08 12h04.32.371611 +0530,
51,0,51,o,1.4439891000001808,None,51,0,51,0,309.93718910000007,,,,,,,,,,,,,,,,,,,,,,,,,,,,,,,,,,,,,,,,,,,,,,,,,,309.92103,309.93718910000007,310.4538139000001,310.4206657,310.44871220000005,310.4538139000001,310.4538139000001,310.4538139000001,311.90407700000014,Objects\085b.jpg,pre,o,1.4439891000001808,None,,,,,,,,00015,001,2025-11-08_12h04.25.183,MST_test,2024.2.2,60.03806413265956,2025-11-08 12h04.32.371611 +0530,
52,0,52,o,0.9810385000000679,None,52,0,52,0,311.9204807000001,,,,,,,,,,,,,,,,,,,,,,,,,,,,,,,,,,,,,,,,,,,,,,,,,,311.9041557999999,311.9204807000001,312.43741480000017,312.40406329999996,312.4241207,312.43741480000017,312.43741480000017,312.43741480000017,313.42078760000004,Scenes\078a.jpg,pre,o,0.9810385000000679,None,,,,,,,,00015,001,2025-11-08_12h04.25.183,MST_test,2024.2.2,60.03806413265956,2025-11-08 12h04.32.371611 +0530,
53,0,53,n,1.861174800000299,None,53,0,53,0,313.43711440000016,,,,,,,,,,,,,,,,,,,,,,,,,,,,,,,,,,,,,,,,,,,,,,,,,,313.42086340000014,313.43711440000016,313.9537645999999,313.92059100000006,313.9397834000001,313.9537645999999,313.9537645999999,313.9537645999999,315.8208303000001,Foils\073a.jpg,none,n,1.861174800000299,None,,,,,,,,00015,001,2025-11-08_12h04.25.183,MST_test,2024.2.2,60.03806413265956,2025-11-08 12h04.32.371611 +0530,
54,0,54,o,1.311063500000273,None,54,0,54,0,315.8370623999999,,,,,,,,,,,,,,,,,,,,,,,,,,,,,,,,,,,,,,,,,,,,,,,,,,315.8209074000001,315.8370623999999,316.3537191999999,316.3205303,316.3403155000001,316.3537191999999,316.3537191999999,316.3537191999999,317.6707072999998,Scenes\184a.jpg,mid,o,1.311063500000273,None,,,,,,,,00015,001,2025-11-08_12h04.25.183,MST_test,2024.2.2,60.03806413265956,2025-11-08 12h04.32.371611 +0530,
55,0,55,s,1.8005560999999943,None,55,0,55,0,317.68716700000004,,,,,,,,,,,,,,,,,,,,,,,,,,,,,,,,,,,,,,,,,,,,,,,,,,317.6707805000001,317.68716700000004,318.22034859999985,318.1704863,318.20658820000017,318.22034859999985,318.22034859999985,318.22034859999985,320.03722340000013,Scenes\043b.jpg,post,s,1.8005560999999943,None,,,,,,,,00015,001,2025-11-08_12h04.25.183,MST_test,2024.2.2,60.03806413265956,2025-11-08 12h04.32.371611 +0530,
56,0,56,o,1.4738680999998905,None,56,0,56,0,320.0536333,,,,,,,,,,,,,,,,,,,,,,,,,,,,,,,,,,,,,,,,,,,,,,,,,,320.0373006,320.0536333,320.5702913,320.5371003,320.5587300000002,320.5702913,320.5702913,320.5702913,322.0538953,Scenes\004a.jpg,post,o,1.4738680999998905,None,,,,,,,,00015,001,2025-11-08_12h04.25.183,MST_test,2024.2.2,60.03806413265956,2025-11-08 12h04.32.371611 +0530,
57,0,57,n,1.0053223999998409,None,57,0,57,0,322.0703060999999,,,,,,,,,,,,,,,,,,,,,,,,,,,,,,,,,,,,,,,,,,,,,,,,,,322.0539807,322.0703060999999,322.60354719999987,322.55373740000005,322.5855959999999,322.60354719999987,322.60354719999987,322.60354719999987,323.6204899999998,Foils\026a.jpg,none,n,1.0053223999998409,None,,,,,,,,00015,001,2025-11-08_12h04.25.183,MST_test,2024.2.2,60.03806413265956,2025-11-08 12h04.32.371611 +0530,
58,0,58,s,1.3919809999997597,None,58,0,58,0,323.63689669999985,,,,,,,,,,,,,,,,,,,,,,,,,,,,,,,,,,,,,,,,,,,,,,,,,,323.6205662000002,323.63689669999985,324.1701785,324.1204794,324.15109200000006,324.1701785,324.1701785,324.1701785,325.5704489,Objects\139b.jpg,post,s,1.3919809999997597,None,,,,,,,,00015,001,2025-11-08_12h04.25.183,MST_test,2024.2.2,60.03806413265956,2025-11-08 12h04.32.371611 +0530,
59,0,59,n,0.8500167000001966,None,59,0,59,0,325.586816,,,,,,,,,,,,,,,,,,,,,,,,,,,,,,,,,,,,,,,,,,,,,,,,,,325.57052049999993,325.586816,326.12013290000004,326.0704403999998,326.1005753999998,326.12013290000004,326.12013290000004,326.12013290000004,326.9705428000002,Objects\028b.jpg,pre,n,0.8500167000001966,None,,,,,,,,00015,001,2025-11-08_12h04.25.183,MST_test,2024.2.2,60.03806413265956,2025-11-08 12h04.32.371611 +0530,
60,0,60,n,1.04427110000006,None,60,0,60,0,326.9867895000002,,,,,,,,,,,,,,,,,,,,,,,,,,,,,,,,,,,,,,,,,,,,,,,,,,326.9706253999998,326.9867895000002,327.5203885000001,327.47034170000006,327.5017173000001,327.5203885000001,327.5203885000001,327.5203885000001,328.570373,Scenes\188b.jpg,mid,n,1.04427110000006,None,,,,,,,,00015,001,2025-11-08_12h04.25.183,MST_test,2024.2.2,60.03806413265956,2025-11-08 12h04.32.371611 +0530,
61,0,61,o,1.245450400000209,None,61,0,61,0,328.5867536999999,,,,,,,,,,,,,,,,,,,,,,,,,,,,,,,,,,,,,,,,,,,,,,,,,,328.5704467999999,328.5867536999999,329.1036310999998,329.07025350000004,329.09043699999984,329.1036310999998,329.1036310999998,329.1036310999998,330.3537102,Scenes\013a.jpg,pre,o,1.245450400000209,None,,,,,,,,00015,001,2025-11-08_12h04.25.183,MST_test,2024.2.2,60.03806413265956,2025-11-08 12h04.32.371611 +0530,
62,0,62,n,1.0737148999996862,None,62,0,62,0,330.3700726000002,,,,,,,,,,,,,,,,,,,,,,,,,,,,,,,,,,,,,,,,,,,,,,,,,,330.3537889999998,330.3700726000002,330.9036470000001,330.8536817999998,330.8862316999998,330.9036470000001,330.9036470000001,330.9036470000001,331.98697330000005,Foils\066a.jpg,none,n,1.0737148999996862,None,,,,,,,,00015,001,2025-11-08_12h04.25.183,MST_test,2024.2.2,60.03806413265956,2025-11-08 12h04.32.371611 +0530,
63,0,63,s,1.3154286999997566,None,63,0,63,0,332.0033833000002,,,,,,,,,,,,,,,,,,,,,,,,,,,,,,,,,,,,,,,,,,,,,,,,,,331.9870612999998,332.0033833000002,332.5367550000001,332.4868283999999,332.5227709999999,332.5367550000001,332.5367550000001,332.5367550000001,333.85384269999986,Scenes\109b.jpg,pre,s,1.3154286999997566,None,,,,,,,,00015,001,2025-11-08_12h04.25.183,MST_test,2024.2.2,60.03806413265956,2025-11-08 12h04.32.371611 +0530,
64,0,64,o,1.7387369999996736,None,64,0,64,0,333.8700647999999,,,,,,,,,,,,,,,,,,,,,,,,,,,,,,,,,,,,,,,,,,,,,,,,,,333.8539274999998,333.8700647999999,334.3863892999998,334.3536003999998,334.38275780000004,334.3863892999998,334.3863892999998,334.3863892999998,336.1369304,Scenes\015a.jpg,mid,o,1.7387369999996736,None,,,,,,,,00015,001,2025-11-08_12h04.25.183,MST_test,2024.2.2,60.03806413265956,2025-11-08 12h04.32.371611 +0530,
65,0,65,s,3.0304258999999547,None,65,0,65,0,336.15328409999984,,,,,,,,,,,,,,,,,,,,,,,,,,,,,,,,,,,,,,,,,,,,,,,,,,336.13700430000017,336.15328409999984,336.66990859999987,336.63674889999993,336.65896410000005,336.66990859999987,336.66990859999987,336.66990859999987,339.7035082000002,Scenes\128a.jpg,mid,s,3.0304258999999547,None,,,,,,,,00015,001,2025-11-08_12h04.25.183,MST_test,2024.2.2,60.03806413265956,2025-11-08 12h04.32.371611 +0530,
66,0,66,o,1.0669413000000532,None,66,0,66,0,339.7198738000002,,,,,,,,,,,,,,,,,,,,,,,,,,,,,,,,,,,,,,,,,,,,,,,,,,339.7035836,339.7198738000002,340.22008030000006,340.2034136000002,340.2132138000002,340.22008030000006,340.22008030000006,340.22008030000006,341.3034275,Objects\068a.jpg,post,o,1.0669413000000532,None,,,,,,,,00015,001,2025-11-08_12h04.25.183,MST_test,2024.2.2,60.03806413265956,2025-11-08 12h04.32.371611 +0530,
67,0,67,n,0.9861794999997073,None,67,0,67,0,341.31983690000015,,,,,,,,,,,,,,,,,,,,,,,,,,,,,,,,,,,,,,,,,,,,,,,,,,341.3034997,341.31983690000015,341.83680000000004,341.8034501000002,341.8198980000002,341.83680000000004,341.83680000000004,341.83680000000004,342.83671189999995,Foils\scenes5.jpg,none,n,0.9861794999997073,None,,,,,,,,00015,001,2025-11-08_12h04.25.183,MST_test,2024.2.2,60.03806413265956,2025-11-08 12h04.32.371611 +0530,
68,0,68,o,1.1581378999999288,None,68,0,68,0,342.85314500000004,,,,,,,,,,,,,,,,,,,,,,,,,,,,,,,,,,,,,,,,,,,,,,,,,,342.83678180000015,342.85314500000004,343.38646659999995,343.33670429999984,343.3462918,343.38646659999995,343.38646659999995,343.38646659999995,344.55346959999997,Objects\146a.jpg,mid,o,1.1581378999999288,None,,,,,,,,00015,001,2025-11-08_12h04.25.183,MST_test,2024.2.2,60.03806413265956,2025-11-08 12h04.32.371611 +0530,
69,0,69,s,1.3748719999998684,None,69,0,69,0,344.5697779000002,,,,,,,,,,,,,,,,,,,,,,,,,,,,,,,,,,,,,,,,,,,,,,,,,,344.55354780000016,344.5697779000002,345.08639660000017,345.05324310000015,345.0733822000002,345.08639660000017,345.08639660000017,345.08639660000017,346.4699648999999,Objects\118b.jpg,post,s,1.3748719999998684,None,,,,,,,,00015,001,2025-11-08_12h04.25.183,MST_test,2024.2.2,60.03806413265956,2025-11-08 12h04.32.371611 +0530,
70,0,70,o,1.6952697000001535,None,70,0,70,0,346.4863934,,,,,,,,,,,,,,,,,,,,,,,,,,,,,,,,,,,,,,,,,,,,,,,,,,346.4700412000002,346.4863934,347.00333249999994,346.9698622000001,346.99127309999994,347.00333249999994,347.00333249999994,347.00333249999994,348.70346419999987,Scenes\189a.jpg,post,o,1.6952697000001535,None,,,,,,,,00015,001,2025-11-08_12h04.25.183,MST_test,2024.2.2,60.03806413265956,2025-11-08 12h04.32.371611 +0530,
71,0,71,s,1.2501315999998042,None,71,0,71,0,348.71964320000006,,,,,,,,,,,,,,,,,,,,,,,,,,,,,,,,,,,,,,,,,,,,,,,,,,348.7035504999999,348.71964320000006,349.2530066999998,349.2031520999999,349.2453224000001,349.2530066999998,349.2530066999998,349.2530066999998,350.5035219000001,Scenes\158b.jpg,post,s,1.2501315999998042,None,,,,,,,,00015,001,2025-11-08_12h04.25.183,MST_test,2024.2.2,60.03806413265956,2025-11-08 12h04.32.371611 +0530,
72,0,72,o,1.6610770000002049,None,72,0,72,0,350.5196083999999,,,,,,,,,,,,,,,,,,,,,,,,,,,,,,,,,,,,,,,,,,,,,,,,,,350.5036012999999,350.5196083999999,351.0195926000001,351.00324809999984,351.0131077000001,351.0195926000001,351.0195926000001,351.0195926000001,352.6866610000002,Objects\058a.jpg,mid,o,1.6610770000002049,None,,,,,,,,00015,001,2025-11-08_12h04.25.183,MST_test,2024.2.2,60.03806413265956,2025-11-08 12h04.32.371611 +0530,
73,0,73,n,1.0822081000001162,None,73,0,73,0,352.70292870000003,,,,,,,,,,,,,,,,,,,,,,,,,,,,,,,,,,,,,,,,,,,,,,,,,,352.6867430000002,352.70292870000003,353.2197537000002,353.1865063,353.21140130000003,353.2197537000002,353.2197537000002,353.2197537000002,354.30319199999985,Foils\scenes20.jpg,none,n,1.0822081000001162,None,,,,,,,,00015,001,2025-11-08_12h04.25.183,MST_test,2024.2.2,60.03806413265956,2025-11-08 12h04.32.371611 +0530,
74,0,74,n,1.029967299999953,None,74,0,74,0,354.3195700000001,,,,,,,,,,,,,,,,,,,,,,,,,,,,,,,,,,,,,,,,,,,,,,,,,,354.3032733,354.3195700000001,354.8361753999998,354.8030503,354.8303093999998,354.8361753999998,354.8361753999998,354.8361753999998,355.86975789999997,Foils\090a.jpg,none,n,1.029967299999953,None,,,,,,,,00015,001,2025-11-08_12h04.25.183,MST_test,2024.2.2,60.03806413265956,2025-11-08 12h04.32.371611 +0530,
75,0,75,n,1.524637999999868,None,75,0,75,0,355.8861903000002,,,,,,,,,,,,,,,,,,,,,,,,,,,,,,,,,,,,,,,,,,,,,,,,,,355.8698285999999,355.8861903000002,356.3861541000001,356.3696630999998,356.3793515000002,356.3861541000001,356.3861541000001,356.3861541000001,357.9197398000001,Objects\086a.jpg,post,n,1.524637999999868,None,,,,,,,,00015,001,2025-11-08_12h04.25.183,MST_test,2024.2.2,60.03806413265956,2025-11-08 12h04.32.371611 +0530,
76,0,76,o,1.8844020999999884,None,76,0,76,0,357.93611139999985,,,,,,,,,,,,,,,,,,,,,,,,,,,,,,,,,,,,,,,,,,,,,,,,,,357.91981410000017,357.93611139999985,358.43609879999985,358.4196176999999,358.4299167999998,358.43609879999985,358.43609879999985,358.43609879999985,360.33631030000015,Objects\126a.jpg,mid,o,1.8844020999999884,None,,,,,,,,00015,001,2025-11-08_12h04.25.183,MST_test,2024.2.2,60.03806413265956,2025-11-08 12h04.32.371611 +0530,
77,0,77,n,1.900098799999796,None,77,0,77,0,360.3527631000002,,,,,,,,,,,,,,,,,,,,,,,,,,,,,,,,,,,,,,,,,,,,,,,,,,360.3363835,360.3527631000002,360.8527257999999,360.83619420000014,360.8460183000002,360.8527257999999,360.8527257999999,360.8527257999999,362.7531392000001,Objects\043a.jpg,pre,n,1.900098799999796,None,,,,,,,,00015,001,2025-11-08_12h04.25.183,MST_test,2024.2.2,60.03806413265956,2025-11-08 12h04.32.371611 +0530,
78,0,78,s,1.4933295999999245,None,78,0,78,0,362.76945019999994,,,,,,,,,,,,,,,,,,,,,,,,,,,,,,,,,,,,,,,,,,,,,,,,,,362.75321269999995,362.76945019999994,363.30286449999994,363.2528490999998,363.2886017999999,363.30286449999994,363.30286449999994,363.30286449999994,364.8030659000001,Scenes\176b.jpg,post,s,1.4933295999999245,None,,,,,,,,00015,001,2025-11-08_12h04.25.183,MST_test,2024.2.2,60.03806413265956,2025-11-08 12h04.32.371611 +0530,
79,0,79,s,1.567474499999662,None,79,0,79,0,364.8193302999998,,,,,,,,,,,,,,,,,,,,,,,,,,,,,,,,,,,,,,,,,,,,,,,,,,364.80314210000006,364.8193302999998,365.3529477000002,365.3028126999998,365.3411379999998,365.3529477000002,365.3529477000002,365.3529477000002,366.93622300000015,Scenes\136b.jpg,post,s,1.567474499999662,None,,,,,,,,00015,001,2025-11-08_12h04.25.183,MST_test,2024.2.2,60.03806413265956,2025-11-08 12h04.32.371611 +0530,
80,0,80,o,1.0834663999999066,None,80,0,80,0,366.9525862999999,,,,,,,,,,,,,,,,,,,,,,,,,,,,,,,,,,,,,,,,,,,,,,,,,,366.93629580000015,366.9525862999999,367.46956150000005,367.4360840999998,367.46083210000006,367.46956150000005,367.46956150000005,367.46956150000005,368.56948809999994,Objects\167b.jpg,pre,o,1.0834663999999066,None,,,,,,,,00015,001,2025-11-08_12h04.25.183,MST_test,2024.2.2,60.03806413265956,2025-11-08 12h04.32.371611 +0530,
81,0,81,o,1.3251868999996077,None,81,0,81,0,368.5859478000002,,,,,,,,,,,,,,,,,,,,,,,,,,,,,,,,,,,,,,,,,,,,,,,,,,368.5695587,368.5859478000002,369.0859031,369.0694321000001,369.07894290000013,369.0859031,369.0859031,369.0859031,370.41947119999986,Objects\050a.jpg,post,o,1.3251868999996077,None,,,,,,,,00015,001,2025-11-08_12h04.25.183,MST_test,2024.2.2,60.03806413265956,2025-11-08 12h04.32.371611 +0530,
82,0,82,s,2.7722945000000436,None,82,0,82,0,370.435872,,,,,,,,,,,,,,,,,,,,,,,,,,,,,,,,,,,,,,,,,,,,,,,,,,370.4195404000002,370.435872,371.2194863999998,370.9193706000001,371.1874892999999,371.2194863999998,371.2194863999998,371.2194863999998,374.00279739999996,Foils\scenes26.jpg,none,s,2.7722945000000436,None,,,,,,,,00015,001,2025-11-08_12h04.25.183,MST_test,2024.2.2,60.03806413265956,2025-11-08 12h04.32.371611 +0530,
83,0,83,n,2.4823544000000766,None,83,0,83,0,374.0191243999998,,,,,,,,,,,,,,,,,,,,,,,,,,,,,,,,,,,,,,,,,,,,,,,,,,374.00288469999987,374.0191243999998,374.53580680000005,374.5026978000001,374.51697349999995,374.53580680000005,374.53580680000005,374.53580680000005,377.0193610000001,Objects\047a.jpg,pre,n,2.4823544000000766,None,,,,,,,,00015,001,2025-11-08_12h04.25.183,MST_test,2024.2.2,60.03806413265956,2025-11-08 12h04.32.371611 +0530,
84,0,84,n,2.828820799999903,None,84,0,84,0,377.03575850000016,,,,,,,,,,,,,,,,,,,,,,,,,,,,,,,,,,,,,,,,,,,,,,,,,,377.01943459999984,377.03575850000016,377.5523530999999,377.5192069,377.5424385000001,377.5523530999999,377.5523530999999,377.5523530999999,380.3858838000001,Foils\020b.jpg,none,n,2.828820799999903,None,,,,,,,,00015,001,2025-11-08_12h04.25.183,MST_test,2024.2.2,60.03806413265956,2025-11-08 12h04.32.371611 +0530,
85,0,85,s,1.2460931999999048,None,85,0,85,0,380.40232849999984,,,,,,,,,,,,,,,,,,,,,,,,,,,,,,,,,,,,,,,,,,,,,,,,,,380.38596529999995,380.40232849999984,380.91898549999996,380.88579070000014,380.91396110000005,380.91898549999996,380.91898549999996,380.91898549999996,382.1693209,Objects\133b.jpg,mid,s,1.2460931999999048,None,,,,,,,,00015,001,2025-11-08_12h04.25.183,MST_test,2024.2.2,60.03806413265956,2025-11-08 12h04.32.371611 +0530,
86,0,86,o,1.7177403999999115,None,86,0,86,0,382.18561709999994,,,,,,,,,,,,,,,,,,,,,,,,,,,,,,,,,,,,,,,,,,,,,,,,,,382.1693909999999,382.18561709999994,382.6855777999999,382.66914929999984,382.6789109000001,382.6855777999999,382.6855777999999,382.6855777999999,384.41927609999993,Objects\065a.jpg,pre,o,1.7177403999999115,None,,,,,,,,00015,001,2025-11-08_12h04.25.183,MST_test,2024.2.2,60.03806413265956,2025-11-08 12h04.32.371611 +0530,
87,0,87,o,1.177756600000066,None,87,0,87,0,384.43557539999983,,,,,,,,,,,,,,,,,,,,,,,,,,,,,,,,,,,,,,,,,,,,,,,,,,384.41935839999996,384.43557539999983,384.9525029000001,384.9191943000001,384.94102710000016,384.9525029000001,384.9525029000001,384.9525029000001,386.1359056000001,Scenes\068a.jpg,mid,o,1.177756600000066,None,,,,,,,,00015,001,2025-11-08_12h04.25.183,MST_test,2024.2.2,60.03806413265956,2025-11-08 12h04.32.371611 +0530,
88,0,88,n,1.6111834999996972,None,88,0,88,0,386.15220180000006,,,,,,,,,,,,,,,,,,,,,,,,,,,,,,,,,,,,,,,,,,,,,,,,,,386.1359794,386.15220180000006,386.68548409999994,386.6357404999999,386.66611580000017,386.68548409999994,386.68548409999994,386.68548409999994,388.30246720000014,Objects\060b.jpg,post,n,1.6111834999996972,None,,,,,,,,00015,001,2025-11-08_12h04.25.183,MST_test,2024.2.2,60.03806413265956,2025-11-08 12h04.32.371611 +0530,
89,0,89,s,1.6701579999999012,None,89,0,89,0,388.3188177000002,,,,,,,,,,,,,,,,,,,,,,,,,,,,,,,,,,,,,,,,,,,,,,,,,,388.3025444,388.3188177000002,388.8521485000001,388.8024774999999,388.8344490999998,388.8521485000001,388.8521485000001,388.8521485000001,390.5359073999998,Objects\035b.jpg,pre,s,1.6701579999999012,None,,,,,,,,00015,001,2025-11-08_12h04.25.183,MST_test,2024.2.2,60.03806413265956,2025-11-08 12h04.32.371611 +0530,
90,0,90,n,1.3544569000000592,None,90,0,90,0,390.55210739999984,,,,,,,,,,,,,,,,,,,,,,,,,,,,,,,,,,,,,,,,,,,,,,,,,,390.5359878999998,390.55210739999984,391.0687284999999,391.0356391999999,391.0643295,391.0687284999999,391.0687284999999,391.0687284999999,392.4357494000001,Foils\017a.jpg,none,n,1.3544569000000592,None,,,,,,,,00015,001,2025-11-08_12h04.25.183,MST_test,2024.2.2,60.03806413265956,2025-11-08 12h04.32.371611 +0530,
91,0,91,n,1.9146357999998145,None,91,0,91,0,392.4520656999998,,,,,,,,,,,,,,,,,,,,,,,,,,,,,,,,,,,,,,,,,,,,,,,,,,392.4358225000001,392.4520656999998,392.96868670000003,392.93561679999993,392.9603010999999,392.96868670000003,392.96868670000003,392.96868670000003,394.8858395000002,Scenes\137b.jpg,pre,n,1.9146357999998145,None,,,,,,,,00015,001,2025-11-08_12h04.25.183,MST_test,2024.2.2,60.03806413265956,2025-11-08 12h04.32.371611 +0530,
92,0,92,s,2.5196641000002273,None,92,0,92,0,394.9019750000002,,,,,,,,,,,,,,,,,,,,,,,,,,,,,,,,,,,,,,,,,,,,,,,,,,394.8859259999999,394.9019750000002,395.4191216999998,395.38551229999985,395.4075422000001,395.4191216999998,395.4191216999998,395.4191216999998,397.95225260000007,Scenes\095a.jpg,pre,s,2.5196641000002273,None,,,,,,,,00015,001,2025-11-08_12h04.25.183,MST_test,2024.2.2,60.03806413265956,2025-11-08 12h04.32.371611 +0530,
93,0,93,o,1.882303200000024,None,93,0,93,0,397.96860830000014,,,,,,,,,,,,,,,,,,,,,,,,,,,,,,,,,,,,,,,,,,,,,,,,,,397.9523374999999,397.96860830000014,398.50212809999994,398.4520963,398.48143040000014,398.50212809999994,398.50212809999994,398.50212809999994,400.3856098000001,Scenes\025a.jpg,pre,o,1.882303200000024,None,,,,,,,,00015,001,2025-11-08_12h04.25.183,MST_test,2024.2.2,60.03806413265956,2025-11-08 12h04.32.371611 +0530,
94,0,94,s,1.9568829999998343,None,94,0,94,0,400.4018863000001,,,,,,,,,,,,,,,,,,,,,,,,,,,,,,,,,,,,,,,,,,,,,,,,,,400.3856913999998,400.4018863000001,400.93551160000015,400.8853769000002,400.9229270000001,400.93551160000015,400.93551160000015,400.93551160000015,402.9022037999998,Scenes\070b.jpg,post,s,1.9568829999998343,None,,,,,,,,00015,001,2025-11-08_12h04.25.183,MST_test,2024.2.2,60.03806413265956,2025-11-08 12h04.32.371611 +0530,
95,0,95,o,3.021448800000144,None,95,0,95,0,402.918506,,,,,,,,,,,,,,,,,,,,,,,,,,,,,,,,,,,,,,,,,,,,,,,,,,402.90228609999986,402.918506,403.41874899999993,403.40214860000015,403.41217929999993,403.41874899999993,403.41874899999993,403.41874899999993,406.45217330000014,Objects\098a.jpg,pre,o,3.021448800000144,None,,,,,,,,00015,001,2025-11-08_12h04.25.183,MST_test,2024.2.2,60.03806413265956,2025-11-08 12h04.32.371611 +0530,
96,0,96,s,1.647485300000426,None,96,0,96,0,406.4684637999999,,,,,,,,,,,,,,,,,,,,,,,,,,,,,,,,,,,,,,,,,,,,,,,,,,406.45225200000004,406.4684637999999,406.9683799999998,406.95198549999986,406.9617438,406.9683799999998,406.9683799999998,406.9683799999998,408.6187513,Objects\048a.jpg,mid,s,1.647485300000426,None,,,,,,,,00015,001,2025-11-08_12h04.25.183,MST_test,2024.2.2,60.03806413265956,2025-11-08 12h04.32.371611 +0530,
97,0,97,s,1.72944920000009,None,97,0,97,0,408.63504220000004,,,,,,,,,,,,,,,,,,,,,,,,,,,,,,,,,,,,,,,,,,,,,,,,,,408.6188344000002,408.63504220000004,409.1516723,409.1186053000001,409.1385083,409.1516723,409.1516723,409.1516723,410.8853889000002,Scenes\080a.jpg,mid,s,1.72944920000009,None,,,,,,,,00015,001,2025-11-08_12h04.25.183,MST_test,2024.2.2,60.03806413265956,2025-11-08 12h04.32.371611 +0530,
98,0,98,o,1.3800547999999253,None,98,0,98,0,410.90166499999987,,,,,,,,,,,,,,,,,,,,,,,,,,,,,,,,,,,,,,,,,,,,,,,,,,410.8854789000002,410.90166499999987,411.41853189999983,411.38524529999995,411.4068607999998,411.41853189999983,411.41853189999983,411.41853189999983,412.80204390000017,Scenes\119a.jpg,mid,o,1.3800547999999253,None,,,,,,,,00015,001,2025-11-08_12h04.25.183,MST_test,2024.2.2,60.03806413265956,2025-11-08 12h04.32.371611 +0530,
99,0,99,o,2.1439431000003424,None,99,0,99,0,412.8182578000001,,,,,,,,,,,,,,,,,,,,,,,,,,,,,,,,,,,,,,,,,,,,,,,,,,412.8021156,412.8182578000001,413.33491860000004,413.30191289999993,413.3184129000001,413.33491860000004,413.33491860000004,413.33491860000004,415.4852331000002,Scenes\154a.jpg,mid,o,2.1439431000003424,None,,,,,,,,00015,001,2025-11-08_12h04.25.183,MST_test,2024.2.2,60.03806413265956,2025-11-08 12h04.32.371611 +0530,
100,0,100,n,1.2030525999998645,None,100,0,100,0,415.5015573999999,,,,,,,,,,,,,,,,,,,,,,,,,,,,,,,,,,,,,,,,,,,,,,,,,,415.4853119999998,415.5015573999999,416.05178620000015,415.9850338000001,416.0323699999999,416.05178620000015,416.05178620000015,416.05178620000015,417.26846669999986,Objects\061b.jpg,mid,n,1.2030525999998645,None,,,,,,,,00015,001,2025-11-08_12h04.25.183,MST_test,2024.2.2,60.03806413265956,2025-11-08 12h04.32.371611 +0530,
101,0,101,n,0.9025438999997277,None,101,0,101,0,417.2848641999999,,,,,,,,,,,,,,,,,,,,,,,,,,,,,,,,,,,,,,,,,,,,,,,,,,417.2685551999998,417.2848641999999,417.81815129999995,417.7683241999998,417.79811530000006,417.81815129999995,417.81815129999995,417.81815129999995,418.73507770000015,Objects\187b.jpg,mid,n,0.9025438999997277,None,,,,,,,,00015,001,2025-11-08_12h04.25.183,MST_test,2024.2.2,60.03806413265956,2025-11-08 12h04.32.371611 +0530,
102,0,102,o,1.0256404000001567,None,102,0,102,0,418.7514980000001,,,,,,,,,,,,,,,,,,,,,,,,,,,,,,,,,,,,,,,,,,,,,,,,,,418.73515339999994,418.7514980000001,419.25144790000013,419.23492609999994,419.24500209999997,419.25144790000013,419.25144790000013,419.25144790000013,420.2853368000001,Objects\129a.jpg,post,o,1.0256404000001567,None,,,,,,,,00015,001,2025-11-08_12h04.25.183,MST_test,2024.2.2,60.03806413265956,2025-11-08 12h04.32.371611 +0530,
103,0,103,o,0.8410202999998546,None,103,0,103,0,420.30146349999995,,,,,,,,,,,,,,,,,,,,,,,,,,,,,,,,,,,,,,,,,,,,,,,,,,420.2854090999999,420.30146349999995,420.8014125999998,420.7849136,420.7945295999998,420.8014125999998,420.8014125999998,420.8014125999998,421.65169430000014,Objects\034a.jpg,post,o,0.8410202999998546,None,,,,,,,,00015,001,2025-11-08_12h04.25.183,MST_test,2024.2.2,60.03806413265956,2025-11-08 12h04.32.371611 +0530,
104,0,104,o,2.089227099999789,None,104,0,104,0,421.66809490000014,,,,,,,,,,,,,,,,,,,,,,,,,,,,,,,,,,,,,,,,,,,,,,,,,,421.6517665000001,421.66809490000014,422.2350332000001,422.1515638000001,422.21969119999994,422.2350332000001,422.2350332000001,422.2350332000001,424.33509760000015,Foils\scenes23.jpg,none,o,2.089227099999789,None,,,,,,,,00015,001,2025-11-08_12h04.25.183,MST_test,2024.2.2,60.03806413265956,2025-11-08 12h04.32.371611 +0530,
105,0,105,o,1.7720110000000204,None,105,0,105,0,424.35136139999986,,,,,,,,,,,,,,,,,,,,,,,,,,,,,,,,,,,,,,,,,,,,,,,,,,424.33518349999986,424.35136139999986,424.88468280000006,424.8349143999999,424.8656645000001,424.88468280000006,424.88468280000006,424.88468280000006,426.6682904999998,Objects\089b.jpg,post,o,1.7720110000000204,None,,,,,,,,00015,001,2025-11-08_12h04.25.183,MST_test,2024.2.2,60.03806413265956,2025-11-08 12h04.32.371611 +0530,
106,0,106,o,1.0992563000004338,None,106,0,106,0,426.6846522999999,,,,,,,,,,,,,,,,,,,,,,,,,,,,,,,,,,,,,,,,,,,,,,,,,,426.6683748999999,426.6846522999999,427.2012757000002,427.16810859999987,427.1908062000002,427.2012757000002,427.2012757000002,427.2012757000002,428.3016809999999,Objects\180b.jpg,mid,o,1.0992563000004338,None,,,,,,,,00015,001,2025-11-08_12h04.25.183,MST_test,2024.2.2,60.03806413265956,2025-11-08 12h04.32.371611 +0530,
107,0,107,n,1.2106682999997247,None,107,0,107,0,428.31794679999985,,,,,,,,,,,,,,,,,,,,,,,,,,,,,,,,,,,,,,,,,,,,,,,,,,428.30176359999996,428.31794679999985,428.8179077,428.8014839000002,428.8110462999998,428.8179077,428.8179077,428.8179077,430.03505140000016,Objects\067a.jpg,mid,n,1.2106682999997247,None,,,,,,,,00015,001,2025-11-08_12h04.25.183,MST_test,2024.2.2,60.03806413265956,2025-11-08 12h04.32.371611 +0530,
108,0,108,o,1.0341413000001012,None,108,0,108,0,430.0512146000001,,,,,,,,,,,,,,,,,,,,,,,,,,,,,,,,,,,,,,,,,,,,,,,,,,430.0351313000001,430.0512146000001,430.5681555000001,430.5346961,430.55106590000014,430.5681555000001,430.5681555000001,430.5681555000001,431.61823030000005,Scenes\139a.jpg,post,o,1.0341413000001012,None,,,,,,,,00015,001,2025-11-08_12h04.25.183,MST_test,2024.2.2,60.03806413265956,2025-11-08 12h04.32.371611 +0530,
109,0,109,s,1.467359000000215,None,109,0,109,0,431.6345471999998,,,,,,,,,,,,,,,,,,,,,,,,,,,,,,,,,,,,,,,,,,,,,,,,,,431.6183110000002,431.6345471999998,432.16772200000014,432.1180353999998,432.1635946000001,432.16772200000014,432.16772200000014,432.16772200000014,433.65151289999994,Scenes\038b.jpg,post,s,1.467359000000215,None,,,,,,,,00015,001,2025-11-08_12h04.25.183,MST_test,2024.2.2,60.03806413265956,2025-11-08 12h04.32.371611 +0530,
110,0,110,n,2.439712899999904,None,110,0,110,0,433.66783669999995,,,,,,,,,,,,,,,,,,,,,,,,,,,,,,,,,,,,,,,,,,,,,,,,,,433.6515887999999,433.66783669999995,434.1846638000002,434.1514108000001,434.17771589999984,434.1846638000002,434.1846638000002,434.1846638000002,436.6346988,Objects\137b.jpg,post,n,2.439712899999904,None,,,,,,,,00015,001,2025-11-08_12h04.25.183,MST_test,2024.2.2,60.03806413265956,2025-11-08 12h04.32.371611 +0530,
111,0,111,o,2.0530524999999216,None,111,0,111,0,436.6511067000001,,,,,,,,,,,,,,,,,,,,,,,,,,,,,,,,,,,,,,,,,,,,,,,,,,436.63476979999996,436.6511067000001,437.16773109999986,437.13459520000015,437.1590388999998,437.16773109999986,437.16773109999986,437.16773109999986,439.23464109999986,Objects\090b.jpg,pre,o,2.0530524999999216,None,,,,,,,,00015,001,2025-11-08_12h04.25.183,MST_test,2024.2.2,60.03806413265956,2025-11-08 12h04.32.371611 +0530,
112,0,112,o,1.565105399999993,None,112,0,112,0,439.25104939999983,,,,,,,,,,,,,,,,,,,,,,,,,,,,,,,,,,,,,,,,,,,,,,,,,,439.2347141,439.25104939999983,439.76804459999994,439.7345234999998,439.7530379,439.76804459999994,439.76804459999994,439.76804459999994,441.3347359999998,Scenes\127a.jpg,mid,o,1.565105399999993,None,,,,,,,,00015,001,2025-11-08_12h04.25.183,MST_test,2024.2.2,60.03806413265956,2025-11-08 12h04.32.371611 +0530,
113,0,113,o,1.3819556999997076,None,113,0,113,0,441.3510427000001,,,,,,,,,,,,,,,,,,,,,,,,,,,,,,,,,,,,,,,,,,,,,,,,,,441.3348108,441.3510427000001,441.8509727999999,441.8346809999998,441.8454971000001,441.8509727999999,441.8509727999999,441.8509727999999,443.2345439999999,Objects\189a.jpg,pre,o,1.3819556999997076,None,,,,,,,,00015,001,2025-11-08_12h04.25.183,MST_test,2024.2.2,60.03806413265956,2025-11-08 12h04.32.371611 +0530,
114,0,114,o,1.559987899999669,None,114,0,114,0,443.2510035,,,,,,,,,,,,,,,,,,,,,,,,,,,,,,,,,,,,,,,,,,,,,,,,,,443.2346209000002,443.2510035,443.78451730000006,443.73443069999985,443.7762266999998,443.78451730000006,443.78451730000006,443.78451730000006,445.35136909999983,Scenes\023b.jpg,post,o,1.559987899999669,None,,,,,,,,00015,001,2025-11-08_12h04.25.183,MST_test,2024.2.2,60.03806413265956,2025-11-08 12h04.32.371611 +0530,
115,0,115,o,0.9783259999999245,None,115,0,115,0,445.3675499000001,,,,,,,,,,,,,,,,,,,,,,,,,,,,,,,,,,,,,,,,,,,,,,,,,,445.3514540000001,445.3675499000001,445.8842042000001,445.8511306999999,445.8775827999998,445.8842042000001,445.8842042000001,445.8842042000001,446.8678544999998,Objects\088b.jpg,mid,o,0.9783259999999245,None,,,,,,,,00015,001,2025-11-08_12h04.25.183,MST_test,2024.2.2,60.03806413265956,2025-11-08 12h04.32.371611 +0530,
116,0,116,o,1.577186399999846,None,116,0,116,0,446.8841910000001,,,,,,,,,,,,,,,,,,,,,,,,,,,,,,,,,,,,,,,,,,,,,,,,,,446.8679232999998,446.8841910000001,447.41750820000016,447.36778589999994,447.4027775999998,447.41750820000016,447.41750820000016,447.41750820000016,449.001088,Scenes\034a.jpg,post,o,1.577186399999846,None,,,,,,,,00015,001,2025-11-08_12h04.25.183,MST_test,2024.2.2,60.03806413265956,2025-11-08 12h04.32.371611 +0530,
117,0,117,o,1.1501342000001387,None,117,0,117,0,449.01749070000005,,,,,,,,,,,,,,,,,,,,,,,,,,,,,,,,,,,,,,,,,,,,,,,,,,449.0011635999999,449.01749070000005,449.5341269999999,449.5009903,449.5254409999998,449.5341269999999,449.5341269999999,449.5341269999999,450.68457290000015,Scenes\097b.jpg,pre,o,1.1501342000001387,None,,,,,,,,00015,001,2025-11-08_12h04.25.183,MST_test,2024.2.2,60.03806413265956,2025-11-08 12h04.32.371611 +0530,
118,0,118,o,0.9279764999996587,None,118,0,118,0,450.7007914999999,,,,,,,,,,,,,,,,,,,,,,,,,,,,,,,,,,,,,,,,,,,,,,,,,,450.6846470999999,450.7007914999999,451.20075480000014,451.18444249999993,451.1940275000002,451.20075480000014,451.20075480000014,451.20075480000014,452.1344044000002,Objects\005a.jpg,post,o,0.9279764999996587,None,,,,,,,,00015,001,2025-11-08_12h04.25.183,MST_test,2024.2.2,60.03806413265956,2025-11-08 12h04.32.371611 +0530,
119,0,119,o,1.1132254999997713,None,119,0,119,0,452.15076820000013,,,,,,,,,,,,,,,,,,,,,,,,,,,,,,,,,,,,,,,,,,,,,,,,,,452.1344860999998,452.15076820000013,452.6673980999999,452.6343468,452.6604659999998,452.6673980999999,452.6673980999999,452.6673980999999,453.7843581000002,Objects\152b.jpg,post,o,1.1132254999997713,None,,,,,,,,00015,001,2025-11-08_12h04.25.183,MST_test,2024.2.2,60.03806413265956,2025-11-08 12h04.32.371611 +0530,
120,0,120,n,1.2237786000000597,None,120,0,120,0,453.80072999999993,,,,,,,,,,,,,,,,,,,,,,,,,,,,,,,,,,,,,,,,,,,,,,,,,,453.7844319000001,453.80072999999993,454.3343765999998,454.2842584,454.31790039999987,454.3343765999998,454.3343765999998,454.3343765999998,455.56765889999997,Scenes\175b.jpg,pre,n,1.2237786000000597,None,,,,,,,,00015,001,2025-11-08_12h04.25.183,MST_test,2024.2.2,60.03806413265956,2025-11-08 12h04.32.371611 +0530,
121,0,121,s,1.9792268999999578,None,121,0,121,0,455.58402290000004,,,,,,,,,,,,,,,,,,,,,,,,,,,,,,,,,,,,,,,,,,,,,,,,,,455.5677479000001,455.58402290000004,456.1175653,456.06763390000015,456.1019756999999,456.1175653,456.1175653,456.1175653,458.1009140000001,Scenes\155b.jpg,mid,s,1.9792268999999578,None,,,,,,,,00015,001,2025-11-08_12h04.25.183,MST_test,2024.2.2,60.03806413265956,2025-11-08 12h04.32.371611 +0530,
122,0,122,n,1.4976457000002483,None,122,0,122,0,458.11730799999987,,,,,,,,,,,,,,,,,,,,,,,,,,,,,,,,,,,,,,,,,,,,,,,,,,458.10098659999994,458.11730799999987,458.65077870000005,458.6007746,458.6402515,458.65077870000005,458.65077870000005,458.65077870000005,460.1509167999998,Scenes\122b.jpg,mid,n,1.4976457000002483,None,,,,,,,,00015,001,2025-11-08_12h04.25.183,MST_test,2024.2.2,60.03806413265956,2025-11-08 12h04.32.371611 +0530,
123,0,123,n,0.8336306999999579,None,123,0,123,0,460.16726400000016,,,,,,,,,,,,,,,,,,,,,,,,,,,,,,,,,,,,,,,,,,,,,,,,,,460.1509913,460.16726400000016,460.6841846000002,460.6507323999999,460.6753431000002,460.6841846000002,460.6841846000002,460.6841846000002,461.53415670000004,Foils\101b.jpg,none,n,0.8336306999999579,None,,,,,,,,00015,001,2025-11-08_12h04.25.183,MST_test,2024.2.2,60.03806413265956,2025-11-08 12h04.32.371611 +0530,
124,0,124,n,0.9884696000003714,None,124,0,124,0,461.55056520000016,,,,,,,,,,,,,,,,,,,,,,,,,,,,,,,,,,,,,,,,,,,,,,,,,,461.53422899999987,461.55056520000016,462.08388319999995,462.0340483,462.0648885999999,462.08388319999995,462.08388319999995,462.08388319999995,463.08413759999985,Foils\105a.jpg,none,n,0.9884696000003714,None,,,,,,,,00015,001,2025-11-08_12h04.25.183,MST_test,2024.2.2,60.03806413265956,2025-11-08 12h04.32.371611 +0530,
125,0,125,s,1.4063946000001124,None,125,0,125,0,463.1005504999998,,,,,,,,,,,,,,,,,,,,,,,,,,,,,,,,,,,,,,,,,,,,,,,,,,463.08421709999993,463.1005504999998,463.6339060999999,463.58406130000003,463.62025270000004,463.6339060999999,463.6339060999999,463.6339060999999,465.0507856999998,Scenes\130b.jpg,post,s,1.4063946000001124,None,,,,,,,,00015,001,2025-11-08_12h04.25.183,MST_test,2024.2.2,60.03806413265956,2025-11-08 12h04.32.371611 +0530,
126,0,126,s,7.988440000000082,None,126,0,126,0,465.0671553000002,,,,,,,,,,,,,,,,,,,,,,,,,,,,,,,,,,,,,,,,,,,,,,,,,,465.0508669999999,465.0671553000002,465.60044370000014,465.5507590000002,465.5917564000001,465.60044370000014,465.60044370000014,465.60044370000014,473.6005831000002,Scenes\149b.jpg,mid,s,7.988440000000082,None,,,,,,,,00015,001,2025-11-08_12h04.25.183,MST_test,2024.2.2,60.03806413265956,2025-11-08 12h04.32.371611 +0530,
127,0,127,s,1.2546956000001046,None,127,0,127,0,473.6169447000002,,,,,,,,,,,,,,,,,,,,,,,,,,,,,,,,,,,,,,,,,,,,,,,,,,473.6006563000001,473.6169447000002,474.1340113000001,474.10050820000015,474.1273944999998,474.1340113000001,474.1340113000001,474.1340113000001,475.40056159999995,Scenes\011a.jpg,mid,s,1.2546956000001046,None,,,,,,,,00015,001,2025-11-08_12h04.25.183,MST_test,2024.2.2,60.03806413265956,2025-11-08 12h04.32.371611 +0530,
128,0,128,s,4.434149299999717,None,128,0,128,0,475.4168976000001,,,,,,,,,,,,,,,,,,,,,,,,,,,,,,,,,,,,,,,,,,,,,,,,,,475.4006417999999,475.4168976000001,475.95056969999996,475.9003987000001,475.9327877999999,475.95056969999996,475.95056969999996,475.95056969999996,480.40041440000005,Scenes\037b.jpg,mid,s,4.434149299999717,None,,,,,,,,00015,001,2025-11-08_12h04.25.183,MST_test,2024.2.2,60.03806413265956,2025-11-08 12h04.32.371611 +0530,
129,0,129,o,1.2573487999998179,None,129,0,129,0,480.4168212999998,,,,,,,,,,,,,,,,,,,,,,,,,,,,,,,,,,,,,,,,,,,,,,,,,,480.4005023999998,480.4168212999998,480.9334493000001,480.9002902000002,480.9173814999999,480.9334493000001,480.9334493000001,480.9334493000001,482.2003616000002,Scenes\050a.jpg,mid,o,1.2573487999998179,None,,,,,,,,00015,001,2025-11-08_12h04.25.183,MST_test,2024.2.2,60.03806413265956,2025-11-08 12h04.32.371611 +0530,
130,0,130,s,1.180567500000052,None,130,0,130,0,482.2167768999998,,,,,,,,,,,,,,,,,,,,,,,,,,,,,,,,,,,,,,,,,,,,,,,,,,482.20043669999995,482.2167768999998,482.7500734,482.700253,482.7357643,482.7500734,482.7500734,482.7500734,483.9337389000002,Scenes\141b.jpg,pre,s,1.180567500000052,None,,,,,,,,00015,001,2025-11-08_12h04.25.183,MST_test,2024.2.2,60.03806413265956,2025-11-08 12h04.32.371611 +0530,
131,0,131,s,1.4322839999999815,None,131,0,131,0,483.95007669999995,,,,,,,,,,,,,,,,,,,,,,,,,,,,,,,,,,,,,,,,,,,,,,,,,,483.93382010000005,483.95007669999995,484.4502739999998,484.43350169999985,484.4433232000001,484.4502739999998,484.4502739999998,484.4502739999998,485.8836983000001,Objects\030a.jpg,pre,s,1.4322839999999815,None,,,,,,,,00015,001,2025-11-08_12h04.25.183,MST_test,2024.2.2,60.03806413265956,2025-11-08 12h04.32.371611 +0530,
132,0,132,n,1.4581296999999722,None,132,0,132,0,485.90003220000017,,,,,,,,,,,,,,,,,,,,,,,,,,,,,,,,,,,,,,,,,,,,,,,,,,485.8837751000001,485.90003220000017,486.3999944000002,486.38353340000003,486.39360149999993,486.3999944000002,486.3999944000002,486.3999944000002,487.86711849999983,Objects\148a.jpg,mid,n,1.4581296999999722,None,,,,,,,,00015,001,2025-11-08_12h04.25.183,MST_test,2024.2.2,60.03806413265956,2025-11-08 12h04.32.371611 +0530,
133,0,133,s,1.8870421000001443,None,133,0,133,0,487.88332619999983,,,,,,,,,,,,,,,,,,,,,,,,,,,,,,,,,,,,,,,,,,,,,,,,,,487.8672031000001,487.88332619999983,488.38337330000013,488.3668082999998,488.3762550000001,488.38337330000013,488.38337330000013,488.38337330000013,490.2835147999999,Objects\177a.jpg,mid,s,1.8870421000001443,None,,,,,,,,00015,001,2025-11-08_12h04.25.183,MST_test,2024.2.2,60.03806413265956,2025-11-08 12h04.32.371611 +0530,
134,0,134,n,1.050210800000059,None,134,0,134,0,490.29994149999993,,,,,,,,,,,,,,,,,,,,,,,,,,,,,,,,,,,,,,,,,,,,,,,,,,490.28359039999987,490.29994149999993,490.81655980000005,490.7834197000002,490.80581230000007,490.81655980000005,490.81655980000005,490.81655980000005,491.8834793000001,Foils\042a.jpg,none,n,1.050210800000059,None,,,,,,,,00015,001,2025-11-08_12h04.25.183,MST_test,2024.2.2,60.03806413265956,2025-11-08 12h04.32.371611 +0530,
135,0,135,n,1.090738599999895,None,135,0,135,0,491.89990739999985,,,,,,,,,,,,,,,,,,,,,,,,,,,,,,,,,,,,,,,,,,,,,,,,,,491.88354900000013,491.89990739999985,492.4335718000002,492.38336549999985,492.4174145000002,492.4335718000002,492.4335718000002,492.4335718000002,493.5335015999999,Foils\scenes12.jpg,none,n,1.090738599999895,None,,,,,,,,00015,001,2025-11-08_12h04.25.183,MST_test,2024.2.2,60.03806413265956,2025-11-08 12h04.32.371611 +0530,
136,0,136,n,1.070280399999774,None,136,0,136,0,493.5498327999999,,,,,,,,,,,,,,,,,,,,,,,,,,,,,,,,,,,,,,,,,,,,,,,,,,493.53357640000013,493.5498327999999,494.06649370000014,494.03343540000014,494.05011490000015,494.06649370000014,494.06649370000014,494.06649370000014,495.1500695999998,Foils\098a.jpg,none,n,1.070280399999774,None,,,,,,,,00015,001,2025-11-08_12h04.25.183,MST_test,2024.2.2,60.03806413265956,2025-11-08 12h04.32.371611 +0530,
137,0,137,o,1.7607033999997839,None,137,0,137,0,495.1665069999999,,,,,,,,,,,,,,,,,,,,,,,,,,,,,,,,,,,,,,,,,,,,,,,,,,495.15013709999994,495.1665069999999,495.68336839999984,495.6499480000002,495.67703530000017,495.68336839999984,495.68336839999984,495.68336839999984,497.450057,Scenes\020a.jpg,post,o,1.7607033999997839,None,,,,,,,,00015,001,2025-11-08_12h04.25.183,MST_test,2024.2.2,60.03806413265956,2025-11-08 12h04.32.371611 +0530,
138,0,138,o,1.477640699999938,None,138,0,138,0,497.4664585999999,,,,,,,,,,,,,,,,,,,,,,,,,,,,,,,,,,,,,,,,,,,,,,,,,,497.45012970000016,497.4664585999999,497.9831257999999,497.9498910000002,497.9768647000001,497.9831257999999,497.9831257999999,497.9831257999999,499.4667494,Objects\072b.jpg,mid,o,1.477640699999938,None,,,,,,,,00015,001,2025-11-08_12h04.25.183,MST_test,2024.2.2,60.03806413265956,2025-11-08 12h04.32.371611 +0530,
139,0,139,o,1.323826100000133,None,139,0,139,0,499.4831005000001,,,,,,,,,,,,,,,,,,,,,,,,,,,,,,,,,,,,,,,,,,,,,,,,,,499.4668310000002,499.4831005000001,500.0166168999999,499.9665384,500.0013431000002,500.0166168999999,500.0166168999999,500.0166168999999,501.3500770999999,Scenes\059b.jpg,pre,o,1.323826100000133,None,,,,,,,,00015,001,2025-11-08_12h04.25.183,MST_test,2024.2.2,60.03806413265956,2025-11-08 12h04.32.371611 +0530,
140,0,140,n,2.0554911999997785,None,140,0,140,0,501.36635879999994,,,,,,,,,,,,,,,,,,,,,,,,,,,,,,,,,,,,,,,,,,,,,,,,,,501.35015599999997,501.36635879999994,501.8830493999999,501.8499483999999,501.8781267999998,501.8830493999999,501.8830493999999,501.8830493999999,503.94990929999994,Objects\045b.jpg,pre,n,2.0554911999997785,None,,,,,,,,00015,001,2025-11-08_12h04.25.183,MST_test,2024.2.2,60.03806413265956,2025-11-08 12h04.32.371611 +0530,
141,0,141,n,1.2038813000003756,None,141,0,141,0,503.96630319999986,,,,,,,,,,,,,,,,,,,,,,,,,,,,,,,,,,,,,,,,,,,,,,,,,,503.9499811999999,503.96630319999986,504.5164758000001,504.4498193999998,504.5007295999999,504.5164758000001,504.5164758000001,504.5164758000001,505.7331843000002,Scenes\032b.jpg,post,n,1.2038813000003756,None,,,,,,,,00015,001,2025-11-08_12h04.25.183,MST_test,2024.2.2,60.03806413265956,2025-11-08 12h04.32.371611 +0530,
142,0,142,n,1.6825018999998065,None,142,0,142,0,505.7496064000002,,,,,,,,,,,,,,,,,,,,,,,,,,,,,,,,,,,,,,,,,,,,,,,,,,505.7332658999999,505.7496064000002,506.2664356999999,506.2330966999998,506.25822819999985,506.2664356999999,506.2664356999999,506.2664356999999,507.9499476000001,Foils\scenes18.jpg,none,n,1.6825018999998065,None,,,,,,,,00015,001,2025-11-08_12h04.25.183,MST_test,2024.2.2,60.03806413265956,2025-11-08 12h04.32.371611 +0530,
143,0,143,n,1.1406486999999288,None,143,0,143,0,507.9662156999998,,,,,,,,,,,,,,,,,,,,,,,,,,,,,,,,,,,,,,,,,,,,,,,,,,507.9500317000002,507.9662156999998,508.49969520000013,508.44967050000014,508.4845911000002,508.49969520000013,508.49969520000013,508.49969520000013,509.64980620000006,Scenes\111b.jpg,mid,n,1.1406486999999288,None,,,,,,,,00015,001,2025-11-08_12h04.25.183,MST_test,2024.2.2,60.03806413265956,2025-11-08 12h04.32.371611 +0530,
144,0,144,n,4.802764599999591,None,144,0,144,0,509.6661997000001,,,,,,,,,,,,,,,,,,,,,,,,,,,,,,,,,,,,,,,,,,,,,,,,,,509.6498815,509.6661997000001,510.1830822000002,510.14963979999993,510.17639580000014,510.1830822000002,510.1830822000002,510.1830822000002,514.9996609,Foils\scenes6.jpg,none,n,4.802764599999591,None,,,,,,,,00015,001,2025-11-08_12h04.25.183,MST_test,2024.2.2,60.03806413265956,2025-11-08 12h04.32.371611 +0530,
145,0,145,o,2.0485391000001982,None,145,0,145,0,515.0160660000001,,,,,,,,,,,,,,,,,,,,,,,,,,,,,,,,,,,,,,,,,,,,,,,,,,514.9997417999998,515.0160660000001,515.5496529000002,515.4995119,515.5297386000002,515.5496529000002,515.5496529000002,515.5496529000002,517.5996489999998,Objects\013b.jpg,pre,o,2.0485391000001982,None,,,,,,,,00015,001,2025-11-08_12h04.25.183,MST_test,2024.2.2,60.03806413265956,2025-11-08 12h04.32.371611 +0530,
146,0,146,n,1.7413855999998304,None,146,0,146,0,517.6160137000002,,,,,,,,,,,,,,,,,,,,,,,,,,,,,,,,,,,,,,,,,,,,,,,,,,517.5997305999999,517.6160137000002,518.1495146000002,518.0995050000001,518.1308579000001,518.1495146000002,518.1495146000002,518.1495146000002,519.899527,Scenes\077b.jpg,mid,n,1.7413855999998304,None,,,,,,,,00015,001,2025-11-08_12h04.25.183,MST_test,2024.2.2,60.03806413265956,2025-11-08 12h04.32.371611 +0530,
147,0,147,n,0.8860742000001665,None,147,0,147,0,519.9159602,,,,,,,,,,,,,,,,,,,,,,,,,,,,,,,,,,,,,,,,,,,,,,,,,,519.8996103,519.9159602,520.4325896999999,520.3994014,520.4237702,520.4325896999999,520.4325896999999,520.4325896999999,521.3328239000002,Foils\121a.jpg,none,n,0.8860742000001665,None,,,,,,,,00015,001,2025-11-08_12h04.25.183,MST_test,2024.2.2,60.03806413265956,2025-11-08 12h04.32.371611 +0530,
148,0,148,n,1.6467805000002045,None,148,0,148,0,521.3492729999998,,,,,,,,,,,,,,,,,,,,,,,,,,,,,,,,,,,,,,,,,,,,,,,,,,521.3329010000002,521.3492729999998,521.8658965,521.8328330999998,521.8537457000002,521.8658965,521.8658965,521.8658965,523.5162825000002,Objects\131b.jpg,mid,n,1.6467805000002045,None,,,,,,,,00015,001,2025-11-08_12h04.25.183,MST_test,2024.2.2,60.03806413265956,2025-11-08 12h04.32.371611 +0530,
149,0,149,s,1.954376599999705,None,149,0,149,0,523.5325545000001,,,,,,,,,,,,,,,,,,,,,,,,,,,,,,,,,,,,,,,,,,,,,,,,,,523.5163547000002,523.5325545000001,524.0494048999999,524.0160203999999,524.0439551,524.0494048999999,524.0494048999999,524.0494048999999,526.0160599999999,Scenes\171b.jpg,mid,s,1.954376599999705,None,,,,,,,,00015,001,2025-11-08_12h04.25.183,MST_test,2024.2.2,60.03806413265956,2025-11-08 12h04.32.371611 +0530,
,,,,,,,,,,,,,,,,,,,,,,,,,,,,,,,,,,,,,,,,,,,,,,,,,,,,,,,,,,,,,,,,,,,,,,,,,,526.0161214999998,526.0324988000002,526.0324988000002,533.1992685,space,7.1580799999997,None,00015,001,2025-11-08_12h04.25.183,MST_test,2024.2.2,60.03806413265956,2025-11-08 12h04.32.371611 +0530,
