thisN,thisTrialN,thisRepN,key_resp_3.keys,key_resp_3.rt,key_resp_3.duration,trials.thisRepN,trials.thisTrialN,trials.thisN,trials.thisIndex,thisRow.t,notes,intro_page.started,text.started,key_resp.started,intro_page.stopped,key_resp.keys,key_resp.rt,key_resp.duration,instructions.started,text_2.started,key_resp_2.started,instructions.stopped,key_resp_2.keys,key_resp_2.rt,key_resp_2.duration,demo1.started,image_1.started,image_2.started,text_7.started,key_resp_6.started,text_9.started,demo1.stopped,key_resp_6.keys,key_resp_6.rt,key_resp_6.duration,demo2.started,image_5.started,image_6.started,text_11.started,text_12.started,key_resp_8.started,demo2.stopped,key_resp_8.keys,key_resp_8.rt,key_resp_8.duration,demo_conclusion.started,text_13.started,key_resp_9.started,demo_conclusion.stopped,key_resp_9.keys,key_resp_9.rt,key_resp_9.duration,start_test.started,text_6.started,key_resp_5.started,start_test.stopped,key_resp_5.keys,key_resp_5.rt,key_resp_5.duration,ISI.started,text_4.started,text_4.stopped,ISI.stopped,routine_1.started,image.started,text_3.started,key_resp_3.started,routine_1.stopped,image_path,position_of_stimuli,trials.key_resp_3.keys,trials.key_resp_3.rt,trials.key_resp_3.duration,End_page.started,text_5.started,key_resp_4.started,End_page.stopped,key_resp_4.keys,key_resp_4.rt,key_resp_4.duration,participant,session,date,expName,psychopyVersion,frameRate,expStart,
,,,,,,,,,,,,0.019070800000918098,0.035378999993554316,0.035378999993554316,9.63665509999555,space,9.58989859999565,None,,,,,,,,,,,,,,,,,,,,,,,,,,,,,,,,,,,,,,,,,,,,,,,,,,,,,,,,,,,,,,,00019,001,2025-11-09_15h47.52.826,MST_test,2024.2.2,59.98760655690077,2025-11-09 15h48.06.404462 +0530,
,,,,,,,,,,,,,,,,,,,9.636682800002745,9.6517196999921,9.6517196999921,37.018173699994804,space,27.351589499987313,None,,,,,,,,,,,,,,,,,,,,,,,,,,,,,,,,,,,,,,,,,,,,,,,,,,,,,,,,00019,001,2025-11-09_15h47.52.826,MST_test,2024.2.2,59.98760655690077,2025-11-09 15h48.06.404462 +0530,
,,,,,,,,,,,,,,,,,,,,,,,,,,37.01820150000276,37.03454019999481,37.03454019999481,37.03454019999481,37.03454019999481,37.03454019999481,58.950987699994585,space,21.905964900011895,None,,,,,,,,,,,,,,,,,,,,,,,,,,,,,,,,,,,,,,,,,,,,,,00019,001,2025-11-09_15h47.52.826,MST_test,2024.2.2,59.98760655690077,2025-11-09 15h48.06.404462 +0530,
,,,,,,,,,,,,,,,,,,,,,,,,,,,,,,,,,,,,58.951016599996365,58.96732319999137,58.96732319999137,58.96732319999137,58.96732319999137,58.96732319999137,115.3000003999914,space,56.33223669999279,None,,,,,,,,,,,,,,,,,,,,,,,,,,,,,,,,,,,,00019,001,2025-11-09_15h47.52.826,MST_test,2024.2.2,59.98760655690077,2025-11-09 15h48.06.404462 +0530,
,,,,,,,,,,,,,,,,,,,,,,,,,,,,,,,,,,,,,,,,,,,,,,115.30002999999851,115.31607889999577,115.31607889999577,132.36601789999986,space,17.043518299993593,None,,,,,,,,,,,,,,,,,,,,,,,,,,,,,00019,001,2025-11-09_15h47.52.826,MST_test,2024.2.2,59.98760655690077,2025-11-09 15h48.06.404462 +0530,
,,,,,,,,,,,,,,,,,,,,,,,,,,,,,,,,,,,,,,,,,,,,,,,,,,,,,132.36604019999504,132.38238189999538,132.38238189999538,146.64934889999859,space,14.250727000006009,None,,,,,,,,,,,,,,,,,,,,,,00019,001,2025-11-09_15h47.52.826,MST_test,2024.2.2,59.98760655690077,2025-11-09 15h48.06.404462 +0530,
0,0,0,n,5.249563299992587,None,0,0,0,0,146.66540739999618,,,,,,,,,,,,,,,,,,,,,,,,,,,,,,,,,,,,,,,,,,,,,,,,,,146.65238769999996,146.66540739999618,147.18227380000462,147.14900629999465,147.1764298999915,147.18227380000462,147.18227380000462,147.18227380000462,152.43237619999854,Objects\066b.jpg,mid,n,5.249563299992587,None,,,,,,,,00019,001,2025-11-09_15h47.52.826,MST_test,2024.2.2,59.98760655690077,2025-11-09 15h48.06.404462 +0530,
1,0,1,o,7.3377719999989495,None,1,0,1,0,152.44861249999667,,,,,,,,,,,,,,,,,,,,,,,,,,,,,,,,,,,,,,,,,,,,,,,,,,152.43246559999534,152.44861249999667,152.9485635000019,152.9321992000041,152.9401194999955,152.9485635000019,152.9485635000019,152.9485635000019,160.29872869999963,Objects\005b.jpg,pre,o,7.3377719999989495,None,,,,,,,,00019,001,2025-11-09_15h47.52.826,MST_test,2024.2.2,59.98760655690077,2025-11-09 15h48.06.404462 +0530,
2,0,2,o,3.3286933000053978,None,2,0,2,0,160.31514009999228,,,,,,,,,,,,,,,,,,,,,,,,,,,,,,,,,,,,,,,,,,,,,,,,,,160.29892149999796,160.31514009999228,160.8150741999998,160.79878339999414,160.80657050000445,160.8150741999998,160.8150741999998,160.8150741999998,164.14871530000528,Objects\116b.jpg,pre,o,3.3286933000053978,None,,,,,,,,00019,001,2025-11-09_15h47.52.826,MST_test,2024.2.2,59.98760655690077,2025-11-09 15h48.06.404462 +0530,
3,0,3,s,4.093226199998753,None,3,0,3,0,164.16501779999817,,,,,,,,,,,,,,,,,,,,,,,,,,,,,,,,,,,,,,,,,,,,,,,,,,164.14879099999962,164.16501779999817,164.68167389999144,164.64854840000044,164.66044170000532,164.68167389999144,164.68167389999144,164.68167389999144,168.78199879999738,Scenes\179a.jpg,pre,s,4.093226199998753,None,,,,,,,,00019,001,2025-11-09_15h47.52.826,MST_test,2024.2.2,59.98760655690077,2025-11-09 15h48.06.404462 +0530,
4,0,4,o,3.812965399993118,None,4,0,4,0,168.79826359999424,,,,,,,,,,,,,,,,,,,,,,,,,,,,,,,,,,,,,,,,,,,,,,,,,,168.78208679999807,168.79826359999424,169.29845000000205,169.2818985000049,169.2919944000023,169.29845000000205,169.29845000000205,169.29845000000205,173.1153564999986,Scenes\044a.jpg,post,o,3.812965399993118,None,,,,,,,,00019,001,2025-11-09_15h47.52.826,MST_test,2024.2.2,59.98760655690077,2025-11-09 15h48.06.404462 +0530,
5,0,5,s,3.681729899995844,None,5,0,5,0,173.13146039999265,,,,,,,,,,,,,,,,,,,,,,,,,,,,,,,,,,,,,,,,,,,,,,,,,,173.1154502999998,173.13146039999265,173.68168910000531,173.61504259999492,173.65917620000255,173.68168910000531,173.68168910000531,173.68168910000531,177.36500999999407,Foils\scenes23.jpg,none,s,3.681729899995844,None,,,,,,,,00019,001,2025-11-09_15h47.52.826,MST_test,2024.2.2,59.98760655690077,2025-11-09 15h48.06.404462 +0530,
6,0,6,o,2.9138710999977775,None,6,0,6,0,177.38140060000296,,,,,,,,,,,,,,,,,,,,,,,,,,,,,,,,,,,,,,,,,,,,,,,,,,177.36510349999298,177.38140060000296,177.8816313999996,177.86494849999144,177.87522620000527,177.8816313999996,177.8816313999996,177.8816313999996,180.79841780000424,Objects\057a.jpg,post,o,2.9138710999977775,None,,,,,,,,00019,001,2025-11-09_15h47.52.826,MST_test,2024.2.2,59.98760655690077,2025-11-09 15h48.06.404462 +0530,
7,0,7,s,2.6936601999914274,None,7,0,7,0,180.81467669999984,,,,,,,,,,,,,,,,,,,,,,,,,,,,,,,,,,,,,,,,,,,,,,,,,,180.79850859999715,180.81467669999984,181.3312847999914,181.29818919999525,181.3139405999973,181.3312847999914,181.3312847999914,181.3312847999914,184.03155459999107,Objects\035b.jpg,pre,s,2.6936601999914274,None,,,,,,,,00019,001,2025-11-09_15h47.52.826,MST_test,2024.2.2,59.98760655690077,2025-11-09 15h48.06.404462 +0530,
8,0,8,s,5.168805400011479,None,8,0,8,0,184.04788899999403,,,,,,,,,,,,,,,,,,,,,,,,,,,,,,,,,,,,,,,,,,,,,,,,,,184.03164400000242,184.04788899999403,184.56482959999994,184.53141009999672,184.55614349999814,184.56482959999994,184.56482959999994,184.56482959999994,189.74815379999927,Scenes\127b.jpg,post,s,5.168805400011479,None,,,,,,,,00019,001,2025-11-09_15h47.52.826,MST_test,2024.2.2,59.98760655690077,2025-11-09 15h48.06.404462 +0530,
9,0,9,o,3.1577321000077063,None,9,0,9,0,189.76446619999479,,,,,,,,,,,,,,,,,,,,,,,,,,,,,,,,,,,,,,,,,,,,,,,,,,189.74824240000453,189.76446619999479,190.2980174999975,190.24801899999147,190.28267590000178,190.2980174999975,190.2980174999975,190.2980174999975,193.4647171999968,Scenes\023b.jpg,mid,o,3.1577321000077063,None,,,,,,,,00019,001,2025-11-09_15h47.52.826,MST_test,2024.2.2,59.98760655690077,2025-11-09 15h48.06.404462 +0530,
10,0,10,s,4.919370799994795,None,10,0,10,0,193.4810545999935,,,,,,,,,,,,,,,,,,,,,,,,,,,,,,,,,,,,,,,,,,,,,,,,,,193.46480119999615,193.4810545999935,193.9979350999929,193.9646131000045,193.98715509999602,193.9979350999929,193.9979350999929,193.9979350999929,198.93125860000146,Scenes\142a.jpg,pre,s,4.919370799994795,None,,,,,,,,00019,001,2025-11-09_15h47.52.826,MST_test,2024.2.2,59.98760655690077,2025-11-09 15h48.06.404462 +0530,
11,0,11,s,4.244687800004613,None,11,0,11,0,198.94760060000408,,,,,,,,,,,,,,,,,,,,,,,,,,,,,,,,,,,,,,,,,,,,,,,,,,198.9313339999935,198.94760060000408,199.44784369999252,199.43115869999747,199.44172600000456,199.44784369999252,199.44784369999252,199.44784369999252,203.69792079999752,Objects\099a.jpg,post,s,4.244687800004613,None,,,,,,,,00019,001,2025-11-09_15h47.52.826,MST_test,2024.2.2,59.98760655690077,2025-11-09 15h48.06.404462 +0530,
12,0,12,n,8.285731900003157,None,12,0,12,0,203.71415909999632,,,,,,,,,,,,,,,,,,,,,,,,,,,,,,,,,,,,,,,,,,,,,,,,,,203.69799830000557,203.71415909999632,204.23078589999932,204.19770019999123,204.21369039999263,204.23078589999932,204.23078589999932,204.23078589999932,212.53106539999135,Foils\018a.jpg,none,n,8.285731900003157,None,,,,,,,,00019,001,2025-11-09_15h47.52.826,MST_test,2024.2.2,59.98760655690077,2025-11-09 15h48.06.404462 +0530,
13,0,13,o,3.402759300006437,None,13,0,13,0,212.54730750000454,,,,,,,,,,,,,,,,,,,,,,,,,,,,,,,,,,,,,,,,,,,,,,,,,,212.53114999999525,212.54730750000454,213.08058490000258,213.03082869999344,213.0610444999911,213.08058490000258,213.08058490000258,213.08058490000258,216.49758989999827,Objects\006b.jpg,post,o,3.402759300006437,None,,,,,,,,00019,001,2025-11-09_15h47.52.826,MST_test,2024.2.2,59.98760655690077,2025-11-09 15h48.06.404462 +0530,
14,0,14,s,5.632979700007127,None,14,0,14,0,216.51389020000352,,,,,,,,,,,,,,,,,,,,,,,,,,,,,,,,,,,,,,,,,,,,,,,,,,216.49768329999642,216.51389020000352,217.03050739999162,216.99748259999615,217.01766159999534,217.03050739999162,217.03050739999162,217.03050739999162,222.66429519999656,Scenes\143a.jpg,post,s,5.632979700007127,None,,,,,,,,00019,001,2025-11-09_15h47.52.826,MST_test,2024.2.2,59.98760655690077,2025-11-09 15h48.06.404462 +0530,
15,0,15,n,1.7904988000082085,None,15,0,15,0,222.6804237000033,,,,,,,,,,,,,,,,,,,,,,,,,,,,,,,,,,,,,,,,,,,,,,,,,,222.66437460000452,222.6804237000033,223.19704070000444,223.16400289999729,223.18609740000102,223.19704070000444,223.19704070000444,223.19704070000444,224.9973927999963,Scenes\050b.jpg,mid,n,1.7904988000082085,None,,,,,,,,00019,001,2025-11-09_15h47.52.826,MST_test,2024.2.2,59.98760655690077,2025-11-09 15h48.06.404462 +0530,
16,0,16,n,1.5834573000029195,None,16,0,16,0,225.01367359999858,,,,,,,,,,,,,,,,,,,,,,,,,,,,,,,,,,,,,,,,,,,,,,,,,,224.99747010000283,225.01367359999858,225.53040909999982,225.49725679999392,225.51769359999162,225.53040909999982,225.53040909999982,225.53040909999982,227.11435350000102,Scenes\121a.jpg,post,n,1.5834573000029195,None,,,,,,,,00019,001,2025-11-09_15h47.52.826,MST_test,2024.2.2,59.98760655690077,2025-11-09 15h48.06.404462 +0530,
17,0,17,o,4.410608600010164,None,17,0,17,0,227.13030289999733,,,,,,,,,,,,,,,,,,,,,,,,,,,,,,,,,,,,,,,,,,,,,,,,,,227.11443259999214,227.13030289999733,227.64698150000186,227.61391770000046,227.63435949999257,227.64698150000186,227.64698150000186,227.64698150000186,232.06390039999678,Scenes\085a.jpg,post,o,4.410608600010164,None,,,,,,,,00019,001,2025-11-09_15h47.52.826,MST_test,2024.2.2,59.98760655690077,2025-11-09 15h48.06.404462 +0530,
18,0,18,o,8.674788399992394,None,18,0,18,0,232.08021729999746,,,,,,,,,,,,,,,,,,,,,,,,,,,,,,,,,,,,,,,,,,,,,,,,,,232.0639811000001,232.08021729999746,232.58017230000405,232.56379800000286,232.5737087000016,232.58017230000405,232.58017230000405,232.58017230000405,241.26363129999663,Objects\168a.jpg,mid,o,8.674788399992394,None,,,,,,,,00019,001,2025-11-09_15h47.52.826,MST_test,2024.2.2,59.98760655690077,2025-11-09 15h48.06.404462 +0530,
19,0,19,n,5.9108553000114625,None,19,0,19,0,241.2800089999946,,,,,,,,,,,,,,,,,,,,,,,,,,,,,,,,,,,,,,,,,,,,,,,,,,241.26371030000155,241.2800089999946,241.7966371999937,241.76356379999197,241.78102900000522,241.7966371999937,241.7966371999937,241.7966371999937,247.71372820000397,Foils\058a.jpg,none,n,5.9108553000114625,None,,,,,,,,00019,001,2025-11-09_15h47.52.826,MST_test,2024.2.2,59.98760655690077,2025-11-09 15h48.06.404462 +0530,
20,0,20,o,5.226839099996141,None,20,0,20,0,247.72995100000117,,,,,,,,,,,,,,,,,,,,,,,,,,,,,,,,,,,,,,,,,,,,,,,,,,247.7138111999957,247.72995100000117,248.24649849999696,248.21344239999598,248.24077370000305,248.24649849999696,248.24649849999696,248.24649849999696,253.48017609999806,Objects\127b.jpg,pre,o,5.226839099996141,None,,,,,,,,00019,001,2025-11-09_15h47.52.826,MST_test,2024.2.2,59.98760655690077,2025-11-09 15h48.06.404462 +0530,
21,0,21,o,2.163099699988379,None,21,0,21,0,253.49641890000203,,,,,,,,,,,,,,,,,,,,,,,,,,,,,,,,,,,,,,,,,,,,,,,,,,253.48026070000196,253.49641890000203,253.99637759999314,253.97996029999922,253.98985410000023,253.99637759999314,253.99637759999314,253.99637759999314,256.16346260000137,Objects\122a.jpg,post,o,2.163099699988379,None,,,,,,,,00019,001,2025-11-09_15h47.52.826,MST_test,2024.2.2,59.98760655690077,2025-11-09 15h48.06.404462 +0530,
22,0,22,n,4.594325400001253,None,22,0,22,0,256.1796864999924,,,,,,,,,,,,,,,,,,,,,,,,,,,,,,,,,,,,,,,,,,,,,,,,,,256.1635535999958,256.1796864999924,256.7132194000005,256.6632307999971,256.6962485999975,256.7132194000005,256.7132194000005,256.7132194000005,261.3132733999955,Foils\scenes27.jpg,none,n,4.594325400001253,None,,,,,,,,00019,001,2025-11-09_15h47.52.826,MST_test,2024.2.2,59.98760655690077,2025-11-09 15h48.06.404462 +0530,
23,0,23,n,3.683122500005993,None,23,0,23,0,261.32958510000026,,,,,,,,,,,,,,,,,,,,,,,,,,,,,,,,,,,,,,,,,,,,,,,,,,261.3133589999925,261.32958510000026,261.8464915999939,261.8130999999994,261.8359014000016,261.8464915999939,261.8464915999939,261.8464915999939,265.52993059999426,Scenes\090a.jpg,post,n,3.683122500005993,None,,,,,,,,00019,001,2025-11-09_15h47.52.826,MST_test,2024.2.2,59.98760655690077,2025-11-09 15h48.06.404462 +0530,
24,0,24,s,3.2944909000070766,None,24,0,24,0,265.54615660000127,,,,,,,,,,,,,,,,,,,,,,,,,,,,,,,,,,,,,,,,,,,,,,,,,,265.53001600000425,265.54615660000127,266.0628813999938,266.02971790000447,266.05743259999144,266.0628813999938,266.0628813999938,266.0628813999938,269.3630966000055,Scenes\189b.jpg,mid,s,3.2944909000070766,None,,,,,,,,00019,001,2025-11-09_15h47.52.826,MST_test,2024.2.2,59.98760655690077,2025-11-09 15h48.06.404462 +0530,
25,0,25,s,2.3293163000053028,None,25,0,25,0,269.3793871999951,,,,,,,,,,,,,,,,,,,,,,,,,,,,,,,,,,,,,,,,,,,,,,,,,,269.36317280000367,269.3793871999951,269.8963397000043,269.8629140999983,269.8798962000001,269.8963397000043,269.8963397000043,269.8963397000043,272.22959059999266,Foils\086a.jpg,none,s,2.3293163000053028,None,,,,,,,,00019,001,2025-11-09_15h47.52.826,MST_test,2024.2.2,59.98760655690077,2025-11-09 15h48.06.404462 +0530,
26,0,26,s,3.578911500007962,None,26,0,26,0,272.2460038999998,,,,,,,,,,,,,,,,,,,,,,,,,,,,,,,,,,,,,,,,,,,,,,,,,,272.2296787999949,272.2460038999998,272.746189700003,272.72956170000543,272.7352894999931,272.746189700003,272.746189700003,272.746189700003,276.3295819999912,Foils\scenes8.jpg,none,s,3.578911500007962,None,,,,,,,,00019,001,2025-11-09_15h47.52.826,MST_test,2024.2.2,59.98760655690077,2025-11-09 15h48.06.404462 +0530,
27,0,27,o,4.730710000003455,None,27,0,27,0,276.3459138000035,,,,,,,,,,,,,,,,,,,,,,,,,,,,,,,,,,,,,,,,,,,,,,,,,,276.3296609999961,276.3459138000035,276.8625727000035,276.8294687000016,276.8449663999927,276.8625727000035,276.8625727000035,276.8625727000035,281.5961556999973,Objects\060b.jpg,pre,o,4.730710000003455,None,,,,,,,,00019,001,2025-11-09_15h47.52.826,MST_test,2024.2.2,59.98760655690077,2025-11-09 15h48.06.404462 +0530,
28,0,28,o,1.6230577000096673,None,28,0,28,0,281.6124659000052,,,,,,,,,,,,,,,,,,,,,,,,,,,,,,,,,,,,,,,,,,,,,,,,,,281.5962433999957,281.6124659000052,282.1459939000051,282.09596659999806,282.1292800999945,282.1459939000051,282.1459939000051,282.1459939000051,283.7794175000017,Scenes\165b.jpg,post,o,1.6230577000096673,None,,,,,,,,00019,001,2025-11-09_15h47.52.826,MST_test,2024.2.2,59.98760655690077,2025-11-09 15h48.06.404462 +0530,
29,0,29,n,3.9027644000016153,None,29,0,29,0,283.7957208000007,,,,,,,,,,,,,,,,,,,,,,,,,,,,,,,,,,,,,,,,,,,,,,,,,,283.77950019999116,283.7957208000007,284.31262749999587,284.2792822000047,284.29459710000083,284.31262749999587,284.31262749999587,284.31262749999587,288.22923879999144,Scenes\157a.jpg,pre,n,3.9027644000016153,None,,,,,,,,00019,001,2025-11-09_15h47.52.826,MST_test,2024.2.2,59.98760655690077,2025-11-09 15h48.06.404462 +0530,
30,0,30,o,6.881854999999632,None,30,0,30,0,288.24566349999805,,,,,,,,,,,,,,,,,,,,,,,,,,,,,,,,,,,,,,,,,,,,,,,,,,288.2293146000011,288.24566349999805,288.7792410999973,288.7292068999959,288.7611901999917,288.7792410999973,288.7792410999973,288.7792410999973,295.6626241999911,Objects\022b.jpg,post,o,6.881854999999632,None,,,,,,,,00019,001,2025-11-09_15h47.52.826,MST_test,2024.2.2,59.98760655690077,2025-11-09 15h48.06.404462 +0530,
31,0,31,s,3.2725732999970205,None,31,0,31,0,295.6788349999988,,,,,,,,,,,,,,,,,,,,,,,,,,,,,,,,,,,,,,,,,,,,,,,,,,295.66270509999595,295.6788349999988,296.178780599992,296.16232629999286,296.1724972999946,296.178780599992,296.178780599992,296.178780599992,299.4624354999978,Objects\018a.jpg,mid,s,3.2725732999970205,None,,,,,,,,00019,001,2025-11-09_15h47.52.826,MST_test,2024.2.2,59.98760655690077,2025-11-09 15h48.06.404462 +0530,
32,0,32,n,2.8955232000007527,None,32,0,32,0,299.4787473000033,,,,,,,,,,,,,,,,,,,,,,,,,,,,,,,,,,,,,,,,,,,,,,,,,,299.46252119999554,299.4787473000033,300.012281000003,299.96222339999804,300.0051961999998,300.012281000003,300.012281000003,300.012281000003,302.9124531999987,Foils\scenes28.jpg,none,n,2.8955232000007527,None,,,,,,,,00019,001,2025-11-09_15h47.52.826,MST_test,2024.2.2,59.98760655690077,2025-11-09 15h48.06.404462 +0530,
33,0,33,o,2.2748634000017773,None,33,0,33,0,302.9287301000004,,,,,,,,,,,,,,,,,,,,,,,,,,,,,,,,,,,,,,,,,,,,,,,,,,302.9125447999977,302.9287301000004,303.4286315999925,303.4122153999924,303.4230561000004,303.4286315999925,303.4286315999925,303.4286315999925,305.71232049999526,Objects\148a.jpg,mid,o,2.2748634000017773,None,,,,,,,,00019,001,2025-11-09_15h47.52.826,MST_test,2024.2.2,59.98760655690077,2025-11-09 15h48.06.404462 +0530,
34,0,34,o,2.0344541000085883,None,34,0,34,0,305.7285841999983,,,,,,,,,,,,,,,,,,,,,,,,,,,,,,,,,,,,,,,,,,,,,,,,,,305.71241150000424,305.7285841999983,306.2451100000035,306.2121424999932,306.2414957000001,306.2451100000035,306.2451100000035,306.2451100000035,308.29547260000254,Objects\155b.jpg,mid,o,2.0344541000085883,None,,,,,,,,00019,001,2025-11-09_15h47.52.826,MST_test,2024.2.2,59.98760655690077,2025-11-09 15h48.06.404462 +0530,
35,0,35,o,10.787250599998515,None,35,0,35,0,308.3118966000038,,,,,,,,,,,,,,,,,,,,,,,,,,,,,,,,,,,,,,,,,,,,,,,,,,308.2955543999997,308.3118966000038,308.8118403999979,308.7953783999983,308.805051599993,308.8118403999979,308.8118403999979,308.8118403999979,319.6119788999931,Objects\075a.jpg,mid,o,10.787250599998515,None,,,,,,,,00019,001,2025-11-09_15h47.52.826,MST_test,2024.2.2,59.98760655690077,2025-11-09 15h48.06.404462 +0530,
36,0,36,n,1.5382607000065036,None,36,0,36,0,319.62831119999464,,,,,,,,,,,,,,,,,,,,,,,,,,,,,,,,,,,,,,,,,,,,,,,,,,319.6120785999956,319.62831119999464,320.16189970000414,320.11183910000545,320.14775960000406,320.16189970000414,320.16189970000414,320.16189970000414,321.71192359999986,Scenes\163b.jpg,pre,n,1.5382607000065036,None,,,,,,,,00019,001,2025-11-09_15h47.52.826,MST_test,2024.2.2,59.98760655690077,2025-11-09 15h48.06.404462 +0530,
37,0,37,n,0.924901200007298,None,37,0,37,0,321.7282620000042,,,,,,,,,,,,,,,,,,,,,,,,,,,,,,,,,,,,,,,,,,,,,,,,,,321.7120136000012,321.7282620000042,322.2284604000015,322.21187199999986,322.21874240000034,322.2284604000015,322.2284604000015,322.2284604000015,323.16197790000297,Foils\scenes14.jpg,none,n,0.924901200007298,None,,,,,,,,00019,001,2025-11-09_15h47.52.826,MST_test,2024.2.2,59.98760655690077,2025-11-09 15h48.06.404462 +0530,
38,0,38,s,2.485421999997925,None,38,0,38,0,323.1782475999935,,,,,,,,,,,,,,,,,,,,,,,,,,,,,,,,,,,,,,,,,,,,,,,,,,323.16205689999333,323.1782475999935,323.7117791999917,323.66177540000353,323.6948382999981,323.7117791999917,323.7117791999917,323.7117791999917,326.21184049999283,Scenes\170b.jpg,mid,s,2.485421999997925,None,,,,,,,,00019,001,2025-11-09_15h47.52.826,MST_test,2024.2.2,59.98760655690077,2025-11-09 15h48.06.404462 +0530,
39,0,39,o,1.6201948999951128,None,39,0,39,0,326.22816359999706,,,,,,,,,,,,,,,,,,,,,,,,,,,,,,,,,,,,,,,,,,,,,,,,,,326.2119229999953,326.22816359999706,326.7450620000018,326.7117108999955,326.73813820000214,326.7450620000018,326.7450620000018,326.7450620000018,328.3784463000047,Scenes\045a.jpg,post,o,1.6201948999951128,None,,,,,,,,00019,001,2025-11-09_15h47.52.826,MST_test,2024.2.2,59.98760655690077,2025-11-09 15h48.06.404462 +0530,
40,0,40,o,2.550211699999636,None,40,0,40,0,328.39479009999195,,,,,,,,,,,,,,,,,,,,,,,,,,,,,,,,,,,,,,,,,,,,,,,,,,328.3785318000009,328.39479009999195,328.9117039999983,328.87831830000505,328.8946977000014,328.9117039999983,328.9117039999983,328.9117039999983,331.4783854999987,Objects\084b.jpg,post,o,2.550211699999636,None,,,,,,,,00019,001,2025-11-09_15h47.52.826,MST_test,2024.2.2,59.98760655690077,2025-11-09 15h48.06.404462 +0530,
41,0,41,n,3.260135900010937,None,41,0,41,0,331.49472190000233,,,,,,,,,,,,,,,,,,,,,,,,,,,,,,,,,,,,,,,,,,,,,,,,,,331.4784714999987,331.49472190000233,332.0113438999979,331.97820409999986,331.9941955999966,332.0113438999979,332.0113438999979,332.0113438999979,335.27836909999314,Foils\009a.jpg,none,n,3.260135900010937,None,,,,,,,,00019,001,2025-11-09_15h47.52.826,MST_test,2024.2.2,59.98760655690077,2025-11-09 15h48.06.404462 +0530,
42,0,42,s,1.710181600006763,None,42,0,42,0,335.29464670000016,,,,,,,,,,,,,,,,,,,,,,,,,,,,,,,,,,,,,,,,,,,,,,,,,,335.27845919999527,335.29464670000016,335.8112640000036,335.7781099999993,335.8015990999993,335.8112640000036,335.8112640000036,335.8112640000036,337.528258499995,Objects\177b.jpg,post,s,1.710181600006763,None,,,,,,,,00019,001,2025-11-09_15h47.52.826,MST_test,2024.2.2,59.98760655690077,2025-11-09 15h48.06.404462 +0530,
43,0,43,n,2.3877875999896787,None,43,0,43,0,337.5445910999988,,,,,,,,,,,,,,,,,,,,,,,,,,,,,,,,,,,,,,,,,,,,,,,,,,337.5283403999929,337.5445910999988,338.0612375000055,338.0281025000004,338.04448300000513,338.0612375000055,338.0612375000055,338.0612375000055,340.4617098000017,Foils\105a.jpg,none,n,2.3877875999896787,None,,,,,,,,00019,001,2025-11-09_15h47.52.826,MST_test,2024.2.2,59.98760655690077,2025-11-09 15h48.06.404462 +0530,
44,0,44,o,1.6970218000060413,None,44,0,44,0,340.47791839999263,,,,,,,,,,,,,,,,,,,,,,,,,,,,,,,,,,,,,,,,,,,,,,,,,,340.46179709999706,340.47791839999263,340.99448120000307,340.96146900000167,340.97768870000436,340.99448120000307,340.99448120000307,340.99448120000307,342.69485479999275,Objects\136b.jpg,mid,o,1.6970218000060413,None,,,,,,,,00019,001,2025-11-09_15h47.52.826,MST_test,2024.2.2,59.98760655690077,2025-11-09 15h48.06.404462 +0530,
45,0,45,s,1.6683691999933217,None,45,0,45,0,342.7111481000029,,,,,,,,,,,,,,,,,,,,,,,,,,,,,,,,,,,,,,,,,,,,,,,,,,342.69493719999446,342.7111481000029,343.2448463000037,343.19458779999695,343.22688269999344,343.2448463000037,343.2448463000037,343.2448463000037,344.9280240999942,Scenes\120a.jpg,pre,s,1.6683691999933217,None,,,,,,,,00019,001,2025-11-09_15h47.52.826,MST_test,2024.2.2,59.98760655690077,2025-11-09 15h48.06.404462 +0530,
46,0,46,o,4.4666581000055885,None,46,0,46,0,344.94445959999575,,,,,,,,,,,,,,,,,,,,,,,,,,,,,,,,,,,,,,,,,,,,,,,,,,344.9280987999955,344.94445959999575,345.44438410000294,345.4280027999921,345.43813909999153,345.44438410000294,345.44438410000294,345.44438410000294,349.927975700004,Objects\010a.jpg,post,o,4.4666581000055885,None,,,,,,,,00019,001,2025-11-09_15h47.52.826,MST_test,2024.2.2,59.98760655690077,2025-11-09 15h48.06.404462 +0530,
47,0,47,n,2.333719900008873,None,47,0,47,0,349.9443284000008,,,,,,,,,,,,,,,,,,,,,,,,,,,,,,,,,,,,,,,,,,,,,,,,,,349.9280659999931,349.9443284000008,350.4611420000001,350.4278479999921,350.45454710000195,350.4611420000001,350.4611420000001,350.4611420000001,352.8112614999991,Scenes\096b.jpg,pre,n,2.333719900008873,None,,,,,,,,00019,001,2025-11-09_15h47.52.826,MST_test,2024.2.2,59.98760655690077,2025-11-09 15h48.06.404462 +0530,
48,0,48,s,1.866818599999533,None,48,0,48,0,352.8275902000023,,,,,,,,,,,,,,,,,,,,,,,,,,,,,,,,,,,,,,,,,,,,,,,,,,352.8113464000053,352.8275902000023,353.3442470000009,353.3111640999996,353.3269392999937,353.3442470000009,353.3442470000009,353.3442470000009,355.21150019999186,Objects\112b.jpg,pre,s,1.866818599999533,None,,,,,,,,00019,001,2025-11-09_15h47.52.826,MST_test,2024.2.2,59.98760655690077,2025-11-09 15h48.06.404462 +0530,
49,0,49,o,1.785796099997242,None,49,0,49,0,355.2275452000031,,,,,,,,,,,,,,,,,,,,,,,,,,,,,,,,,,,,,,,,,,,,,,,,,,355.211587400001,355.2275452000031,355.7274888999964,355.7111259999947,355.72113979999267,355.7274888999964,355.7274888999964,355.7274888999964,357.5278457999957,Objects\151a.jpg,pre,o,1.785796099997242,None,,,,,,,,00019,001,2025-11-09_15h47.52.826,MST_test,2024.2.2,59.98760655690077,2025-11-09 15h48.06.404462 +0530,
50,0,50,o,2.599111700008507,None,50,0,50,0,357.54418389999773,,,,,,,,,,,,,,,,,,,,,,,,,,,,,,,,,,,,,,,,,,,,,,,,,,357.5279337999964,357.54418389999773,358.0441387000028,358.0276303999999,358.03708650000044,358.0441387000028,358.0441387000028,358.0441387000028,360.64441929999157,Objects\187a.jpg,pre,o,2.599111700008507,None,,,,,,,,00019,001,2025-11-09_15h47.52.826,MST_test,2024.2.2,59.98760655690077,2025-11-09 15h48.06.404462 +0530,
51,0,51,o,3.1338370999874314,None,51,0,51,0,360.6607545000006,,,,,,,,,,,,,,,,,,,,,,,,,,,,,,,,,,,,,,,,,,,,,,,,,,360.6445090999914,360.6607545000006,361.17738409999583,361.1442406999995,361.16658999999345,361.17738409999583,361.17738409999583,361.17738409999583,364.3276246000023,Objects\008b.jpg,mid,o,3.1338370999874314,None,,,,,,,,00019,001,2025-11-09_15h47.52.826,MST_test,2024.2.2,59.98760655690077,2025-11-09 15h48.06.404462 +0530,
52,0,52,n,3.5419942000007723,None,52,0,52,0,364.3440036999964,,,,,,,,,,,,,,,,,,,,,,,,,,,,,,,,,,,,,,,,,,,,,,,,,,364.3277039999957,364.3440036999964,364.860863599999,364.82758369999647,364.84958449999976,364.860863599999,364.860863599999,364.860863599999,368.41084349999437,Scenes\024a.jpg,pre,n,3.5419942000007723,None,,,,,,,,00019,001,2025-11-09_15h47.52.826,MST_test,2024.2.2,59.98760655690077,2025-11-09 15h48.06.404462 +0530,
53,0,53,n,3.866222700002254,None,53,0,53,0,368.42726119999134,,,,,,,,,,,,,,,,,,,,,,,,,,,,,,,,,,,,,,,,,,,,,,,,,,368.4109286000021,368.42726119999134,368.92721059999894,368.9107284999918,368.9210197999928,368.92721059999894,368.92721059999894,368.92721059999894,372.7942003999924,Objects\027a.jpg,post,n,3.866222700002254,None,,,,,,,,00019,001,2025-11-09_15h47.52.826,MST_test,2024.2.2,59.98760655690077,2025-11-09 15h48.06.404462 +0530,
54,0,54,o,1.411954600000172,None,54,0,54,0,372.8105127000017,,,,,,,,,,,,,,,,,,,,,,,,,,,,,,,,,,,,,,,,,,,,,,,,,,372.7942844999925,372.8105127000017,373.32718829999794,373.2939855000004,373.31755839999823,373.32718829999794,373.32718829999794,373.32718829999794,374.74423739999474,Objects\039b.jpg,pre,o,1.411954600000172,None,,,,,,,,00019,001,2025-11-09_15h47.52.826,MST_test,2024.2.2,59.98760655690077,2025-11-09 15h48.06.404462 +0530,
55,0,55,s,2.0019125000108033,None,55,0,55,0,374.7604529999953,,,,,,,,,,,,,,,,,,,,,,,,,,,,,,,,,,,,,,,,,,,,,,,,,,374.74431840000034,374.7604529999953,375.2770700999972,375.24404589999176,375.2610710000008,375.2770700999972,375.2770700999972,375.2770700999972,377.2940729999973,Objects\028b.jpg,pre,s,2.0019125000108033,None,,,,,,,,00019,001,2025-11-09_15h47.52.826,MST_test,2024.2.2,59.98760655690077,2025-11-09 15h48.06.404462 +0530,
56,0,56,s,2.1206397999922046,None,56,0,56,0,377.31039749999763,,,,,,,,,,,,,,,,,,,,,,,,,,,,,,,,,,,,,,,,,,,,,,,,,,377.29415329999756,377.31039749999763,377.8604686000035,377.79400510000414,377.8449596999999,377.8604686000035,377.8604686000035,377.8604686000035,379.99390040000435,Scenes\113b.jpg,post,s,2.1206397999922046,None,,,,,,,,00019,001,2025-11-09_15h47.52.826,MST_test,2024.2.2,59.98760655690077,2025-11-09 15h48.06.404462 +0530,
57,0,57,n,1.9454782999964664,None,57,0,57,0,380.0103392000019,,,,,,,,,,,,,,,,,,,,,,,,,,,,,,,,,,,,,,,,,,,,,,,,,,379.99397450000106,380.0103392000019,380.5772428999917,380.493936999992,380.5604621999955,380.5772428999917,380.5772428999917,380.5772428999917,382.5273451999965,Foils\scenes15.jpg,none,n,1.9454782999964664,None,,,,,,,,00019,001,2025-11-09_15h47.52.826,MST_test,2024.2.2,59.98760655690077,2025-11-09 15h48.06.404462 +0530,
58,0,58,s,1.6603249000036158,None,58,0,58,0,382.5436117999925,,,,,,,,,,,,,,,,,,,,,,,,,,,,,,,,,,,,,,,,,,,,,,,,,,382.52743210000335,382.5436117999925,383.0605108000018,383.0271947000001,383.05340580000484,383.0605108000018,383.0605108000018,383.0605108000018,384.7273225999961,Objects\079b.jpg,post,s,1.6603249000036158,None,,,,,,,,00019,001,2025-11-09_15h47.52.826,MST_test,2024.2.2,59.98760655690077,2025-11-09 15h48.06.404462 +0530,
59,0,59,s,4.143171200004872,None,59,0,59,0,384.74355689999356,,,,,,,,,,,,,,,,,,,,,,,,,,,,,,,,,,,,,,,,,,,,,,,,,,384.7274083999946,384.74355689999356,385.26018870000553,385.22707189999346,385.25256900000386,385.26018870000553,385.26018870000553,385.26018870000553,389.4105478999991,Objects\153b.jpg,pre,s,4.143171200004872,None,,,,,,,,00019,001,2025-11-09_15h47.52.826,MST_test,2024.2.2,59.98760655690077,2025-11-09 15h48.06.404462 +0530,
60,0,60,o,1.5278857000084827,None,60,0,60,0,389.42679379999754,,,,,,,,,,,,,,,,,,,,,,,,,,,,,,,,,,,,,,,,,,,,,,,,,,389.4106400000019,389.42679379999754,389.9436391000054,389.9103805999912,389.93616699999257,389.9436391000054,389.9436391000054,389.9436391000054,391.47712789999787,Scenes\067b.jpg,post,o,1.5278857000084827,None,,,,,,,,00019,001,2025-11-09_15h47.52.826,MST_test,2024.2.2,59.98760655690077,2025-11-09 15h48.06.404462 +0530,
61,0,61,n,3.4624248999898555,None,61,0,61,0,391.4934224000026,,,,,,,,,,,,,,,,,,,,,,,,,,,,,,,,,,,,,,,,,,,,,,,,,,391.4772129000048,391.4934224000026,392.0102387999941,391.9769130999921,392.0004421999911,392.0102387999941,392.0102387999941,392.0102387999941,395.47708939999575,Foils\scenes19.jpg,none,n,3.4624248999898555,None,,,,,,,,00019,001,2025-11-09_15h47.52.826,MST_test,2024.2.2,59.98760655690077,2025-11-09 15h48.06.404462 +0530,
62,0,62,n,2.832880700007081,None,62,0,62,0,395.4933377999987,,,,,,,,,,,,,,,,,,,,,,,,,,,,,,,,,,,,,,,,,,,,,,,,,,395.4771744000027,395.4933377999987,396.0102726000041,395.9767759999959,395.9938975999976,396.0102726000041,396.0102726000041,396.0102726000041,398.84368199999153,Foils\057a.jpg,none,n,2.832880700007081,None,,,,,,,,00019,001,2025-11-09_15h47.52.826,MST_test,2024.2.2,59.98760655690077,2025-11-09 15h48.06.404462 +0530,
63,0,63,n,1.9640733999985969,None,63,0,63,0,398.85992909999914,,,,,,,,,,,,,,,,,,,,,,,,,,,,,,,,,,,,,,,,,,,,,,,,,,398.84376989999146,398.85992909999914,399.3767707999941,399.34357080000336,399.36557809999795,399.3767707999941,399.3767707999941,399.3767707999941,401.3435970999999,Scenes\054a.jpg,post,n,1.9640733999985969,None,,,,,,,,00019,001,2025-11-09_15h47.52.826,MST_test,2024.2.2,59.98760655690077,2025-11-09 15h48.06.404462 +0530,
64,0,64,o,2.190837599991937,None,64,0,64,0,401.3598764000053,,,,,,,,,,,,,,,,,,,,,,,,,,,,,,,,,,,,,,,,,,,,,,,,,,401.3436747999949,401.3598764000053,401.87652599999274,401.8433351999993,401.866348800002,401.87652599999274,401.87652599999274,401.87652599999274,404.0935264,Scenes\012a.jpg,pre,o,2.190837599991937,None,,,,,,,,00019,001,2025-11-09_15h47.52.826,MST_test,2024.2.2,59.98760655690077,2025-11-09 15h48.06.404462 +0530,
65,0,65,s,2.378922200005036,None,65,0,65,0,404.1098171000049,,,,,,,,,,,,,,,,,,,,,,,,,,,,,,,,,,,,,,,,,,,,,,,,,,404.0936142999999,404.1098171000049,404.62646620000305,404.59340889999294,404.6108166999911,404.62646620000305,404.62646620000305,404.62646620000305,407.01017379999394,Objects\105b.jpg,mid,s,2.378922200005036,None,,,,,,,,00019,001,2025-11-09_15h47.52.826,MST_test,2024.2.2,59.98760655690077,2025-11-09 15h48.06.404462 +0530,
66,0,66,s,3.2044883000053233,None,66,0,66,0,407.02645000000484,,,,,,,,,,,,,,,,,,,,,,,,,,,,,,,,,,,,,,,,,,,,,,,,,,407.01025859999936,407.02645000000484,407.5430772999971,407.51006040000357,407.5253778000042,407.5430772999971,407.5430772999971,407.5430772999971,410.76005579999764,Objects\041b.jpg,post,s,3.2044883000053233,None,,,,,,,,00019,001,2025-11-09_15h47.52.826,MST_test,2024.2.2,59.98760655690077,2025-11-09 15h48.06.404462 +0530,
67,0,67,s,2.611458899991703,None,67,0,67,0,410.77636489999713,,,,,,,,,,,,,,,,,,,,,,,,,,,,,,,,,,,,,,,,,,,,,,,,,,410.7601444000029,410.77636489999713,411.2762853000022,411.2598299999954,411.2692398999934,411.2762853000022,411.2762853000022,411.2762853000022,413.89322329999413,Objects\083a.jpg,pre,s,2.611458899991703,None,,,,,,,,00019,001,2025-11-09_15h47.52.826,MST_test,2024.2.2,59.98760655690077,2025-11-09 15h48.06.404462 +0530,
68,0,68,o,1.6474689000024227,None,68,0,68,0,413.9095701000042,,,,,,,,,,,,,,,,,,,,,,,,,,,,,,,,,,,,,,,,,,,,,,,,,,413.8933016999945,413.9095701000042,414.4095534999942,414.3930446000013,414.40279629999714,414.4095534999942,414.4095534999942,414.4095534999942,416.05996250000317,Objects\031a.jpg,mid,o,1.6474689000024227,None,,,,,,,,00019,001,2025-11-09_15h47.52.826,MST_test,2024.2.2,59.98760655690077,2025-11-09 15h48.06.404462 +0530,
69,0,69,n,1.4026863999897614,None,69,0,69,0,416.0762162000028,,,,,,,,,,,,,,,,,,,,,,,,,,,,,,,,,,,,,,,,,,,,,,,,,,416.06005699999514,416.0762162000028,416.5928827000025,416.5596852000017,416.575410999998,416.5928827000025,416.5928827000025,416.5928827000025,418.0098788000032,Foils\098a.jpg,none,n,1.4026863999897614,None,,,,,,,,00019,001,2025-11-09_15h47.52.826,MST_test,2024.2.2,59.98760655690077,2025-11-09 15h48.06.404462 +0530,
70,0,70,o,1.4393827000021702,None,70,0,70,0,418.0261795999977,,,,,,,,,,,,,,,,,,,,,,,,,,,,,,,,,,,,,,,,,,,,,,,,,,418.0099618999957,418.0261795999977,418.52614139999787,418.50972309999634,418.51915340000414,418.52614139999787,418.52614139999787,418.52614139999787,420.01399639999727,Objects\065a.jpg,post,o,1.4393827000021702,None,,,,,,,,00019,001,2025-11-09_15h47.52.826,MST_test,2024.2.2,59.98760655690077,2025-11-09 15h48.06.404462 +0530,
71,0,71,n,2.3689740000118036,None,71,0,71,0,420.0261621999962,,,,,,,,,,,,,,,,,,,,,,,,,,,,,,,,,,,,,,,,,,,,,,,,,,420.0140836999926,420.0261621999962,420.5428014999925,420.5095713000046,420.5373993999965,420.5428014999925,420.5428014999925,420.5428014999925,422.9264434999932,Scenes\029b.jpg,pre,n,2.3689740000118036,None,,,,,,,,00019,001,2025-11-09_15h47.52.826,MST_test,2024.2.2,59.98760655690077,2025-11-09 15h48.06.404462 +0530,
72,0,72,o,1.6356550000054995,None,72,0,72,0,422.94273890000477,,,,,,,,,,,,,,,,,,,,,,,,,,,,,,,,,,,,,,,,,,,,,,,,,,422.9265274999925,422.94273890000477,423.4593843000039,423.4263537999941,423.43665760000295,423.4593843000039,423.4593843000039,423.4593843000039,425.1097638999927,Objects\082a.jpg,post,o,1.6356550000054995,None,,,,,,,,00019,001,2025-11-09_15h47.52.826,MST_test,2024.2.2,59.98760655690077,2025-11-09 15h48.06.404462 +0530,
73,0,73,s,3.0286555999919074,None,73,0,73,0,425.12601520000317,,,,,,,,,,,,,,,,,,,,,,,,,,,,,,,,,,,,,,,,,,,,,,,,,,425.109844599996,425.12601520000317,425.6426495999913,425.6094585999963,425.6252223000047,425.6426495999913,425.6426495999913,425.6426495999913,428.6762361000001,Foils\066a.jpg,none,s,3.0286555999919074,None,,,,,,,,00019,001,2025-11-09_15h47.52.826,MST_test,2024.2.2,59.98760655690077,2025-11-09 15h48.06.404462 +0530,
74,0,74,o,1.5729022000014083,None,74,0,74,0,428.692618999994,,,,,,,,,,,,,,,,,,,,,,,,,,,,,,,,,,,,,,,,,,,,,,,,,,428.67631809999875,428.692618999994,429.19256589999713,429.1760753999988,429.1856884000008,429.19256589999713,429.19256589999713,429.19256589999713,430.7762081999972,Objects\129a.jpg,pre,o,1.5729022000014083,None,,,,,,,,00019,001,2025-11-09_15h47.52.826,MST_test,2024.2.2,59.98760655690077,2025-11-09 15h48.06.404462 +0530,
75,0,75,s,4.048396600002889,None,75,0,75,0,430.7925707999966,,,,,,,,,,,,,,,,,,,,,,,,,,,,,,,,,,,,,,,,,,,,,,,,,,430.7762922999973,430.7925707999966,431.3092156999919,431.27612229999795,431.29500199999893,431.3092156999919,431.3092156999919,431.3092156999919,435.3595522999967,Scenes\141a.jpg,mid,s,4.048396600002889,None,,,,,,,,00019,001,2025-11-09_15h47.52.826,MST_test,2024.2.2,59.98760655690077,2025-11-09 15h48.06.404462 +0530,
76,0,76,o,3.179095599989523,None,76,0,76,0,435.3758100999985,,,,,,,,,,,,,,,,,,,,,,,,,,,,,,,,,,,,,,,,,,,,,,,,,,435.3596402999974,435.3758100999985,435.89262769999914,435.85923059999186,435.88073079999594,435.89262769999914,435.89262769999914,435.89262769999914,439.0761100999953,Scenes\087b.jpg,post,o,3.179095599989523,None,,,,,,,,00019,001,2025-11-09_15h47.52.826,MST_test,2024.2.2,59.98760655690077,2025-11-09 15h48.06.404462 +0530,
77,0,77,s,1.8368696000106866,None,77,0,77,0,439.0923948999989,,,,,,,,,,,,,,,,,,,,,,,,,,,,,,,,,,,,,,,,,,,,,,,,,,439.07620080000197,439.0923948999989,439.6090075999964,439.57588730000134,439.60040070000105,439.6090075999964,439.6090075999964,439.6090075999964,441.45925569999963,Scenes\074b.jpg,pre,s,1.8368696000106866,None,,,,,,,,00019,001,2025-11-09_15h47.52.826,MST_test,2024.2.2,59.98760655690077,2025-11-09 15h48.06.404462 +0530,
78,0,78,n,1.4115137000044342,None,78,0,78,0,441.47567079999135,,,,,,,,,,,,,,,,,,,,,,,,,,,,,,,,,,,,,,,,,,,,,,,,,,441.45933440000226,441.47567079999135,441.97591409999586,441.9591216999979,441.96973369999614,441.97591409999586,441.97591409999586,441.97591409999586,443.3926066999993,Objects\180a.jpg,mid,n,1.4115137000044342,None,,,,,,,,00019,001,2025-11-09_15h47.52.826,MST_test,2024.2.2,59.98760655690077,2025-11-09 15h48.06.404462 +0530,
79,0,79,o,1.7221805000008317,None,79,0,79,0,443.40898999999627,,,,,,,,,,,,,,,,,,,,,,,,,,,,,,,,,,,,,,,,,,,,,,,,,,443.3926875000034,443.40898999999627,443.92562359999283,443.89244929999404,443.90788109999266,443.92562359999283,443.92562359999283,443.92562359999283,445.6592929000035,Objects\038b.jpg,post,o,1.7221805000008317,None,,,,,,,,00019,001,2025-11-09_15h47.52.826,MST_test,2024.2.2,59.98760655690077,2025-11-09 15h48.06.404462 +0530,
80,0,80,o,3.3721968999889214,None,80,0,80,0,445.67557930000476,,,,,,,,,,,,,,,,,,,,,,,,,,,,,,,,,,,,,,,,,,,,,,,,,,445.6593686999986,445.67557930000476,446.17555630000425,446.15916009999637,446.1688021000009,446.17555630000425,446.17555630000425,446.17555630000425,449.55917469999986,Objects\032a.jpg,pre,o,3.3721968999889214,None,,,,,,,,00019,001,2025-11-09_15h47.52.826,MST_test,2024.2.2,59.98760655690077,2025-11-09 15h48.06.404462 +0530,
81,0,81,s,1.819158199999947,None,81,0,81,0,449.5755020999932,,,,,,,,,,,,,,,,,,,,,,,,,,,,,,,,,,,,,,,,,,,,,,,,,,449.559250899998,449.5755020999932,450.0921165000036,450.05899829999544,450.07571160000225,450.0921165000036,450.0921165000036,450.0921165000036,451.9257551000046,Objects\133b.jpg,pre,s,1.819158199999947,None,,,,,,,,00019,001,2025-11-09_15h47.52.826,MST_test,2024.2.2,59.98760655690077,2025-11-09 15h48.06.404462 +0530,
82,0,82,s,1.6587547999952221,None,82,0,82,0,451.94210909999674,,,,,,,,,,,,,,,,,,,,,,,,,,,,,,,,,,,,,,,,,,,,,,,,,,451.9258453999937,451.94210909999674,452.4587349999929,452.42565869999817,452.4414504000015,452.4587349999929,452.4587349999929,452.4587349999929,454.12578879999637,Objects\042b.jpg,post,s,1.6587547999952221,None,,,,,,,,00019,001,2025-11-09_15h47.52.826,MST_test,2024.2.2,59.98760655690077,2025-11-09 15h48.06.404462 +0530,
83,0,83,n,1.520165400012047,None,83,0,83,0,454.1420605000021,,,,,,,,,,,,,,,,,,,,,,,,,,,,,,,,,,,,,,,,,,,,,,,,,,454.12587989999156,454.1420605000021,454.6755948999926,454.62561679999635,454.6589927000023,454.6755948999926,454.6755948999926,454.6755948999926,456.2090300999989,Scenes\181b.jpg,mid,n,1.520165400012047,None,,,,,,,,00019,001,2025-11-09_15h47.52.826,MST_test,2024.2.2,59.98760655690077,2025-11-09 15h48.06.404462 +0530,
84,0,84,n,1.7950420000124723,None,84,0,84,0,456.22533380000095,,,,,,,,,,,,,,,,,,,,,,,,,,,,,,,,,,,,,,,,,,,,,,,,,,456.2091182000004,456.22533380000095,456.7421774999966,456.7089280999935,456.73254169999564,456.7421774999966,456.7421774999966,456.7421774999966,458.54229899999336,Scenes\126b.jpg,mid,n,1.7950420000124723,None,,,,,,,,00019,001,2025-11-09_15h47.52.826,MST_test,2024.2.2,59.98760655690077,2025-11-09 15h48.06.404462 +0530,
85,0,85,o,1.882901100005256,None,85,0,85,0,458.55866710000555,,,,,,,,,,,,,,,,,,,,,,,,,,,,,,,,,,,,,,,,,,,,,,,,,,458.54238780000014,458.55866710000555,459.05887890000304,459.042160099998,459.05266299999494,459.05887890000304,459.05887890000304,459.05887890000304,460.9423812000023,Objects\184a.jpg,mid,o,1.882901100005256,None,,,,,,,,00019,001,2025-11-09_15h47.52.826,MST_test,2024.2.2,59.98760655690077,2025-11-09 15h48.06.404462 +0530,
86,0,86,s,1.800489600005676,None,86,0,86,0,460.95858609999414,,,,,,,,,,,,,,,,,,,,,,,,,,,,,,,,,,,,,,,,,,,,,,,,,,460.94246320000093,460.95858609999414,461.47520459999214,461.4420592999959,461.4585617999983,461.47520459999214,461.47520459999214,461.47520459999214,463.29220599999826,Objects\085b.jpg,pre,s,1.800489600005676,None,,,,,,,,00019,001,2025-11-09_15h47.52.826,MST_test,2024.2.2,59.98760655690077,2025-11-09 15h48.06.404462 +0530,
87,0,87,n,1.3177277000067988,None,87,0,87,0,463.3086443999928,,,,,,,,,,,,,,,,,,,,,,,,,,,,,,,,,,,,,,,,,,,,,,,,,,463.29229179999675,463.3086443999928,463.82515999999305,463.79212410000036,463.8150333999947,463.82515999999305,463.82515999999305,463.82515999999305,465.15885379999236,Scenes\144b.jpg,pre,n,1.3177277000067988,None,,,,,,,,00019,001,2025-11-09_15h47.52.826,MST_test,2024.2.2,59.98760655690077,2025-11-09 15h48.06.404462 +0530,
88,0,88,s,1.1584526000078768,None,88,0,88,0,465.1751212999952,,,,,,,,,,,,,,,,,,,,,,,,,,,,,,,,,,,,,,,,,,,,,,,,,,465.1589379999932,465.1751212999952,465.69178150000516,465.658700400003,465.6750772999949,465.69178150000516,465.69178150000516,465.69178150000516,466.8588540000055,Foils\034a.jpg,none,s,1.1584526000078768,None,,,,,,,,00019,001,2025-11-09_15h47.52.826,MST_test,2024.2.2,59.98760655690077,2025-11-09 15h48.06.404462 +0530,
89,0,89,o,1.5040317999955732,None,89,0,89,0,466.8751301000011,,,,,,,,,,,,,,,,,,,,,,,,,,,,,,,,,,,,,,,,,,,,,,,,,,466.85893499999656,466.8751301000011,467.3752614999976,467.358785000004,467.3672685999918,467.3752614999976,467.3752614999976,467.3752614999976,468.89199960000406,Scenes\097a.jpg,pre,o,1.5040317999955732,None,,,,,,,,00019,001,2025-11-09_15h47.52.826,MST_test,2024.2.2,59.98760655690077,2025-11-09 15h48.06.404462 +0530,
90,0,90,n,3.404213500005426,None,90,0,90,0,468.9085381000041,,,,,,,,,,,,,,,,,,,,,,,,,,,,,,,,,,,,,,,,,,,,,,,,,,468.892081900005,468.9085381000041,469.5252410999965,469.39197699999204,469.5004273999948,469.5252410999965,469.5252410999965,469.5252410999965,472.9420526000031,Foils\scenes25.jpg,none,n,3.404213500005426,None,,,,,,,,00019,001,2025-11-09_15h47.52.826,MST_test,2024.2.2,59.98760655690077,2025-11-09 15h48.06.404462 +0530,
91,0,91,s,2.4343713999987813,None,91,0,91,0,472.95831659999385,,,,,,,,,,,,,,,,,,,,,,,,,,,,,,,,,,,,,,,,,,,,,,,,,,472.9421369000047,472.95831659999385,473.47500940000464,473.44197420000273,473.4604007000016,473.47500940000464,473.47500940000464,473.47500940000464,475.92526809999254,Objects\033b.jpg,post,s,2.4343713999987813,None,,,,,,,,00019,001,2025-11-09_15h47.52.826,MST_test,2024.2.2,59.98760655690077,2025-11-09 15h48.06.404462 +0530,
92,0,92,o,4.037191199997324,None,92,0,92,0,475.9416118999943,,,,,,,,,,,,,,,,,,,,,,,,,,,,,,,,,,,,,,,,,,,,,,,,,,475.9253536000033,475.9416118999943,476.4584490999987,476.4250815999985,476.4460546000046,476.4584490999987,476.4584490999987,476.4584490999987,480.50852119999763,Scenes\070a.jpg,mid,o,4.037191199997324,None,,,,,,,,00019,001,2025-11-09_15h47.52.826,MST_test,2024.2.2,59.98760655690077,2025-11-09 15h48.06.404462 +0530,
93,0,93,o,1.1520826000050874,None,93,0,93,0,480.5248212000006,,,,,,,,,,,,,,,,,,,,,,,,,,,,,,,,,,,,,,,,,,,,,,,,,,480.50859699999273,480.5248212000006,481.0414421000023,481.00825250000344,481.028799599997,481.0414421000023,481.0414421000023,481.0414421000023,482.20845920000284,Scenes\055a.jpg,mid,o,1.1520826000050874,None,,,,,,,,00019,001,2025-11-09_15h47.52.826,MST_test,2024.2.2,59.98760655690077,2025-11-09 15h48.06.404462 +0530,
94,0,94,n,1.083594700001413,None,94,0,94,0,482.2247885999968,,,,,,,,,,,,,,,,,,,,,,,,,,,,,,,,,,,,,,,,,,,,,,,,,,482.2085362999933,482.2247885999968,482.7416809999995,482.7082470000023,482.7260837999929,482.7416809999995,482.7416809999995,482.7416809999995,483.8417924999958,Foils\scenes30.jpg,none,n,1.083594700001413,None,,,,,,,,00019,001,2025-11-09_15h47.52.826,MST_test,2024.2.2,59.98760655690077,2025-11-09 15h48.06.404462 +0530,
95,0,95,o,1.4829697999957716,None,95,0,95,0,483.85811549999926,,,,,,,,,,,,,,,,,,,,,,,,,,,,,,,,,,,,,,,,,,,,,,,,,,483.84187029999157,483.85811549999926,484.3582335999963,484.3415895999933,484.3513457999943,484.3582335999963,484.3582335999963,484.3582335999963,485.84179789999325,Objects\128a.jpg,pre,o,1.4829697999957716,None,,,,,,,,00019,001,2025-11-09_15h47.52.826,MST_test,2024.2.2,59.98760655690077,2025-11-09 15h48.06.404462 +0530,
96,0,96,o,1.2510573999898043,None,96,0,96,0,485.85806589999993,,,,,,,,,,,,,,,,,,,,,,,,,,,,,,,,,,,,,,,,,,,,,,,,,,485.8418726999953,485.85806589999993,486.3746630999958,486.34162659999856,486.3626007999992,486.3746630999958,486.3746630999958,486.3746630999958,487.64165360000334,Scenes\040a.jpg,pre,o,1.2510573999898043,None,,,,,,,,00019,001,2025-11-09_15h47.52.826,MST_test,2024.2.2,59.98760655690077,2025-11-09 15h48.06.404462 +0530,
97,0,97,s,1.382524700005888,None,97,0,97,0,487.65800379999564,,,,,,,,,,,,,,,,,,,,,,,,,,,,,,,,,,,,,,,,,,,,,,,,,,487.64172719999624,487.65800379999564,488.17462789999263,488.14145439999993,488.16843629999494,488.17462789999263,488.17462789999263,488.17462789999263,489.558280199999,Scenes\150b.jpg,mid,s,1.382524700005888,None,,,,,,,,00019,001,2025-11-09_15h47.52.826,MST_test,2024.2.2,59.98760655690077,2025-11-09 15h48.06.404462 +0530,
98,0,98,o,2.549832899996545,None,98,0,98,0,489.57465680000314,,,,,,,,,,,,,,,,,,,,,,,,,,,,,,,,,,,,,,,,,,,,,,,,,,489.5583620999969,489.57465680000314,490.09140760000446,490.05821119999746,490.08669250000094,490.09140760000446,490.09140760000446,490.09140760000446,492.6416198999941,Scenes\031b.jpg,mid,o,2.549832899996545,None,,,,,,,,00019,001,2025-11-09_15h47.52.826,MST_test,2024.2.2,59.98760655690077,2025-11-09 15h48.06.404462 +0530,
99,0,99,n,1.5111524000094505,None,99,0,99,0,492.65789249999216,,,,,,,,,,,,,,,,,,,,,,,,,,,,,,,,,,,,,,,,,,,,,,,,,,492.64170749999175,492.65789249999216,493.1582477000047,493.14136559999315,493.15130499999213,493.1582477000047,493.1582477000047,493.1582477000047,494.6748404999962,Objects\047a.jpg,mid,n,1.5111524000094505,None,,,,,,,,00019,001,2025-11-09_15h47.52.826,MST_test,2024.2.2,59.98760655690077,2025-11-09 15h48.06.404462 +0530,
100,0,100,o,1.2500222999951802,None,100,0,100,0,494.69118339999113,,,,,,,,,,,,,,,,,,,,,,,,,,,,,,,,,,,,,,,,,,,,,,,,,,494.67492380000476,494.69118339999113,495.19113829999696,495.1747808999935,495.18479469999147,495.19113829999696,495.19113829999696,495.19113829999696,496.44152350000513,Objects\149a.jpg,pre,o,1.2500222999951802,None,,,,,,,,00019,001,2025-11-09_15h47.52.826,MST_test,2024.2.2,59.98760655690077,2025-11-09 15h48.06.404462 +0530,
101,0,101,n,2.21678270000848,None,101,0,101,0,496.45781569999235,,,,,,,,,,,,,,,,,,,,,,,,,,,,,,,,,,,,,,,,,,,,,,,,,,496.4416033000016,496.45781569999235,496.97443689999636,496.94132709999394,496.9595300999936,496.97443689999636,496.97443689999636,496.97443689999636,499.191593800002,Foils\074a.jpg,none,n,2.21678270000848,None,,,,,,,,00019,001,2025-11-09_15h47.52.826,MST_test,2024.2.2,59.98760655690077,2025-11-09 15h48.06.404462 +0530,
102,0,102,o,3.36664410000958,None,102,0,102,0,499.2077458999993,,,,,,,,,,,,,,,,,,,,,,,,,,,,,,,,,,,,,,,,,,,,,,,,,,499.19166810000024,499.2077458999993,499.7243765000021,499.69126959999267,499.7167139999947,499.7243765000021,499.7243765000021,499.7243765000021,503.0914072000014,Scenes\137b.jpg,pre,o,3.36664410000958,None,,,,,,,,00019,001,2025-11-09_15h47.52.826,MST_test,2024.2.2,59.98760655690077,2025-11-09 15h48.06.404462 +0530,
103,0,103,o,6.79876659999718,None,103,0,103,0,503.10766650000005,,,,,,,,,,,,,,,,,,,,,,,,,,,,,,,,,,,,,,,,,,,,,,,,,,503.091485500001,503.10766650000005,503.6409827000025,503.59117899999546,503.62246899999445,503.6409827000025,503.6409827000025,503.6409827000025,510.4412128999975,Scenes\187b.jpg,mid,o,6.79876659999718,None,,,,,,,,00019,001,2025-11-09_15h47.52.826,MST_test,2024.2.2,59.98760655690077,2025-11-09 15h48.06.404462 +0530,
104,0,104,o,1.1459423000051174,None,104,0,104,0,510.457476399999,,,,,,,,,,,,,,,,,,,,,,,,,,,,,,,,,,,,,,,,,,,,,,,,,,510.44129339999927,510.457476399999,510.973756899999,510.94104370000423,510.9677808999986,510.973756899999,510.973756899999,510.973756899999,512.1245439000049,Scenes\146b.jpg,post,o,1.1459423000051174,None,,,,,,,,00019,001,2025-11-09_15h47.52.826,MST_test,2024.2.2,59.98760655690077,2025-11-09 15h48.06.404462 +0530,
105,0,105,s,1.7258998000033898,None,105,0,105,0,512.140805499992,,,,,,,,,,,,,,,,,,,,,,,,,,,,,,,,,,,,,,,,,,,,,,,,,,512.1246291999996,512.140805499992,512.657621499995,512.6242819000036,512.6507129999954,512.657621499995,512.657621499995,512.657621499995,514.3911315000005,Scenes\088a.jpg,post,s,1.7258998000033898,None,,,,,,,,00019,001,2025-11-09_15h47.52.826,MST_test,2024.2.2,59.98760655690077,2025-11-09 15h48.06.404462 +0530,
106,0,106,s,1.865842100000009,None,106,0,106,0,514.4074181000033,,,,,,,,,,,,,,,,,,,,,,,,,,,,,,,,,,,,,,,,,,,,,,,,,,514.3912166999944,514.4074181000033,514.9075892999972,514.8909256000043,514.903014800002,514.9075892999972,514.9075892999972,514.9075892999972,516.7744540999993,Foils\scenes1.jpg,none,s,1.865842100000009,None,,,,,,,,00019,001,2025-11-09_15h47.52.826,MST_test,2024.2.2,59.98760655690077,2025-11-09 15h48.06.404462 +0530,
107,0,107,s,3.810821799997939,None,107,0,107,0,516.7907473999949,,,,,,,,,,,,,,,,,,,,,,,,,,,,,,,,,,,,,,,,,,,,,,,,,,516.7745377999963,516.7907473999949,517.290863400005,517.2741758000047,517.2842994999955,517.290863400005,517.290863400005,517.290863400005,521.1075814999931,Objects\053a.jpg,mid,s,3.810821799997939,None,,,,,,,,00019,001,2025-11-09_15h47.52.826,MST_test,2024.2.2,59.98760655690077,2025-11-09 15h48.06.404462 +0530,
108,0,108,o,1.9778823000087868,None,108,0,108,0,521.1239687999914,,,,,,,,,,,,,,,,,,,,,,,,,,,,,,,,,,,,,,,,,,,,,,,,,,521.1076591000019,521.1239687999914,521.6239012000005,521.6075965999917,521.6175841999939,521.6239012000005,521.6239012000005,521.6239012000005,523.6076031999983,Objects\104a.jpg,pre,o,1.9778823000087868,None,,,,,,,,00019,001,2025-11-09_15h47.52.826,MST_test,2024.2.2,59.98760655690077,2025-11-09 15h48.06.404462 +0530,
109,0,109,n,5.565124500004458,None,109,0,109,0,523.6238819999999,,,,,,,,,,,,,,,,,,,,,,,,,,,,,,,,,,,,,,,,,,,,,,,,,,523.6076856,523.6238819999999,524.1405139999988,524.107456400001,524.123769999991,524.1405139999988,524.1405139999988,524.1405139999988,529.7074867000047,Foils\090a.jpg,none,n,5.565124500004458,None,,,,,,,,00019,001,2025-11-09_15h47.52.826,MST_test,2024.2.2,59.98760655690077,2025-11-09 15h48.06.404462 +0530,
110,0,110,s,2.652934700003243,None,110,0,110,0,529.7237575000036,,,,,,,,,,,,,,,,,,,,,,,,,,,,,,,,,,,,,,,,,,,,,,,,,,529.7075655999943,529.7237575000036,530.2406405999936,530.2073624000041,530.2239208999963,530.2406405999936,530.2406405999936,530.2406405999936,532.9073732999968,Scenes\132a.jpg,pre,s,2.652934700003243,None,,,,,,,,00019,001,2025-11-09_15h47.52.826,MST_test,2024.2.2,59.98760655690077,2025-11-09 15h48.06.404462 +0530,
111,0,111,o,5.3834787999949185,None,111,0,111,0,532.9236881999968,,,,,,,,,,,,,,,,,,,,,,,,,,,,,,,,,,,,,,,,,,,,,,,,,,532.907455499997,532.9236881999968,533.4403209000011,533.4071927000041,533.4289206999965,533.4403209000011,533.4403209000011,533.4403209000011,538.8404612000013,Scenes\062a.jpg,post,o,5.3834787999949185,None,,,,,,,,00019,001,2025-11-09_15h47.52.826,MST_test,2024.2.2,59.98760655690077,2025-11-09 15h48.06.404462 +0530,
112,0,112,n,2.717538999990211,None,112,0,112,0,538.8568945000006,,,,,,,,,,,,,,,,,,,,,,,,,,,,,,,,,,,,,,,,,,,,,,,,,,538.8405462999945,538.8568945000006,539.3737278000044,539.3404538000032,539.3632730999961,539.3737278000044,539.3737278000044,539.3737278000044,542.1071503999992,Scenes\176b.jpg,pre,n,2.717538999990211,None,,,,,,,,00019,001,2025-11-09_15h47.52.826,MST_test,2024.2.2,59.98760655690077,2025-11-09 15h48.06.404462 +0530,
113,0,113,n,3.6200597999995807,None,113,0,113,0,542.1235248000012,,,,,,,,,,,,,,,,,,,,,,,,,,,,,,,,,,,,,,,,,,,,,,,,,,542.1072352000047,542.1235248000012,542.6237208999955,542.6070696999959,542.6191906000022,542.6237208999955,542.6237208999955,542.6237208999955,546.2570980000019,Foils\scenes5.jpg,none,n,3.6200597999995807,None,,,,,,,,00019,001,2025-11-09_15h47.52.826,MST_test,2024.2.2,59.98760655690077,2025-11-09 15h48.06.404462 +0530,
114,0,114,n,2.001349800004391,None,114,0,114,0,546.2733932999981,,,,,,,,,,,,,,,,,,,,,,,,,,,,,,,,,,,,,,,,,,,,,,,,,,546.257179799999,546.2733932999981,546.7903074999922,546.7570402999991,546.7735897999955,546.7903074999922,546.7903074999922,546.7903074999922,548.8070834999962,Foils\081a.jpg,none,n,2.001349800004391,None,,,,,,,,00019,001,2025-11-09_15h47.52.826,MST_test,2024.2.2,59.98760655690077,2025-11-09 15h48.06.404462 +0530,
115,0,115,n,3.1854198000073666,None,115,0,115,0,548.8233020000043,,,,,,,,,,,,,,,,,,,,,,,,,,,,,,,,,,,,,,,,,,,,,,,,,,548.8071742000029,548.8233020000043,549.3235060000006,549.3068656999967,549.3186822999996,549.3235060000006,549.3235060000006,549.3235060000006,552.523591899997,Foils\scenes6.jpg,none,n,3.1854198000073666,None,,,,,,,,00019,001,2025-11-09_15h47.52.826,MST_test,2024.2.2,59.98760655690077,2025-11-09 15h48.06.404462 +0530,
116,0,116,n,4.086957599996822,None,116,0,116,0,552.539933299995,,,,,,,,,,,,,,,,,,,,,,,,,,,,,,,,,,,,,,,,,,,,,,,,,,552.5236785000016,552.539933299995,553.0568432,553.0234953000036,553.0473979999952,553.0568432,553.0568432,553.0568432,557.156757299992,Scenes\095a.jpg,mid,n,4.086957599996822,None,,,,,,,,00019,001,2025-11-09_15h47.52.826,MST_test,2024.2.2,59.98760655690077,2025-11-09 15h48.06.404462 +0530,
117,0,117,n,2.301478199995472,None,117,0,117,0,557.1731675000046,,,,,,,,,,,,,,,,,,,,,,,,,,,,,,,,,,,,,,,,,,,,,,,,,,557.156842700002,557.1731675000046,557.6900695999939,557.6567249999935,557.674783800001,557.6900695999939,557.6900695999939,557.6900695999939,560.0067794999923,Scenes\118a.jpg,post,n,2.301478199995472,None,,,,,,,,00019,001,2025-11-09_15h47.52.826,MST_test,2024.2.2,59.98760655690077,2025-11-09 15h48.06.404462 +0530,
118,0,118,n,0.7814568000030704,None,118,0,118,0,560.0231039999926,,,,,,,,,,,,,,,,,,,,,,,,,,,,,,,,,,,,,,,,,,,,,,,,,,560.0068700999982,560.0231039999926,560.540035500002,560.5067644999945,560.5334098000021,560.540035500002,560.540035500002,560.540035500002,561.3234806999972,Objects\183b.jpg,post,n,0.7814568000030704,None,,,,,,,,00019,001,2025-11-09_15h47.52.826,MST_test,2024.2.2,59.98760655690077,2025-11-09 15h48.06.404462 +0530,
119,0,119,o,3.0710869999893475,None,119,0,119,0,561.3397629999963,,,,,,,,,,,,,,,,,,,,,,,,,,,,,,,,,,,,,,,,,,,,,,,,,,561.323562199992,561.3397629999963,561.8563891999947,561.8232879999996,561.850159499998,561.8563891999947,561.8563891999947,561.8563891999947,564.9400315999956,Objects\087b.jpg,mid,o,3.0710869999893475,None,,,,,,,,00019,001,2025-11-09_15h47.52.826,MST_test,2024.2.2,59.98760655690077,2025-11-09 15h48.06.404462 +0530,
120,0,120,s,2.764492900008918,None,120,0,120,0,564.9563306000055,,,,,,,,,,,,,,,,,,,,,,,,,,,,,,,,,,,,,,,,,,,,,,,,,,564.9401154999941,564.9563306000055,565.4727368000022,565.4398526000004,565.4683055999922,565.4727368000022,565.4727368000022,565.4727368000022,568.2400059999927,Scenes\001a.jpg,mid,s,2.764492900008918,None,,,,,,,,00019,001,2025-11-09_15h47.52.826,MST_test,2024.2.2,59.98760655690077,2025-11-09 15h48.06.404462 +0530,
121,0,121,n,2.0538965000014286,None,121,0,121,0,568.2562190000026,,,,,,,,,,,,,,,,,,,,,,,,,,,,,,,,,,,,,,,,,,,,,,,,,,568.2400882999937,568.2562190000026,568.7731426999962,568.7397577999945,568.7618384999951,568.7731426999962,568.7731426999962,568.7731426999962,570.8399242000014,Scenes\155b.jpg,mid,n,2.0538965000014286,None,,,,,,,,00019,001,2025-11-09_15h47.52.826,MST_test,2024.2.2,59.98760655690077,2025-11-09 15h48.06.404462 +0530,
122,0,122,n,1.1855734000127995,None,122,0,122,0,570.8561657999962,,,,,,,,,,,,,,,,,,,,,,,,,,,,,,,,,,,,,,,,,,,,,,,,,,570.8400054999947,570.8561657999962,571.3563280999952,571.3396964999993,571.3508489999949,571.3563280999952,571.3563280999952,571.3563280999952,572.5564233000041,Foils\scenes17.jpg,none,n,1.1855734000127995,None,,,,,,,,00019,001,2025-11-09_15h47.52.826,MST_test,2024.2.2,59.98760655690077,2025-11-09 15h48.06.404462 +0530,
123,0,123,n,3.1190949000010733,None,123,0,123,0,572.5728339000052,,,,,,,,,,,,,,,,,,,,,,,,,,,,,,,,,,,,,,,,,,,,,,,,,,572.5565013000014,572.5728339000052,573.0896103999985,573.0563833999913,573.0736238999962,573.0896103999985,573.0896103999985,573.0896103999985,576.2231615000055,Foils\121a.jpg,none,n,3.1190949000010733,None,,,,,,,,00019,001,2025-11-09_15h47.52.826,MST_test,2024.2.2,59.98760655690077,2025-11-09 15h48.06.404462 +0530,
124,0,124,o,2.484997099993052,None,124,0,124,0,576.239413999996,,,,,,,,,,,,,,,,,,,,,,,,,,,,,,,,,,,,,,,,,,,,,,,,,,576.2232522999984,576.239413999996,576.756332799996,576.7229231999954,576.7445599999919,576.756332799996,576.756332799996,576.756332799996,579.2563790999993,Scenes\125a.jpg,post,o,2.484997099993052,None,,,,,,,,00019,001,2025-11-09_15h47.52.826,MST_test,2024.2.2,59.98760655690077,2025-11-09 15h48.06.404462 +0530,
125,0,125,n,2.1181973999919137,None,125,0,125,0,579.2726859999966,,,,,,,,,,,,,,,,,,,,,,,,,,,,,,,,,,,,,,,,,,,,,,,,,,579.2564592999988,579.2726859999966,579.789306199993,579.756197900002,579.7723213999998,579.789306199993,579.789306199993,579.789306199993,581.9229705000034,Scenes\069a.jpg,pre,n,2.1181973999919137,None,,,,,,,,00019,001,2025-11-09_15h47.52.826,MST_test,2024.2.2,59.98760655690077,2025-11-09 15h48.06.404462 +0530,
126,0,126,n,1.4873064999992494,None,126,0,126,0,581.9392614999961,,,,,,,,,,,,,,,,,,,,,,,,,,,,,,,,,,,,,,,,,,,,,,,,,,581.9230472999916,581.9392614999961,582.4561577999993,582.4229306999914,582.450759600004,582.4561577999993,582.4561577999993,582.4561577999993,583.956273799995,Scenes\175b.jpg,pre,n,1.4873064999992494,None,,,,,,,,00019,001,2025-11-09_15h47.52.826,MST_test,2024.2.2,59.98760655690077,2025-11-09 15h48.06.404462 +0530,
127,0,127,o,1.8428893999953289,None,127,0,127,0,583.9726021999959,,,,,,,,,,,,,,,,,,,,,,,,,,,,,,,,,,,,,,,,,,,,,,,,,,583.9563586000004,583.9726021999959,584.4895019999967,584.456113799999,584.472897899992,584.4895019999967,584.4895019999967,584.4895019999967,586.339558599997,Objects\182b.jpg,post,o,1.8428893999953289,None,,,,,,,,00019,001,2025-11-09_15h47.52.826,MST_test,2024.2.2,59.98760655690077,2025-11-09 15h48.06.404462 +0530,
128,0,128,s,3.116695599994273,None,128,0,128,0,586.3558775999991,,,,,,,,,,,,,,,,,,,,,,,,,,,,,,,,,,,,,,,,,,,,,,,,,,586.3396457000053,586.3558775999991,586.8889161999978,586.8394203999924,586.8830251000036,586.8889161999978,586.8889161999978,586.8889161999978,590.0061906000046,Scenes\119b.jpg,pre,s,3.116695599994273,None,,,,,,,,00019,001,2025-11-09_15h47.52.826,MST_test,2024.2.2,59.98760655690077,2025-11-09 15h48.06.404462 +0530,
129,0,129,s,1.632074699999066,None,129,0,129,0,590.0224477000011,,,,,,,,,,,,,,,,,,,,,,,,,,,,,,,,,,,,,,,,,,,,,,,,,,590.0062806999922,590.0224477000011,590.5393294999958,590.5060075999936,590.5296806999977,590.5393294999958,590.5393294999958,590.5393294999958,592.1728046999924,Scenes\077b.jpg,mid,s,1.632074699999066,None,,,,,,,,00019,001,2025-11-09_15h47.52.826,MST_test,2024.2.2,59.98760655690077,2025-11-09 15h48.06.404462 +0530,
130,0,130,n,2.5897927999903914,None,130,0,130,0,592.1890510999947,,,,,,,,,,,,,,,,,,,,,,,,,,,,,,,,,,,,,,,,,,,,,,,,,,592.1728899000009,592.1890510999947,592.7059853999963,592.672582500003,592.688525599995,592.7059853999963,592.7059853999963,592.7059853999963,595.3059240000002,Objects\021b.jpg,mid,n,2.5897927999903914,None,,,,,,,,00019,001,2025-11-09_15h47.52.826,MST_test,2024.2.2,59.98760655690077,2025-11-09 15h48.06.404462 +0530,
131,0,131,s,5.755961799994111,None,131,0,131,0,595.3223373999936,,,,,,,,,,,,,,,,,,,,,,,,,,,,,,,,,,,,,,,,,,,,,,,,,,595.3060019999975,595.3223373999936,595.8391445000016,595.8059271999955,595.8304037000053,595.8391445000016,595.8391445000016,595.8391445000016,601.6059695000004,Scenes\130a.jpg,post,s,5.755961799994111,None,,,,,,,,00019,001,2025-11-09_15h47.52.826,MST_test,2024.2.2,59.98760655690077,2025-11-09 15h48.06.404462 +0530,
132,0,132,o,1.1994372999906773,None,132,0,132,0,601.6222042000009,,,,,,,,,,,,,,,,,,,,,,,,,,,,,,,,,,,,,,,,,,,,,,,,,,601.6060517000005,601.6222042000009,602.1222035999963,602.1056922999996,602.1157792000013,602.1222035999963,602.1222035999963,602.1222035999963,603.3224630000041,Objects\044a.jpg,mid,o,1.1994372999906773,None,,,,,,,,00019,001,2025-11-09_15h47.52.826,MST_test,2024.2.2,59.98760655690077,2025-11-09 15h48.06.404462 +0530,
133,0,133,s,1.8252784999931464,None,133,0,133,0,603.3388347,,,,,,,,,,,,,,,,,,,,,,,,,,,,,,,,,,,,,,,,,,,,,,,,,,603.3225372000015,603.3388347,603.8557920000021,603.8224308999925,603.839306599999,603.8557920000021,603.8557920000021,603.8557920000021,605.6890581000043,Scenes\178a.jpg,pre,s,1.8252784999931464,None,,,,,,,,00019,001,2025-11-09_15h47.52.826,MST_test,2024.2.2,59.98760655690077,2025-11-09 15h48.06.404462 +0530,
134,0,134,n,5.0174388000014005,None,134,0,134,0,605.7054105999996,,,,,,,,,,,,,,,,,,,,,,,,,,,,,,,,,,,,,,,,,,,,,,,,,,605.6891459000035,605.7054105999996,606.2056324000005,606.1891898000031,606.2011388999963,606.2056324000005,606.2056324000005,606.2056324000005,611.2389164999913,Foils\scenes11.jpg,none,n,5.0174388000014005,None,,,,,,,,00019,001,2025-11-09_15h47.52.826,MST_test,2024.2.2,59.98760655690077,2025-11-09 15h48.06.404462 +0530,
135,0,135,n,6.814068200008478,None,135,0,135,0,611.2553542999958,,,,,,,,,,,,,,,,,,,,,,,,,,,,,,,,,,,,,,,,,,,,,,,,,,611.2390019000013,611.2553542999958,611.755538700003,611.7388341000042,611.7486753999983,611.755538700003,611.755538700003,611.755538700003,618.5722207999934,Objects\003a.jpg,post,n,6.814068200008478,None,,,,,,,,00019,001,2025-11-09_15h47.52.826,MST_test,2024.2.2,59.98760655690077,2025-11-09 15h48.06.404462 +0530,
136,0,136,o,1.7217990000062855,None,136,0,136,0,618.5885050999932,,,,,,,,,,,,,,,,,,,,,,,,,,,,,,,,,,,,,,,,,,,,,,,,,,618.5723041000019,618.5885050999932,619.1051598000049,619.0719666999939,619.0922920000012,619.1051598000049,619.1051598000049,619.1051598000049,620.8388271000003,Scenes\172a.jpg,mid,o,1.7217990000062855,None,,,,,,,,00019,001,2025-11-09_15h47.52.826,MST_test,2024.2.2,59.98760655690077,2025-11-09 15h48.06.404462 +0530,
137,0,137,n,1.6915888999938034,None,137,0,137,0,620.8551365000021,,,,,,,,,,,,,,,,,,,,,,,,,,,,,,,,,,,,,,,,,,,,,,,,,,620.8389138999919,620.8551365000021,621.3717398000008,621.3386906999949,621.3574986000021,621.3717398000008,621.3717398000008,621.3717398000008,623.0720046999922,Foils\082a.jpg,none,n,1.6915888999938034,None,,,,,,,,00019,001,2025-11-09_15h47.52.826,MST_test,2024.2.2,59.98760655690077,2025-11-09 15h48.06.404462 +0530,
138,0,138,s,2.1107960999943316,None,138,0,138,0,623.0884126000019,,,,,,,,,,,,,,,,,,,,,,,,,,,,,,,,,,,,,,,,,,,,,,,,,,623.0720918000006,623.0884126000019,623.5883580999944,623.5720404000022,623.5816122999968,623.5883580999944,623.5883580999944,623.5883580999944,625.7052795000054,Objects\120a.jpg,pre,s,2.1107960999943316,None,,,,,,,,00019,001,2025-11-09_15h47.52.826,MST_test,2024.2.2,59.98760655690077,2025-11-09 15h48.06.404462 +0530,
139,0,139,o,1.3643997000035597,None,139,0,139,0,625.7216863999929,,,,,,,,,,,,,,,,,,,,,,,,,,,,,,,,,,,,,,,,,,,,,,,,,,625.7053614000033,625.7216863999929,626.2216326999915,626.2051745999925,626.2159180000017,626.2216326999915,626.2216326999915,626.2216326999915,627.5886778999993,Objects\123a.jpg,mid,o,1.3643997000035597,None,,,,,,,,00019,001,2025-11-09_15h47.52.826,MST_test,2024.2.2,59.98760655690077,2025-11-09 15h48.06.404462 +0530,
140,0,140,o,5.148623000000953,None,140,0,140,0,627.6049765999924,,,,,,,,,,,,,,,,,,,,,,,,,,,,,,,,,,,,,,,,,,,,,,,,,,627.5887609999918,627.6049765999924,628.1382985999953,628.0884513999918,628.1202265000029,628.1382985999953,628.1382985999953,628.1382985999953,633.2886196000036,Objects\170b.jpg,mid,o,5.148623000000953,None,,,,,,,,00019,001,2025-11-09_15h47.52.826,MST_test,2024.2.2,59.98760655690077,2025-11-09 15h48.06.404462 +0530,
141,0,141,n,3.340982499998063,None,141,0,141,0,633.3048525000049,,,,,,,,,,,,,,,,,,,,,,,,,,,,,,,,,,,,,,,,,,,,,,,,,,633.2887006999954,633.3048525000049,633.8549109000014,633.7883433999959,633.8408831999986,633.8549109000014,633.8549109000014,633.8549109000014,637.2050329999911,Scenes\114b.jpg,post,n,3.340982499998063,None,,,,,,,,00019,001,2025-11-09_15h47.52.826,MST_test,2024.2.2,59.98760655690077,2025-11-09 15h48.06.404462 +0530,
142,0,142,n,2.095709100001841,None,142,0,142,0,637.2214348999987,,,,,,,,,,,,,,,,,,,,,,,,,,,,,,,,,,,,,,,,,,,,,,,,,,637.2051253999962,637.2214348999987,637.7380884000013,637.7050296999951,637.720720199999,637.7380884000013,637.7380884000013,637.7380884000013,639.8385927000054,Foils\101b.jpg,none,n,2.095709100001841,None,,,,,,,,00019,001,2025-11-09_15h47.52.826,MST_test,2024.2.2,59.98760655690077,2025-11-09 15h48.06.404462 +0530,
143,0,143,n,1.2879262000060407,None,143,0,143,0,639.8546894000028,,,,,,,,,,,,,,,,,,,,,,,,,,,,,,,,,,,,,,,,,,,,,,,,,,639.8386857000005,639.8546894000028,640.3716312000033,640.3383480000048,640.3580671999953,640.3716312000033,640.3716312000033,640.3716312000033,641.6717130000034,Scenes\100a.jpg,mid,n,1.2879262000060407,None,,,,,,,,00019,001,2025-11-09_15h47.52.826,MST_test,2024.2.2,59.98760655690077,2025-11-09 15h48.06.404462 +0530,
144,0,144,s,1.5779001000046264,None,144,0,144,0,641.6881641999935,,,,,,,,,,,,,,,,,,,,,,,,,,,,,,,,,,,,,,,,,,,,,,,,,,641.6718007000018,641.6881641999935,642.2212868999923,642.1716076000012,642.2151774999948,642.2212868999923,642.2212868999923,642.2212868999923,643.8049992000015,Scenes\060b.jpg,post,s,1.5779001000046264,None,,,,,,,,00019,001,2025-11-09_15h47.52.826,MST_test,2024.2.2,59.98760655690077,2025-11-09 15h48.06.404462 +0530,
145,0,145,o,1.1699223000032362,None,145,0,145,0,643.8212880999927,,,,,,,,,,,,,,,,,,,,,,,,,,,,,,,,,,,,,,,,,,,,,,,,,,643.8050846999977,643.8212880999927,644.337916000004,644.3048964000045,644.3229974999995,644.337916000004,644.337916000004,644.337916000004,645.5215615999914,Scenes\154a.jpg,mid,o,1.1699223000032362,None,,,,,,,,00019,001,2025-11-09_15h47.52.826,MST_test,2024.2.2,59.98760655690077,2025-11-09 15h48.06.404462 +0530,
146,0,146,n,3.1621744000003673,None,146,0,146,0,645.5379164000042,,,,,,,,,,,,,,,,,,,,,,,,,,,,,,,,,,,,,,,,,,,,,,,,,,645.5216439999931,645.5379164000042,646.0547837999911,646.0213855000038,646.043307400003,646.0547837999911,646.0547837999911,646.0547837999911,649.2215823000006,Foils\scenes3.jpg,none,n,3.1621744000003673,None,,,,,,,,00019,001,2025-11-09_15h47.52.826,MST_test,2024.2.2,59.98760655690077,2025-11-09 15h48.06.404462 +0530,
147,0,147,o,1.4781660000007832,None,147,0,147,0,649.2378307000035,,,,,,,,,,,,,,,,,,,,,,,,,,,,,,,,,,,,,,,,,,,,,,,,,,649.221672700005,649.2378307000035,649.7713786999957,649.7213997999934,649.7528435999993,649.7713786999957,649.7713786999957,649.7713786999957,651.2548790000001,Scenes\002b.jpg,mid,o,1.4781660000007832,None,,,,,,,,00019,001,2025-11-09_15h47.52.826,MST_test,2024.2.2,59.98760655690077,2025-11-09 15h48.06.404462 +0530,
148,0,148,n,3.340177100006258,None,148,0,148,0,651.2710886999994,,,,,,,,,,,,,,,,,,,,,,,,,,,,,,,,,,,,,,,,,,,,,,,,,,651.2549600999919,651.2710886999994,651.7713581999997,651.7546189999994,651.7666114000021,651.7713581999997,651.7713581999997,651.7713581999997,655.1214212999912,Objects\185a.jpg,mid,n,3.340177100006258,None,,,,,,,,00019,001,2025-11-09_15h47.52.826,MST_test,2024.2.2,59.98760655690077,2025-11-09 15h48.06.404462 +0530,
149,0,149,o,1.2932568000105675,None,149,0,149,0,655.137704599998,,,,,,,,,,,,,,,,,,,,,,,,,,,,,,,,,,,,,,,,,,,,,,,,,,655.121513799997,655.137704599998,655.6544258999929,655.6212994999951,655.6465904999932,655.6544258999929,655.6544258999929,655.6544258999929,656.9546304999967,Objects\040b.jpg,post,o,1.2932568000105675,None,,,,,,,,00019,001,2025-11-09_15h47.52.826,MST_test,2024.2.2,59.98760655690077,2025-11-09 15h48.06.404462 +0530,
,,,,,,,,,,,,,,,,,,,,,,,,,,,,,,,,,,,,,,,,,,,,,,,,,,,,,,,,,,,,,,,,,,,,,,,,,,656.954685299992,656.9710266000038,656.9710266000038,659.0546404000052,space,2.078190000000177,None,00019,001,2025-11-09_15h47.52.826,MST_test,2024.2.2,59.98760655690077,2025-11-09 15h48.06.404462 +0530,
